group,subject,num_trials,num_correct,p_reward,p_chance,reward_over_chance,avg_rt,median_rt,sd_rt,max_choice_bias
spark,xo2uzc5keh8cdno,200,119,0.595,0.4535,0.14149999999999996,289.11350000004285,258.59999999962747,141.9164871123921,0.47
spark,wfmtul7qoeoykes,200,138,0.69,0.5518333333333333,0.13816666666666666,233.24849999904632,194.59999990463257,204.79039290504488,0.62
spark,c1yeqa4qnalb7me,200,133,0.665,0.5305,0.13450000000000006,338.755,253.5,365.73708185006484,0.5
rep,6ms5mnsj21nfn5v,300,192,0.64,0.5075555555555555,0.13244444444444448,449.67933332602183,303.4499999284744,622.5732198598951,0.5933333333333334
rep,2r3ptwvy965fj5t,300,187,0.6233333333333333,0.49622222222222223,0.12711111111111106,947.0899999999996,534,1916.3040798164207,0.7066666666666667
spark,d7c5zmytwlqw3yu,200,136,0.68,0.555,0.125,433.1394999998063,339.05000000074506,451.68740879719286,0.635
spark,seu4neodvh38f7y,200,121,0.605,0.4841666666666667,0.12083333333333329,352.1399999991804,261.19999999552965,502.22799343221925,0.61
spark,4yjc7hw8kl5hhnl,200,136,0.68,0.563,0.1170000000000001,839.8725000014902,347.25,2031.7186744329686,0.445
spark,omhxvnwssrwzkau,200,122,0.61,0.4945,0.11549999999999999,246.83099999969826,126.15000000037253,930.2429649332872,0.39
spark,6uko8l4u3esu4ne,200,128,0.64,0.5258333333333334,0.11416666666666664,379.04799999684093,282,309.09951040398033,0.81
rep,s2zthvxk4cjltjq,300,180,0.6,0.4865555555555555,0.11344444444444446,237.53999999523163,107.44999998807907,1168.2391721485808,0.37666666666666665
spark,9v7dx59jullgljs,200,121,0.605,0.49266666666666664,0.11233333333333334,614.1699999998137,144.54999999701977,3416.470112447401,0.445
rep,5x11pzsynjysc0x,300,184,0.6133333333333333,0.5042222222222222,0.10911111111111105,1084.274999998013,831.8499999940395,884.087632504043,0.4066666666666667
rep,417wd0axwg7sf08,300,183,0.61,0.5042222222222222,0.10577777777777775,532.666666666663,340.0000000000291,791.6300626402526,0.4033333333333333
rep,4pac2lkzdwll4r3,300,182,0.6066666666666667,0.5031111111111111,0.10355555555555562,595.8683333337307,416.6499999985099,496.43636495021366,0.44666666666666666
spark,4dpnshc31q2v0vl,200,126,0.63,0.5293333333333333,0.10066666666666668,536.6525000000023,365.1999999997206,484.736523048992,0.64
rep,jy0po99ckc5rgql,300,179,0.5966666666666667,0.49766666666666665,0.09900000000000003,488.3236666681369,328.7999999821186,938.0187945896726,0.39
spark,omxc7oaez7as8xu,200,126,0.63,0.5325,0.09750000000000003,632.9570000000036,459.20000000001164,687.7644797815954,0.48
spark,tgdugzqgqvl0tok,200,123,0.615,0.5188333333333334,0.09616666666666662,415.6239999911189,265.69999998807907,660.3318429681299,0.505
spark,4z6db74p8xzyshe,200,125,0.625,0.5305,0.09450000000000003,367.8445000016689,265.40000000596046,375.78571204460775,0.46
rep,27vew4dgqp7ao2p,300,177,0.59,0.4955555555555555,0.09444444444444444,743.1626666684946,361.64999997615814,991.4646926613435,0.38333333333333336
spark,jnqr7br1x8vlvx8,200,128,0.64,0.546,0.09399999999999997,250.965,204,218.1273515229396,0.58
spark,2k438krwd3k4xqx,200,116,0.58,0.48616666666666664,0.09383333333333332,452.9129999999143,356.15000000037253,356.3210415542506,0.425
spark,t0x6vxx70vsqmdh,200,120,0.6,0.5063333333333333,0.09366666666666668,309.90000000000117,264,322.2822041247015,0.45
rep,20g8gaznvzcrza5,300,178,0.5933333333333334,0.5013333333333333,0.09200000000000008,486.51566665331524,396.64999985694885,326.02964634233206,0.4066666666666667
spark,7tpzu16bj8n8fd2,200,117,0.585,0.49383333333333335,0.09116666666666662,349.41199999570847,256.1999999284744,413.9388553126903,0.485
rep,r1catxd7wqkmehe,300,178,0.5933333333333334,0.5042222222222222,0.08911111111111114,636.9623333422343,445.34999990463257,579.7159845636676,0.3933333333333333
rep,1z5t5teqo101ox9,300,174,0.58,0.4915555555555555,0.08844444444444444,1080.3383333337306,751.2999999523163,1070.5480510158718,0.56
rep,s03zx64ty2uaehk,300,174,0.58,0.4921111111111111,0.08788888888888885,778.0559999624888,609.4999995231628,592.4807761818267,0.53
rep,mwcqrrcczvjsbnx,300,176,0.5866666666666667,0.49933333333333335,0.08733333333333332,1043.9826666665076,433.75,4678.198050678257,0.4266666666666667
spark,hlsmo06vhrfpt8l,200,117,0.585,0.498,0.08699999999999997,313.551499992609,220.90000009536743,340.50538406860323,0.39
rep,rhx7eruteguet17,300,177,0.59,0.5035555555555555,0.08644444444444443,2244.091000000437,946.7500000298023,3720.0261397050194,0.49
spark,t2vfwg53gjeslzh,200,121,0.605,0.5188333333333334,0.08616666666666661,271.777999997139,244.950000166893,217.7215286481682,0.365
rep,9uavves474fs3b2,300,178,0.5933333333333334,0.5075555555555555,0.08577777777777784,694.3100000000004,518,524.6149732268271,0.35333333333333333
spark,ht9n4mlwdhvjl91,200,112,0.56,0.4746666666666667,0.08533333333333337,239.33599999904632,142.94999992847443,636.5962290188239,0.38
spark,mpzxacpehg69duw,200,131,0.655,0.5703333333333334,0.08466666666666667,830.9334999984503,284.05000001192093,3605.1316397879036,0.435
rep,fc60n7tg2jdxje4,300,177,0.59,0.5083333333333333,0.08166666666666667,1195.5633333333355,458.5000000000582,2645.0492277801127,0.43
rep,skn5vpde2eurr8u,300,173,0.5766666666666667,0.4955555555555555,0.08111111111111113,1107.3376666666195,495.80000000074506,2849.5907043800676,0.4633333333333333
spark,w1qhombhg1kge2c,200,130,0.65,0.5695,0.08050000000000002,1699.745,297.5,14862.108373190436,0.495
spark,0v9s70j9ahfy7a7,200,120,0.6,0.52,0.07999999999999996,276.895,250.5,333.29983177961793,0.39
rep,jsnakn4m73maafz,300,176,0.5866666666666667,0.5076666666666667,0.07899999999999996,1288.5096666701634,1145.6500000953674,706.9394997232575,0.36
rep,rhg6xwwvd29p6ec,300,174,0.58,0.5011111111111111,0.0788888888888889,600.4886666668455,433.04999999701977,479.0987430128471,0.4033333333333333
spark,gnh9a92utd42dqx,200,121,0.605,0.5286666666666667,0.07633333333333325,614.3120000004768,317.84999999403954,523.8459290088834,0.36
rep,wluc2hctgut2hlm,300,172,0.5733333333333334,0.4974444444444444,0.07588888888888895,533.0479999995232,333.30000001192093,465.5896728972753,0.45
rep,by0ltr49hznn1rq,300,175,0.5833333333333334,0.5075555555555555,0.07577777777777783,507.88000000000017,342.4999999999709,636.8674583183544,0.4033333333333333
rep,hvconp1fg8ucxc5,300,174,0.58,0.5046666666666667,0.07533333333333325,459.356666692098,338.25,488.6416877199455,0.35
spark,xf4gtoalamdqxxe,200,125,0.625,0.55,0.07499999999999996,1480.7750000017882,948.3000000119209,1726.2575291478488,0.795
spark,cc9tfmds0xs9gyh,200,121,0.605,0.5303333333333333,0.07466666666666666,684.0949999991059,291.15000000596046,2080.8039061505383,0.385
spark,nj3plvqcjfltacj,200,129,0.645,0.5703333333333334,0.07466666666666666,319.18849999547007,295.8000000715256,172.3646640373174,0.535
rep,wl8mqz8bee2bqfa,300,171,0.57,0.49566666666666664,0.0743333333333333,407.6139999995629,281.19999998807907,495.35790237211984,0.4
spark,yowb21svt76o5km,200,114,0.57,0.4973333333333333,0.07266666666666666,261.33600001215933,166.85000002384186,675.5003064674004,0.635
spark,yrdqbys9rhspseh,200,130,0.65,0.5776666666666667,0.07233333333333336,386.03749999940396,207.19999998807907,888.1433289740878,0.375
spark,9z1r0tjpthx1upo,200,118,0.59,0.5181666666666667,0.0718333333333333,7181.462000001669,447.8000000715256,91372.34316535322,0.905
spark,lrjngex4bcj0q9o,200,128,0.64,0.5683333333333334,0.07166666666666666,415.6915000247955,275.2999999523163,582.9819312308454,0.39
rep,6rufc2lcx3w072l,300,173,0.5766666666666667,0.5052222222222222,0.07144444444444442,812.8333333333356,350.5,4601.005905600076,0.5266666666666666
spark,5b0cda1auscty3x,200,120,0.6,0.5286666666666667,0.07133333333333325,347.6210000050068,284.5,246.0636346960125,0.44
spark,uwxv6k3egpqexz3,200,122,0.61,0.5388333333333333,0.07116666666666671,1059.574999998808,559.6999999880791,2286.919634245852,0.385
rep,ap81ay2br6cka12,300,171,0.57,0.49922222222222223,0.07077777777777772,696.8439999999106,361.69999999552965,1074.9092603833155,0.38333333333333336
spark,o0s5gwo44382rls,200,112,0.56,0.4895,0.07050000000000006,518.9139999949932,458.40000009536743,270.1415965994239,0.445
spark,46d0uard7gtt24q,200,128,0.64,0.5695,0.07050000000000001,300.17600000001954,225.1500000001397,310.50671656044887,0.405
rep,u13os16xepsc5je,300,173,0.5766666666666667,0.5076666666666667,0.06899999999999995,356.17000000000166,157.9999999999709,1142.191788348715,0.7633333333333333
rep,n8e357c7v1x4gpt,300,171,0.57,0.5011111111111111,0.06888888888888889,966.05699999849,706.0500000119209,724.4780766846305,0.5733333333333334
spark,7uou8eg87tbx5u0,200,108,0.54,0.4711666666666667,0.06883333333333336,711.4180000114441,180.60000014305115,6092.373943726026,0.425
spark,dn41v8te4g39rnz,200,120,0.6,0.5311666666666667,0.0688333333333333,385.9,287.5,342.05486056799566,0.34
rep,vz8ybgzn49g3kyv,300,169,0.5633333333333334,0.49477777777777776,0.06855555555555559,343.4966666666688,260.5000000000582,354.6137424626486,0.39
rep,1j7u245pzpotkv4,300,171,0.57,0.502,0.06799999999999995,418.2083333334327,248.09999999403954,569.9937739188224,0.44666666666666666
rep,m6yd0f2ep2kgvp5,300,172,0.5733333333333334,0.5064444444444445,0.06688888888888889,627.4426666679979,373.34999999403954,1070.1962414261782,0.4533333333333333
rep,5lzzr9z4ga1mtde,300,171,0.57,0.5034444444444445,0.06655555555555548,280.72833333849906,124.59999996423721,1067.4514382757686,0.5366666666666666
rep,shn6q0q5u0r3nbn,300,171,0.57,0.5037777777777778,0.06622222222222218,332.05833333412806,127.75,929.8482697642061,0.3933333333333333
rep,3uzecuzd5nk4ypo,300,169,0.5633333333333334,0.49722222222222223,0.06611111111111112,264.3576666670044,122.24999999254942,981.0526864646671,0.5733333333333334
spark,qz8cgch5nkp9j2p,200,115,0.575,0.5093333333333333,0.06566666666666665,916.6950000000047,398.0500000002794,1595.9606170677348,0.415
rep,t1m87ukxkyw5atc,300,169,0.5633333333333334,0.4978888888888889,0.06544444444444447,2203.214666665892,338.20000000298023,8906.696112779098,0.36666666666666664
spark,00efg9c6oh3oz2r,200,123,0.615,0.5498333333333333,0.0651666666666667,621.99,343,1301.6435918101786,0.36
rep,exjjq2cu8v6fq9s,300,168,0.56,0.4971111111111111,0.06288888888888894,1317.0466666666666,1050.9999999999418,1044.0823071174411,0.45
spark,b4zh0br00gmza79,200,119,0.595,0.5323333333333333,0.06266666666666665,671.16,378,1056.1696054980418,0.5
spark,vu35x6fdppjvx2d,200,116,0.58,0.5176666666666666,0.06233333333333335,319.02150000005963,231.69999999552965,941.8253755756042,0.38
rep,kmqtupbvom6cpy0,300,170,0.5666666666666667,0.5044444444444445,0.06222222222222218,631.2866666666674,467,592.9742484740777,0.4533333333333333
rep,yaafl1lj5ah4r2a,300,168,0.56,0.498,0.062000000000000055,1199.683333333335,953.5,1064.668514864617,0.4766666666666667
spark,zu6mn1j4qf0f22x,200,125,0.625,0.5636666666666666,0.06133333333333335,450.4140000024438,376.34999999403954,358.6923870752771,0.425
rep,hepynrayw9vhhuu,300,167,0.5566666666666666,0.49533333333333335,0.061333333333333295,578.3496666666741,307.6499999994412,1378.3374002021205,0.44
rep,crtw631q9zvs1mj,300,168,0.56,0.49877777777777776,0.06122222222222229,687.4089999996622,193.69999999552965,3004.532788828777,0.63
spark,ngvou7v5zlj8hy1,200,111,0.555,0.4943333333333333,0.06066666666666676,225.76300000071527,151.69999998807907,308.7500926748879,0.985
rep,prqczdd2huy7f28,300,170,0.5666666666666667,0.5062222222222222,0.06044444444444441,535.6513333320618,303.85000002384186,1098.472502114221,0.4166666666666667
spark,2y4vk1u1y0bf2wg,200,114,0.57,0.5101666666666667,0.059833333333333294,877.8135000000149,342.2999999988824,1412.550027954981,0.41
spark,drynpn9t38hnzzq,200,114,0.57,0.5108333333333334,0.05916666666666659,901.5225000047684,273.14999997615814,3224.3665338182536,0.56
rep,mlmn9dg7cmbsm27,300,172,0.5733333333333334,0.5145555555555555,0.05877777777777782,560.2453333333507,383.3500000014901,934.801931524724,0.37666666666666665
spark,2d2pu464mj4bu00,200,115,0.575,0.5171666666666667,0.05783333333333329,504.77300000041726,452.80000001192093,259.25733451485354,0.51
rep,67rvv46w9pvhn48,300,166,0.5533333333333333,0.49577777777777776,0.05755555555555558,337.4133333349228,320.2999999523163,236.84626999652554,0.38333333333333336
spark,nyy74h78drrt8h8,200,125,0.625,0.5675,0.057499999999999996,271.78200000047684,245.14999999850988,267.90838019185975,0.7
spark,3pvqvuz9hfwum7v,200,106,0.53,0.4726666666666667,0.05733333333333335,403.1689999961853,261.39999997615814,717.9136367825166,0.38
rep,kn4dk4y9l3l9kc9,300,170,0.5666666666666667,0.5095555555555555,0.05711111111111111,556.4566666666667,363.5,581.474899128596,0.44666666666666666
spark,1d1pe5uwhmxgssn,200,111,0.555,0.498,0.05700000000000005,553.2465000006556,327.25,915.4285499353302,0.655
rep,ml4pf17pja54pmy,300,168,0.56,0.5042222222222222,0.055777777777777815,2644.60600000004,648.6499999985099,13186.141226707086,0.6866666666666666
rep,u6hhur0mxep0u28,300,165,0.55,0.49422222222222223,0.055777777777777815,602.1566666666646,353.5,644.9210981702381,0.43333333333333335
spark,1doytpr87kqf58w,200,113,0.565,0.5095,0.055499999999999994,353.9254999756813,282.34999990463257,492.560732863143,0.375
rep,vyhe9ps38qy4qdp,300,166,0.5533333333333333,0.4978888888888889,0.05544444444444446,706.3559999996423,315.44999998807907,1365.630281009399,0.49
spark,wrqvq0tk9bzen12,200,118,0.59,0.5346666666666666,0.055333333333333345,365.69,242,688.4668743559323,0.44
rep,wm2zd2cvp08rvd6,300,167,0.5566666666666666,0.5016666666666667,0.05499999999999994,838.3493333347639,511.3999999910593,1063.392512614284,0.5
rep,7z9bnzslxyuhewq,300,169,0.5633333333333334,0.5091111111111111,0.05422222222222228,931.9009999999963,643.8499999996275,1124.1070909863122,0.59
rep,jzz7hoqqukcgmad,300,169,0.5633333333333334,0.5095555555555555,0.05377777777777781,356.5933333333331,308.49999999998545,235.0011626432956,0.35
rep,kgjm0ootlyqzgwr,300,167,0.5566666666666666,0.5031111111111111,0.05355555555555558,1894.239666647911,901.1000001430511,6303.987493804969,0.4533333333333333
rep,56a1l1ad0eb0m45,300,167,0.5566666666666666,0.504,0.05266666666666664,383.191666666617,242.70000000298023,956.7595235913751,0.36333333333333334
rep,arsr9nr3h5q6lsx,300,165,0.55,0.49766666666666665,0.0523333333333334,357.0036666651567,158.44999998807907,965.9657801281594,0.41333333333333333
rep,10alp2msjpqseyc,300,165,0.55,0.4978888888888889,0.052111111111111164,485.1350000000745,362.5499999988824,796.1675151094701,0.36
rep,wtwln2x34o0v21v,300,168,0.56,0.5083333333333333,0.05166666666666675,885.4129999989271,458.50000001490116,2142.3905928125046,0.42333333333333334
rep,qdaoj19kju8x1aa,300,164,0.5466666666666666,0.49566666666666664,0.05099999999999999,826.3643333329757,279.5,3251.2971425876917,0.38333333333333336
spark,25sybe6b9tou51f,200,111,0.555,0.5045,0.0505000000000001,442.588500000909,289.25,850.6253064522741,0.44
spark,duhtzko8h2xmzn7,200,124,0.62,0.5695,0.05049999999999999,355.915,304,281.21366146039173,0.41
rep,laaa1x15zoszwl1,300,166,0.5533333333333333,0.5031111111111111,0.05022222222222228,718.3166666666644,396,3049.494107349297,0.42333333333333334
spark,xx05mhc30vz7kwv,200,120,0.6,0.5498333333333333,0.05016666666666669,932.892500000745,523.4999999925494,1522.6770498650058,0.34
rep,fj66zq6xoaccc3k,300,169,0.5633333333333334,0.5136666666666667,0.04966666666666664,491.8946666667859,348.70000000298023,563.019529804358,0.38
rep,etopr6r1loy4px6,300,166,0.5533333333333333,0.5037777777777778,0.049555555555555575,1208.562333338658,643.0000000596046,1569.348180488249,0.36
rep,muaxeh9xszaakkw,300,166,0.5533333333333333,0.5037777777777778,0.049555555555555575,446.9890000001341,318.94999999925494,517.7952186664847,0.44
rep,c6bthx3byy52eu3,300,163,0.5433333333333333,0.4951111111111111,0.04822222222222222,637.0659999994436,392,654.7091500937299,0.4666666666666667
spark,7erbets5yqww8xn,200,111,0.555,0.507,0.04800000000000004,669.2200000011921,456.94999998807907,788.7073928014171,0.345
spark,fnc3hg8wq9kkbcj,200,113,0.565,0.5181666666666667,0.04683333333333328,348.6170000009239,222.80000001192093,496.31706008532296,0.38
rep,dbsrngrqgslyu6m,300,165,0.55,0.5032222222222222,0.04677777777777781,511.78633333245915,436.8999999165535,385.98217676690047,0.41
rep,5f3whv9kmv4kfjl,300,165,0.55,0.5035555555555555,0.04644444444444451,668.6749999995033,309.8500000089407,3394.1410402168067,0.3933333333333333
rep,nxjk0pf1noe6l6d,300,164,0.5466666666666666,0.5004444444444445,0.046222222222222165,821.3899999999996,459.9999999999418,1183.8873632499322,0.34
spark,0r8zo8wgw4l43jk,200,121,0.605,0.5588333333333333,0.04616666666666669,554.5085000017285,417.15000000596046,564.3759719953324,0.495
rep,xd06oaz2xzcha2t,300,168,0.56,0.5144444444444445,0.04555555555555557,673.1633333384991,417.9000000357628,884.3593649028891,0.4
spark,o74b77m5zgvdctv,200,107,0.535,0.4895,0.04550000000000004,157.90150001704694,128.4000000357628,217.2522255140558,0.415
spark,v7k6wh8rn6m4lfu,200,122,0.61,0.56466666666666665,0.04533333333333334,416.6264999842644,301.0499999523163,327.6514644409365,0.41
rep,s58upcbrgv4br5k,300,162,0.54,0.49477777777777776,0.045222222222222275,523.2240000017484,158.15000009536743,2108.300744078424,0.38333333333333336
spark,am7nyb2k454t7ed,200,108,0.54,0.49483333333333335,0.04516666666666669,311.3259999997914,264.84999999403954,360.78254872167645,0.36
rep,bmrr4wsj7s2fs1r,300,162,0.54,0.4951111111111111,0.04488888888888892,1256.556666666668,475.49999999992724,4901.422432962024,0.3566666666666667
rep,z8gmkpfu036htbm,300,165,0.55,0.5053333333333333,0.04466666666666674,538.0666666662196,407.6000000014901,483.88849411614825,0.4066666666666667
spark,1v452ja587ru5xz,200,115,0.575,0.5303333333333333,0.04466666666666663,729.0730000019073,445.5,842.5651322628379,0.415
rep,wnumbwgxr2cjy6y,300,164,0.5466666666666666,0.5022222222222222,0.0444444444444444,815.3176666577657,387.60000014305115,1542.0799665618867,0.45
rep,gs3udt6gt5eyhcd,300,163,0.5433333333333333,0.49922222222222223,0.0441111111111111,1702.1366666666645,189,13430.35324898906,NA
rep,wxdzqhzuohl7gnk,300,165,0.55,0.5062222222222222,0.043777777777777804,688.7813333129883,111.19999980926514,6543.340640262291,0.43666666666666665
spark,mt0azdm3j99j6xz,200,97,0.485,0.44133333333333336,0.04366666666666663,280.0215000027418,270.75000005960464,175.82891264470592,0.46
spark,nxp8ky5d8aanw0c,200,112,0.56,0.5168333333333334,0.043166666666666687,431.7200000047684,241.35000014305115,896.0429192702836,0.355
spark,c3vvcyfv2mb2ms3,200,115,0.575,0.5318333333333334,0.043166666666666575,504.04799999654296,364.3000000715256,715.7225269369351,0.355
rep,976hzrbpj6n1lo2,300,165,0.55,0.507,0.04300000000000004,408.4016666658719,293.0499999523163,466.69116252133773,0.45
rep,hndz1u5lzhjafsq,300,160,0.5333333333333333,0.49077777777777776,0.04255555555555557,2505.6883333313467,745.5500000119209,9709.78776182856,0.4066666666666667
rep,soquxg8t4a9rxk5,300,164,0.5466666666666666,0.5042222222222222,0.042444444444444396,584.7313333344459,398.9500000476837,510.12789092933997,0.44666666666666666
spark,909j6gs3deyavh4,200,107,0.535,0.49266666666666664,0.04233333333333339,190.5740000000177,108.39999999990687,529.2030464251653,0.72
rep,7jg0kczztkw96nk,300,161,0.5366666666666666,0.4948888888888889,0.04177777777777775,956.8109999879201,505.4499999284744,2532.403386422522,0.36333333333333334
rep,rypca8e1k5pabqe,300,165,0.55,0.5083333333333333,0.04166666666666674,601.4840000004073,402.2499999925494,1312.6579876159133,0.35
spark,3nzgzkxhgl2yqxq,200,117,0.585,0.5435,0.04149999999999998,317.63600000157953,283.19999998807907,155.74017856729063,0.565
rep,mrcjt11ueoyjhcc,300,165,0.55,0.5086666666666667,0.04133333333333333,861.8496667083105,655.150000333786,658.692366997881,0.3933333333333333
rep,ymtw10krcdgrg7j,300,161,0.5366666666666666,0.49544444444444447,0.04122222222222216,714.4806666676203,476.0499999523163,781.8069499910641,0.36333333333333334
rep,qdne7zrt6yogwtk,300,165,0.55,0.5091111111111111,0.040888888888888975,451.27666666666715,262.5,793.5778977021047,0.47333333333333333
spark,ebn2c6r72w2zp41,200,117,0.585,0.5451666666666667,0.039833333333333276,280.385,248.5,287.8681942509567,0.44
spark,6l3d04mlxk63b6n,200,111,0.555,0.5155,0.03950000000000009,612.2400000011921,320.7999999523163,2015.0260739837036,0.395
rep,ahepvvdn2o6bszm,300,162,0.54,0.5006666666666667,0.03933333333333333,791.2200000000029,325.5,2833.3734349132733,0.5033333333333333
rep,91596uzp4j4gs0b,300,161,0.5366666666666666,0.49766666666666665,0.03899999999999998,6432.349999999996,1461,28381.380851141785,0.38
rep,k6ogbxgazwux52s,300,161,0.5366666666666666,0.4984444444444444,0.03822222222222221,2899.1866666666633,751.5,18068.75546642622,0.4866666666666667
rep,r3a8kd6jh5ne2a8,300,160,0.5333333333333333,0.49533333333333335,0.03799999999999998,1016.8130000001192,538.0499999970198,2218.5590496657387,0.38666666666666666
spark,br0odq5aalqrfrd,200,114,0.57,0.5321666666666667,0.037833333333333274,628.770499996543,386.55000001192093,1302.5274021449636,0.515
rep,x5f0ly05r58apgy,300,160,0.5333333333333333,0.4955555555555556,0.037777777777777743,399.78266666511695,231.65000000596046,789.7346764763298,0.44
spark,drf5h4qc3fzzgem,200,121,0.605,0.5675,0.03749999999999998,357.69499999999914,286.5,488.45332965520475,0.44
rep,7a9uocgpopmt0qe,300,162,0.54,0.5026666666666667,0.03733333333333333,989.8516666672627,606.25,1133.0540506521018,0.5766666666666667
spark,6u6st0eedm0ydu5,200,100,0.5,0.46266666666666667,0.03733333333333333,896.9085000038147,445.75,2713.025588127498,0.4
spark,4sqdq9k0tqsmjo9,200,120,0.6,0.563,0.03700000000000003,763.3345000000392,128.0500000002794,4242.856055927022,0.385
spark,h0w8eb372ejs0ft,200,109,0.545,0.5081666666666667,0.036833333333333385,390.8499999999997,310,319.2515233728395,0.375
spark,jmk58hlvnz28tv9,200,107,0.535,0.4985,0.03650000000000003,322.7890000000177,247.75,294.18550155577697,0.455
spark,krvbdjul505gomc,200,110,0.55,0.5143333333333333,0.035666666666666735,181.8364999999851,124.04999999888241,211.17828405398373,0.43
spark,6j6vyh25p99m6rq,200,112,0.56,0.5245,0.03550000000000009,372.2639999998361,150.05000000447035,1088.5899729238133,0.665
spark,zlvqk2brjx347l8,200,117,0.585,0.5498333333333333,0.03516666666666668,363.02,248.5,412.06615022445607,0.405
rep,fbuz53cba3m7vvk,300,160,0.5333333333333333,0.49822222222222223,0.03511111111111109,714.9299999999998,354.9999999999782,1274.9077395041134,0.3566666666666667
rep,j254fx16vbf96l3,300,161,0.5366666666666666,0.5016666666666667,0.03499999999999992,350.3626666800181,257.05000019073486,358.9813737476045,0.36666666666666664
rep,21l76q37rlyfuuy,300,162,0.54,0.5053333333333333,0.034666666666666734,445.6716666662693,336.39999997615814,362.6118209214949,0.36666666666666664
rep,harwcqff5uyjqee,300,164,0.5466666666666666,0.5122222222222222,0.03444444444444439,973.4553333298365,515.9000000357628,2972.752653776885,0.43
rep,t6pxvx6w4s4uy9z,300,164,0.5466666666666666,0.5122222222222222,0.03444444444444439,1874.3523333319029,324.2999999821186,9963.214729625317,0.4533333333333333
rep,2s6xc6qrdlc0y8b,300,159,0.53,0.49622222222222223,0.033777777777777795,311.5300000003477,266.3500000014901,185.8298933547302,0.39666666666666667
rep,u552802wfx9abn1,300,160,0.5333333333333333,0.4998888888888889,0.03344444444444444,3504.1870000068348,318.0500000715256,27768.575981212303,0.36333333333333334
rep,s942g0ub4j3kxvm,300,161,0.5366666666666666,0.5032222222222222,0.03344444444444439,540.2686666647593,261,1257.480746722635,0.48333333333333334
rep,v1o6t0jehsdv12w,300,158,0.5266666666666666,0.49344444444444446,0.03322222222222215,681.9766666662197,473.95000000298023,683.4986423077505,0.42333333333333334
rep,n5hk5lctbdssf1t,300,158,0.5266666666666666,0.49366666666666664,0.032999999999999974,685.8423333326975,187.60000014305115,3574.793155176136,0.6133333333333333
rep,2ok7hxhjyj16xzc,300,160,0.5333333333333333,0.5005555555555555,0.032777777777777795,1515.5949999745687,945.5999999046326,2231.3391868787476,0.46
spark,tno68m877079aw8,200,120,0.6,0.5675,0.03249999999999997,208.0295000076294,193.70000004768372,193.56324113795935,0.365
rep,u90p8w3c82fw1d8,300,161,0.5366666666666666,0.5046666666666667,0.03199999999999992,676.0170000003278,427.25,967.084110163274,0.34
rep,1uwhsq6u0dzuncq,300,159,0.53,0.4983333333333333,0.03166666666666673,359.029000000755,318.04999999701977,322.46996291468935,0.4533333333333333
rep,xxqrngd1b9ebjwx,300,159,0.53,0.49833333333333335,0.031666666666666676,323.96133333226044,281.19999998807907,245.4451784475753,0.34
rep,q79w2jphvfdcrv0,300,161,0.5366666666666666,0.5055555555555555,0.03111111111111109,636.0903333286444,312.05000001192093,2530.517662552796,0.5433333333333333
rep,ugakguc6o78q64x,300,164,0.5466666666666666,0.5158888888888888,0.030777777777777793,1252.3143333303929,988.9000000357628,2458.6060573084214,0.4066666666666667
spark,4dsn7dqwrmxfw87,200,108,0.54,0.5093333333333333,0.03066666666666673,282.485,249,248.0981929432549,0.38
spark,v9z3dbpao12hedw,200,105,0.525,0.4945,0.030500000000000027,432.9279999923706,314.39999997615814,659.5037872864406,0.48
spark,81jb1n2bueb365f,200,120,0.6,0.5695,0.03049999999999997,528.967500000447,395.84999999403954,423.1422401172583,0.4
rep,w1cwsowo6sbpnmb,300,159,0.53,0.5003333333333333,0.02966666666666673,406.3156666670243,108.9500000178814,1066.731424570554,0.36333333333333334
spark,c3k8ghaur9zoo2h,200,112,0.56,0.5303333333333333,0.02966666666666673,1711.5085000026227,286.1999999284744,18037.01353976706,0.365
rep,3vsz0q8a4bewrfd,300,163,0.5433333333333333,0.5136666666666667,0.02966666666666662,900.5843333323796,723,625.0704191945991,0.4066666666666667
rep,oz8pc8v9okbrd34,300,161,0.5366666666666666,0.507,0.02966666666666662,1259.5093332290649,473.1000003814697,4898.810433147438,0.44666666666666666
rep,2sw0rumdd9l9256,300,163,0.5433333333333333,0.514,0.029333333333333322,616.6876666667064,304.1000000089407,1242.4153500694574,0.36666666666666664
rep,kxgbh2g2qsksukj,300,164,0.5466666666666666,0.5173333333333333,0.029333333333333322,781.3533333309491,414.5,944.1609454546395,0.44
rep,b312u5z1cp08zr7,300,158,0.5266666666666666,0.49733333333333335,0.029333333333333267,329.61333333333187,275,324.1373895638456,0.3566666666666667
rep,ren1uy6r65oeauq,300,161,0.5366666666666666,0.5086666666666667,0.027999999999999914,1065.480333332618,820.8000000119209,759.5930004490365,0.4666666666666667
rep,j28f3g5xcnvnf3f,300,156,0.52,0.49266666666666664,0.027333333333333376,302.9866666630904,223.55000001192093,458.48114416224433,0.37
rep,qmscdneqdgsvgb8,300,159,0.53,0.5027777777777778,0.02722222222222226,547.1294000000247,361.4349999988917,508.89487769274524,0.41
rep,1ohxsaojoyhv0xs,300,157,0.5233333333333333,0.49622222222222223,0.027111111111111086,392.87299999852974,295.9999999701977,624.3005859187787,0.37
rep,p0xejw149v297zp,299,158,0.5284280936454849,0.5017837235228539,0.02664437012263099,4065.950167247683,513.0999999046326,14468.705092642784,0.45484949832775917
spark,pena802487phcyh,200,110,0.55,0.5236666666666666,0.02633333333333343,447.6914999771118,307.75,780.0290215852648,0.36
rep,ybhrqe06s2bqbz1,300,158,0.5266666666666666,0.5005555555555555,0.026111111111111085,558.5176666649182,355.5,615.1300884639465,0.38
rep,vdkhe9nakrjyh65,300,158,0.5266666666666666,0.5006666666666667,0.025999999999999912,427.3913333333035,305.04999999701977,395.06011336121577,0.37666666666666665
spark,4suuw8p8jectvdv,200,116,0.58,0.554,0.025999999999999912,422.81599999785425,380.5499999523163,214.05530972931712,0.505
spark,jyksed11mk05608,200,106,0.53,0.5045,0.025500000000000078,327.15350000004287,275.64999999990687,260.46689907797656,0.605
rep,6nb6smtjh5u51jt,300,153,0.51,0.4846666666666667,0.02533333333333332,1118.3736666667958,703.4499999955297,1860.5622623049912,0.46
rep,qtjs3j2eeobth4f,300,159,0.53,0.5052222222222222,0.024777777777777787,291.36700000365573,194.39999997615814,585.1271195525209,0.46
rep,248j921sqm4rcgz,300,160,0.5333333333333333,0.5086666666666667,0.024666666666666615,957.2806666739782,352.15000009536743,4851.914513702782,0.38333333333333336
rep,yjc6n9hsy0dqtmm,300,159,0.53,0.5055555555555555,0.02444444444444449,773.7389999989668,518.6999999880791,1032.227772392611,0.54
rep,q6zv07l7cyjkjbt,300,158,0.5266666666666666,0.5022222222222222,0.02444444444444438,869.8920000003775,634.2000000029802,1752.9172459939427,0.37
rep,ch7ea5apb04t9w6,300,161,0.5366666666666666,0.513,0.023666666666666614,782.4546666663886,449.5000000298023,1952.3949224107428,0.35333333333333333
rep,v74vp9f0nh38r0o,300,155,0.5166666666666667,0.494,0.022666666666666724,518.169333332777,282.6500000357628,1577.3182924080845,NA
rep,s517gz6lggw555u,300,160,0.5333333333333333,0.5106666666666667,0.022666666666666613,694.8870000108083,507.10000014305115,536.5953573871702,0.35333333333333333
rep,8f78wor05r9dn3u,300,154,0.5133333333333333,0.4912222222222222,0.02211111111111108,1310.8026666659116,293.95000000298023,3910.2708920950513,0.3433333333333333
spark,sobxwmu0guu06jt,200,113,0.565,0.543,0.02199999999999991,447.84600000172856,354.30000001192093,500.12425992194375,0.365
rep,4hjremh3c2zqo86,300,156,0.52,0.4984444444444444,0.021555555555555606,439.93933333237965,263.7000000476837,946.0884260079395,0.35
rep,s2yc7akxjlu37um,300,156,0.52,0.49866666666666665,0.02133333333333337,716.6499999999984,371.5000000000291,764.028231127534,0.42
spark,x9jud5psr9rj091,200,113,0.565,0.5438333333333333,0.021166666666666667,319.3439999998361,260.3999999985099,453.31011034942094,0.45
rep,q3dwu8kywjwabqj,300,155,0.5166666666666667,0.4955555555555555,0.02111111111111119,679.5719999999801,387.3999999985099,916.1382362808567,0.4266666666666667
rep,5j336ma2s8tzl6m,300,157,0.5233333333333333,0.5025555555555555,0.020777777777777784,913.0336666266123,382.65000009536743,1555.9977566348275,0.38666666666666666
spark,ebyoxtb4gdvrgk9,200,99,0.495,0.475,0.020000000000000018,623.7469999992848,291.94999998807907,1327.3977415683569,0.365
rep,l4x14yxdea6ckhd,300,157,0.5233333333333333,0.5035555555555555,0.019777777777777783,5368.503333333085,2475.25,9594.011848047116,0.43333333333333335
rep,edj38s5gs2q6kjs,300,156,0.52,0.5006666666666667,0.019333333333333313,783.8649999995778,350.1500000022352,2244.2171675497134,0.4066666666666667
rep,sv5yfm8wr8snk7y,300,157,0.5233333333333333,0.5042222222222222,0.01911111111111108,546.1276666661104,241.89999997615814,1318.289478262212,0.5233333333333333
spark,2bj4hnwl1uvy1op,200,97,0.485,0.4666666666666667,0.018333333333333313,539.38,380.5,430.20238967304914,0.43
spark,x7gmd25pcmmhab5,200,110,0.55,0.5318333333333334,0.018166666666666664,689.6529999978841,354.19999998807907,1485.7659870696207,0.375
rep,1qztpkrssqxql7x,300,153,0.51,0.4921111111111111,0.0178888888888889,143.10933333386978,105.09999999403954,219.01867907892245,0.41
spark,7u8n4waabd7hl6n,200,119,0.595,0.5776666666666667,0.01733333333333331,624.8420000034571,319.5500000715256,1663.2642035121435,0.495
spark,dvsvz2r0jdjjx3w,200,105,0.525,0.5078333333333334,0.017166666666666663,457.45750000059604,375.0999999642372,329.7111402788018,0.395
rep,bc9hr80gw4q3fzx,300,159,0.53,0.5136666666666667,0.01633333333333331,961.3846666671336,255.85000000149012,4202.425037079108,0.39
rep,juevtd54px1lch7,300,154,0.5133333333333333,0.4974444444444444,0.015888888888888897,1633.2663333217304,767.2499998807907,5154.755851777223,0.4666666666666667
rep,8yx99upd28jbub7,300,154,0.5133333333333333,0.498,0.01533333333333331,233.61466666648786,144.55000001192093,304.73047543658294,0.4033333333333333
rep,p2c2yq7cu7k4t5s,300,151,0.5033333333333333,0.488,0.01533333333333331,472.1629999993245,311.8500000089407,483.59070866805047,0.37
rep,54lnlrpz3bd1qa5,300,156,0.52,0.5047777777777778,0.015222222222222248,727.0816666666108,224.25,1621.8840507913217,0.4633333333333333
rep,6kvhxeu8tkahahy,300,156,0.52,0.5047777777777778,0.015222222222222248,1701.3939999989668,235.99999997019768,14102.000745468811,0.42333333333333334
spark,3p94hy7tyajmgd9,200,112,0.56,0.5451666666666667,0.014833333333333365,214.7175000000035,129.00000000011642,380.7062543540255,0.37
spark,8b5n280nvadpxfw,200,106,0.53,0.5155,0.014500000000000068,383.4939999999106,237.00000001490116,559.5230915821071,0.355
rep,vxusfx6v6b01xjd,300,154,0.5133333333333333,0.49922222222222223,0.014111111111111074,560.9599999999995,332.5,1638.3459636848406,0.7366666666666667
spark,r0hu8u71kr5ql34,200,104,0.52,0.5063333333333333,0.013666666666666716,382.04100000321864,315.9499999284744,261.1125004821926,0.405
rep,2knlz4912fwyuxb,300,155,0.5166666666666667,0.5035555555555555,0.013111111111111184,549.0019999995827,328.40000000596046,660.0650087041727,0.3433333333333333
rep,wbe9w0os36afhd2,300,157,0.5233333333333333,0.5104444444444445,0.012888888888888839,484.80100000006456,338.69999999925494,411.3817816415585,0.37333333333333335
rep,b36wwdhonfca4sc,300,154,0.5133333333333333,0.5005555555555555,0.012777777777777777,362.32766666809715,287.2999999523163,250.06720635262545,0.4066666666666667
spark,cdmw6et56h7avv1,200,116,0.58,0.5675,0.012499999999999956,568.0144999945164,309.64999997615814,1738.0185830220764,0.38
rep,8cduqzasr7gj3lz,300,152,0.5066666666666667,0.49477777777777776,0.011888888888888949,2407.713666669528,472,12424.645575538538,0.43666666666666665
spark,gqts1gcms0mscyc,200,108,0.54,0.5285,0.011500000000000066,274.96100000143053,255.19999998807907,152.26791939032674,0.37
rep,kwh4ucl74w2l0k4,300,156,0.52,0.5086666666666667,0.011333333333333306,865.9166666672627,356.4999999701977,2873.4673236330455,0.47333333333333333
rep,1jtlf5uls6rlhb6,300,154,0.5133333333333333,0.5025555555555555,0.010777777777777775,751.0319999997317,502,905.5275714843063,0.49333333333333335
spark,0f19oxync82ef5o,200,104,0.52,0.5093333333333333,0.010666666666666713,330.27,265,314.5876252649637,0.365
spark,98dasxn7uooldze,200,105,0.525,0.5143333333333333,0.010666666666666713,289.87999999642375,227.25,268.6619497027553,0.36
rep,dc1sjly6ofsy06r,300,149,0.49666666666666665,0.48644444444444446,0.010222222222222188,813.6999999999992,348,1108.0757779889836,0.35333333333333333
spark,ds8h3zx340twnzm,200,108,0.54,0.5303333333333333,0.009666666666666712,537.9340000002832,274.69999999552965,923.2609885120635,0.37
spark,ttpykqdd598y3tq,200,102,0.51,0.5006666666666667,0.009333333333333305,312.93750000003723,264.6000000014901,233.01048382316907,0.395
rep,rd6y5pgyslt8uvc,300,155,0.5166666666666667,0.5076666666666667,0.009000000000000008,576.2626666665077,380.80000001192093,716.8657019185987,0.4866666666666667
rep,b7k0oo8p8tle93a,300,153,0.51,0.5014444444444445,0.008555555555555538,1836.3199999999758,1014.9999999997672,3700.9713220570834,0.44333333333333336
rep,ogyu25hclg72vak,300,150,0.5,0.49322222222222223,0.0067777777777777715,1663.2199999841055,361.0499997138977,10923.22259833402,0.4
rep,csxjwv5nkgxo4ro,300,150,0.5,0.49422222222222223,0.005777777777777771,442.30500000029804,186.5,843.3229724882106,0.44
rep,2dsp70rgztke380,300,156,0.52,0.5144444444444445,0.005555555555555536,696.2646666689714,374.69999998807907,1884.5637465487293,0.5033333333333333
rep,grrkm06dyljb3z0,300,153,0.51,0.5046666666666667,0.005333333333333301,352.50900000105304,295.70000000298023,258.3840261493384,0.4766666666666667
rep,cs0gy2ea8ojqlxf,300,151,0.5033333333333333,0.4983333333333333,0.0050000000000000044,460.4609999998411,154.5,1250.9340767348313,0.36
rep,hoopxtschbda6wk,300,152,0.5066666666666667,0.5016666666666667,0.0050000000000000044,594.51166666617,377.1499999985099,517.9226643539093,0.43333333333333335
rep,b6b5q4mhn3tgd59,300,150,0.5,0.49566666666666664,0.004333333333333356,545.6416666730245,346.3000000715256,634.1681700542224,0.67
spark,xzxfyn7j6tjenh6,200,104,0.52,0.5166666666666667,0.0033333333333332993,846.94,499.5,1217.566089504614,0.47
rep,yusb9hc0vdq3ygm,300,152,0.5066666666666667,0.5035555555555555,0.0031111111111111756,2311.305999999841,602.2000000476837,7984.127879967119,0.6066666666666667
rep,456qwcu92c6crcb,300,151,0.5033333333333333,0.5006666666666667,0.002666666666666595,695.8703333330154,331.75,1313.311736850534,0.36666666666666664
rep,uf6852zzz5uxw4e,300,148,0.49333333333333335,0.49077777777777776,0.0025555555555555887,348.0093333334227,316.6499999985099,169.01918806060604,0.39
rep,y7c1rc2ykbhpafj,300,152,0.5066666666666667,0.5043333333333333,0.0023333333333334094,1437.0243333329756,416.20000000298023,10687.829772752793,0.5466666666666666
rep,sgagufj563ubd5u,300,149,0.49666666666666665,0.49466666666666664,0.0020000000000000018,2314.440333331426,331.39999997615814,26067.343158064916,0.37666666666666665
spark,jew5qbseds9j9kw,200,103,0.515,0.5131666666666667,0.0018333333333333535,458.5724999961257,287.90000000596046,1260.658179854826,0.36
rep,4st023uov0910ze,300,150,0.5,0.49866666666666665,0.001333333333333353,384.24266666581235,222.65000000596046,604.7194135662576,0.36666666666666664
rep,knwvpf2z2hqk2gl,300,148,0.49333333333333335,0.49366666666666664,-3.333333333332966e-4,318.6053333355983,267.85000002384186,569.8744959864595,0.46
rep,ayp6u7sqsp63v1g,300,152,0.5066666666666667,0.5076666666666667,-0.0010000000000000009,1885.1676666704814,1212.4000000953674,2104.7127016957993,0.41333333333333333
rep,l5trlggvscjd1a2,300,149,0.49666666666666665,0.4978888888888889,-0.0012222222222222356,1288.795666666031,1154.2000000178814,731.4015282094506,0.48
spark,rp1rcej5njq4p66,200,100,0.5,0.50216666666666665,-0.00216666666666665,203.13,56.5,1431.9942811359374,0.34
rep,0q5zzdyx5f32cdy,300,148,0.49333333333333335,0.4955555555555556,-0.0022222222222222365,385.6010000014305,278.15000000596046,381.5559693653052,0.5966666666666667
rep,5h3hfbp96bt7udo,300,148,0.49333333333333335,0.49566666666666664,-0.0023333333333332984,205.83366666237512,88.34999996423721,1215.978822114344,0.36333333333333334
spark,uonx6mb19c91v51,200,98,0.49,0.4925,-0.0025000000000000022,286.2259999984503,249.14999997615814,279.4852938444369,0.345
rep,vma0ny9rs49auco,300,149,0.49666666666666665,0.49922222222222223,-0.0025555555555555887,722.9766666666703,338.5,3521.624226608181,0.35
rep,lp3fnxyaf0rkkfa,300,145,0.48333333333333334,0.48644444444444446,-0.00311111111111112,581.7603333389759,410.69999998807907,633.2106171036148,0.44666666666666666
rep,3d1hrrxekr97ue2,300,146,0.4866666666666667,0.49066666666666664,-0.003999999999999948,902.3740000000596,380.09999999403954,3087.6003301673195,0.51
rep,t9rqkczb733s42z,300,152,0.5066666666666667,0.5106666666666667,-0.0040000000000000036,737.6660000000024,420.69999999925494,1258.6845211529474,0.34
rep,068sm2olnt0wntt,298,147,0.49328859060402686,0.49731543624161073,-0.004026845637583876,5626.397651006692,1034.199999999255,69563.32794873843,0.4261744966442953
spark,d5gog6xj47sazgh,200,96,0.48,0.4841666666666667,-0.004166666666666707,270.1909999999846,210.70000000018626,349.1744241944823,0.445
rep,4ursmu04plgwwrl,300,146,0.4866666666666667,0.4915555555555555,-0.0048888888888888316,1703.9466666666647,722.5,4614.51790788915,0.39666666666666667
spark,bk21mtrr1vro0o2,200,93,0.465,0.47,-0.004999999999999949,561.9885000000894,366.6000000089407,1005.4829118145462,0.435
spark,98by5h1gpuv99my,200,102,0.51,0.5153333333333333,-0.005333333333333301,135.18100000001024,123.6999999997206,120.36427807360381,0.395
rep,8l7k49y4vxdpgl7,300,147,0.49,0.4955555555555556,-0.005555555555555591,1175.1763333320619,375.0000001192093,11165.45141241589,0.38
rep,d3kw5p3etex7463,300,144,0.48,0.4865555555555555,-0.006555555555555537,3255.0790000073116,969.7000000476837,5400.233235804182,0.4066666666666667
rep,mdkeuxj8pu48f5m,300,146,0.4866666666666667,0.49366666666666664,-0.006999999999999951,1013.7809999887148,814.6499999761581,754.6297192599119,0.38666666666666666
spark,ug1q10jjktnxgcd,200,97,0.485,0.49266666666666664,-0.007666666666666655,351.3849999999986,302.00000000001455,216.58922233379275,0.36
rep,476v5ewupks5rx2,300,147,0.49,0.49822222222222223,-0.008222222222222242,1457.9066666666668,819.5,5385.13557195949,0.38
rep,2cwn30vh7gl4n44,300,152,0.5066666666666667,0.5151111111111111,-0.008444444444444366,1862.2240000021457,176.7000000178814,8851.172564986637,0.4
rep,nkvf7g8nwth6mg2,300,148,0.49333333333333335,0.502,-0.008666666666666656,2214.142666656971,1706.4499999284744,1648.447738721843,0.39
rep,fq5qqq93avqu1rf,300,146,0.4866666666666667,0.49577777777777776,-0.00911111111111107,699.9216666698455,392.7000000476837,3233.7926441640516,0.38333333333333336
rep,wg1x2azrzgy7nov,300,147,0.49,0.49922222222222223,-0.009222222222222243,1996.8276666667064,538.3000000007451,9000.71838882418,0.37
rep,3zv70ldf85sybox,300,147,0.49,0.49933333333333335,-0.00933333333333336,2939.952333333095,1691.6500000059605,5788.984675411677,0.43
rep,j9uqnx5taw49pbl,300,145,0.48333333333333334,0.495,-0.011666666666666659,546.039999998808,310.75,1198.932473321088,0.4266666666666667
rep,71psd8v4c3a3gqp,300,148,0.49333333333333335,0.5051111111111111,-0.01177777777777772,823.1039999997615,549.1999999880791,1668.7176901293492,0.3933333333333333
rep,oszqtgdwfo2njuk,300,148,0.49333333333333335,0.5052222222222222,-0.011888888888888893,1688.656666666667,642.5,2958.00726425299,0.3433333333333333
rep,94xvq8coprqajsy,299,150,0.5016722408026756,0.5151616499442586,-0.01348940914158303,3703.0421404670114,420.40000000596046,17188.994910982256,0.3979933110367893
rep,te03parf6jopubr,300,149,0.49666666666666665,0.5158888888888888,-0.019222222222222196,442.5503333329161,299.5499999895692,537.9329753042555,0.36666666666666664
rep,q8zqx53un1bq3sk,300,141,0.47,0.49,-0.020000000000000018,1128.626666666662,563.5,1946.0565633561334,0.3933333333333333
rep,yu4mdznnhs70jhh,300,144,0.48,0.5001111111111111,-0.02011111111111108,620.0570000036557,371.0000001192093,678.6126486287112,0.3933333333333333
rep,43rnskww51ftp76,300,143,0.4766666666666667,0.49822222222222223,-0.02155555555555555,209.31233333587647,119.60000002384186,286.2797762894352,0.7
spark,8jxfghq01ea6w1l,200,98,0.49,0.5116666666666667,-0.021666666666666723,1023.5519999974966,331.89999997615814,3481.149884833004,0.39
spark,mgr2la5rnnmtkv4,200,98,0.49,0.5116666666666667,-0.021666666666666723,603.8405000036955,140.39999997615814,3392.4895128287085,0.76
spark,h6cbb825pj0rggx,200,95,0.475,0.49816666666666665,-0.02316666666666667,428.8860000000335,314.5499999988824,379.4128146540186,0.38
spark,x4eu7paltket00z,200,86,0.43,0.4535,-0.02350000000000002,1725.4120000052453,345.2000000476837,11055.174800050603,0.765
spark,8z9qx3z0pcwosp5,200,100,0.5,0.5238333333333333,-0.023833333333333262,272.0865000081062,196.09999990463257,300.8015069762232,0.39
rep,j7qoncf551ymkpx,300,143,0.4766666666666667,0.502,-0.02533333333333332,561.8086666663488,334.10000002384186,839.5089628592848,0.4633333333333333
rep,vj1w101v08rdd34,300,143,0.4766666666666667,0.5022222222222222,-0.025555555555555554,345.19666666666484,240,668.2655065764066,0.38666666666666666
rep,amblbmvsjnlvt03,300,141,0.47,0.49566666666666664,-0.02566666666666667,776.2313333325088,442.05000000074506,1162.7732637510305,0.43
rep,mr61g5e6c6h9wml,300,139,0.4633333333333333,0.4908888888888889,-0.027555555555555555,922.7693333335718,404.69999998807907,2988.6442880761706,0.37333333333333335
rep,46rr4nzfvnap621,300,142,0.47333333333333333,0.5056666666666667,-0.03233333333333338,303.32833333174386,207.19999998807907,451.6562720963307,0.39
rep,22eqxlfzzjr999d,300,141,0.47,0.5027777777777778,-0.032777777777777795,540.8746666669846,146.80000007152557,1370.2282562192663,0.4266666666666667
rep,7wz4tw9nckd7jlc,300,136,0.4533333333333333,0.4865555555555555,-0.03322222222222221,2564.8966666666656,1267,3603.15097135783,0.5233333333333333
spark,bs77jusau02e8ya,200,94,0.47,0.5033333333333333,-0.033333333333333326,822.781999989748,315.4500000476837,2421.9453399884815,0.46
rep,blkoe7koujnjnhx,300,140,0.4666666666666667,0.5031111111111111,-0.03644444444444439,342.1536666691303,184,490.6570640126775,0.5233333333333333
rep,u0yub8vwgvco2lh,300,138,0.46,0.4978888888888889,-0.03788888888888886,2614.3446666666478,468.94999999995343,10363.205970388079,0.57
spark,x737r1a5kkbbrbh,200,99,0.495,0.538,-0.04300000000000004,591.3550000000046,436.5000000000291,400.12545642510077,0.35
rep,4yeju24jhrb68t2,300,141,0.47,0.5145555555555555,-0.04455555555555557,867.6813333341479,115.40000000596046,5410.706887692617,0.43
spark,pd04tc7jledesj9,200,85,0.425,0.47,-0.044999999999999984,870.9540000015497,171.35000002384186,2207.5847302608945,0.41
spark,u5a65eg1nx943ed,200,88,0.44,0.48616666666666664,-0.046166666666666634,1077.1664999997615,921.9000000059605,835.8310357538163,NA
spark,k95j0f80yp0wzkd,200,93,0.465,0.5116666666666667,-0.04666666666666669,228.005,229.5,118.11277710551848,0.38
rep,hgvrs6y69n1ppsq,300,133,0.44333333333333336,0.4912222222222222,-0.04788888888888887,556.646666653951,320.35000014305115,823.0840008122875,0.5166666666666667
rep,msr0phb6eze5pq8,300,136,0.4533333333333333,0.5031111111111111,-0.049777777777777754,454.06633333464464,288.45000000298023,597.2343382757474,0.35
rep,ofca0dfs75s67qc,300,136,0.4533333333333333,0.5042222222222222,-0.05088888888888893,849.5880000013113,507.15000000596046,1491.4839038264893,0.35
rep,lpnfflf3dnecn2h,300,133,0.44333333333333336,0.49722222222222223,-0.053888888888888875,684.7266666595141,370.5500000715256,1229.8202960353271,0.3933333333333333
rep,sf4fy4760pt2965,300,135,0.45,0.5046666666666667,-0.0546666666666667,472.4133333333343,376.0000000000291,593.0104387138855,0.78
spark,0x6h2fn074zf3uz,200,95,0.475,0.54,-0.06500000000000006,408.9040000011027,308,283.41667903418164,0.375
rep,nbx2wnd7k75h49q,300,125,0.4166666666666667,0.4865555555555555,-0.06988888888888883,820.2673333334426,143.94999999552965,8554.131317230826,0.51
spark,bgb3o6ajcxzdq5q,200,87,0.435,0.5093333333333333,-0.0743333333333333,2094.185,220.5,14379.429458729155,0.38
