"trial_type","trial_index","time_elapsed","internal_node_id","subject","participantCode","walkNumber","success","rt","stimulus","key_press","test_part","leftProb","midProb","rightProb","generatedNum","correct"
"pavlovia",0,1409,"0.0-0.0","b4zh0br00gmza79",188,"20.csv","","","","","",NA,NA,NA,NA,""
"fullscreen",1,216818,"0.0-1.0","b4zh0br00gmza79",188,"20.csv","true","","","","",NA,NA,NA,NA,""
"survey-html-form",2,224572,"0.0-2.0","b4zh0br00gmza79",188,"20.csv","","7719","","","",NA,NA,NA,NA,""
"image-keyboard-response",3,228387,"0.0-3.0-0.0","b4zh0br00gmza79",188,"20.csv","","3813","resources/images/parrot_nobg.png","13","",NA,NA,NA,NA,""
"image-keyboard-response",4,231390,"0.0-3.0-1.0","b4zh0br00gmza79",188,"20.csv","","null","resources/image_sets/111.png","null","",NA,NA,NA,NA,""
"image-keyboard-response",5,231500,"0.0-3.0-2.0","b4zh0br00gmza79",188,"20.csv","","110","resources/image_sets/left_highlight.png","37","",NA,NA,NA,NA,""
"image-keyboard-response",6,234383,"0.0-3.0-3.0","b4zh0br00gmza79",188,"20.csv","","2882","resources/image_sets/mid_highlight.png","38","",NA,NA,NA,NA,""
"image-keyboard-response",7,235422,"0.0-3.0-4.0","b4zh0br00gmza79",188,"20.csv","","1037","resources/image_sets/right_highlight.png","39","",NA,NA,NA,NA,""
"image-keyboard-response",8,236993,"0.0-3.0-5.0","b4zh0br00gmza79",188,"20.csv","","1570","resources/image_sets/111.png","13","",NA,NA,NA,NA,""
"image-keyboard-response",9,238546,"0.0-3.0-6.0","b4zh0br00gmza79",188,"20.csv","","1552","resources/images/coin2.png","13","",NA,NA,NA,NA,""
"image-keyboard-response",10,239955,"0.0-3.0-7.0","b4zh0br00gmza79",188,"20.csv","","1408","resources/images/fishbone.png","13","",NA,NA,NA,NA,""
"html-keyboard-response",11,244096,"0.0-3.0-8.0","b4zh0br00gmza79",188,"20.csv","","4140","<p>You can track your coin total on the top right of your screen. </p><p>At the end of your journey you will be directed to a survey, so please click on the link before exiting the task</p><p>Press Enter to begin</p>","13","",NA,NA,NA,NA,""
"image-keyboard-response",12,245132,"0.0-4.0-0.0","b4zh0br00gmza79",188,"20.csv","","1034","resources/trios/L1T2A3.jpg","38","restless",0.7,0.3,0.9,0.459139719068711,"false"
"image-keyboard-response",13,245536,"0.0-4.0-1.0","b4zh0br00gmza79",188,"20.csv","","null","resources/maskTrios/BT2B.jpg","null","",NA,NA,NA,NA,""
"image-keyboard-response",14,246744,"0.0-4.0-2.0","b4zh0br00gmza79",188,"20.csv","","null","resources/images/fishbone.png","null","",NA,NA,NA,NA,""
"image-keyboard-response",15,247091,"0.0-4.1-0.1","b4zh0br00gmza79",188,"20.csv","","345","resources/trios/L1T2A3.jpg","37","restless",0.7,0.3,0.9,0.201565938030893,"true"
"image-keyboard-response",16,247497,"0.0-4.1-1.1","b4zh0br00gmza79",188,"20.csv","","null","resources/maskTrios/L1BB.jpg","null","",NA,NA,NA,NA,""
"image-keyboard-response",17,248750,"0.0-4.1-2.1","b4zh0br00gmza79",188,"20.csv","","null","resources/images/coin2.png","null","",NA,NA,NA,NA,""
"image-keyboard-response",18,249857,"0.0-4.2-0.2","b4zh0br00gmza79",188,"20.csv","","1105","resources/trios/L1T2A3.jpg","39","restless",0.6,0.3,0.9,0.618475824323701,"true"
"image-keyboard-response",19,250262,"0.0-4.2-1.2","b4zh0br00gmza79",188,"20.csv","","null","resources/maskTrios/BBA3.jpg","null","",NA,NA,NA,NA,""
"image-keyboard-response",20,251468,"0.0-4.2-2.2","b4zh0br00gmza79",188,"20.csv","","null","resources/images/coin2.png","null","",NA,NA,NA,NA,""
"image-keyboard-response",21,251868,"0.0-4.3-0.3","b4zh0br00gmza79",188,"20.csv","","398","resources/trios/L1T2A3.jpg","37","restless",0.6,0.3,0.9,0.668533941947528,"false"
"image-keyboard-response",22,252270,"0.0-4.3-1.3","b4zh0br00gmza79",188,"20.csv","","null","resources/maskTrios/L1BB.jpg","null","",NA,NA,NA,NA,""
"image-keyboard-response",23,253471,"0.0-4.3-2.3","b4zh0br00gmza79",188,"20.csv","","null","resources/images/fishbone.png","null","",NA,NA,NA,NA,""
"image-keyboard-response",24,253702,"0.0-4.4-0.4","b4zh0br00gmza79",188,"20.csv","","230","resources/trios/L1T2A3.jpg","38","restless",0.6,0.3,0.9,0.128906942797649,"true"
"image-keyboard-response",25,254113,"0.0-4.4-1.4","b4zh0br00gmza79",188,"20.csv","","null","resources/maskTrios/BT2B.jpg","null","",NA,NA,NA,NA,""
"image-keyboard-response",26,255317,"0.0-4.4-2.4","b4zh0br00gmza79",188,"20.csv","","null","resources/images/coin2.png","null","",NA,NA,NA,NA,""
"image-keyboard-response",27,255566,"0.0-4.5-0.5","b4zh0br00gmza79",188,"20.csv","","247","resources/trios/L1T2A3.jpg","38","restless",0.6,0.3,0.8,0.756009686814439,"false"
"image-keyboard-response",28,255971,"0.0-4.5-1.5","b4zh0br00gmza79",188,"20.csv","","null","resources/maskTrios/BT2B.jpg","null","",NA,NA,NA,NA,""
"image-keyboard-response",29,257178,"0.0-4.5-2.5","b4zh0br00gmza79",188,"20.csv","","null","resources/images/fishbone.png","null","",NA,NA,NA,NA,""
"image-keyboard-response",30,257566,"0.0-4.6-0.6","b4zh0br00gmza79",188,"20.csv","","380","resources/trios/L1T2A3.jpg","39","restless",0.6,0.3,0.8,0.0245590611275294,"true"
"image-keyboard-response",31,257973,"0.0-4.6-1.6","b4zh0br00gmza79",188,"20.csv","","null","resources/maskTrios/BBA3.jpg","null","",NA,NA,NA,NA,""
"image-keyboard-response",32,259178,"0.0-4.6-2.6","b4zh0br00gmza79",188,"20.csv","","null","resources/images/coin2.png","null","",NA,NA,NA,NA,""
"image-keyboard-response",33,259489,"0.0-4.7-0.7","b4zh0br00gmza79",188,"20.csv","","310","resources/trios/L1T2A3.jpg","37","restless",0.6,0.3,0.8,0.442649119414449,"true"
"image-keyboard-response",34,259899,"0.0-4.7-1.7","b4zh0br00gmza79",188,"20.csv","","null","resources/maskTrios/L1BB.jpg","null","",NA,NA,NA,NA,""
"image-keyboard-response",35,261101,"0.0-4.7-2.7","b4zh0br00gmza79",188,"20.csv","","null","resources/images/coin2.png","null","",NA,NA,NA,NA,""
"image-keyboard-response",36,261487,"0.0-4.8-0.8","b4zh0br00gmza79",188,"20.csv","","386","resources/trios/L1T2A3.jpg","39","restless",0.5,0.3,0.8,0.601686227202656,"true"
"image-keyboard-response",37,261900,"0.0-4.8-1.8","b4zh0br00gmza79",188,"20.csv","","null","resources/maskTrios/BBA3.jpg","null","",NA,NA,NA,NA,""
"image-keyboard-response",38,263105,"0.0-4.8-2.8","b4zh0br00gmza79",188,"20.csv","","null","resources/images/coin2.png","null","",NA,NA,NA,NA,""
"image-keyboard-response",39,263334,"0.0-4.9-0.9","b4zh0br00gmza79",188,"20.csv","","222","resources/trios/L1T2A3.jpg","37","restless",0.5,0.4,0.8,0.883025813131604,"false"
"image-keyboard-response",40,263739,"0.0-4.9-1.9","b4zh0br00gmza79",188,"20.csv","","null","resources/maskTrios/L1BB.jpg","null","",NA,NA,NA,NA,""
"image-keyboard-response",41,264946,"0.0-4.9-2.9","b4zh0br00gmza79",188,"20.csv","","null","resources/images/fishbone.png","null","",NA,NA,NA,NA,""
"image-keyboard-response",42,265188,"0.0-4.10-0.10","b4zh0br00gmza79",188,"20.csv","","242","resources/trios/L1T2A3.jpg","38","restless",0.4,0.4,0.8,0.9660977559938,"false"
"image-keyboard-response",43,265592,"0.0-4.10-1.10","b4zh0br00gmza79",188,"20.csv","","null","resources/maskTrios/BT2B.jpg","null","",NA,NA,NA,NA,""
"image-keyboard-response",44,266798,"0.0-4.10-2.10","b4zh0br00gmza79",188,"20.csv","","null","resources/images/fishbone.png","null","",NA,NA,NA,NA,""
"image-keyboard-response",45,267025,"0.0-4.11-0.11","b4zh0br00gmza79",188,"20.csv","","220","resources/trios/L1T2A3.jpg","39","restless",0.4,0.4,0.8,0.659715057969379,"true"
"image-keyboard-response",46,267430,"0.0-4.11-1.11","b4zh0br00gmza79",188,"20.csv","","null","resources/maskTrios/BBA3.jpg","null","",NA,NA,NA,NA,""
"image-keyboard-response",47,268742,"0.0-4.11-2.11","b4zh0br00gmza79",188,"20.csv","","null","resources/images/coin2.png","null","",NA,NA,NA,NA,""
"image-keyboard-response",48,269020,"0.0-4.12-0.12","b4zh0br00gmza79",188,"20.csv","","277","resources/trios/L1T2A3.jpg","37","restless",0.3,0.3,0.7,0.519561626927958,"false"
"image-keyboard-response",49,269426,"0.0-4.12-1.12","b4zh0br00gmza79",188,"20.csv","","null","resources/maskTrios/L1BB.jpg","null","",NA,NA,NA,NA,""
"image-keyboard-response",50,270631,"0.0-4.12-2.12","b4zh0br00gmza79",188,"20.csv","","null","resources/images/fishbone.png","null","",NA,NA,NA,NA,""
"image-keyboard-response",51,270869,"0.0-4.13-0.13","b4zh0br00gmza79",188,"20.csv","","236","resources/trios/L1T2A3.jpg","38","restless",0.2,0.3,0.7,0.713516558879542,"false"
"image-keyboard-response",52,271278,"0.0-4.13-1.13","b4zh0br00gmza79",188,"20.csv","","null","resources/maskTrios/BT2B.jpg","null","",NA,NA,NA,NA,""
"image-keyboard-response",53,272483,"0.0-4.13-2.13","b4zh0br00gmza79",188,"20.csv","","null","resources/images/fishbone.png","null","",NA,NA,NA,NA,""
"image-keyboard-response",54,272782,"0.0-4.14-0.14","b4zh0br00gmza79",188,"20.csv","","297","resources/trios/L1T2A3.jpg","37","restless",0.2,0.3,0.7,0.120594563398349,"true"
"image-keyboard-response",55,273188,"0.0-4.14-1.14","b4zh0br00gmza79",188,"20.csv","","null","resources/maskTrios/L1BB.jpg","null","",NA,NA,NA,NA,""
"image-keyboard-response",56,274394,"0.0-4.14-2.14","b4zh0br00gmza79",188,"20.csv","","null","resources/images/coin2.png","null","",NA,NA,NA,NA,""
"image-keyboard-response",57,274619,"0.0-4.15-0.15","b4zh0br00gmza79",188,"20.csv","","225","resources/trios/L1T2A3.jpg","37","restless",0.2,0.4,0.7,0.0625789654500606,"true"
"image-keyboard-response",58,275022,"0.0-4.15-1.15","b4zh0br00gmza79",188,"20.csv","","null","resources/maskTrios/L1BB.jpg","null","",NA,NA,NA,NA,""
"image-keyboard-response",59,276230,"0.0-4.15-2.15","b4zh0br00gmza79",188,"20.csv","","null","resources/images/coin2.png","null","",NA,NA,NA,NA,""
"image-keyboard-response",60,278165,"0.0-4.16-0.16","b4zh0br00gmza79",188,"20.csv","","1934","resources/trios/L1T2A3.jpg","37","restless",0.2,0.4,0.7,0.97962479742342,"false"
"image-keyboard-response",61,278570,"0.0-4.16-1.16","b4zh0br00gmza79",188,"20.csv","","null","resources/maskTrios/L1BB.jpg","null","",NA,NA,NA,NA,""
"image-keyboard-response",62,279773,"0.0-4.16-2.16","b4zh0br00gmza79",188,"20.csv","","null","resources/images/fishbone.png","null","",NA,NA,NA,NA,""
"image-keyboard-response",63,280197,"0.0-4.17-0.17","b4zh0br00gmza79",188,"20.csv","","422","resources/trios/L1T2A3.jpg","39","restless",0.2,0.4,0.7,0.32882719253008,"true"
"image-keyboard-response",64,280607,"0.0-4.17-1.17","b4zh0br00gmza79",188,"20.csv","","null","resources/maskTrios/BBA3.jpg","null","",NA,NA,NA,NA,""
"image-keyboard-response",65,281810,"0.0-4.17-2.17","b4zh0br00gmza79",188,"20.csv","","null","resources/images/coin2.png","null","",NA,NA,NA,NA,""
"image-keyboard-response",66,283322,"0.0-4.18-0.18","b4zh0br00gmza79",188,"20.csv","","1511","resources/trios/L1T2A3.jpg","37","restless",0.2,0.4,0.7,0.313394428722851,"false"
"image-keyboard-response",67,283760,"0.0-4.18-1.18","b4zh0br00gmza79",188,"20.csv","","null","resources/maskTrios/L1BB.jpg","null","",NA,NA,NA,NA,""
"image-keyboard-response",68,284967,"0.0-4.18-2.18","b4zh0br00gmza79",188,"20.csv","","null","resources/images/fishbone.png","null","",NA,NA,NA,NA,""
"image-keyboard-response",69,285318,"0.0-4.19-0.19","b4zh0br00gmza79",188,"20.csv","","340","resources/trios/L1T2A3.jpg","38","restless",0.1,0.4,0.8,0.259141806111341,"true"
"image-keyboard-response",70,285724,"0.0-4.19-1.19","b4zh0br00gmza79",188,"20.csv","","null","resources/maskTrios/BT2B.jpg","null","",NA,NA,NA,NA,""
"image-keyboard-response",71,286934,"0.0-4.19-2.19","b4zh0br00gmza79",188,"20.csv","","null","resources/images/coin2.png","null","",NA,NA,NA,NA,""
"image-keyboard-response",72,287210,"0.0-4.20-0.20","b4zh0br00gmza79",188,"20.csv","","275","resources/trios/L1T2A3.jpg","38","restless",0.1,0.4,0.8,0.646207201280251,"false"
"image-keyboard-response",73,287614,"0.0-4.20-1.20","b4zh0br00gmza79",188,"20.csv","","null","resources/maskTrios/BT2B.jpg","null","",NA,NA,NA,NA,""
"image-keyboard-response",74,288827,"0.0-4.20-2.20","b4zh0br00gmza79",188,"20.csv","","null","resources/images/fishbone.png","null","",NA,NA,NA,NA,""
"image-keyboard-response",75,289151,"0.0-4.21-0.21","b4zh0br00gmza79",188,"20.csv","","324","resources/trios/L1T2A3.jpg","39","restless",0.1,0.4,0.8,0.0172293531648617,"true"
"image-keyboard-response",76,289559,"0.0-4.21-1.21","b4zh0br00gmza79",188,"20.csv","","null","resources/maskTrios/BBA3.jpg","null","",NA,NA,NA,NA,""
"image-keyboard-response",77,290765,"0.0-4.21-2.21","b4zh0br00gmza79",188,"20.csv","","null","resources/images/coin2.png","null","",NA,NA,NA,NA,""
"image-keyboard-response",78,291045,"0.0-4.22-0.22","b4zh0br00gmza79",188,"20.csv","","280","resources/trios/L1T2A3.jpg","39","restless",0.1,0.4,0.8,0.978866361823008,"false"
"image-keyboard-response",79,291448,"0.0-4.22-1.22","b4zh0br00gmza79",188,"20.csv","","null","resources/maskTrios/BBA3.jpg","null","",NA,NA,NA,NA,""
"image-keyboard-response",80,292768,"0.0-4.22-2.22","b4zh0br00gmza79",188,"20.csv","","null","resources/images/fishbone.png","null","",NA,NA,NA,NA,""
"image-keyboard-response",81,293259,"0.0-4.23-0.23","b4zh0br00gmza79",188,"20.csv","","491","resources/trios/L1T2A3.jpg","39","restless",0.1,0.4,0.8,0.40170981832489,"true"
"image-keyboard-response",82,293666,"0.0-4.23-1.23","b4zh0br00gmza79",188,"20.csv","","null","resources/maskTrios/BBA3.jpg","null","",NA,NA,NA,NA,""
"image-keyboard-response",83,294871,"0.0-4.23-2.23","b4zh0br00gmza79",188,"20.csv","","null","resources/images/coin2.png","null","",NA,NA,NA,NA,""
"image-keyboard-response",84,295177,"0.0-4.24-0.24","b4zh0br00gmza79",188,"20.csv","","305","resources/trios/L1T2A3.jpg","39","restless",0.1,0.5,0.8,0.891276011385401,"false"
"image-keyboard-response",85,295580,"0.0-4.24-1.24","b4zh0br00gmza79",188,"20.csv","","null","resources/maskTrios/BBA3.jpg","null","",NA,NA,NA,NA,""
"image-keyboard-response",86,296875,"0.0-4.24-2.24","b4zh0br00gmza79",188,"20.csv","","null","resources/images/fishbone.png","null","",NA,NA,NA,NA,""
"image-keyboard-response",87,296881,"0.0-4.25-0.25","b4zh0br00gmza79",188,"20.csv","","5","resources/trios/L1T2A3.jpg","38","restless",0.1,0.5,0.8,0.101767034871776,"true"
"image-keyboard-response",88,297291,"0.0-4.25-1.25","b4zh0br00gmza79",188,"20.csv","","null","resources/maskTrios/BT2B.jpg","null","",NA,NA,NA,NA,""
"image-keyboard-response",89,298516,"0.0-4.25-2.25","b4zh0br00gmza79",188,"20.csv","","null","resources/images/coin2.png","null","",NA,NA,NA,NA,""
"image-keyboard-response",90,298990,"0.0-4.26-0.26","b4zh0br00gmza79",188,"20.csv","","473","resources/trios/L1T2A3.jpg","38","restless",0.1,0.5,0.8,0.193057961222149,"true"
"image-keyboard-response",91,299397,"0.0-4.26-1.26","b4zh0br00gmza79",188,"20.csv","","null","resources/maskTrios/BT2B.jpg","null","",NA,NA,NA,NA,""
"image-keyboard-response",92,300599,"0.0-4.26-2.26","b4zh0br00gmza79",188,"20.csv","","null","resources/images/coin2.png","null","",NA,NA,NA,NA,""
"image-keyboard-response",93,300916,"0.0-4.27-0.27","b4zh0br00gmza79",188,"20.csv","","316","resources/trios/L1T2A3.jpg","37","restless",0.1,0.5,0.8,0.0278843927389266,"true"
"image-keyboard-response",94,301319,"0.0-4.27-1.27","b4zh0br00gmza79",188,"20.csv","","null","resources/maskTrios/L1BB.jpg","null","",NA,NA,NA,NA,""
"image-keyboard-response",95,302526,"0.0-4.27-2.27","b4zh0br00gmza79",188,"20.csv","","null","resources/images/coin2.png","null","",NA,NA,NA,NA,""
"image-keyboard-response",96,302902,"0.0-4.28-0.28","b4zh0br00gmza79",188,"20.csv","","375","resources/trios/L1T2A3.jpg","37","restless",0.1,0.5,0.8,0.466948641019362,"false"
"image-keyboard-response",97,303324,"0.0-4.28-1.28","b4zh0br00gmza79",188,"20.csv","","null","resources/maskTrios/L1BB.jpg","null","",NA,NA,NA,NA,""
"image-keyboard-response",98,304530,"0.0-4.28-2.28","b4zh0br00gmza79",188,"20.csv","","null","resources/images/fishbone.png","null","",NA,NA,NA,NA,""
"image-keyboard-response",99,304610,"0.0-4.29-0.29","b4zh0br00gmza79",188,"20.csv","","77","resources/trios/L1T2A3.jpg","37","restless",0.1,0.5,0.8,0.131600728906578,"false"
"image-keyboard-response",100,305016,"0.0-4.29-1.29","b4zh0br00gmza79",188,"20.csv","","null","resources/maskTrios/L1BB.jpg","null","",NA,NA,NA,NA,""
"image-keyboard-response",101,306222,"0.0-4.29-2.29","b4zh0br00gmza79",188,"20.csv","","null","resources/images/fishbone.png","null","",NA,NA,NA,NA,""
"image-keyboard-response",102,307253,"0.0-4.30-0.30","b4zh0br00gmza79",188,"20.csv","","1028","resources/trios/L1T2A3.jpg","37","restless",0.1,0.5,0.7,0.896242463402298,"false"
"image-keyboard-response",103,307657,"0.0-4.30-1.30","b4zh0br00gmza79",188,"20.csv","","null","resources/maskTrios/L1BB.jpg","null","",NA,NA,NA,NA,""
"image-keyboard-response",104,308893,"0.0-4.30-2.30","b4zh0br00gmza79",188,"20.csv","","null","resources/images/fishbone.png","null","",NA,NA,NA,NA,""
"image-keyboard-response",105,309275,"0.0-4.31-0.31","b4zh0br00gmza79",188,"20.csv","","380","resources/trios/L1T2A3.jpg","38","restless",0.1,0.5,0.7,0.354733400390168,"true"
"image-keyboard-response",106,309679,"0.0-4.31-1.31","b4zh0br00gmza79",188,"20.csv","","null","resources/maskTrios/BT2B.jpg","null","",NA,NA,NA,NA,""
"image-keyboard-response",107,310900,"0.0-4.31-2.31","b4zh0br00gmza79",188,"20.csv","","null","resources/images/coin2.png","null","",NA,NA,NA,NA,""
"image-keyboard-response",108,311896,"0.0-4.32-0.32","b4zh0br00gmza79",188,"20.csv","","995","resources/trios/L1T2A3.jpg","38","restless",0.1,0.5,0.7,0.0738066323025418,"true"
"image-keyboard-response",109,312308,"0.0-4.32-1.32","b4zh0br00gmza79",188,"20.csv","","null","resources/maskTrios/BT2B.jpg","null","",NA,NA,NA,NA,""
"image-keyboard-response",110,313515,"0.0-4.32-2.32","b4zh0br00gmza79",188,"20.csv","","null","resources/images/coin2.png","null","",NA,NA,NA,NA,""
"image-keyboard-response",111,315364,"0.0-4.33-0.33","b4zh0br00gmza79",188,"20.csv","","1848","resources/trios/L1T2A3.jpg","38","restless",0.2,0.5,0.7,0.284993556720115,"true"
"image-keyboard-response",112,315769,"0.0-4.33-1.33","b4zh0br00gmza79",188,"20.csv","","null","resources/maskTrios/BT2B.jpg","null","",NA,NA,NA,NA,""
"image-keyboard-response",113,316974,"0.0-4.33-2.33","b4zh0br00gmza79",188,"20.csv","","null","resources/images/coin2.png","null","",NA,NA,NA,NA,""
"image-keyboard-response",114,317466,"0.0-4.34-0.34","b4zh0br00gmza79",188,"20.csv","","492","resources/trios/L1T2A3.jpg","38","restless",0.2,0.5,0.7,0.1328328230176,"true"
"image-keyboard-response",115,317869,"0.0-4.34-1.34","b4zh0br00gmza79",188,"20.csv","","null","resources/maskTrios/BT2B.jpg","null","",NA,NA,NA,NA,""
"image-keyboard-response",116,319075,"0.0-4.34-2.34","b4zh0br00gmza79",188,"20.csv","","null","resources/images/coin2.png","null","",NA,NA,NA,NA,""
"image-keyboard-response",117,319879,"0.0-4.35-0.35","b4zh0br00gmza79",188,"20.csv","","803","resources/trios/L1T2A3.jpg","38","restless",0.2,0.5,0.7,0.894559306977518,"false"
"image-keyboard-response",118,320286,"0.0-4.35-1.35","b4zh0br00gmza79",188,"20.csv","","null","resources/maskTrios/BT2B.jpg","null","",NA,NA,NA,NA,""
"image-keyboard-response",119,321492,"0.0-4.35-2.35","b4zh0br00gmza79",188,"20.csv","","null","resources/images/fishbone.png","null","",NA,NA,NA,NA,""
"image-keyboard-response",120,322891,"0.0-4.36-0.36","b4zh0br00gmza79",188,"20.csv","","1398","resources/trios/L1T2A3.jpg","38","restless",0.2,0.5,0.7,0.284024968408402,"true"
"image-keyboard-response",121,323293,"0.0-4.36-1.36","b4zh0br00gmza79",188,"20.csv","","null","resources/maskTrios/BT2B.jpg","null","",NA,NA,NA,NA,""
"image-keyboard-response",122,324497,"0.0-4.36-2.36","b4zh0br00gmza79",188,"20.csv","","null","resources/images/coin2.png","null","",NA,NA,NA,NA,""
"image-keyboard-response",123,324969,"0.0-4.37-0.37","b4zh0br00gmza79",188,"20.csv","","468","resources/trios/L1T2A3.jpg","38","restless",0.2,0.5,0.7,0.574876514676817,"false"
"image-keyboard-response",124,325375,"0.0-4.37-1.37","b4zh0br00gmza79",188,"20.csv","","null","resources/maskTrios/BT2B.jpg","null","",NA,NA,NA,NA,""
"image-keyboard-response",125,326581,"0.0-4.37-2.37","b4zh0br00gmza79",188,"20.csv","","null","resources/images/fishbone.png","null","",NA,NA,NA,NA,""
"image-keyboard-response",126,326763,"0.0-4.38-0.38","b4zh0br00gmza79",188,"20.csv","","181","resources/trios/L1T2A3.jpg","37","restless",0.3,0.5,0.7,0.77205008053621,"false"
"image-keyboard-response",127,327169,"0.0-4.38-1.38","b4zh0br00gmza79",188,"20.csv","","null","resources/maskTrios/L1BB.jpg","null","",NA,NA,NA,NA,""
"image-keyboard-response",128,328375,"0.0-4.38-2.38","b4zh0br00gmza79",188,"20.csv","","null","resources/images/fishbone.png","null","",NA,NA,NA,NA,""
"image-keyboard-response",129,328753,"0.0-4.39-0.39","b4zh0br00gmza79",188,"20.csv","","377","resources/trios/L1T2A3.jpg","38","restless",0.4,0.5,0.7,0.30739094924235,"true"
"image-keyboard-response",130,329174,"0.0-4.39-1.39","b4zh0br00gmza79",188,"20.csv","","null","resources/maskTrios/BT2B.jpg","null","",NA,NA,NA,NA,""
"image-keyboard-response",131,330389,"0.0-4.39-2.39","b4zh0br00gmza79",188,"20.csv","","null","resources/images/coin2.png","null","",NA,NA,NA,NA,""
"image-keyboard-response",132,332896,"0.0-4.40-0.40","b4zh0br00gmza79",188,"20.csv","","2505","resources/trios/L1T2A3.jpg","38","restless",0.4,0.5,0.7,0.103043583182982,"true"
"image-keyboard-response",133,333298,"0.0-4.40-1.40","b4zh0br00gmza79",188,"20.csv","","null","resources/maskTrios/BT2B.jpg","null","",NA,NA,NA,NA,""
"image-keyboard-response",134,334503,"0.0-4.40-2.40","b4zh0br00gmza79",188,"20.csv","","null","resources/images/coin2.png","null","",NA,NA,NA,NA,""
"image-keyboard-response",135,334784,"0.0-4.41-0.41","b4zh0br00gmza79",188,"20.csv","","280","resources/trios/L1T2A3.jpg","38","restless",0.4,0.5,0.7,0.399284098234125,"true"
"image-keyboard-response",136,335196,"0.0-4.41-1.41","b4zh0br00gmza79",188,"20.csv","","null","resources/maskTrios/BT2B.jpg","null","",NA,NA,NA,NA,""
"image-keyboard-response",137,336401,"0.0-4.41-2.41","b4zh0br00gmza79",188,"20.csv","","null","resources/images/coin2.png","null","",NA,NA,NA,NA,""
"image-keyboard-response",138,336873,"0.0-4.42-0.42","b4zh0br00gmza79",188,"20.csv","","471","resources/trios/L1T2A3.jpg","37","restless",0.4,0.5,0.7,0.567293583210953,"false"
"image-keyboard-response",139,337278,"0.0-4.42-1.42","b4zh0br00gmza79",188,"20.csv","","null","resources/maskTrios/L1BB.jpg","null","",NA,NA,NA,NA,""
"image-keyboard-response",140,338485,"0.0-4.42-2.42","b4zh0br00gmza79",188,"20.csv","","null","resources/images/fishbone.png","null","",NA,NA,NA,NA,""
"image-keyboard-response",141,338863,"0.0-4.43-0.43","b4zh0br00gmza79",188,"20.csv","","378","resources/trios/L1T2A3.jpg","38","restless",0.4,0.5,0.8,0.0859444009214865,"true"
"image-keyboard-response",142,339269,"0.0-4.43-1.43","b4zh0br00gmza79",188,"20.csv","","null","resources/maskTrios/BT2B.jpg","null","",NA,NA,NA,NA,""
"image-keyboard-response",143,340477,"0.0-4.43-2.43","b4zh0br00gmza79",188,"20.csv","","null","resources/images/coin2.png","null","",NA,NA,NA,NA,""
"image-keyboard-response",144,340798,"0.0-4.44-0.44","b4zh0br00gmza79",188,"20.csv","","311","resources/trios/L1T2A3.jpg","38","restless",0.4,0.5,0.8,0.553600462687041,"false"
"image-keyboard-response",145,341201,"0.0-4.44-1.44","b4zh0br00gmza79",188,"20.csv","","null","resources/maskTrios/BT2B.jpg","null","",NA,NA,NA,NA,""
"image-keyboard-response",146,342406,"0.0-4.44-2.44","b4zh0br00gmza79",188,"20.csv","","null","resources/images/fishbone.png","null","",NA,NA,NA,NA,""
"image-keyboard-response",147,342921,"0.0-4.45-0.45","b4zh0br00gmza79",188,"20.csv","","511","resources/trios/L1T2A3.jpg","39","restless",0.5,0.6,0.8,0.533807627664752,"true"
"image-keyboard-response",148,343327,"0.0-4.45-1.45","b4zh0br00gmza79",188,"20.csv","","null","resources/maskTrios/BBA3.jpg","null","",NA,NA,NA,NA,""
"image-keyboard-response",149,344535,"0.0-4.45-2.45","b4zh0br00gmza79",188,"20.csv","","null","resources/images/coin2.png","null","",NA,NA,NA,NA,""
"image-keyboard-response",150,344915,"0.0-4.46-0.46","b4zh0br00gmza79",188,"20.csv","","378","resources/trios/L1T2A3.jpg","37","restless",0.5,0.6,0.8,0.574858723164377,"false"
"image-keyboard-response",151,345334,"0.0-4.46-1.46","b4zh0br00gmza79",188,"20.csv","","null","resources/maskTrios/L1BB.jpg","null","",NA,NA,NA,NA,""
"image-keyboard-response",152,346536,"0.0-4.46-2.46","b4zh0br00gmza79",188,"20.csv","","null","resources/images/fishbone.png","null","",NA,NA,NA,NA,""
"image-keyboard-response",153,346680,"0.0-4.47-0.47","b4zh0br00gmza79",188,"20.csv","","143","resources/trios/L1T2A3.jpg","38","restless",0.5,0.6,0.8,0.7949275095724,"false"
"image-keyboard-response",154,347087,"0.0-4.47-1.47","b4zh0br00gmza79",188,"20.csv","","null","resources/maskTrios/BT2B.jpg","null","",NA,NA,NA,NA,""
"image-keyboard-response",155,348294,"0.0-4.47-2.47","b4zh0br00gmza79",188,"20.csv","","null","resources/images/fishbone.png","null","",NA,NA,NA,NA,""
"image-keyboard-response",156,348701,"0.0-4.48-0.48","b4zh0br00gmza79",188,"20.csv","","406","resources/trios/L1T2A3.jpg","38","restless",0.6,0.6,0.8,0.854432292670196,"false"
"image-keyboard-response",157,349106,"0.0-4.48-1.48","b4zh0br00gmza79",188,"20.csv","","null","resources/maskTrios/BT2B.jpg","null","",NA,NA,NA,NA,""
"image-keyboard-response",158,350310,"0.0-4.48-2.48","b4zh0br00gmza79",188,"20.csv","","null","resources/images/fishbone.png","null","",NA,NA,NA,NA,""
"image-keyboard-response",159,350567,"0.0-4.49-0.49","b4zh0br00gmza79",188,"20.csv","","253","resources/trios/L1T2A3.jpg","37","restless",0.5,0.6,0.8,0.360794838089931,"true"
"image-keyboard-response",160,350970,"0.0-4.49-1.49","b4zh0br00gmza79",188,"20.csv","","null","resources/maskTrios/L1BB.jpg","null","",NA,NA,NA,NA,""
"image-keyboard-response",161,352313,"0.0-4.49-2.49","b4zh0br00gmza79",188,"20.csv","","null","resources/images/coin2.png","null","",NA,NA,NA,NA,""
"image-keyboard-response",162,354448,"0.0-4.50-0.50","b4zh0br00gmza79",188,"20.csv","","2131","resources/trios/L1T2A3.jpg","37","restless",0.5,0.6,0.8,0.629592991642436,"false"
"image-keyboard-response",163,354854,"0.0-4.50-1.50","b4zh0br00gmza79",188,"20.csv","","null","resources/maskTrios/L1BB.jpg","null","",NA,NA,NA,NA,""
"image-keyboard-response",164,356060,"0.0-4.50-2.50","b4zh0br00gmza79",188,"20.csv","","null","resources/images/fishbone.png","null","",NA,NA,NA,NA,""
"image-keyboard-response",165,357297,"0.0-4.51-0.51","b4zh0br00gmza79",188,"20.csv","","1236","resources/trios/L1T2A3.jpg","37","restless",0.5,0.6,0.8,0.103038186305446,"true"
"image-keyboard-response",166,357703,"0.0-4.51-1.51","b4zh0br00gmza79",188,"20.csv","","null","resources/maskTrios/L1BB.jpg","null","",NA,NA,NA,NA,""
"image-keyboard-response",167,358905,"0.0-4.51-2.51","b4zh0br00gmza79",188,"20.csv","","null","resources/images/coin2.png","null","",NA,NA,NA,NA,""
"image-keyboard-response",168,359092,"0.0-4.52-0.52","b4zh0br00gmza79",188,"20.csv","","182","resources/trios/L1T2A3.jpg","37","restless",0.5,0.6,0.8,0.723967077934402,"false"
"image-keyboard-response",169,359507,"0.0-4.52-1.52","b4zh0br00gmza79",188,"20.csv","","null","resources/maskTrios/L1BB.jpg","null","",NA,NA,NA,NA,""
"image-keyboard-response",170,360712,"0.0-4.52-2.52","b4zh0br00gmza79",188,"20.csv","","null","resources/images/fishbone.png","null","",NA,NA,NA,NA,""
"image-keyboard-response",171,361180,"0.0-4.53-0.53","b4zh0br00gmza79",188,"20.csv","","466","resources/trios/L1T2A3.jpg","37","restless",0.5,0.7,0.8,0.475490945380052,"true"
"image-keyboard-response",172,361584,"0.0-4.53-1.53","b4zh0br00gmza79",188,"20.csv","","null","resources/maskTrios/L1BB.jpg","null","",NA,NA,NA,NA,""
"image-keyboard-response",173,362790,"0.0-4.53-2.53","b4zh0br00gmza79",188,"20.csv","","null","resources/images/coin2.png","null","",NA,NA,NA,NA,""
"image-keyboard-response",174,363101,"0.0-4.54-0.54","b4zh0br00gmza79",188,"20.csv","","310","resources/trios/L1T2A3.jpg","38","restless",0.5,0.7,0.8,0.683273294068021,"true"
"image-keyboard-response",175,363510,"0.0-4.54-1.54","b4zh0br00gmza79",188,"20.csv","","null","resources/maskTrios/BT2B.jpg","null","",NA,NA,NA,NA,""
"image-keyboard-response",176,364720,"0.0-4.54-2.54","b4zh0br00gmza79",188,"20.csv","","null","resources/images/coin2.png","null","",NA,NA,NA,NA,""
"image-keyboard-response",177,365050,"0.0-4.55-0.55","b4zh0br00gmza79",188,"20.csv","","324","resources/trios/L1T2A3.jpg","37","restless",0.5,0.7,0.8,0.650788831120887,"false"
"image-keyboard-response",178,365454,"0.0-4.55-1.55","b4zh0br00gmza79",188,"20.csv","","null","resources/maskTrios/L1BB.jpg","null","",NA,NA,NA,NA,""
"image-keyboard-response",179,366725,"0.0-4.55-2.55","b4zh0br00gmza79",188,"20.csv","","null","resources/images/fishbone.png","null","",NA,NA,NA,NA,""
"image-keyboard-response",180,366768,"0.0-4.56-0.56","b4zh0br00gmza79",188,"20.csv","","42","resources/trios/L1T2A3.jpg","38","restless",0.5,0.7,0.8,0.798881014001602,"false"
"image-keyboard-response",181,367173,"0.0-4.56-1.56","b4zh0br00gmza79",188,"20.csv","","null","resources/maskTrios/BT2B.jpg","null","",NA,NA,NA,NA,""
"image-keyboard-response",182,368379,"0.0-4.56-2.56","b4zh0br00gmza79",188,"20.csv","","null","resources/images/fishbone.png","null","",NA,NA,NA,NA,""
"image-keyboard-response",183,368947,"0.0-4.57-0.57","b4zh0br00gmza79",188,"20.csv","","567","resources/trios/L1T2A3.jpg","39","restless",0.5,0.7,0.8,0.324977523408099,"true"
"image-keyboard-response",184,369350,"0.0-4.57-1.57","b4zh0br00gmza79",188,"20.csv","","null","resources/maskTrios/BBA3.jpg","null","",NA,NA,NA,NA,""
"image-keyboard-response",185,370555,"0.0-4.57-2.57","b4zh0br00gmza79",188,"20.csv","","null","resources/images/coin2.png","null","",NA,NA,NA,NA,""
"image-keyboard-response",186,370923,"0.0-4.58-0.58","b4zh0br00gmza79",188,"20.csv","","366","resources/trios/L1T2A3.jpg","38","restless",0.5,0.7,0.8,0.99628503507118,"false"
"image-keyboard-response",187,371326,"0.0-4.58-1.58","b4zh0br00gmza79",188,"20.csv","","null","resources/maskTrios/BT2B.jpg","null","",NA,NA,NA,NA,""
"image-keyboard-response",188,372532,"0.0-4.58-2.58","b4zh0br00gmza79",188,"20.csv","","null","resources/images/fishbone.png","null","",NA,NA,NA,NA,""
"image-keyboard-response",189,373002,"0.0-4.59-0.59","b4zh0br00gmza79",188,"20.csv","","470","resources/trios/L1T2A3.jpg","37","restless",0.5,0.7,0.8,0.32788136318728,"true"
"image-keyboard-response",190,373408,"0.0-4.59-1.59","b4zh0br00gmza79",188,"20.csv","","null","resources/maskTrios/L1BB.jpg","null","",NA,NA,NA,NA,""
"image-keyboard-response",191,374728,"0.0-4.59-2.59","b4zh0br00gmza79",188,"20.csv","","null","resources/images/coin2.png","null","",NA,NA,NA,NA,""
"image-keyboard-response",192,375096,"0.0-4.60-0.60","b4zh0br00gmza79",188,"20.csv","","366","resources/trios/L1T2A3.jpg","37","restless",0.5,0.7,0.8,0.49423793292498,"true"
"image-keyboard-response",193,375500,"0.0-4.60-1.60","b4zh0br00gmza79",188,"20.csv","","null","resources/maskTrios/L1BB.jpg","null","",NA,NA,NA,NA,""
"image-keyboard-response",194,376706,"0.0-4.60-2.60","b4zh0br00gmza79",188,"20.csv","","null","resources/images/coin2.png","null","",NA,NA,NA,NA,""
"image-keyboard-response",195,377214,"0.0-4.61-0.61","b4zh0br00gmza79",188,"20.csv","","506","resources/trios/L1T2A3.jpg","39","restless",0.5,0.7,0.8,0.0242570028486617,"true"
"image-keyboard-response",196,377617,"0.0-4.61-1.61","b4zh0br00gmza79",188,"20.csv","","null","resources/maskTrios/BBA3.jpg","null","",NA,NA,NA,NA,""
"image-keyboard-response",197,378824,"0.0-4.61-2.61","b4zh0br00gmza79",188,"20.csv","","null","resources/images/coin2.png","null","",NA,NA,NA,NA,""
"image-keyboard-response",198,379004,"0.0-4.62-0.62","b4zh0br00gmza79",188,"20.csv","","178","resources/trios/L1T2A3.jpg","37","restless",0.5,0.7,0.8,0.352197618951434,"true"
"image-keyboard-response",199,379411,"0.0-4.62-1.62","b4zh0br00gmza79",188,"20.csv","","null","resources/maskTrios/L1BB.jpg","null","",NA,NA,NA,NA,""
"image-keyboard-response",200,380618,"0.0-4.62-2.62","b4zh0br00gmza79",188,"20.csv","","null","resources/images/coin2.png","null","",NA,NA,NA,NA,""
"image-keyboard-response",201,380733,"0.0-4.63-0.63","b4zh0br00gmza79",188,"20.csv","","113","resources/trios/L1T2A3.jpg","39","restless",0.5,0.7,0.8,0.726845106383137,"true"
"image-keyboard-response",202,381139,"0.0-4.63-1.63","b4zh0br00gmza79",188,"20.csv","","null","resources/maskTrios/BBA3.jpg","null","",NA,NA,NA,NA,""
"image-keyboard-response",203,382345,"0.0-4.63-2.63","b4zh0br00gmza79",188,"20.csv","","null","resources/images/coin2.png","null","",NA,NA,NA,NA,""
"image-keyboard-response",204,382693,"0.0-4.64-0.64","b4zh0br00gmza79",188,"20.csv","","347","resources/trios/L1T2A3.jpg","37","restless",0.5,0.7,0.8,0.102276698149881,"true"
"image-keyboard-response",205,383101,"0.0-4.64-1.64","b4zh0br00gmza79",188,"20.csv","","null","resources/maskTrios/L1BB.jpg","null","",NA,NA,NA,NA,""
"image-keyboard-response",206,384314,"0.0-4.64-2.64","b4zh0br00gmza79",188,"20.csv","","null","resources/images/coin2.png","null","",NA,NA,NA,NA,""
"image-keyboard-response",207,384417,"0.0-4.65-0.65","b4zh0br00gmza79",188,"20.csv","","100","resources/trios/L1T2A3.jpg","39","restless",0.5,0.7,0.8,0.927171206761768,"false"
"image-keyboard-response",208,384823,"0.0-4.65-1.65","b4zh0br00gmza79",188,"20.csv","","null","resources/maskTrios/BBA3.jpg","null","",NA,NA,NA,NA,""
"image-keyboard-response",209,386025,"0.0-4.65-2.65","b4zh0br00gmza79",188,"20.csv","","null","resources/images/fishbone.png","null","",NA,NA,NA,NA,""
"image-keyboard-response",210,388107,"0.0-4.66-0.66","b4zh0br00gmza79",188,"20.csv","","2081","resources/trios/L1T2A3.jpg","37","restless",0.5,0.7,0.8,0.57157723424807,"false"
"image-keyboard-response",211,388522,"0.0-4.66-1.66","b4zh0br00gmza79",188,"20.csv","","null","resources/maskTrios/L1BB.jpg","null","",NA,NA,NA,NA,""
"image-keyboard-response",212,389751,"0.0-4.66-2.66","b4zh0br00gmza79",188,"20.csv","","null","resources/images/fishbone.png","null","",NA,NA,NA,NA,""
"image-keyboard-response",213,390495,"0.0-4.67-0.67","b4zh0br00gmza79",188,"20.csv","","745","resources/trios/L1T2A3.jpg","39","restless",0.5,0.7,0.8,0.311939520273954,"true"
"image-keyboard-response",214,390902,"0.0-4.67-1.67","b4zh0br00gmza79",188,"20.csv","","null","resources/maskTrios/BBA3.jpg","null","",NA,NA,NA,NA,""
"image-keyboard-response",215,392122,"0.0-4.67-2.67","b4zh0br00gmza79",188,"20.csv","","null","resources/images/coin2.png","null","",NA,NA,NA,NA,""
"image-keyboard-response",216,392416,"0.0-4.68-0.68","b4zh0br00gmza79",188,"20.csv","","293","resources/trios/L1T2A3.jpg","37","restless",0.5,0.7,0.8,0.628778730452336,"false"
"image-keyboard-response",217,392822,"0.0-4.68-1.68","b4zh0br00gmza79",188,"20.csv","","null","resources/maskTrios/L1BB.jpg","null","",NA,NA,NA,NA,""
"image-keyboard-response",218,394030,"0.0-4.68-2.68","b4zh0br00gmza79",188,"20.csv","","null","resources/images/fishbone.png","null","",NA,NA,NA,NA,""
"image-keyboard-response",219,394119,"0.0-4.69-0.69","b4zh0br00gmza79",188,"20.csv","","88","resources/trios/L1T2A3.jpg","39","restless",0.5,0.6,0.8,0.832751120341468,"false"
"image-keyboard-response",220,394521,"0.0-4.69-1.69","b4zh0br00gmza79",188,"20.csv","","null","resources/maskTrios/BBA3.jpg","null","",NA,NA,NA,NA,""
"image-keyboard-response",221,395726,"0.0-4.69-2.69","b4zh0br00gmza79",188,"20.csv","","null","resources/images/fishbone.png","null","",NA,NA,NA,NA,""
"image-keyboard-response",222,395781,"0.0-4.70-0.70","b4zh0br00gmza79",188,"20.csv","","55","resources/trios/L1T2A3.jpg","37","restless",0.5,0.6,0.7,0.100880434210689,"true"
"image-keyboard-response",223,396184,"0.0-4.70-1.70","b4zh0br00gmza79",188,"20.csv","","null","resources/maskTrios/L1BB.jpg","null","",NA,NA,NA,NA,""
"image-keyboard-response",224,397390,"0.0-4.70-2.70","b4zh0br00gmza79",188,"20.csv","","null","resources/images/coin2.png","null","",NA,NA,NA,NA,""
"image-keyboard-response",225,399443,"0.0-4.71-0.71","b4zh0br00gmza79",188,"20.csv","","2049","resources/trios/L1T2A3.jpg","39","restless",0.5,0.5,0.7,0.0637924103908256,"true"
"image-keyboard-response",226,399849,"0.0-4.71-1.71","b4zh0br00gmza79",188,"20.csv","","null","resources/maskTrios/BBA3.jpg","null","",NA,NA,NA,NA,""
"image-keyboard-response",227,401052,"0.0-4.71-2.71","b4zh0br00gmza79",188,"20.csv","","null","resources/images/coin2.png","null","",NA,NA,NA,NA,""
"image-keyboard-response",228,401260,"0.0-4.72-0.72","b4zh0br00gmza79",188,"20.csv","","208","resources/trios/L1T2A3.jpg","37","restless",0.5,0.5,0.7,0.601386505256884,"false"
"image-keyboard-response",229,401666,"0.0-4.72-1.72","b4zh0br00gmza79",188,"20.csv","","null","resources/maskTrios/L1BB.jpg","null","",NA,NA,NA,NA,""
"image-keyboard-response",230,402872,"0.0-4.72-2.72","b4zh0br00gmza79",188,"20.csv","","null","resources/images/fishbone.png","null","",NA,NA,NA,NA,""
"image-keyboard-response",231,403944,"0.0-4.73-0.73","b4zh0br00gmza79",188,"20.csv","","1071","resources/trios/L1T2A3.jpg","39","restless",0.5,0.5,0.7,0.129560598666854,"true"
"image-keyboard-response",232,404350,"0.0-4.73-1.73","b4zh0br00gmza79",188,"20.csv","","null","resources/maskTrios/BBA3.jpg","null","",NA,NA,NA,NA,""
"image-keyboard-response",233,405555,"0.0-4.73-2.73","b4zh0br00gmza79",188,"20.csv","","null","resources/images/coin2.png","null","",NA,NA,NA,NA,""
"image-keyboard-response",234,406536,"0.0-4.74-0.74","b4zh0br00gmza79",188,"20.csv","","981","resources/trios/L1T2A3.jpg","39","restless",0.5,0.5,0.7,0.880517028818136,"false"
"image-keyboard-response",235,406947,"0.0-4.74-1.74","b4zh0br00gmza79",188,"20.csv","","null","resources/maskTrios/BBA3.jpg","null","",NA,NA,NA,NA,""
"image-keyboard-response",236,408149,"0.0-4.74-2.74","b4zh0br00gmza79",188,"20.csv","","null","resources/images/fishbone.png","null","",NA,NA,NA,NA,""
"image-keyboard-response",237,408793,"0.0-4.75-0.75","b4zh0br00gmza79",188,"20.csv","","640","resources/trios/L1T2A3.jpg","39","restless",0.5,0.5,0.7,0.455626229887971,"true"
"image-keyboard-response",238,409201,"0.0-4.75-1.75","b4zh0br00gmza79",188,"20.csv","","null","resources/maskTrios/BBA3.jpg","null","",NA,NA,NA,NA,""
"image-keyboard-response",239,410407,"0.0-4.75-2.75","b4zh0br00gmza79",188,"20.csv","","null","resources/images/coin2.png","null","",NA,NA,NA,NA,""
"image-keyboard-response",240,413825,"0.0-4.76-0.76","b4zh0br00gmza79",188,"20.csv","","3413","resources/trios/L1T2A3.jpg","39","restless",0.5,0.5,0.7,0.374057385561842,"true"
"image-keyboard-response",241,414229,"0.0-4.76-1.76","b4zh0br00gmza79",188,"20.csv","","null","resources/maskTrios/BBA3.jpg","null","",NA,NA,NA,NA,""
"image-keyboard-response",242,415434,"0.0-4.76-2.76","b4zh0br00gmza79",188,"20.csv","","null","resources/images/coin2.png","null","",NA,NA,NA,NA,""
"image-keyboard-response",243,416007,"0.0-4.77-0.77","b4zh0br00gmza79",188,"20.csv","","561","resources/trios/L1T2A3.jpg","39","restless",0.5,0.5,0.7,0.870332447634138,"false"
"image-keyboard-response",244,416411,"0.0-4.77-1.77","b4zh0br00gmza79",188,"20.csv","","null","resources/maskTrios/BBA3.jpg","null","",NA,NA,NA,NA,""
"image-keyboard-response",245,417617,"0.0-4.77-2.77","b4zh0br00gmza79",188,"20.csv","","null","resources/images/fishbone.png","null","",NA,NA,NA,NA,""
"image-keyboard-response",246,418006,"0.0-4.78-0.78","b4zh0br00gmza79",188,"20.csv","","387","resources/trios/L1T2A3.jpg","37","restless",0.5,0.5,0.7,0.31485932237878,"true"
"image-keyboard-response",247,418416,"0.0-4.78-1.78","b4zh0br00gmza79",188,"20.csv","","null","resources/maskTrios/L1BB.jpg","null","",NA,NA,NA,NA,""
"image-keyboard-response",248,419618,"0.0-4.78-2.78","b4zh0br00gmza79",188,"20.csv","","null","resources/images/coin2.png","null","",NA,NA,NA,NA,""
"image-keyboard-response",249,419754,"0.0-4.79-0.79","b4zh0br00gmza79",188,"20.csv","","134","resources/trios/L1T2A3.jpg","37","restless",0.6,0.5,0.7,0.0146350806873229,"true"
"image-keyboard-response",250,420161,"0.0-4.79-1.79","b4zh0br00gmza79",188,"20.csv","","null","resources/maskTrios/L1BB.jpg","null","",NA,NA,NA,NA,""
"image-keyboard-response",251,421366,"0.0-4.79-2.79","b4zh0br00gmza79",188,"20.csv","","null","resources/images/coin2.png","null","",NA,NA,NA,NA,""
"image-keyboard-response",252,421768,"0.0-4.80-0.80","b4zh0br00gmza79",188,"20.csv","","398","resources/trios/L1T2A3.jpg","37","restless",0.6,0.5,0.7,0.0876791160884385,"true"
"image-keyboard-response",253,422172,"0.0-4.80-1.80","b4zh0br00gmza79",188,"20.csv","","null","resources/maskTrios/L1BB.jpg","null","",NA,NA,NA,NA,""
"image-keyboard-response",254,423376,"0.0-4.80-2.80","b4zh0br00gmza79",188,"20.csv","","null","resources/images/coin2.png","null","",NA,NA,NA,NA,""
"image-keyboard-response",255,423875,"0.0-4.81-0.81","b4zh0br00gmza79",188,"20.csv","","497","resources/trios/L1T2A3.jpg","37","restless",0.6,0.5,0.7,0.0778864177564892,"true"
"image-keyboard-response",256,424281,"0.0-4.81-1.81","b4zh0br00gmza79",188,"20.csv","","null","resources/maskTrios/L1BB.jpg","null","",NA,NA,NA,NA,""
"image-keyboard-response",257,425487,"0.0-4.81-2.81","b4zh0br00gmza79",188,"20.csv","","null","resources/images/coin2.png","null","",NA,NA,NA,NA,""
"image-keyboard-response",258,425869,"0.0-4.82-0.82","b4zh0br00gmza79",188,"20.csv","","380","resources/trios/L1T2A3.jpg","37","restless",0.6,0.5,0.7,0.0952123688541999,"true"
"image-keyboard-response",259,426287,"0.0-4.82-1.82","b4zh0br00gmza79",188,"20.csv","","null","resources/maskTrios/L1BB.jpg","null","",NA,NA,NA,NA,""
"image-keyboard-response",260,427496,"0.0-4.82-2.82","b4zh0br00gmza79",188,"20.csv","","null","resources/images/coin2.png","null","",NA,NA,NA,NA,""
"image-keyboard-response",261,427769,"0.0-4.83-0.83","b4zh0br00gmza79",188,"20.csv","","270","resources/trios/L1T2A3.jpg","37","restless",0.7,0.6,0.7,0.545235002797996,"true"
"image-keyboard-response",262,428171,"0.0-4.83-1.83","b4zh0br00gmza79",188,"20.csv","","null","resources/maskTrios/L1BB.jpg","null","",NA,NA,NA,NA,""
"image-keyboard-response",263,429376,"0.0-4.83-2.83","b4zh0br00gmza79",188,"20.csv","","null","resources/images/coin2.png","null","",NA,NA,NA,NA,""
"image-keyboard-response",264,429684,"0.0-4.84-0.84","b4zh0br00gmza79",188,"20.csv","","302","resources/trios/L1T2A3.jpg","37","restless",0.7,0.6,0.7,0.368014376707409,"true"
"image-keyboard-response",265,430092,"0.0-4.84-1.84","b4zh0br00gmza79",188,"20.csv","","null","resources/maskTrios/L1BB.jpg","null","",NA,NA,NA,NA,""
"image-keyboard-response",266,431383,"0.0-4.84-2.84","b4zh0br00gmza79",188,"20.csv","","null","resources/images/coin2.png","null","",NA,NA,NA,NA,""
"image-keyboard-response",267,432677,"0.0-4.85-0.85","b4zh0br00gmza79",188,"20.csv","","1292","resources/trios/L1T2A3.jpg","37","restless",0.7,0.6,0.7,0.088376767629843,"true"
"image-keyboard-response",268,433079,"0.0-4.85-1.85","b4zh0br00gmza79",188,"20.csv","","null","resources/maskTrios/L1BB.jpg","null","",NA,NA,NA,NA,""
"image-keyboard-response",269,434286,"0.0-4.85-2.85","b4zh0br00gmza79",188,"20.csv","","null","resources/images/coin2.png","null","",NA,NA,NA,NA,""
"image-keyboard-response",270,446873,"0.0-4.86-0.86","b4zh0br00gmza79",188,"20.csv","","12587","resources/trios/L1T2A3.jpg","39","restless",0.7,0.6,0.7,0.283557342663976,"true"
"image-keyboard-response",271,447279,"0.0-4.86-1.86","b4zh0br00gmza79",188,"20.csv","","null","resources/maskTrios/BBA3.jpg","null","",NA,NA,NA,NA,""
"image-keyboard-response",272,448486,"0.0-4.86-2.86","b4zh0br00gmza79",188,"20.csv","","null","resources/images/coin2.png","null","",NA,NA,NA,NA,""
"image-keyboard-response",273,448498,"0.0-4.87-0.87","b4zh0br00gmza79",188,"20.csv","","9","resources/trios/L1T2A3.jpg","39","restless",0.7,0.6,0.7,0.403199260703238,"true"
"image-keyboard-response",274,448903,"0.0-4.87-1.87","b4zh0br00gmza79",188,"20.csv","","null","resources/maskTrios/BBA3.jpg","null","",NA,NA,NA,NA,""
"image-keyboard-response",275,450110,"0.0-4.87-2.87","b4zh0br00gmza79",188,"20.csv","","null","resources/images/coin2.png","null","",NA,NA,NA,NA,""
"image-keyboard-response",276,450314,"0.0-4.88-0.88","b4zh0br00gmza79",188,"20.csv","","201","resources/trios/L1T2A3.jpg","39","restless",0.7,0.6,0.7,0.64601772257321,"true"
"image-keyboard-response",277,450719,"0.0-4.88-1.88","b4zh0br00gmza79",188,"20.csv","","null","resources/maskTrios/BBA3.jpg","null","",NA,NA,NA,NA,""
"image-keyboard-response",278,451926,"0.0-4.88-2.88","b4zh0br00gmza79",188,"20.csv","","null","resources/images/coin2.png","null","",NA,NA,NA,NA,""
"image-keyboard-response",279,453597,"0.0-4.89-0.89","b4zh0br00gmza79",188,"20.csv","","1669","resources/trios/L1T2A3.jpg","39","restless",0.7,0.6,0.7,0.807238018406385,"false"
"image-keyboard-response",280,454006,"0.0-4.89-1.89","b4zh0br00gmza79",188,"20.csv","","null","resources/maskTrios/BBA3.jpg","null","",NA,NA,NA,NA,""
"image-keyboard-response",281,455212,"0.0-4.89-2.89","b4zh0br00gmza79",188,"20.csv","","null","resources/images/fishbone.png","null","",NA,NA,NA,NA,""
"image-keyboard-response",282,455213,"0.0-4.90-0.90","b4zh0br00gmza79",188,"20.csv","","1","resources/trios/L1T2A3.jpg","37","restless",0.7,0.6,0.7,0.34338484138097,"true"
"image-keyboard-response",283,455619,"0.0-4.90-1.90","b4zh0br00gmza79",188,"20.csv","","null","resources/maskTrios/L1BB.jpg","null","",NA,NA,NA,NA,""
"image-keyboard-response",284,456930,"0.0-4.90-2.90","b4zh0br00gmza79",188,"20.csv","","null","resources/images/coin2.png","null","",NA,NA,NA,NA,""
"image-keyboard-response",285,458649,"0.0-4.91-0.91","b4zh0br00gmza79",188,"20.csv","","1719","resources/trios/L1T2A3.jpg","37","restless",0.7,0.6,0.8,0.454316824212123,"true"
"image-keyboard-response",286,459053,"0.0-4.91-1.91","b4zh0br00gmza79",188,"20.csv","","null","resources/maskTrios/L1BB.jpg","null","",NA,NA,NA,NA,""
"image-keyboard-response",287,460259,"0.0-4.91-2.91","b4zh0br00gmza79",188,"20.csv","","null","resources/images/coin2.png","null","",NA,NA,NA,NA,""
"image-keyboard-response",288,460792,"0.0-4.92-0.92","b4zh0br00gmza79",188,"20.csv","","532","resources/trios/L1T2A3.jpg","37","restless",0.7,0.6,0.8,0.509808247841987,"true"
"image-keyboard-response",289,461196,"0.0-4.92-1.92","b4zh0br00gmza79",188,"20.csv","","null","resources/maskTrios/L1BB.jpg","null","",NA,NA,NA,NA,""
"image-keyboard-response",290,462402,"0.0-4.92-2.92","b4zh0br00gmza79",188,"20.csv","","null","resources/images/coin2.png","null","",NA,NA,NA,NA,""
"image-keyboard-response",291,464060,"0.0-4.93-0.93","b4zh0br00gmza79",188,"20.csv","","1657","resources/trios/L1T2A3.jpg","37","restless",0.7,0.6,0.8,0.765817448670136,"false"
"image-keyboard-response",292,464466,"0.0-4.93-1.93","b4zh0br00gmza79",188,"20.csv","","null","resources/maskTrios/L1BB.jpg","null","",NA,NA,NA,NA,""
"image-keyboard-response",293,465675,"0.0-4.93-2.93","b4zh0br00gmza79",188,"20.csv","","null","resources/images/fishbone.png","null","",NA,NA,NA,NA,""
"image-keyboard-response",294,466046,"0.0-4.94-0.94","b4zh0br00gmza79",188,"20.csv","","371","resources/trios/L1T2A3.jpg","37","restless",0.7,0.6,0.8,0.0533105183424484,"true"
"image-keyboard-response",295,466448,"0.0-4.94-1.94","b4zh0br00gmza79",188,"20.csv","","null","resources/maskTrios/L1BB.jpg","null","",NA,NA,NA,NA,""
"image-keyboard-response",296,467651,"0.0-4.94-2.94","b4zh0br00gmza79",188,"20.csv","","null","resources/images/coin2.png","null","",NA,NA,NA,NA,""
"image-keyboard-response",297,468850,"0.0-4.95-0.95","b4zh0br00gmza79",188,"20.csv","","1198","resources/trios/L1T2A3.jpg","39","restless",0.7,0.6,0.8,0.70745997003532,"true"
"image-keyboard-response",298,469255,"0.0-4.95-1.95","b4zh0br00gmza79",188,"20.csv","","null","resources/maskTrios/BBA3.jpg","null","",NA,NA,NA,NA,""
"image-keyboard-response",299,470456,"0.0-4.95-2.95","b4zh0br00gmza79",188,"20.csv","","null","resources/images/coin2.png","null","",NA,NA,NA,NA,""
"image-keyboard-response",300,471147,"0.0-4.96-0.96","b4zh0br00gmza79",188,"20.csv","","688","resources/trios/L1T2A3.jpg","37","restless",0.7,0.5,0.8,0.882764118379844,"false"
"image-keyboard-response",301,471553,"0.0-4.96-1.96","b4zh0br00gmza79",188,"20.csv","","null","resources/maskTrios/L1BB.jpg","null","",NA,NA,NA,NA,""
"image-keyboard-response",302,472760,"0.0-4.96-2.96","b4zh0br00gmza79",188,"20.csv","","null","resources/images/fishbone.png","null","",NA,NA,NA,NA,""
"image-keyboard-response",303,475399,"0.0-4.97-0.97","b4zh0br00gmza79",188,"20.csv","","2637","resources/trios/L1T2A3.jpg","39","restless",0.7,0.5,0.8,0.96047450544774,"false"
"image-keyboard-response",304,475801,"0.0-4.97-1.97","b4zh0br00gmza79",188,"20.csv","","null","resources/maskTrios/BBA3.jpg","null","",NA,NA,NA,NA,""
"image-keyboard-response",305,477015,"0.0-4.97-2.97","b4zh0br00gmza79",188,"20.csv","","null","resources/images/fishbone.png","null","",NA,NA,NA,NA,""
"image-keyboard-response",306,477669,"0.0-4.98-0.98","b4zh0br00gmza79",188,"20.csv","","653","resources/trios/L1T2A3.jpg","37","restless",0.7,0.5,0.8,0.807371955907024,"false"
"image-keyboard-response",307,478085,"0.0-4.98-1.98","b4zh0br00gmza79",188,"20.csv","","null","resources/maskTrios/L1BB.jpg","null","",NA,NA,NA,NA,""
"image-keyboard-response",308,479290,"0.0-4.98-2.98","b4zh0br00gmza79",188,"20.csv","","null","resources/images/fishbone.png","null","",NA,NA,NA,NA,""
"image-keyboard-response",309,479609,"0.0-4.99-0.99","b4zh0br00gmza79",188,"20.csv","","317","resources/trios/L1T2A3.jpg","39","restless",0.7,0.5,0.7,0.509299060278132,"true"
"image-keyboard-response",310,480015,"0.0-4.99-1.99","b4zh0br00gmza79",188,"20.csv","","null","resources/maskTrios/BBA3.jpg","null","",NA,NA,NA,NA,""
"image-keyboard-response",311,481222,"0.0-4.99-2.99","b4zh0br00gmza79",188,"20.csv","","null","resources/images/coin2.png","null","",NA,NA,NA,NA,""
"image-keyboard-response",312,484134,"0.0-4.100-0.100","b4zh0br00gmza79",188,"20.csv","","2907","resources/trios/L1T2A3.jpg","39","restless",0.7,0.5,0.7,0.162724472043424,"true"
"image-keyboard-response",313,484538,"0.0-4.100-1.100","b4zh0br00gmza79",188,"20.csv","","null","resources/maskTrios/BBA3.jpg","null","",NA,NA,NA,NA,""
"image-keyboard-response",314,485743,"0.0-4.100-2.100","b4zh0br00gmza79",188,"20.csv","","null","resources/images/coin2.png","null","",NA,NA,NA,NA,""
"image-keyboard-response",315,485875,"0.0-4.101-0.101","b4zh0br00gmza79",188,"20.csv","","130","resources/trios/L1T2A3.jpg","39","restless",0.7,0.5,0.7,0.504326975159732,"true"
"image-keyboard-response",316,486281,"0.0-4.101-1.101","b4zh0br00gmza79",188,"20.csv","","null","resources/maskTrios/BBA3.jpg","null","",NA,NA,NA,NA,""
"image-keyboard-response",317,487491,"0.0-4.101-2.101","b4zh0br00gmza79",188,"20.csv","","null","resources/images/coin2.png","null","",NA,NA,NA,NA,""
"image-keyboard-response",318,489044,"0.0-4.102-0.102","b4zh0br00gmza79",188,"20.csv","","1548","resources/trios/L1T2A3.jpg","39","restless",0.7,0.5,0.8,0.811811338632322,"false"
"image-keyboard-response",319,489496,"0.0-4.102-1.102","b4zh0br00gmza79",188,"20.csv","","null","resources/maskTrios/BBA3.jpg","null","",NA,NA,NA,NA,""
"image-keyboard-response",320,490700,"0.0-4.102-2.102","b4zh0br00gmza79",188,"20.csv","","null","resources/images/fishbone.png","null","",NA,NA,NA,NA,""
"image-keyboard-response",321,490764,"0.0-4.103-0.103","b4zh0br00gmza79",188,"20.csv","","64","resources/trios/L1T2A3.jpg","39","restless",0.7,0.5,0.7,0.814076319423284,"false"
"image-keyboard-response",322,491171,"0.0-4.103-1.103","b4zh0br00gmza79",188,"20.csv","","null","resources/maskTrios/BBA3.jpg","null","",NA,NA,NA,NA,""
"image-keyboard-response",323,492495,"0.0-4.103-2.103","b4zh0br00gmza79",188,"20.csv","","null","resources/images/fishbone.png","null","",NA,NA,NA,NA,""
"image-keyboard-response",324,492667,"0.0-4.104-0.104","b4zh0br00gmza79",188,"20.csv","","170","resources/trios/L1T2A3.jpg","37","restless",0.7,0.5,0.7,0.212294494163235,"true"
"image-keyboard-response",325,493077,"0.0-4.104-1.104","b4zh0br00gmza79",188,"20.csv","","null","resources/maskTrios/L1BB.jpg","null","",NA,NA,NA,NA,""
"image-keyboard-response",326,494283,"0.0-4.104-2.104","b4zh0br00gmza79",188,"20.csv","","null","resources/images/coin2.png","null","",NA,NA,NA,NA,""
"image-keyboard-response",327,494569,"0.0-4.105-0.105","b4zh0br00gmza79",188,"20.csv","","283","resources/trios/L1T2A3.jpg","38","restless",0.7,0.5,0.7,0.491294246796525,"true"
"image-keyboard-response",328,494976,"0.0-4.105-1.105","b4zh0br00gmza79",188,"20.csv","","null","resources/maskTrios/BT2B.jpg","null","",NA,NA,NA,NA,""
"image-keyboard-response",329,496180,"0.0-4.105-2.105","b4zh0br00gmza79",188,"20.csv","","null","resources/images/coin2.png","null","",NA,NA,NA,NA,""
"image-keyboard-response",330,496564,"0.0-4.106-0.106","b4zh0br00gmza79",188,"20.csv","","380","resources/trios/L1T2A3.jpg","38","restless",0.7,0.5,0.7,0.678887284156152,"false"
"image-keyboard-response",331,496979,"0.0-4.106-1.106","b4zh0br00gmza79",188,"20.csv","","null","resources/maskTrios/BT2B.jpg","null","",NA,NA,NA,NA,""
"image-keyboard-response",332,498189,"0.0-4.106-2.106","b4zh0br00gmza79",188,"20.csv","","null","resources/images/fishbone.png","null","",NA,NA,NA,NA,""
"image-keyboard-response",333,499143,"0.0-4.107-0.107","b4zh0br00gmza79",188,"20.csv","","953","resources/trios/L1T2A3.jpg","38","restless",0.7,0.5,0.7,0.237851847200238,"true"
"image-keyboard-response",334,499553,"0.0-4.107-1.107","b4zh0br00gmza79",188,"20.csv","","null","resources/maskTrios/BT2B.jpg","null","",NA,NA,NA,NA,""
"image-keyboard-response",335,500759,"0.0-4.107-2.107","b4zh0br00gmza79",188,"20.csv","","null","resources/images/coin2.png","null","",NA,NA,NA,NA,""
"image-keyboard-response",336,501235,"0.0-4.108-0.108","b4zh0br00gmza79",188,"20.csv","","475","resources/trios/L1T2A3.jpg","37","restless",0.7,0.5,0.7,0.389960472969076,"true"
"image-keyboard-response",337,501641,"0.0-4.108-1.108","b4zh0br00gmza79",188,"20.csv","","null","resources/maskTrios/L1BB.jpg","null","",NA,NA,NA,NA,""
"image-keyboard-response",338,502851,"0.0-4.108-2.108","b4zh0br00gmza79",188,"20.csv","","null","resources/images/coin2.png","null","",NA,NA,NA,NA,""
"image-keyboard-response",339,503115,"0.0-4.109-0.109","b4zh0br00gmza79",188,"20.csv","","263","resources/trios/L1T2A3.jpg","38","restless",0.7,0.4,0.7,0.463374006837291,"false"
"image-keyboard-response",340,503519,"0.0-4.109-1.109","b4zh0br00gmza79",188,"20.csv","","null","resources/maskTrios/BT2B.jpg","null","",NA,NA,NA,NA,""
"image-keyboard-response",341,504724,"0.0-4.109-2.109","b4zh0br00gmza79",188,"20.csv","","null","resources/images/fishbone.png","null","",NA,NA,NA,NA,""
"image-keyboard-response",342,504758,"0.0-4.110-0.110","b4zh0br00gmza79",188,"20.csv","","32","resources/trios/L1T2A3.jpg","37","restless",0.7,0.4,0.7,0.461993728232629,"true"
"image-keyboard-response",343,505164,"0.0-4.110-1.110","b4zh0br00gmza79",188,"20.csv","","null","resources/maskTrios/L1BB.jpg","null","",NA,NA,NA,NA,""
"image-keyboard-response",344,506370,"0.0-4.110-2.110","b4zh0br00gmza79",188,"20.csv","","null","resources/images/coin2.png","null","",NA,NA,NA,NA,""
"image-keyboard-response",345,506427,"0.0-4.111-0.111","b4zh0br00gmza79",188,"20.csv","","56","resources/trios/L1T2A3.jpg","38","restless",0.7,0.4,0.7,0.187265904743913,"true"
"image-keyboard-response",346,506834,"0.0-4.111-1.111","b4zh0br00gmza79",188,"20.csv","","null","resources/maskTrios/BT2B.jpg","null","",NA,NA,NA,NA,""
"image-keyboard-response",347,508037,"0.0-4.111-2.111","b4zh0br00gmza79",188,"20.csv","","null","resources/images/coin2.png","null","",NA,NA,NA,NA,""
"image-keyboard-response",348,508074,"0.0-4.112-0.112","b4zh0br00gmza79",188,"20.csv","","36","resources/trios/L1T2A3.jpg","38","restless",0.7,0.4,0.6,0.0192314920167206,"true"
"image-keyboard-response",349,508482,"0.0-4.112-1.112","b4zh0br00gmza79",188,"20.csv","","null","resources/maskTrios/BT2B.jpg","null","",NA,NA,NA,NA,""
"image-keyboard-response",350,509689,"0.0-4.112-2.112","b4zh0br00gmza79",188,"20.csv","","null","resources/images/coin2.png","null","",NA,NA,NA,NA,""
"image-keyboard-response",351,510310,"0.0-4.113-0.113","b4zh0br00gmza79",188,"20.csv","","619","resources/trios/L1T2A3.jpg","37","restless",0.7,0.4,0.5,0.329383779985849,"true"
"image-keyboard-response",352,510716,"0.0-4.113-1.113","b4zh0br00gmza79",188,"20.csv","","null","resources/maskTrios/L1BB.jpg","null","",NA,NA,NA,NA,""
"image-keyboard-response",353,511922,"0.0-4.113-2.113","b4zh0br00gmza79",188,"20.csv","","null","resources/images/coin2.png","null","",NA,NA,NA,NA,""
"image-keyboard-response",354,512028,"0.0-4.114-0.114","b4zh0br00gmza79",188,"20.csv","","105","resources/trios/L1T2A3.jpg","38","restless",0.7,0.3,0.5,0.467145835004172,"false"
"image-keyboard-response",355,512434,"0.0-4.114-1.114","b4zh0br00gmza79",188,"20.csv","","null","resources/maskTrios/BT2B.jpg","null","",NA,NA,NA,NA,""
"image-keyboard-response",356,513642,"0.0-4.114-2.114","b4zh0br00gmza79",188,"20.csv","","null","resources/images/fishbone.png","null","",NA,NA,NA,NA,""
"image-keyboard-response",357,513820,"0.0-4.115-0.115","b4zh0br00gmza79",188,"20.csv","","176","resources/trios/L1T2A3.jpg","37","restless",0.7,0.4,0.5,0.310334691373966,"true"
"image-keyboard-response",358,514226,"0.0-4.115-1.115","b4zh0br00gmza79",188,"20.csv","","null","resources/maskTrios/L1BB.jpg","null","",NA,NA,NA,NA,""
"image-keyboard-response",359,515434,"0.0-4.115-2.115","b4zh0br00gmza79",188,"20.csv","","null","resources/images/coin2.png","null","",NA,NA,NA,NA,""
"image-keyboard-response",360,515684,"0.0-4.116-0.116","b4zh0br00gmza79",188,"20.csv","","250","resources/trios/L1T2A3.jpg","38","restless",0.7,0.4,0.5,0.707169915295685,"false"
"image-keyboard-response",361,516094,"0.0-4.116-1.116","b4zh0br00gmza79",188,"20.csv","","null","resources/maskTrios/BT2B.jpg","null","",NA,NA,NA,NA,""
"image-keyboard-response",362,517300,"0.0-4.116-2.116","b4zh0br00gmza79",188,"20.csv","","null","resources/images/fishbone.png","null","",NA,NA,NA,NA,""
"image-keyboard-response",363,517390,"0.0-4.117-0.117","b4zh0br00gmza79",188,"20.csv","","88","resources/trios/L1T2A3.jpg","37","restless",0.7,0.4,0.5,0.53313092552014,"true"
"image-keyboard-response",364,517792,"0.0-4.117-1.117","b4zh0br00gmza79",188,"20.csv","","null","resources/maskTrios/L1BB.jpg","null","",NA,NA,NA,NA,""
"image-keyboard-response",365,519000,"0.0-4.117-2.117","b4zh0br00gmza79",188,"20.csv","","null","resources/images/coin2.png","null","",NA,NA,NA,NA,""
"image-keyboard-response",366,519953,"0.0-4.118-0.118","b4zh0br00gmza79",188,"20.csv","","952","resources/trios/L1T2A3.jpg","37","restless",0.8,0.4,0.5,0.260900081881636,"true"
"image-keyboard-response",367,520361,"0.0-4.118-1.118","b4zh0br00gmza79",188,"20.csv","","null","resources/maskTrios/L1BB.jpg","null","",NA,NA,NA,NA,""
"image-keyboard-response",368,521566,"0.0-4.118-2.118","b4zh0br00gmza79",188,"20.csv","","null","resources/images/coin2.png","null","",NA,NA,NA,NA,""
"image-keyboard-response",369,521792,"0.0-4.119-0.119","b4zh0br00gmza79",188,"20.csv","","224","resources/trios/L1T2A3.jpg","38","restless",0.8,0.4,0.5,0.138146759227716,"true"
"image-keyboard-response",370,522199,"0.0-4.119-1.119","b4zh0br00gmza79",188,"20.csv","","null","resources/maskTrios/BT2B.jpg","null","",NA,NA,NA,NA,""
"image-keyboard-response",371,523409,"0.0-4.119-2.119","b4zh0br00gmza79",188,"20.csv","","null","resources/images/coin2.png","null","",NA,NA,NA,NA,""
"image-keyboard-response",372,523418,"0.0-4.120-0.120","b4zh0br00gmza79",188,"20.csv","","8","resources/trios/L1T2A3.jpg","37","restless",0.8,0.4,0.5,0.129679027480643,"true"
"image-keyboard-response",373,523826,"0.0-4.120-1.120","b4zh0br00gmza79",188,"20.csv","","null","resources/maskTrios/L1BB.jpg","null","",NA,NA,NA,NA,""
"image-keyboard-response",374,525030,"0.0-4.120-2.120","b4zh0br00gmza79",188,"20.csv","","null","resources/images/coin2.png","null","",NA,NA,NA,NA,""
"image-keyboard-response",375,525448,"0.0-4.121-0.121","b4zh0br00gmza79",188,"20.csv","","418","resources/trios/L1T2A3.jpg","38","restless",0.8,0.4,0.5,0.347959518248449,"true"
"image-keyboard-response",376,525855,"0.0-4.121-1.121","b4zh0br00gmza79",188,"20.csv","","null","resources/maskTrios/BT2B.jpg","null","",NA,NA,NA,NA,""
"image-keyboard-response",377,527061,"0.0-4.121-2.121","b4zh0br00gmza79",188,"20.csv","","null","resources/images/coin2.png","null","",NA,NA,NA,NA,""
"image-keyboard-response",378,527502,"0.0-4.122-0.122","b4zh0br00gmza79",188,"20.csv","","439","resources/trios/L1T2A3.jpg","37","restless",0.8,0.3,0.5,0.281535748672481,"true"
"image-keyboard-response",379,527908,"0.0-4.122-1.122","b4zh0br00gmza79",188,"20.csv","","null","resources/maskTrios/L1BB.jpg","null","",NA,NA,NA,NA,""
"image-keyboard-response",380,529116,"0.0-4.122-2.122","b4zh0br00gmza79",188,"20.csv","","null","resources/images/coin2.png","null","",NA,NA,NA,NA,""
"image-keyboard-response",381,530671,"0.0-4.123-0.123","b4zh0br00gmza79",188,"20.csv","","1553","resources/trios/L1T2A3.jpg","37","restless",0.8,0.3,0.5,0.696943607147355,"true"
"image-keyboard-response",382,531078,"0.0-4.123-1.123","b4zh0br00gmza79",188,"20.csv","","null","resources/maskTrios/L1BB.jpg","null","",NA,NA,NA,NA,""
"image-keyboard-response",383,532284,"0.0-4.123-2.123","b4zh0br00gmza79",188,"20.csv","","null","resources/images/coin2.png","null","",NA,NA,NA,NA,""
"image-keyboard-response",384,532950,"0.0-4.124-0.124","b4zh0br00gmza79",188,"20.csv","","667","resources/trios/L1T2A3.jpg","37","restless",0.8,0.3,0.5,0.784167133242479,"true"
"image-keyboard-response",385,533359,"0.0-4.124-1.124","b4zh0br00gmza79",188,"20.csv","","null","resources/maskTrios/L1BB.jpg","null","",NA,NA,NA,NA,""
"image-keyboard-response",386,534567,"0.0-4.124-2.124","b4zh0br00gmza79",188,"20.csv","","null","resources/images/coin2.png","null","",NA,NA,NA,NA,""
"image-keyboard-response",387,534725,"0.0-4.125-0.125","b4zh0br00gmza79",188,"20.csv","","157","resources/trios/L1T2A3.jpg","37","restless",0.8,0.3,0.6,0.67134437492941,"true"
"image-keyboard-response",388,535133,"0.0-4.125-1.125","b4zh0br00gmza79",188,"20.csv","","null","resources/maskTrios/L1BB.jpg","null","",NA,NA,NA,NA,""
"image-keyboard-response",389,536338,"0.0-4.125-2.125","b4zh0br00gmza79",188,"20.csv","","null","resources/images/coin2.png","null","",NA,NA,NA,NA,""
"image-keyboard-response",390,536606,"0.0-4.126-0.126","b4zh0br00gmza79",188,"20.csv","","267","resources/trios/L1T2A3.jpg","38","restless",0.8,0.3,0.6,0.991503439057983,"false"
"image-keyboard-response",391,537013,"0.0-4.126-1.126","b4zh0br00gmza79",188,"20.csv","","null","resources/maskTrios/BT2B.jpg","null","",NA,NA,NA,NA,""
"image-keyboard-response",392,538344,"0.0-4.126-2.126","b4zh0br00gmza79",188,"20.csv","","null","resources/images/fishbone.png","null","",NA,NA,NA,NA,""
"image-keyboard-response",393,539655,"0.0-4.127-0.127","b4zh0br00gmza79",188,"20.csv","","1311","resources/trios/L1T2A3.jpg","37","restless",0.8,0.2,0.6,0.986222621447044,"false"
"image-keyboard-response",394,540059,"0.0-4.127-1.127","b4zh0br00gmza79",188,"20.csv","","null","resources/maskTrios/L1BB.jpg","null","",NA,NA,NA,NA,""
"image-keyboard-response",395,541267,"0.0-4.127-2.127","b4zh0br00gmza79",188,"20.csv","","null","resources/images/fishbone.png","null","",NA,NA,NA,NA,""
"image-keyboard-response",396,541837,"0.0-4.128-0.128","b4zh0br00gmza79",188,"20.csv","","568","resources/trios/L1T2A3.jpg","39","restless",0.7,0.2,0.6,0.715640290447635,"false"
"image-keyboard-response",397,542240,"0.0-4.128-1.128","b4zh0br00gmza79",188,"20.csv","","null","resources/maskTrios/BBA3.jpg","null","",NA,NA,NA,NA,""
"image-keyboard-response",398,543441,"0.0-4.128-2.128","b4zh0br00gmza79",188,"20.csv","","null","resources/images/fishbone.png","null","",NA,NA,NA,NA,""
"image-keyboard-response",399,545489,"0.0-4.129-0.129","b4zh0br00gmza79",188,"20.csv","","2040","resources/trios/L1T2A3.jpg","38","restless",0.7,0.2,0.6,0.994226563165469,"false"
"image-keyboard-response",400,545890,"0.0-4.129-1.129","b4zh0br00gmza79",188,"20.csv","","null","resources/maskTrios/BT2B.jpg","null","",NA,NA,NA,NA,""
"image-keyboard-response",401,547096,"0.0-4.129-2.129","b4zh0br00gmza79",188,"20.csv","","null","resources/images/fishbone.png","null","",NA,NA,NA,NA,""
"image-keyboard-response",402,547141,"0.0-4.130-0.130","b4zh0br00gmza79",188,"20.csv","","42","resources/trios/L1T2A3.jpg","37","restless",0.7,0.2,0.5,0.96935091697723,"false"
"image-keyboard-response",403,547545,"0.0-4.130-1.130","b4zh0br00gmza79",188,"20.csv","","null","resources/maskTrios/L1BB.jpg","null","",NA,NA,NA,NA,""
"image-keyboard-response",404,548753,"0.0-4.130-2.130","b4zh0br00gmza79",188,"20.csv","","null","resources/images/fishbone.png","null","",NA,NA,NA,NA,""
"image-keyboard-response",405,548857,"0.0-4.131-0.131","b4zh0br00gmza79",188,"20.csv","","100","resources/trios/L1T2A3.jpg","37","restless",0.7,0.2,0.5,0.925536708159723,"false"
"image-keyboard-response",406,549262,"0.0-4.131-1.131","b4zh0br00gmza79",188,"20.csv","","null","resources/maskTrios/L1BB.jpg","null","",NA,NA,NA,NA,""
"image-keyboard-response",407,550465,"0.0-4.131-2.131","b4zh0br00gmza79",188,"20.csv","","null","resources/images/fishbone.png","null","",NA,NA,NA,NA,""
"image-keyboard-response",408,550714,"0.0-4.132-0.132","b4zh0br00gmza79",188,"20.csv","","246","resources/trios/L1T2A3.jpg","37","restless",0.7,0.2,0.5,0.26262693318454,"true"
"image-keyboard-response",409,551120,"0.0-4.132-1.132","b4zh0br00gmza79",188,"20.csv","","null","resources/maskTrios/L1BB.jpg","null","",NA,NA,NA,NA,""
"image-keyboard-response",410,552466,"0.0-4.132-2.132","b4zh0br00gmza79",188,"20.csv","","null","resources/images/coin2.png","null","",NA,NA,NA,NA,""
"image-keyboard-response",411,552696,"0.0-4.133-0.133","b4zh0br00gmza79",188,"20.csv","","229","resources/trios/L1T2A3.jpg","37","restless",0.7,0.2,0.5,0.306877542896752,"true"
"image-keyboard-response",412,553102,"0.0-4.133-1.133","b4zh0br00gmza79",188,"20.csv","","null","resources/maskTrios/L1BB.jpg","null","",NA,NA,NA,NA,""
"image-keyboard-response",413,554303,"0.0-4.133-2.133","b4zh0br00gmza79",188,"20.csv","","null","resources/images/coin2.png","null","",NA,NA,NA,NA,""
"image-keyboard-response",414,554686,"0.0-4.134-0.134","b4zh0br00gmza79",188,"20.csv","","381","resources/trios/L1T2A3.jpg","37","restless",0.7,0.2,0.5,0.826064457185193,"false"
"image-keyboard-response",415,555092,"0.0-4.134-1.134","b4zh0br00gmza79",188,"20.csv","","null","resources/maskTrios/L1BB.jpg","null","",NA,NA,NA,NA,""
"image-keyboard-response",416,556296,"0.0-4.134-2.134","b4zh0br00gmza79",188,"20.csv","","null","resources/images/fishbone.png","null","",NA,NA,NA,NA,""
"image-keyboard-response",417,556765,"0.0-4.135-0.135","b4zh0br00gmza79",188,"20.csv","","468","resources/trios/L1T2A3.jpg","38","restless",0.7,0.2,0.4,0.134215780359907,"true"
"image-keyboard-response",418,557174,"0.0-4.135-1.135","b4zh0br00gmza79",188,"20.csv","","null","resources/maskTrios/BT2B.jpg","null","",NA,NA,NA,NA,""
"image-keyboard-response",419,558392,"0.0-4.135-2.135","b4zh0br00gmza79",188,"20.csv","","null","resources/images/coin2.png","null","",NA,NA,NA,NA,""
"image-keyboard-response",420,558705,"0.0-4.136-0.136","b4zh0br00gmza79",188,"20.csv","","311","resources/trios/L1T2A3.jpg","37","restless",0.7,0.2,0.4,0.360515050546487,"true"
"image-keyboard-response",421,559111,"0.0-4.136-1.136","b4zh0br00gmza79",188,"20.csv","","null","resources/maskTrios/L1BB.jpg","null","",NA,NA,NA,NA,""
"image-keyboard-response",422,560318,"0.0-4.136-2.136","b4zh0br00gmza79",188,"20.csv","","null","resources/images/coin2.png","null","",NA,NA,NA,NA,""
"image-keyboard-response",423,560799,"0.0-4.137-0.137","b4zh0br00gmza79",188,"20.csv","","478","resources/trios/L1T2A3.jpg","38","restless",0.7,0.2,0.4,0.167084034641424,"true"
"image-keyboard-response",424,561206,"0.0-4.137-1.137","b4zh0br00gmza79",188,"20.csv","","null","resources/maskTrios/BT2B.jpg","null","",NA,NA,NA,NA,""
"image-keyboard-response",425,562411,"0.0-4.137-2.137","b4zh0br00gmza79",188,"20.csv","","null","resources/images/coin2.png","null","",NA,NA,NA,NA,""
"image-keyboard-response",426,563003,"0.0-4.138-0.138","b4zh0br00gmza79",188,"20.csv","","591","resources/trios/L1T2A3.jpg","37","restless",0.7,0.2,0.4,0.00279726810445591,"true"
"image-keyboard-response",427,563404,"0.0-4.138-1.138","b4zh0br00gmza79",188,"20.csv","","null","resources/maskTrios/L1BB.jpg","null","",NA,NA,NA,NA,""
"image-keyboard-response",428,564609,"0.0-4.138-2.138","b4zh0br00gmza79",188,"20.csv","","null","resources/images/coin2.png","null","",NA,NA,NA,NA,""
"image-keyboard-response",429,564728,"0.0-4.139-0.139","b4zh0br00gmza79",188,"20.csv","","118","resources/trios/L1T2A3.jpg","38","restless",0.7,0.2,0.4,0.20259959930489,"false"
"image-keyboard-response",430,565135,"0.0-4.139-1.139","b4zh0br00gmza79",188,"20.csv","","null","resources/maskTrios/BT2B.jpg","null","",NA,NA,NA,NA,""
"image-keyboard-response",431,566340,"0.0-4.139-2.139","b4zh0br00gmza79",188,"20.csv","","null","resources/images/fishbone.png","null","",NA,NA,NA,NA,""
"image-keyboard-response",432,566778,"0.0-4.140-0.140","b4zh0br00gmza79",188,"20.csv","","438","resources/trios/L1T2A3.jpg","37","restless",0.7,0.2,0.4,0.525913899823138,"true"
"image-keyboard-response",433,567181,"0.0-4.140-1.140","b4zh0br00gmza79",188,"20.csv","","null","resources/maskTrios/L1BB.jpg","null","",NA,NA,NA,NA,""
"image-keyboard-response",434,568389,"0.0-4.140-2.140","b4zh0br00gmza79",188,"20.csv","","null","resources/images/coin2.png","null","",NA,NA,NA,NA,""
"image-keyboard-response",435,568788,"0.0-4.141-0.141","b4zh0br00gmza79",188,"20.csv","","393","resources/trios/L1T2A3.jpg","38","restless",0.7,0.2,0.4,0.470585528336581,"false"
"image-keyboard-response",436,569192,"0.0-4.141-1.141","b4zh0br00gmza79",188,"20.csv","","null","resources/maskTrios/BT2B.jpg","null","",NA,NA,NA,NA,""
"image-keyboard-response",437,570401,"0.0-4.141-2.141","b4zh0br00gmza79",188,"20.csv","","null","resources/images/fishbone.png","null","",NA,NA,NA,NA,""
"image-keyboard-response",438,570701,"0.0-4.142-0.142","b4zh0br00gmza79",188,"20.csv","","294","resources/trios/L1T2A3.jpg","37","restless",0.7,0.2,0.4,0.482560548090904,"true"
"image-keyboard-response",439,571108,"0.0-4.142-1.142","b4zh0br00gmza79",188,"20.csv","","null","resources/maskTrios/L1BB.jpg","null","",NA,NA,NA,NA,""
"image-keyboard-response",440,572313,"0.0-4.142-2.142","b4zh0br00gmza79",188,"20.csv","","null","resources/images/coin2.png","null","",NA,NA,NA,NA,""
"image-keyboard-response",441,572476,"0.0-4.143-0.143","b4zh0br00gmza79",188,"20.csv","","159","resources/trios/L1T2A3.jpg","37","restless",0.7,0.2,0.4,0.631372745541426,"true"
"image-keyboard-response",442,572879,"0.0-4.143-1.143","b4zh0br00gmza79",188,"20.csv","","null","resources/maskTrios/L1BB.jpg","null","",NA,NA,NA,NA,""
"image-keyboard-response",443,574083,"0.0-4.143-2.143","b4zh0br00gmza79",188,"20.csv","","null","resources/images/coin2.png","null","",NA,NA,NA,NA,""
"image-keyboard-response",444,574673,"0.0-4.144-0.144","b4zh0br00gmza79",188,"20.csv","","589","resources/trios/L1T2A3.jpg","37","restless",0.6,0.2,0.4,0.761560565165788,"false"
"image-keyboard-response",445,575077,"0.0-4.144-1.144","b4zh0br00gmza79",188,"20.csv","","null","resources/maskTrios/L1BB.jpg","null","",NA,NA,NA,NA,""
"image-keyboard-response",446,576283,"0.0-4.144-2.144","b4zh0br00gmza79",188,"20.csv","","null","resources/images/fishbone.png","null","",NA,NA,NA,NA,""
"image-keyboard-response",447,576542,"0.0-4.145-0.145","b4zh0br00gmza79",188,"20.csv","","257","resources/trios/L1T2A3.jpg","37","restless",0.6,0.2,0.4,0.0178897994159533,"true"
"image-keyboard-response",448,576949,"0.0-4.145-1.145","b4zh0br00gmza79",188,"20.csv","","null","resources/maskTrios/L1BB.jpg","null","",NA,NA,NA,NA,""
"image-keyboard-response",449,578288,"0.0-4.145-2.145","b4zh0br00gmza79",188,"20.csv","","null","resources/images/coin2.png","null","",NA,NA,NA,NA,""
"image-keyboard-response",450,578475,"0.0-4.146-0.146","b4zh0br00gmza79",188,"20.csv","","184","resources/trios/L1T2A3.jpg","38","restless",0.6,0.2,0.4,0.256397779604567,"false"
"image-keyboard-response",451,578883,"0.0-4.146-1.146","b4zh0br00gmza79",188,"20.csv","","null","resources/maskTrios/BT2B.jpg","null","",NA,NA,NA,NA,""
"image-keyboard-response",452,580084,"0.0-4.146-2.146","b4zh0br00gmza79",188,"20.csv","","null","resources/images/fishbone.png","null","",NA,NA,NA,NA,""
"image-keyboard-response",453,580531,"0.0-4.147-0.147","b4zh0br00gmza79",188,"20.csv","","446","resources/trios/L1T2A3.jpg","37","restless",0.5,0.2,0.4,0.0302269329488769,"true"
"image-keyboard-response",454,580933,"0.0-4.147-1.147","b4zh0br00gmza79",188,"20.csv","","null","resources/maskTrios/L1BB.jpg","null","",NA,NA,NA,NA,""
"image-keyboard-response",455,582140,"0.0-4.147-2.147","b4zh0br00gmza79",188,"20.csv","","null","resources/images/coin2.png","null","",NA,NA,NA,NA,""
"image-keyboard-response",456,583650,"0.0-4.148-0.148","b4zh0br00gmza79",188,"20.csv","","1509","resources/trios/L1T2A3.jpg","37","restless",0.5,0.3,0.4,0.516130104010306,"false"
"image-keyboard-response",457,584058,"0.0-4.148-1.148","b4zh0br00gmza79",188,"20.csv","","null","resources/maskTrios/L1BB.jpg","null","",NA,NA,NA,NA,""
"image-keyboard-response",458,585264,"0.0-4.148-2.148","b4zh0br00gmza79",188,"20.csv","","null","resources/images/fishbone.png","null","",NA,NA,NA,NA,""
"image-keyboard-response",459,585481,"0.0-4.149-0.149","b4zh0br00gmza79",188,"20.csv","","215","resources/trios/L1T2A3.jpg","38","restless",0.5,0.3,0.4,0.126314100422787,"true"
"image-keyboard-response",460,585887,"0.0-4.149-1.149","b4zh0br00gmza79",188,"20.csv","","null","resources/maskTrios/BT2B.jpg","null","",NA,NA,NA,NA,""
"image-keyboard-response",461,587094,"0.0-4.149-2.149","b4zh0br00gmza79",188,"20.csv","","null","resources/images/coin2.png","null","",NA,NA,NA,NA,""
"image-keyboard-response",462,587306,"0.0-4.150-0.150","b4zh0br00gmza79",188,"20.csv","","212","resources/trios/L1T2A3.jpg","39","restless",0.5,0.3,0.4,0.544256729300856,"false"
"image-keyboard-response",463,587712,"0.0-4.150-1.150","b4zh0br00gmza79",188,"20.csv","","null","resources/maskTrios/BBA3.jpg","null","",NA,NA,NA,NA,""
"image-keyboard-response",464,588916,"0.0-4.150-2.150","b4zh0br00gmza79",188,"20.csv","","null","resources/images/fishbone.png","null","",NA,NA,NA,NA,""
"image-keyboard-response",465,589359,"0.0-4.151-0.151","b4zh0br00gmza79",188,"20.csv","","442","resources/trios/L1T2A3.jpg","39","restless",0.5,0.3,0.4,0.049455795010765,"true"
"image-keyboard-response",466,589764,"0.0-4.151-1.151","b4zh0br00gmza79",188,"20.csv","","null","resources/maskTrios/BBA3.jpg","null","",NA,NA,NA,NA,""
"image-keyboard-response",467,590970,"0.0-4.151-2.151","b4zh0br00gmza79",188,"20.csv","","null","resources/images/coin2.png","null","",NA,NA,NA,NA,""
"image-keyboard-response",468,591073,"0.0-4.152-0.152","b4zh0br00gmza79",188,"20.csv","","103","resources/trios/L1T2A3.jpg","37","restless",0.5,0.3,0.4,0.228358443392497,"true"
"image-keyboard-response",469,591476,"0.0-4.152-1.152","b4zh0br00gmza79",188,"20.csv","","null","resources/maskTrios/L1BB.jpg","null","",NA,NA,NA,NA,""
"image-keyboard-response",470,592680,"0.0-4.152-2.152","b4zh0br00gmza79",188,"20.csv","","null","resources/images/coin2.png","null","",NA,NA,NA,NA,""
"image-keyboard-response",471,592970,"0.0-4.153-0.153","b4zh0br00gmza79",188,"20.csv","","289","resources/trios/L1T2A3.jpg","38","restless",0.5,0.3,0.4,0.57508792161369,"false"
"image-keyboard-response",472,593378,"0.0-4.153-1.153","b4zh0br00gmza79",188,"20.csv","","null","resources/maskTrios/BT2B.jpg","null","",NA,NA,NA,NA,""
"image-keyboard-response",473,594592,"0.0-4.153-2.153","b4zh0br00gmza79",188,"20.csv","","null","resources/images/fishbone.png","null","",NA,NA,NA,NA,""
"image-keyboard-response",474,594705,"0.0-4.154-0.154","b4zh0br00gmza79",188,"20.csv","","112","resources/trios/L1T2A3.jpg","37","restless",0.4,0.3,0.4,0.976689027543679,"false"
"image-keyboard-response",475,595110,"0.0-4.154-1.154","b4zh0br00gmza79",188,"20.csv","","null","resources/maskTrios/L1BB.jpg","null","",NA,NA,NA,NA,""
"image-keyboard-response",476,596316,"0.0-4.154-2.154","b4zh0br00gmza79",188,"20.csv","","null","resources/images/fishbone.png","null","",NA,NA,NA,NA,""
"image-keyboard-response",477,596643,"0.0-4.155-0.155","b4zh0br00gmza79",188,"20.csv","","326","resources/trios/L1T2A3.jpg","37","restless",0.4,0.3,0.4,0.50582558752541,"false"
"image-keyboard-response",478,597050,"0.0-4.155-1.155","b4zh0br00gmza79",188,"20.csv","","null","resources/maskTrios/L1BB.jpg","null","",NA,NA,NA,NA,""
"image-keyboard-response",479,598254,"0.0-4.155-2.155","b4zh0br00gmza79",188,"20.csv","","null","resources/images/fishbone.png","null","",NA,NA,NA,NA,""
"image-keyboard-response",480,600108,"0.0-4.156-0.156","b4zh0br00gmza79",188,"20.csv","","1854","resources/trios/L1T2A3.jpg","38","restless",0.4,0.3,0.4,0.85112970984609,"false"
"image-keyboard-response",481,600527,"0.0-4.156-1.156","b4zh0br00gmza79",188,"20.csv","","null","resources/maskTrios/BT2B.jpg","null","",NA,NA,NA,NA,""
"image-keyboard-response",482,601728,"0.0-4.156-2.156","b4zh0br00gmza79",188,"20.csv","","null","resources/images/fishbone.png","null","",NA,NA,NA,NA,""
"image-keyboard-response",483,603465,"0.0-4.157-0.157","b4zh0br00gmza79",188,"20.csv","","1737","resources/trios/L1T2A3.jpg","37","restless",0.4,0.4,0.4,0.139295719246696,"true"
"image-keyboard-response",484,603866,"0.0-4.157-1.157","b4zh0br00gmza79",188,"20.csv","","null","resources/maskTrios/L1BB.jpg","null","",NA,NA,NA,NA,""
"image-keyboard-response",485,605076,"0.0-4.157-2.157","b4zh0br00gmza79",188,"20.csv","","null","resources/images/coin2.png","null","",NA,NA,NA,NA,""
"image-keyboard-response",486,605406,"0.0-4.158-0.158","b4zh0br00gmza79",188,"20.csv","","325","resources/trios/L1T2A3.jpg","37","restless",0.4,0.4,0.4,0.0655107833452419,"true"
"image-keyboard-response",487,605813,"0.0-4.158-1.158","b4zh0br00gmza79",188,"20.csv","","null","resources/maskTrios/L1BB.jpg","null","",NA,NA,NA,NA,""
"image-keyboard-response",488,607019,"0.0-4.158-2.158","b4zh0br00gmza79",188,"20.csv","","null","resources/images/coin2.png","null","",NA,NA,NA,NA,""
"image-keyboard-response",489,607190,"0.0-4.159-0.159","b4zh0br00gmza79",188,"20.csv","","171","resources/trios/L1T2A3.jpg","39","restless",0.4,0.4,0.4,0.202407909380654,"true"
"image-keyboard-response",490,607597,"0.0-4.159-1.159","b4zh0br00gmza79",188,"20.csv","","null","resources/maskTrios/BBA3.jpg","null","",NA,NA,NA,NA,""
"image-keyboard-response",491,608803,"0.0-4.159-2.159","b4zh0br00gmza79",188,"20.csv","","null","resources/images/coin2.png","null","",NA,NA,NA,NA,""
"image-keyboard-response",492,608924,"0.0-4.160-0.160","b4zh0br00gmza79",188,"20.csv","","120","resources/trios/L1T2A3.jpg","37","restless",0.4,0.4,0.4,0.587304564016358,"false"
"image-keyboard-response",493,609346,"0.0-4.160-1.160","b4zh0br00gmza79",188,"20.csv","","null","resources/maskTrios/L1BB.jpg","null","",NA,NA,NA,NA,""
"image-keyboard-response",494,610547,"0.0-4.160-2.160","b4zh0br00gmza79",188,"20.csv","","null","resources/images/fishbone.png","null","",NA,NA,NA,NA,""
"image-keyboard-response",495,612301,"0.0-4.161-0.161","b4zh0br00gmza79",188,"20.csv","","1752","resources/trios/L1T2A3.jpg","38","restless",0.4,0.4,0.4,0.955856292074397,"false"
"image-keyboard-response",496,612705,"0.0-4.161-1.161","b4zh0br00gmza79",188,"20.csv","","null","resources/maskTrios/BT2B.jpg","null","",NA,NA,NA,NA,""
"image-keyboard-response",497,613911,"0.0-4.161-2.161","b4zh0br00gmza79",188,"20.csv","","null","resources/images/fishbone.png","null","",NA,NA,NA,NA,""
"image-keyboard-response",498,617191,"0.0-4.162-0.162","b4zh0br00gmza79",188,"20.csv","","3279","resources/trios/L1T2A3.jpg","38","restless",0.4,0.5,0.4,0.102245519881559,"true"
"image-keyboard-response",499,617601,"0.0-4.162-1.162","b4zh0br00gmza79",188,"20.csv","","null","resources/maskTrios/BT2B.jpg","null","",NA,NA,NA,NA,""
"image-keyboard-response",500,618807,"0.0-4.162-2.162","b4zh0br00gmza79",188,"20.csv","","null","resources/images/coin2.png","null","",NA,NA,NA,NA,""
"image-keyboard-response",501,620895,"0.0-4.163-0.163","b4zh0br00gmza79",188,"20.csv","","2087","resources/trios/L1T2A3.jpg","39","restless",0.4,0.5,0.4,0.715363875538375,"false"
"image-keyboard-response",502,621300,"0.0-4.163-1.163","b4zh0br00gmza79",188,"20.csv","","null","resources/maskTrios/BBA3.jpg","null","",NA,NA,NA,NA,""
"image-keyboard-response",503,622508,"0.0-4.163-2.163","b4zh0br00gmza79",188,"20.csv","","null","resources/images/fishbone.png","null","",NA,NA,NA,NA,""
"image-keyboard-response",504,622572,"0.0-4.164-0.164","b4zh0br00gmza79",188,"20.csv","","63","resources/trios/L1T2A3.jpg","37","restless",0.4,0.6,0.4,0.0225536601913807,"true"
"image-keyboard-response",505,622973,"0.0-4.164-1.164","b4zh0br00gmza79",188,"20.csv","","null","resources/maskTrios/L1BB.jpg","null","",NA,NA,NA,NA,""
"image-keyboard-response",506,624178,"0.0-4.164-2.164","b4zh0br00gmza79",188,"20.csv","","null","resources/images/coin2.png","null","",NA,NA,NA,NA,""
"image-keyboard-response",507,624937,"0.0-4.165-0.165","b4zh0br00gmza79",188,"20.csv","","756","resources/trios/L1T2A3.jpg","37","restless",0.4,0.6,0.4,0.4121980695481,"false"
"image-keyboard-response",508,625341,"0.0-4.165-1.165","b4zh0br00gmza79",188,"20.csv","","null","resources/maskTrios/L1BB.jpg","null","",NA,NA,NA,NA,""
"image-keyboard-response",509,626546,"0.0-4.165-2.165","b4zh0br00gmza79",188,"20.csv","","null","resources/images/fishbone.png","null","",NA,NA,NA,NA,""
"image-keyboard-response",510,627370,"0.0-4.166-0.166","b4zh0br00gmza79",188,"20.csv","","824","resources/trios/L1T2A3.jpg","37","restless",0.4,0.6,0.4,0.755975069752826,"false"
"image-keyboard-response",511,627772,"0.0-4.166-1.166","b4zh0br00gmza79",188,"20.csv","","null","resources/maskTrios/L1BB.jpg","null","",NA,NA,NA,NA,""
"image-keyboard-response",512,628980,"0.0-4.166-2.166","b4zh0br00gmza79",188,"20.csv","","null","resources/images/fishbone.png","null","",NA,NA,NA,NA,""
"image-keyboard-response",513,629036,"0.0-4.167-0.167","b4zh0br00gmza79",188,"20.csv","","54","resources/trios/L1T2A3.jpg","37","restless",0.4,0.6,0.4,0.371067620859507,"true"
"image-keyboard-response",514,629442,"0.0-4.167-1.167","b4zh0br00gmza79",188,"20.csv","","null","resources/maskTrios/L1BB.jpg","null","",NA,NA,NA,NA,""
"image-keyboard-response",515,630644,"0.0-4.167-2.167","b4zh0br00gmza79",188,"20.csv","","null","resources/images/coin2.png","null","",NA,NA,NA,NA,""
"image-keyboard-response",516,631852,"0.0-4.168-0.168","b4zh0br00gmza79",188,"20.csv","","1207","resources/trios/L1T2A3.jpg","37","restless",0.5,0.6,0.4,0.283277529139687,"true"
"image-keyboard-response",517,632258,"0.0-4.168-1.168","b4zh0br00gmza79",188,"20.csv","","null","resources/maskTrios/L1BB.jpg","null","",NA,NA,NA,NA,""
"image-keyboard-response",518,633464,"0.0-4.168-2.168","b4zh0br00gmza79",188,"20.csv","","null","resources/images/coin2.png","null","",NA,NA,NA,NA,""
"image-keyboard-response",519,633741,"0.0-4.169-0.169","b4zh0br00gmza79",188,"20.csv","","276","resources/trios/L1T2A3.jpg","37","restless",0.5,0.6,0.4,0.639228919193268,"false"
"image-keyboard-response",520,634147,"0.0-4.169-1.169","b4zh0br00gmza79",188,"20.csv","","null","resources/maskTrios/L1BB.jpg","null","",NA,NA,NA,NA,""
"image-keyboard-response",521,635353,"0.0-4.169-2.169","b4zh0br00gmza79",188,"20.csv","","null","resources/images/fishbone.png","null","",NA,NA,NA,NA,""
"image-keyboard-response",522,636886,"0.0-4.170-0.170","b4zh0br00gmza79",188,"20.csv","","1531","resources/trios/L1T2A3.jpg","37","restless",0.5,0.6,0.4,0.962850745702808,"false"
"image-keyboard-response",523,637297,"0.0-4.170-1.170","b4zh0br00gmza79",188,"20.csv","","null","resources/maskTrios/L1BB.jpg","null","",NA,NA,NA,NA,""
"image-keyboard-response",524,638504,"0.0-4.170-2.170","b4zh0br00gmza79",188,"20.csv","","null","resources/images/fishbone.png","null","",NA,NA,NA,NA,""
"image-keyboard-response",525,639994,"0.0-4.171-0.171","b4zh0br00gmza79",188,"20.csv","","1488","resources/trios/L1T2A3.jpg","39","restless",0.5,0.6,0.3,0.523282355844078,"false"
"image-keyboard-response",526,640404,"0.0-4.171-1.171","b4zh0br00gmza79",188,"20.csv","","null","resources/maskTrios/BBA3.jpg","null","",NA,NA,NA,NA,""
"image-keyboard-response",527,641606,"0.0-4.171-2.171","b4zh0br00gmza79",188,"20.csv","","null","resources/images/fishbone.png","null","",NA,NA,NA,NA,""
"image-keyboard-response",528,642063,"0.0-4.172-0.172","b4zh0br00gmza79",188,"20.csv","","454","resources/trios/L1T2A3.jpg","37","restless",0.5,0.6,0.3,0.287901068725151,"true"
"image-keyboard-response",529,642473,"0.0-4.172-1.172","b4zh0br00gmza79",188,"20.csv","","null","resources/maskTrios/L1BB.jpg","null","",NA,NA,NA,NA,""
"image-keyboard-response",530,643678,"0.0-4.172-2.172","b4zh0br00gmza79",188,"20.csv","","null","resources/images/coin2.png","null","",NA,NA,NA,NA,""
"image-keyboard-response",531,643818,"0.0-4.173-0.173","b4zh0br00gmza79",188,"20.csv","","139","resources/trios/L1T2A3.jpg","38","restless",0.5,0.6,0.3,0.0659158751915934,"true"
"image-keyboard-response",532,644227,"0.0-4.173-1.173","b4zh0br00gmza79",188,"20.csv","","null","resources/maskTrios/BT2B.jpg","null","",NA,NA,NA,NA,""
"image-keyboard-response",533,645436,"0.0-4.173-2.173","b4zh0br00gmza79",188,"20.csv","","null","resources/images/coin2.png","null","",NA,NA,NA,NA,""
"image-keyboard-response",534,645956,"0.0-4.174-0.174","b4zh0br00gmza79",188,"20.csv","","517","resources/trios/L1T2A3.jpg","39","restless",0.5,0.6,0.3,0.592643166969338,"false"
"image-keyboard-response",535,646363,"0.0-4.174-1.174","b4zh0br00gmza79",188,"20.csv","","null","resources/maskTrios/BBA3.jpg","null","",NA,NA,NA,NA,""
"image-keyboard-response",536,647566,"0.0-4.174-2.174","b4zh0br00gmza79",188,"20.csv","","null","resources/images/fishbone.png","null","",NA,NA,NA,NA,""
"image-keyboard-response",537,647835,"0.0-4.175-0.175","b4zh0br00gmza79",188,"20.csv","","267","resources/trios/L1T2A3.jpg","37","restless",0.5,0.6,0.3,0.237782563331283,"true"
"image-keyboard-response",538,648244,"0.0-4.175-1.175","b4zh0br00gmza79",188,"20.csv","","null","resources/maskTrios/L1BB.jpg","null","",NA,NA,NA,NA,""
"image-keyboard-response",539,649527,"0.0-4.175-2.175","b4zh0br00gmza79",188,"20.csv","","null","resources/images/coin2.png","null","",NA,NA,NA,NA,""
"image-keyboard-response",540,649897,"0.0-4.176-0.176","b4zh0br00gmza79",188,"20.csv","","368","resources/trios/L1T2A3.jpg","37","restless",0.5,0.6,0.3,0.882416930945294,"false"
"image-keyboard-response",541,650300,"0.0-4.176-1.176","b4zh0br00gmza79",188,"20.csv","","null","resources/maskTrios/L1BB.jpg","null","",NA,NA,NA,NA,""
"image-keyboard-response",542,651507,"0.0-4.176-2.176","b4zh0br00gmza79",188,"20.csv","","null","resources/images/fishbone.png","null","",NA,NA,NA,NA,""
"image-keyboard-response",543,652985,"0.0-4.177-0.177","b4zh0br00gmza79",188,"20.csv","","1474","resources/trios/L1T2A3.jpg","37","restless",0.5,0.6,0.3,0.290265318014757,"true"
"image-keyboard-response",544,653389,"0.0-4.177-1.177","b4zh0br00gmza79",188,"20.csv","","null","resources/maskTrios/L1BB.jpg","null","",NA,NA,NA,NA,""
"image-keyboard-response",545,654595,"0.0-4.177-2.177","b4zh0br00gmza79",188,"20.csv","","null","resources/images/coin2.png","null","",NA,NA,NA,NA,""
"image-keyboard-response",546,655167,"0.0-4.178-0.178","b4zh0br00gmza79",188,"20.csv","","570","resources/trios/L1T2A3.jpg","38","restless",0.6,0.6,0.3,0.100995389879016,"true"
"image-keyboard-response",547,655573,"0.0-4.178-1.178","b4zh0br00gmza79",188,"20.csv","","null","resources/maskTrios/BT2B.jpg","null","",NA,NA,NA,NA,""
"image-keyboard-response",548,656785,"0.0-4.178-2.178","b4zh0br00gmza79",188,"20.csv","","null","resources/images/coin2.png","null","",NA,NA,NA,NA,""
"image-keyboard-response",549,657823,"0.0-4.179-0.179","b4zh0br00gmza79",188,"20.csv","","1036","resources/trios/L1T2A3.jpg","37","restless",0.6,0.6,0.3,0.0662372752509692,"true"
"image-keyboard-response",550,658228,"0.0-4.179-1.179","b4zh0br00gmza79",188,"20.csv","","null","resources/maskTrios/L1BB.jpg","null","",NA,NA,NA,NA,""
"image-keyboard-response",551,659432,"0.0-4.179-2.179","b4zh0br00gmza79",188,"20.csv","","null","resources/images/coin2.png","null","",NA,NA,NA,NA,""
"image-keyboard-response",552,660309,"0.0-4.180-0.180","b4zh0br00gmza79",188,"20.csv","","877","resources/trios/L1T2A3.jpg","37","restless",0.6,0.6,0.3,0.432603691271388,"true"
"image-keyboard-response",553,660713,"0.0-4.180-1.180","b4zh0br00gmza79",188,"20.csv","","null","resources/maskTrios/L1BB.jpg","null","",NA,NA,NA,NA,""
"image-keyboard-response",554,661917,"0.0-4.180-2.180","b4zh0br00gmza79",188,"20.csv","","null","resources/images/coin2.png","null","",NA,NA,NA,NA,""
"image-keyboard-response",555,662433,"0.0-4.181-0.181","b4zh0br00gmza79",188,"20.csv","","515","resources/trios/L1T2A3.jpg","39","restless",0.6,0.6,0.3,0.910235963664196,"false"
"image-keyboard-response",556,662839,"0.0-4.181-1.181","b4zh0br00gmza79",188,"20.csv","","null","resources/maskTrios/BBA3.jpg","null","",NA,NA,NA,NA,""
"image-keyboard-response",557,664046,"0.0-4.181-2.181","b4zh0br00gmza79",188,"20.csv","","null","resources/images/fishbone.png","null","",NA,NA,NA,NA,""
"image-keyboard-response",558,664658,"0.0-4.182-0.182","b4zh0br00gmza79",188,"20.csv","","609","resources/trios/L1T2A3.jpg","37","restless",0.6,0.6,0.3,0.709874140556822,"false"
"image-keyboard-response",559,665060,"0.0-4.182-1.182","b4zh0br00gmza79",188,"20.csv","","null","resources/maskTrios/L1BB.jpg","null","",NA,NA,NA,NA,""
"image-keyboard-response",560,666266,"0.0-4.182-2.182","b4zh0br00gmza79",188,"20.csv","","null","resources/images/fishbone.png","null","",NA,NA,NA,NA,""
"image-keyboard-response",561,667158,"0.0-4.183-0.183","b4zh0br00gmza79",188,"20.csv","","891","resources/trios/L1T2A3.jpg","37","restless",0.6,0.6,0.3,0.904249560033283,"false"
"image-keyboard-response",562,667569,"0.0-4.183-1.183","b4zh0br00gmza79",188,"20.csv","","null","resources/maskTrios/L1BB.jpg","null","",NA,NA,NA,NA,""
"image-keyboard-response",563,668774,"0.0-4.183-2.183","b4zh0br00gmza79",188,"20.csv","","null","resources/images/fishbone.png","null","",NA,NA,NA,NA,""
"image-keyboard-response",564,669084,"0.0-4.184-0.184","b4zh0br00gmza79",188,"20.csv","","308","resources/trios/L1T2A3.jpg","38","restless",0.6,0.6,0.3,0.28938614432082,"true"
"image-keyboard-response",565,669490,"0.0-4.184-1.184","b4zh0br00gmza79",188,"20.csv","","null","resources/maskTrios/BT2B.jpg","null","",NA,NA,NA,NA,""
"image-keyboard-response",566,670698,"0.0-4.184-2.184","b4zh0br00gmza79",188,"20.csv","","null","resources/images/coin2.png","null","",NA,NA,NA,NA,""
"image-keyboard-response",567,670927,"0.0-4.185-0.185","b4zh0br00gmza79",188,"20.csv","","227","resources/trios/L1T2A3.jpg","39","restless",0.6,0.6,0.3,0.767113926913926,"false"
"image-keyboard-response",568,671333,"0.0-4.185-1.185","b4zh0br00gmza79",188,"20.csv","","null","resources/maskTrios/BBA3.jpg","null","",NA,NA,NA,NA,""
"image-keyboard-response",569,672538,"0.0-4.185-2.185","b4zh0br00gmza79",188,"20.csv","","null","resources/images/fishbone.png","null","",NA,NA,NA,NA,""
"image-keyboard-response",570,673219,"0.0-4.186-0.186","b4zh0br00gmza79",188,"20.csv","","677","resources/trios/L1T2A3.jpg","37","restless",0.6,0.6,0.3,0.968933162507185,"false"
"image-keyboard-response",571,673624,"0.0-4.186-1.186","b4zh0br00gmza79",188,"20.csv","","null","resources/maskTrios/L1BB.jpg","null","",NA,NA,NA,NA,""
"image-keyboard-response",572,674831,"0.0-4.186-2.186","b4zh0br00gmza79",188,"20.csv","","null","resources/images/fishbone.png","null","",NA,NA,NA,NA,""
"image-keyboard-response",573,675096,"0.0-4.187-0.187","b4zh0br00gmza79",188,"20.csv","","264","resources/trios/L1T2A3.jpg","37","restless",0.6,0.5,0.3,0.265839329366623,"true"
"image-keyboard-response",574,675500,"0.0-4.187-1.187","b4zh0br00gmza79",188,"20.csv","","null","resources/maskTrios/L1BB.jpg","null","",NA,NA,NA,NA,""
"image-keyboard-response",575,676705,"0.0-4.187-2.187","b4zh0br00gmza79",188,"20.csv","","null","resources/images/coin2.png","null","",NA,NA,NA,NA,""
"image-keyboard-response",576,677374,"0.0-4.188-0.188","b4zh0br00gmza79",188,"20.csv","","668","resources/trios/L1T2A3.jpg","37","restless",0.6,0.5,0.3,0.581123483593595,"true"
"image-keyboard-response",577,677782,"0.0-4.188-1.188","b4zh0br00gmza79",188,"20.csv","","null","resources/maskTrios/L1BB.jpg","null","",NA,NA,NA,NA,""
"image-keyboard-response",578,678989,"0.0-4.188-2.188","b4zh0br00gmza79",188,"20.csv","","null","resources/images/coin2.png","null","",NA,NA,NA,NA,""
"image-keyboard-response",579,680727,"0.0-4.189-0.189","b4zh0br00gmza79",188,"20.csv","","1737","resources/trios/L1T2A3.jpg","38","restless",0.6,0.5,0.3,0.358540002221615,"true"
"image-keyboard-response",580,681132,"0.0-4.189-1.189","b4zh0br00gmza79",188,"20.csv","","null","resources/maskTrios/BT2B.jpg","null","",NA,NA,NA,NA,""
"image-keyboard-response",581,682345,"0.0-4.189-2.189","b4zh0br00gmza79",188,"20.csv","","null","resources/images/coin2.png","null","",NA,NA,NA,NA,""
"image-keyboard-response",582,683179,"0.0-4.190-0.190","b4zh0br00gmza79",188,"20.csv","","833","resources/trios/L1T2A3.jpg","37","restless",0.6,0.5,0.3,0.995531562712423,"false"
"image-keyboard-response",583,683585,"0.0-4.190-1.190","b4zh0br00gmza79",188,"20.csv","","null","resources/maskTrios/L1BB.jpg","null","",NA,NA,NA,NA,""
"image-keyboard-response",584,684794,"0.0-4.190-2.190","b4zh0br00gmza79",188,"20.csv","","null","resources/images/fishbone.png","null","",NA,NA,NA,NA,""
"image-keyboard-response",585,685072,"0.0-4.191-0.191","b4zh0br00gmza79",188,"20.csv","","275","resources/trios/L1T2A3.jpg","38","restless",0.6,0.6,0.3,0.0274584445801843,"true"
"image-keyboard-response",586,685475,"0.0-4.191-1.191","b4zh0br00gmza79",188,"20.csv","","null","resources/maskTrios/BT2B.jpg","null","",NA,NA,NA,NA,""
"image-keyboard-response",587,686678,"0.0-4.191-2.191","b4zh0br00gmza79",188,"20.csv","","null","resources/images/coin2.png","null","",NA,NA,NA,NA,""
"image-keyboard-response",588,686997,"0.0-4.192-0.192","b4zh0br00gmza79",188,"20.csv","","319","resources/trios/L1T2A3.jpg","37","restless",0.6,0.6,0.3,0.269319041263539,"true"
"image-keyboard-response",589,687403,"0.0-4.192-1.192","b4zh0br00gmza79",188,"20.csv","","null","resources/maskTrios/L1BB.jpg","null","",NA,NA,NA,NA,""
"image-keyboard-response",590,688610,"0.0-4.192-2.192","b4zh0br00gmza79",188,"20.csv","","null","resources/images/coin2.png","null","",NA,NA,NA,NA,""
"image-keyboard-response",591,689849,"0.0-4.193-0.193","b4zh0br00gmza79",188,"20.csv","","1236","resources/trios/L1T2A3.jpg","38","restless",0.6,0.5,0.3,0.0616407332456133,"true"
"image-keyboard-response",592,690270,"0.0-4.193-1.193","b4zh0br00gmza79",188,"20.csv","","null","resources/maskTrios/BT2B.jpg","null","",NA,NA,NA,NA,""
"image-keyboard-response",593,691477,"0.0-4.193-2.193","b4zh0br00gmza79",188,"20.csv","","null","resources/images/coin2.png","null","",NA,NA,NA,NA,""
"image-keyboard-response",594,692038,"0.0-4.194-0.194","b4zh0br00gmza79",188,"20.csv","","560","resources/trios/L1T2A3.jpg","37","restless",0.6,0.5,0.3,0.838481609545087,"false"
"image-keyboard-response",595,692445,"0.0-4.194-1.194","b4zh0br00gmza79",188,"20.csv","","null","resources/maskTrios/L1BB.jpg","null","",NA,NA,NA,NA,""
"image-keyboard-response",596,693646,"0.0-4.194-2.194","b4zh0br00gmza79",188,"20.csv","","null","resources/images/fishbone.png","null","",NA,NA,NA,NA,""
"image-keyboard-response",597,693857,"0.0-4.195-0.195","b4zh0br00gmza79",188,"20.csv","","208","resources/trios/L1T2A3.jpg","38","restless",0.7,0.5,0.3,0.0469212726550378,"true"
"image-keyboard-response",598,694263,"0.0-4.195-1.195","b4zh0br00gmza79",188,"20.csv","","null","resources/maskTrios/BT2B.jpg","null","",NA,NA,NA,NA,""
"image-keyboard-response",599,695466,"0.0-4.195-2.195","b4zh0br00gmza79",188,"20.csv","","null","resources/images/coin2.png","null","",NA,NA,NA,NA,""
"image-keyboard-response",600,695769,"0.0-4.196-0.196","b4zh0br00gmza79",188,"20.csv","","303","resources/trios/L1T2A3.jpg","38","restless",0.6,0.5,0.3,0.335975467136843,"true"
"image-keyboard-response",601,696178,"0.0-4.196-1.196","b4zh0br00gmza79",188,"20.csv","","null","resources/maskTrios/BT2B.jpg","null","",NA,NA,NA,NA,""
"image-keyboard-response",602,697387,"0.0-4.196-2.196","b4zh0br00gmza79",188,"20.csv","","null","resources/images/coin2.png","null","",NA,NA,NA,NA,""
"image-keyboard-response",603,697496,"0.0-4.197-0.197","b4zh0br00gmza79",188,"20.csv","","108","resources/trios/L1T2A3.jpg","38","restless",0.6,0.5,0.3,0.154651049509402,"true"
"image-keyboard-response",604,697901,"0.0-4.197-1.197","b4zh0br00gmza79",188,"20.csv","","null","resources/maskTrios/BT2B.jpg","null","",NA,NA,NA,NA,""
"image-keyboard-response",605,699104,"0.0-4.197-2.197","b4zh0br00gmza79",188,"20.csv","","null","resources/images/coin2.png","null","",NA,NA,NA,NA,""
"image-keyboard-response",606,699329,"0.0-4.198-0.198","b4zh0br00gmza79",188,"20.csv","","224","resources/trios/L1T2A3.jpg","37","restless",0.6,0.6,0.3,0.536685496196615,"true"
"image-keyboard-response",607,699738,"0.0-4.198-1.198","b4zh0br00gmza79",188,"20.csv","","null","resources/maskTrios/L1BB.jpg","null","",NA,NA,NA,NA,""
"image-keyboard-response",608,700942,"0.0-4.198-2.198","b4zh0br00gmza79",188,"20.csv","","null","resources/images/coin2.png","null","",NA,NA,NA,NA,""
"image-keyboard-response",609,701240,"0.0-4.199-0.199","b4zh0br00gmza79",188,"20.csv","","297","resources/trios/L1T2A3.jpg","38","restless",0.6,0.6,0.3,0.802926772878182,"false"
"image-keyboard-response",610,701645,"0.0-4.199-1.199","b4zh0br00gmza79",188,"20.csv","","null","resources/maskTrios/BT2B.jpg","null","",NA,NA,NA,NA,""
"image-keyboard-response",611,702850,"0.0-4.199-2.199","b4zh0br00gmza79",188,"20.csv","","null","resources/images/fishbone.png","null","",NA,NA,NA,NA,""
"survey-text",612,747358,"0.0-5.0","b4zh0br00gmza79",188,"20.csv","","44505","","","",NA,NA,NA,NA,""
