"trial_type","trial_index","time_elapsed","internal_node_id","subject","participantCode","walkNumber","success","rt","stimulus","key_press","test_part","leftProb","midProb","rightProb","generatedNum","correct"
"pavlovia",0,1213,"0.0-0.0","8z9qx3z0pcwosp5",263,"57.csv","","","","","",NA,NA,NA,NA,""
"fullscreen",1,7699,"0.0-1.0","8z9qx3z0pcwosp5",263,"57.csv","true","","","","",NA,NA,NA,NA,""
"survey-html-form",2,28263,"0.0-2.0","8z9qx3z0pcwosp5",263,"57.csv","","20559.400000095367","","","",NA,NA,NA,NA,""
"image-keyboard-response",3,46956,"0.0-3.0-0.0","8z9qx3z0pcwosp5",263,"57.csv","","18691.400000095367","resources/images/parrot_nobg.png","13","",NA,NA,NA,NA,""
"image-keyboard-response",4,49966,"0.0-3.0-1.0","8z9qx3z0pcwosp5",263,"57.csv","","null","resources/image_sets/111.png","null","",NA,NA,NA,NA,""
"image-keyboard-response",5,60698,"0.0-3.0-2.0","8z9qx3z0pcwosp5",263,"57.csv","","10729.199999809265","resources/image_sets/left_highlight.png","37","",NA,NA,NA,NA,""
"image-keyboard-response",6,64976,"0.0-3.0-3.0","8z9qx3z0pcwosp5",263,"57.csv","","4276.300000190735","resources/image_sets/mid_highlight.png","38","",NA,NA,NA,NA,""
"image-keyboard-response",7,65956,"0.0-3.0-4.0","8z9qx3z0pcwosp5",263,"57.csv","","979","resources/image_sets/right_highlight.png","39","",NA,NA,NA,NA,""
"image-keyboard-response",8,69364,"0.0-3.0-5.0","8z9qx3z0pcwosp5",263,"57.csv","","3405.5999999046326","resources/image_sets/111.png","13","",NA,NA,NA,NA,""
"image-keyboard-response",9,71438,"0.0-3.0-6.0","8z9qx3z0pcwosp5",263,"57.csv","","2073.800000190735","resources/images/coin2.png","13","",NA,NA,NA,NA,""
"image-keyboard-response",10,73509,"0.0-3.0-7.0","8z9qx3z0pcwosp5",263,"57.csv","","2069.5","resources/images/fishbone.png","13","",NA,NA,NA,NA,""
"html-keyboard-response",11,81355,"0.0-3.0-8.0","8z9qx3z0pcwosp5",263,"57.csv","","7845.099999904633","<p>You can track your coin total on the top right of your screen. </p><p>At the end of your journey you will be directed to a survey, so please click on the link before exiting the task</p><p>Press Enter to begin</p>","13","",NA,NA,NA,NA,""
"image-keyboard-response",12,84289,"0.0-4.0-0.0","8z9qx3z0pcwosp5",263,"57.csv","","2932.5","resources/trios/L1T2A3.jpg","38","restless",0.9,0.7,0.3,0.293189313771814,"true"
"image-keyboard-response",13,84704,"0.0-4.0-1.0","8z9qx3z0pcwosp5",263,"57.csv","","null","resources/maskTrios/BT2B.jpg","null","",NA,NA,NA,NA,""
"image-keyboard-response",14,85915,"0.0-4.0-2.0","8z9qx3z0pcwosp5",263,"57.csv","","null","resources/images/coin2.png","null","",NA,NA,NA,NA,""
"image-keyboard-response",15,87778,"0.0-4.1-0.1","8z9qx3z0pcwosp5",263,"57.csv","","1859.6999998092651","resources/trios/L1T2A3.jpg","38","restless",0.8,0.7,0.3,0.0374070422486528,"true"
"image-keyboard-response",16,88189,"0.0-4.1-1.1","8z9qx3z0pcwosp5",263,"57.csv","","null","resources/maskTrios/BT2B.jpg","null","",NA,NA,NA,NA,""
"image-keyboard-response",17,89395,"0.0-4.1-2.1","8z9qx3z0pcwosp5",263,"57.csv","","null","resources/images/coin2.png","null","",NA,NA,NA,NA,""
"image-keyboard-response",18,90281,"0.0-4.2-0.2","8z9qx3z0pcwosp5",263,"57.csv","","883.7999997138977","resources/trios/L1T2A3.jpg","39","restless",0.8,0.7,0.3,0.588409375285345,"false"
"image-keyboard-response",19,90689,"0.0-4.2-1.2","8z9qx3z0pcwosp5",263,"57.csv","","null","resources/maskTrios/BBA3.jpg","null","",NA,NA,NA,NA,""
"image-keyboard-response",20,91900,"0.0-4.2-2.2","8z9qx3z0pcwosp5",263,"57.csv","","null","resources/images/fishbone.png","null","",NA,NA,NA,NA,""
"image-keyboard-response",21,92798,"0.0-4.3-0.3","8z9qx3z0pcwosp5",263,"57.csv","","894.7999997138977","resources/trios/L1T2A3.jpg","37","restless",0.8,0.7,0.3,0.357295795864826,"true"
"image-keyboard-response",22,93207,"0.0-4.3-1.3","8z9qx3z0pcwosp5",263,"57.csv","","null","resources/maskTrios/L1BB.jpg","null","",NA,NA,NA,NA,""
"image-keyboard-response",23,94421,"0.0-4.3-2.3","8z9qx3z0pcwosp5",263,"57.csv","","null","resources/images/coin2.png","null","",NA,NA,NA,NA,""
"image-keyboard-response",24,94927,"0.0-4.4-0.4","8z9qx3z0pcwosp5",263,"57.csv","","503.5","resources/trios/L1T2A3.jpg","37","restless",0.8,0.7,0.3,0.55377277313741,"true"
"image-keyboard-response",25,95334,"0.0-4.4-1.4","8z9qx3z0pcwosp5",263,"57.csv","","null","resources/maskTrios/L1BB.jpg","null","",NA,NA,NA,NA,""
"image-keyboard-response",26,96538,"0.0-4.4-2.4","8z9qx3z0pcwosp5",263,"57.csv","","null","resources/images/coin2.png","null","",NA,NA,NA,NA,""
"image-keyboard-response",27,96574,"0.0-4.5-0.5","8z9qx3z0pcwosp5",263,"57.csv","","34","resources/trios/L1T2A3.jpg","38","restless",0.8,0.7,0.3,0.547053549819231,"true"
"image-keyboard-response",28,96993,"0.0-4.5-1.5","8z9qx3z0pcwosp5",263,"57.csv","","null","resources/maskTrios/BT2B.jpg","null","",NA,NA,NA,NA,""
"image-keyboard-response",29,98212,"0.0-4.5-2.5","8z9qx3z0pcwosp5",263,"57.csv","","null","resources/images/coin2.png","null","",NA,NA,NA,NA,""
"image-keyboard-response",30,98592,"0.0-4.6-0.6","8z9qx3z0pcwosp5",263,"57.csv","","377.19999980926514","resources/trios/L1T2A3.jpg","38","restless",0.8,0.7,0.3,0.0517660801872766,"true"
"image-keyboard-response",31,98996,"0.0-4.6-1.6","8z9qx3z0pcwosp5",263,"57.csv","","null","resources/maskTrios/BT2B.jpg","null","",NA,NA,NA,NA,""
"image-keyboard-response",32,100201,"0.0-4.6-2.6","8z9qx3z0pcwosp5",263,"57.csv","","null","resources/images/coin2.png","null","",NA,NA,NA,NA,""
"image-keyboard-response",33,100798,"0.0-4.7-0.7","8z9qx3z0pcwosp5",263,"57.csv","","595","resources/trios/L1T2A3.jpg","37","restless",0.8,0.7,0.3,0.165898523036098,"true"
"image-keyboard-response",34,101209,"0.0-4.7-1.7","8z9qx3z0pcwosp5",263,"57.csv","","null","resources/maskTrios/L1BB.jpg","null","",NA,NA,NA,NA,""
"image-keyboard-response",35,102422,"0.0-4.7-2.7","8z9qx3z0pcwosp5",263,"57.csv","","null","resources/images/coin2.png","null","",NA,NA,NA,NA,""
"image-keyboard-response",36,103134,"0.0-4.8-0.8","8z9qx3z0pcwosp5",263,"57.csv","","710","resources/trios/L1T2A3.jpg","38","restless",0.8,0.7,0.4,0.930226916620787,"false"
"image-keyboard-response",37,103542,"0.0-4.8-1.8","8z9qx3z0pcwosp5",263,"57.csv","","null","resources/maskTrios/BT2B.jpg","null","",NA,NA,NA,NA,""
"image-keyboard-response",38,104757,"0.0-4.8-2.8","8z9qx3z0pcwosp5",263,"57.csv","","null","resources/images/fishbone.png","null","",NA,NA,NA,NA,""
"image-keyboard-response",39,105088,"0.0-4.9-0.9","8z9qx3z0pcwosp5",263,"57.csv","","329.40000009536743","resources/trios/L1T2A3.jpg","39","restless",0.8,0.7,0.4,0.299618149304445,"true"
"image-keyboard-response",40,105492,"0.0-4.9-1.9","8z9qx3z0pcwosp5",263,"57.csv","","null","resources/maskTrios/BBA3.jpg","null","",NA,NA,NA,NA,""
"image-keyboard-response",41,106698,"0.0-4.9-2.9","8z9qx3z0pcwosp5",263,"57.csv","","null","resources/images/coin2.png","null","",NA,NA,NA,NA,""
"image-keyboard-response",42,107216,"0.0-4.10-0.10","8z9qx3z0pcwosp5",263,"57.csv","","514.4000000953674","resources/trios/L1T2A3.jpg","37","restless",0.8,0.7,0.3,0.0163959379333607,"true"
"image-keyboard-response",43,107628,"0.0-4.10-1.10","8z9qx3z0pcwosp5",263,"57.csv","","null","resources/maskTrios/L1BB.jpg","null","",NA,NA,NA,NA,""
"image-keyboard-response",44,108846,"0.0-4.10-2.10","8z9qx3z0pcwosp5",263,"57.csv","","null","resources/images/coin2.png","null","",NA,NA,NA,NA,""
"image-keyboard-response",45,109150,"0.0-4.11-0.11","8z9qx3z0pcwosp5",263,"57.csv","","302.30000019073486","resources/trios/L1T2A3.jpg","37","restless",0.8,0.8,0.3,0.180093699607755,"true"
"image-keyboard-response",46,109566,"0.0-4.11-1.11","8z9qx3z0pcwosp5",263,"57.csv","","null","resources/maskTrios/L1BB.jpg","null","",NA,NA,NA,NA,""
"image-keyboard-response",47,110774,"0.0-4.11-2.11","8z9qx3z0pcwosp5",263,"57.csv","","null","resources/images/coin2.png","null","",NA,NA,NA,NA,""
"image-keyboard-response",48,111314,"0.0-4.12-0.12","8z9qx3z0pcwosp5",263,"57.csv","","536.9000000953674","resources/trios/L1T2A3.jpg","38","restless",0.8,0.8,0.4,0.585150933401529,"true"
"image-keyboard-response",49,111734,"0.0-4.12-1.12","8z9qx3z0pcwosp5",263,"57.csv","","null","resources/maskTrios/BT2B.jpg","null","",NA,NA,NA,NA,""
"image-keyboard-response",50,112939,"0.0-4.12-2.12","8z9qx3z0pcwosp5",263,"57.csv","","null","resources/images/coin2.png","null","",NA,NA,NA,NA,""
"image-keyboard-response",51,113198,"0.0-4.13-0.13","8z9qx3z0pcwosp5",263,"57.csv","","255.2999997138977","resources/trios/L1T2A3.jpg","39","restless",0.7,0.7,0.4,0.399442468565471,"true"
"image-keyboard-response",52,113603,"0.0-4.13-1.13","8z9qx3z0pcwosp5",263,"57.csv","","null","resources/maskTrios/BBA3.jpg","null","",NA,NA,NA,NA,""
"image-keyboard-response",53,114812,"0.0-4.13-2.13","8z9qx3z0pcwosp5",263,"57.csv","","null","resources/images/coin2.png","null","",NA,NA,NA,NA,""
"image-keyboard-response",54,115274,"0.0-4.14-0.14","8z9qx3z0pcwosp5",263,"57.csv","","459","resources/trios/L1T2A3.jpg","39","restless",0.7,0.6,0.4,0.443338913594645,"false"
"image-keyboard-response",55,115690,"0.0-4.14-1.14","8z9qx3z0pcwosp5",263,"57.csv","","null","resources/maskTrios/BBA3.jpg","null","",NA,NA,NA,NA,""
"image-keyboard-response",56,116894,"0.0-4.14-2.14","8z9qx3z0pcwosp5",263,"57.csv","","null","resources/images/fishbone.png","null","",NA,NA,NA,NA,""
"image-keyboard-response",57,117291,"0.0-4.15-0.15","8z9qx3z0pcwosp5",263,"57.csv","","396.5","resources/trios/L1T2A3.jpg","38","restless",0.6,0.6,0.4,0.00236986785045068,"true"
"image-keyboard-response",58,117702,"0.0-4.15-1.15","8z9qx3z0pcwosp5",263,"57.csv","","null","resources/maskTrios/BT2B.jpg","null","",NA,NA,NA,NA,""
"image-keyboard-response",59,118912,"0.0-4.15-2.15","8z9qx3z0pcwosp5",263,"57.csv","","null","resources/images/coin2.png","null","",NA,NA,NA,NA,""
"image-keyboard-response",60,119138,"0.0-4.16-0.16","8z9qx3z0pcwosp5",263,"57.csv","","222.5","resources/trios/L1T2A3.jpg","37","restless",0.6,0.6,0.4,0.394341414284263,"true"
"image-keyboard-response",61,119542,"0.0-4.16-1.16","8z9qx3z0pcwosp5",263,"57.csv","","null","resources/maskTrios/L1BB.jpg","null","",NA,NA,NA,NA,""
"image-keyboard-response",62,120754,"0.0-4.16-2.16","8z9qx3z0pcwosp5",263,"57.csv","","null","resources/images/coin2.png","null","",NA,NA,NA,NA,""
"image-keyboard-response",63,120866,"0.0-4.17-0.17","8z9qx3z0pcwosp5",263,"57.csv","","109.90000009536743","resources/trios/L1T2A3.jpg","37","restless",0.6,0.6,0.4,0.197501185356991,"true"
"image-keyboard-response",64,121277,"0.0-4.17-1.17","8z9qx3z0pcwosp5",263,"57.csv","","null","resources/maskTrios/L1BB.jpg","null","",NA,NA,NA,NA,""
"image-keyboard-response",65,122489,"0.0-4.17-2.17","8z9qx3z0pcwosp5",263,"57.csv","","null","resources/images/coin2.png","null","",NA,NA,NA,NA,""
"image-keyboard-response",66,122940,"0.0-4.18-0.18","8z9qx3z0pcwosp5",263,"57.csv","","448.19999980926514","resources/trios/L1T2A3.jpg","37","restless",0.6,0.5,0.4,0.301756880532153,"true"
"image-keyboard-response",67,123359,"0.0-4.18-1.18","8z9qx3z0pcwosp5",263,"57.csv","","null","resources/maskTrios/L1BB.jpg","null","",NA,NA,NA,NA,""
"image-keyboard-response",68,124562,"0.0-4.18-2.18","8z9qx3z0pcwosp5",263,"57.csv","","null","resources/images/coin2.png","null","",NA,NA,NA,NA,""
"image-keyboard-response",69,124882,"0.0-4.19-0.19","8z9qx3z0pcwosp5",263,"57.csv","","317.40000009536743","resources/trios/L1T2A3.jpg","38","restless",0.6,0.5,0.4,0.256873808887751,"true"
"image-keyboard-response",70,125294,"0.0-4.19-1.19","8z9qx3z0pcwosp5",263,"57.csv","","null","resources/maskTrios/BT2B.jpg","null","",NA,NA,NA,NA,""
"image-keyboard-response",71,126499,"0.0-4.19-2.19","8z9qx3z0pcwosp5",263,"57.csv","","null","resources/images/coin2.png","null","",NA,NA,NA,NA,""
"image-keyboard-response",72,126780,"0.0-4.20-0.20","8z9qx3z0pcwosp5",263,"57.csv","","278","resources/trios/L1T2A3.jpg","39","restless",0.6,0.5,0.4,0.884958621181792,"false"
"image-keyboard-response",73,127192,"0.0-4.20-1.20","8z9qx3z0pcwosp5",263,"57.csv","","null","resources/maskTrios/BBA3.jpg","null","",NA,NA,NA,NA,""
"image-keyboard-response",74,128407,"0.0-4.20-2.20","8z9qx3z0pcwosp5",263,"57.csv","","null","resources/images/fishbone.png","null","",NA,NA,NA,NA,""
"image-keyboard-response",75,128833,"0.0-4.21-0.21","8z9qx3z0pcwosp5",263,"57.csv","","422.5","resources/trios/L1T2A3.jpg","38","restless",0.6,0.5,0.4,0.68143106100182,"false"
"image-keyboard-response",76,129246,"0.0-4.21-1.21","8z9qx3z0pcwosp5",263,"57.csv","","null","resources/maskTrios/BT2B.jpg","null","",NA,NA,NA,NA,""
"image-keyboard-response",77,130454,"0.0-4.21-2.21","8z9qx3z0pcwosp5",263,"57.csv","","null","resources/images/fishbone.png","null","",NA,NA,NA,NA,""
"image-keyboard-response",78,130678,"0.0-4.22-0.22","8z9qx3z0pcwosp5",263,"57.csv","","222.19999980926514","resources/trios/L1T2A3.jpg","37","restless",0.6,0.5,0.4,0.937129798941734,"false"
"image-keyboard-response",79,131086,"0.0-4.22-1.22","8z9qx3z0pcwosp5",263,"57.csv","","null","resources/maskTrios/L1BB.jpg","null","",NA,NA,NA,NA,""
"image-keyboard-response",80,132291,"0.0-4.22-2.22","8z9qx3z0pcwosp5",263,"57.csv","","null","resources/images/fishbone.png","null","",NA,NA,NA,NA,""
"image-keyboard-response",81,132549,"0.0-4.23-0.23","8z9qx3z0pcwosp5",263,"57.csv","","255.7000002861023","resources/trios/L1T2A3.jpg","37","restless",0.5,0.5,0.4,0.284426715807292,"true"
"image-keyboard-response",82,132962,"0.0-4.23-1.23","8z9qx3z0pcwosp5",263,"57.csv","","null","resources/maskTrios/L1BB.jpg","null","",NA,NA,NA,NA,""
"image-keyboard-response",83,134176,"0.0-4.23-2.23","8z9qx3z0pcwosp5",263,"57.csv","","null","resources/images/coin2.png","null","",NA,NA,NA,NA,""
"image-keyboard-response",84,134465,"0.0-4.24-0.24","8z9qx3z0pcwosp5",263,"57.csv","","286.09999990463257","resources/trios/L1T2A3.jpg","37","restless",0.5,0.5,0.4,0.979567737050683,"false"
"image-keyboard-response",85,134876,"0.0-4.24-1.24","8z9qx3z0pcwosp5",263,"57.csv","","null","resources/maskTrios/L1BB.jpg","null","",NA,NA,NA,NA,""
"image-keyboard-response",86,136085,"0.0-4.24-2.24","8z9qx3z0pcwosp5",263,"57.csv","","null","resources/images/fishbone.png","null","",NA,NA,NA,NA,""
"image-keyboard-response",87,136111,"0.0-4.25-0.25","8z9qx3z0pcwosp5",263,"57.csv","","22.90000009536743","resources/trios/L1T2A3.jpg","38","restless",0.5,0.5,0.4,0.980315759844329,"false"
"image-keyboard-response",88,136520,"0.0-4.25-1.25","8z9qx3z0pcwosp5",263,"57.csv","","null","resources/maskTrios/BT2B.jpg","null","",NA,NA,NA,NA,""
"image-keyboard-response",89,137733,"0.0-4.25-2.25","8z9qx3z0pcwosp5",263,"57.csv","","null","resources/images/fishbone.png","null","",NA,NA,NA,NA,""
"image-keyboard-response",90,137821,"0.0-4.26-0.26","8z9qx3z0pcwosp5",263,"57.csv","","85.5","resources/trios/L1T2A3.jpg","39","restless",0.5,0.5,0.4,0.60461436632999,"false"
"image-keyboard-response",91,138234,"0.0-4.26-1.26","8z9qx3z0pcwosp5",263,"57.csv","","null","resources/maskTrios/BBA3.jpg","null","",NA,NA,NA,NA,""
"image-keyboard-response",92,139447,"0.0-4.26-2.26","8z9qx3z0pcwosp5",263,"57.csv","","null","resources/images/fishbone.png","null","",NA,NA,NA,NA,""
"image-keyboard-response",93,139922,"0.0-4.27-0.27","8z9qx3z0pcwosp5",263,"57.csv","","471.7999997138977","resources/trios/L1T2A3.jpg","39","restless",0.5,0.5,0.4,0.865700545690042,"false"
"image-keyboard-response",94,140326,"0.0-4.27-1.27","8z9qx3z0pcwosp5",263,"57.csv","","null","resources/maskTrios/BBA3.jpg","null","",NA,NA,NA,NA,""
"image-keyboard-response",95,141529,"0.0-4.27-2.27","8z9qx3z0pcwosp5",263,"57.csv","","null","resources/images/fishbone.png","null","",NA,NA,NA,NA,""
"image-keyboard-response",96,141993,"0.0-4.28-0.28","8z9qx3z0pcwosp5",263,"57.csv","","461.59999990463257","resources/trios/L1T2A3.jpg","37","restless",0.5,0.5,0.4,0.74927939521034,"false"
"image-keyboard-response",97,142398,"0.0-4.28-1.28","8z9qx3z0pcwosp5",263,"57.csv","","null","resources/maskTrios/L1BB.jpg","null","",NA,NA,NA,NA,""
"image-keyboard-response",98,143610,"0.0-4.28-2.28","8z9qx3z0pcwosp5",263,"57.csv","","null","resources/images/fishbone.png","null","",NA,NA,NA,NA,""
"image-keyboard-response",99,143773,"0.0-4.29-0.29","8z9qx3z0pcwosp5",263,"57.csv","","160.39999961853027","resources/trios/L1T2A3.jpg","37","restless",0.5,0.5,0.4,0.0474717928916955,"true"
"image-keyboard-response",100,144184,"0.0-4.29-1.29","8z9qx3z0pcwosp5",263,"57.csv","","null","resources/maskTrios/L1BB.jpg","null","",NA,NA,NA,NA,""
"image-keyboard-response",101,145389,"0.0-4.29-2.29","8z9qx3z0pcwosp5",263,"57.csv","","null","resources/images/coin2.png","null","",NA,NA,NA,NA,""
"image-keyboard-response",102,145566,"0.0-4.30-0.30","8z9qx3z0pcwosp5",263,"57.csv","","174.2000002861023","resources/trios/L1T2A3.jpg","37","restless",0.5,0.5,0.4,0.390281553193167,"true"
"image-keyboard-response",103,145970,"0.0-4.30-1.30","8z9qx3z0pcwosp5",263,"57.csv","","null","resources/maskTrios/L1BB.jpg","null","",NA,NA,NA,NA,""
"image-keyboard-response",104,147175,"0.0-4.30-2.30","8z9qx3z0pcwosp5",263,"57.csv","","null","resources/images/coin2.png","null","",NA,NA,NA,NA,""
"image-keyboard-response",105,147315,"0.0-4.31-0.31","8z9qx3z0pcwosp5",263,"57.csv","","137.59999990463257","resources/trios/L1T2A3.jpg","37","restless",0.5,0.4,0.4,0.943779617474904,"false"
"image-keyboard-response",106,147723,"0.0-4.31-1.31","8z9qx3z0pcwosp5",263,"57.csv","","null","resources/maskTrios/L1BB.jpg","null","",NA,NA,NA,NA,""
"image-keyboard-response",107,148931,"0.0-4.31-2.31","8z9qx3z0pcwosp5",263,"57.csv","","null","resources/images/fishbone.png","null","",NA,NA,NA,NA,""
"image-keyboard-response",108,149091,"0.0-4.32-0.32","8z9qx3z0pcwosp5",263,"57.csv","","157.90000009536743","resources/trios/L1T2A3.jpg","37","restless",0.5,0.4,0.4,0.580549095244394,"false"
"image-keyboard-response",109,149497,"0.0-4.32-1.32","8z9qx3z0pcwosp5",263,"57.csv","","null","resources/maskTrios/L1BB.jpg","null","",NA,NA,NA,NA,""
"image-keyboard-response",110,150714,"0.0-4.32-2.32","8z9qx3z0pcwosp5",263,"57.csv","","null","resources/images/fishbone.png","null","",NA,NA,NA,NA,""
"image-keyboard-response",111,150823,"0.0-4.33-0.33","8z9qx3z0pcwosp5",263,"57.csv","","105.7999997138977","resources/trios/L1T2A3.jpg","38","restless",0.5,0.4,0.4,0.958476216714563,"false"
"image-keyboard-response",112,151233,"0.0-4.33-1.33","8z9qx3z0pcwosp5",263,"57.csv","","null","resources/maskTrios/BT2B.jpg","null","",NA,NA,NA,NA,""
"image-keyboard-response",113,152438,"0.0-4.33-2.33","8z9qx3z0pcwosp5",263,"57.csv","","null","resources/images/fishbone.png","null","",NA,NA,NA,NA,""
"image-keyboard-response",114,152458,"0.0-4.34-0.34","8z9qx3z0pcwosp5",263,"57.csv","","17.299999713897705","resources/trios/L1T2A3.jpg","38","restless",0.5,0.4,0.5,0.214679938343119,"true"
"image-keyboard-response",115,152868,"0.0-4.34-1.34","8z9qx3z0pcwosp5",263,"57.csv","","null","resources/maskTrios/BT2B.jpg","null","",NA,NA,NA,NA,""
"image-keyboard-response",116,154078,"0.0-4.34-2.34","8z9qx3z0pcwosp5",263,"57.csv","","null","resources/images/coin2.png","null","",NA,NA,NA,NA,""
"image-keyboard-response",117,154785,"0.0-4.35-0.35","8z9qx3z0pcwosp5",263,"57.csv","","704.4000000953674","resources/trios/L1T2A3.jpg","39","restless",0.5,0.4,0.4,0.941857705039602,"false"
"image-keyboard-response",118,155195,"0.0-4.35-1.35","8z9qx3z0pcwosp5",263,"57.csv","","null","resources/maskTrios/BBA3.jpg","null","",NA,NA,NA,NA,""
"image-keyboard-response",119,156405,"0.0-4.35-2.35","8z9qx3z0pcwosp5",263,"57.csv","","null","resources/images/fishbone.png","null","",NA,NA,NA,NA,""
"image-keyboard-response",120,156571,"0.0-4.36-0.36","8z9qx3z0pcwosp5",263,"57.csv","","163.5","resources/trios/L1T2A3.jpg","39","restless",0.5,0.4,0.4,0.568407029291707,"false"
"image-keyboard-response",121,156981,"0.0-4.36-1.36","8z9qx3z0pcwosp5",263,"57.csv","","null","resources/maskTrios/BBA3.jpg","null","",NA,NA,NA,NA,""
"image-keyboard-response",122,158186,"0.0-4.36-2.36","8z9qx3z0pcwosp5",263,"57.csv","","null","resources/images/fishbone.png","null","",NA,NA,NA,NA,""
"image-keyboard-response",123,158931,"0.0-4.37-0.37","8z9qx3z0pcwosp5",263,"57.csv","","742.9000000953674","resources/trios/L1T2A3.jpg","39","restless",0.5,0.4,0.4,0.652249479268955,"false"
"image-keyboard-response",124,159349,"0.0-4.37-1.37","8z9qx3z0pcwosp5",263,"57.csv","","null","resources/maskTrios/BBA3.jpg","null","",NA,NA,NA,NA,""
"image-keyboard-response",125,160561,"0.0-4.37-2.37","8z9qx3z0pcwosp5",263,"57.csv","","null","resources/images/fishbone.png","null","",NA,NA,NA,NA,""
"image-keyboard-response",126,160656,"0.0-4.38-0.38","8z9qx3z0pcwosp5",263,"57.csv","","93.2999997138977","resources/trios/L1T2A3.jpg","38","restless",0.5,0.3,0.4,0.372879454746188,"false"
"image-keyboard-response",127,161064,"0.0-4.38-1.38","8z9qx3z0pcwosp5",263,"57.csv","","null","resources/maskTrios/BT2B.jpg","null","",NA,NA,NA,NA,""
"image-keyboard-response",128,162277,"0.0-4.38-2.38","8z9qx3z0pcwosp5",263,"57.csv","","null","resources/images/fishbone.png","null","",NA,NA,NA,NA,""
"image-keyboard-response",129,162438,"0.0-4.39-0.39","8z9qx3z0pcwosp5",263,"57.csv","","160.2999997138977","resources/trios/L1T2A3.jpg","39","restless",0.5,0.3,0.4,0.528753511886372,"false"
"image-keyboard-response",130,162857,"0.0-4.39-1.39","8z9qx3z0pcwosp5",263,"57.csv","","null","resources/maskTrios/BBA3.jpg","null","",NA,NA,NA,NA,""
"image-keyboard-response",131,164071,"0.0-4.39-2.39","8z9qx3z0pcwosp5",263,"57.csv","","null","resources/images/fishbone.png","null","",NA,NA,NA,NA,""
"image-keyboard-response",132,164359,"0.0-4.40-0.40","8z9qx3z0pcwosp5",263,"57.csv","","286.59999990463257","resources/trios/L1T2A3.jpg","38","restless",0.5,0.3,0.4,0.463498870147492,"false"
"image-keyboard-response",133,164773,"0.0-4.40-1.40","8z9qx3z0pcwosp5",263,"57.csv","","null","resources/maskTrios/BT2B.jpg","null","",NA,NA,NA,NA,""
"image-keyboard-response",134,165984,"0.0-4.40-2.40","8z9qx3z0pcwosp5",263,"57.csv","","null","resources/images/fishbone.png","null","",NA,NA,NA,NA,""
"image-keyboard-response",135,166708,"0.0-4.41-0.41","8z9qx3z0pcwosp5",263,"57.csv","","721.0999999046326","resources/trios/L1T2A3.jpg","37","restless",0.5,0.3,0.4,0.839173668063365,"false"
"image-keyboard-response",136,167121,"0.0-4.41-1.41","8z9qx3z0pcwosp5",263,"57.csv","","null","resources/maskTrios/L1BB.jpg","null","",NA,NA,NA,NA,""
"image-keyboard-response",137,168334,"0.0-4.41-2.41","8z9qx3z0pcwosp5",263,"57.csv","","null","resources/images/fishbone.png","null","",NA,NA,NA,NA,""
"image-keyboard-response",138,168646,"0.0-4.42-0.42","8z9qx3z0pcwosp5",263,"57.csv","","309.80000019073486","resources/trios/L1T2A3.jpg","37","restless",0.5,0.3,0.4,0.402762625816126,"true"
"image-keyboard-response",139,169064,"0.0-4.42-1.42","8z9qx3z0pcwosp5",263,"57.csv","","null","resources/maskTrios/L1BB.jpg","null","",NA,NA,NA,NA,""
"image-keyboard-response",140,170270,"0.0-4.42-2.42","8z9qx3z0pcwosp5",263,"57.csv","","null","resources/images/coin2.png","null","",NA,NA,NA,NA,""
"image-keyboard-response",141,170640,"0.0-4.43-0.43","8z9qx3z0pcwosp5",263,"57.csv","","368.30000019073486","resources/trios/L1T2A3.jpg","37","restless",0.5,0.3,0.4,0.989029507773606,"false"
"image-keyboard-response",142,171043,"0.0-4.43-1.43","8z9qx3z0pcwosp5",263,"57.csv","","null","resources/maskTrios/L1BB.jpg","null","",NA,NA,NA,NA,""
"image-keyboard-response",143,172251,"0.0-4.43-2.43","8z9qx3z0pcwosp5",263,"57.csv","","null","resources/images/fishbone.png","null","",NA,NA,NA,NA,""
"image-keyboard-response",144,172464,"0.0-4.44-0.44","8z9qx3z0pcwosp5",263,"57.csv","","211","resources/trios/L1T2A3.jpg","38","restless",0.5,0.3,0.4,0.904017988770387,"false"
"image-keyboard-response",145,172871,"0.0-4.44-1.44","8z9qx3z0pcwosp5",263,"57.csv","","null","resources/maskTrios/BT2B.jpg","null","",NA,NA,NA,NA,""
"image-keyboard-response",146,174075,"0.0-4.44-2.44","8z9qx3z0pcwosp5",263,"57.csv","","null","resources/images/fishbone.png","null","",NA,NA,NA,NA,""
"image-keyboard-response",147,174305,"0.0-4.45-0.45","8z9qx3z0pcwosp5",263,"57.csv","","227","resources/trios/L1T2A3.jpg","38","restless",0.5,0.3,0.4,0.436307695805198,"false"
"image-keyboard-response",148,174710,"0.0-4.45-1.45","8z9qx3z0pcwosp5",263,"57.csv","","null","resources/maskTrios/BT2B.jpg","null","",NA,NA,NA,NA,""
"image-keyboard-response",149,175924,"0.0-4.45-2.45","8z9qx3z0pcwosp5",263,"57.csv","","null","resources/images/fishbone.png","null","",NA,NA,NA,NA,""
"image-keyboard-response",150,177152,"0.0-4.46-0.46","8z9qx3z0pcwosp5",263,"57.csv","","1224.8000001907349","resources/trios/L1T2A3.jpg","37","restless",0.5,0.3,0.4,0.25739380497287,"true"
"image-keyboard-response",151,177564,"0.0-4.46-1.46","8z9qx3z0pcwosp5",263,"57.csv","","null","resources/maskTrios/L1BB.jpg","null","",NA,NA,NA,NA,""
"image-keyboard-response",152,178767,"0.0-4.46-2.46","8z9qx3z0pcwosp5",263,"57.csv","","null","resources/images/coin2.png","null","",NA,NA,NA,NA,""
"image-keyboard-response",153,179118,"0.0-4.47-0.47","8z9qx3z0pcwosp5",263,"57.csv","","348","resources/trios/L1T2A3.jpg","37","restless",0.5,0.3,0.4,0.478636739078188,"true"
"image-keyboard-response",154,179529,"0.0-4.47-1.47","8z9qx3z0pcwosp5",263,"57.csv","","null","resources/maskTrios/L1BB.jpg","null","",NA,NA,NA,NA,""
"image-keyboard-response",155,180734,"0.0-4.47-2.47","8z9qx3z0pcwosp5",263,"57.csv","","null","resources/images/coin2.png","null","",NA,NA,NA,NA,""
"image-keyboard-response",156,180857,"0.0-4.48-0.48","8z9qx3z0pcwosp5",263,"57.csv","","120.5","resources/trios/L1T2A3.jpg","39","restless",0.5,0.3,0.4,0.425040427343499,"false"
"image-keyboard-response",157,181276,"0.0-4.48-1.48","8z9qx3z0pcwosp5",263,"57.csv","","null","resources/maskTrios/BBA3.jpg","null","",NA,NA,NA,NA,""
"image-keyboard-response",158,182480,"0.0-4.48-2.48","8z9qx3z0pcwosp5",263,"57.csv","","null","resources/images/fishbone.png","null","",NA,NA,NA,NA,""
"image-keyboard-response",159,182551,"0.0-4.49-0.49","8z9qx3z0pcwosp5",263,"57.csv","","68.09999990463257","resources/trios/L1T2A3.jpg","37","restless",0.6,0.3,0.4,0.820443881748252,"false"
"image-keyboard-response",160,182964,"0.0-4.49-1.49","8z9qx3z0pcwosp5",263,"57.csv","","null","resources/maskTrios/L1BB.jpg","null","",NA,NA,NA,NA,""
"image-keyboard-response",161,184175,"0.0-4.49-2.49","8z9qx3z0pcwosp5",263,"57.csv","","null","resources/images/fishbone.png","null","",NA,NA,NA,NA,""
"image-keyboard-response",162,184549,"0.0-4.50-0.50","8z9qx3z0pcwosp5",263,"57.csv","","370.90000009536743","resources/trios/L1T2A3.jpg","38","restless",0.6,0.3,0.4,0.783485741702022,"false"
"image-keyboard-response",163,184959,"0.0-4.50-1.50","8z9qx3z0pcwosp5",263,"57.csv","","null","resources/maskTrios/BT2B.jpg","null","",NA,NA,NA,NA,""
"image-keyboard-response",164,186171,"0.0-4.50-2.50","8z9qx3z0pcwosp5",263,"57.csv","","null","resources/images/fishbone.png","null","",NA,NA,NA,NA,""
"image-keyboard-response",165,187103,"0.0-4.51-0.51","8z9qx3z0pcwosp5",263,"57.csv","","930.3000001907349","resources/trios/L1T2A3.jpg","38","restless",0.6,0.4,0.3,0.310134424602353,"true"
"image-keyboard-response",166,187507,"0.0-4.51-1.51","8z9qx3z0pcwosp5",263,"57.csv","","null","resources/maskTrios/BT2B.jpg","null","",NA,NA,NA,NA,""
"image-keyboard-response",167,188719,"0.0-4.51-2.51","8z9qx3z0pcwosp5",263,"57.csv","","null","resources/images/coin2.png","null","",NA,NA,NA,NA,""
"image-keyboard-response",168,189388,"0.0-4.52-0.52","8z9qx3z0pcwosp5",263,"57.csv","","665.5","resources/trios/L1T2A3.jpg","38","restless",0.7,0.4,0.3,0.569964292500607,"false"
"image-keyboard-response",169,189805,"0.0-4.52-1.52","8z9qx3z0pcwosp5",263,"57.csv","","null","resources/maskTrios/BT2B.jpg","null","",NA,NA,NA,NA,""
"image-keyboard-response",170,191017,"0.0-4.52-2.52","8z9qx3z0pcwosp5",263,"57.csv","","null","resources/images/fishbone.png","null","",NA,NA,NA,NA,""
"image-keyboard-response",171,191135,"0.0-4.53-0.53","8z9qx3z0pcwosp5",263,"57.csv","","115.89999961853027","resources/trios/L1T2A3.jpg","38","restless",0.7,0.4,0.3,0.0602587260038194,"true"
"image-keyboard-response",172,191539,"0.0-4.53-1.53","8z9qx3z0pcwosp5",263,"57.csv","","null","resources/maskTrios/BT2B.jpg","null","",NA,NA,NA,NA,""
"image-keyboard-response",173,192748,"0.0-4.53-2.53","8z9qx3z0pcwosp5",263,"57.csv","","null","resources/images/coin2.png","null","",NA,NA,NA,NA,""
"image-keyboard-response",174,192923,"0.0-4.54-0.54","8z9qx3z0pcwosp5",263,"57.csv","","172.40000009536743","resources/trios/L1T2A3.jpg","39","restless",0.7,0.4,0.3,0.190281835479597,"true"
"image-keyboard-response",175,193333,"0.0-4.54-1.54","8z9qx3z0pcwosp5",263,"57.csv","","null","resources/maskTrios/BBA3.jpg","null","",NA,NA,NA,NA,""
"image-keyboard-response",176,194539,"0.0-4.54-2.54","8z9qx3z0pcwosp5",263,"57.csv","","null","resources/images/coin2.png","null","",NA,NA,NA,NA,""
"image-keyboard-response",177,194588,"0.0-4.55-0.55","8z9qx3z0pcwosp5",263,"57.csv","","46.80000019073486","resources/trios/L1T2A3.jpg","37","restless",0.7,0.4,0.3,0.0257032083580733,"true"
"image-keyboard-response",178,195007,"0.0-4.55-1.55","8z9qx3z0pcwosp5",263,"57.csv","","null","resources/maskTrios/L1BB.jpg","null","",NA,NA,NA,NA,""
"image-keyboard-response",179,196225,"0.0-4.55-2.55","8z9qx3z0pcwosp5",263,"57.csv","","null","resources/images/coin2.png","null","",NA,NA,NA,NA,""
"image-keyboard-response",180,196333,"0.0-4.56-0.56","8z9qx3z0pcwosp5",263,"57.csv","","105.90000009536743","resources/trios/L1T2A3.jpg","39","restless",0.7,0.5,0.3,0.867350263875441,"false"
"image-keyboard-response",181,196739,"0.0-4.56-1.56","8z9qx3z0pcwosp5",263,"57.csv","","null","resources/maskTrios/BBA3.jpg","null","",NA,NA,NA,NA,""
"image-keyboard-response",182,197942,"0.0-4.56-2.56","8z9qx3z0pcwosp5",263,"57.csv","","null","resources/images/fishbone.png","null","",NA,NA,NA,NA,""
"image-keyboard-response",183,198735,"0.0-4.57-0.57","8z9qx3z0pcwosp5",263,"57.csv","","791","resources/trios/L1T2A3.jpg","39","restless",0.7,0.5,0.2,0.27812645242556,"false"
"image-keyboard-response",184,199146,"0.0-4.57-1.57","8z9qx3z0pcwosp5",263,"57.csv","","null","resources/maskTrios/BBA3.jpg","null","",NA,NA,NA,NA,""
"image-keyboard-response",185,200351,"0.0-4.57-2.57","8z9qx3z0pcwosp5",263,"57.csv","","null","resources/images/fishbone.png","null","",NA,NA,NA,NA,""
"image-keyboard-response",186,200371,"0.0-4.58-0.58","8z9qx3z0pcwosp5",263,"57.csv","","18.200000286102295","resources/trios/L1T2A3.jpg","37","restless",0.7,0.5,0.2,0.96079868123468,"false"
"image-keyboard-response",187,200780,"0.0-4.58-1.58","8z9qx3z0pcwosp5",263,"57.csv","","null","resources/maskTrios/L1BB.jpg","null","",NA,NA,NA,NA,""
"image-keyboard-response",188,201987,"0.0-4.58-2.58","8z9qx3z0pcwosp5",263,"57.csv","","null","resources/images/fishbone.png","null","",NA,NA,NA,NA,""
"image-keyboard-response",189,202171,"0.0-4.59-0.59","8z9qx3z0pcwosp5",263,"57.csv","","180.2000002861023","resources/trios/L1T2A3.jpg","38","restless",0.7,0.5,0.2,0.720440127213381,"false"
"image-keyboard-response",190,202576,"0.0-4.59-1.59","8z9qx3z0pcwosp5",263,"57.csv","","null","resources/maskTrios/BT2B.jpg","null","",NA,NA,NA,NA,""
"image-keyboard-response",191,203784,"0.0-4.59-2.59","8z9qx3z0pcwosp5",263,"57.csv","","null","resources/images/fishbone.png","null","",NA,NA,NA,NA,""
"image-keyboard-response",192,204176,"0.0-4.60-0.60","8z9qx3z0pcwosp5",263,"57.csv","","388.2000002861023","resources/trios/L1T2A3.jpg","38","restless",0.7,0.5,0.2,0.631919511469163,"false"
"image-keyboard-response",193,204582,"0.0-4.60-1.60","8z9qx3z0pcwosp5",263,"57.csv","","null","resources/maskTrios/BT2B.jpg","null","",NA,NA,NA,NA,""
"image-keyboard-response",194,205797,"0.0-4.60-2.60","8z9qx3z0pcwosp5",263,"57.csv","","null","resources/images/fishbone.png","null","",NA,NA,NA,NA,""
"image-keyboard-response",195,206181,"0.0-4.61-0.61","8z9qx3z0pcwosp5",263,"57.csv","","383.09999990463257","resources/trios/L1T2A3.jpg","39","restless",0.7,0.6,0.2,0.358179666163005,"false"
"image-keyboard-response",196,206593,"0.0-4.61-1.61","8z9qx3z0pcwosp5",263,"57.csv","","null","resources/maskTrios/BBA3.jpg","null","",NA,NA,NA,NA,""
"image-keyboard-response",197,207797,"0.0-4.61-2.61","8z9qx3z0pcwosp5",263,"57.csv","","null","resources/images/fishbone.png","null","",NA,NA,NA,NA,""
"image-keyboard-response",198,207807,"0.0-4.62-0.62","8z9qx3z0pcwosp5",263,"57.csv","","7.200000286102295","resources/trios/L1T2A3.jpg","37","restless",0.7,0.6,0.2,0.991612008604406,"false"
"image-keyboard-response",199,208217,"0.0-4.62-1.62","8z9qx3z0pcwosp5",263,"57.csv","","null","resources/maskTrios/L1BB.jpg","null","",NA,NA,NA,NA,""
"image-keyboard-response",200,209427,"0.0-4.62-2.62","8z9qx3z0pcwosp5",263,"57.csv","","null","resources/images/fishbone.png","null","",NA,NA,NA,NA,""
"image-keyboard-response",201,209579,"0.0-4.63-0.63","8z9qx3z0pcwosp5",263,"57.csv","","148.60000038146973","resources/trios/L1T2A3.jpg","37","restless",0.7,0.6,0.2,0.735285882726933,"false"
"image-keyboard-response",202,209984,"0.0-4.63-1.63","8z9qx3z0pcwosp5",263,"57.csv","","null","resources/maskTrios/L1BB.jpg","null","",NA,NA,NA,NA,""
"image-keyboard-response",203,211192,"0.0-4.63-2.63","8z9qx3z0pcwosp5",263,"57.csv","","null","resources/images/fishbone.png","null","",NA,NA,NA,NA,""
"image-keyboard-response",204,211381,"0.0-4.64-0.64","8z9qx3z0pcwosp5",263,"57.csv","","185.09999990463257","resources/trios/L1T2A3.jpg","37","restless",0.7,0.6,0.2,0.604583784863615,"true"
"image-keyboard-response",205,211791,"0.0-4.64-1.64","8z9qx3z0pcwosp5",263,"57.csv","","null","resources/maskTrios/L1BB.jpg","null","",NA,NA,NA,NA,""
"image-keyboard-response",206,213008,"0.0-4.64-2.64","8z9qx3z0pcwosp5",263,"57.csv","","null","resources/images/coin2.png","null","",NA,NA,NA,NA,""
"image-keyboard-response",207,213030,"0.0-4.65-0.65","8z9qx3z0pcwosp5",263,"57.csv","","19.90000009536743","resources/trios/L1T2A3.jpg","37","restless",0.7,0.6,0.2,0.342593164806037,"true"
"image-keyboard-response",208,213445,"0.0-4.65-1.65","8z9qx3z0pcwosp5",263,"57.csv","","null","resources/maskTrios/L1BB.jpg","null","",NA,NA,NA,NA,""
"image-keyboard-response",209,214656,"0.0-4.65-2.65","8z9qx3z0pcwosp5",263,"57.csv","","null","resources/images/coin2.png","null","",NA,NA,NA,NA,""
"image-keyboard-response",210,214816,"0.0-4.66-0.66","8z9qx3z0pcwosp5",263,"57.csv","","156.89999961853027","resources/trios/L1T2A3.jpg","37","restless",0.7,0.6,0.2,0.270462687421491,"true"
"image-keyboard-response",211,215227,"0.0-4.66-1.66","8z9qx3z0pcwosp5",263,"57.csv","","null","resources/maskTrios/L1BB.jpg","null","",NA,NA,NA,NA,""
"image-keyboard-response",212,216436,"0.0-4.66-2.66","8z9qx3z0pcwosp5",263,"57.csv","","null","resources/images/coin2.png","null","",NA,NA,NA,NA,""
"image-keyboard-response",213,216530,"0.0-4.67-0.67","8z9qx3z0pcwosp5",263,"57.csv","","91.40000009536743","resources/trios/L1T2A3.jpg","37","restless",0.7,0.6,0.2,0.232570931137092,"true"
"image-keyboard-response",214,216944,"0.0-4.67-1.67","8z9qx3z0pcwosp5",263,"57.csv","","null","resources/maskTrios/L1BB.jpg","null","",NA,NA,NA,NA,""
"image-keyboard-response",215,218158,"0.0-4.67-2.67","8z9qx3z0pcwosp5",263,"57.csv","","null","resources/images/coin2.png","null","",NA,NA,NA,NA,""
"image-keyboard-response",216,218467,"0.0-4.68-0.68","8z9qx3z0pcwosp5",263,"57.csv","","306.09999990463257","resources/trios/L1T2A3.jpg","37","restless",0.7,0.6,0.2,0.739084863064916,"false"
"image-keyboard-response",217,218878,"0.0-4.68-1.68","8z9qx3z0pcwosp5",263,"57.csv","","null","resources/maskTrios/L1BB.jpg","null","",NA,NA,NA,NA,""
"image-keyboard-response",218,220087,"0.0-4.68-2.68","8z9qx3z0pcwosp5",263,"57.csv","","null","resources/images/fishbone.png","null","",NA,NA,NA,NA,""
"image-keyboard-response",219,220436,"0.0-4.69-0.69","8z9qx3z0pcwosp5",263,"57.csv","","346.09999990463257","resources/trios/L1T2A3.jpg","37","restless",0.7,0.6,0.2,0.605343338767637,"true"
"image-keyboard-response",220,220845,"0.0-4.69-1.69","8z9qx3z0pcwosp5",263,"57.csv","","null","resources/maskTrios/L1BB.jpg","null","",NA,NA,NA,NA,""
"image-keyboard-response",221,222058,"0.0-4.69-2.69","8z9qx3z0pcwosp5",263,"57.csv","","null","resources/images/coin2.png","null","",NA,NA,NA,NA,""
"image-keyboard-response",222,222186,"0.0-4.70-0.70","8z9qx3z0pcwosp5",263,"57.csv","","125","resources/trios/L1T2A3.jpg","37","restless",0.6,0.6,0.3,0.928838540072286,"false"
"image-keyboard-response",223,222604,"0.0-4.70-1.70","8z9qx3z0pcwosp5",263,"57.csv","","null","resources/maskTrios/L1BB.jpg","null","",NA,NA,NA,NA,""
"image-keyboard-response",224,223821,"0.0-4.70-2.70","8z9qx3z0pcwosp5",263,"57.csv","","null","resources/images/fishbone.png","null","",NA,NA,NA,NA,""
"image-keyboard-response",225,224000,"0.0-4.71-0.71","8z9qx3z0pcwosp5",263,"57.csv","","176.30000019073486","resources/trios/L1T2A3.jpg","38","restless",0.6,0.6,0.3,0.627126707786679,"false"
"image-keyboard-response",226,224404,"0.0-4.71-1.71","8z9qx3z0pcwosp5",263,"57.csv","","null","resources/maskTrios/BT2B.jpg","null","",NA,NA,NA,NA,""
"image-keyboard-response",227,225608,"0.0-4.71-2.71","8z9qx3z0pcwosp5",263,"57.csv","","null","resources/images/fishbone.png","null","",NA,NA,NA,NA,""
"image-keyboard-response",228,225896,"0.0-4.72-0.72","8z9qx3z0pcwosp5",263,"57.csv","","285.59999990463257","resources/trios/L1T2A3.jpg","38","restless",0.6,0.6,0.3,0.942434069521463,"false"
"image-keyboard-response",229,226307,"0.0-4.72-1.72","8z9qx3z0pcwosp5",263,"57.csv","","null","resources/maskTrios/BT2B.jpg","null","",NA,NA,NA,NA,""
"image-keyboard-response",230,227518,"0.0-4.72-2.72","8z9qx3z0pcwosp5",263,"57.csv","","null","resources/images/fishbone.png","null","",NA,NA,NA,NA,""
"image-keyboard-response",231,227664,"0.0-4.73-0.73","8z9qx3z0pcwosp5",263,"57.csv","","143.80000019073486","resources/trios/L1T2A3.jpg","37","restless",0.6,0.6,0.3,0.772657968833337,"false"
"image-keyboard-response",232,228082,"0.0-4.73-1.73","8z9qx3z0pcwosp5",263,"57.csv","","null","resources/maskTrios/L1BB.jpg","null","",NA,NA,NA,NA,""
"image-keyboard-response",233,229294,"0.0-4.73-2.73","8z9qx3z0pcwosp5",263,"57.csv","","null","resources/images/fishbone.png","null","",NA,NA,NA,NA,""
"image-keyboard-response",234,229428,"0.0-4.74-0.74","8z9qx3z0pcwosp5",263,"57.csv","","132.09999990463257","resources/trios/L1T2A3.jpg","39","restless",0.6,0.6,0.3,0.659816041813637,"false"
"image-keyboard-response",235,229838,"0.0-4.74-1.74","8z9qx3z0pcwosp5",263,"57.csv","","null","resources/maskTrios/BBA3.jpg","null","",NA,NA,NA,NA,""
"image-keyboard-response",236,231056,"0.0-4.74-2.74","8z9qx3z0pcwosp5",263,"57.csv","","null","resources/images/fishbone.png","null","",NA,NA,NA,NA,""
"image-keyboard-response",237,231370,"0.0-4.75-0.75","8z9qx3z0pcwosp5",263,"57.csv","","311.80000019073486","resources/trios/L1T2A3.jpg","38","restless",0.6,0.6,0.3,0.872884892321641,"false"
"image-keyboard-response",238,231783,"0.0-4.75-1.75","8z9qx3z0pcwosp5",263,"57.csv","","null","resources/maskTrios/BT2B.jpg","null","",NA,NA,NA,NA,""
"image-keyboard-response",239,232991,"0.0-4.75-2.75","8z9qx3z0pcwosp5",263,"57.csv","","null","resources/images/fishbone.png","null","",NA,NA,NA,NA,""
"image-keyboard-response",240,233151,"0.0-4.76-0.76","8z9qx3z0pcwosp5",263,"57.csv","","157.39999961853027","resources/trios/L1T2A3.jpg","38","restless",0.6,0.6,0.3,0.667459002022544,"false"
"image-keyboard-response",241,233558,"0.0-4.76-1.76","8z9qx3z0pcwosp5",263,"57.csv","","null","resources/maskTrios/BT2B.jpg","null","",NA,NA,NA,NA,""
"image-keyboard-response",242,234770,"0.0-4.76-2.76","8z9qx3z0pcwosp5",263,"57.csv","","null","resources/images/fishbone.png","null","",NA,NA,NA,NA,""
"image-keyboard-response",243,234878,"0.0-4.77-0.77","8z9qx3z0pcwosp5",263,"57.csv","","106.59999990463257","resources/trios/L1T2A3.jpg","38","restless",0.6,0.6,0.3,0.378716813930657,"true"
"image-keyboard-response",244,235290,"0.0-4.77-1.77","8z9qx3z0pcwosp5",263,"57.csv","","null","resources/maskTrios/BT2B.jpg","null","",NA,NA,NA,NA,""
"image-keyboard-response",245,236503,"0.0-4.77-2.77","8z9qx3z0pcwosp5",263,"57.csv","","null","resources/images/coin2.png","null","",NA,NA,NA,NA,""
"image-keyboard-response",246,236703,"0.0-4.78-0.78","8z9qx3z0pcwosp5",263,"57.csv","","198.5","resources/trios/L1T2A3.jpg","38","restless",0.6,0.6,0.3,0.895958337594702,"false"
"image-keyboard-response",247,237115,"0.0-4.78-1.78","8z9qx3z0pcwosp5",263,"57.csv","","null","resources/maskTrios/BT2B.jpg","null","",NA,NA,NA,NA,""
"image-keyboard-response",248,238322,"0.0-4.78-2.78","8z9qx3z0pcwosp5",263,"57.csv","","null","resources/images/fishbone.png","null","",NA,NA,NA,NA,""
"image-keyboard-response",249,238375,"0.0-4.79-0.79","8z9qx3z0pcwosp5",263,"57.csv","","52.09999990463257","resources/trios/L1T2A3.jpg","37","restless",0.6,0.6,0.3,0.549096320677823,"true"
"image-keyboard-response",250,238784,"0.0-4.79-1.79","8z9qx3z0pcwosp5",263,"57.csv","","null","resources/maskTrios/L1BB.jpg","null","",NA,NA,NA,NA,""
"image-keyboard-response",251,239993,"0.0-4.79-2.79","8z9qx3z0pcwosp5",263,"57.csv","","null","resources/images/coin2.png","null","",NA,NA,NA,NA,""
"image-keyboard-response",252,240324,"0.0-4.80-0.80","8z9qx3z0pcwosp5",263,"57.csv","","328.30000019073486","resources/trios/L1T2A3.jpg","37","restless",0.6,0.6,0.4,0.69968889110993,"false"
"image-keyboard-response",253,240742,"0.0-4.80-1.80","8z9qx3z0pcwosp5",263,"57.csv","","null","resources/maskTrios/L1BB.jpg","null","",NA,NA,NA,NA,""
"image-keyboard-response",254,241957,"0.0-4.80-2.80","8z9qx3z0pcwosp5",263,"57.csv","","null","resources/images/fishbone.png","null","",NA,NA,NA,NA,""
"image-keyboard-response",255,241959,"0.0-4.81-0.81","8z9qx3z0pcwosp5",263,"57.csv","","0.3000001907348633","resources/trios/L1T2A3.jpg","37","restless",0.6,0.6,0.4,0.77739376044444,"false"
"image-keyboard-response",256,242371,"0.0-4.81-1.81","8z9qx3z0pcwosp5",263,"57.csv","","null","resources/maskTrios/L1BB.jpg","null","",NA,NA,NA,NA,""
"image-keyboard-response",257,243586,"0.0-4.81-2.81","8z9qx3z0pcwosp5",263,"57.csv","","null","resources/images/fishbone.png","null","",NA,NA,NA,NA,""
"image-keyboard-response",258,243714,"0.0-4.82-0.82","8z9qx3z0pcwosp5",263,"57.csv","","126.90000009536743","resources/trios/L1T2A3.jpg","38","restless",0.6,0.6,0.4,0.262902574144268,"true"
"image-keyboard-response",259,244124,"0.0-4.82-1.82","8z9qx3z0pcwosp5",263,"57.csv","","null","resources/maskTrios/BT2B.jpg","null","",NA,NA,NA,NA,""
"image-keyboard-response",260,245332,"0.0-4.82-2.82","8z9qx3z0pcwosp5",263,"57.csv","","null","resources/images/coin2.png","null","",NA,NA,NA,NA,""
"image-keyboard-response",261,245380,"0.0-4.83-0.83","8z9qx3z0pcwosp5",263,"57.csv","","45.59999990463257","resources/trios/L1T2A3.jpg","38","restless",0.6,0.5,0.4,0.750516524165754,"false"
"image-keyboard-response",262,245792,"0.0-4.83-1.83","8z9qx3z0pcwosp5",263,"57.csv","","null","resources/maskTrios/BT2B.jpg","null","",NA,NA,NA,NA,""
"image-keyboard-response",263,247006,"0.0-4.83-2.83","8z9qx3z0pcwosp5",263,"57.csv","","null","resources/images/fishbone.png","null","",NA,NA,NA,NA,""
"image-keyboard-response",264,247319,"0.0-4.84-0.84","8z9qx3z0pcwosp5",263,"57.csv","","310.30000019073486","resources/trios/L1T2A3.jpg","37","restless",0.6,0.5,0.4,0.967616512547841,"false"
"image-keyboard-response",265,247731,"0.0-4.84-1.84","8z9qx3z0pcwosp5",263,"57.csv","","null","resources/maskTrios/L1BB.jpg","null","",NA,NA,NA,NA,""
"image-keyboard-response",266,248936,"0.0-4.84-2.84","8z9qx3z0pcwosp5",263,"57.csv","","null","resources/images/fishbone.png","null","",NA,NA,NA,NA,""
"image-keyboard-response",267,249456,"0.0-4.85-0.85","8z9qx3z0pcwosp5",263,"57.csv","","518.6000003814697","resources/trios/L1T2A3.jpg","39","restless",0.6,0.6,0.4,0.367363330067098,"true"
"image-keyboard-response",268,249868,"0.0-4.85-1.85","8z9qx3z0pcwosp5",263,"57.csv","","null","resources/maskTrios/BBA3.jpg","null","",NA,NA,NA,NA,""
"image-keyboard-response",269,251074,"0.0-4.85-2.85","8z9qx3z0pcwosp5",263,"57.csv","","null","resources/images/coin2.png","null","",NA,NA,NA,NA,""
"image-keyboard-response",270,251391,"0.0-4.86-0.86","8z9qx3z0pcwosp5",263,"57.csv","","314","resources/trios/L1T2A3.jpg","37","restless",0.6,0.6,0.4,0.687663683110382,"false"
"image-keyboard-response",271,251797,"0.0-4.86-1.86","8z9qx3z0pcwosp5",263,"57.csv","","null","resources/maskTrios/L1BB.jpg","null","",NA,NA,NA,NA,""
"image-keyboard-response",272,253001,"0.0-4.86-2.86","8z9qx3z0pcwosp5",263,"57.csv","","null","resources/images/fishbone.png","null","",NA,NA,NA,NA,""
"image-keyboard-response",273,253145,"0.0-4.87-0.87","8z9qx3z0pcwosp5",263,"57.csv","","142.5","resources/trios/L1T2A3.jpg","39","restless",0.6,0.6,0.4,0.670077966469042,"false"
"image-keyboard-response",274,253564,"0.0-4.87-1.87","8z9qx3z0pcwosp5",263,"57.csv","","null","resources/maskTrios/BBA3.jpg","null","",NA,NA,NA,NA,""
"image-keyboard-response",275,254767,"0.0-4.87-2.87","8z9qx3z0pcwosp5",263,"57.csv","","null","resources/images/fishbone.png","null","",NA,NA,NA,NA,""
"image-keyboard-response",276,255046,"0.0-4.88-0.88","8z9qx3z0pcwosp5",263,"57.csv","","277","resources/trios/L1T2A3.jpg","39","restless",0.6,0.6,0.4,0.888002396689184,"false"
"image-keyboard-response",277,255463,"0.0-4.88-1.88","8z9qx3z0pcwosp5",263,"57.csv","","null","resources/maskTrios/BBA3.jpg","null","",NA,NA,NA,NA,""
"image-keyboard-response",278,256679,"0.0-4.88-2.88","8z9qx3z0pcwosp5",263,"57.csv","","null","resources/images/fishbone.png","null","",NA,NA,NA,NA,""
"image-keyboard-response",279,256714,"0.0-4.89-0.89","8z9qx3z0pcwosp5",263,"57.csv","","32.39999961853027","resources/trios/L1T2A3.jpg","37","restless",0.6,0.6,0.4,0.138927233504519,"true"
"image-keyboard-response",280,257122,"0.0-4.89-1.89","8z9qx3z0pcwosp5",263,"57.csv","","null","resources/maskTrios/L1BB.jpg","null","",NA,NA,NA,NA,""
"image-keyboard-response",281,258331,"0.0-4.89-2.89","8z9qx3z0pcwosp5",263,"57.csv","","null","resources/images/coin2.png","null","",NA,NA,NA,NA,""
"image-keyboard-response",282,258504,"0.0-4.90-0.90","8z9qx3z0pcwosp5",263,"57.csv","","169.40000009536743","resources/trios/L1T2A3.jpg","37","restless",0.6,0.6,0.4,0.839373600209227,"false"
"image-keyboard-response",283,258916,"0.0-4.90-1.90","8z9qx3z0pcwosp5",263,"57.csv","","null","resources/maskTrios/L1BB.jpg","null","",NA,NA,NA,NA,""
"image-keyboard-response",284,260124,"0.0-4.90-2.90","8z9qx3z0pcwosp5",263,"57.csv","","null","resources/images/fishbone.png","null","",NA,NA,NA,NA,""
"image-keyboard-response",285,260219,"0.0-4.91-0.91","8z9qx3z0pcwosp5",263,"57.csv","","92","resources/trios/L1T2A3.jpg","37","restless",0.6,0.6,0.4,0.948291772058371,"false"
"image-keyboard-response",286,260625,"0.0-4.91-1.91","8z9qx3z0pcwosp5",263,"57.csv","","null","resources/maskTrios/L1BB.jpg","null","",NA,NA,NA,NA,""
"image-keyboard-response",287,261834,"0.0-4.91-2.91","8z9qx3z0pcwosp5",263,"57.csv","","null","resources/images/fishbone.png","null","",NA,NA,NA,NA,""
"image-keyboard-response",288,261958,"0.0-4.92-0.92","8z9qx3z0pcwosp5",263,"57.csv","","121.69999980926514","resources/trios/L1T2A3.jpg","37","restless",0.6,0.6,0.4,0.0729297599515664,"true"
"image-keyboard-response",289,262369,"0.0-4.92-1.92","8z9qx3z0pcwosp5",263,"57.csv","","null","resources/maskTrios/L1BB.jpg","null","",NA,NA,NA,NA,""
"image-keyboard-response",290,263578,"0.0-4.92-2.92","8z9qx3z0pcwosp5",263,"57.csv","","null","resources/images/coin2.png","null","",NA,NA,NA,NA,""
"image-keyboard-response",291,264019,"0.0-4.93-0.93","8z9qx3z0pcwosp5",263,"57.csv","","439.1000003814697","resources/trios/L1T2A3.jpg","37","restless",0.6,0.6,0.4,0.758926499125452,"false"
"image-keyboard-response",292,264440,"0.0-4.93-1.93","8z9qx3z0pcwosp5",263,"57.csv","","null","resources/maskTrios/L1BB.jpg","null","",NA,NA,NA,NA,""
"image-keyboard-response",293,265652,"0.0-4.93-2.93","8z9qx3z0pcwosp5",263,"57.csv","","null","resources/images/fishbone.png","null","",NA,NA,NA,NA,""
"image-keyboard-response",294,265681,"0.0-4.94-0.94","8z9qx3z0pcwosp5",263,"57.csv","","25.90000009536743","resources/trios/L1T2A3.jpg","38","restless",0.6,0.6,0.4,0.551778008044969,"true"
"image-keyboard-response",295,266098,"0.0-4.94-1.94","8z9qx3z0pcwosp5",263,"57.csv","","null","resources/maskTrios/BT2B.jpg","null","",NA,NA,NA,NA,""
"image-keyboard-response",296,267313,"0.0-4.94-2.94","8z9qx3z0pcwosp5",263,"57.csv","","null","resources/images/coin2.png","null","",NA,NA,NA,NA,""
"image-keyboard-response",297,267536,"0.0-4.95-0.95","8z9qx3z0pcwosp5",263,"57.csv","","219.7999997138977","resources/trios/L1T2A3.jpg","38","restless",0.6,0.6,0.4,0.722234829694207,"false"
"image-keyboard-response",298,267942,"0.0-4.95-1.95","8z9qx3z0pcwosp5",263,"57.csv","","null","resources/maskTrios/BT2B.jpg","null","",NA,NA,NA,NA,""
"image-keyboard-response",299,269158,"0.0-4.95-2.95","8z9qx3z0pcwosp5",263,"57.csv","","null","resources/images/fishbone.png","null","",NA,NA,NA,NA,""
"image-keyboard-response",300,269206,"0.0-4.96-0.96","8z9qx3z0pcwosp5",263,"57.csv","","44.80000019073486","resources/trios/L1T2A3.jpg","38","restless",0.6,0.6,0.4,0.468366422486664,"true"
"image-keyboard-response",301,269611,"0.0-4.96-1.96","8z9qx3z0pcwosp5",263,"57.csv","","null","resources/maskTrios/BT2B.jpg","null","",NA,NA,NA,NA,""
"image-keyboard-response",302,270821,"0.0-4.96-2.96","8z9qx3z0pcwosp5",263,"57.csv","","null","resources/images/coin2.png","null","",NA,NA,NA,NA,""
"image-keyboard-response",303,271218,"0.0-4.97-0.97","8z9qx3z0pcwosp5",263,"57.csv","","395.5","resources/trios/L1T2A3.jpg","38","restless",0.5,0.6,0.4,0.39982196193781,"true"
"image-keyboard-response",304,271626,"0.0-4.97-1.97","8z9qx3z0pcwosp5",263,"57.csv","","null","resources/maskTrios/BT2B.jpg","null","",NA,NA,NA,NA,""
"image-keyboard-response",305,272837,"0.0-4.97-2.97","8z9qx3z0pcwosp5",263,"57.csv","","null","resources/images/coin2.png","null","",NA,NA,NA,NA,""
"image-keyboard-response",306,273357,"0.0-4.98-0.98","8z9qx3z0pcwosp5",263,"57.csv","","517.5","resources/trios/L1T2A3.jpg","38","restless",0.5,0.6,0.4,0.657862486842047,"false"
"image-keyboard-response",307,273772,"0.0-4.98-1.98","8z9qx3z0pcwosp5",263,"57.csv","","null","resources/maskTrios/BT2B.jpg","null","",NA,NA,NA,NA,""
"image-keyboard-response",308,274985,"0.0-4.98-2.98","8z9qx3z0pcwosp5",263,"57.csv","","null","resources/images/fishbone.png","null","",NA,NA,NA,NA,""
"image-keyboard-response",309,275323,"0.0-4.99-0.99","8z9qx3z0pcwosp5",263,"57.csv","","335.5","resources/trios/L1T2A3.jpg","38","restless",0.5,0.6,0.4,0.682723289759507,"false"
"image-keyboard-response",310,275733,"0.0-4.99-1.99","8z9qx3z0pcwosp5",263,"57.csv","","null","resources/maskTrios/BT2B.jpg","null","",NA,NA,NA,NA,""
"image-keyboard-response",311,276942,"0.0-4.99-2.99","8z9qx3z0pcwosp5",263,"57.csv","","null","resources/images/fishbone.png","null","",NA,NA,NA,NA,""
"image-keyboard-response",312,276968,"0.0-4.100-0.100","8z9qx3z0pcwosp5",263,"57.csv","","22.59999990463257","resources/trios/L1T2A3.jpg","39","restless",0.5,0.6,0.4,0.0154506143226392,"true"
"image-keyboard-response",313,277380,"0.0-4.100-1.100","8z9qx3z0pcwosp5",263,"57.csv","","null","resources/maskTrios/BBA3.jpg","null","",NA,NA,NA,NA,""
"image-keyboard-response",314,278596,"0.0-4.100-2.100","8z9qx3z0pcwosp5",263,"57.csv","","null","resources/images/coin2.png","null","",NA,NA,NA,NA,""
"image-keyboard-response",315,279611,"0.0-4.101-0.101","8z9qx3z0pcwosp5",263,"57.csv","","1011.5","resources/trios/L1T2A3.jpg","37","restless",0.5,0.7,0.4,0.0373874686197797,"true"
"image-keyboard-response",316,280021,"0.0-4.101-1.101","8z9qx3z0pcwosp5",263,"57.csv","","null","resources/maskTrios/L1BB.jpg","null","",NA,NA,NA,NA,""
"image-keyboard-response",317,281238,"0.0-4.101-2.101","8z9qx3z0pcwosp5",263,"57.csv","","null","resources/images/coin2.png","null","",NA,NA,NA,NA,""
"image-keyboard-response",318,281405,"0.0-4.102-0.102","8z9qx3z0pcwosp5",263,"57.csv","","164.90000009536743","resources/trios/L1T2A3.jpg","37","restless",0.5,0.7,0.4,0.973771556982701,"false"
"image-keyboard-response",319,281817,"0.0-4.102-1.102","8z9qx3z0pcwosp5",263,"57.csv","","null","resources/maskTrios/L1BB.jpg","null","",NA,NA,NA,NA,""
"image-keyboard-response",320,283031,"0.0-4.102-2.102","8z9qx3z0pcwosp5",263,"57.csv","","null","resources/images/fishbone.png","null","",NA,NA,NA,NA,""
"image-keyboard-response",321,283290,"0.0-4.103-0.103","8z9qx3z0pcwosp5",263,"57.csv","","257.30000019073486","resources/trios/L1T2A3.jpg","39","restless",0.6,0.7,0.4,0.31471520487137,"true"
"image-keyboard-response",322,283702,"0.0-4.103-1.103","8z9qx3z0pcwosp5",263,"57.csv","","null","resources/maskTrios/BBA3.jpg","null","",NA,NA,NA,NA,""
"image-keyboard-response",323,284910,"0.0-4.103-2.103","8z9qx3z0pcwosp5",263,"57.csv","","null","resources/images/coin2.png","null","",NA,NA,NA,NA,""
"image-keyboard-response",324,285140,"0.0-4.104-0.104","8z9qx3z0pcwosp5",263,"57.csv","","227.2999997138977","resources/trios/L1T2A3.jpg","37","restless",0.6,0.7,0.4,0.625128815084097,"false"
"image-keyboard-response",325,285548,"0.0-4.104-1.104","8z9qx3z0pcwosp5",263,"57.csv","","null","resources/maskTrios/L1BB.jpg","null","",NA,NA,NA,NA,""
"image-keyboard-response",326,286755,"0.0-4.104-2.104","8z9qx3z0pcwosp5",263,"57.csv","","null","resources/images/fishbone.png","null","",NA,NA,NA,NA,""
"image-keyboard-response",327,286958,"0.0-4.105-0.105","8z9qx3z0pcwosp5",263,"57.csv","","200.7000002861023","resources/trios/L1T2A3.jpg","38","restless",0.6,0.7,0.4,0.170188210151376,"true"
"image-keyboard-response",328,287365,"0.0-4.105-1.105","8z9qx3z0pcwosp5",263,"57.csv","","null","resources/maskTrios/BT2B.jpg","null","",NA,NA,NA,NA,""
"image-keyboard-response",329,288576,"0.0-4.105-2.105","8z9qx3z0pcwosp5",263,"57.csv","","null","resources/images/coin2.png","null","",NA,NA,NA,NA,""
"image-keyboard-response",330,288642,"0.0-4.106-0.106","8z9qx3z0pcwosp5",263,"57.csv","","62.80000019073486","resources/trios/L1T2A3.jpg","39","restless",0.6,0.7,0.4,0.374520776730375,"true"
"image-keyboard-response",331,289044,"0.0-4.106-1.106","8z9qx3z0pcwosp5",263,"57.csv","","null","resources/maskTrios/BBA3.jpg","null","",NA,NA,NA,NA,""
"image-keyboard-response",332,290254,"0.0-4.106-2.106","8z9qx3z0pcwosp5",263,"57.csv","","null","resources/images/coin2.png","null","",NA,NA,NA,NA,""
"image-keyboard-response",333,290527,"0.0-4.107-0.107","8z9qx3z0pcwosp5",263,"57.csv","","271.2000002861023","resources/trios/L1T2A3.jpg","38","restless",0.6,0.7,0.4,0.299452303856405,"true"
"image-keyboard-response",334,290933,"0.0-4.107-1.107","8z9qx3z0pcwosp5",263,"57.csv","","null","resources/maskTrios/BT2B.jpg","null","",NA,NA,NA,NA,""
"image-keyboard-response",335,292137,"0.0-4.107-2.107","8z9qx3z0pcwosp5",263,"57.csv","","null","resources/images/coin2.png","null","",NA,NA,NA,NA,""
"image-keyboard-response",336,292465,"0.0-4.108-0.108","8z9qx3z0pcwosp5",263,"57.csv","","324.90000009536743","resources/trios/L1T2A3.jpg","37","restless",0.6,0.7,0.4,0.297397927587537,"true"
"image-keyboard-response",337,292873,"0.0-4.108-1.108","8z9qx3z0pcwosp5",263,"57.csv","","null","resources/maskTrios/L1BB.jpg","null","",NA,NA,NA,NA,""
"image-keyboard-response",338,294080,"0.0-4.108-2.108","8z9qx3z0pcwosp5",263,"57.csv","","null","resources/images/coin2.png","null","",NA,NA,NA,NA,""
"image-keyboard-response",339,294221,"0.0-4.109-0.109","8z9qx3z0pcwosp5",263,"57.csv","","138.59999990463257","resources/trios/L1T2A3.jpg","38","restless",0.6,0.7,0.5,0.702853273437593,"false"
"image-keyboard-response",340,294638,"0.0-4.109-1.109","8z9qx3z0pcwosp5",263,"57.csv","","null","resources/maskTrios/BT2B.jpg","null","",NA,NA,NA,NA,""
"image-keyboard-response",341,295840,"0.0-4.109-2.109","8z9qx3z0pcwosp5",263,"57.csv","","null","resources/images/fishbone.png","null","",NA,NA,NA,NA,""
"image-keyboard-response",342,296086,"0.0-4.110-0.110","8z9qx3z0pcwosp5",263,"57.csv","","242.90000009536743","resources/trios/L1T2A3.jpg","38","restless",0.6,0.7,0.5,0.472760231963608,"true"
"image-keyboard-response",343,296504,"0.0-4.110-1.110","8z9qx3z0pcwosp5",263,"57.csv","","null","resources/maskTrios/BT2B.jpg","null","",NA,NA,NA,NA,""
"image-keyboard-response",344,297713,"0.0-4.110-2.110","8z9qx3z0pcwosp5",263,"57.csv","","null","resources/images/coin2.png","null","",NA,NA,NA,NA,""
"image-keyboard-response",345,297760,"0.0-4.111-0.111","8z9qx3z0pcwosp5",263,"57.csv","","43.89999961853027","resources/trios/L1T2A3.jpg","38","restless",0.6,0.7,0.5,0.907612029707509,"false"
"image-keyboard-response",346,298166,"0.0-4.111-1.111","8z9qx3z0pcwosp5",263,"57.csv","","null","resources/maskTrios/BT2B.jpg","null","",NA,NA,NA,NA,""
"image-keyboard-response",347,299376,"0.0-4.111-2.111","8z9qx3z0pcwosp5",263,"57.csv","","null","resources/images/fishbone.png","null","",NA,NA,NA,NA,""
"image-keyboard-response",348,299460,"0.0-4.112-0.112","8z9qx3z0pcwosp5",263,"57.csv","","81.5","resources/trios/L1T2A3.jpg","37","restless",0.6,0.7,0.5,0.1363825711823,"true"
"image-keyboard-response",349,299868,"0.0-4.112-1.112","8z9qx3z0pcwosp5",263,"57.csv","","null","resources/maskTrios/L1BB.jpg","null","",NA,NA,NA,NA,""
"image-keyboard-response",350,301077,"0.0-4.112-2.112","8z9qx3z0pcwosp5",263,"57.csv","","null","resources/images/coin2.png","null","",NA,NA,NA,NA,""
"image-keyboard-response",351,301147,"0.0-4.113-0.113","8z9qx3z0pcwosp5",263,"57.csv","","68.2000002861023","resources/trios/L1T2A3.jpg","38","restless",0.6,0.7,0.5,0.261298593373611,"true"
"image-keyboard-response",352,301564,"0.0-4.113-1.113","8z9qx3z0pcwosp5",263,"57.csv","","null","resources/maskTrios/BT2B.jpg","null","",NA,NA,NA,NA,""
"image-keyboard-response",353,302781,"0.0-4.113-2.113","8z9qx3z0pcwosp5",263,"57.csv","","null","resources/images/coin2.png","null","",NA,NA,NA,NA,""
"image-keyboard-response",354,302969,"0.0-4.114-0.114","8z9qx3z0pcwosp5",263,"57.csv","","186.09999990463257","resources/trios/L1T2A3.jpg","37","restless",0.6,0.7,0.4,0.768152566151062,"false"
"image-keyboard-response",355,303379,"0.0-4.114-1.114","8z9qx3z0pcwosp5",263,"57.csv","","null","resources/maskTrios/L1BB.jpg","null","",NA,NA,NA,NA,""
"image-keyboard-response",356,304589,"0.0-4.114-2.114","8z9qx3z0pcwosp5",263,"57.csv","","null","resources/images/fishbone.png","null","",NA,NA,NA,NA,""
"image-keyboard-response",357,304803,"0.0-4.115-0.115","8z9qx3z0pcwosp5",263,"57.csv","","212.30000019073486","resources/trios/L1T2A3.jpg","37","restless",0.6,0.7,0.4,0.85461450550858,"false"
"image-keyboard-response",358,305213,"0.0-4.115-1.115","8z9qx3z0pcwosp5",263,"57.csv","","null","resources/maskTrios/L1BB.jpg","null","",NA,NA,NA,NA,""
"image-keyboard-response",359,306427,"0.0-4.115-2.115","8z9qx3z0pcwosp5",263,"57.csv","","null","resources/images/fishbone.png","null","",NA,NA,NA,NA,""
"image-keyboard-response",360,306601,"0.0-4.116-0.116","8z9qx3z0pcwosp5",263,"57.csv","","172.69999980926514","resources/trios/L1T2A3.jpg","39","restless",0.6,0.7,0.4,0.304253411325579,"true"
"image-keyboard-response",361,307019,"0.0-4.116-1.116","8z9qx3z0pcwosp5",263,"57.csv","","null","resources/maskTrios/BBA3.jpg","null","",NA,NA,NA,NA,""
"image-keyboard-response",362,308224,"0.0-4.116-2.116","8z9qx3z0pcwosp5",263,"57.csv","","null","resources/images/coin2.png","null","",NA,NA,NA,NA,""
"image-keyboard-response",363,308282,"0.0-4.117-0.117","8z9qx3z0pcwosp5",263,"57.csv","","55.5","resources/trios/L1T2A3.jpg","38","restless",0.5,0.7,0.4,0.0980527302912884,"true"
"image-keyboard-response",364,308697,"0.0-4.117-1.117","8z9qx3z0pcwosp5",263,"57.csv","","null","resources/maskTrios/BT2B.jpg","null","",NA,NA,NA,NA,""
"image-keyboard-response",365,309912,"0.0-4.117-2.117","8z9qx3z0pcwosp5",263,"57.csv","","null","resources/images/coin2.png","null","",NA,NA,NA,NA,""
"image-keyboard-response",366,310166,"0.0-4.118-0.118","8z9qx3z0pcwosp5",263,"57.csv","","251.40000009536743","resources/trios/L1T2A3.jpg","39","restless",0.5,0.7,0.4,0.961774610962176,"false"
"image-keyboard-response",367,310571,"0.0-4.118-1.118","8z9qx3z0pcwosp5",263,"57.csv","","null","resources/maskTrios/BBA3.jpg","null","",NA,NA,NA,NA,""
"image-keyboard-response",368,311786,"0.0-4.118-2.118","8z9qx3z0pcwosp5",263,"57.csv","","null","resources/images/fishbone.png","null","",NA,NA,NA,NA,""
"image-keyboard-response",369,312299,"0.0-4.119-0.119","8z9qx3z0pcwosp5",263,"57.csv","","510.1000003814697","resources/trios/L1T2A3.jpg","37","restless",0.5,0.7,0.4,0.165589030042495,"true"
"image-keyboard-response",370,312709,"0.0-4.119-1.119","8z9qx3z0pcwosp5",263,"57.csv","","null","resources/maskTrios/L1BB.jpg","null","",NA,NA,NA,NA,""
"image-keyboard-response",371,313923,"0.0-4.119-2.119","8z9qx3z0pcwosp5",263,"57.csv","","null","resources/images/coin2.png","null","",NA,NA,NA,NA,""
"image-keyboard-response",372,313957,"0.0-4.120-0.120","8z9qx3z0pcwosp5",263,"57.csv","","30.799999713897705","resources/trios/L1T2A3.jpg","39","restless",0.5,0.7,0.4,0.883622522460155,"false"
"image-keyboard-response",373,314362,"0.0-4.120-1.120","8z9qx3z0pcwosp5",263,"57.csv","","null","resources/maskTrios/BBA3.jpg","null","",NA,NA,NA,NA,""
"image-keyboard-response",374,315570,"0.0-4.120-2.120","8z9qx3z0pcwosp5",263,"57.csv","","null","resources/images/fishbone.png","null","",NA,NA,NA,NA,""
"image-keyboard-response",375,315952,"0.0-4.121-0.121","8z9qx3z0pcwosp5",263,"57.csv","","379.5","resources/trios/L1T2A3.jpg","38","restless",0.5,0.7,0.4,0.997700708357895,"false"
"image-keyboard-response",376,316357,"0.0-4.121-1.121","8z9qx3z0pcwosp5",263,"57.csv","","null","resources/maskTrios/BT2B.jpg","null","",NA,NA,NA,NA,""
"image-keyboard-response",377,317568,"0.0-4.121-2.121","8z9qx3z0pcwosp5",263,"57.csv","","null","resources/images/fishbone.png","null","",NA,NA,NA,NA,""
"image-keyboard-response",378,317676,"0.0-4.122-0.122","8z9qx3z0pcwosp5",263,"57.csv","","105.90000009536743","resources/trios/L1T2A3.jpg","38","restless",0.5,0.7,0.4,0.789503423694872,"false"
"image-keyboard-response",379,318083,"0.0-4.122-1.122","8z9qx3z0pcwosp5",263,"57.csv","","null","resources/maskTrios/BT2B.jpg","null","",NA,NA,NA,NA,""
"image-keyboard-response",380,319294,"0.0-4.122-2.122","8z9qx3z0pcwosp5",263,"57.csv","","null","resources/images/fishbone.png","null","",NA,NA,NA,NA,""
"image-keyboard-response",381,319477,"0.0-4.123-0.123","8z9qx3z0pcwosp5",263,"57.csv","","180.90000009536743","resources/trios/L1T2A3.jpg","39","restless",0.5,0.7,0.4,0.0223575135508862,"true"
"image-keyboard-response",382,319885,"0.0-4.123-1.123","8z9qx3z0pcwosp5",263,"57.csv","","null","resources/maskTrios/BBA3.jpg","null","",NA,NA,NA,NA,""
"image-keyboard-response",383,321100,"0.0-4.123-2.123","8z9qx3z0pcwosp5",263,"57.csv","","null","resources/images/coin2.png","null","",NA,NA,NA,NA,""
"image-keyboard-response",384,321329,"0.0-4.124-0.124","8z9qx3z0pcwosp5",263,"57.csv","","226.7000002861023","resources/trios/L1T2A3.jpg","37","restless",0.4,0.7,0.4,0.67160188041232,"false"
"image-keyboard-response",385,321746,"0.0-4.124-1.124","8z9qx3z0pcwosp5",263,"57.csv","","null","resources/maskTrios/L1BB.jpg","null","",NA,NA,NA,NA,""
"image-keyboard-response",386,322953,"0.0-4.124-2.124","8z9qx3z0pcwosp5",263,"57.csv","","null","resources/images/fishbone.png","null","",NA,NA,NA,NA,""
"image-keyboard-response",387,323149,"0.0-4.125-0.125","8z9qx3z0pcwosp5",263,"57.csv","","193.69999980926514","resources/trios/L1T2A3.jpg","39","restless",0.4,0.7,0.4,0.00806979913386874,"true"
"image-keyboard-response",388,323567,"0.0-4.125-1.125","8z9qx3z0pcwosp5",263,"57.csv","","null","resources/maskTrios/BBA3.jpg","null","",NA,NA,NA,NA,""
"image-keyboard-response",389,324776,"0.0-4.125-2.125","8z9qx3z0pcwosp5",263,"57.csv","","null","resources/images/coin2.png","null","",NA,NA,NA,NA,""
"image-keyboard-response",390,324817,"0.0-4.126-0.126","8z9qx3z0pcwosp5",263,"57.csv","","38.5","resources/trios/L1T2A3.jpg","39","restless",0.4,0.7,0.5,0.392575945258614,"true"
"image-keyboard-response",391,325225,"0.0-4.126-1.126","8z9qx3z0pcwosp5",263,"57.csv","","null","resources/maskTrios/BBA3.jpg","null","",NA,NA,NA,NA,""
"image-keyboard-response",392,326429,"0.0-4.126-2.126","8z9qx3z0pcwosp5",263,"57.csv","","null","resources/images/coin2.png","null","",NA,NA,NA,NA,""
"image-keyboard-response",393,326545,"0.0-4.127-0.127","8z9qx3z0pcwosp5",263,"57.csv","","113.09999990463257","resources/trios/L1T2A3.jpg","38","restless",0.4,0.7,0.5,0.565023345055838,"true"
"image-keyboard-response",394,326958,"0.0-4.127-1.127","8z9qx3z0pcwosp5",263,"57.csv","","null","resources/maskTrios/BT2B.jpg","null","",NA,NA,NA,NA,""
"image-keyboard-response",395,328167,"0.0-4.127-2.127","8z9qx3z0pcwosp5",263,"57.csv","","null","resources/images/coin2.png","null","",NA,NA,NA,NA,""
"image-keyboard-response",396,328312,"0.0-4.128-0.128","8z9qx3z0pcwosp5",263,"57.csv","","142.40000009536743","resources/trios/L1T2A3.jpg","39","restless",0.4,0.7,0.5,0.929741405550384,"false"
"image-keyboard-response",397,328724,"0.0-4.128-1.128","8z9qx3z0pcwosp5",263,"57.csv","","null","resources/maskTrios/BBA3.jpg","null","",NA,NA,NA,NA,""
"image-keyboard-response",398,329928,"0.0-4.128-2.128","8z9qx3z0pcwosp5",263,"57.csv","","null","resources/images/fishbone.png","null","",NA,NA,NA,NA,""
"image-keyboard-response",399,330226,"0.0-4.129-0.129","8z9qx3z0pcwosp5",263,"57.csv","","295.80000019073486","resources/trios/L1T2A3.jpg","38","restless",0.4,0.7,0.5,0.620774689524906,"true"
"image-keyboard-response",400,330632,"0.0-4.129-1.129","8z9qx3z0pcwosp5",263,"57.csv","","null","resources/maskTrios/BT2B.jpg","null","",NA,NA,NA,NA,""
"image-keyboard-response",401,331841,"0.0-4.129-2.129","8z9qx3z0pcwosp5",263,"57.csv","","null","resources/images/coin2.png","null","",NA,NA,NA,NA,""
"image-keyboard-response",402,331971,"0.0-4.130-0.130","8z9qx3z0pcwosp5",263,"57.csv","","127.2999997138977","resources/trios/L1T2A3.jpg","38","restless",0.4,0.7,0.5,0.774549867494442,"false"
"image-keyboard-response",403,332377,"0.0-4.130-1.130","8z9qx3z0pcwosp5",263,"57.csv","","null","resources/maskTrios/BT2B.jpg","null","",NA,NA,NA,NA,""
"image-keyboard-response",404,333586,"0.0-4.130-2.130","8z9qx3z0pcwosp5",263,"57.csv","","null","resources/images/fishbone.png","null","",NA,NA,NA,NA,""
"image-keyboard-response",405,333755,"0.0-4.131-0.131","8z9qx3z0pcwosp5",263,"57.csv","","164.90000009536743","resources/trios/L1T2A3.jpg","38","restless",0.5,0.7,0.5,0.123984434938251,"true"
"image-keyboard-response",406,334162,"0.0-4.131-1.131","8z9qx3z0pcwosp5",263,"57.csv","","null","resources/maskTrios/BT2B.jpg","null","",NA,NA,NA,NA,""
"image-keyboard-response",407,335380,"0.0-4.131-2.131","8z9qx3z0pcwosp5",263,"57.csv","","null","resources/images/coin2.png","null","",NA,NA,NA,NA,""
"image-keyboard-response",408,335437,"0.0-4.132-0.132","8z9qx3z0pcwosp5",263,"57.csv","","52.69999980926514","resources/trios/L1T2A3.jpg","37","restless",0.5,0.7,0.5,0.988108162723129,"false"
"image-keyboard-response",409,335840,"0.0-4.132-1.132","8z9qx3z0pcwosp5",263,"57.csv","","null","resources/maskTrios/L1BB.jpg","null","",NA,NA,NA,NA,""
"image-keyboard-response",410,337049,"0.0-4.132-2.132","8z9qx3z0pcwosp5",263,"57.csv","","null","resources/images/fishbone.png","null","",NA,NA,NA,NA,""
"image-keyboard-response",411,337639,"0.0-4.133-0.133","8z9qx3z0pcwosp5",263,"57.csv","","588.5","resources/trios/L1T2A3.jpg","37","restless",0.5,0.8,0.5,0.422041430294343,"true"
"image-keyboard-response",412,338051,"0.0-4.133-1.133","8z9qx3z0pcwosp5",263,"57.csv","","null","resources/maskTrios/L1BB.jpg","null","",NA,NA,NA,NA,""
"image-keyboard-response",413,339261,"0.0-4.133-2.133","8z9qx3z0pcwosp5",263,"57.csv","","null","resources/images/coin2.png","null","",NA,NA,NA,NA,""
"image-keyboard-response",414,339578,"0.0-4.134-0.134","8z9qx3z0pcwosp5",263,"57.csv","","309.30000019073486","resources/trios/L1T2A3.jpg","37","restless",0.5,0.8,0.5,0.584174460319576,"false"
"image-keyboard-response",415,339989,"0.0-4.134-1.134","8z9qx3z0pcwosp5",263,"57.csv","","null","resources/maskTrios/L1BB.jpg","null","",NA,NA,NA,NA,""
"image-keyboard-response",416,341200,"0.0-4.134-2.134","8z9qx3z0pcwosp5",263,"57.csv","","null","resources/images/fishbone.png","null","",NA,NA,NA,NA,""
"image-keyboard-response",417,341352,"0.0-4.135-0.135","8z9qx3z0pcwosp5",263,"57.csv","","149.40000009536743","resources/trios/L1T2A3.jpg","37","restless",0.5,0.8,0.5,0.625358852705528,"false"
"image-keyboard-response",418,341770,"0.0-4.135-1.135","8z9qx3z0pcwosp5",263,"57.csv","","null","resources/maskTrios/L1BB.jpg","null","",NA,NA,NA,NA,""
"image-keyboard-response",419,342973,"0.0-4.135-2.135","8z9qx3z0pcwosp5",263,"57.csv","","null","resources/images/fishbone.png","null","",NA,NA,NA,NA,""
"image-keyboard-response",420,343163,"0.0-4.136-0.136","8z9qx3z0pcwosp5",263,"57.csv","","186.7000002861023","resources/trios/L1T2A3.jpg","38","restless",0.5,0.8,0.5,0.885352492703437,"false"
"image-keyboard-response",421,343579,"0.0-4.136-1.136","8z9qx3z0pcwosp5",263,"57.csv","","null","resources/maskTrios/BT2B.jpg","null","",NA,NA,NA,NA,""
"image-keyboard-response",422,344786,"0.0-4.136-2.136","8z9qx3z0pcwosp5",263,"57.csv","","null","resources/images/fishbone.png","null","",NA,NA,NA,NA,""
"image-keyboard-response",423,345332,"0.0-4.137-0.137","8z9qx3z0pcwosp5",263,"57.csv","","544.1999998092651","resources/trios/L1T2A3.jpg","38","restless",0.6,0.8,0.5,0.660531681162961,"true"
"image-keyboard-response",424,345748,"0.0-4.137-1.137","8z9qx3z0pcwosp5",263,"57.csv","","null","resources/maskTrios/BT2B.jpg","null","",NA,NA,NA,NA,""
"image-keyboard-response",425,346956,"0.0-4.137-2.137","8z9qx3z0pcwosp5",263,"57.csv","","null","resources/images/coin2.png","null","",NA,NA,NA,NA,""
"image-keyboard-response",426,347029,"0.0-4.138-0.138","8z9qx3z0pcwosp5",263,"57.csv","","70","resources/trios/L1T2A3.jpg","38","restless",0.6,0.8,0.5,0.268786959610367,"true"
"image-keyboard-response",427,347432,"0.0-4.138-1.138","8z9qx3z0pcwosp5",263,"57.csv","","null","resources/maskTrios/BT2B.jpg","null","",NA,NA,NA,NA,""
"image-keyboard-response",428,348650,"0.0-4.138-2.138","8z9qx3z0pcwosp5",263,"57.csv","","null","resources/images/coin2.png","null","",NA,NA,NA,NA,""
"image-keyboard-response",429,348748,"0.0-4.139-0.139","8z9qx3z0pcwosp5",263,"57.csv","","95.7000002861023","resources/trios/L1T2A3.jpg","39","restless",0.6,0.8,0.5,0.049978478306627,"true"
"image-keyboard-response",430,349161,"0.0-4.139-1.139","8z9qx3z0pcwosp5",263,"57.csv","","null","resources/maskTrios/BBA3.jpg","null","",NA,NA,NA,NA,""
"image-keyboard-response",431,350366,"0.0-4.139-2.139","8z9qx3z0pcwosp5",263,"57.csv","","null","resources/images/coin2.png","null","",NA,NA,NA,NA,""
"image-keyboard-response",432,350421,"0.0-4.140-0.140","8z9qx3z0pcwosp5",263,"57.csv","","52.69999980926514","resources/trios/L1T2A3.jpg","39","restless",0.6,0.8,0.5,0.919902447443854,"false"
"image-keyboard-response",433,350830,"0.0-4.140-1.140","8z9qx3z0pcwosp5",263,"57.csv","","null","resources/maskTrios/BBA3.jpg","null","",NA,NA,NA,NA,""
"image-keyboard-response",434,352048,"0.0-4.140-2.140","8z9qx3z0pcwosp5",263,"57.csv","","null","resources/images/fishbone.png","null","",NA,NA,NA,NA,""
"image-keyboard-response",435,352075,"0.0-4.141-0.141","8z9qx3z0pcwosp5",263,"57.csv","","24.59999990463257","resources/trios/L1T2A3.jpg","38","restless",0.6,0.8,0.5,0.341187421245499,"true"
"image-keyboard-response",436,352481,"0.0-4.141-1.141","8z9qx3z0pcwosp5",263,"57.csv","","null","resources/maskTrios/BT2B.jpg","null","",NA,NA,NA,NA,""
"image-keyboard-response",437,353692,"0.0-4.141-2.141","8z9qx3z0pcwosp5",263,"57.csv","","null","resources/images/coin2.png","null","",NA,NA,NA,NA,""
"image-keyboard-response",438,353738,"0.0-4.142-0.142","8z9qx3z0pcwosp5",263,"57.csv","","43","resources/trios/L1T2A3.jpg","38","restless",0.6,0.8,0.5,0.20792979013832,"true"
"image-keyboard-response",439,354149,"0.0-4.142-1.142","8z9qx3z0pcwosp5",263,"57.csv","","null","resources/maskTrios/BT2B.jpg","null","",NA,NA,NA,NA,""
"image-keyboard-response",440,355364,"0.0-4.142-2.142","8z9qx3z0pcwosp5",263,"57.csv","","null","resources/images/coin2.png","null","",NA,NA,NA,NA,""
"image-keyboard-response",441,355591,"0.0-4.143-0.143","8z9qx3z0pcwosp5",263,"57.csv","","224.5","resources/trios/L1T2A3.jpg","37","restless",0.6,0.7,0.5,0.602489335924549,"false"
"image-keyboard-response",442,356009,"0.0-4.143-1.143","8z9qx3z0pcwosp5",263,"57.csv","","null","resources/maskTrios/L1BB.jpg","null","",NA,NA,NA,NA,""
"image-keyboard-response",443,357215,"0.0-4.143-2.143","8z9qx3z0pcwosp5",263,"57.csv","","null","resources/images/fishbone.png","null","",NA,NA,NA,NA,""
"image-keyboard-response",444,357314,"0.0-4.144-0.144","8z9qx3z0pcwosp5",263,"57.csv","","95.90000009536743","resources/trios/L1T2A3.jpg","38","restless",0.5,0.7,0.5,0.79229125685203,"false"
"image-keyboard-response",445,357721,"0.0-4.144-1.144","8z9qx3z0pcwosp5",263,"57.csv","","null","resources/maskTrios/BT2B.jpg","null","",NA,NA,NA,NA,""
"image-keyboard-response",446,358925,"0.0-4.144-2.144","8z9qx3z0pcwosp5",263,"57.csv","","null","resources/images/fishbone.png","null","",NA,NA,NA,NA,""
"image-keyboard-response",447,359238,"0.0-4.145-0.145","8z9qx3z0pcwosp5",263,"57.csv","","309.7999997138977","resources/trios/L1T2A3.jpg","38","restless",0.5,0.7,0.5,0.782386560999157,"false"
"image-keyboard-response",448,359653,"0.0-4.145-1.145","8z9qx3z0pcwosp5",263,"57.csv","","null","resources/maskTrios/BT2B.jpg","null","",NA,NA,NA,NA,""
"image-keyboard-response",449,360869,"0.0-4.145-2.145","8z9qx3z0pcwosp5",263,"57.csv","","null","resources/images/fishbone.png","null","",NA,NA,NA,NA,""
"image-keyboard-response",450,361017,"0.0-4.146-0.146","8z9qx3z0pcwosp5",263,"57.csv","","146","resources/trios/L1T2A3.jpg","37","restless",0.5,0.7,0.6,0.660862641398012,"false"
"image-keyboard-response",451,361429,"0.0-4.146-1.146","8z9qx3z0pcwosp5",263,"57.csv","","null","resources/maskTrios/L1BB.jpg","null","",NA,NA,NA,NA,""
"image-keyboard-response",452,362632,"0.0-4.146-2.146","8z9qx3z0pcwosp5",263,"57.csv","","null","resources/images/fishbone.png","null","",NA,NA,NA,NA,""
"image-keyboard-response",453,362664,"0.0-4.147-0.147","8z9qx3z0pcwosp5",263,"57.csv","","30.100000381469727","resources/trios/L1T2A3.jpg","37","restless",0.5,0.7,0.6,0.305641655088289,"true"
"image-keyboard-response",454,363068,"0.0-4.147-1.147","8z9qx3z0pcwosp5",263,"57.csv","","null","resources/maskTrios/L1BB.jpg","null","",NA,NA,NA,NA,""
"image-keyboard-response",455,364286,"0.0-4.147-2.147","8z9qx3z0pcwosp5",263,"57.csv","","null","resources/images/coin2.png","null","",NA,NA,NA,NA,""
"image-keyboard-response",456,364659,"0.0-4.148-0.148","8z9qx3z0pcwosp5",263,"57.csv","","371","resources/trios/L1T2A3.jpg","37","restless",0.5,0.7,0.6,0.341124388660784,"true"
"image-keyboard-response",457,365067,"0.0-4.148-1.148","8z9qx3z0pcwosp5",263,"57.csv","","null","resources/maskTrios/L1BB.jpg","null","",NA,NA,NA,NA,""
"image-keyboard-response",458,366291,"0.0-4.148-2.148","8z9qx3z0pcwosp5",263,"57.csv","","null","resources/images/coin2.png","null","",NA,NA,NA,NA,""
"image-keyboard-response",459,366826,"0.0-4.149-0.149","8z9qx3z0pcwosp5",263,"57.csv","","531.9000000953674","resources/trios/L1T2A3.jpg","39","restless",0.5,0.7,0.6,0.306197782476532,"true"
"image-keyboard-response",460,367232,"0.0-4.149-1.149","8z9qx3z0pcwosp5",263,"57.csv","","null","resources/maskTrios/BBA3.jpg","null","",NA,NA,NA,NA,""
"image-keyboard-response",461,368442,"0.0-4.149-2.149","8z9qx3z0pcwosp5",263,"57.csv","","null","resources/images/coin2.png","null","",NA,NA,NA,NA,""
"image-keyboard-response",462,368724,"0.0-4.150-0.150","8z9qx3z0pcwosp5",263,"57.csv","","279.8999996185303","resources/trios/L1T2A3.jpg","39","restless",0.5,0.7,0.6,0.789063292025906,"false"
"image-keyboard-response",463,369131,"0.0-4.150-1.150","8z9qx3z0pcwosp5",263,"57.csv","","null","resources/maskTrios/BBA3.jpg","null","",NA,NA,NA,NA,""
"image-keyboard-response",464,370343,"0.0-4.150-2.150","8z9qx3z0pcwosp5",263,"57.csv","","null","resources/images/fishbone.png","null","",NA,NA,NA,NA,""
"image-keyboard-response",465,370428,"0.0-4.151-0.151","8z9qx3z0pcwosp5",263,"57.csv","","81.7000002861023","resources/trios/L1T2A3.jpg","39","restless",0.5,0.7,0.6,0.541466038900704,"true"
"image-keyboard-response",466,370834,"0.0-4.151-1.151","8z9qx3z0pcwosp5",263,"57.csv","","null","resources/maskTrios/BBA3.jpg","null","",NA,NA,NA,NA,""
"image-keyboard-response",467,372043,"0.0-4.151-2.151","8z9qx3z0pcwosp5",263,"57.csv","","null","resources/images/coin2.png","null","",NA,NA,NA,NA,""
"image-keyboard-response",468,372202,"0.0-4.152-0.152","8z9qx3z0pcwosp5",263,"57.csv","","155.40000009536743","resources/trios/L1T2A3.jpg","38","restless",0.5,0.7,0.6,0.211151405490757,"true"
"image-keyboard-response",469,372610,"0.0-4.152-1.152","8z9qx3z0pcwosp5",263,"57.csv","","null","resources/maskTrios/BT2B.jpg","null","",NA,NA,NA,NA,""
"image-keyboard-response",470,373818,"0.0-4.152-2.152","8z9qx3z0pcwosp5",263,"57.csv","","null","resources/images/coin2.png","null","",NA,NA,NA,NA,""
"image-keyboard-response",471,373967,"0.0-4.153-0.153","8z9qx3z0pcwosp5",263,"57.csv","","146","resources/trios/L1T2A3.jpg","38","restless",0.5,0.7,0.5,0.605022000931384,"true"
"image-keyboard-response",472,374382,"0.0-4.153-1.153","8z9qx3z0pcwosp5",263,"57.csv","","null","resources/maskTrios/BT2B.jpg","null","",NA,NA,NA,NA,""
"image-keyboard-response",473,375598,"0.0-4.153-2.153","8z9qx3z0pcwosp5",263,"57.csv","","null","resources/images/coin2.png","null","",NA,NA,NA,NA,""
"image-keyboard-response",474,375697,"0.0-4.154-0.154","8z9qx3z0pcwosp5",263,"57.csv","","96.80000019073486","resources/trios/L1T2A3.jpg","39","restless",0.5,0.7,0.5,0.788396506237423,"false"
"image-keyboard-response",475,376101,"0.0-4.154-1.154","8z9qx3z0pcwosp5",263,"57.csv","","null","resources/maskTrios/BBA3.jpg","null","",NA,NA,NA,NA,""
"image-keyboard-response",476,377319,"0.0-4.154-2.154","8z9qx3z0pcwosp5",263,"57.csv","","null","resources/images/fishbone.png","null","",NA,NA,NA,NA,""
"image-keyboard-response",477,377787,"0.0-4.155-0.155","8z9qx3z0pcwosp5",263,"57.csv","","467","resources/trios/L1T2A3.jpg","39","restless",0.5,0.7,0.5,0.382225092802066,"true"
"image-keyboard-response",478,378199,"0.0-4.155-1.155","8z9qx3z0pcwosp5",263,"57.csv","","null","resources/maskTrios/BBA3.jpg","null","",NA,NA,NA,NA,""
"image-keyboard-response",479,379403,"0.0-4.155-2.155","8z9qx3z0pcwosp5",263,"57.csv","","null","resources/images/coin2.png","null","",NA,NA,NA,NA,""
"image-keyboard-response",480,379494,"0.0-4.156-0.156","8z9qx3z0pcwosp5",263,"57.csv","","87.90000009536743","resources/trios/L1T2A3.jpg","39","restless",0.5,0.6,0.5,0.563842069856867,"false"
"image-keyboard-response",481,379901,"0.0-4.156-1.156","8z9qx3z0pcwosp5",263,"57.csv","","null","resources/maskTrios/BBA3.jpg","null","",NA,NA,NA,NA,""
"image-keyboard-response",482,381107,"0.0-4.156-2.156","8z9qx3z0pcwosp5",263,"57.csv","","null","resources/images/fishbone.png","null","",NA,NA,NA,NA,""
"image-keyboard-response",483,381233,"0.0-4.157-0.157","8z9qx3z0pcwosp5",263,"57.csv","","124.5","resources/trios/L1T2A3.jpg","38","restless",0.5,0.6,0.6,0.590066095348595,"true"
"image-keyboard-response",484,381636,"0.0-4.157-1.157","8z9qx3z0pcwosp5",263,"57.csv","","null","resources/maskTrios/BT2B.jpg","null","",NA,NA,NA,NA,""
"image-keyboard-response",485,382841,"0.0-4.157-2.157","8z9qx3z0pcwosp5",263,"57.csv","","null","resources/images/coin2.png","null","",NA,NA,NA,NA,""
"image-keyboard-response",486,383055,"0.0-4.158-0.158","8z9qx3z0pcwosp5",263,"57.csv","","213.19999980926514","resources/trios/L1T2A3.jpg","37","restless",0.6,0.6,0.6,0.844151392303772,"false"
"image-keyboard-response",487,383474,"0.0-4.158-1.158","8z9qx3z0pcwosp5",263,"57.csv","","null","resources/maskTrios/L1BB.jpg","null","",NA,NA,NA,NA,""
"image-keyboard-response",488,384679,"0.0-4.158-2.158","8z9qx3z0pcwosp5",263,"57.csv","","null","resources/images/fishbone.png","null","",NA,NA,NA,NA,""
"image-keyboard-response",489,384924,"0.0-4.159-0.159","8z9qx3z0pcwosp5",263,"57.csv","","241.40000009536743","resources/trios/L1T2A3.jpg","38","restless",0.6,0.7,0.6,0.394993042177982,"true"
"image-keyboard-response",490,385337,"0.0-4.159-1.159","8z9qx3z0pcwosp5",263,"57.csv","","null","resources/maskTrios/BT2B.jpg","null","",NA,NA,NA,NA,""
"image-keyboard-response",491,386549,"0.0-4.159-2.159","8z9qx3z0pcwosp5",263,"57.csv","","null","resources/images/coin2.png","null","",NA,NA,NA,NA,""
"image-keyboard-response",492,386963,"0.0-4.160-0.160","8z9qx3z0pcwosp5",263,"57.csv","","411.40000009536743","resources/trios/L1T2A3.jpg","37","restless",0.6,0.7,0.6,0.670287614377049,"false"
"image-keyboard-response",493,387376,"0.0-4.160-1.160","8z9qx3z0pcwosp5",263,"57.csv","","null","resources/maskTrios/L1BB.jpg","null","",NA,NA,NA,NA,""
"image-keyboard-response",494,388594,"0.0-4.160-2.160","8z9qx3z0pcwosp5",263,"57.csv","","null","resources/images/fishbone.png","null","",NA,NA,NA,NA,""
"image-keyboard-response",495,388608,"0.0-4.161-0.161","8z9qx3z0pcwosp5",263,"57.csv","","10.900000095367432","resources/trios/L1T2A3.jpg","39","restless",0.6,0.6,0.6,0.2249048521956,"true"
"image-keyboard-response",496,389015,"0.0-4.161-1.161","8z9qx3z0pcwosp5",263,"57.csv","","null","resources/maskTrios/BBA3.jpg","null","",NA,NA,NA,NA,""
"image-keyboard-response",497,390223,"0.0-4.161-2.161","8z9qx3z0pcwosp5",263,"57.csv","","null","resources/images/coin2.png","null","",NA,NA,NA,NA,""
"image-keyboard-response",498,390559,"0.0-4.162-0.162","8z9qx3z0pcwosp5",263,"57.csv","","335.09999990463257","resources/trios/L1T2A3.jpg","38","restless",0.6,0.6,0.6,0.639032877413847,"false"
"image-keyboard-response",499,390975,"0.0-4.162-1.162","8z9qx3z0pcwosp5",263,"57.csv","","null","resources/maskTrios/BT2B.jpg","null","",NA,NA,NA,NA,""
"image-keyboard-response",500,392186,"0.0-4.162-2.162","8z9qx3z0pcwosp5",263,"57.csv","","null","resources/images/fishbone.png","null","",NA,NA,NA,NA,""
"image-keyboard-response",501,392443,"0.0-4.163-0.163","8z9qx3z0pcwosp5",263,"57.csv","","254.60000038146973","resources/trios/L1T2A3.jpg","38","restless",0.6,0.6,0.7,0.528910994715841,"true"
"image-keyboard-response",502,392849,"0.0-4.163-1.163","8z9qx3z0pcwosp5",263,"57.csv","","null","resources/maskTrios/BT2B.jpg","null","",NA,NA,NA,NA,""
"image-keyboard-response",503,394057,"0.0-4.163-2.163","8z9qx3z0pcwosp5",263,"57.csv","","null","resources/images/coin2.png","null","",NA,NA,NA,NA,""
"image-keyboard-response",504,394145,"0.0-4.164-0.164","8z9qx3z0pcwosp5",263,"57.csv","","84.59999990463257","resources/trios/L1T2A3.jpg","39","restless",0.6,0.6,0.7,0.0662915674552131,"true"
"image-keyboard-response",505,394555,"0.0-4.164-1.164","8z9qx3z0pcwosp5",263,"57.csv","","null","resources/maskTrios/BBA3.jpg","null","",NA,NA,NA,NA,""
"image-keyboard-response",506,395768,"0.0-4.164-2.164","8z9qx3z0pcwosp5",263,"57.csv","","null","resources/images/coin2.png","null","",NA,NA,NA,NA,""
"image-keyboard-response",507,396059,"0.0-4.165-0.165","8z9qx3z0pcwosp5",263,"57.csv","","289","resources/trios/L1T2A3.jpg","38","restless",0.6,0.7,0.7,0.0658054859151278,"true"
"image-keyboard-response",508,396475,"0.0-4.165-1.165","8z9qx3z0pcwosp5",263,"57.csv","","null","resources/maskTrios/BT2B.jpg","null","",NA,NA,NA,NA,""
"image-keyboard-response",509,397685,"0.0-4.165-2.165","8z9qx3z0pcwosp5",263,"57.csv","","null","resources/images/coin2.png","null","",NA,NA,NA,NA,""
"image-keyboard-response",510,397753,"0.0-4.166-0.166","8z9qx3z0pcwosp5",263,"57.csv","","65.2999997138977","resources/trios/L1T2A3.jpg","39","restless",0.5,0.7,0.7,0.535044910189814,"true"
"image-keyboard-response",511,398170,"0.0-4.166-1.166","8z9qx3z0pcwosp5",263,"57.csv","","null","resources/maskTrios/BBA3.jpg","null","",NA,NA,NA,NA,""
"image-keyboard-response",512,399379,"0.0-4.166-2.166","8z9qx3z0pcwosp5",263,"57.csv","","null","resources/images/coin2.png","null","",NA,NA,NA,NA,""
"image-keyboard-response",513,399534,"0.0-4.167-0.167","8z9qx3z0pcwosp5",263,"57.csv","","151.89999961853027","resources/trios/L1T2A3.jpg","38","restless",0.5,0.7,0.7,0.00489051937254215,"true"
"image-keyboard-response",514,399944,"0.0-4.167-1.167","8z9qx3z0pcwosp5",263,"57.csv","","null","resources/maskTrios/BT2B.jpg","null","",NA,NA,NA,NA,""
"image-keyboard-response",515,401149,"0.0-4.167-2.167","8z9qx3z0pcwosp5",263,"57.csv","","null","resources/images/coin2.png","null","",NA,NA,NA,NA,""
"image-keyboard-response",516,401183,"0.0-4.168-0.168","8z9qx3z0pcwosp5",263,"57.csv","","31.100000381469727","resources/trios/L1T2A3.jpg","38","restless",0.5,0.7,0.7,0.886928862530026,"false"
"image-keyboard-response",517,401592,"0.0-4.168-1.168","8z9qx3z0pcwosp5",263,"57.csv","","null","resources/maskTrios/BT2B.jpg","null","",NA,NA,NA,NA,""
"image-keyboard-response",518,402804,"0.0-4.168-2.168","8z9qx3z0pcwosp5",263,"57.csv","","null","resources/images/fishbone.png","null","",NA,NA,NA,NA,""
"image-keyboard-response",519,403305,"0.0-4.169-0.169","8z9qx3z0pcwosp5",263,"57.csv","","496.7000002861023","resources/trios/L1T2A3.jpg","38","restless",0.4,0.7,0.7,0.167979941373636,"true"
"image-keyboard-response",520,403719,"0.0-4.169-1.169","8z9qx3z0pcwosp5",263,"57.csv","","null","resources/maskTrios/BT2B.jpg","null","",NA,NA,NA,NA,""
"image-keyboard-response",521,404933,"0.0-4.169-2.169","8z9qx3z0pcwosp5",263,"57.csv","","null","resources/images/coin2.png","null","",NA,NA,NA,NA,""
"image-keyboard-response",522,405242,"0.0-4.170-0.170","8z9qx3z0pcwosp5",263,"57.csv","","307.69999980926514","resources/trios/L1T2A3.jpg","37","restless",0.4,0.7,0.7,0.00922099051133451,"true"
"image-keyboard-response",523,405648,"0.0-4.170-1.170","8z9qx3z0pcwosp5",263,"57.csv","","null","resources/maskTrios/L1BB.jpg","null","",NA,NA,NA,NA,""
"image-keyboard-response",524,406866,"0.0-4.170-2.170","8z9qx3z0pcwosp5",263,"57.csv","","null","resources/images/coin2.png","null","",NA,NA,NA,NA,""
"image-keyboard-response",525,407173,"0.0-4.171-0.171","8z9qx3z0pcwosp5",263,"57.csv","","305.40000009536743","resources/trios/L1T2A3.jpg","38","restless",0.4,0.7,0.7,0.724744267966257,"false"
"image-keyboard-response",526,407586,"0.0-4.171-1.171","8z9qx3z0pcwosp5",263,"57.csv","","null","resources/maskTrios/BT2B.jpg","null","",NA,NA,NA,NA,""
"image-keyboard-response",527,408792,"0.0-4.171-2.171","8z9qx3z0pcwosp5",263,"57.csv","","null","resources/images/fishbone.png","null","",NA,NA,NA,NA,""
"image-keyboard-response",528,409085,"0.0-4.172-0.172","8z9qx3z0pcwosp5",263,"57.csv","","290.19999980926514","resources/trios/L1T2A3.jpg","38","restless",0.4,0.7,0.7,0.0369428858168734,"true"
"image-keyboard-response",529,409502,"0.0-4.172-1.172","8z9qx3z0pcwosp5",263,"57.csv","","null","resources/maskTrios/BT2B.jpg","null","",NA,NA,NA,NA,""
"image-keyboard-response",530,410715,"0.0-4.172-2.172","8z9qx3z0pcwosp5",263,"57.csv","","null","resources/images/coin2.png","null","",NA,NA,NA,NA,""
"image-keyboard-response",531,410827,"0.0-4.173-0.173","8z9qx3z0pcwosp5",263,"57.csv","","109.30000019073486","resources/trios/L1T2A3.jpg","37","restless",0.3,0.6,0.7,0.685176716642352,"false"
"image-keyboard-response",532,411245,"0.0-4.173-1.173","8z9qx3z0pcwosp5",263,"57.csv","","null","resources/maskTrios/L1BB.jpg","null","",NA,NA,NA,NA,""
"image-keyboard-response",533,412449,"0.0-4.173-2.173","8z9qx3z0pcwosp5",263,"57.csv","","null","resources/images/fishbone.png","null","",NA,NA,NA,NA,""
"image-keyboard-response",534,412783,"0.0-4.174-0.174","8z9qx3z0pcwosp5",263,"57.csv","","331.69999980926514","resources/trios/L1T2A3.jpg","37","restless",0.3,0.5,0.7,0.0264423935663831,"true"
"image-keyboard-response",535,413192,"0.0-4.174-1.174","8z9qx3z0pcwosp5",263,"57.csv","","null","resources/maskTrios/L1BB.jpg","null","",NA,NA,NA,NA,""
"image-keyboard-response",536,414407,"0.0-4.174-2.174","8z9qx3z0pcwosp5",263,"57.csv","","null","resources/images/coin2.png","null","",NA,NA,NA,NA,""
"image-keyboard-response",537,414697,"0.0-4.175-0.175","8z9qx3z0pcwosp5",263,"57.csv","","288","resources/trios/L1T2A3.jpg","39","restless",0.2,0.5,0.7,0.285885032250694,"true"
"image-keyboard-response",538,415103,"0.0-4.175-1.175","8z9qx3z0pcwosp5",263,"57.csv","","null","resources/maskTrios/BBA3.jpg","null","",NA,NA,NA,NA,""
"image-keyboard-response",539,416313,"0.0-4.175-2.175","8z9qx3z0pcwosp5",263,"57.csv","","null","resources/images/coin2.png","null","",NA,NA,NA,NA,""
"image-keyboard-response",540,416732,"0.0-4.176-0.176","8z9qx3z0pcwosp5",263,"57.csv","","417","resources/trios/L1T2A3.jpg","39","restless",0.2,0.5,0.7,0.18139333323708,"true"
"image-keyboard-response",541,417136,"0.0-4.176-1.176","8z9qx3z0pcwosp5",263,"57.csv","","null","resources/maskTrios/BBA3.jpg","null","",NA,NA,NA,NA,""
"image-keyboard-response",542,418346,"0.0-4.176-2.176","8z9qx3z0pcwosp5",263,"57.csv","","null","resources/images/coin2.png","null","",NA,NA,NA,NA,""
"image-keyboard-response",543,418848,"0.0-4.177-0.177","8z9qx3z0pcwosp5",263,"57.csv","","499.7999997138977","resources/trios/L1T2A3.jpg","38","restless",0.2,0.5,0.7,0.259232274286733,"true"
"image-keyboard-response",544,419262,"0.0-4.177-1.177","8z9qx3z0pcwosp5",263,"57.csv","","null","resources/maskTrios/BT2B.jpg","null","",NA,NA,NA,NA,""
"image-keyboard-response",545,420471,"0.0-4.177-2.177","8z9qx3z0pcwosp5",263,"57.csv","","null","resources/images/coin2.png","null","",NA,NA,NA,NA,""
"image-keyboard-response",546,420515,"0.0-4.178-0.178","8z9qx3z0pcwosp5",263,"57.csv","","41","resources/trios/L1T2A3.jpg","38","restless",0.2,0.5,0.7,0.530314518653175,"false"
"image-keyboard-response",547,420920,"0.0-4.178-1.178","8z9qx3z0pcwosp5",263,"57.csv","","null","resources/maskTrios/BT2B.jpg","null","",NA,NA,NA,NA,""
"image-keyboard-response",548,422130,"0.0-4.178-2.178","8z9qx3z0pcwosp5",263,"57.csv","","null","resources/images/fishbone.png","null","",NA,NA,NA,NA,""
"image-keyboard-response",549,422536,"0.0-4.179-0.179","8z9qx3z0pcwosp5",263,"57.csv","","404.40000009536743","resources/trios/L1T2A3.jpg","37","restless",0.2,0.5,0.7,0.565828717790121,"false"
"image-keyboard-response",550,422950,"0.0-4.179-1.179","8z9qx3z0pcwosp5",263,"57.csv","","null","resources/maskTrios/L1BB.jpg","null","",NA,NA,NA,NA,""
"image-keyboard-response",551,424157,"0.0-4.179-2.179","8z9qx3z0pcwosp5",263,"57.csv","","null","resources/images/fishbone.png","null","",NA,NA,NA,NA,""
"image-keyboard-response",552,424241,"0.0-4.180-0.180","8z9qx3z0pcwosp5",263,"57.csv","","80.7999997138977","resources/trios/L1T2A3.jpg","37","restless",0.1,0.5,0.7,0.591040003530025,"false"
"image-keyboard-response",553,424657,"0.0-4.180-1.180","8z9qx3z0pcwosp5",263,"57.csv","","null","resources/maskTrios/L1BB.jpg","null","",NA,NA,NA,NA,""
"image-keyboard-response",554,425868,"0.0-4.180-2.180","8z9qx3z0pcwosp5",263,"57.csv","","null","resources/images/fishbone.png","null","",NA,NA,NA,NA,""
"image-keyboard-response",555,425956,"0.0-4.181-0.181","8z9qx3z0pcwosp5",263,"57.csv","","86.09999990463257","resources/trios/L1T2A3.jpg","38","restless",0.1,0.5,0.7,0.891440152689027,"false"
"image-keyboard-response",556,426359,"0.0-4.181-1.181","8z9qx3z0pcwosp5",263,"57.csv","","null","resources/maskTrios/BT2B.jpg","null","",NA,NA,NA,NA,""
"image-keyboard-response",557,427564,"0.0-4.181-2.181","8z9qx3z0pcwosp5",263,"57.csv","","null","resources/images/fishbone.png","null","",NA,NA,NA,NA,""
"image-keyboard-response",558,427710,"0.0-4.182-0.182","8z9qx3z0pcwosp5",263,"57.csv","","143","resources/trios/L1T2A3.jpg","38","restless",0.1,0.5,0.7,0.212915352630595,"true"
"image-keyboard-response",559,428117,"0.0-4.182-1.182","8z9qx3z0pcwosp5",263,"57.csv","","null","resources/maskTrios/BT2B.jpg","null","",NA,NA,NA,NA,""
"image-keyboard-response",560,429329,"0.0-4.182-2.182","8z9qx3z0pcwosp5",263,"57.csv","","null","resources/images/coin2.png","null","",NA,NA,NA,NA,""
"image-keyboard-response",561,429489,"0.0-4.183-0.183","8z9qx3z0pcwosp5",263,"57.csv","","156.19999980926514","resources/trios/L1T2A3.jpg","38","restless",0.1,0.6,0.7,0.383170939820144,"true"
"image-keyboard-response",562,429895,"0.0-4.183-1.183","8z9qx3z0pcwosp5",263,"57.csv","","null","resources/maskTrios/BT2B.jpg","null","",NA,NA,NA,NA,""
"image-keyboard-response",563,431105,"0.0-4.183-2.183","8z9qx3z0pcwosp5",263,"57.csv","","null","resources/images/coin2.png","null","",NA,NA,NA,NA,""
"image-keyboard-response",564,431362,"0.0-4.184-0.184","8z9qx3z0pcwosp5",263,"57.csv","","253.7000002861023","resources/trios/L1T2A3.jpg","38","restless",0.1,0.6,0.7,0.778588191941281,"false"
"image-keyboard-response",565,431767,"0.0-4.184-1.184","8z9qx3z0pcwosp5",263,"57.csv","","null","resources/maskTrios/BT2B.jpg","null","",NA,NA,NA,NA,""
"image-keyboard-response",566,432971,"0.0-4.184-2.184","8z9qx3z0pcwosp5",263,"57.csv","","null","resources/images/fishbone.png","null","",NA,NA,NA,NA,""
"image-keyboard-response",567,433020,"0.0-4.185-0.185","8z9qx3z0pcwosp5",263,"57.csv","","46.5","resources/trios/L1T2A3.jpg","39","restless",0.1,0.6,0.7,0.273562015174945,"true"
"image-keyboard-response",568,433434,"0.0-4.185-1.185","8z9qx3z0pcwosp5",263,"57.csv","","null","resources/maskTrios/BBA3.jpg","null","",NA,NA,NA,NA,""
"image-keyboard-response",569,434643,"0.0-4.185-2.185","8z9qx3z0pcwosp5",263,"57.csv","","null","resources/images/coin2.png","null","",NA,NA,NA,NA,""
"image-keyboard-response",570,434889,"0.0-4.186-0.186","8z9qx3z0pcwosp5",263,"57.csv","","245.09999990463257","resources/trios/L1T2A3.jpg","39","restless",0.1,0.6,0.7,0.226302444123211,"true"
"image-keyboard-response",571,435297,"0.0-4.186-1.186","8z9qx3z0pcwosp5",263,"57.csv","","null","resources/maskTrios/BBA3.jpg","null","",NA,NA,NA,NA,""
"image-keyboard-response",572,436501,"0.0-4.186-2.186","8z9qx3z0pcwosp5",263,"57.csv","","null","resources/images/coin2.png","null","",NA,NA,NA,NA,""
"image-keyboard-response",573,436595,"0.0-4.187-0.187","8z9qx3z0pcwosp5",263,"57.csv","","90.09999990463257","resources/trios/L1T2A3.jpg","37","restless",0.1,0.6,0.7,0.891446106266393,"false"
"image-keyboard-response",574,437006,"0.0-4.187-1.187","8z9qx3z0pcwosp5",263,"57.csv","","null","resources/maskTrios/L1BB.jpg","null","",NA,NA,NA,NA,""
"image-keyboard-response",575,438218,"0.0-4.187-2.187","8z9qx3z0pcwosp5",263,"57.csv","","null","resources/images/fishbone.png","null","",NA,NA,NA,NA,""
"image-keyboard-response",576,438362,"0.0-4.188-0.188","8z9qx3z0pcwosp5",263,"57.csv","","141.5","resources/trios/L1T2A3.jpg","39","restless",0.1,0.6,0.7,0.950595481286926,"false"
"image-keyboard-response",577,438771,"0.0-4.188-1.188","8z9qx3z0pcwosp5",263,"57.csv","","null","resources/maskTrios/BBA3.jpg","null","",NA,NA,NA,NA,""
"image-keyboard-response",578,439979,"0.0-4.188-2.188","8z9qx3z0pcwosp5",263,"57.csv","","null","resources/images/fishbone.png","null","",NA,NA,NA,NA,""
"image-keyboard-response",579,440161,"0.0-4.189-0.189","8z9qx3z0pcwosp5",263,"57.csv","","178.09999990463257","resources/trios/L1T2A3.jpg","38","restless",0.1,0.5,0.7,0.329929126882482,"true"
"image-keyboard-response",580,440571,"0.0-4.189-1.189","8z9qx3z0pcwosp5",263,"57.csv","","null","resources/maskTrios/BT2B.jpg","null","",NA,NA,NA,NA,""
"image-keyboard-response",581,441790,"0.0-4.189-2.189","8z9qx3z0pcwosp5",263,"57.csv","","null","resources/images/coin2.png","null","",NA,NA,NA,NA,""
"image-keyboard-response",582,442146,"0.0-4.190-0.190","8z9qx3z0pcwosp5",263,"57.csv","","354.19999980926514","resources/trios/L1T2A3.jpg","38","restless",0.1,0.4,0.7,0.599825954236327,"false"
"image-keyboard-response",583,442561,"0.0-4.190-1.190","8z9qx3z0pcwosp5",263,"57.csv","","null","resources/maskTrios/BT2B.jpg","null","",NA,NA,NA,NA,""
"image-keyboard-response",584,443772,"0.0-4.190-2.190","8z9qx3z0pcwosp5",263,"57.csv","","null","resources/images/fishbone.png","null","",NA,NA,NA,NA,""
"image-keyboard-response",585,444100,"0.0-4.191-0.191","8z9qx3z0pcwosp5",263,"57.csv","","325.09999990463257","resources/trios/L1T2A3.jpg","39","restless",0.1,0.4,0.7,0.19587708505806,"true"
"image-keyboard-response",586,444511,"0.0-4.191-1.191","8z9qx3z0pcwosp5",263,"57.csv","","null","resources/maskTrios/BBA3.jpg","null","",NA,NA,NA,NA,""
"image-keyboard-response",587,445724,"0.0-4.191-2.191","8z9qx3z0pcwosp5",263,"57.csv","","null","resources/images/coin2.png","null","",NA,NA,NA,NA,""
"image-keyboard-response",588,445818,"0.0-4.192-0.192","8z9qx3z0pcwosp5",263,"57.csv","","92","resources/trios/L1T2A3.jpg","39","restless",0.2,0.4,0.7,0.0311678531835686,"true"
"image-keyboard-response",589,446230,"0.0-4.192-1.192","8z9qx3z0pcwosp5",263,"57.csv","","null","resources/maskTrios/BBA3.jpg","null","",NA,NA,NA,NA,""
"image-keyboard-response",590,447439,"0.0-4.192-2.192","8z9qx3z0pcwosp5",263,"57.csv","","null","resources/images/coin2.png","null","",NA,NA,NA,NA,""
"image-keyboard-response",591,447510,"0.0-4.193-0.193","8z9qx3z0pcwosp5",263,"57.csv","","67.10000038146973","resources/trios/L1T2A3.jpg","37","restless",0.2,0.4,0.7,0.842514896274802,"false"
"image-keyboard-response",592,447922,"0.0-4.193-1.193","8z9qx3z0pcwosp5",263,"57.csv","","null","resources/maskTrios/L1BB.jpg","null","",NA,NA,NA,NA,""
"image-keyboard-response",593,449137,"0.0-4.193-2.193","8z9qx3z0pcwosp5",263,"57.csv","","null","resources/images/fishbone.png","null","",NA,NA,NA,NA,""
"image-keyboard-response",594,449503,"0.0-4.194-0.194","8z9qx3z0pcwosp5",263,"57.csv","","364","resources/trios/L1T2A3.jpg","37","restless",0.2,0.4,0.7,0.0378235977862973,"true"
"image-keyboard-response",595,449911,"0.0-4.194-1.194","8z9qx3z0pcwosp5",263,"57.csv","","null","resources/maskTrios/L1BB.jpg","null","",NA,NA,NA,NA,""
"image-keyboard-response",596,451128,"0.0-4.194-2.194","8z9qx3z0pcwosp5",263,"57.csv","","null","resources/images/coin2.png","null","",NA,NA,NA,NA,""
"image-keyboard-response",597,451269,"0.0-4.195-0.195","8z9qx3z0pcwosp5",263,"57.csv","","138.59999990463257","resources/trios/L1T2A3.jpg","37","restless",0.3,0.4,0.7,0.612452845973117,"false"
"image-keyboard-response",598,451678,"0.0-4.195-1.195","8z9qx3z0pcwosp5",263,"57.csv","","null","resources/maskTrios/L1BB.jpg","null","",NA,NA,NA,NA,""
"image-keyboard-response",599,452886,"0.0-4.195-2.195","8z9qx3z0pcwosp5",263,"57.csv","","null","resources/images/fishbone.png","null","",NA,NA,NA,NA,""
"image-keyboard-response",600,453054,"0.0-4.196-0.196","8z9qx3z0pcwosp5",263,"57.csv","","165.80000019073486","resources/trios/L1T2A3.jpg","38","restless",0.3,0.4,0.7,0.184661747143876,"true"
"image-keyboard-response",601,453470,"0.0-4.196-1.196","8z9qx3z0pcwosp5",263,"57.csv","","null","resources/maskTrios/BT2B.jpg","null","",NA,NA,NA,NA,""
"image-keyboard-response",602,454679,"0.0-4.196-2.196","8z9qx3z0pcwosp5",263,"57.csv","","null","resources/images/coin2.png","null","",NA,NA,NA,NA,""
"image-keyboard-response",603,454729,"0.0-4.197-0.197","8z9qx3z0pcwosp5",263,"57.csv","","48.40000009536743","resources/trios/L1T2A3.jpg","38","restless",0.3,0.4,0.7,0.411892892709651,"false"
"image-keyboard-response",604,455136,"0.0-4.197-1.197","8z9qx3z0pcwosp5",263,"57.csv","","null","resources/maskTrios/BT2B.jpg","null","",NA,NA,NA,NA,""
"image-keyboard-response",605,456339,"0.0-4.197-2.197","8z9qx3z0pcwosp5",263,"57.csv","","null","resources/images/fishbone.png","null","",NA,NA,NA,NA,""
"image-keyboard-response",606,456699,"0.0-4.198-0.198","8z9qx3z0pcwosp5",263,"57.csv","","354.7000002861023","resources/trios/L1T2A3.jpg","39","restless",0.3,0.4,0.7,0.163273324709446,"true"
"image-keyboard-response",607,457103,"0.0-4.198-1.198","8z9qx3z0pcwosp5",263,"57.csv","","null","resources/maskTrios/BBA3.jpg","null","",NA,NA,NA,NA,""
"image-keyboard-response",608,458306,"0.0-4.198-2.198","8z9qx3z0pcwosp5",263,"57.csv","","null","resources/images/coin2.png","null","",NA,NA,NA,NA,""
"image-keyboard-response",609,458777,"0.0-4.199-0.199","8z9qx3z0pcwosp5",263,"57.csv","","468.09999990463257","resources/trios/L1T2A3.jpg","39","restless",0.3,0.4,0.7,0.405020578042592,"true"
"image-keyboard-response",610,459194,"0.0-4.199-1.199","8z9qx3z0pcwosp5",263,"57.csv","","null","resources/maskTrios/BBA3.jpg","null","",NA,NA,NA,NA,""
"image-keyboard-response",611,460403,"0.0-4.199-2.199","8z9qx3z0pcwosp5",263,"57.csv","","null","resources/images/coin2.png","null","",NA,NA,NA,NA,""
"survey-text",612,721678,"0.0-5.0","8z9qx3z0pcwosp5",263,"57.csv","","261268.2000002861","","","",NA,NA,NA,NA,""
