"trial_type","trial_index","time_elapsed","internal_node_id","subject","participantCode","walkNumber","success","rt","stimulus","key_press","test_part","leftProb","midProb","rightProb","generatedNum","correct"
"pavlovia",0,1355,"0.0-0.0","jmk58hlvnz28tv9",732,"169.csv","","","","","",NA,NA,NA,NA,""
"fullscreen",1,5518,"0.0-1.0","jmk58hlvnz28tv9",732,"169.csv","true","","","","",NA,NA,NA,NA,""
"survey-html-form",2,17098,"0.0-2.0","jmk58hlvnz28tv9",732,"169.csv","","11574.899999999441","","","",NA,NA,NA,NA,""
"image-keyboard-response",3,27206,"0.0-3.0-0.0","jmk58hlvnz28tv9",732,"169.csv","","10104","resources/images/parrot_nobg.png","13","",NA,NA,NA,NA,""
"image-keyboard-response",4,30221,"0.0-3.0-1.0","jmk58hlvnz28tv9",732,"169.csv","","null","resources/image_sets/111.png","null","",NA,NA,NA,NA,""
"image-keyboard-response",5,34093,"0.0-3.0-2.0","jmk58hlvnz28tv9",732,"169.csv","","3869.800000000745","resources/image_sets/left_highlight.png","37","",NA,NA,NA,NA,""
"image-keyboard-response",6,37063,"0.0-3.0-3.0","jmk58hlvnz28tv9",732,"169.csv","","2967.399999999441","resources/image_sets/mid_highlight.png","38","",NA,NA,NA,NA,""
"image-keyboard-response",7,38269,"0.0-3.0-4.0","jmk58hlvnz28tv9",732,"169.csv","","1203.7000000001863","resources/image_sets/right_highlight.png","39","",NA,NA,NA,NA,""
"image-keyboard-response",8,41320,"0.0-3.0-5.0","jmk58hlvnz28tv9",732,"169.csv","","3049","resources/image_sets/111.png","13","",NA,NA,NA,NA,""
"image-keyboard-response",9,42876,"0.0-3.0-6.0","jmk58hlvnz28tv9",732,"169.csv","","1555.2999999998137","resources/images/coin2.png","13","",NA,NA,NA,NA,""
"image-keyboard-response",10,44745,"0.0-3.0-7.0","jmk58hlvnz28tv9",732,"169.csv","","1868.2000000001863","resources/images/fishbone.png","13","",NA,NA,NA,NA,""
"html-keyboard-response",11,47129,"0.0-3.0-8.0","jmk58hlvnz28tv9",732,"169.csv","","2383.7999999998137","<p>You can track your coin total on the top right of your screen. </p><p>At the end of your journey you will be directed to a survey, so please click on the link before exiting the task</p><p>Press Enter to begin</p>","13","",NA,NA,NA,NA,""
"image-keyboard-response",12,49314,"0.0-4.0-0.0","jmk58hlvnz28tv9",732,"169.csv","","2183.300000000745","resources/trios/L1T4A3.jpg","38","restless",0.9,0.7,0.3,0.57298194804289,"true"
"image-keyboard-response",13,49723,"0.0-4.0-1.0","jmk58hlvnz28tv9",732,"169.csv","","null","resources/maskTrios/BT4B.jpg","null","",NA,NA,NA,NA,""
"image-keyboard-response",14,50942,"0.0-4.0-2.0","jmk58hlvnz28tv9",732,"169.csv","","null","resources/images/coin2.png","null","",NA,NA,NA,NA,""
"image-keyboard-response",15,52331,"0.0-4.1-0.1","jmk58hlvnz28tv9",732,"169.csv","","1386.2000000001863","resources/trios/L1T4A3.jpg","39","restless",0.9,0.7,0.3,0.524200957403655,"false"
"image-keyboard-response",16,52748,"0.0-4.1-1.1","jmk58hlvnz28tv9",732,"169.csv","","null","resources/maskTrios/BBA3.jpg","null","",NA,NA,NA,NA,""
"image-keyboard-response",17,53953,"0.0-4.1-2.1","jmk58hlvnz28tv9",732,"169.csv","","null","resources/images/fishbone.png","null","",NA,NA,NA,NA,""
"image-keyboard-response",18,54585,"0.0-4.2-0.2","jmk58hlvnz28tv9",732,"169.csv","","631.2000000001863","resources/trios/L1T4A3.jpg","37","restless",0.9,0.7,0.3,0.641397551509069,"true"
"image-keyboard-response",19,55000,"0.0-4.2-1.2","jmk58hlvnz28tv9",732,"169.csv","","null","resources/maskTrios/L1BB.jpg","null","",NA,NA,NA,NA,""
"image-keyboard-response",20,56214,"0.0-4.2-2.2","jmk58hlvnz28tv9",732,"169.csv","","null","resources/images/coin2.png","null","",NA,NA,NA,NA,""
"image-keyboard-response",21,57393,"0.0-4.3-0.3","jmk58hlvnz28tv9",732,"169.csv","","1176.2999999998137","resources/trios/L1T4A3.jpg","37","restless",0.9,0.7,0.3,0.225983995293701,"true"
"image-keyboard-response",22,57797,"0.0-4.3-1.3","jmk58hlvnz28tv9",732,"169.csv","","null","resources/maskTrios/L1BB.jpg","null","",NA,NA,NA,NA,""
"image-keyboard-response",23,59010,"0.0-4.3-2.3","jmk58hlvnz28tv9",732,"169.csv","","null","resources/images/coin2.png","null","",NA,NA,NA,NA,""
"image-keyboard-response",24,59834,"0.0-4.4-0.4","jmk58hlvnz28tv9",732,"169.csv","","821.4000000003725","resources/trios/L1T4A3.jpg","39","restless",0.9,0.7,0.3,0.866448472595715,"false"
"image-keyboard-response",25,60244,"0.0-4.4-1.4","jmk58hlvnz28tv9",732,"169.csv","","null","resources/maskTrios/BBA3.jpg","null","",NA,NA,NA,NA,""
"image-keyboard-response",26,61447,"0.0-4.4-2.4","jmk58hlvnz28tv9",732,"169.csv","","null","resources/images/fishbone.png","null","",NA,NA,NA,NA,""
"image-keyboard-response",27,62033,"0.0-4.5-0.5","jmk58hlvnz28tv9",732,"169.csv","","582.6000000005588","resources/trios/L1T4A3.jpg","39","restless",0.9,0.8,0.3,0.917996168398359,"false"
"image-keyboard-response",28,62451,"0.0-4.5-1.5","jmk58hlvnz28tv9",732,"169.csv","","null","resources/maskTrios/BBA3.jpg","null","",NA,NA,NA,NA,""
"image-keyboard-response",29,63657,"0.0-4.5-2.5","jmk58hlvnz28tv9",732,"169.csv","","null","resources/images/fishbone.png","null","",NA,NA,NA,NA,""
"image-keyboard-response",30,64336,"0.0-4.6-0.6","jmk58hlvnz28tv9",732,"169.csv","","676.0999999996275","resources/trios/L1T4A3.jpg","39","restless",0.9,0.8,0.3,0.261144580061897,"true"
"image-keyboard-response",31,64746,"0.0-4.6-1.6","jmk58hlvnz28tv9",732,"169.csv","","null","resources/maskTrios/BBA3.jpg","null","",NA,NA,NA,NA,""
"image-keyboard-response",32,65960,"0.0-4.6-2.6","jmk58hlvnz28tv9",732,"169.csv","","null","resources/images/coin2.png","null","",NA,NA,NA,NA,""
"image-keyboard-response",33,66541,"0.0-4.7-0.7","jmk58hlvnz28tv9",732,"169.csv","","578.5","resources/trios/L1T4A3.jpg","38","restless",0.9,0.8,0.3,0.463923569797848,"true"
"image-keyboard-response",34,66957,"0.0-4.7-1.7","jmk58hlvnz28tv9",732,"169.csv","","null","resources/maskTrios/BT4B.jpg","null","",NA,NA,NA,NA,""
"image-keyboard-response",35,68170,"0.0-4.7-2.7","jmk58hlvnz28tv9",732,"169.csv","","null","resources/images/coin2.png","null","",NA,NA,NA,NA,""
"image-keyboard-response",36,68449,"0.0-4.8-0.8","jmk58hlvnz28tv9",732,"169.csv","","276.40000000037253","resources/trios/L1T4A3.jpg","37","restless",0.9,0.8,0.3,0.525293832218224,"true"
"image-keyboard-response",37,68852,"0.0-4.8-1.8","jmk58hlvnz28tv9",732,"169.csv","","null","resources/maskTrios/L1BB.jpg","null","",NA,NA,NA,NA,""
"image-keyboard-response",38,70064,"0.0-4.8-2.8","jmk58hlvnz28tv9",732,"169.csv","","null","resources/images/coin2.png","null","",NA,NA,NA,NA,""
"image-keyboard-response",39,70358,"0.0-4.9-0.9","jmk58hlvnz28tv9",732,"169.csv","","291.70000000018626","resources/trios/L1T4A3.jpg","38","restless",0.8,0.8,0.3,0.381019789721521,"true"
"image-keyboard-response",40,70768,"0.0-4.9-1.9","jmk58hlvnz28tv9",732,"169.csv","","null","resources/maskTrios/BT4B.jpg","null","",NA,NA,NA,NA,""
"image-keyboard-response",41,71982,"0.0-4.9-2.9","jmk58hlvnz28tv9",732,"169.csv","","null","resources/images/coin2.png","null","",NA,NA,NA,NA,""
"image-keyboard-response",42,72350,"0.0-4.10-0.10","jmk58hlvnz28tv9",732,"169.csv","","365","resources/trios/L1T4A3.jpg","39","restless",0.8,0.8,0.3,0.547766192713071,"false"
"image-keyboard-response",43,72767,"0.0-4.10-1.10","jmk58hlvnz28tv9",732,"169.csv","","null","resources/maskTrios/BBA3.jpg","null","",NA,NA,NA,NA,""
"image-keyboard-response",44,73979,"0.0-4.10-2.10","jmk58hlvnz28tv9",732,"169.csv","","null","resources/images/fishbone.png","null","",NA,NA,NA,NA,""
"image-keyboard-response",45,75299,"0.0-4.11-0.11","jmk58hlvnz28tv9",732,"169.csv","","1317","resources/trios/L1T4A3.jpg","38","restless",0.8,0.8,0.3,0.219910501701212,"true"
"image-keyboard-response",46,75710,"0.0-4.11-1.11","jmk58hlvnz28tv9",732,"169.csv","","null","resources/maskTrios/BT4B.jpg","null","",NA,NA,NA,NA,""
"image-keyboard-response",47,76914,"0.0-4.11-2.11","jmk58hlvnz28tv9",732,"169.csv","","null","resources/images/coin2.png","null","",NA,NA,NA,NA,""
"image-keyboard-response",48,77442,"0.0-4.12-0.12","jmk58hlvnz28tv9",732,"169.csv","","525","resources/trios/L1T4A3.jpg","39","restless",0.8,0.8,0.3,0.663635545248568,"false"
"image-keyboard-response",49,77849,"0.0-4.12-1.12","jmk58hlvnz28tv9",732,"169.csv","","null","resources/maskTrios/BBA3.jpg","null","",NA,NA,NA,NA,""
"image-keyboard-response",50,79057,"0.0-4.12-2.12","jmk58hlvnz28tv9",732,"169.csv","","null","resources/images/fishbone.png","null","",NA,NA,NA,NA,""
"image-keyboard-response",51,79367,"0.0-4.13-0.13","jmk58hlvnz28tv9",732,"169.csv","","307.6000000005588","resources/trios/L1T4A3.jpg","38","restless",0.8,0.8,0.2,0.269532021297288,"true"
"image-keyboard-response",52,79777,"0.0-4.13-1.13","jmk58hlvnz28tv9",732,"169.csv","","null","resources/maskTrios/BT4B.jpg","null","",NA,NA,NA,NA,""
"image-keyboard-response",53,80984,"0.0-4.13-2.13","jmk58hlvnz28tv9",732,"169.csv","","null","resources/images/coin2.png","null","",NA,NA,NA,NA,""
"image-keyboard-response",54,81241,"0.0-4.14-0.14","jmk58hlvnz28tv9",732,"169.csv","","254.29999999981374","resources/trios/L1T4A3.jpg","38","restless",0.8,0.8,0.2,0.379541698422728,"true"
"image-keyboard-response",55,81657,"0.0-4.14-1.14","jmk58hlvnz28tv9",732,"169.csv","","null","resources/maskTrios/BT4B.jpg","null","",NA,NA,NA,NA,""
"image-keyboard-response",56,82862,"0.0-4.14-2.14","jmk58hlvnz28tv9",732,"169.csv","","null","resources/images/coin2.png","null","",NA,NA,NA,NA,""
"image-keyboard-response",57,83994,"0.0-4.15-0.15","jmk58hlvnz28tv9",732,"169.csv","","1128.5","resources/trios/L1T4A3.jpg","38","restless",0.8,0.8,0.2,0.174801218232918,"true"
"image-keyboard-response",58,84411,"0.0-4.15-1.15","jmk58hlvnz28tv9",732,"169.csv","","null","resources/maskTrios/BT4B.jpg","null","",NA,NA,NA,NA,""
"image-keyboard-response",59,85618,"0.0-4.15-2.15","jmk58hlvnz28tv9",732,"169.csv","","null","resources/images/coin2.png","null","",NA,NA,NA,NA,""
"image-keyboard-response",60,86259,"0.0-4.16-0.16","jmk58hlvnz28tv9",732,"169.csv","","638.0999999996275","resources/trios/L1T4A3.jpg","37","restless",0.8,0.8,0.2,0.756431121803214,"true"
"image-keyboard-response",61,86664,"0.0-4.16-1.16","jmk58hlvnz28tv9",732,"169.csv","","null","resources/maskTrios/L1BB.jpg","null","",NA,NA,NA,NA,""
"image-keyboard-response",62,87871,"0.0-4.16-2.16","jmk58hlvnz28tv9",732,"169.csv","","null","resources/images/coin2.png","null","",NA,NA,NA,NA,""
"image-keyboard-response",63,88309,"0.0-4.17-0.17","jmk58hlvnz28tv9",732,"169.csv","","435.40000000037253","resources/trios/L1T4A3.jpg","38","restless",0.8,0.8,0.2,0.957570671867666,"false"
"image-keyboard-response",64,88719,"0.0-4.17-1.17","jmk58hlvnz28tv9",732,"169.csv","","null","resources/maskTrios/BT4B.jpg","null","",NA,NA,NA,NA,""
"image-keyboard-response",65,89935,"0.0-4.17-2.17","jmk58hlvnz28tv9",732,"169.csv","","null","resources/images/fishbone.png","null","",NA,NA,NA,NA,""
"image-keyboard-response",66,90230,"0.0-4.18-0.18","jmk58hlvnz28tv9",732,"169.csv","","292.5","resources/trios/L1T4A3.jpg","39","restless",0.8,0.8,0.2,0.489986833718977,"false"
"image-keyboard-response",67,90642,"0.0-4.18-1.18","jmk58hlvnz28tv9",732,"169.csv","","null","resources/maskTrios/BBA3.jpg","null","",NA,NA,NA,NA,""
"image-keyboard-response",68,91850,"0.0-4.18-2.18","jmk58hlvnz28tv9",732,"169.csv","","null","resources/images/fishbone.png","null","",NA,NA,NA,NA,""
"image-keyboard-response",69,92232,"0.0-4.19-0.19","jmk58hlvnz28tv9",732,"169.csv","","379.09999999962747","resources/trios/L1T4A3.jpg","37","restless",0.8,0.7,0.2,0.222535510760567,"true"
"image-keyboard-response",70,92634,"0.0-4.19-1.19","jmk58hlvnz28tv9",732,"169.csv","","null","resources/maskTrios/L1BB.jpg","null","",NA,NA,NA,NA,""
"image-keyboard-response",71,93840,"0.0-4.19-2.19","jmk58hlvnz28tv9",732,"169.csv","","null","resources/images/coin2.png","null","",NA,NA,NA,NA,""
"image-keyboard-response",72,94126,"0.0-4.20-0.20","jmk58hlvnz28tv9",732,"169.csv","","284.5","resources/trios/L1T4A3.jpg","38","restless",0.8,0.7,0.2,0.606549896022605,"true"
"image-keyboard-response",73,94543,"0.0-4.20-1.20","jmk58hlvnz28tv9",732,"169.csv","","null","resources/maskTrios/BT4B.jpg","null","",NA,NA,NA,NA,""
"image-keyboard-response",74,95758,"0.0-4.20-2.20","jmk58hlvnz28tv9",732,"169.csv","","null","resources/images/coin2.png","null","",NA,NA,NA,NA,""
"image-keyboard-response",75,96678,"0.0-4.21-0.21","jmk58hlvnz28tv9",732,"169.csv","","917.5999999996275","resources/trios/L1T4A3.jpg","37","restless",0.8,0.7,0.2,0.104514345926245,"true"
"image-keyboard-response",76,97085,"0.0-4.21-1.21","jmk58hlvnz28tv9",732,"169.csv","","null","resources/maskTrios/L1BB.jpg","null","",NA,NA,NA,NA,""
"image-keyboard-response",77,98298,"0.0-4.21-2.21","jmk58hlvnz28tv9",732,"169.csv","","null","resources/images/coin2.png","null","",NA,NA,NA,NA,""
"image-keyboard-response",78,98822,"0.0-4.22-0.22","jmk58hlvnz28tv9",732,"169.csv","","521.2999999998137","resources/trios/L1T4A3.jpg","37","restless",0.8,0.7,0.2,0.560272458080992,"true"
"image-keyboard-response",79,99225,"0.0-4.22-1.22","jmk58hlvnz28tv9",732,"169.csv","","null","resources/maskTrios/L1BB.jpg","null","",NA,NA,NA,NA,""
"image-keyboard-response",80,100441,"0.0-4.22-2.22","jmk58hlvnz28tv9",732,"169.csv","","null","resources/images/coin2.png","null","",NA,NA,NA,NA,""
"image-keyboard-response",81,100999,"0.0-4.23-0.23","jmk58hlvnz28tv9",732,"169.csv","","555.0999999996275","resources/trios/L1T4A3.jpg","38","restless",0.8,0.8,0.2,0.186836595826902,"true"
"image-keyboard-response",82,101413,"0.0-4.23-1.23","jmk58hlvnz28tv9",732,"169.csv","","null","resources/maskTrios/BT4B.jpg","null","",NA,NA,NA,NA,""
"image-keyboard-response",83,102630,"0.0-4.23-2.23","jmk58hlvnz28tv9",732,"169.csv","","null","resources/images/coin2.png","null","",NA,NA,NA,NA,""
"image-keyboard-response",84,102942,"0.0-4.24-0.24","jmk58hlvnz28tv9",732,"169.csv","","309.20000000018626","resources/trios/L1T4A3.jpg","37","restless",0.8,0.9,0.2,0.698255145819592,"true"
"image-keyboard-response",85,103353,"0.0-4.24-1.24","jmk58hlvnz28tv9",732,"169.csv","","null","resources/maskTrios/L1BB.jpg","null","",NA,NA,NA,NA,""
"image-keyboard-response",86,104563,"0.0-4.24-2.24","jmk58hlvnz28tv9",732,"169.csv","","null","resources/images/coin2.png","null","",NA,NA,NA,NA,""
"image-keyboard-response",87,104937,"0.0-4.25-0.25","jmk58hlvnz28tv9",732,"169.csv","","370.3999999994412","resources/trios/L1T4A3.jpg","37","restless",0.7,0.9,0.2,0.483578493270836,"true"
"image-keyboard-response",88,105352,"0.0-4.25-1.25","jmk58hlvnz28tv9",732,"169.csv","","null","resources/maskTrios/L1BB.jpg","null","",NA,NA,NA,NA,""
"image-keyboard-response",89,106557,"0.0-4.25-2.25","jmk58hlvnz28tv9",732,"169.csv","","null","resources/images/coin2.png","null","",NA,NA,NA,NA,""
"image-keyboard-response",90,106985,"0.0-4.26-0.26","jmk58hlvnz28tv9",732,"169.csv","","426.5","resources/trios/L1T4A3.jpg","38","restless",0.7,0.9,0.2,0.391065429543765,"true"
"image-keyboard-response",91,107404,"0.0-4.26-1.26","jmk58hlvnz28tv9",732,"169.csv","","null","resources/maskTrios/BT4B.jpg","null","",NA,NA,NA,NA,""
"image-keyboard-response",92,108608,"0.0-4.26-2.26","jmk58hlvnz28tv9",732,"169.csv","","null","resources/images/coin2.png","null","",NA,NA,NA,NA,""
"image-keyboard-response",93,108975,"0.0-4.27-0.27","jmk58hlvnz28tv9",732,"169.csv","","364.30000000074506","resources/trios/L1T4A3.jpg","37","restless",0.7,0.8,0.2,0.0576186559574263,"true"
"image-keyboard-response",94,109386,"0.0-4.27-1.27","jmk58hlvnz28tv9",732,"169.csv","","null","resources/maskTrios/L1BB.jpg","null","",NA,NA,NA,NA,""
"image-keyboard-response",95,110593,"0.0-4.27-2.27","jmk58hlvnz28tv9",732,"169.csv","","null","resources/images/coin2.png","null","",NA,NA,NA,NA,""
"image-keyboard-response",96,110911,"0.0-4.28-0.28","jmk58hlvnz28tv9",732,"169.csv","","315.79999999981374","resources/trios/L1T4A3.jpg","38","restless",0.7,0.7,0.3,0.0820883817812801,"true"
"image-keyboard-response",97,111323,"0.0-4.28-1.28","jmk58hlvnz28tv9",732,"169.csv","","null","resources/maskTrios/BT4B.jpg","null","",NA,NA,NA,NA,""
"image-keyboard-response",98,112531,"0.0-4.28-2.28","jmk58hlvnz28tv9",732,"169.csv","","null","resources/images/coin2.png","null","",NA,NA,NA,NA,""
"image-keyboard-response",99,112775,"0.0-4.29-0.29","jmk58hlvnz28tv9",732,"169.csv","","242.29999999981374","resources/trios/L1T4A3.jpg","37","restless",0.6,0.7,0.3,0.859694776027093,"false"
"image-keyboard-response",100,113181,"0.0-4.29-1.29","jmk58hlvnz28tv9",732,"169.csv","","null","resources/maskTrios/L1BB.jpg","null","",NA,NA,NA,NA,""
"image-keyboard-response",101,114393,"0.0-4.29-2.29","jmk58hlvnz28tv9",732,"169.csv","","null","resources/images/fishbone.png","null","",NA,NA,NA,NA,""
"image-keyboard-response",102,114681,"0.0-4.30-0.30","jmk58hlvnz28tv9",732,"169.csv","","287.6000000005588","resources/trios/L1T4A3.jpg","38","restless",0.7,0.6,0.3,0.197652242795479,"true"
"image-keyboard-response",103,115098,"0.0-4.30-1.30","jmk58hlvnz28tv9",732,"169.csv","","null","resources/maskTrios/BT4B.jpg","null","",NA,NA,NA,NA,""
"image-keyboard-response",104,116307,"0.0-4.30-2.30","jmk58hlvnz28tv9",732,"169.csv","","null","resources/images/coin2.png","null","",NA,NA,NA,NA,""
"image-keyboard-response",105,116440,"0.0-4.31-0.31","jmk58hlvnz28tv9",732,"169.csv","","129.90000000037253","resources/trios/L1T4A3.jpg","37","restless",0.7,0.6,0.3,0.678885318078541,"true"
"image-keyboard-response",106,116845,"0.0-4.31-1.31","jmk58hlvnz28tv9",732,"169.csv","","null","resources/maskTrios/L1BB.jpg","null","",NA,NA,NA,NA,""
"image-keyboard-response",107,118051,"0.0-4.31-2.31","jmk58hlvnz28tv9",732,"169.csv","","null","resources/images/coin2.png","null","",NA,NA,NA,NA,""
"image-keyboard-response",108,118263,"0.0-4.32-0.32","jmk58hlvnz28tv9",732,"169.csv","","209.3999999994412","resources/trios/L1T4A3.jpg","38","restless",0.7,0.5,0.3,0.109713369751681,"true"
"image-keyboard-response",109,118672,"0.0-4.32-1.32","jmk58hlvnz28tv9",732,"169.csv","","null","resources/maskTrios/BT4B.jpg","null","",NA,NA,NA,NA,""
"image-keyboard-response",110,119883,"0.0-4.32-2.32","jmk58hlvnz28tv9",732,"169.csv","","null","resources/images/coin2.png","null","",NA,NA,NA,NA,""
"image-keyboard-response",111,120412,"0.0-4.33-0.33","jmk58hlvnz28tv9",732,"169.csv","","526.5","resources/trios/L1T4A3.jpg","37","restless",0.7,0.5,0.3,0.761647602574439,"false"
"image-keyboard-response",112,120829,"0.0-4.33-1.33","jmk58hlvnz28tv9",732,"169.csv","","null","resources/maskTrios/L1BB.jpg","null","",NA,NA,NA,NA,""
"image-keyboard-response",113,122036,"0.0-4.33-2.33","jmk58hlvnz28tv9",732,"169.csv","","null","resources/images/fishbone.png","null","",NA,NA,NA,NA,""
"image-keyboard-response",114,122511,"0.0-4.34-0.34","jmk58hlvnz28tv9",732,"169.csv","","472.6000000005588","resources/trios/L1T4A3.jpg","38","restless",0.7,0.4,0.4,0.677018916790039,"false"
"image-keyboard-response",115,122917,"0.0-4.34-1.34","jmk58hlvnz28tv9",732,"169.csv","","null","resources/maskTrios/BT4B.jpg","null","",NA,NA,NA,NA,""
"image-keyboard-response",116,124130,"0.0-4.34-2.34","jmk58hlvnz28tv9",732,"169.csv","","null","resources/images/fishbone.png","null","",NA,NA,NA,NA,""
"image-keyboard-response",117,124681,"0.0-4.35-0.35","jmk58hlvnz28tv9",732,"169.csv","","549.1000000005588","resources/trios/L1T4A3.jpg","39","restless",0.7,0.4,0.4,0.757909158991372,"false"
"image-keyboard-response",118,125092,"0.0-4.35-1.35","jmk58hlvnz28tv9",732,"169.csv","","null","resources/maskTrios/BBA3.jpg","null","",NA,NA,NA,NA,""
"image-keyboard-response",119,126305,"0.0-4.35-2.35","jmk58hlvnz28tv9",732,"169.csv","","null","resources/images/fishbone.png","null","",NA,NA,NA,NA,""
"image-keyboard-response",120,126532,"0.0-4.36-0.36","jmk58hlvnz28tv9",732,"169.csv","","224.59999999962747","resources/trios/L1T4A3.jpg","37","restless",0.7,0.4,0.4,0.36940552609224,"true"
"image-keyboard-response",121,126950,"0.0-4.36-1.36","jmk58hlvnz28tv9",732,"169.csv","","null","resources/maskTrios/L1BB.jpg","null","",NA,NA,NA,NA,""
"image-keyboard-response",122,128165,"0.0-4.36-2.36","jmk58hlvnz28tv9",732,"169.csv","","null","resources/images/coin2.png","null","",NA,NA,NA,NA,""
"image-keyboard-response",123,128635,"0.0-4.37-0.37","jmk58hlvnz28tv9",732,"169.csv","","468.09999999962747","resources/trios/L1T4A3.jpg","38","restless",0.7,0.4,0.5,0.700720736065326,"false"
"image-keyboard-response",124,129043,"0.0-4.37-1.37","jmk58hlvnz28tv9",732,"169.csv","","null","resources/maskTrios/BT4B.jpg","null","",NA,NA,NA,NA,""
"image-keyboard-response",125,130252,"0.0-4.37-2.37","jmk58hlvnz28tv9",732,"169.csv","","null","resources/images/fishbone.png","null","",NA,NA,NA,NA,""
"image-keyboard-response",126,130490,"0.0-4.38-0.38","jmk58hlvnz28tv9",732,"169.csv","","236.09999999962747","resources/trios/L1T4A3.jpg","37","restless",0.7,0.4,0.5,0.497950321140157,"true"
"image-keyboard-response",127,130893,"0.0-4.38-1.38","jmk58hlvnz28tv9",732,"169.csv","","null","resources/maskTrios/L1BB.jpg","null","",NA,NA,NA,NA,""
"image-keyboard-response",128,132103,"0.0-4.38-2.38","jmk58hlvnz28tv9",732,"169.csv","","null","resources/images/coin2.png","null","",NA,NA,NA,NA,""
"image-keyboard-response",129,132315,"0.0-4.39-0.39","jmk58hlvnz28tv9",732,"169.csv","","208.79999999981374","resources/trios/L1T4A3.jpg","38","restless",0.7,0.4,0.5,0.244405605524634,"true"
"image-keyboard-response",130,132732,"0.0-4.39-1.39","jmk58hlvnz28tv9",732,"169.csv","","null","resources/maskTrios/BT4B.jpg","null","",NA,NA,NA,NA,""
"image-keyboard-response",131,133937,"0.0-4.39-2.39","jmk58hlvnz28tv9",732,"169.csv","","null","resources/images/coin2.png","null","",NA,NA,NA,NA,""
"image-keyboard-response",132,134231,"0.0-4.40-0.40","jmk58hlvnz28tv9",732,"169.csv","","290.40000000037253","resources/trios/L1T4A3.jpg","37","restless",0.7,0.4,0.5,0.0544968159114414,"true"
"image-keyboard-response",133,134648,"0.0-4.40-1.40","jmk58hlvnz28tv9",732,"169.csv","","null","resources/maskTrios/L1BB.jpg","null","",NA,NA,NA,NA,""
"image-keyboard-response",134,135859,"0.0-4.40-2.40","jmk58hlvnz28tv9",732,"169.csv","","null","resources/images/coin2.png","null","",NA,NA,NA,NA,""
"image-keyboard-response",135,136012,"0.0-4.41-0.41","jmk58hlvnz28tv9",732,"169.csv","","150.29999999981374","resources/trios/L1T4A3.jpg","38","restless",0.7,0.4,0.5,0.853722302093255,"false"
"image-keyboard-response",136,136416,"0.0-4.41-1.41","jmk58hlvnz28tv9",732,"169.csv","","null","resources/maskTrios/BT4B.jpg","null","",NA,NA,NA,NA,""
"image-keyboard-response",137,137631,"0.0-4.41-2.41","jmk58hlvnz28tv9",732,"169.csv","","null","resources/images/fishbone.png","null","",NA,NA,NA,NA,""
"image-keyboard-response",138,138042,"0.0-4.42-0.42","jmk58hlvnz28tv9",732,"169.csv","","408.90000000037253","resources/trios/L1T4A3.jpg","37","restless",0.7,0.4,0.5,0.210467102543032,"true"
"image-keyboard-response",139,138449,"0.0-4.42-1.42","jmk58hlvnz28tv9",732,"169.csv","","null","resources/maskTrios/L1BB.jpg","null","",NA,NA,NA,NA,""
"image-keyboard-response",140,139664,"0.0-4.42-2.42","jmk58hlvnz28tv9",732,"169.csv","","null","resources/images/coin2.png","null","",NA,NA,NA,NA,""
"image-keyboard-response",141,139923,"0.0-4.43-0.43","jmk58hlvnz28tv9",732,"169.csv","","256.6000000005588","resources/trios/L1T4A3.jpg","38","restless",0.7,0.4,0.5,0.730265967612978,"false"
"image-keyboard-response",142,140336,"0.0-4.43-1.43","jmk58hlvnz28tv9",732,"169.csv","","null","resources/maskTrios/BT4B.jpg","null","",NA,NA,NA,NA,""
"image-keyboard-response",143,141539,"0.0-4.43-2.43","jmk58hlvnz28tv9",732,"169.csv","","null","resources/images/fishbone.png","null","",NA,NA,NA,NA,""
"image-keyboard-response",144,141780,"0.0-4.44-0.44","jmk58hlvnz28tv9",732,"169.csv","","239","resources/trios/L1T4A3.jpg","37","restless",0.7,0.4,0.5,0.626534297393327,"true"
"image-keyboard-response",145,142197,"0.0-4.44-1.44","jmk58hlvnz28tv9",732,"169.csv","","null","resources/maskTrios/L1BB.jpg","null","",NA,NA,NA,NA,""
"image-keyboard-response",146,143405,"0.0-4.44-2.44","jmk58hlvnz28tv9",732,"169.csv","","null","resources/images/coin2.png","null","",NA,NA,NA,NA,""
"image-keyboard-response",147,143692,"0.0-4.45-0.45","jmk58hlvnz28tv9",732,"169.csv","","285","resources/trios/L1T4A3.jpg","37","restless",0.7,0.4,0.5,0.470568533502697,"true"
"image-keyboard-response",148,144111,"0.0-4.45-1.45","jmk58hlvnz28tv9",732,"169.csv","","null","resources/maskTrios/L1BB.jpg","null","",NA,NA,NA,NA,""
"image-keyboard-response",149,145327,"0.0-4.45-2.45","jmk58hlvnz28tv9",732,"169.csv","","null","resources/images/coin2.png","null","",NA,NA,NA,NA,""
"image-keyboard-response",150,145595,"0.0-4.46-0.46","jmk58hlvnz28tv9",732,"169.csv","","265.09999999962747","resources/trios/L1T4A3.jpg","37","restless",0.7,0.4,0.5,0.278054976169812,"true"
"image-keyboard-response",151,146002,"0.0-4.46-1.46","jmk58hlvnz28tv9",732,"169.csv","","null","resources/maskTrios/L1BB.jpg","null","",NA,NA,NA,NA,""
"image-keyboard-response",152,147214,"0.0-4.46-2.46","jmk58hlvnz28tv9",732,"169.csv","","null","resources/images/coin2.png","null","",NA,NA,NA,NA,""
"image-keyboard-response",153,147462,"0.0-4.47-0.47","jmk58hlvnz28tv9",732,"169.csv","","244.5","resources/trios/L1T4A3.jpg","37","restless",0.7,0.3,0.5,0.978613518973761,"false"
"image-keyboard-response",154,147877,"0.0-4.47-1.47","jmk58hlvnz28tv9",732,"169.csv","","null","resources/maskTrios/L1BB.jpg","null","",NA,NA,NA,NA,""
"image-keyboard-response",155,149080,"0.0-4.47-2.47","jmk58hlvnz28tv9",732,"169.csv","","null","resources/images/fishbone.png","null","",NA,NA,NA,NA,""
"image-keyboard-response",156,149122,"0.0-4.48-0.48","jmk58hlvnz28tv9",732,"169.csv","","40.10000000055879","resources/trios/L1T4A3.jpg","39","restless",0.7,0.3,0.5,0.0249637199151806,"true"
"image-keyboard-response",157,149535,"0.0-4.48-1.48","jmk58hlvnz28tv9",732,"169.csv","","null","resources/maskTrios/BBA3.jpg","null","",NA,NA,NA,NA,""
"image-keyboard-response",158,150742,"0.0-4.48-2.48","jmk58hlvnz28tv9",732,"169.csv","","null","resources/images/coin2.png","null","",NA,NA,NA,NA,""
"image-keyboard-response",159,151003,"0.0-4.49-0.49","jmk58hlvnz28tv9",732,"169.csv","","259","resources/trios/L1T4A3.jpg","38","restless",0.7,0.3,0.5,0.200676491071062,"true"
"image-keyboard-response",160,151414,"0.0-4.49-1.49","jmk58hlvnz28tv9",732,"169.csv","","null","resources/maskTrios/BT4B.jpg","null","",NA,NA,NA,NA,""
"image-keyboard-response",161,152628,"0.0-4.49-2.49","jmk58hlvnz28tv9",732,"169.csv","","null","resources/images/coin2.png","null","",NA,NA,NA,NA,""
"image-keyboard-response",162,152845,"0.0-4.50-0.50","jmk58hlvnz28tv9",732,"169.csv","","214","resources/trios/L1T4A3.jpg","37","restless",0.7,0.3,0.5,0.490048003304515,"true"
"image-keyboard-response",163,153253,"0.0-4.50-1.50","jmk58hlvnz28tv9",732,"169.csv","","null","resources/maskTrios/L1BB.jpg","null","",NA,NA,NA,NA,""
"image-keyboard-response",164,154458,"0.0-4.50-2.50","jmk58hlvnz28tv9",732,"169.csv","","null","resources/images/coin2.png","null","",NA,NA,NA,NA,""
"image-keyboard-response",165,154691,"0.0-4.51-0.51","jmk58hlvnz28tv9",732,"169.csv","","230.40000000037253","resources/trios/L1T4A3.jpg","38","restless",0.8,0.3,0.5,0.0883182136767291,"true"
"image-keyboard-response",166,155102,"0.0-4.51-1.51","jmk58hlvnz28tv9",732,"169.csv","","null","resources/maskTrios/BT4B.jpg","null","",NA,NA,NA,NA,""
"image-keyboard-response",167,156313,"0.0-4.51-2.51","jmk58hlvnz28tv9",732,"169.csv","","null","resources/images/coin2.png","null","",NA,NA,NA,NA,""
"image-keyboard-response",168,156577,"0.0-4.52-0.52","jmk58hlvnz28tv9",732,"169.csv","","260.20000000018626","resources/trios/L1T4A3.jpg","37","restless",0.8,0.3,0.5,0.770011823538145,"true"
"image-keyboard-response",169,156992,"0.0-4.52-1.52","jmk58hlvnz28tv9",732,"169.csv","","null","resources/maskTrios/L1BB.jpg","null","",NA,NA,NA,NA,""
"image-keyboard-response",170,158200,"0.0-4.52-2.52","jmk58hlvnz28tv9",732,"169.csv","","null","resources/images/coin2.png","null","",NA,NA,NA,NA,""
"image-keyboard-response",171,158500,"0.0-4.53-0.53","jmk58hlvnz28tv9",732,"169.csv","","296.70000000018626","resources/trios/L1T4A3.jpg","39","restless",0.8,0.3,0.5,0.747620108548217,"false"
"image-keyboard-response",172,158906,"0.0-4.53-1.53","jmk58hlvnz28tv9",732,"169.csv","","null","resources/maskTrios/BBA3.jpg","null","",NA,NA,NA,NA,""
"image-keyboard-response",173,160123,"0.0-4.53-2.53","jmk58hlvnz28tv9",732,"169.csv","","null","resources/images/fishbone.png","null","",NA,NA,NA,NA,""
"image-keyboard-response",174,160355,"0.0-4.54-0.54","jmk58hlvnz28tv9",732,"169.csv","","229.79999999981374","resources/trios/L1T4A3.jpg","38","restless",0.8,0.3,0.5,0.24448020798418,"true"
"image-keyboard-response",175,160770,"0.0-4.54-1.54","jmk58hlvnz28tv9",732,"169.csv","","null","resources/maskTrios/BT4B.jpg","null","",NA,NA,NA,NA,""
"image-keyboard-response",176,161976,"0.0-4.54-2.54","jmk58hlvnz28tv9",732,"169.csv","","null","resources/images/coin2.png","null","",NA,NA,NA,NA,""
"image-keyboard-response",177,162184,"0.0-4.55-0.55","jmk58hlvnz28tv9",732,"169.csv","","204.5","resources/trios/L1T4A3.jpg","37","restless",0.8,0.3,0.5,0.496800265280621,"true"
"image-keyboard-response",178,162591,"0.0-4.55-1.55","jmk58hlvnz28tv9",732,"169.csv","","null","resources/maskTrios/L1BB.jpg","null","",NA,NA,NA,NA,""
"image-keyboard-response",179,163802,"0.0-4.55-2.55","jmk58hlvnz28tv9",732,"169.csv","","null","resources/images/coin2.png","null","",NA,NA,NA,NA,""
"image-keyboard-response",180,164020,"0.0-4.56-0.56","jmk58hlvnz28tv9",732,"169.csv","","214.90000000037253","resources/trios/L1T4A3.jpg","38","restless",0.8,0.3,0.5,0.37238535859542,"false"
"image-keyboard-response",181,164434,"0.0-4.56-1.56","jmk58hlvnz28tv9",732,"169.csv","","null","resources/maskTrios/BT4B.jpg","null","",NA,NA,NA,NA,""
"image-keyboard-response",182,165640,"0.0-4.56-2.56","jmk58hlvnz28tv9",732,"169.csv","","null","resources/images/fishbone.png","null","",NA,NA,NA,NA,""
"image-keyboard-response",183,166107,"0.0-4.57-0.57","jmk58hlvnz28tv9",732,"169.csv","","464.3999999994412","resources/trios/L1T4A3.jpg","37","restless",0.8,0.3,0.5,0.621169422445336,"true"
"image-keyboard-response",184,166516,"0.0-4.57-1.57","jmk58hlvnz28tv9",732,"169.csv","","null","resources/maskTrios/L1BB.jpg","null","",NA,NA,NA,NA,""
"image-keyboard-response",185,167718,"0.0-4.57-2.57","jmk58hlvnz28tv9",732,"169.csv","","null","resources/images/coin2.png","null","",NA,NA,NA,NA,""
"image-keyboard-response",186,168098,"0.0-4.58-0.58","jmk58hlvnz28tv9",732,"169.csv","","377.09999999962747","resources/trios/L1T4A3.jpg","37","restless",0.8,0.3,0.5,0.73607157713493,"true"
"image-keyboard-response",187,168502,"0.0-4.58-1.58","jmk58hlvnz28tv9",732,"169.csv","","null","resources/maskTrios/L1BB.jpg","null","",NA,NA,NA,NA,""
"image-keyboard-response",188,169712,"0.0-4.58-2.58","jmk58hlvnz28tv9",732,"169.csv","","null","resources/images/coin2.png","null","",NA,NA,NA,NA,""
"image-keyboard-response",189,169905,"0.0-4.59-0.59","jmk58hlvnz28tv9",732,"169.csv","","189.6000000005588","resources/trios/L1T4A3.jpg","38","restless",0.8,0.3,0.5,0.93103062600666,"false"
"image-keyboard-response",190,170312,"0.0-4.59-1.59","jmk58hlvnz28tv9",732,"169.csv","","null","resources/maskTrios/BT4B.jpg","null","",NA,NA,NA,NA,""
"image-keyboard-response",191,171525,"0.0-4.59-2.59","jmk58hlvnz28tv9",732,"169.csv","","null","resources/images/fishbone.png","null","",NA,NA,NA,NA,""
"image-keyboard-response",192,171872,"0.0-4.60-0.60","jmk58hlvnz28tv9",732,"169.csv","","344.29999999981374","resources/trios/L1T4A3.jpg","39","restless",0.8,0.3,0.5,0.00220784893093184,"true"
"image-keyboard-response",193,172280,"0.0-4.60-1.60","jmk58hlvnz28tv9",732,"169.csv","","null","resources/maskTrios/BBA3.jpg","null","",NA,NA,NA,NA,""
"image-keyboard-response",194,173486,"0.0-4.60-2.60","jmk58hlvnz28tv9",732,"169.csv","","null","resources/images/coin2.png","null","",NA,NA,NA,NA,""
"image-keyboard-response",195,173895,"0.0-4.61-0.61","jmk58hlvnz28tv9",732,"169.csv","","406.20000000018626","resources/trios/L1T4A3.jpg","38","restless",0.8,0.3,0.5,0.525507450398194,"false"
"image-keyboard-response",196,174309,"0.0-4.61-1.61","jmk58hlvnz28tv9",732,"169.csv","","null","resources/maskTrios/BT4B.jpg","null","",NA,NA,NA,NA,""
"image-keyboard-response",197,175526,"0.0-4.61-2.61","jmk58hlvnz28tv9",732,"169.csv","","null","resources/images/fishbone.png","null","",NA,NA,NA,NA,""
"image-keyboard-response",198,175780,"0.0-4.62-0.62","jmk58hlvnz28tv9",732,"169.csv","","251.29999999981374","resources/trios/L1T4A3.jpg","39","restless",0.8,0.3,0.5,0.767227550733914,"false"
"image-keyboard-response",199,176189,"0.0-4.62-1.62","jmk58hlvnz28tv9",732,"169.csv","","null","resources/maskTrios/BBA3.jpg","null","",NA,NA,NA,NA,""
"image-keyboard-response",200,177396,"0.0-4.62-2.62","jmk58hlvnz28tv9",732,"169.csv","","null","resources/images/fishbone.png","null","",NA,NA,NA,NA,""
"image-keyboard-response",201,177726,"0.0-4.63-0.63","jmk58hlvnz28tv9",732,"169.csv","","328.1000000005588","resources/trios/L1T4A3.jpg","38","restless",0.8,0.3,0.5,0.228895827501381,"true"
"image-keyboard-response",202,178133,"0.0-4.63-1.63","jmk58hlvnz28tv9",732,"169.csv","","null","resources/maskTrios/BT4B.jpg","null","",NA,NA,NA,NA,""
"image-keyboard-response",203,179337,"0.0-4.63-2.63","jmk58hlvnz28tv9",732,"169.csv","","null","resources/images/coin2.png","null","",NA,NA,NA,NA,""
"image-keyboard-response",204,179776,"0.0-4.64-0.64","jmk58hlvnz28tv9",732,"169.csv","","436.70000000018626","resources/trios/L1T4A3.jpg","37","restless",0.8,0.3,0.5,0.130937993508159,"true"
"image-keyboard-response",205,180183,"0.0-4.64-1.64","jmk58hlvnz28tv9",732,"169.csv","","null","resources/maskTrios/L1BB.jpg","null","",NA,NA,NA,NA,""
"image-keyboard-response",206,181399,"0.0-4.64-2.64","jmk58hlvnz28tv9",732,"169.csv","","null","resources/images/coin2.png","null","",NA,NA,NA,NA,""
"image-keyboard-response",207,181625,"0.0-4.65-0.65","jmk58hlvnz28tv9",732,"169.csv","","223.59999999962747","resources/trios/L1T4A3.jpg","38","restless",0.8,0.3,0.5,0.939943415393392,"false"
"image-keyboard-response",208,182043,"0.0-4.65-1.65","jmk58hlvnz28tv9",732,"169.csv","","null","resources/maskTrios/BT4B.jpg","null","",NA,NA,NA,NA,""
"image-keyboard-response",209,183252,"0.0-4.65-2.65","jmk58hlvnz28tv9",732,"169.csv","","null","resources/images/fishbone.png","null","",NA,NA,NA,NA,""
"image-keyboard-response",210,183359,"0.0-4.66-0.66","jmk58hlvnz28tv9",732,"169.csv","","104.5","resources/trios/L1T4A3.jpg","37","restless",0.8,0.3,0.5,0.972150470251954,"false"
"image-keyboard-response",211,183767,"0.0-4.66-1.66","jmk58hlvnz28tv9",732,"169.csv","","null","resources/maskTrios/L1BB.jpg","null","",NA,NA,NA,NA,""
"image-keyboard-response",212,184970,"0.0-4.66-2.66","jmk58hlvnz28tv9",732,"169.csv","","null","resources/images/fishbone.png","null","",NA,NA,NA,NA,""
"image-keyboard-response",213,185294,"0.0-4.67-0.67","jmk58hlvnz28tv9",732,"169.csv","","321.70000000018626","resources/trios/L1T4A3.jpg","39","restless",0.8,0.3,0.5,0.598077106788439,"false"
"image-keyboard-response",214,185704,"0.0-4.67-1.67","jmk58hlvnz28tv9",732,"169.csv","","null","resources/maskTrios/BBA3.jpg","null","",NA,NA,NA,NA,""
"image-keyboard-response",215,186915,"0.0-4.67-2.67","jmk58hlvnz28tv9",732,"169.csv","","null","resources/images/fishbone.png","null","",NA,NA,NA,NA,""
"image-keyboard-response",216,187359,"0.0-4.68-0.68","jmk58hlvnz28tv9",732,"169.csv","","441.1000000005588","resources/trios/L1T4A3.jpg","37","restless",0.8,0.3,0.5,0.0736585051584346,"true"
"image-keyboard-response",217,187768,"0.0-4.68-1.68","jmk58hlvnz28tv9",732,"169.csv","","null","resources/maskTrios/L1BB.jpg","null","",NA,NA,NA,NA,""
"image-keyboard-response",218,188982,"0.0-4.68-2.68","jmk58hlvnz28tv9",732,"169.csv","","null","resources/images/coin2.png","null","",NA,NA,NA,NA,""
"image-keyboard-response",219,189315,"0.0-4.69-0.69","jmk58hlvnz28tv9",732,"169.csv","","330.1000000005588","resources/trios/L1T4A3.jpg","38","restless",0.8,0.3,0.5,0.623663869633653,"false"
"image-keyboard-response",220,189719,"0.0-4.69-1.69","jmk58hlvnz28tv9",732,"169.csv","","null","resources/maskTrios/BT4B.jpg","null","",NA,NA,NA,NA,""
"image-keyboard-response",221,190922,"0.0-4.69-2.69","jmk58hlvnz28tv9",732,"169.csv","","null","resources/images/fishbone.png","null","",NA,NA,NA,NA,""
"image-keyboard-response",222,192573,"0.0-4.70-0.70","jmk58hlvnz28tv9",732,"169.csv","","1648.2000000001863","resources/trios/L1T4A3.jpg","38","restless",0.8,0.3,0.5,0.291299733275125,"true"
"image-keyboard-response",223,192987,"0.0-4.70-1.70","jmk58hlvnz28tv9",732,"169.csv","","null","resources/maskTrios/BT4B.jpg","null","",NA,NA,NA,NA,""
"image-keyboard-response",224,194198,"0.0-4.70-2.70","jmk58hlvnz28tv9",732,"169.csv","","null","resources/images/coin2.png","null","",NA,NA,NA,NA,""
"image-keyboard-response",225,194576,"0.0-4.71-0.71","jmk58hlvnz28tv9",732,"169.csv","","375.3999999994412","resources/trios/L1T4A3.jpg","37","restless",0.8,0.3,0.5,0.483257067817632,"true"
"image-keyboard-response",226,194986,"0.0-4.71-1.71","jmk58hlvnz28tv9",732,"169.csv","","null","resources/maskTrios/L1BB.jpg","null","",NA,NA,NA,NA,""
"image-keyboard-response",227,196196,"0.0-4.71-2.71","jmk58hlvnz28tv9",732,"169.csv","","null","resources/images/coin2.png","null","",NA,NA,NA,NA,""
"image-keyboard-response",228,196566,"0.0-4.72-0.72","jmk58hlvnz28tv9",732,"169.csv","","367.70000000018626","resources/trios/L1T4A3.jpg","38","restless",0.8,0.3,0.5,0.89343112875281,"false"
"image-keyboard-response",229,196980,"0.0-4.72-1.72","jmk58hlvnz28tv9",732,"169.csv","","null","resources/maskTrios/BT4B.jpg","null","",NA,NA,NA,NA,""
"image-keyboard-response",230,198184,"0.0-4.72-2.72","jmk58hlvnz28tv9",732,"169.csv","","null","resources/images/fishbone.png","null","",NA,NA,NA,NA,""
"image-keyboard-response",231,198204,"0.0-4.73-0.73","jmk58hlvnz28tv9",732,"169.csv","","18.09999999962747","resources/trios/L1T4A3.jpg","37","restless",0.7,0.3,0.5,0.277713661311105,"true"
"image-keyboard-response",232,198610,"0.0-4.73-1.73","jmk58hlvnz28tv9",732,"169.csv","","null","resources/maskTrios/L1BB.jpg","null","",NA,NA,NA,NA,""
"image-keyboard-response",233,199814,"0.0-4.73-2.73","jmk58hlvnz28tv9",732,"169.csv","","null","resources/images/coin2.png","null","",NA,NA,NA,NA,""
"image-keyboard-response",234,200110,"0.0-4.74-0.74","jmk58hlvnz28tv9",732,"169.csv","","294.29999999981374","resources/trios/L1T4A3.jpg","37","restless",0.7,0.3,0.5,0.442443456642486,"true"
"image-keyboard-response",235,200517,"0.0-4.74-1.74","jmk58hlvnz28tv9",732,"169.csv","","null","resources/maskTrios/L1BB.jpg","null","",NA,NA,NA,NA,""
"image-keyboard-response",236,201731,"0.0-4.74-2.74","jmk58hlvnz28tv9",732,"169.csv","","null","resources/images/coin2.png","null","",NA,NA,NA,NA,""
"image-keyboard-response",237,202009,"0.0-4.75-0.75","jmk58hlvnz28tv9",732,"169.csv","","275.8999999994412","resources/trios/L1T4A3.jpg","37","restless",0.7,0.3,0.6,0.712914511305128,"false"
"image-keyboard-response",238,202427,"0.0-4.75-1.75","jmk58hlvnz28tv9",732,"169.csv","","null","resources/maskTrios/L1BB.jpg","null","",NA,NA,NA,NA,""
"image-keyboard-response",239,203629,"0.0-4.75-2.75","jmk58hlvnz28tv9",732,"169.csv","","null","resources/images/fishbone.png","null","",NA,NA,NA,NA,""
"image-keyboard-response",240,203950,"0.0-4.76-0.76","jmk58hlvnz28tv9",732,"169.csv","","318.20000000018626","resources/trios/L1T4A3.jpg","37","restless",0.7,0.3,0.6,0.375559838401874,"true"
"image-keyboard-response",241,204367,"0.0-4.76-1.76","jmk58hlvnz28tv9",732,"169.csv","","null","resources/maskTrios/L1BB.jpg","null","",NA,NA,NA,NA,""
"image-keyboard-response",242,205582,"0.0-4.76-2.76","jmk58hlvnz28tv9",732,"169.csv","","null","resources/images/coin2.png","null","",NA,NA,NA,NA,""
"image-keyboard-response",243,205842,"0.0-4.77-0.77","jmk58hlvnz28tv9",732,"169.csv","","257.70000000018626","resources/trios/L1T4A3.jpg","37","restless",0.7,0.3,0.6,0.527937987931915,"true"
"image-keyboard-response",244,206254,"0.0-4.77-1.77","jmk58hlvnz28tv9",732,"169.csv","","null","resources/maskTrios/L1BB.jpg","null","",NA,NA,NA,NA,""
"image-keyboard-response",245,207464,"0.0-4.77-2.77","jmk58hlvnz28tv9",732,"169.csv","","null","resources/images/coin2.png","null","",NA,NA,NA,NA,""
"image-keyboard-response",246,207679,"0.0-4.78-0.78","jmk58hlvnz28tv9",732,"169.csv","","212.59999999962747","resources/trios/L1T4A3.jpg","37","restless",0.7,0.3,0.6,0.870449332346033,"false"
"image-keyboard-response",247,208084,"0.0-4.78-1.78","jmk58hlvnz28tv9",732,"169.csv","","null","resources/maskTrios/L1BB.jpg","null","",NA,NA,NA,NA,""
"image-keyboard-response",248,209293,"0.0-4.78-2.78","jmk58hlvnz28tv9",732,"169.csv","","null","resources/images/fishbone.png","null","",NA,NA,NA,NA,""
"image-keyboard-response",249,209486,"0.0-4.79-0.79","jmk58hlvnz28tv9",732,"169.csv","","190.6000000005588","resources/trios/L1T4A3.jpg","38","restless",0.7,0.3,0.6,0.919219524027857,"false"
"image-keyboard-response",250,209905,"0.0-4.79-1.79","jmk58hlvnz28tv9",732,"169.csv","","null","resources/maskTrios/BT4B.jpg","null","",NA,NA,NA,NA,""
"image-keyboard-response",251,211115,"0.0-4.79-2.79","jmk58hlvnz28tv9",732,"169.csv","","null","resources/images/fishbone.png","null","",NA,NA,NA,NA,""
"image-keyboard-response",252,211313,"0.0-4.80-0.80","jmk58hlvnz28tv9",732,"169.csv","","196.09999999962747","resources/trios/L1T4A3.jpg","37","restless",0.7,0.3,0.6,0.52617957524682,"true"
"image-keyboard-response",253,211727,"0.0-4.80-1.80","jmk58hlvnz28tv9",732,"169.csv","","null","resources/maskTrios/L1BB.jpg","null","",NA,NA,NA,NA,""
"image-keyboard-response",254,212933,"0.0-4.80-2.80","jmk58hlvnz28tv9",732,"169.csv","","null","resources/images/coin2.png","null","",NA,NA,NA,NA,""
"image-keyboard-response",255,213074,"0.0-4.81-0.81","jmk58hlvnz28tv9",732,"169.csv","","138","resources/trios/L1T4A3.jpg","38","restless",0.7,0.3,0.6,0.535978037596186,"false"
"image-keyboard-response",256,213487,"0.0-4.81-1.81","jmk58hlvnz28tv9",732,"169.csv","","null","resources/maskTrios/BT4B.jpg","null","",NA,NA,NA,NA,""
"image-keyboard-response",257,214699,"0.0-4.81-2.81","jmk58hlvnz28tv9",732,"169.csv","","null","resources/images/fishbone.png","null","",NA,NA,NA,NA,""
"image-keyboard-response",258,214912,"0.0-4.82-0.82","jmk58hlvnz28tv9",732,"169.csv","","210.6000000005588","resources/trios/L1T4A3.jpg","39","restless",0.7,0.3,0.6,0.124327433027853,"true"
"image-keyboard-response",259,215318,"0.0-4.82-1.82","jmk58hlvnz28tv9",732,"169.csv","","null","resources/maskTrios/BBA3.jpg","null","",NA,NA,NA,NA,""
"image-keyboard-response",260,216525,"0.0-4.82-2.82","jmk58hlvnz28tv9",732,"169.csv","","null","resources/images/coin2.png","null","",NA,NA,NA,NA,""
"image-keyboard-response",261,216784,"0.0-4.83-0.83","jmk58hlvnz28tv9",732,"169.csv","","256.09999999962747","resources/trios/L1T4A3.jpg","37","restless",0.7,0.3,0.5,0.818292755647377,"false"
"image-keyboard-response",262,217200,"0.0-4.83-1.83","jmk58hlvnz28tv9",732,"169.csv","","null","resources/maskTrios/L1BB.jpg","null","",NA,NA,NA,NA,""
"image-keyboard-response",263,218404,"0.0-4.83-2.83","jmk58hlvnz28tv9",732,"169.csv","","null","resources/images/fishbone.png","null","",NA,NA,NA,NA,""
"image-keyboard-response",264,218695,"0.0-4.84-0.84","jmk58hlvnz28tv9",732,"169.csv","","288.40000000037253","resources/trios/L1T4A3.jpg","38","restless",0.7,0.4,0.5,0.747417355276516,"false"
"image-keyboard-response",265,219115,"0.0-4.84-1.84","jmk58hlvnz28tv9",732,"169.csv","","null","resources/maskTrios/BT4B.jpg","null","",NA,NA,NA,NA,""
"image-keyboard-response",266,220323,"0.0-4.84-2.84","jmk58hlvnz28tv9",732,"169.csv","","null","resources/images/fishbone.png","null","",NA,NA,NA,NA,""
"image-keyboard-response",267,220607,"0.0-4.85-0.85","jmk58hlvnz28tv9",732,"169.csv","","281","resources/trios/L1T4A3.jpg","37","restless",0.7,0.4,0.5,0.942899636849613,"false"
"image-keyboard-response",268,221014,"0.0-4.85-1.85","jmk58hlvnz28tv9",732,"169.csv","","null","resources/maskTrios/L1BB.jpg","null","",NA,NA,NA,NA,""
"image-keyboard-response",269,222228,"0.0-4.85-2.85","jmk58hlvnz28tv9",732,"169.csv","","null","resources/images/fishbone.png","null","",NA,NA,NA,NA,""
"image-keyboard-response",270,222348,"0.0-4.86-0.86","jmk58hlvnz28tv9",732,"169.csv","","118","resources/trios/L1T4A3.jpg","38","restless",0.7,0.4,0.5,0.815344433441058,"false"
"image-keyboard-response",271,222759,"0.0-4.86-1.86","jmk58hlvnz28tv9",732,"169.csv","","null","resources/maskTrios/BT4B.jpg","null","",NA,NA,NA,NA,""
"image-keyboard-response",272,223968,"0.0-4.86-2.86","jmk58hlvnz28tv9",732,"169.csv","","null","resources/images/fishbone.png","null","",NA,NA,NA,NA,""
"image-keyboard-response",273,224160,"0.0-4.87-0.87","jmk58hlvnz28tv9",732,"169.csv","","190.40000000037253","resources/trios/L1T4A3.jpg","37","restless",0.7,0.4,0.5,0.0333023489265174,"true"
"image-keyboard-response",274,224566,"0.0-4.87-1.87","jmk58hlvnz28tv9",732,"169.csv","","null","resources/maskTrios/L1BB.jpg","null","",NA,NA,NA,NA,""
"image-keyboard-response",275,225782,"0.0-4.87-2.87","jmk58hlvnz28tv9",732,"169.csv","","null","resources/images/coin2.png","null","",NA,NA,NA,NA,""
"image-keyboard-response",276,225975,"0.0-4.88-0.88","jmk58hlvnz28tv9",732,"169.csv","","190.29999999981374","resources/trios/L1T4A3.jpg","39","restless",0.7,0.4,0.5,0.644735384219993,"false"
"image-keyboard-response",277,226383,"0.0-4.88-1.88","jmk58hlvnz28tv9",732,"169.csv","","null","resources/maskTrios/BBA3.jpg","null","",NA,NA,NA,NA,""
"image-keyboard-response",278,227590,"0.0-4.88-2.88","jmk58hlvnz28tv9",732,"169.csv","","null","resources/images/fishbone.png","null","",NA,NA,NA,NA,""
"image-keyboard-response",279,228670,"0.0-4.89-0.89","jmk58hlvnz28tv9",732,"169.csv","","1077.7000000001863","resources/trios/L1T4A3.jpg","39","restless",0.7,0.4,0.5,0.966215607652556,"false"
"image-keyboard-response",280,229076,"0.0-4.89-1.89","jmk58hlvnz28tv9",732,"169.csv","","null","resources/maskTrios/BBA3.jpg","null","",NA,NA,NA,NA,""
"image-keyboard-response",281,230286,"0.0-4.89-2.89","jmk58hlvnz28tv9",732,"169.csv","","null","resources/images/fishbone.png","null","",NA,NA,NA,NA,""
"image-keyboard-response",282,230513,"0.0-4.90-0.90","jmk58hlvnz28tv9",732,"169.csv","","223.90000000037253","resources/trios/L1T4A3.jpg","37","restless",0.7,0.4,0.5,0.952633122413835,"false"
"image-keyboard-response",283,230927,"0.0-4.90-1.90","jmk58hlvnz28tv9",732,"169.csv","","null","resources/maskTrios/L1BB.jpg","null","",NA,NA,NA,NA,""
"image-keyboard-response",284,232137,"0.0-4.90-2.90","jmk58hlvnz28tv9",732,"169.csv","","null","resources/images/fishbone.png","null","",NA,NA,NA,NA,""
"image-keyboard-response",285,232368,"0.0-4.91-0.91","jmk58hlvnz28tv9",732,"169.csv","","228.40000000037253","resources/trios/L1T4A3.jpg","38","restless",0.7,0.4,0.5,0.20307128080845,"true"
"image-keyboard-response",286,232781,"0.0-4.91-1.91","jmk58hlvnz28tv9",732,"169.csv","","null","resources/maskTrios/BT4B.jpg","null","",NA,NA,NA,NA,""
"image-keyboard-response",287,233986,"0.0-4.91-2.91","jmk58hlvnz28tv9",732,"169.csv","","null","resources/images/coin2.png","null","",NA,NA,NA,NA,""
"image-keyboard-response",288,234201,"0.0-4.92-0.92","jmk58hlvnz28tv9",732,"169.csv","","212.30000000074506","resources/trios/L1T4A3.jpg","38","restless",0.7,0.4,0.6,0.128042209993477,"true"
"image-keyboard-response",289,234612,"0.0-4.92-1.92","jmk58hlvnz28tv9",732,"169.csv","","null","resources/maskTrios/BT4B.jpg","null","",NA,NA,NA,NA,""
"image-keyboard-response",290,235824,"0.0-4.92-2.92","jmk58hlvnz28tv9",732,"169.csv","","null","resources/images/coin2.png","null","",NA,NA,NA,NA,""
"image-keyboard-response",291,235850,"0.0-4.93-0.93","jmk58hlvnz28tv9",732,"169.csv","","22.59999999962747","resources/trios/L1T4A3.jpg","38","restless",0.7,0.4,0.6,0.368409991585252,"true"
"image-keyboard-response",292,236263,"0.0-4.93-1.93","jmk58hlvnz28tv9",732,"169.csv","","null","resources/maskTrios/BT4B.jpg","null","",NA,NA,NA,NA,""
"image-keyboard-response",293,237479,"0.0-4.93-2.93","jmk58hlvnz28tv9",732,"169.csv","","null","resources/images/coin2.png","null","",NA,NA,NA,NA,""
"image-keyboard-response",294,237710,"0.0-4.94-0.94","jmk58hlvnz28tv9",732,"169.csv","","228.3999999994412","resources/trios/L1T4A3.jpg","38","restless",0.7,0.4,0.6,0.930487872079844,"false"
"image-keyboard-response",295,238123,"0.0-4.94-1.94","jmk58hlvnz28tv9",732,"169.csv","","null","resources/maskTrios/BT4B.jpg","null","",NA,NA,NA,NA,""
"image-keyboard-response",296,239340,"0.0-4.94-2.94","jmk58hlvnz28tv9",732,"169.csv","","null","resources/images/fishbone.png","null","",NA,NA,NA,NA,""
"image-keyboard-response",297,239575,"0.0-4.95-0.95","jmk58hlvnz28tv9",732,"169.csv","","232.5","resources/trios/L1T4A3.jpg","37","restless",0.7,0.4,0.6,0.583190251007176,"true"
"image-keyboard-response",298,239987,"0.0-4.95-1.95","jmk58hlvnz28tv9",732,"169.csv","","null","resources/maskTrios/L1BB.jpg","null","",NA,NA,NA,NA,""
"image-keyboard-response",299,241191,"0.0-4.95-2.95","jmk58hlvnz28tv9",732,"169.csv","","null","resources/images/coin2.png","null","",NA,NA,NA,NA,""
"image-keyboard-response",300,241463,"0.0-4.96-0.96","jmk58hlvnz28tv9",732,"169.csv","","269","resources/trios/L1T4A3.jpg","37","restless",0.7,0.4,0.6,0.115569130958969,"true"
"image-keyboard-response",301,241867,"0.0-4.96-1.96","jmk58hlvnz28tv9",732,"169.csv","","null","resources/maskTrios/L1BB.jpg","null","",NA,NA,NA,NA,""
"image-keyboard-response",302,243072,"0.0-4.96-2.96","jmk58hlvnz28tv9",732,"169.csv","","null","resources/images/coin2.png","null","",NA,NA,NA,NA,""
"image-keyboard-response",303,243300,"0.0-4.97-0.97","jmk58hlvnz28tv9",732,"169.csv","","225.79999999981374","resources/trios/L1T4A3.jpg","37","restless",0.7,0.4,0.6,0.574560659292699,"true"
"image-keyboard-response",304,243715,"0.0-4.97-1.97","jmk58hlvnz28tv9",732,"169.csv","","null","resources/maskTrios/L1BB.jpg","null","",NA,NA,NA,NA,""
"image-keyboard-response",305,244924,"0.0-4.97-2.97","jmk58hlvnz28tv9",732,"169.csv","","null","resources/images/coin2.png","null","",NA,NA,NA,NA,""
"image-keyboard-response",306,245131,"0.0-4.98-0.98","jmk58hlvnz28tv9",732,"169.csv","","203.29999999981374","resources/trios/L1T4A3.jpg","39","restless",0.7,0.4,0.5,0.913745512033492,"false"
"image-keyboard-response",307,245542,"0.0-4.98-1.98","jmk58hlvnz28tv9",732,"169.csv","","null","resources/maskTrios/BBA3.jpg","null","",NA,NA,NA,NA,""
"image-keyboard-response",308,246751,"0.0-4.98-2.98","jmk58hlvnz28tv9",732,"169.csv","","null","resources/images/fishbone.png","null","",NA,NA,NA,NA,""
"image-keyboard-response",309,247010,"0.0-4.99-0.99","jmk58hlvnz28tv9",732,"169.csv","","255.69999999925494","resources/trios/L1T4A3.jpg","37","restless",0.7,0.4,0.5,0.801632182761991,"false"
"image-keyboard-response",310,247423,"0.0-4.99-1.99","jmk58hlvnz28tv9",732,"169.csv","","null","resources/maskTrios/L1BB.jpg","null","",NA,NA,NA,NA,""
"image-keyboard-response",311,248636,"0.0-4.99-2.99","jmk58hlvnz28tv9",732,"169.csv","","null","resources/images/fishbone.png","null","",NA,NA,NA,NA,""
"image-keyboard-response",312,248826,"0.0-4.100-0.100","jmk58hlvnz28tv9",732,"169.csv","","186.8999999994412","resources/trios/L1T4A3.jpg","38","restless",0.7,0.4,0.5,0.815230433510502,"false"
"image-keyboard-response",313,249234,"0.0-4.100-1.100","jmk58hlvnz28tv9",732,"169.csv","","null","resources/maskTrios/BT4B.jpg","null","",NA,NA,NA,NA,""
"image-keyboard-response",314,250444,"0.0-4.100-2.100","jmk58hlvnz28tv9",732,"169.csv","","null","resources/images/fishbone.png","null","",NA,NA,NA,NA,""
"image-keyboard-response",315,250900,"0.0-4.101-0.101","jmk58hlvnz28tv9",732,"169.csv","","453.5","resources/trios/L1T4A3.jpg","37","restless",0.7,0.4,0.5,0.982864584948232,"false"
"image-keyboard-response",316,251311,"0.0-4.101-1.101","jmk58hlvnz28tv9",732,"169.csv","","null","resources/maskTrios/L1BB.jpg","null","",NA,NA,NA,NA,""
"image-keyboard-response",317,252520,"0.0-4.101-2.101","jmk58hlvnz28tv9",732,"169.csv","","null","resources/images/fishbone.png","null","",NA,NA,NA,NA,""
"image-keyboard-response",318,252748,"0.0-4.102-0.102","jmk58hlvnz28tv9",732,"169.csv","","225.5","resources/trios/L1T4A3.jpg","37","restless",0.7,0.4,0.5,0.372740200807076,"true"
"image-keyboard-response",319,253167,"0.0-4.102-1.102","jmk58hlvnz28tv9",732,"169.csv","","null","resources/maskTrios/L1BB.jpg","null","",NA,NA,NA,NA,""
"image-keyboard-response",320,254377,"0.0-4.102-2.102","jmk58hlvnz28tv9",732,"169.csv","","null","resources/images/coin2.png","null","",NA,NA,NA,NA,""
"image-keyboard-response",321,254881,"0.0-4.103-0.103","jmk58hlvnz28tv9",732,"169.csv","","501.90000000037253","resources/trios/L1T4A3.jpg","37","restless",0.7,0.4,0.5,0.200642253039164,"true"
"image-keyboard-response",322,255286,"0.0-4.103-1.103","jmk58hlvnz28tv9",732,"169.csv","","null","resources/maskTrios/L1BB.jpg","null","",NA,NA,NA,NA,""
"image-keyboard-response",323,256502,"0.0-4.103-2.103","jmk58hlvnz28tv9",732,"169.csv","","null","resources/images/coin2.png","null","",NA,NA,NA,NA,""
"image-keyboard-response",324,256733,"0.0-4.104-0.104","jmk58hlvnz28tv9",732,"169.csv","","227","resources/trios/L1T4A3.jpg","37","restless",0.7,0.5,0.5,0.809610904566125,"false"
"image-keyboard-response",325,257148,"0.0-4.104-1.104","jmk58hlvnz28tv9",732,"169.csv","","null","resources/maskTrios/L1BB.jpg","null","",NA,NA,NA,NA,""
"image-keyboard-response",326,258350,"0.0-4.104-2.104","jmk58hlvnz28tv9",732,"169.csv","","null","resources/images/fishbone.png","null","",NA,NA,NA,NA,""
"image-keyboard-response",327,258625,"0.0-4.105-0.105","jmk58hlvnz28tv9",732,"169.csv","","272.79999999981374","resources/trios/L1T4A3.jpg","38","restless",0.7,0.5,0.5,0.651162972913138,"false"
"image-keyboard-response",328,259043,"0.0-4.105-1.105","jmk58hlvnz28tv9",732,"169.csv","","null","resources/maskTrios/BT4B.jpg","null","",NA,NA,NA,NA,""
"image-keyboard-response",329,260247,"0.0-4.105-2.105","jmk58hlvnz28tv9",732,"169.csv","","null","resources/images/fishbone.png","null","",NA,NA,NA,NA,""
"image-keyboard-response",330,260430,"0.0-4.106-0.106","jmk58hlvnz28tv9",732,"169.csv","","181.1000000005588","resources/trios/L1T4A3.jpg","39","restless",0.7,0.5,0.5,0.643926250154661,"false"
"image-keyboard-response",331,260846,"0.0-4.106-1.106","jmk58hlvnz28tv9",732,"169.csv","","null","resources/maskTrios/BBA3.jpg","null","",NA,NA,NA,NA,""
"image-keyboard-response",332,262049,"0.0-4.106-2.106","jmk58hlvnz28tv9",732,"169.csv","","null","resources/images/fishbone.png","null","",NA,NA,NA,NA,""
"image-keyboard-response",333,262070,"0.0-4.107-0.107","jmk58hlvnz28tv9",732,"169.csv","","19.09999999962747","resources/trios/L1T4A3.jpg","37","restless",0.7,0.5,0.5,0.107761991344766,"true"
"image-keyboard-response",334,262473,"0.0-4.107-1.107","jmk58hlvnz28tv9",732,"169.csv","","null","resources/maskTrios/L1BB.jpg","null","",NA,NA,NA,NA,""
"image-keyboard-response",335,263691,"0.0-4.107-2.107","jmk58hlvnz28tv9",732,"169.csv","","null","resources/images/coin2.png","null","",NA,NA,NA,NA,""
"image-keyboard-response",336,263741,"0.0-4.108-0.108","jmk58hlvnz28tv9",732,"169.csv","","47.39999999944121","resources/trios/L1T4A3.jpg","38","restless",0.7,0.5,0.5,0.330422007306292,"true"
"image-keyboard-response",337,264152,"0.0-4.108-1.108","jmk58hlvnz28tv9",732,"169.csv","","null","resources/maskTrios/BT4B.jpg","null","",NA,NA,NA,NA,""
"image-keyboard-response",338,265360,"0.0-4.108-2.108","jmk58hlvnz28tv9",732,"169.csv","","null","resources/images/coin2.png","null","",NA,NA,NA,NA,""
"image-keyboard-response",339,265387,"0.0-4.109-0.109","jmk58hlvnz28tv9",732,"169.csv","","24.200000000186265","resources/trios/L1T4A3.jpg","37","restless",0.7,0.5,0.5,0.266035473513232,"true"
"image-keyboard-response",340,265802,"0.0-4.109-1.109","jmk58hlvnz28tv9",732,"169.csv","","null","resources/maskTrios/L1BB.jpg","null","",NA,NA,NA,NA,""
"image-keyboard-response",341,267009,"0.0-4.109-2.109","jmk58hlvnz28tv9",732,"169.csv","","null","resources/images/coin2.png","null","",NA,NA,NA,NA,""
"image-keyboard-response",342,267443,"0.0-4.110-0.110","jmk58hlvnz28tv9",732,"169.csv","","431.3999999994412","resources/trios/L1T4A3.jpg","38","restless",0.7,0.5,0.5,0.160332611883943,"true"
"image-keyboard-response",343,267860,"0.0-4.110-1.110","jmk58hlvnz28tv9",732,"169.csv","","null","resources/maskTrios/BT4B.jpg","null","",NA,NA,NA,NA,""
"image-keyboard-response",344,269077,"0.0-4.110-2.110","jmk58hlvnz28tv9",732,"169.csv","","null","resources/images/coin2.png","null","",NA,NA,NA,NA,""
"image-keyboard-response",345,269240,"0.0-4.111-0.111","jmk58hlvnz28tv9",732,"169.csv","","159.5","resources/trios/L1T4A3.jpg","37","restless",0.7,0.6,0.5,0.297563981215828,"true"
"image-keyboard-response",346,269649,"0.0-4.111-1.111","jmk58hlvnz28tv9",732,"169.csv","","null","resources/maskTrios/L1BB.jpg","null","",NA,NA,NA,NA,""
"image-keyboard-response",347,270862,"0.0-4.111-2.111","jmk58hlvnz28tv9",732,"169.csv","","null","resources/images/coin2.png","null","",NA,NA,NA,NA,""
"image-keyboard-response",348,271042,"0.0-4.112-0.112","jmk58hlvnz28tv9",732,"169.csv","","177.29999999981374","resources/trios/L1T4A3.jpg","38","restless",0.7,0.6,0.5,0.711926510886634,"false"
"image-keyboard-response",349,271458,"0.0-4.112-1.112","jmk58hlvnz28tv9",732,"169.csv","","null","resources/maskTrios/BT4B.jpg","null","",NA,NA,NA,NA,""
"image-keyboard-response",350,272662,"0.0-4.112-2.112","jmk58hlvnz28tv9",732,"169.csv","","null","resources/images/fishbone.png","null","",NA,NA,NA,NA,""
"image-keyboard-response",351,272721,"0.0-4.113-0.113","jmk58hlvnz28tv9",732,"169.csv","","56.09999999962747","resources/trios/L1T4A3.jpg","37","restless",0.7,0.6,0.5,0.0861638007160963,"true"
"image-keyboard-response",352,273136,"0.0-4.113-1.113","jmk58hlvnz28tv9",732,"169.csv","","null","resources/maskTrios/L1BB.jpg","null","",NA,NA,NA,NA,""
"image-keyboard-response",353,274342,"0.0-4.113-2.113","jmk58hlvnz28tv9",732,"169.csv","","null","resources/images/coin2.png","null","",NA,NA,NA,NA,""
"image-keyboard-response",354,274457,"0.0-4.114-0.114","jmk58hlvnz28tv9",732,"169.csv","","113","resources/trios/L1T4A3.jpg","37","restless",0.7,0.6,0.5,0.776745000779815,"false"
"image-keyboard-response",355,274869,"0.0-4.114-1.114","jmk58hlvnz28tv9",732,"169.csv","","null","resources/maskTrios/L1BB.jpg","null","",NA,NA,NA,NA,""
"image-keyboard-response",356,276078,"0.0-4.114-2.114","jmk58hlvnz28tv9",732,"169.csv","","null","resources/images/fishbone.png","null","",NA,NA,NA,NA,""
"image-keyboard-response",357,276452,"0.0-4.115-0.115","jmk58hlvnz28tv9",732,"169.csv","","371.79999999981374","resources/trios/L1T4A3.jpg","38","restless",0.7,0.6,0.5,0.954048550657608,"false"
"image-keyboard-response",358,276868,"0.0-4.115-1.115","jmk58hlvnz28tv9",732,"169.csv","","null","resources/maskTrios/BT4B.jpg","null","",NA,NA,NA,NA,""
"image-keyboard-response",359,278074,"0.0-4.115-2.115","jmk58hlvnz28tv9",732,"169.csv","","null","resources/images/fishbone.png","null","",NA,NA,NA,NA,""
"image-keyboard-response",360,278324,"0.0-4.116-0.116","jmk58hlvnz28tv9",732,"169.csv","","247","resources/trios/L1T4A3.jpg","37","restless",0.7,0.6,0.5,0.438945778774737,"true"
"image-keyboard-response",361,278737,"0.0-4.116-1.116","jmk58hlvnz28tv9",732,"169.csv","","null","resources/maskTrios/L1BB.jpg","null","",NA,NA,NA,NA,""
"image-keyboard-response",362,279952,"0.0-4.116-2.116","jmk58hlvnz28tv9",732,"169.csv","","null","resources/images/coin2.png","null","",NA,NA,NA,NA,""
"image-keyboard-response",363,280056,"0.0-4.117-0.117","jmk58hlvnz28tv9",732,"169.csv","","101.80000000074506","resources/trios/L1T4A3.jpg","38","restless",0.7,0.5,0.5,0.80077218327709,"false"
"image-keyboard-response",364,280470,"0.0-4.117-1.117","jmk58hlvnz28tv9",732,"169.csv","","null","resources/maskTrios/BT4B.jpg","null","",NA,NA,NA,NA,""
"image-keyboard-response",365,281687,"0.0-4.117-2.117","jmk58hlvnz28tv9",732,"169.csv","","null","resources/images/fishbone.png","null","",NA,NA,NA,NA,""
"image-keyboard-response",366,281785,"0.0-4.118-0.118","jmk58hlvnz28tv9",732,"169.csv","","96","resources/trios/L1T4A3.jpg","37","restless",0.6,0.5,0.5,0.798186962281322,"false"
"image-keyboard-response",367,282203,"0.0-4.118-1.118","jmk58hlvnz28tv9",732,"169.csv","","null","resources/maskTrios/L1BB.jpg","null","",NA,NA,NA,NA,""
"image-keyboard-response",368,283408,"0.0-4.118-2.118","jmk58hlvnz28tv9",732,"169.csv","","null","resources/images/fishbone.png","null","",NA,NA,NA,NA,""
"image-keyboard-response",369,284369,"0.0-4.119-0.119","jmk58hlvnz28tv9",732,"169.csv","","958.8999999994412","resources/trios/L1T4A3.jpg","37","restless",0.6,0.5,0.5,0.299745179696211,"true"
"image-keyboard-response",370,284782,"0.0-4.119-1.119","jmk58hlvnz28tv9",732,"169.csv","","null","resources/maskTrios/L1BB.jpg","null","",NA,NA,NA,NA,""
"image-keyboard-response",371,285986,"0.0-4.119-2.119","jmk58hlvnz28tv9",732,"169.csv","","null","resources/images/coin2.png","null","",NA,NA,NA,NA,""
"image-keyboard-response",372,286003,"0.0-4.120-0.120","jmk58hlvnz28tv9",732,"169.csv","","14.700000000186265","resources/trios/L1T4A3.jpg","38","restless",0.5,0.5,0.5,0.881590186146655,"false"
"image-keyboard-response",373,286411,"0.0-4.120-1.120","jmk58hlvnz28tv9",732,"169.csv","","null","resources/maskTrios/BT4B.jpg","null","",NA,NA,NA,NA,""
"image-keyboard-response",374,287621,"0.0-4.120-2.120","jmk58hlvnz28tv9",732,"169.csv","","null","resources/images/fishbone.png","null","",NA,NA,NA,NA,""
"image-keyboard-response",375,287749,"0.0-4.121-0.121","jmk58hlvnz28tv9",732,"169.csv","","124.90000000037253","resources/trios/L1T4A3.jpg","37","restless",0.5,0.5,0.5,0.710785745679416,"false"
"image-keyboard-response",376,288154,"0.0-4.121-1.121","jmk58hlvnz28tv9",732,"169.csv","","null","resources/maskTrios/L1BB.jpg","null","",NA,NA,NA,NA,""
"image-keyboard-response",377,289364,"0.0-4.121-2.121","jmk58hlvnz28tv9",732,"169.csv","","null","resources/images/fishbone.png","null","",NA,NA,NA,NA,""
"image-keyboard-response",378,289702,"0.0-4.122-0.122","jmk58hlvnz28tv9",732,"169.csv","","335.79999999981374","resources/trios/L1T4A3.jpg","37","restless",0.5,0.5,0.5,0.872206636479435,"false"
"image-keyboard-response",379,290121,"0.0-4.122-1.122","jmk58hlvnz28tv9",732,"169.csv","","null","resources/maskTrios/L1BB.jpg","null","",NA,NA,NA,NA,""
"image-keyboard-response",380,291330,"0.0-4.122-2.122","jmk58hlvnz28tv9",732,"169.csv","","null","resources/images/fishbone.png","null","",NA,NA,NA,NA,""
"image-keyboard-response",381,291415,"0.0-4.123-0.123","jmk58hlvnz28tv9",732,"169.csv","","81.29999999981374","resources/trios/L1T4A3.jpg","39","restless",0.5,0.5,0.6,0.991162690115396,"false"
"image-keyboard-response",382,291816,"0.0-4.123-1.123","jmk58hlvnz28tv9",732,"169.csv","","null","resources/maskTrios/BBA3.jpg","null","",NA,NA,NA,NA,""
"image-keyboard-response",383,293020,"0.0-4.123-2.123","jmk58hlvnz28tv9",732,"169.csv","","null","resources/images/fishbone.png","null","",NA,NA,NA,NA,""
"image-keyboard-response",384,293354,"0.0-4.124-0.124","jmk58hlvnz28tv9",732,"169.csv","","331.20000000018626","resources/trios/L1T4A3.jpg","38","restless",0.5,0.5,0.6,0.318926088368798,"true"
"image-keyboard-response",385,293766,"0.0-4.124-1.124","jmk58hlvnz28tv9",732,"169.csv","","null","resources/maskTrios/BT4B.jpg","null","",NA,NA,NA,NA,""
"image-keyboard-response",386,294978,"0.0-4.124-2.124","jmk58hlvnz28tv9",732,"169.csv","","null","resources/images/coin2.png","null","",NA,NA,NA,NA,""
"image-keyboard-response",387,295130,"0.0-4.125-0.125","jmk58hlvnz28tv9",732,"169.csv","","149.6000000005588","resources/trios/L1T4A3.jpg","37","restless",0.5,0.5,0.6,0.183716836956671,"true"
"image-keyboard-response",388,295544,"0.0-4.125-1.125","jmk58hlvnz28tv9",732,"169.csv","","null","resources/maskTrios/L1BB.jpg","null","",NA,NA,NA,NA,""
"image-keyboard-response",389,296760,"0.0-4.125-2.125","jmk58hlvnz28tv9",732,"169.csv","","null","resources/images/coin2.png","null","",NA,NA,NA,NA,""
"image-keyboard-response",390,296897,"0.0-4.126-0.126","jmk58hlvnz28tv9",732,"169.csv","","134.29999999981374","resources/trios/L1T4A3.jpg","37","restless",0.5,0.5,0.6,0.368412388535372,"true"
"image-keyboard-response",391,297315,"0.0-4.126-1.126","jmk58hlvnz28tv9",732,"169.csv","","null","resources/maskTrios/L1BB.jpg","null","",NA,NA,NA,NA,""
"image-keyboard-response",392,298522,"0.0-4.126-2.126","jmk58hlvnz28tv9",732,"169.csv","","null","resources/images/coin2.png","null","",NA,NA,NA,NA,""
"image-keyboard-response",393,298548,"0.0-4.127-0.127","jmk58hlvnz28tv9",732,"169.csv","","23.100000000558794","resources/trios/L1T4A3.jpg","37","restless",0.5,0.5,0.6,0.0365175896835213,"true"
"image-keyboard-response",394,298954,"0.0-4.127-1.127","jmk58hlvnz28tv9",732,"169.csv","","null","resources/maskTrios/L1BB.jpg","null","",NA,NA,NA,NA,""
"image-keyboard-response",395,300170,"0.0-4.127-2.127","jmk58hlvnz28tv9",732,"169.csv","","null","resources/images/coin2.png","null","",NA,NA,NA,NA,""
"image-keyboard-response",396,300377,"0.0-4.128-0.128","jmk58hlvnz28tv9",732,"169.csv","","204.29999999981374","resources/trios/L1T4A3.jpg","37","restless",0.5,0.5,0.6,0.492843807664851,"true"
"image-keyboard-response",397,300794,"0.0-4.128-1.128","jmk58hlvnz28tv9",732,"169.csv","","null","resources/maskTrios/L1BB.jpg","null","",NA,NA,NA,NA,""
"image-keyboard-response",398,302005,"0.0-4.128-2.128","jmk58hlvnz28tv9",732,"169.csv","","null","resources/images/coin2.png","null","",NA,NA,NA,NA,""
"image-keyboard-response",399,302027,"0.0-4.129-0.129","jmk58hlvnz28tv9",732,"169.csv","","18.799999999813735","resources/trios/L1T4A3.jpg","37","restless",0.5,0.5,0.6,0.541373412300456,"false"
"image-keyboard-response",400,302444,"0.0-4.129-1.129","jmk58hlvnz28tv9",732,"169.csv","","null","resources/maskTrios/L1BB.jpg","null","",NA,NA,NA,NA,""
"image-keyboard-response",401,303648,"0.0-4.129-2.129","jmk58hlvnz28tv9",732,"169.csv","","null","resources/images/fishbone.png","null","",NA,NA,NA,NA,""
"image-keyboard-response",402,303849,"0.0-4.130-0.130","jmk58hlvnz28tv9",732,"169.csv","","198.5","resources/trios/L1T4A3.jpg","38","restless",0.5,0.5,0.6,0.88751312632633,"false"
"image-keyboard-response",403,304261,"0.0-4.130-1.130","jmk58hlvnz28tv9",732,"169.csv","","null","resources/maskTrios/BT4B.jpg","null","",NA,NA,NA,NA,""
"image-keyboard-response",404,305474,"0.0-4.130-2.130","jmk58hlvnz28tv9",732,"169.csv","","null","resources/images/fishbone.png","null","",NA,NA,NA,NA,""
"image-keyboard-response",405,306392,"0.0-4.131-0.131","jmk58hlvnz28tv9",732,"169.csv","","916.5999999996275","resources/trios/L1T4A3.jpg","38","restless",0.5,0.5,0.6,0.396043699057425,"true"
"image-keyboard-response",406,306811,"0.0-4.131-1.131","jmk58hlvnz28tv9",732,"169.csv","","null","resources/maskTrios/BT4B.jpg","null","",NA,NA,NA,NA,""
"image-keyboard-response",407,308017,"0.0-4.131-2.131","jmk58hlvnz28tv9",732,"169.csv","","null","resources/images/coin2.png","null","",NA,NA,NA,NA,""
"image-keyboard-response",408,308264,"0.0-4.132-0.132","jmk58hlvnz28tv9",732,"169.csv","","243.90000000037253","resources/trios/L1T4A3.jpg","38","restless",0.5,0.5,0.6,0.638327248240515,"false"
"image-keyboard-response",409,308680,"0.0-4.132-1.132","jmk58hlvnz28tv9",732,"169.csv","","null","resources/maskTrios/BT4B.jpg","null","",NA,NA,NA,NA,""
"image-keyboard-response",410,309893,"0.0-4.132-2.132","jmk58hlvnz28tv9",732,"169.csv","","null","resources/images/fishbone.png","null","",NA,NA,NA,NA,""
"image-keyboard-response",411,310433,"0.0-4.133-0.133","jmk58hlvnz28tv9",732,"169.csv","","536.2999999998137","resources/trios/L1T4A3.jpg","38","restless",0.5,0.6,0.7,0.569246642919942,"true"
"image-keyboard-response",412,310850,"0.0-4.133-1.133","jmk58hlvnz28tv9",732,"169.csv","","null","resources/maskTrios/BT4B.jpg","null","",NA,NA,NA,NA,""
"image-keyboard-response",413,312054,"0.0-4.133-2.133","jmk58hlvnz28tv9",732,"169.csv","","null","resources/images/coin2.png","null","",NA,NA,NA,NA,""
"image-keyboard-response",414,312323,"0.0-4.134-0.134","jmk58hlvnz28tv9",732,"169.csv","","266.79999999981374","resources/trios/L1T4A3.jpg","38","restless",0.5,0.6,0.7,0.860698941205036,"false"
"image-keyboard-response",415,312734,"0.0-4.134-1.134","jmk58hlvnz28tv9",732,"169.csv","","null","resources/maskTrios/BT4B.jpg","null","",NA,NA,NA,NA,""
"image-keyboard-response",416,313938,"0.0-4.134-2.134","jmk58hlvnz28tv9",732,"169.csv","","null","resources/images/fishbone.png","null","",NA,NA,NA,NA,""
"image-keyboard-response",417,314184,"0.0-4.135-0.135","jmk58hlvnz28tv9",732,"169.csv","","243.70000000018626","resources/trios/L1T4A3.jpg","37","restless",0.5,0.6,0.6,0.51105535792812,"false"
"image-keyboard-response",418,314592,"0.0-4.135-1.135","jmk58hlvnz28tv9",732,"169.csv","","null","resources/maskTrios/L1BB.jpg","null","",NA,NA,NA,NA,""
"image-keyboard-response",419,315807,"0.0-4.135-2.135","jmk58hlvnz28tv9",732,"169.csv","","null","resources/images/fishbone.png","null","",NA,NA,NA,NA,""
"image-keyboard-response",420,316193,"0.0-4.136-0.136","jmk58hlvnz28tv9",732,"169.csv","","383.20000000018626","resources/trios/L1T4A3.jpg","38","restless",0.5,0.6,0.6,0.0629257559701792,"true"
"image-keyboard-response",421,316603,"0.0-4.136-1.136","jmk58hlvnz28tv9",732,"169.csv","","null","resources/maskTrios/BT4B.jpg","null","",NA,NA,NA,NA,""
"image-keyboard-response",422,317820,"0.0-4.136-2.136","jmk58hlvnz28tv9",732,"169.csv","","null","resources/images/coin2.png","null","",NA,NA,NA,NA,""
"image-keyboard-response",423,318657,"0.0-4.137-0.137","jmk58hlvnz28tv9",732,"169.csv","","833.8999999994412","resources/trios/L1T4A3.jpg","37","restless",0.5,0.5,0.6,0.829959014085823,"false"
"image-keyboard-response",424,319075,"0.0-4.137-1.137","jmk58hlvnz28tv9",732,"169.csv","","null","resources/maskTrios/L1BB.jpg","null","",NA,NA,NA,NA,""
"image-keyboard-response",425,320284,"0.0-4.137-2.137","jmk58hlvnz28tv9",732,"169.csv","","null","resources/images/fishbone.png","null","",NA,NA,NA,NA,""
"image-keyboard-response",426,320454,"0.0-4.138-0.138","jmk58hlvnz28tv9",732,"169.csv","","167.59999999962747","resources/trios/L1T4A3.jpg","38","restless",0.5,0.5,0.6,0.121345996109405,"true"
"image-keyboard-response",427,320871,"0.0-4.138-1.138","jmk58hlvnz28tv9",732,"169.csv","","null","resources/maskTrios/BT4B.jpg","null","",NA,NA,NA,NA,""
"image-keyboard-response",428,322081,"0.0-4.138-2.138","jmk58hlvnz28tv9",732,"169.csv","","null","resources/images/coin2.png","null","",NA,NA,NA,NA,""
"image-keyboard-response",429,322637,"0.0-4.139-0.139","jmk58hlvnz28tv9",732,"169.csv","","552","resources/trios/L1T4A3.jpg","38","restless",0.5,0.5,0.7,0.854283897653539,"false"
"image-keyboard-response",430,323046,"0.0-4.139-1.139","jmk58hlvnz28tv9",732,"169.csv","","null","resources/maskTrios/BT4B.jpg","null","",NA,NA,NA,NA,""
"image-keyboard-response",431,324253,"0.0-4.139-2.139","jmk58hlvnz28tv9",732,"169.csv","","null","resources/images/fishbone.png","null","",NA,NA,NA,NA,""
"image-keyboard-response",432,324373,"0.0-4.140-0.140","jmk58hlvnz28tv9",732,"169.csv","","117","resources/trios/L1T4A3.jpg","37","restless",0.5,0.5,0.7,0.263427329252634,"true"
"image-keyboard-response",433,324785,"0.0-4.140-1.140","jmk58hlvnz28tv9",732,"169.csv","","null","resources/maskTrios/L1BB.jpg","null","",NA,NA,NA,NA,""
"image-keyboard-response",434,325988,"0.0-4.140-2.140","jmk58hlvnz28tv9",732,"169.csv","","null","resources/images/coin2.png","null","",NA,NA,NA,NA,""
"image-keyboard-response",435,327135,"0.0-4.141-0.141","jmk58hlvnz28tv9",732,"169.csv","","1144.3999999994412","resources/trios/L1T4A3.jpg","38","restless",0.5,0.5,0.7,0.515172578673099,"false"
"image-keyboard-response",436,327542,"0.0-4.141-1.141","jmk58hlvnz28tv9",732,"169.csv","","null","resources/maskTrios/BT4B.jpg","null","",NA,NA,NA,NA,""
"image-keyboard-response",437,328753,"0.0-4.141-2.141","jmk58hlvnz28tv9",732,"169.csv","","null","resources/images/fishbone.png","null","",NA,NA,NA,NA,""
"image-keyboard-response",438,328851,"0.0-4.142-0.142","jmk58hlvnz28tv9",732,"169.csv","","95.20000000018626","resources/trios/L1T4A3.jpg","39","restless",0.6,0.5,0.7,0.698760706768513,"true"
"image-keyboard-response",439,329257,"0.0-4.142-1.142","jmk58hlvnz28tv9",732,"169.csv","","null","resources/maskTrios/BBA3.jpg","null","",NA,NA,NA,NA,""
"image-keyboard-response",440,330472,"0.0-4.142-2.142","jmk58hlvnz28tv9",732,"169.csv","","null","resources/images/coin2.png","null","",NA,NA,NA,NA,""
"image-keyboard-response",441,330758,"0.0-4.143-0.143","jmk58hlvnz28tv9",732,"169.csv","","283","resources/trios/L1T4A3.jpg","37","restless",0.6,0.5,0.7,0.170237375646364,"true"
"image-keyboard-response",442,331172,"0.0-4.143-1.143","jmk58hlvnz28tv9",732,"169.csv","","null","resources/maskTrios/L1BB.jpg","null","",NA,NA,NA,NA,""
"image-keyboard-response",443,332388,"0.0-4.143-2.143","jmk58hlvnz28tv9",732,"169.csv","","null","resources/images/coin2.png","null","",NA,NA,NA,NA,""
"image-keyboard-response",444,332906,"0.0-4.144-0.144","jmk58hlvnz28tv9",732,"169.csv","","514.7999999998137","resources/trios/L1T4A3.jpg","37","restless",0.5,0.4,0.7,0.0743237865150128,"true"
"image-keyboard-response",445,333316,"0.0-4.144-1.144","jmk58hlvnz28tv9",732,"169.csv","","null","resources/maskTrios/L1BB.jpg","null","",NA,NA,NA,NA,""
"image-keyboard-response",446,334524,"0.0-4.144-2.144","jmk58hlvnz28tv9",732,"169.csv","","null","resources/images/coin2.png","null","",NA,NA,NA,NA,""
"image-keyboard-response",447,334855,"0.0-4.145-0.145","jmk58hlvnz28tv9",732,"169.csv","","328.6000000005588","resources/trios/L1T4A3.jpg","37","restless",0.5,0.4,0.6,0.261516758612678,"true"
"image-keyboard-response",448,335267,"0.0-4.145-1.145","jmk58hlvnz28tv9",732,"169.csv","","null","resources/maskTrios/L1BB.jpg","null","",NA,NA,NA,NA,""
"image-keyboard-response",449,336473,"0.0-4.145-2.145","jmk58hlvnz28tv9",732,"169.csv","","null","resources/images/coin2.png","null","",NA,NA,NA,NA,""
"image-keyboard-response",450,336493,"0.0-4.146-0.146","jmk58hlvnz28tv9",732,"169.csv","","17.600000000558794","resources/trios/L1T4A3.jpg","38","restless",0.5,0.4,0.6,0.323109620918351,"true"
"image-keyboard-response",451,336911,"0.0-4.146-1.146","jmk58hlvnz28tv9",732,"169.csv","","null","resources/maskTrios/BT4B.jpg","null","",NA,NA,NA,NA,""
"image-keyboard-response",452,338124,"0.0-4.146-2.146","jmk58hlvnz28tv9",732,"169.csv","","null","resources/images/coin2.png","null","",NA,NA,NA,NA,""
"image-keyboard-response",453,339010,"0.0-4.147-0.147","jmk58hlvnz28tv9",732,"169.csv","","883.2000000001863","resources/trios/L1T4A3.jpg","37","restless",0.5,0.4,0.6,0.354103985594637,"true"
"image-keyboard-response",454,339418,"0.0-4.147-1.147","jmk58hlvnz28tv9",732,"169.csv","","null","resources/maskTrios/L1BB.jpg","null","",NA,NA,NA,NA,""
"image-keyboard-response",455,340626,"0.0-4.147-2.147","jmk58hlvnz28tv9",732,"169.csv","","null","resources/images/coin2.png","null","",NA,NA,NA,NA,""
"image-keyboard-response",456,340808,"0.0-4.148-0.148","jmk58hlvnz28tv9",732,"169.csv","","179.09999999962747","resources/trios/L1T4A3.jpg","38","restless",0.5,0.4,0.6,0.711174069436927,"false"
"image-keyboard-response",457,341220,"0.0-4.148-1.148","jmk58hlvnz28tv9",732,"169.csv","","null","resources/maskTrios/BT4B.jpg","null","",NA,NA,NA,NA,""
"image-keyboard-response",458,342435,"0.0-4.148-2.148","jmk58hlvnz28tv9",732,"169.csv","","null","resources/images/fishbone.png","null","",NA,NA,NA,NA,""
"image-keyboard-response",459,342661,"0.0-4.149-0.149","jmk58hlvnz28tv9",732,"169.csv","","222.80000000074506","resources/trios/L1T4A3.jpg","37","restless",0.5,0.4,0.6,0.181285293143063,"true"
"image-keyboard-response",460,343076,"0.0-4.149-1.149","jmk58hlvnz28tv9",732,"169.csv","","null","resources/maskTrios/L1BB.jpg","null","",NA,NA,NA,NA,""
"image-keyboard-response",461,344283,"0.0-4.149-2.149","jmk58hlvnz28tv9",732,"169.csv","","null","resources/images/coin2.png","null","",NA,NA,NA,NA,""
"image-keyboard-response",462,344504,"0.0-4.150-0.150","jmk58hlvnz28tv9",732,"169.csv","","219.5","resources/trios/L1T4A3.jpg","37","restless",0.5,0.4,0.6,0.622604713813975,"false"
"image-keyboard-response",463,344922,"0.0-4.150-1.150","jmk58hlvnz28tv9",732,"169.csv","","null","resources/maskTrios/L1BB.jpg","null","",NA,NA,NA,NA,""
"image-keyboard-response",464,346138,"0.0-4.150-2.150","jmk58hlvnz28tv9",732,"169.csv","","null","resources/images/fishbone.png","null","",NA,NA,NA,NA,""
"image-keyboard-response",465,346254,"0.0-4.151-0.151","jmk58hlvnz28tv9",732,"169.csv","","113.59999999962747","resources/trios/L1T4A3.jpg","38","restless",0.5,0.3,0.6,0.112458894226997,"true"
"image-keyboard-response",466,346672,"0.0-4.151-1.151","jmk58hlvnz28tv9",732,"169.csv","","null","resources/maskTrios/BT4B.jpg","null","",NA,NA,NA,NA,""
"image-keyboard-response",467,347877,"0.0-4.151-2.151","jmk58hlvnz28tv9",732,"169.csv","","null","resources/images/coin2.png","null","",NA,NA,NA,NA,""
"image-keyboard-response",468,348012,"0.0-4.152-0.152","jmk58hlvnz28tv9",732,"169.csv","","132.5","resources/trios/L1T4A3.jpg","38","restless",0.5,0.3,0.6,0.629636937589788,"false"
"image-keyboard-response",469,348430,"0.0-4.152-1.152","jmk58hlvnz28tv9",732,"169.csv","","null","resources/maskTrios/BT4B.jpg","null","",NA,NA,NA,NA,""
"image-keyboard-response",470,349641,"0.0-4.152-2.152","jmk58hlvnz28tv9",732,"169.csv","","null","resources/images/fishbone.png","null","",NA,NA,NA,NA,""
"image-keyboard-response",471,349892,"0.0-4.153-0.153","jmk58hlvnz28tv9",732,"169.csv","","248.5","resources/trios/L1T4A3.jpg","37","restless",0.5,0.3,0.6,0.491135273975101,"true"
"image-keyboard-response",472,350304,"0.0-4.153-1.153","jmk58hlvnz28tv9",732,"169.csv","","null","resources/maskTrios/L1BB.jpg","null","",NA,NA,NA,NA,""
"image-keyboard-response",473,351509,"0.0-4.153-2.153","jmk58hlvnz28tv9",732,"169.csv","","null","resources/images/coin2.png","null","",NA,NA,NA,NA,""
"image-keyboard-response",474,351805,"0.0-4.154-0.154","jmk58hlvnz28tv9",732,"169.csv","","293","resources/trios/L1T4A3.jpg","38","restless",0.5,0.2,0.6,0.084336294855023,"true"
"image-keyboard-response",475,352215,"0.0-4.154-1.154","jmk58hlvnz28tv9",732,"169.csv","","null","resources/maskTrios/BT4B.jpg","null","",NA,NA,NA,NA,""
"image-keyboard-response",476,353419,"0.0-4.154-2.154","jmk58hlvnz28tv9",732,"169.csv","","null","resources/images/coin2.png","null","",NA,NA,NA,NA,""
"image-keyboard-response",477,353671,"0.0-4.155-0.155","jmk58hlvnz28tv9",732,"169.csv","","249.29999999981374","resources/trios/L1T4A3.jpg","38","restless",0.5,0.2,0.6,0.0339861065671314,"true"
"image-keyboard-response",478,354082,"0.0-4.155-1.155","jmk58hlvnz28tv9",732,"169.csv","","null","resources/maskTrios/BT4B.jpg","null","",NA,NA,NA,NA,""
"image-keyboard-response",479,355299,"0.0-4.155-2.155","jmk58hlvnz28tv9",732,"169.csv","","null","resources/images/coin2.png","null","",NA,NA,NA,NA,""
"image-keyboard-response",480,355620,"0.0-4.156-0.156","jmk58hlvnz28tv9",732,"169.csv","","319.29999999981374","resources/trios/L1T4A3.jpg","37","restless",0.5,0.2,0.6,0.0554676111883141,"true"
"image-keyboard-response",481,356038,"0.0-4.156-1.156","jmk58hlvnz28tv9",732,"169.csv","","null","resources/maskTrios/L1BB.jpg","null","",NA,NA,NA,NA,""
"image-keyboard-response",482,357251,"0.0-4.156-2.156","jmk58hlvnz28tv9",732,"169.csv","","null","resources/images/coin2.png","null","",NA,NA,NA,NA,""
"image-keyboard-response",483,357514,"0.0-4.157-0.157","jmk58hlvnz28tv9",732,"169.csv","","260.20000000018626","resources/trios/L1T4A3.jpg","38","restless",0.5,0.2,0.6,0.738512608512456,"false"
"image-keyboard-response",484,357926,"0.0-4.157-1.157","jmk58hlvnz28tv9",732,"169.csv","","null","resources/maskTrios/BT4B.jpg","null","",NA,NA,NA,NA,""
"image-keyboard-response",485,359131,"0.0-4.157-2.157","jmk58hlvnz28tv9",732,"169.csv","","null","resources/images/fishbone.png","null","",NA,NA,NA,NA,""
"image-keyboard-response",486,359260,"0.0-4.158-0.158","jmk58hlvnz28tv9",732,"169.csv","","127.20000000018626","resources/trios/L1T4A3.jpg","37","restless",0.5,0.2,0.6,0.254280068129342,"true"
"image-keyboard-response",487,359678,"0.0-4.158-1.158","jmk58hlvnz28tv9",732,"169.csv","","null","resources/maskTrios/L1BB.jpg","null","",NA,NA,NA,NA,""
"image-keyboard-response",488,360892,"0.0-4.158-2.158","jmk58hlvnz28tv9",732,"169.csv","","null","resources/images/coin2.png","null","",NA,NA,NA,NA,""
"image-keyboard-response",489,361108,"0.0-4.159-0.159","jmk58hlvnz28tv9",732,"169.csv","","213.40000000037253","resources/trios/L1T4A3.jpg","38","restless",0.5,0.2,0.6,0.48928067384161,"false"
"image-keyboard-response",490,361513,"0.0-4.159-1.159","jmk58hlvnz28tv9",732,"169.csv","","null","resources/maskTrios/BT4B.jpg","null","",NA,NA,NA,NA,""
"image-keyboard-response",491,362716,"0.0-4.159-2.159","jmk58hlvnz28tv9",732,"169.csv","","null","resources/images/fishbone.png","null","",NA,NA,NA,NA,""
"image-keyboard-response",492,362898,"0.0-4.160-0.160","jmk58hlvnz28tv9",732,"169.csv","","180.20000000018626","resources/trios/L1T4A3.jpg","37","restless",0.5,0.2,0.6,0.445715397954286,"true"
"image-keyboard-response",493,363307,"0.0-4.160-1.160","jmk58hlvnz28tv9",732,"169.csv","","null","resources/maskTrios/L1BB.jpg","null","",NA,NA,NA,NA,""
"image-keyboard-response",494,364519,"0.0-4.160-2.160","jmk58hlvnz28tv9",732,"169.csv","","null","resources/images/coin2.png","null","",NA,NA,NA,NA,""
"image-keyboard-response",495,364652,"0.0-4.161-0.161","jmk58hlvnz28tv9",732,"169.csv","","130","resources/trios/L1T4A3.jpg","37","restless",0.4,0.2,0.6,0.795105867342274,"false"
"image-keyboard-response",496,365068,"0.0-4.161-1.161","jmk58hlvnz28tv9",732,"169.csv","","null","resources/maskTrios/L1BB.jpg","null","",NA,NA,NA,NA,""
"image-keyboard-response",497,366276,"0.0-4.161-2.161","jmk58hlvnz28tv9",732,"169.csv","","null","resources/images/fishbone.png","null","",NA,NA,NA,NA,""
"image-keyboard-response",498,366282,"0.0-4.162-0.162","jmk58hlvnz28tv9",732,"169.csv","","3.1000000005587935","resources/trios/L1T4A3.jpg","38","restless",0.4,0.2,0.6,0.118659054362717,"true"
"image-keyboard-response",499,366701,"0.0-4.162-1.162","jmk58hlvnz28tv9",732,"169.csv","","null","resources/maskTrios/BT4B.jpg","null","",NA,NA,NA,NA,""
"image-keyboard-response",500,367909,"0.0-4.162-2.162","jmk58hlvnz28tv9",732,"169.csv","","null","resources/images/coin2.png","null","",NA,NA,NA,NA,""
"image-keyboard-response",501,368157,"0.0-4.163-0.163","jmk58hlvnz28tv9",732,"169.csv","","246.1000000005588","resources/trios/L1T4A3.jpg","37","restless",0.4,0.2,0.6,0.380811665016638,"true"
"image-keyboard-response",502,368561,"0.0-4.163-1.163","jmk58hlvnz28tv9",732,"169.csv","","null","resources/maskTrios/L1BB.jpg","null","",NA,NA,NA,NA,""
"image-keyboard-response",503,369770,"0.0-4.163-2.163","jmk58hlvnz28tv9",732,"169.csv","","null","resources/images/coin2.png","null","",NA,NA,NA,NA,""
"image-keyboard-response",504,369933,"0.0-4.164-0.164","jmk58hlvnz28tv9",732,"169.csv","","160.70000000018626","resources/trios/L1T4A3.jpg","38","restless",0.4,0.2,0.6,0.626464623903675,"false"
"image-keyboard-response",505,370351,"0.0-4.164-1.164","jmk58hlvnz28tv9",732,"169.csv","","null","resources/maskTrios/BT4B.jpg","null","",NA,NA,NA,NA,""
"image-keyboard-response",506,371562,"0.0-4.164-2.164","jmk58hlvnz28tv9",732,"169.csv","","null","resources/images/fishbone.png","null","",NA,NA,NA,NA,""
"image-keyboard-response",507,371910,"0.0-4.165-0.165","jmk58hlvnz28tv9",732,"169.csv","","345.5","resources/trios/L1T4A3.jpg","39","restless",0.4,0.2,0.6,0.074627858248935,"true"
"image-keyboard-response",508,372321,"0.0-4.165-1.165","jmk58hlvnz28tv9",732,"169.csv","","null","resources/maskTrios/BBA3.jpg","null","",NA,NA,NA,NA,""
"image-keyboard-response",509,373537,"0.0-4.165-2.165","jmk58hlvnz28tv9",732,"169.csv","","null","resources/images/coin2.png","null","",NA,NA,NA,NA,""
"image-keyboard-response",510,373787,"0.0-4.166-0.166","jmk58hlvnz28tv9",732,"169.csv","","246.90000000037253","resources/trios/L1T4A3.jpg","37","restless",0.4,0.2,0.6,0.195004187080814,"true"
"image-keyboard-response",511,374198,"0.0-4.166-1.166","jmk58hlvnz28tv9",732,"169.csv","","null","resources/maskTrios/L1BB.jpg","null","",NA,NA,NA,NA,""
"image-keyboard-response",512,375403,"0.0-4.166-2.166","jmk58hlvnz28tv9",732,"169.csv","","null","resources/images/coin2.png","null","",NA,NA,NA,NA,""
"image-keyboard-response",513,375726,"0.0-4.167-0.167","jmk58hlvnz28tv9",732,"169.csv","","319.59999999962747","resources/trios/L1T4A3.jpg","37","restless",0.4,0.2,0.6,0.310773653109281,"true"
"image-keyboard-response",514,376135,"0.0-4.167-1.167","jmk58hlvnz28tv9",732,"169.csv","","null","resources/maskTrios/L1BB.jpg","null","",NA,NA,NA,NA,""
"image-keyboard-response",515,377338,"0.0-4.167-2.167","jmk58hlvnz28tv9",732,"169.csv","","null","resources/images/coin2.png","null","",NA,NA,NA,NA,""
"image-keyboard-response",516,377433,"0.0-4.168-0.168","jmk58hlvnz28tv9",732,"169.csv","","93.79999999981374","resources/trios/L1T4A3.jpg","37","restless",0.3,0.2,0.6,0.277917450425732,"true"
"image-keyboard-response",517,377838,"0.0-4.168-1.168","jmk58hlvnz28tv9",732,"169.csv","","null","resources/maskTrios/L1BB.jpg","null","",NA,NA,NA,NA,""
"image-keyboard-response",518,379045,"0.0-4.168-2.168","jmk58hlvnz28tv9",732,"169.csv","","null","resources/images/coin2.png","null","",NA,NA,NA,NA,""
"image-keyboard-response",519,379223,"0.0-4.169-0.169","jmk58hlvnz28tv9",732,"169.csv","","175.70000000018626","resources/trios/L1T4A3.jpg","38","restless",0.3,0.2,0.6,0.198891886664769,"true"
"image-keyboard-response",520,379626,"0.0-4.169-1.169","jmk58hlvnz28tv9",732,"169.csv","","null","resources/maskTrios/BT4B.jpg","null","",NA,NA,NA,NA,""
"image-keyboard-response",521,380839,"0.0-4.169-2.169","jmk58hlvnz28tv9",732,"169.csv","","null","resources/images/coin2.png","null","",NA,NA,NA,NA,""
"image-keyboard-response",522,381058,"0.0-4.170-0.170","jmk58hlvnz28tv9",732,"169.csv","","216.29999999981374","resources/trios/L1T4A3.jpg","39","restless",0.3,0.1,0.6,0.269243324540939,"true"
"image-keyboard-response",523,381473,"0.0-4.170-1.170","jmk58hlvnz28tv9",732,"169.csv","","null","resources/maskTrios/BBA3.jpg","null","",NA,NA,NA,NA,""
"image-keyboard-response",524,382686,"0.0-4.170-2.170","jmk58hlvnz28tv9",732,"169.csv","","null","resources/images/coin2.png","null","",NA,NA,NA,NA,""
"image-keyboard-response",525,382902,"0.0-4.171-0.171","jmk58hlvnz28tv9",732,"169.csv","","213.59999999962747","resources/trios/L1T4A3.jpg","38","restless",0.3,0.1,0.6,0.852636713665536,"false"
"image-keyboard-response",526,383313,"0.0-4.171-1.171","jmk58hlvnz28tv9",732,"169.csv","","null","resources/maskTrios/BT4B.jpg","null","",NA,NA,NA,NA,""
"image-keyboard-response",527,384517,"0.0-4.171-2.171","jmk58hlvnz28tv9",732,"169.csv","","null","resources/images/fishbone.png","null","",NA,NA,NA,NA,""
"image-keyboard-response",528,385072,"0.0-4.172-0.172","jmk58hlvnz28tv9",732,"169.csv","","552.0999999996275","resources/trios/L1T4A3.jpg","37","restless",0.3,0.1,0.6,0.457708179794385,"false"
"image-keyboard-response",529,385486,"0.0-4.172-1.172","jmk58hlvnz28tv9",732,"169.csv","","null","resources/maskTrios/L1BB.jpg","null","",NA,NA,NA,NA,""
"image-keyboard-response",530,386694,"0.0-4.172-2.172","jmk58hlvnz28tv9",732,"169.csv","","null","resources/images/fishbone.png","null","",NA,NA,NA,NA,""
"image-keyboard-response",531,386929,"0.0-4.173-0.173","jmk58hlvnz28tv9",732,"169.csv","","231.3999999994412","resources/trios/L1T4A3.jpg","37","restless",0.2,0.1,0.6,0.832240955862486,"false"
"image-keyboard-response",532,387339,"0.0-4.173-1.173","jmk58hlvnz28tv9",732,"169.csv","","null","resources/maskTrios/L1BB.jpg","null","",NA,NA,NA,NA,""
"image-keyboard-response",533,388551,"0.0-4.173-2.173","jmk58hlvnz28tv9",732,"169.csv","","null","resources/images/fishbone.png","null","",NA,NA,NA,NA,""
"image-keyboard-response",534,389239,"0.0-4.174-0.174","jmk58hlvnz28tv9",732,"169.csv","","685.7999999998137","resources/trios/L1T4A3.jpg","39","restless",0.2,0.1,0.6,0.714508499248782,"false"
"image-keyboard-response",535,389654,"0.0-4.174-1.174","jmk58hlvnz28tv9",732,"169.csv","","null","resources/maskTrios/BBA3.jpg","null","",NA,NA,NA,NA,""
"image-keyboard-response",536,390866,"0.0-4.174-2.174","jmk58hlvnz28tv9",732,"169.csv","","null","resources/images/fishbone.png","null","",NA,NA,NA,NA,""
"image-keyboard-response",537,390901,"0.0-4.175-0.175","jmk58hlvnz28tv9",732,"169.csv","","33.60000000055879","resources/trios/L1T4A3.jpg","37","restless",0.2,0.2,0.5,0.19858201364008,"true"
"image-keyboard-response",538,391303,"0.0-4.175-1.175","jmk58hlvnz28tv9",732,"169.csv","","null","resources/maskTrios/L1BB.jpg","null","",NA,NA,NA,NA,""
"image-keyboard-response",539,392517,"0.0-4.175-2.175","jmk58hlvnz28tv9",732,"169.csv","","null","resources/images/coin2.png","null","",NA,NA,NA,NA,""
"image-keyboard-response",540,392608,"0.0-4.176-0.176","jmk58hlvnz28tv9",732,"169.csv","","88.3999999994412","resources/trios/L1T4A3.jpg","38","restless",0.2,0.2,0.5,0.136818402584551,"true"
"image-keyboard-response",541,393019,"0.0-4.176-1.176","jmk58hlvnz28tv9",732,"169.csv","","null","resources/maskTrios/BT4B.jpg","null","",NA,NA,NA,NA,""
"image-keyboard-response",542,394225,"0.0-4.176-2.176","jmk58hlvnz28tv9",732,"169.csv","","null","resources/images/coin2.png","null","",NA,NA,NA,NA,""
"image-keyboard-response",543,394764,"0.0-4.177-0.177","jmk58hlvnz28tv9",732,"169.csv","","535.7000000001863","resources/trios/L1T4A3.jpg","37","restless",0.2,0.2,0.5,0.516872578587215,"false"
"image-keyboard-response",544,395177,"0.0-4.177-1.177","jmk58hlvnz28tv9",732,"169.csv","","null","resources/maskTrios/L1BB.jpg","null","",NA,NA,NA,NA,""
"image-keyboard-response",545,396384,"0.0-4.177-2.177","jmk58hlvnz28tv9",732,"169.csv","","null","resources/images/fishbone.png","null","",NA,NA,NA,NA,""
"image-keyboard-response",546,396464,"0.0-4.178-0.178","jmk58hlvnz28tv9",732,"169.csv","","77","resources/trios/L1T4A3.jpg","38","restless",0.1,0.2,0.5,0.7539592132044,"false"
"image-keyboard-response",547,396880,"0.0-4.178-1.178","jmk58hlvnz28tv9",732,"169.csv","","null","resources/maskTrios/BT4B.jpg","null","",NA,NA,NA,NA,""
"image-keyboard-response",548,398084,"0.0-4.178-2.178","jmk58hlvnz28tv9",732,"169.csv","","null","resources/images/fishbone.png","null","",NA,NA,NA,NA,""
"image-keyboard-response",549,398689,"0.0-4.179-0.179","jmk58hlvnz28tv9",732,"169.csv","","602.2999999998137","resources/trios/L1T4A3.jpg","39","restless",0.1,0.2,0.5,0.832232221693375,"false"
"image-keyboard-response",550,399098,"0.0-4.179-1.179","jmk58hlvnz28tv9",732,"169.csv","","null","resources/maskTrios/BBA3.jpg","null","",NA,NA,NA,NA,""
"image-keyboard-response",551,400315,"0.0-4.179-2.179","jmk58hlvnz28tv9",732,"169.csv","","null","resources/images/fishbone.png","null","",NA,NA,NA,NA,""
"image-keyboard-response",552,400462,"0.0-4.180-0.180","jmk58hlvnz28tv9",732,"169.csv","","144.5","resources/trios/L1T4A3.jpg","37","restless",0.1,0.2,0.5,0.122522245887161,"false"
"image-keyboard-response",553,400880,"0.0-4.180-1.180","jmk58hlvnz28tv9",732,"169.csv","","null","resources/maskTrios/L1BB.jpg","null","",NA,NA,NA,NA,""
"image-keyboard-response",554,402083,"0.0-4.180-2.180","jmk58hlvnz28tv9",732,"169.csv","","null","resources/images/fishbone.png","null","",NA,NA,NA,NA,""
"image-keyboard-response",555,402121,"0.0-4.181-0.181","jmk58hlvnz28tv9",732,"169.csv","","34.69999999925494","resources/trios/L1T4A3.jpg","37","restless",0.1,0.2,0.5,0.268829603227601,"false"
"image-keyboard-response",556,402537,"0.0-4.181-1.181","jmk58hlvnz28tv9",732,"169.csv","","null","resources/maskTrios/L1BB.jpg","null","",NA,NA,NA,NA,""
"image-keyboard-response",557,403743,"0.0-4.181-2.181","jmk58hlvnz28tv9",732,"169.csv","","null","resources/images/fishbone.png","null","",NA,NA,NA,NA,""
"image-keyboard-response",558,403777,"0.0-4.182-0.182","jmk58hlvnz28tv9",732,"169.csv","","31","resources/trios/L1T4A3.jpg","38","restless",0.1,0.2,0.5,0.863089018844974,"false"
"image-keyboard-response",559,404181,"0.0-4.182-1.182","jmk58hlvnz28tv9",732,"169.csv","","null","resources/maskTrios/BT4B.jpg","null","",NA,NA,NA,NA,""
"image-keyboard-response",560,405394,"0.0-4.182-2.182","jmk58hlvnz28tv9",732,"169.csv","","null","resources/images/fishbone.png","null","",NA,NA,NA,NA,""
"image-keyboard-response",561,406000,"0.0-4.183-0.183","jmk58hlvnz28tv9",732,"169.csv","","603","resources/trios/L1T4A3.jpg","37","restless",0.1,0.1,0.5,0.615338142444356,"false"
"image-keyboard-response",562,406417,"0.0-4.183-1.183","jmk58hlvnz28tv9",732,"169.csv","","null","resources/maskTrios/L1BB.jpg","null","",NA,NA,NA,NA,""
"image-keyboard-response",563,407633,"0.0-4.183-2.183","jmk58hlvnz28tv9",732,"169.csv","","null","resources/images/fishbone.png","null","",NA,NA,NA,NA,""
"image-keyboard-response",564,407984,"0.0-4.184-0.184","jmk58hlvnz28tv9",732,"169.csv","","348.20000000018626","resources/trios/L1T4A3.jpg","38","restless",0.1,0.1,0.5,0.248909823798208,"false"
"image-keyboard-response",565,408398,"0.0-4.184-1.184","jmk58hlvnz28tv9",732,"169.csv","","null","resources/maskTrios/BT4B.jpg","null","",NA,NA,NA,NA,""
"image-keyboard-response",566,409610,"0.0-4.184-2.184","jmk58hlvnz28tv9",732,"169.csv","","null","resources/images/fishbone.png","null","",NA,NA,NA,NA,""
"image-keyboard-response",567,409629,"0.0-4.185-0.185","jmk58hlvnz28tv9",732,"169.csv","","16.200000000186265","resources/trios/L1T4A3.jpg","38","restless",0.1,0.1,0.5,0.190518275504771,"false"
"image-keyboard-response",568,410047,"0.0-4.185-1.185","jmk58hlvnz28tv9",732,"169.csv","","null","resources/maskTrios/BT4B.jpg","null","",NA,NA,NA,NA,""
"image-keyboard-response",569,411251,"0.0-4.185-2.185","jmk58hlvnz28tv9",732,"169.csv","","null","resources/images/fishbone.png","null","",NA,NA,NA,NA,""
"image-keyboard-response",570,411299,"0.0-4.186-0.186","jmk58hlvnz28tv9",732,"169.csv","","45.10000000055879","resources/trios/L1T4A3.jpg","38","restless",0.1,0.1,0.5,0.520737806775201,"false"
"image-keyboard-response",571,411716,"0.0-4.186-1.186","jmk58hlvnz28tv9",732,"169.csv","","null","resources/maskTrios/BT4B.jpg","null","",NA,NA,NA,NA,""
"image-keyboard-response",572,412933,"0.0-4.186-2.186","jmk58hlvnz28tv9",732,"169.csv","","null","resources/images/fishbone.png","null","",NA,NA,NA,NA,""
"image-keyboard-response",573,413108,"0.0-4.187-0.187","jmk58hlvnz28tv9",732,"169.csv","","171.6000000005588","resources/trios/L1T4A3.jpg","39","restless",0.1,0.1,0.5,0.697936611025701,"false"
"image-keyboard-response",574,413527,"0.0-4.187-1.187","jmk58hlvnz28tv9",732,"169.csv","","null","resources/maskTrios/BBA3.jpg","null","",NA,NA,NA,NA,""
"image-keyboard-response",575,414732,"0.0-4.187-2.187","jmk58hlvnz28tv9",732,"169.csv","","null","resources/images/fishbone.png","null","",NA,NA,NA,NA,""
"image-keyboard-response",576,414788,"0.0-4.188-0.188","jmk58hlvnz28tv9",732,"169.csv","","53.200000000186265","resources/trios/L1T4A3.jpg","38","restless",0.1,0.1,0.5,0.360208321796311,"false"
"image-keyboard-response",577,415201,"0.0-4.188-1.188","jmk58hlvnz28tv9",732,"169.csv","","null","resources/maskTrios/BT4B.jpg","null","",NA,NA,NA,NA,""
"image-keyboard-response",578,416406,"0.0-4.188-2.188","jmk58hlvnz28tv9",732,"169.csv","","null","resources/images/fishbone.png","null","",NA,NA,NA,NA,""
"image-keyboard-response",579,416474,"0.0-4.189-0.189","jmk58hlvnz28tv9",732,"169.csv","","64.90000000037253","resources/trios/L1T4A3.jpg","37","restless",0.1,0.1,0.5,0.218200637845275,"false"
"image-keyboard-response",580,416890,"0.0-4.189-1.189","jmk58hlvnz28tv9",732,"169.csv","","null","resources/maskTrios/L1BB.jpg","null","",NA,NA,NA,NA,""
"image-keyboard-response",581,418099,"0.0-4.189-2.189","jmk58hlvnz28tv9",732,"169.csv","","null","resources/images/fishbone.png","null","",NA,NA,NA,NA,""
"image-keyboard-response",582,418145,"0.0-4.190-0.190","jmk58hlvnz28tv9",732,"169.csv","","42.39999999944121","resources/trios/L1T4A3.jpg","38","restless",0.1,0.1,0.5,0.818210545908628,"false"
"image-keyboard-response",583,418554,"0.0-4.190-1.190","jmk58hlvnz28tv9",732,"169.csv","","null","resources/maskTrios/BT4B.jpg","null","",NA,NA,NA,NA,""
"image-keyboard-response",584,419757,"0.0-4.190-2.190","jmk58hlvnz28tv9",732,"169.csv","","null","resources/images/fishbone.png","null","",NA,NA,NA,NA,""
"image-keyboard-response",585,419856,"0.0-4.191-0.191","jmk58hlvnz28tv9",732,"169.csv","","95.90000000037253","resources/trios/L1T4A3.jpg","38","restless",0.1,0.1,0.5,0.805977662697266,"false"
"image-keyboard-response",586,420272,"0.0-4.191-1.191","jmk58hlvnz28tv9",732,"169.csv","","null","resources/maskTrios/BT4B.jpg","null","",NA,NA,NA,NA,""
"image-keyboard-response",587,421486,"0.0-4.191-2.191","jmk58hlvnz28tv9",732,"169.csv","","null","resources/images/fishbone.png","null","",NA,NA,NA,NA,""
"image-keyboard-response",588,421542,"0.0-4.192-0.192","jmk58hlvnz28tv9",732,"169.csv","","53.700000000186265","resources/trios/L1T4A3.jpg","38","restless",0.1,0.1,0.5,0.182178298677951,"false"
"image-keyboard-response",589,421947,"0.0-4.192-1.192","jmk58hlvnz28tv9",732,"169.csv","","null","resources/maskTrios/BT4B.jpg","null","",NA,NA,NA,NA,""
"image-keyboard-response",590,423160,"0.0-4.192-2.192","jmk58hlvnz28tv9",732,"169.csv","","null","resources/images/fishbone.png","null","",NA,NA,NA,NA,""
"image-keyboard-response",591,423225,"0.0-4.193-0.193","jmk58hlvnz28tv9",732,"169.csv","","62.200000000186265","resources/trios/L1T4A3.jpg","38","restless",0.1,0.1,0.5,0.619553802944806,"false"
"image-keyboard-response",592,423628,"0.0-4.193-1.193","jmk58hlvnz28tv9",732,"169.csv","","null","resources/maskTrios/BT4B.jpg","null","",NA,NA,NA,NA,""
"image-keyboard-response",593,424841,"0.0-4.193-2.193","jmk58hlvnz28tv9",732,"169.csv","","null","resources/images/fishbone.png","null","",NA,NA,NA,NA,""
"image-keyboard-response",594,424891,"0.0-4.194-0.194","jmk58hlvnz28tv9",732,"169.csv","","48.09999999962747","resources/trios/L1T4A3.jpg","38","restless",0.1,0.2,0.5,0.593685174744321,"false"
"image-keyboard-response",595,425304,"0.0-4.194-1.194","jmk58hlvnz28tv9",732,"169.csv","","null","resources/maskTrios/BT4B.jpg","null","",NA,NA,NA,NA,""
"image-keyboard-response",596,426509,"0.0-4.194-2.194","jmk58hlvnz28tv9",732,"169.csv","","null","resources/images/fishbone.png","null","",NA,NA,NA,NA,""
"image-keyboard-response",597,426595,"0.0-4.195-0.195","jmk58hlvnz28tv9",732,"169.csv","","84.09999999962747","resources/trios/L1T4A3.jpg","38","restless",0.1,0.2,0.6,0.830996507541431,"false"
"image-keyboard-response",598,427009,"0.0-4.195-1.195","jmk58hlvnz28tv9",732,"169.csv","","null","resources/maskTrios/BT4B.jpg","null","",NA,NA,NA,NA,""
"image-keyboard-response",599,428218,"0.0-4.195-2.195","jmk58hlvnz28tv9",732,"169.csv","","null","resources/images/fishbone.png","null","",NA,NA,NA,NA,""
"image-keyboard-response",600,428401,"0.0-4.196-0.196","jmk58hlvnz28tv9",732,"169.csv","","180.20000000018626","resources/trios/L1T4A3.jpg","38","restless",0.1,0.2,0.6,0.0861189887615805,"true"
"image-keyboard-response",601,428814,"0.0-4.196-1.196","jmk58hlvnz28tv9",732,"169.csv","","null","resources/maskTrios/BT4B.jpg","null","",NA,NA,NA,NA,""
"image-keyboard-response",602,430025,"0.0-4.196-2.196","jmk58hlvnz28tv9",732,"169.csv","","null","resources/images/coin2.png","null","",NA,NA,NA,NA,""
"image-keyboard-response",603,430598,"0.0-4.197-0.197","jmk58hlvnz28tv9",732,"169.csv","","571.2000000001863","resources/trios/L1T4A3.jpg","37","restless",0.1,0.3,0.6,0.973081461193118,"false"
"image-keyboard-response",604,431005,"0.0-4.197-1.197","jmk58hlvnz28tv9",732,"169.csv","","null","resources/maskTrios/L1BB.jpg","null","",NA,NA,NA,NA,""
"image-keyboard-response",605,432218,"0.0-4.197-2.197","jmk58hlvnz28tv9",732,"169.csv","","null","resources/images/fishbone.png","null","",NA,NA,NA,NA,""
"image-keyboard-response",606,432601,"0.0-4.198-0.198","jmk58hlvnz28tv9",732,"169.csv","","380","resources/trios/L1T4A3.jpg","39","restless",0.1,0.3,0.6,0.329032637173502,"true"
"image-keyboard-response",607,433004,"0.0-4.198-1.198","jmk58hlvnz28tv9",732,"169.csv","","null","resources/maskTrios/BBA3.jpg","null","",NA,NA,NA,NA,""
"image-keyboard-response",608,434217,"0.0-4.198-2.198","jmk58hlvnz28tv9",732,"169.csv","","null","resources/images/coin2.png","null","",NA,NA,NA,NA,""
