"trial_type","trial_index","time_elapsed","internal_node_id","subject","participantCode","walkNumber","success","rt","stimulus","key_press","test_part","leftProb","midProb","rightProb","generatedNum","correct"
"pavlovia",0,990,"0.0-0.0","duhtzko8h2xmzn7",345,"91.csv","","","","","",NA,NA,NA,NA,""
"fullscreen",1,3557,"0.0-1.0","duhtzko8h2xmzn7",345,"91.csv","true","","","","",NA,NA,NA,NA,""
"survey-html-form",2,8350,"0.0-2.0","duhtzko8h2xmzn7",345,"91.csv","","4747","","","",NA,NA,NA,NA,""
"image-keyboard-response",3,18194,"0.0-3.0-0.0","duhtzko8h2xmzn7",345,"91.csv","","9842","resources/images/parrot_nobg.png","13","",NA,NA,NA,NA,""
"image-keyboard-response",4,21198,"0.0-3.0-1.0","duhtzko8h2xmzn7",345,"91.csv","","null","resources/image_sets/111.png","null","",NA,NA,NA,NA,""
"image-keyboard-response",5,26167,"0.0-3.0-2.0","duhtzko8h2xmzn7",345,"91.csv","","4968","resources/image_sets/left_highlight.png","37","",NA,NA,NA,NA,""
"image-keyboard-response",6,27932,"0.0-3.0-3.0","duhtzko8h2xmzn7",345,"91.csv","","1765","resources/image_sets/mid_highlight.png","38","",NA,NA,NA,NA,""
"image-keyboard-response",7,29083,"0.0-3.0-4.0","duhtzko8h2xmzn7",345,"91.csv","","1150","resources/image_sets/right_highlight.png","39","",NA,NA,NA,NA,""
"image-keyboard-response",8,32472,"0.0-3.0-5.0","duhtzko8h2xmzn7",345,"91.csv","","3388","resources/image_sets/111.png","13","",NA,NA,NA,NA,""
"image-keyboard-response",9,34434,"0.0-3.0-6.0","duhtzko8h2xmzn7",345,"91.csv","","1961","resources/images/coin2.png","13","",NA,NA,NA,NA,""
"image-keyboard-response",10,37012,"0.0-3.0-7.0","duhtzko8h2xmzn7",345,"91.csv","","2577","resources/images/fishbone.png","13","",NA,NA,NA,NA,""
"html-keyboard-response",11,42956,"0.0-3.0-8.0","duhtzko8h2xmzn7",345,"91.csv","","5943","<p>You can track your coin total on the top right of your screen. </p><p>At the end of your journey you will be directed to a survey, so please click on the link before exiting the task</p><p>Press Enter to begin</p>","13","",NA,NA,NA,NA,""
"image-keyboard-response",12,44879,"0.0-4.0-0.0","duhtzko8h2xmzn7",345,"91.csv","","1921","resources/trios/L1T2A2.jpg","37","restless",0.7,0.9,0.3,0.474973153366563,"true"
"image-keyboard-response",13,45285,"0.0-4.0-1.0","duhtzko8h2xmzn7",345,"91.csv","","null","resources/maskTrios/L1BB.jpg","null","",NA,NA,NA,NA,""
"image-keyboard-response",14,46489,"0.0-4.0-2.0","duhtzko8h2xmzn7",345,"91.csv","","null","resources/images/coin2.png","null","",NA,NA,NA,NA,""
"image-keyboard-response",15,47518,"0.0-4.1-0.1","duhtzko8h2xmzn7",345,"91.csv","","1027","resources/trios/L1T2A2.jpg","38","restless",0.7,0.9,0.4,0.073414811113521,"true"
"image-keyboard-response",16,47959,"0.0-4.1-1.1","duhtzko8h2xmzn7",345,"91.csv","","null","resources/maskTrios/BT2B.jpg","null","",NA,NA,NA,NA,""
"image-keyboard-response",17,49165,"0.0-4.1-2.1","duhtzko8h2xmzn7",345,"91.csv","","null","resources/images/coin2.png","null","",NA,NA,NA,NA,""
"image-keyboard-response",18,49835,"0.0-4.2-0.2","duhtzko8h2xmzn7",345,"91.csv","","670","resources/trios/L1T2A2.jpg","39","restless",0.7,0.9,0.4,0.852402688116804,"false"
"image-keyboard-response",19,50236,"0.0-4.2-1.2","duhtzko8h2xmzn7",345,"91.csv","","null","resources/maskTrios/BBA2.jpg","null","",NA,NA,NA,NA,""
"image-keyboard-response",20,51441,"0.0-4.2-2.2","duhtzko8h2xmzn7",345,"91.csv","","null","resources/images/fishbone.png","null","",NA,NA,NA,NA,""
"image-keyboard-response",21,51904,"0.0-4.3-0.3","duhtzko8h2xmzn7",345,"91.csv","","462","resources/trios/L1T2A2.jpg","37","restless",0.7,0.9,0.4,0.987562625015658,"false"
"image-keyboard-response",22,52306,"0.0-4.3-1.3","duhtzko8h2xmzn7",345,"91.csv","","null","resources/maskTrios/L1BB.jpg","null","",NA,NA,NA,NA,""
"image-keyboard-response",23,53509,"0.0-4.3-2.3","duhtzko8h2xmzn7",345,"91.csv","","null","resources/images/fishbone.png","null","",NA,NA,NA,NA,""
"image-keyboard-response",24,53895,"0.0-4.4-0.4","duhtzko8h2xmzn7",345,"91.csv","","386","resources/trios/L1T2A2.jpg","38","restless",0.7,0.9,0.4,0.253328758546495,"true"
"image-keyboard-response",25,54300,"0.0-4.4-1.4","duhtzko8h2xmzn7",345,"91.csv","","null","resources/maskTrios/BT2B.jpg","null","",NA,NA,NA,NA,""
"image-keyboard-response",26,55504,"0.0-4.4-2.4","duhtzko8h2xmzn7",345,"91.csv","","null","resources/images/coin2.png","null","",NA,NA,NA,NA,""
"image-keyboard-response",27,55902,"0.0-4.5-0.5","duhtzko8h2xmzn7",345,"91.csv","","396","resources/trios/L1T2A2.jpg","38","restless",0.7,0.9,0.4,0.670732788974214,"true"
"image-keyboard-response",28,56307,"0.0-4.5-1.5","duhtzko8h2xmzn7",345,"91.csv","","null","resources/maskTrios/BT2B.jpg","null","",NA,NA,NA,NA,""
"image-keyboard-response",29,57508,"0.0-4.5-2.5","duhtzko8h2xmzn7",345,"91.csv","","null","resources/images/coin2.png","null","",NA,NA,NA,NA,""
"image-keyboard-response",30,57930,"0.0-4.6-0.6","duhtzko8h2xmzn7",345,"91.csv","","420","resources/trios/L1T2A2.jpg","37","restless",0.7,0.9,0.4,0.591220695828859,"true"
"image-keyboard-response",31,58334,"0.0-4.6-1.6","duhtzko8h2xmzn7",345,"91.csv","","null","resources/maskTrios/L1BB.jpg","null","",NA,NA,NA,NA,""
"image-keyboard-response",32,59540,"0.0-4.6-2.6","duhtzko8h2xmzn7",345,"91.csv","","null","resources/images/coin2.png","null","",NA,NA,NA,NA,""
"image-keyboard-response",33,59850,"0.0-4.7-0.7","duhtzko8h2xmzn7",345,"91.csv","","309","resources/trios/L1T2A2.jpg","38","restless",0.7,0.9,0.4,0.473057643394331,"true"
"image-keyboard-response",34,60253,"0.0-4.7-1.7","duhtzko8h2xmzn7",345,"91.csv","","null","resources/maskTrios/BT2B.jpg","null","",NA,NA,NA,NA,""
"image-keyboard-response",35,61462,"0.0-4.7-2.7","duhtzko8h2xmzn7",345,"91.csv","","null","resources/images/coin2.png","null","",NA,NA,NA,NA,""
"image-keyboard-response",36,61856,"0.0-4.8-0.8","duhtzko8h2xmzn7",345,"91.csv","","393","resources/trios/L1T2A2.jpg","37","restless",0.7,0.9,0.4,0.37115721533675,"true"
"image-keyboard-response",37,62260,"0.0-4.8-1.8","duhtzko8h2xmzn7",345,"91.csv","","null","resources/maskTrios/L1BB.jpg","null","",NA,NA,NA,NA,""
"image-keyboard-response",38,63463,"0.0-4.8-2.8","duhtzko8h2xmzn7",345,"91.csv","","null","resources/images/coin2.png","null","",NA,NA,NA,NA,""
"image-keyboard-response",39,63802,"0.0-4.9-0.9","duhtzko8h2xmzn7",345,"91.csv","","339","resources/trios/L1T2A2.jpg","38","restless",0.7,0.9,0.4,0.661578086429471,"true"
"image-keyboard-response",40,64205,"0.0-4.9-1.9","duhtzko8h2xmzn7",345,"91.csv","","null","resources/maskTrios/BT2B.jpg","null","",NA,NA,NA,NA,""
"image-keyboard-response",41,65408,"0.0-4.9-2.9","duhtzko8h2xmzn7",345,"91.csv","","null","resources/images/coin2.png","null","",NA,NA,NA,NA,""
"image-keyboard-response",42,65810,"0.0-4.10-0.10","duhtzko8h2xmzn7",345,"91.csv","","402","resources/trios/L1T2A2.jpg","39","restless",0.8,0.9,0.4,0.816947478289284,"false"
"image-keyboard-response",43,66212,"0.0-4.10-1.10","duhtzko8h2xmzn7",345,"91.csv","","null","resources/maskTrios/BBA2.jpg","null","",NA,NA,NA,NA,""
"image-keyboard-response",44,67416,"0.0-4.10-2.10","duhtzko8h2xmzn7",345,"91.csv","","null","resources/images/fishbone.png","null","",NA,NA,NA,NA,""
"image-keyboard-response",45,67828,"0.0-4.11-0.11","duhtzko8h2xmzn7",345,"91.csv","","411","resources/trios/L1T2A2.jpg","38","restless",0.8,0.9,0.4,0.604843368530598,"true"
"image-keyboard-response",46,68232,"0.0-4.11-1.11","duhtzko8h2xmzn7",345,"91.csv","","null","resources/maskTrios/BT2B.jpg","null","",NA,NA,NA,NA,""
"image-keyboard-response",47,69435,"0.0-4.11-2.11","duhtzko8h2xmzn7",345,"91.csv","","null","resources/images/coin2.png","null","",NA,NA,NA,NA,""
"image-keyboard-response",48,69762,"0.0-4.12-0.12","duhtzko8h2xmzn7",345,"91.csv","","326","resources/trios/L1T2A2.jpg","37","restless",0.8,0.9,0.4,0.387622221494351,"true"
"image-keyboard-response",49,70167,"0.0-4.12-1.12","duhtzko8h2xmzn7",345,"91.csv","","null","resources/maskTrios/L1BB.jpg","null","",NA,NA,NA,NA,""
"image-keyboard-response",50,71437,"0.0-4.12-2.12","duhtzko8h2xmzn7",345,"91.csv","","null","resources/images/coin2.png","null","",NA,NA,NA,NA,""
"image-keyboard-response",51,71729,"0.0-4.13-0.13","duhtzko8h2xmzn7",345,"91.csv","","291","resources/trios/L1T2A2.jpg","38","restless",0.8,0.9,0.4,0.139756866009745,"true"
"image-keyboard-response",52,72137,"0.0-4.13-1.13","duhtzko8h2xmzn7",345,"91.csv","","null","resources/maskTrios/BT2B.jpg","null","",NA,NA,NA,NA,""
"image-keyboard-response",53,73456,"0.0-4.13-2.13","duhtzko8h2xmzn7",345,"91.csv","","null","resources/images/coin2.png","null","",NA,NA,NA,NA,""
"image-keyboard-response",54,73742,"0.0-4.14-0.14","duhtzko8h2xmzn7",345,"91.csv","","285","resources/trios/L1T2A2.jpg","37","restless",0.8,0.9,0.4,0.495803253452387,"true"
"image-keyboard-response",55,74149,"0.0-4.14-1.14","duhtzko8h2xmzn7",345,"91.csv","","null","resources/maskTrios/L1BB.jpg","null","",NA,NA,NA,NA,""
"image-keyboard-response",56,75470,"0.0-4.14-2.14","duhtzko8h2xmzn7",345,"91.csv","","null","resources/images/coin2.png","null","",NA,NA,NA,NA,""
"image-keyboard-response",57,75748,"0.0-4.15-0.15","duhtzko8h2xmzn7",345,"91.csv","","277","resources/trios/L1T2A2.jpg","38","restless",0.8,0.9,0.4,0.838611511423706,"true"
"image-keyboard-response",58,76152,"0.0-4.15-1.15","duhtzko8h2xmzn7",345,"91.csv","","null","resources/maskTrios/BT2B.jpg","null","",NA,NA,NA,NA,""
"image-keyboard-response",59,77486,"0.0-4.15-2.15","duhtzko8h2xmzn7",345,"91.csv","","null","resources/images/coin2.png","null","",NA,NA,NA,NA,""
"image-keyboard-response",60,77750,"0.0-4.16-0.16","duhtzko8h2xmzn7",345,"91.csv","","262","resources/trios/L1T2A2.jpg","37","restless",0.8,0.9,0.4,0.522777945640586,"true"
"image-keyboard-response",61,78160,"0.0-4.16-1.16","duhtzko8h2xmzn7",345,"91.csv","","null","resources/maskTrios/L1BB.jpg","null","",NA,NA,NA,NA,""
"image-keyboard-response",62,79505,"0.0-4.16-2.16","duhtzko8h2xmzn7",345,"91.csv","","null","resources/images/coin2.png","null","",NA,NA,NA,NA,""
"image-keyboard-response",63,80161,"0.0-4.17-0.17","duhtzko8h2xmzn7",345,"91.csv","","656","resources/trios/L1T2A2.jpg","38","restless",0.8,0.9,0.3,0.0269014480015035,"true"
"image-keyboard-response",64,80565,"0.0-4.17-1.17","duhtzko8h2xmzn7",345,"91.csv","","null","resources/maskTrios/BT2B.jpg","null","",NA,NA,NA,NA,""
"image-keyboard-response",65,81769,"0.0-4.17-2.17","duhtzko8h2xmzn7",345,"91.csv","","null","resources/images/coin2.png","null","",NA,NA,NA,NA,""
"image-keyboard-response",66,82100,"0.0-4.18-0.18","duhtzko8h2xmzn7",345,"91.csv","","331","resources/trios/L1T2A2.jpg","37","restless",0.8,0.9,0.3,0.182760494715669,"true"
"image-keyboard-response",67,82505,"0.0-4.18-1.18","duhtzko8h2xmzn7",345,"91.csv","","null","resources/maskTrios/L1BB.jpg","null","",NA,NA,NA,NA,""
"image-keyboard-response",68,83774,"0.0-4.18-2.18","duhtzko8h2xmzn7",345,"91.csv","","null","resources/images/coin2.png","null","",NA,NA,NA,NA,""
"image-keyboard-response",69,84066,"0.0-4.19-0.19","duhtzko8h2xmzn7",345,"91.csv","","291","resources/trios/L1T2A2.jpg","38","restless",0.8,0.9,0.3,0.940524669137543,"false"
"image-keyboard-response",70,84471,"0.0-4.19-1.19","duhtzko8h2xmzn7",345,"91.csv","","null","resources/maskTrios/BT2B.jpg","null","",NA,NA,NA,NA,""
"image-keyboard-response",71,85786,"0.0-4.19-2.19","duhtzko8h2xmzn7",345,"91.csv","","null","resources/images/fishbone.png","null","",NA,NA,NA,NA,""
"image-keyboard-response",72,86219,"0.0-4.20-0.20","duhtzko8h2xmzn7",345,"91.csv","","433","resources/trios/L1T2A2.jpg","37","restless",0.8,0.9,0.3,0.642586893649204,"true"
"image-keyboard-response",73,86622,"0.0-4.20-1.20","duhtzko8h2xmzn7",345,"91.csv","","null","resources/maskTrios/L1BB.jpg","null","",NA,NA,NA,NA,""
"image-keyboard-response",74,87826,"0.0-4.20-2.20","duhtzko8h2xmzn7",345,"91.csv","","null","resources/images/coin2.png","null","",NA,NA,NA,NA,""
"image-keyboard-response",75,88218,"0.0-4.21-0.21","duhtzko8h2xmzn7",345,"91.csv","","391","resources/trios/L1T2A2.jpg","39","restless",0.8,0.9,0.3,0.329719684893275,"false"
"image-keyboard-response",76,88624,"0.0-4.21-1.21","duhtzko8h2xmzn7",345,"91.csv","","null","resources/maskTrios/BBA2.jpg","null","",NA,NA,NA,NA,""
"image-keyboard-response",77,89832,"0.0-4.21-2.21","duhtzko8h2xmzn7",345,"91.csv","","null","resources/images/fishbone.png","null","",NA,NA,NA,NA,""
"image-keyboard-response",78,90117,"0.0-4.22-0.22","duhtzko8h2xmzn7",345,"91.csv","","284","resources/trios/L1T2A2.jpg","37","restless",0.8,0.8,0.4,0.297331380754524,"true"
"image-keyboard-response",79,90520,"0.0-4.22-1.22","duhtzko8h2xmzn7",345,"91.csv","","null","resources/maskTrios/L1BB.jpg","null","",NA,NA,NA,NA,""
"image-keyboard-response",80,91845,"0.0-4.22-2.22","duhtzko8h2xmzn7",345,"91.csv","","null","resources/images/coin2.png","null","",NA,NA,NA,NA,""
"image-keyboard-response",81,92161,"0.0-4.23-0.23","duhtzko8h2xmzn7",345,"91.csv","","316","resources/trios/L1T2A2.jpg","37","restless",0.8,0.8,0.3,0.770680708417472,"true"
"image-keyboard-response",82,92565,"0.0-4.23-1.23","duhtzko8h2xmzn7",345,"91.csv","","null","resources/maskTrios/L1BB.jpg","null","",NA,NA,NA,NA,""
"image-keyboard-response",83,93861,"0.0-4.23-2.23","duhtzko8h2xmzn7",345,"91.csv","","null","resources/images/coin2.png","null","",NA,NA,NA,NA,""
"image-keyboard-response",84,94164,"0.0-4.24-0.24","duhtzko8h2xmzn7",345,"91.csv","","302","resources/trios/L1T2A2.jpg","38","restless",0.8,0.8,0.3,0.746029292860148,"true"
"image-keyboard-response",85,94571,"0.0-4.24-1.24","duhtzko8h2xmzn7",345,"91.csv","","null","resources/maskTrios/BT2B.jpg","null","",NA,NA,NA,NA,""
"image-keyboard-response",86,95873,"0.0-4.24-2.24","duhtzko8h2xmzn7",345,"91.csv","","null","resources/images/coin2.png","null","",NA,NA,NA,NA,""
"image-keyboard-response",87,96125,"0.0-4.25-0.25","duhtzko8h2xmzn7",345,"91.csv","","251","resources/trios/L1T2A2.jpg","37","restless",0.8,0.8,0.3,0.133006357890493,"true"
"image-keyboard-response",88,96531,"0.0-4.25-1.25","duhtzko8h2xmzn7",345,"91.csv","","null","resources/maskTrios/L1BB.jpg","null","",NA,NA,NA,NA,""
"image-keyboard-response",89,97736,"0.0-4.25-2.25","duhtzko8h2xmzn7",345,"91.csv","","null","resources/images/coin2.png","null","",NA,NA,NA,NA,""
"image-keyboard-response",90,98062,"0.0-4.26-0.26","duhtzko8h2xmzn7",345,"91.csv","","325","resources/trios/L1T2A2.jpg","37","restless",0.8,0.8,0.3,0.53913375602307,"true"
"image-keyboard-response",91,98465,"0.0-4.26-1.26","duhtzko8h2xmzn7",345,"91.csv","","null","resources/maskTrios/L1BB.jpg","null","",NA,NA,NA,NA,""
"image-keyboard-response",92,99669,"0.0-4.26-2.26","duhtzko8h2xmzn7",345,"91.csv","","null","resources/images/coin2.png","null","",NA,NA,NA,NA,""
"image-keyboard-response",93,99946,"0.0-4.27-0.27","duhtzko8h2xmzn7",345,"91.csv","","278","resources/trios/L1T2A2.jpg","38","restless",0.8,0.8,0.4,0.0881195081751494,"true"
"image-keyboard-response",94,100353,"0.0-4.27-1.27","duhtzko8h2xmzn7",345,"91.csv","","null","resources/maskTrios/BT2B.jpg","null","",NA,NA,NA,NA,""
"image-keyboard-response",95,101559,"0.0-4.27-2.27","duhtzko8h2xmzn7",345,"91.csv","","null","resources/images/coin2.png","null","",NA,NA,NA,NA,""
"image-keyboard-response",96,101845,"0.0-4.28-0.28","duhtzko8h2xmzn7",345,"91.csv","","286","resources/trios/L1T2A2.jpg","37","restless",0.7,0.8,0.4,0.859570375244418,"false"
"image-keyboard-response",97,102249,"0.0-4.28-1.28","duhtzko8h2xmzn7",345,"91.csv","","null","resources/maskTrios/L1BB.jpg","null","",NA,NA,NA,NA,""
"image-keyboard-response",98,103458,"0.0-4.28-2.28","duhtzko8h2xmzn7",345,"91.csv","","null","resources/images/fishbone.png","null","",NA,NA,NA,NA,""
"image-keyboard-response",99,103778,"0.0-4.29-0.29","duhtzko8h2xmzn7",345,"91.csv","","319","resources/trios/L1T2A2.jpg","38","restless",0.7,0.8,0.4,0.413940942455087,"true"
"image-keyboard-response",100,104184,"0.0-4.29-1.29","duhtzko8h2xmzn7",345,"91.csv","","null","resources/maskTrios/BT2B.jpg","null","",NA,NA,NA,NA,""
"image-keyboard-response",101,105393,"0.0-4.29-2.29","duhtzko8h2xmzn7",345,"91.csv","","null","resources/images/coin2.png","null","",NA,NA,NA,NA,""
"image-keyboard-response",102,105684,"0.0-4.30-0.30","duhtzko8h2xmzn7",345,"91.csv","","290","resources/trios/L1T2A2.jpg","37","restless",0.7,0.8,0.4,0.203607031916905,"true"
"image-keyboard-response",103,106088,"0.0-4.30-1.30","duhtzko8h2xmzn7",345,"91.csv","","null","resources/maskTrios/L1BB.jpg","null","",NA,NA,NA,NA,""
"image-keyboard-response",104,107396,"0.0-4.30-2.30","duhtzko8h2xmzn7",345,"91.csv","","null","resources/images/coin2.png","null","",NA,NA,NA,NA,""
"image-keyboard-response",105,107653,"0.0-4.31-0.31","duhtzko8h2xmzn7",345,"91.csv","","255","resources/trios/L1T2A2.jpg","38","restless",0.7,0.8,0.4,0.132975961401326,"true"
"image-keyboard-response",106,108060,"0.0-4.31-1.31","duhtzko8h2xmzn7",345,"91.csv","","null","resources/maskTrios/BT2B.jpg","null","",NA,NA,NA,NA,""
"image-keyboard-response",107,109265,"0.0-4.31-2.31","duhtzko8h2xmzn7",345,"91.csv","","null","resources/images/coin2.png","null","",NA,NA,NA,NA,""
"image-keyboard-response",108,109563,"0.0-4.32-0.32","duhtzko8h2xmzn7",345,"91.csv","","297","resources/trios/L1T2A2.jpg","38","restless",0.7,0.8,0.4,0.843181927297956,"false"
"image-keyboard-response",109,109972,"0.0-4.32-1.32","duhtzko8h2xmzn7",345,"91.csv","","null","resources/maskTrios/BT2B.jpg","null","",NA,NA,NA,NA,""
"image-keyboard-response",110,111178,"0.0-4.32-2.32","duhtzko8h2xmzn7",345,"91.csv","","null","resources/images/fishbone.png","null","",NA,NA,NA,NA,""
"image-keyboard-response",111,111559,"0.0-4.33-0.33","duhtzko8h2xmzn7",345,"91.csv","","379","resources/trios/L1T2A2.jpg","39","restless",0.7,0.8,0.4,0.0629815747967901,"true"
"image-keyboard-response",112,111964,"0.0-4.33-1.33","duhtzko8h2xmzn7",345,"91.csv","","null","resources/maskTrios/BBA2.jpg","null","",NA,NA,NA,NA,""
"image-keyboard-response",113,113165,"0.0-4.33-2.33","duhtzko8h2xmzn7",345,"91.csv","","null","resources/images/coin2.png","null","",NA,NA,NA,NA,""
"image-keyboard-response",114,113513,"0.0-4.34-0.34","duhtzko8h2xmzn7",345,"91.csv","","347","resources/trios/L1T2A2.jpg","37","restless",0.7,0.8,0.5,0.361137250157357,"true"
"image-keyboard-response",115,113915,"0.0-4.34-1.34","duhtzko8h2xmzn7",345,"91.csv","","null","resources/maskTrios/L1BB.jpg","null","",NA,NA,NA,NA,""
"image-keyboard-response",116,115120,"0.0-4.34-2.34","duhtzko8h2xmzn7",345,"91.csv","","null","resources/images/coin2.png","null","",NA,NA,NA,NA,""
"image-keyboard-response",117,115445,"0.0-4.35-0.35","duhtzko8h2xmzn7",345,"91.csv","","323","resources/trios/L1T2A2.jpg","38","restless",0.7,0.8,0.5,0.23634992206954,"true"
"image-keyboard-response",118,115849,"0.0-4.35-1.35","duhtzko8h2xmzn7",345,"91.csv","","null","resources/maskTrios/BT2B.jpg","null","",NA,NA,NA,NA,""
"image-keyboard-response",119,117054,"0.0-4.35-2.35","duhtzko8h2xmzn7",345,"91.csv","","null","resources/images/coin2.png","null","",NA,NA,NA,NA,""
"image-keyboard-response",120,117548,"0.0-4.36-0.36","duhtzko8h2xmzn7",345,"91.csv","","493","resources/trios/L1T2A2.jpg","37","restless",0.7,0.8,0.5,0.423780740479632,"true"
"image-keyboard-response",121,117953,"0.0-4.36-1.36","duhtzko8h2xmzn7",345,"91.csv","","null","resources/maskTrios/L1BB.jpg","null","",NA,NA,NA,NA,""
"image-keyboard-response",122,119282,"0.0-4.36-2.36","duhtzko8h2xmzn7",345,"91.csv","","null","resources/images/coin2.png","null","",NA,NA,NA,NA,""
"image-keyboard-response",123,119610,"0.0-4.37-0.37","duhtzko8h2xmzn7",345,"91.csv","","327","resources/trios/L1T2A2.jpg","39","restless",0.7,0.8,0.5,0.448555658623426,"true"
"image-keyboard-response",124,120014,"0.0-4.37-1.37","duhtzko8h2xmzn7",345,"91.csv","","null","resources/maskTrios/BBA2.jpg","null","",NA,NA,NA,NA,""
"image-keyboard-response",125,121289,"0.0-4.37-2.37","duhtzko8h2xmzn7",345,"91.csv","","null","resources/images/coin2.png","null","",NA,NA,NA,NA,""
"image-keyboard-response",126,121569,"0.0-4.38-0.38","duhtzko8h2xmzn7",345,"91.csv","","279","resources/trios/L1T2A2.jpg","38","restless",0.7,0.8,0.5,0.836349798998456,"false"
"image-keyboard-response",127,121972,"0.0-4.38-1.38","duhtzko8h2xmzn7",345,"91.csv","","null","resources/maskTrios/BT2B.jpg","null","",NA,NA,NA,NA,""
"image-keyboard-response",128,123304,"0.0-4.38-2.38","duhtzko8h2xmzn7",345,"91.csv","","null","resources/images/fishbone.png","null","",NA,NA,NA,NA,""
"image-keyboard-response",129,123600,"0.0-4.39-0.39","duhtzko8h2xmzn7",345,"91.csv","","294","resources/trios/L1T2A2.jpg","39","restless",0.7,0.8,0.4,0.557874809312898,"false"
"image-keyboard-response",130,124001,"0.0-4.39-1.39","duhtzko8h2xmzn7",345,"91.csv","","null","resources/maskTrios/BBA2.jpg","null","",NA,NA,NA,NA,""
"image-keyboard-response",131,125321,"0.0-4.39-2.39","duhtzko8h2xmzn7",345,"91.csv","","null","resources/images/fishbone.png","null","",NA,NA,NA,NA,""
"image-keyboard-response",132,125609,"0.0-4.40-0.40","duhtzko8h2xmzn7",345,"91.csv","","289","resources/trios/L1T2A2.jpg","37","restless",0.7,0.7,0.4,0.277670746825901,"true"
"image-keyboard-response",133,126012,"0.0-4.40-1.40","duhtzko8h2xmzn7",345,"91.csv","","null","resources/maskTrios/L1BB.jpg","null","",NA,NA,NA,NA,""
"image-keyboard-response",134,127335,"0.0-4.40-2.40","duhtzko8h2xmzn7",345,"91.csv","","null","resources/images/coin2.png","null","",NA,NA,NA,NA,""
"image-keyboard-response",135,127613,"0.0-4.41-0.41","duhtzko8h2xmzn7",345,"91.csv","","277","resources/trios/L1T2A2.jpg","37","restless",0.7,0.7,0.4,0.448366813995825,"true"
"image-keyboard-response",136,128014,"0.0-4.41-1.41","duhtzko8h2xmzn7",345,"91.csv","","null","resources/maskTrios/L1BB.jpg","null","",NA,NA,NA,NA,""
"image-keyboard-response",137,129355,"0.0-4.41-2.41","duhtzko8h2xmzn7",345,"91.csv","","null","resources/images/coin2.png","null","",NA,NA,NA,NA,""
"image-keyboard-response",138,129652,"0.0-4.42-0.42","duhtzko8h2xmzn7",345,"91.csv","","295","resources/trios/L1T2A2.jpg","37","restless",0.7,0.7,0.4,0.691398868702628,"true"
"image-keyboard-response",139,130056,"0.0-4.42-1.42","duhtzko8h2xmzn7",345,"91.csv","","null","resources/maskTrios/L1BB.jpg","null","",NA,NA,NA,NA,""
"image-keyboard-response",140,131368,"0.0-4.42-2.42","duhtzko8h2xmzn7",345,"91.csv","","null","resources/images/coin2.png","null","",NA,NA,NA,NA,""
"image-keyboard-response",141,131649,"0.0-4.43-0.43","duhtzko8h2xmzn7",345,"91.csv","","281","resources/trios/L1T2A2.jpg","38","restless",0.7,0.7,0.4,0.233323328166084,"true"
"image-keyboard-response",142,132053,"0.0-4.43-1.43","duhtzko8h2xmzn7",345,"91.csv","","null","resources/maskTrios/BT2B.jpg","null","",NA,NA,NA,NA,""
"image-keyboard-response",143,133383,"0.0-4.43-2.43","duhtzko8h2xmzn7",345,"91.csv","","null","resources/images/coin2.png","null","",NA,NA,NA,NA,""
"image-keyboard-response",144,133654,"0.0-4.44-0.44","duhtzko8h2xmzn7",345,"91.csv","","269","resources/trios/L1T2A2.jpg","38","restless",0.7,0.7,0.5,0.726022258787572,"false"
"image-keyboard-response",145,134059,"0.0-4.44-1.44","duhtzko8h2xmzn7",345,"91.csv","","null","resources/maskTrios/BT2B.jpg","null","",NA,NA,NA,NA,""
"image-keyboard-response",146,135392,"0.0-4.44-2.44","duhtzko8h2xmzn7",345,"91.csv","","null","resources/images/fishbone.png","null","",NA,NA,NA,NA,""
"image-keyboard-response",147,135711,"0.0-4.45-0.45","duhtzko8h2xmzn7",345,"91.csv","","318","resources/trios/L1T2A2.jpg","37","restless",0.7,0.7,0.5,0.815193072860707,"false"
"image-keyboard-response",148,136113,"0.0-4.45-1.45","duhtzko8h2xmzn7",345,"91.csv","","null","resources/maskTrios/L1BB.jpg","null","",NA,NA,NA,NA,""
"image-keyboard-response",149,137406,"0.0-4.45-2.45","duhtzko8h2xmzn7",345,"91.csv","","null","resources/images/fishbone.png","null","",NA,NA,NA,NA,""
"image-keyboard-response",150,137744,"0.0-4.46-0.46","duhtzko8h2xmzn7",345,"91.csv","","339","resources/trios/L1T2A2.jpg","39","restless",0.7,0.7,0.5,0.340291956279849,"true"
"image-keyboard-response",151,138153,"0.0-4.46-1.46","duhtzko8h2xmzn7",345,"91.csv","","null","resources/maskTrios/BBA2.jpg","null","",NA,NA,NA,NA,""
"image-keyboard-response",152,139415,"0.0-4.46-2.46","duhtzko8h2xmzn7",345,"91.csv","","null","resources/images/coin2.png","null","",NA,NA,NA,NA,""
"image-keyboard-response",153,142921,"0.0-4.47-0.47","duhtzko8h2xmzn7",345,"91.csv","","3506","resources/trios/L1T2A2.jpg","39","restless",0.7,0.7,0.5,0.852556204110049,"false"
"image-keyboard-response",154,143329,"0.0-4.47-1.47","duhtzko8h2xmzn7",345,"91.csv","","null","resources/maskTrios/BBA2.jpg","null","",NA,NA,NA,NA,""
"image-keyboard-response",155,144535,"0.0-4.47-2.47","duhtzko8h2xmzn7",345,"91.csv","","null","resources/images/fishbone.png","null","",NA,NA,NA,NA,""
"image-keyboard-response",156,146067,"0.0-4.48-0.48","duhtzko8h2xmzn7",345,"91.csv","","1533","resources/trios/L1T2A2.jpg","38","restless",0.7,0.7,0.5,0.585663328028308,"true"
"image-keyboard-response",157,146470,"0.0-4.48-1.48","duhtzko8h2xmzn7",345,"91.csv","","null","resources/maskTrios/BT2B.jpg","null","",NA,NA,NA,NA,""
"image-keyboard-response",158,147674,"0.0-4.48-2.48","duhtzko8h2xmzn7",345,"91.csv","","null","resources/images/coin2.png","null","",NA,NA,NA,NA,""
"image-keyboard-response",159,147972,"0.0-4.49-0.49","duhtzko8h2xmzn7",345,"91.csv","","297","resources/trios/L1T2A2.jpg","38","restless",0.7,0.7,0.5,0.199907116196899,"true"
"image-keyboard-response",160,148378,"0.0-4.49-1.49","duhtzko8h2xmzn7",345,"91.csv","","null","resources/maskTrios/BT2B.jpg","null","",NA,NA,NA,NA,""
"image-keyboard-response",161,149676,"0.0-4.49-2.49","duhtzko8h2xmzn7",345,"91.csv","","null","resources/images/coin2.png","null","",NA,NA,NA,NA,""
"image-keyboard-response",162,150013,"0.0-4.50-0.50","duhtzko8h2xmzn7",345,"91.csv","","338","resources/trios/L1T2A2.jpg","38","restless",0.7,0.7,0.5,0.568329279802549,"true"
"image-keyboard-response",163,150416,"0.0-4.50-1.50","duhtzko8h2xmzn7",345,"91.csv","","null","resources/maskTrios/BT2B.jpg","null","",NA,NA,NA,NA,""
"image-keyboard-response",164,151685,"0.0-4.50-2.50","duhtzko8h2xmzn7",345,"91.csv","","null","resources/images/coin2.png","null","",NA,NA,NA,NA,""
"image-keyboard-response",165,152057,"0.0-4.51-0.51","duhtzko8h2xmzn7",345,"91.csv","","370","resources/trios/L1T2A2.jpg","37","restless",0.7,0.7,0.5,0.676520421212053,"true"
"image-keyboard-response",166,152460,"0.0-4.51-1.51","duhtzko8h2xmzn7",345,"91.csv","","null","resources/maskTrios/L1BB.jpg","null","",NA,NA,NA,NA,""
"image-keyboard-response",167,153705,"0.0-4.51-2.51","duhtzko8h2xmzn7",345,"91.csv","","null","resources/images/coin2.png","null","",NA,NA,NA,NA,""
"image-keyboard-response",168,154582,"0.0-4.52-0.52","duhtzko8h2xmzn7",345,"91.csv","","877","resources/trios/L1T2A2.jpg","38","restless",0.7,0.7,0.5,0.654142540738958,"true"
"image-keyboard-response",169,154987,"0.0-4.52-1.52","duhtzko8h2xmzn7",345,"91.csv","","null","resources/maskTrios/BT2B.jpg","null","",NA,NA,NA,NA,""
"image-keyboard-response",170,156192,"0.0-4.52-2.52","duhtzko8h2xmzn7",345,"91.csv","","null","resources/images/coin2.png","null","",NA,NA,NA,NA,""
"image-keyboard-response",171,156586,"0.0-4.53-0.53","duhtzko8h2xmzn7",345,"91.csv","","395","resources/trios/L1T2A2.jpg","38","restless",0.7,0.8,0.6,0.975706263837551,"false"
"image-keyboard-response",172,156991,"0.0-4.53-1.53","duhtzko8h2xmzn7",345,"91.csv","","null","resources/maskTrios/BT2B.jpg","null","",NA,NA,NA,NA,""
"image-keyboard-response",173,158194,"0.0-4.53-2.53","duhtzko8h2xmzn7",345,"91.csv","","null","resources/images/fishbone.png","null","",NA,NA,NA,NA,""
"image-keyboard-response",174,158509,"0.0-4.54-0.54","duhtzko8h2xmzn7",345,"91.csv","","315","resources/trios/L1T2A2.jpg","37","restless",0.7,0.7,0.5,0.868123230806687,"false"
"image-keyboard-response",175,158913,"0.0-4.54-1.54","duhtzko8h2xmzn7",345,"91.csv","","null","resources/maskTrios/L1BB.jpg","null","",NA,NA,NA,NA,""
"image-keyboard-response",176,160211,"0.0-4.54-2.54","duhtzko8h2xmzn7",345,"91.csv","","null","resources/images/fishbone.png","null","",NA,NA,NA,NA,""
"image-keyboard-response",177,160511,"0.0-4.55-0.55","duhtzko8h2xmzn7",345,"91.csv","","298","resources/trios/L1T2A2.jpg","38","restless",0.7,0.7,0.5,0.0635472767862912,"true"
"image-keyboard-response",178,160913,"0.0-4.55-1.55","duhtzko8h2xmzn7",345,"91.csv","","null","resources/maskTrios/BT2B.jpg","null","",NA,NA,NA,NA,""
"image-keyboard-response",179,162233,"0.0-4.55-2.55","duhtzko8h2xmzn7",345,"91.csv","","null","resources/images/coin2.png","null","",NA,NA,NA,NA,""
"image-keyboard-response",180,162498,"0.0-4.56-0.56","duhtzko8h2xmzn7",345,"91.csv","","264","resources/trios/L1T2A2.jpg","37","restless",0.7,0.7,0.5,0.959653822603599,"false"
"image-keyboard-response",181,162905,"0.0-4.56-1.56","duhtzko8h2xmzn7",345,"91.csv","","null","resources/maskTrios/L1BB.jpg","null","",NA,NA,NA,NA,""
"image-keyboard-response",182,164242,"0.0-4.56-2.56","duhtzko8h2xmzn7",345,"91.csv","","null","resources/images/fishbone.png","null","",NA,NA,NA,NA,""
"image-keyboard-response",183,164541,"0.0-4.57-0.57","duhtzko8h2xmzn7",345,"91.csv","","297","resources/trios/L1T2A2.jpg","37","restless",0.7,0.7,0.5,0.468702283146636,"true"
"image-keyboard-response",184,164946,"0.0-4.57-1.57","duhtzko8h2xmzn7",345,"91.csv","","null","resources/maskTrios/L1BB.jpg","null","",NA,NA,NA,NA,""
"image-keyboard-response",185,166261,"0.0-4.57-2.57","duhtzko8h2xmzn7",345,"91.csv","","null","resources/images/coin2.png","null","",NA,NA,NA,NA,""
"image-keyboard-response",186,166559,"0.0-4.58-0.58","duhtzko8h2xmzn7",345,"91.csv","","296","resources/trios/L1T2A2.jpg","37","restless",0.7,0.7,0.5,0.714773860827243,"false"
"image-keyboard-response",187,166965,"0.0-4.58-1.58","duhtzko8h2xmzn7",345,"91.csv","","null","resources/maskTrios/L1BB.jpg","null","",NA,NA,NA,NA,""
"image-keyboard-response",188,168272,"0.0-4.58-2.58","duhtzko8h2xmzn7",345,"91.csv","","null","resources/images/fishbone.png","null","",NA,NA,NA,NA,""
"image-keyboard-response",189,168549,"0.0-4.59-0.59","duhtzko8h2xmzn7",345,"91.csv","","276","resources/trios/L1T2A2.jpg","38","restless",0.7,0.7,0.5,0.548602873142489,"true"
"image-keyboard-response",190,168955,"0.0-4.59-1.59","duhtzko8h2xmzn7",345,"91.csv","","null","resources/maskTrios/BT2B.jpg","null","",NA,NA,NA,NA,""
"image-keyboard-response",191,170287,"0.0-4.59-2.59","duhtzko8h2xmzn7",345,"91.csv","","null","resources/images/coin2.png","null","",NA,NA,NA,NA,""
"image-keyboard-response",192,170575,"0.0-4.60-0.60","duhtzko8h2xmzn7",345,"91.csv","","287","resources/trios/L1T2A2.jpg","38","restless",0.7,0.7,0.4,0.137561140101484,"true"
"image-keyboard-response",193,170980,"0.0-4.60-1.60","duhtzko8h2xmzn7",345,"91.csv","","null","resources/maskTrios/BT2B.jpg","null","",NA,NA,NA,NA,""
"image-keyboard-response",194,172310,"0.0-4.60-2.60","duhtzko8h2xmzn7",345,"91.csv","","null","resources/images/coin2.png","null","",NA,NA,NA,NA,""
"image-keyboard-response",195,172657,"0.0-4.61-0.61","duhtzko8h2xmzn7",345,"91.csv","","346","resources/trios/L1T2A2.jpg","39","restless",0.6,0.7,0.4,0.609748939827975,"false"
"image-keyboard-response",196,173061,"0.0-4.61-1.61","duhtzko8h2xmzn7",345,"91.csv","","null","resources/maskTrios/BBA2.jpg","null","",NA,NA,NA,NA,""
"image-keyboard-response",197,174321,"0.0-4.61-2.61","duhtzko8h2xmzn7",345,"91.csv","","null","resources/images/fishbone.png","null","",NA,NA,NA,NA,""
"image-keyboard-response",198,174595,"0.0-4.62-0.62","duhtzko8h2xmzn7",345,"91.csv","","274","resources/trios/L1T2A2.jpg","38","restless",0.6,0.7,0.4,0.611465757409456,"true"
"image-keyboard-response",199,174999,"0.0-4.62-1.62","duhtzko8h2xmzn7",345,"91.csv","","null","resources/maskTrios/BT2B.jpg","null","",NA,NA,NA,NA,""
"image-keyboard-response",200,176333,"0.0-4.62-2.62","duhtzko8h2xmzn7",345,"91.csv","","null","resources/images/coin2.png","null","",NA,NA,NA,NA,""
"image-keyboard-response",201,176631,"0.0-4.63-0.63","duhtzko8h2xmzn7",345,"91.csv","","296","resources/trios/L1T2A2.jpg","38","restless",0.6,0.7,0.4,0.853188737132743,"false"
"image-keyboard-response",202,177040,"0.0-4.63-1.63","duhtzko8h2xmzn7",345,"91.csv","","null","resources/maskTrios/BT2B.jpg","null","",NA,NA,NA,NA,""
"image-keyboard-response",203,178354,"0.0-4.63-2.63","duhtzko8h2xmzn7",345,"91.csv","","null","resources/images/fishbone.png","null","",NA,NA,NA,NA,""
"image-keyboard-response",204,178679,"0.0-4.64-0.64","duhtzko8h2xmzn7",345,"91.csv","","324","resources/trios/L1T2A2.jpg","37","restless",0.6,0.7,0.4,0.157203329367556,"true"
"image-keyboard-response",205,179080,"0.0-4.64-1.64","duhtzko8h2xmzn7",345,"91.csv","","null","resources/maskTrios/L1BB.jpg","null","",NA,NA,NA,NA,""
"image-keyboard-response",206,180363,"0.0-4.64-2.64","duhtzko8h2xmzn7",345,"91.csv","","null","resources/images/coin2.png","null","",NA,NA,NA,NA,""
"image-keyboard-response",207,180648,"0.0-4.65-0.65","duhtzko8h2xmzn7",345,"91.csv","","284","resources/trios/L1T2A2.jpg","37","restless",0.6,0.8,0.4,0.452471474914045,"true"
"image-keyboard-response",208,181056,"0.0-4.65-1.65","duhtzko8h2xmzn7",345,"91.csv","","null","resources/maskTrios/L1BB.jpg","null","",NA,NA,NA,NA,""
"image-keyboard-response",209,182379,"0.0-4.65-2.65","duhtzko8h2xmzn7",345,"91.csv","","null","resources/images/coin2.png","null","",NA,NA,NA,NA,""
"image-keyboard-response",210,182739,"0.0-4.66-0.66","duhtzko8h2xmzn7",345,"91.csv","","358","resources/trios/L1T2A2.jpg","39","restless",0.6,0.8,0.4,0.0747654533010002,"true"
"image-keyboard-response",211,183143,"0.0-4.66-1.66","duhtzko8h2xmzn7",345,"91.csv","","null","resources/maskTrios/BBA2.jpg","null","",NA,NA,NA,NA,""
"image-keyboard-response",212,184398,"0.0-4.66-2.66","duhtzko8h2xmzn7",345,"91.csv","","null","resources/images/coin2.png","null","",NA,NA,NA,NA,""
"image-keyboard-response",213,184721,"0.0-4.67-0.67","duhtzko8h2xmzn7",345,"91.csv","","322","resources/trios/L1T2A2.jpg","39","restless",0.6,0.8,0.4,0.327364795126336,"true"
"image-keyboard-response",214,185126,"0.0-4.67-1.67","duhtzko8h2xmzn7",345,"91.csv","","null","resources/maskTrios/BBA2.jpg","null","",NA,NA,NA,NA,""
"image-keyboard-response",215,186411,"0.0-4.67-2.67","duhtzko8h2xmzn7",345,"91.csv","","null","resources/images/coin2.png","null","",NA,NA,NA,NA,""
"image-keyboard-response",216,186723,"0.0-4.68-0.68","duhtzko8h2xmzn7",345,"91.csv","","310","resources/trios/L1T2A2.jpg","39","restless",0.6,0.8,0.4,0.372378237352499,"true"
"image-keyboard-response",217,187129,"0.0-4.68-1.68","duhtzko8h2xmzn7",345,"91.csv","","null","resources/maskTrios/BBA2.jpg","null","",NA,NA,NA,NA,""
"image-keyboard-response",218,188427,"0.0-4.68-2.68","duhtzko8h2xmzn7",345,"91.csv","","null","resources/images/coin2.png","null","",NA,NA,NA,NA,""
"image-keyboard-response",219,188743,"0.0-4.69-0.69","duhtzko8h2xmzn7",345,"91.csv","","315","resources/trios/L1T2A2.jpg","39","restless",0.6,0.8,0.4,0.713003402982393,"false"
"image-keyboard-response",220,189148,"0.0-4.69-1.69","duhtzko8h2xmzn7",345,"91.csv","","null","resources/maskTrios/BBA2.jpg","null","",NA,NA,NA,NA,""
"image-keyboard-response",221,190447,"0.0-4.69-2.69","duhtzko8h2xmzn7",345,"91.csv","","null","resources/images/fishbone.png","null","",NA,NA,NA,NA,""
"image-keyboard-response",222,190825,"0.0-4.70-0.70","duhtzko8h2xmzn7",345,"91.csv","","378","resources/trios/L1T2A2.jpg","37","restless",0.6,0.8,0.4,0.981501291530806,"false"
"image-keyboard-response",223,191233,"0.0-4.70-1.70","duhtzko8h2xmzn7",345,"91.csv","","null","resources/maskTrios/L1BB.jpg","null","",NA,NA,NA,NA,""
"image-keyboard-response",224,192457,"0.0-4.70-2.70","duhtzko8h2xmzn7",345,"91.csv","","null","resources/images/fishbone.png","null","",NA,NA,NA,NA,""
"image-keyboard-response",225,192778,"0.0-4.71-0.71","duhtzko8h2xmzn7",345,"91.csv","","320","resources/trios/L1T2A2.jpg","37","restless",0.6,0.8,0.4,0.647639856992668,"false"
"image-keyboard-response",226,193179,"0.0-4.71-1.71","duhtzko8h2xmzn7",345,"91.csv","","null","resources/maskTrios/L1BB.jpg","null","",NA,NA,NA,NA,""
"image-keyboard-response",227,194463,"0.0-4.71-2.71","duhtzko8h2xmzn7",345,"91.csv","","null","resources/images/fishbone.png","null","",NA,NA,NA,NA,""
"image-keyboard-response",228,194641,"0.0-4.72-0.72","duhtzko8h2xmzn7",345,"91.csv","","177","resources/trios/L1T2A2.jpg","38","restless",0.6,0.8,0.4,0.915071284357777,"false"
"image-keyboard-response",229,195047,"0.0-4.72-1.72","duhtzko8h2xmzn7",345,"91.csv","","null","resources/maskTrios/BT2B.jpg","null","",NA,NA,NA,NA,""
"image-keyboard-response",230,196251,"0.0-4.72-2.72","duhtzko8h2xmzn7",345,"91.csv","","null","resources/images/fishbone.png","null","",NA,NA,NA,NA,""
"image-keyboard-response",231,196368,"0.0-4.73-0.73","duhtzko8h2xmzn7",345,"91.csv","","114","resources/trios/L1T2A2.jpg","37","restless",0.6,0.8,0.4,0.73491414138981,"false"
"image-keyboard-response",232,196776,"0.0-4.73-1.73","duhtzko8h2xmzn7",345,"91.csv","","null","resources/maskTrios/L1BB.jpg","null","",NA,NA,NA,NA,""
"image-keyboard-response",233,197977,"0.0-4.73-2.73","duhtzko8h2xmzn7",345,"91.csv","","null","resources/images/fishbone.png","null","",NA,NA,NA,NA,""
"image-keyboard-response",234,198282,"0.0-4.74-0.74","duhtzko8h2xmzn7",345,"91.csv","","305","resources/trios/L1T2A2.jpg","39","restless",0.5,0.8,0.4,0.414410265362675,"false"
"image-keyboard-response",235,198688,"0.0-4.74-1.74","duhtzko8h2xmzn7",345,"91.csv","","null","resources/maskTrios/BBA2.jpg","null","",NA,NA,NA,NA,""
"image-keyboard-response",236,199893,"0.0-4.74-2.74","duhtzko8h2xmzn7",345,"91.csv","","null","resources/images/fishbone.png","null","",NA,NA,NA,NA,""
"image-keyboard-response",237,200209,"0.0-4.75-0.75","duhtzko8h2xmzn7",345,"91.csv","","315","resources/trios/L1T2A2.jpg","39","restless",0.4,0.8,0.4,0.247566869149354,"true"
"image-keyboard-response",238,200615,"0.0-4.75-1.75","duhtzko8h2xmzn7",345,"91.csv","","null","resources/maskTrios/BBA2.jpg","null","",NA,NA,NA,NA,""
"image-keyboard-response",239,201816,"0.0-4.75-2.75","duhtzko8h2xmzn7",345,"91.csv","","null","resources/images/coin2.png","null","",NA,NA,NA,NA,""
"image-keyboard-response",240,202118,"0.0-4.76-0.76","duhtzko8h2xmzn7",345,"91.csv","","301","resources/trios/L1T2A2.jpg","38","restless",0.4,0.7,0.4,0.80363998313223,"false"
"image-keyboard-response",241,202522,"0.0-4.76-1.76","duhtzko8h2xmzn7",345,"91.csv","","null","resources/maskTrios/BT2B.jpg","null","",NA,NA,NA,NA,""
"image-keyboard-response",242,203728,"0.0-4.76-2.76","duhtzko8h2xmzn7",345,"91.csv","","null","resources/images/fishbone.png","null","",NA,NA,NA,NA,""
"image-keyboard-response",243,204022,"0.0-4.77-0.77","duhtzko8h2xmzn7",345,"91.csv","","293","resources/trios/L1T2A2.jpg","38","restless",0.4,0.7,0.4,0.942626492747553,"false"
"image-keyboard-response",244,204429,"0.0-4.77-1.77","duhtzko8h2xmzn7",345,"91.csv","","null","resources/maskTrios/BT2B.jpg","null","",NA,NA,NA,NA,""
"image-keyboard-response",245,205735,"0.0-4.77-2.77","duhtzko8h2xmzn7",345,"91.csv","","null","resources/images/fishbone.png","null","",NA,NA,NA,NA,""
"image-keyboard-response",246,206231,"0.0-4.78-0.78","duhtzko8h2xmzn7",345,"91.csv","","495","resources/trios/L1T2A2.jpg","38","restless",0.4,0.7,0.4,0.229000395136803,"true"
"image-keyboard-response",247,206635,"0.0-4.78-1.78","duhtzko8h2xmzn7",345,"91.csv","","null","resources/maskTrios/BT2B.jpg","null","",NA,NA,NA,NA,""
"image-keyboard-response",248,207841,"0.0-4.78-2.78","duhtzko8h2xmzn7",345,"91.csv","","null","resources/images/coin2.png","null","",NA,NA,NA,NA,""
"image-keyboard-response",249,208153,"0.0-4.79-0.79","duhtzko8h2xmzn7",345,"91.csv","","312","resources/trios/L1T2A2.jpg","38","restless",0.4,0.7,0.4,0.203698004809281,"true"
"image-keyboard-response",250,208559,"0.0-4.79-1.79","duhtzko8h2xmzn7",345,"91.csv","","null","resources/maskTrios/BT2B.jpg","null","",NA,NA,NA,NA,""
"image-keyboard-response",251,209849,"0.0-4.79-2.79","duhtzko8h2xmzn7",345,"91.csv","","null","resources/images/coin2.png","null","",NA,NA,NA,NA,""
"image-keyboard-response",252,210067,"0.0-4.80-0.80","duhtzko8h2xmzn7",345,"91.csv","","218","resources/trios/L1T2A2.jpg","38","restless",0.4,0.7,0.4,0.0739484965137511,"true"
"image-keyboard-response",253,210472,"0.0-4.80-1.80","duhtzko8h2xmzn7",345,"91.csv","","null","resources/maskTrios/BT2B.jpg","null","",NA,NA,NA,NA,""
"image-keyboard-response",254,211677,"0.0-4.80-2.80","duhtzko8h2xmzn7",345,"91.csv","","null","resources/images/coin2.png","null","",NA,NA,NA,NA,""
"image-keyboard-response",255,212033,"0.0-4.81-0.81","duhtzko8h2xmzn7",345,"91.csv","","355","resources/trios/L1T2A2.jpg","38","restless",0.4,0.7,0.5,0.730941927641613,"false"
"image-keyboard-response",256,212439,"0.0-4.81-1.81","duhtzko8h2xmzn7",345,"91.csv","","null","resources/maskTrios/BT2B.jpg","null","",NA,NA,NA,NA,""
"image-keyboard-response",257,213644,"0.0-4.81-2.81","duhtzko8h2xmzn7",345,"91.csv","","null","resources/images/fishbone.png","null","",NA,NA,NA,NA,""
"image-keyboard-response",258,213996,"0.0-4.82-0.82","duhtzko8h2xmzn7",345,"91.csv","","353","resources/trios/L1T2A2.jpg","37","restless",0.4,0.7,0.5,0.296186724055625,"true"
"image-keyboard-response",259,214401,"0.0-4.82-1.82","duhtzko8h2xmzn7",345,"91.csv","","null","resources/maskTrios/L1BB.jpg","null","",NA,NA,NA,NA,""
"image-keyboard-response",260,215747,"0.0-4.82-2.82","duhtzko8h2xmzn7",345,"91.csv","","null","resources/images/coin2.png","null","",NA,NA,NA,NA,""
"image-keyboard-response",261,216044,"0.0-4.83-0.83","duhtzko8h2xmzn7",345,"91.csv","","296","resources/trios/L1T2A2.jpg","37","restless",0.4,0.7,0.5,0.559189585205259,"false"
"image-keyboard-response",262,216446,"0.0-4.83-1.83","duhtzko8h2xmzn7",345,"91.csv","","null","resources/maskTrios/L1BB.jpg","null","",NA,NA,NA,NA,""
"image-keyboard-response",263,217649,"0.0-4.83-2.83","duhtzko8h2xmzn7",345,"91.csv","","null","resources/images/fishbone.png","null","",NA,NA,NA,NA,""
"image-keyboard-response",264,217952,"0.0-4.84-0.84","duhtzko8h2xmzn7",345,"91.csv","","302","resources/trios/L1T2A2.jpg","37","restless",0.4,0.7,0.5,0.541621473486844,"false"
"image-keyboard-response",265,218361,"0.0-4.84-1.84","duhtzko8h2xmzn7",345,"91.csv","","null","resources/maskTrios/L1BB.jpg","null","",NA,NA,NA,NA,""
"image-keyboard-response",266,219569,"0.0-4.84-2.84","duhtzko8h2xmzn7",345,"91.csv","","null","resources/images/fishbone.png","null","",NA,NA,NA,NA,""
"image-keyboard-response",267,219809,"0.0-4.85-0.85","duhtzko8h2xmzn7",345,"91.csv","","238","resources/trios/L1T2A2.jpg","38","restless",0.4,0.7,0.5,0.143723291316072,"true"
"image-keyboard-response",268,220212,"0.0-4.85-1.85","duhtzko8h2xmzn7",345,"91.csv","","null","resources/maskTrios/BT2B.jpg","null","",NA,NA,NA,NA,""
"image-keyboard-response",269,221418,"0.0-4.85-2.85","duhtzko8h2xmzn7",345,"91.csv","","null","resources/images/coin2.png","null","",NA,NA,NA,NA,""
"image-keyboard-response",270,221698,"0.0-4.86-0.86","duhtzko8h2xmzn7",345,"91.csv","","279","resources/trios/L1T2A2.jpg","38","restless",0.4,0.7,0.6,0.120156350089923,"true"
"image-keyboard-response",271,222101,"0.0-4.86-1.86","duhtzko8h2xmzn7",345,"91.csv","","null","resources/maskTrios/BT2B.jpg","null","",NA,NA,NA,NA,""
"image-keyboard-response",272,223426,"0.0-4.86-2.86","duhtzko8h2xmzn7",345,"91.csv","","null","resources/images/coin2.png","null","",NA,NA,NA,NA,""
"image-keyboard-response",273,223706,"0.0-4.87-0.87","duhtzko8h2xmzn7",345,"91.csv","","279","resources/trios/L1T2A2.jpg","38","restless",0.4,0.6,0.6,0.449008721820167,"true"
"image-keyboard-response",274,224106,"0.0-4.87-1.87","duhtzko8h2xmzn7",345,"91.csv","","null","resources/maskTrios/BT2B.jpg","null","",NA,NA,NA,NA,""
"image-keyboard-response",275,225438,"0.0-4.87-2.87","duhtzko8h2xmzn7",345,"91.csv","","null","resources/images/coin2.png","null","",NA,NA,NA,NA,""
"image-keyboard-response",276,225632,"0.0-4.88-0.88","duhtzko8h2xmzn7",345,"91.csv","","193","resources/trios/L1T2A2.jpg","38","restless",0.4,0.6,0.6,0.241225997060249,"true"
"image-keyboard-response",277,226034,"0.0-4.88-1.88","duhtzko8h2xmzn7",345,"91.csv","","null","resources/maskTrios/BT2B.jpg","null","",NA,NA,NA,NA,""
"image-keyboard-response",278,227241,"0.0-4.88-2.88","duhtzko8h2xmzn7",345,"91.csv","","null","resources/images/coin2.png","null","",NA,NA,NA,NA,""
"image-keyboard-response",279,227500,"0.0-4.89-0.89","duhtzko8h2xmzn7",345,"91.csv","","257","resources/trios/L1T2A2.jpg","38","restless",0.4,0.6,0.6,0.881439098793335,"false"
"image-keyboard-response",280,227902,"0.0-4.89-1.89","duhtzko8h2xmzn7",345,"91.csv","","null","resources/maskTrios/BT2B.jpg","null","",NA,NA,NA,NA,""
"image-keyboard-response",281,229108,"0.0-4.89-2.89","duhtzko8h2xmzn7",345,"91.csv","","null","resources/images/fishbone.png","null","",NA,NA,NA,NA,""
"image-keyboard-response",282,229401,"0.0-4.90-0.90","duhtzko8h2xmzn7",345,"91.csv","","291","resources/trios/L1T2A2.jpg","37","restless",0.4,0.6,0.5,0.240677012081411,"true"
"image-keyboard-response",283,229802,"0.0-4.90-1.90","duhtzko8h2xmzn7",345,"91.csv","","null","resources/maskTrios/L1BB.jpg","null","",NA,NA,NA,NA,""
"image-keyboard-response",284,231038,"0.0-4.90-2.90","duhtzko8h2xmzn7",345,"91.csv","","null","resources/images/coin2.png","null","",NA,NA,NA,NA,""
"image-keyboard-response",285,231332,"0.0-4.91-0.91","duhtzko8h2xmzn7",345,"91.csv","","293","resources/trios/L1T2A2.jpg","37","restless",0.3,0.6,0.5,0.416648680658121,"false"
"image-keyboard-response",286,231739,"0.0-4.91-1.91","duhtzko8h2xmzn7",345,"91.csv","","null","resources/maskTrios/L1BB.jpg","null","",NA,NA,NA,NA,""
"image-keyboard-response",287,232944,"0.0-4.91-2.91","duhtzko8h2xmzn7",345,"91.csv","","null","resources/images/fishbone.png","null","",NA,NA,NA,NA,""
"image-keyboard-response",288,233290,"0.0-4.92-0.92","duhtzko8h2xmzn7",345,"91.csv","","345","resources/trios/L1T2A2.jpg","37","restless",0.3,0.6,0.5,0.319459170721408,"false"
"image-keyboard-response",289,233694,"0.0-4.92-1.92","duhtzko8h2xmzn7",345,"91.csv","","null","resources/maskTrios/L1BB.jpg","null","",NA,NA,NA,NA,""
"image-keyboard-response",290,234952,"0.0-4.92-2.92","duhtzko8h2xmzn7",345,"91.csv","","null","resources/images/fishbone.png","null","",NA,NA,NA,NA,""
"image-keyboard-response",291,235251,"0.0-4.93-0.93","duhtzko8h2xmzn7",345,"91.csv","","299","resources/trios/L1T2A2.jpg","38","restless",0.3,0.6,0.5,0.495513790500557,"true"
"image-keyboard-response",292,235656,"0.0-4.93-1.93","duhtzko8h2xmzn7",345,"91.csv","","null","resources/maskTrios/BT2B.jpg","null","",NA,NA,NA,NA,""
"image-keyboard-response",293,236960,"0.0-4.93-2.93","duhtzko8h2xmzn7",345,"91.csv","","null","resources/images/coin2.png","null","",NA,NA,NA,NA,""
"image-keyboard-response",294,237250,"0.0-4.94-0.94","duhtzko8h2xmzn7",345,"91.csv","","289","resources/trios/L1T2A2.jpg","38","restless",0.3,0.6,0.5,0.227013316783379,"true"
"image-keyboard-response",295,237655,"0.0-4.94-1.94","duhtzko8h2xmzn7",345,"91.csv","","null","resources/maskTrios/BT2B.jpg","null","",NA,NA,NA,NA,""
"image-keyboard-response",296,238964,"0.0-4.94-2.94","duhtzko8h2xmzn7",345,"91.csv","","null","resources/images/coin2.png","null","",NA,NA,NA,NA,""
"image-keyboard-response",297,239190,"0.0-4.95-0.95","duhtzko8h2xmzn7",345,"91.csv","","225","resources/trios/L1T2A2.jpg","38","restless",0.3,0.6,0.5,0.358184541969706,"true"
"image-keyboard-response",298,239591,"0.0-4.95-1.95","duhtzko8h2xmzn7",345,"91.csv","","null","resources/maskTrios/BT2B.jpg","null","",NA,NA,NA,NA,""
"image-keyboard-response",299,240797,"0.0-4.95-2.95","duhtzko8h2xmzn7",345,"91.csv","","null","resources/images/coin2.png","null","",NA,NA,NA,NA,""
"image-keyboard-response",300,241241,"0.0-4.96-0.96","duhtzko8h2xmzn7",345,"91.csv","","444","resources/trios/L1T2A2.jpg","39","restless",0.3,0.6,0.4,0.285468940968602,"true"
"image-keyboard-response",301,241645,"0.0-4.96-1.96","duhtzko8h2xmzn7",345,"91.csv","","null","resources/maskTrios/BBA2.jpg","null","",NA,NA,NA,NA,""
"image-keyboard-response",302,242851,"0.0-4.96-2.96","duhtzko8h2xmzn7",345,"91.csv","","null","resources/images/coin2.png","null","",NA,NA,NA,NA,""
"image-keyboard-response",303,243453,"0.0-4.97-0.97","duhtzko8h2xmzn7",345,"91.csv","","600","resources/trios/L1T2A2.jpg","37","restless",0.3,0.6,0.5,0.263670133710536,"true"
"image-keyboard-response",304,243860,"0.0-4.97-1.97","duhtzko8h2xmzn7",345,"91.csv","","null","resources/maskTrios/L1BB.jpg","null","",NA,NA,NA,NA,""
"image-keyboard-response",305,245066,"0.0-4.97-2.97","duhtzko8h2xmzn7",345,"91.csv","","null","resources/images/coin2.png","null","",NA,NA,NA,NA,""
"image-keyboard-response",306,245376,"0.0-4.98-0.98","duhtzko8h2xmzn7",345,"91.csv","","309","resources/trios/L1T2A2.jpg","38","restless",0.3,0.6,0.5,0.805822787626761,"false"
"image-keyboard-response",307,245785,"0.0-4.98-1.98","duhtzko8h2xmzn7",345,"91.csv","","null","resources/maskTrios/BT2B.jpg","null","",NA,NA,NA,NA,""
"image-keyboard-response",308,246992,"0.0-4.98-2.98","duhtzko8h2xmzn7",345,"91.csv","","null","resources/images/fishbone.png","null","",NA,NA,NA,NA,""
"image-keyboard-response",309,247356,"0.0-4.99-0.99","duhtzko8h2xmzn7",345,"91.csv","","362","resources/trios/L1T2A2.jpg","38","restless",0.3,0.6,0.5,0.763153082786046,"false"
"image-keyboard-response",310,247759,"0.0-4.99-1.99","duhtzko8h2xmzn7",345,"91.csv","","null","resources/maskTrios/BT2B.jpg","null","",NA,NA,NA,NA,""
"image-keyboard-response",311,248966,"0.0-4.99-2.99","duhtzko8h2xmzn7",345,"91.csv","","null","resources/images/fishbone.png","null","",NA,NA,NA,NA,""
"image-keyboard-response",312,249281,"0.0-4.100-0.100","duhtzko8h2xmzn7",345,"91.csv","","314","resources/trios/L1T2A2.jpg","37","restless",0.3,0.6,0.5,0.761058503966056,"false"
"image-keyboard-response",313,249684,"0.0-4.100-1.100","duhtzko8h2xmzn7",345,"91.csv","","null","resources/maskTrios/L1BB.jpg","null","",NA,NA,NA,NA,""
"image-keyboard-response",314,250889,"0.0-4.100-2.100","duhtzko8h2xmzn7",345,"91.csv","","null","resources/images/fishbone.png","null","",NA,NA,NA,NA,""
"image-keyboard-response",315,251160,"0.0-4.101-0.101","duhtzko8h2xmzn7",345,"91.csv","","269","resources/trios/L1T2A2.jpg","37","restless",0.3,0.6,0.5,0.776062210602006,"false"
"image-keyboard-response",316,251562,"0.0-4.101-1.101","duhtzko8h2xmzn7",345,"91.csv","","null","resources/maskTrios/L1BB.jpg","null","",NA,NA,NA,NA,""
"image-keyboard-response",317,252895,"0.0-4.101-2.101","duhtzko8h2xmzn7",345,"91.csv","","null","resources/images/fishbone.png","null","",NA,NA,NA,NA,""
"image-keyboard-response",318,253152,"0.0-4.102-0.102","duhtzko8h2xmzn7",345,"91.csv","","256","resources/trios/L1T2A2.jpg","39","restless",0.3,0.6,0.5,0.0139164674471891,"true"
"image-keyboard-response",319,253555,"0.0-4.102-1.102","duhtzko8h2xmzn7",345,"91.csv","","null","resources/maskTrios/BBA2.jpg","null","",NA,NA,NA,NA,""
"image-keyboard-response",320,254902,"0.0-4.102-2.102","duhtzko8h2xmzn7",345,"91.csv","","null","resources/images/coin2.png","null","",NA,NA,NA,NA,""
"image-keyboard-response",321,255177,"0.0-4.103-0.103","duhtzko8h2xmzn7",345,"91.csv","","275","resources/trios/L1T2A2.jpg","39","restless",0.3,0.6,0.5,0.393858782296887,"true"
"image-keyboard-response",322,255581,"0.0-4.103-1.103","duhtzko8h2xmzn7",345,"91.csv","","null","resources/maskTrios/BBA2.jpg","null","",NA,NA,NA,NA,""
"image-keyboard-response",323,256913,"0.0-4.103-2.103","duhtzko8h2xmzn7",345,"91.csv","","null","resources/images/coin2.png","null","",NA,NA,NA,NA,""
"image-keyboard-response",324,257228,"0.0-4.104-0.104","duhtzko8h2xmzn7",345,"91.csv","","314","resources/trios/L1T2A2.jpg","39","restless",0.3,0.6,0.5,0.765280379708752,"false"
"image-keyboard-response",325,257636,"0.0-4.104-1.104","duhtzko8h2xmzn7",345,"91.csv","","null","resources/maskTrios/BBA2.jpg","null","",NA,NA,NA,NA,""
"image-keyboard-response",326,258927,"0.0-4.104-2.104","duhtzko8h2xmzn7",345,"91.csv","","null","resources/images/fishbone.png","null","",NA,NA,NA,NA,""
"image-keyboard-response",327,259296,"0.0-4.105-0.105","duhtzko8h2xmzn7",345,"91.csv","","368","resources/trios/L1T2A2.jpg","37","restless",0.2,0.6,0.5,0.889223311649084,"false"
"image-keyboard-response",328,259698,"0.0-4.105-1.105","duhtzko8h2xmzn7",345,"91.csv","","null","resources/maskTrios/L1BB.jpg","null","",NA,NA,NA,NA,""
"image-keyboard-response",329,260940,"0.0-4.105-2.105","duhtzko8h2xmzn7",345,"91.csv","","null","resources/images/fishbone.png","null","",NA,NA,NA,NA,""
"image-keyboard-response",330,261381,"0.0-4.106-0.106","duhtzko8h2xmzn7",345,"91.csv","","440","resources/trios/L1T2A2.jpg","38","restless",0.2,0.6,0.5,0.0268127545027945,"true"
"image-keyboard-response",331,261785,"0.0-4.106-1.106","duhtzko8h2xmzn7",345,"91.csv","","null","resources/maskTrios/BT2B.jpg","null","",NA,NA,NA,NA,""
"image-keyboard-response",332,262987,"0.0-4.106-2.106","duhtzko8h2xmzn7",345,"91.csv","","null","resources/images/coin2.png","null","",NA,NA,NA,NA,""
"image-keyboard-response",333,263395,"0.0-4.107-0.107","duhtzko8h2xmzn7",345,"91.csv","","407","resources/trios/L1T2A2.jpg","38","restless",0.2,0.6,0.5,0.286046999130396,"true"
"image-keyboard-response",334,263800,"0.0-4.107-1.107","duhtzko8h2xmzn7",345,"91.csv","","null","resources/maskTrios/BT2B.jpg","null","",NA,NA,NA,NA,""
"image-keyboard-response",335,265005,"0.0-4.107-2.107","duhtzko8h2xmzn7",345,"91.csv","","null","resources/images/coin2.png","null","",NA,NA,NA,NA,""
"image-keyboard-response",336,265347,"0.0-4.108-0.108","duhtzko8h2xmzn7",345,"91.csv","","341","resources/trios/L1T2A2.jpg","38","restless",0.2,0.6,0.5,0.0664081322006816,"true"
"image-keyboard-response",337,265752,"0.0-4.108-1.108","duhtzko8h2xmzn7",345,"91.csv","","null","resources/maskTrios/BT2B.jpg","null","",NA,NA,NA,NA,""
"image-keyboard-response",338,267011,"0.0-4.108-2.108","duhtzko8h2xmzn7",345,"91.csv","","null","resources/images/coin2.png","null","",NA,NA,NA,NA,""
"image-keyboard-response",339,267395,"0.0-4.109-0.109","duhtzko8h2xmzn7",345,"91.csv","","382","resources/trios/L1T2A2.jpg","38","restless",0.2,0.6,0.5,0.619482851420398,"false"
"image-keyboard-response",340,267800,"0.0-4.109-1.109","duhtzko8h2xmzn7",345,"91.csv","","null","resources/maskTrios/BT2B.jpg","null","",NA,NA,NA,NA,""
"image-keyboard-response",341,269021,"0.0-4.109-2.109","duhtzko8h2xmzn7",345,"91.csv","","null","resources/images/fishbone.png","null","",NA,NA,NA,NA,""
"image-keyboard-response",342,269338,"0.0-4.110-0.110","duhtzko8h2xmzn7",345,"91.csv","","315","resources/trios/L1T2A2.jpg","37","restless",0.2,0.6,0.5,0.848774653675983,"false"
"image-keyboard-response",343,269743,"0.0-4.110-1.110","duhtzko8h2xmzn7",345,"91.csv","","null","resources/maskTrios/L1BB.jpg","null","",NA,NA,NA,NA,""
"image-keyboard-response",344,271075,"0.0-4.110-2.110","duhtzko8h2xmzn7",345,"91.csv","","null","resources/images/fishbone.png","null","",NA,NA,NA,NA,""
"image-keyboard-response",345,271341,"0.0-4.111-0.111","duhtzko8h2xmzn7",345,"91.csv","","265","resources/trios/L1T2A2.jpg","37","restless",0.3,0.6,0.5,0.961092402489059,"false"
"image-keyboard-response",346,271749,"0.0-4.111-1.111","duhtzko8h2xmzn7",345,"91.csv","","null","resources/maskTrios/L1BB.jpg","null","",NA,NA,NA,NA,""
"image-keyboard-response",347,273082,"0.0-4.111-2.111","duhtzko8h2xmzn7",345,"91.csv","","null","resources/images/fishbone.png","null","",NA,NA,NA,NA,""
"image-keyboard-response",348,273405,"0.0-4.112-0.112","duhtzko8h2xmzn7",345,"91.csv","","321","resources/trios/L1T2A2.jpg","38","restless",0.3,0.6,0.5,0.975047890521138,"false"
"image-keyboard-response",349,273810,"0.0-4.112-1.112","duhtzko8h2xmzn7",345,"91.csv","","null","resources/maskTrios/BT2B.jpg","null","",NA,NA,NA,NA,""
"image-keyboard-response",350,275098,"0.0-4.112-2.112","duhtzko8h2xmzn7",345,"91.csv","","null","resources/images/fishbone.png","null","",NA,NA,NA,NA,""
"image-keyboard-response",351,275374,"0.0-4.113-0.113","duhtzko8h2xmzn7",345,"91.csv","","275","resources/trios/L1T2A2.jpg","38","restless",0.3,0.6,0.5,0.450257787134998,"true"
"image-keyboard-response",352,275778,"0.0-4.113-1.113","duhtzko8h2xmzn7",345,"91.csv","","null","resources/maskTrios/BT2B.jpg","null","",NA,NA,NA,NA,""
"image-keyboard-response",353,277119,"0.0-4.113-2.113","duhtzko8h2xmzn7",345,"91.csv","","null","resources/images/coin2.png","null","",NA,NA,NA,NA,""
"image-keyboard-response",354,277470,"0.0-4.114-0.114","duhtzko8h2xmzn7",345,"91.csv","","350","resources/trios/L1T2A2.jpg","38","restless",0.3,0.6,0.5,0.12095570311343,"true"
"image-keyboard-response",355,277876,"0.0-4.114-1.114","duhtzko8h2xmzn7",345,"91.csv","","null","resources/maskTrios/BT2B.jpg","null","",NA,NA,NA,NA,""
"image-keyboard-response",356,279132,"0.0-4.114-2.114","duhtzko8h2xmzn7",345,"91.csv","","null","resources/images/coin2.png","null","",NA,NA,NA,NA,""
"image-keyboard-response",357,279440,"0.0-4.115-0.115","duhtzko8h2xmzn7",345,"91.csv","","307","resources/trios/L1T2A2.jpg","38","restless",0.3,0.6,0.5,0.460390225498371,"true"
"image-keyboard-response",358,279846,"0.0-4.115-1.115","duhtzko8h2xmzn7",345,"91.csv","","null","resources/maskTrios/BT2B.jpg","null","",NA,NA,NA,NA,""
"image-keyboard-response",359,281149,"0.0-4.115-2.115","duhtzko8h2xmzn7",345,"91.csv","","null","resources/images/coin2.png","null","",NA,NA,NA,NA,""
"image-keyboard-response",360,281480,"0.0-4.116-0.116","duhtzko8h2xmzn7",345,"91.csv","","330","resources/trios/L1T2A2.jpg","38","restless",0.2,0.6,0.5,0.25033141432878,"true"
"image-keyboard-response",361,281882,"0.0-4.116-1.116","duhtzko8h2xmzn7",345,"91.csv","","null","resources/maskTrios/BT2B.jpg","null","",NA,NA,NA,NA,""
"image-keyboard-response",362,283161,"0.0-4.116-2.116","duhtzko8h2xmzn7",345,"91.csv","","null","resources/images/coin2.png","null","",NA,NA,NA,NA,""
"image-keyboard-response",363,283466,"0.0-4.117-0.117","duhtzko8h2xmzn7",345,"91.csv","","304","resources/trios/L1T2A2.jpg","39","restless",0.2,0.6,0.5,0.110137903457405,"true"
"image-keyboard-response",364,283873,"0.0-4.117-1.117","duhtzko8h2xmzn7",345,"91.csv","","null","resources/maskTrios/BBA2.jpg","null","",NA,NA,NA,NA,""
"image-keyboard-response",365,285176,"0.0-4.117-2.117","duhtzko8h2xmzn7",345,"91.csv","","null","resources/images/coin2.png","null","",NA,NA,NA,NA,""
"image-keyboard-response",366,285498,"0.0-4.118-0.118","duhtzko8h2xmzn7",345,"91.csv","","322","resources/trios/L1T2A2.jpg","39","restless",0.2,0.6,0.5,0.481826975005267,"true"
"image-keyboard-response",367,285904,"0.0-4.118-1.118","duhtzko8h2xmzn7",345,"91.csv","","null","resources/maskTrios/BBA2.jpg","null","",NA,NA,NA,NA,""
"image-keyboard-response",368,287193,"0.0-4.118-2.118","duhtzko8h2xmzn7",345,"91.csv","","null","resources/images/coin2.png","null","",NA,NA,NA,NA,""
"image-keyboard-response",369,287707,"0.0-4.119-0.119","duhtzko8h2xmzn7",345,"91.csv","","513","resources/trios/L1T2A2.jpg","38","restless",0.3,0.6,0.5,0.307246483483136,"true"
"image-keyboard-response",370,288113,"0.0-4.119-1.119","duhtzko8h2xmzn7",345,"91.csv","","null","resources/maskTrios/BT2B.jpg","null","",NA,NA,NA,NA,""
"image-keyboard-response",371,289318,"0.0-4.119-2.119","duhtzko8h2xmzn7",345,"91.csv","","null","resources/images/coin2.png","null","",NA,NA,NA,NA,""
"image-keyboard-response",372,289603,"0.0-4.120-0.120","duhtzko8h2xmzn7",345,"91.csv","","283","resources/trios/L1T2A2.jpg","37","restless",0.3,0.6,0.5,0.156020199402795,"true"
"image-keyboard-response",373,290012,"0.0-4.120-1.120","duhtzko8h2xmzn7",345,"91.csv","","null","resources/maskTrios/L1BB.jpg","null","",NA,NA,NA,NA,""
"image-keyboard-response",374,291327,"0.0-4.120-2.120","duhtzko8h2xmzn7",345,"91.csv","","null","resources/images/coin2.png","null","",NA,NA,NA,NA,""
"image-keyboard-response",375,291632,"0.0-4.121-0.121","duhtzko8h2xmzn7",345,"91.csv","","304","resources/trios/L1T2A2.jpg","38","restless",0.3,0.6,0.5,0.999632292196461,"false"
"image-keyboard-response",376,292041,"0.0-4.121-1.121","duhtzko8h2xmzn7",345,"91.csv","","null","resources/maskTrios/BT2B.jpg","null","",NA,NA,NA,NA,""
"image-keyboard-response",377,293337,"0.0-4.121-2.121","duhtzko8h2xmzn7",345,"91.csv","","null","resources/images/fishbone.png","null","",NA,NA,NA,NA,""
"image-keyboard-response",378,293706,"0.0-4.122-0.122","duhtzko8h2xmzn7",345,"91.csv","","368","resources/trios/L1T2A2.jpg","37","restless",0.4,0.6,0.6,0.38314809969694,"true"
"image-keyboard-response",379,294108,"0.0-4.122-1.122","duhtzko8h2xmzn7",345,"91.csv","","null","resources/maskTrios/L1BB.jpg","null","",NA,NA,NA,NA,""
"image-keyboard-response",380,295356,"0.0-4.122-2.122","duhtzko8h2xmzn7",345,"91.csv","","null","resources/images/coin2.png","null","",NA,NA,NA,NA,""
"image-keyboard-response",381,295722,"0.0-4.123-0.123","duhtzko8h2xmzn7",345,"91.csv","","364","resources/trios/L1T2A2.jpg","37","restless",0.4,0.6,0.6,0.149846097599379,"true"
"image-keyboard-response",382,296126,"0.0-4.123-1.123","duhtzko8h2xmzn7",345,"91.csv","","null","resources/maskTrios/L1BB.jpg","null","",NA,NA,NA,NA,""
"image-keyboard-response",383,297371,"0.0-4.123-2.123","duhtzko8h2xmzn7",345,"91.csv","","null","resources/images/coin2.png","null","",NA,NA,NA,NA,""
"image-keyboard-response",384,297709,"0.0-4.124-0.124","duhtzko8h2xmzn7",345,"91.csv","","337","resources/trios/L1T2A2.jpg","39","restless",0.4,0.6,0.6,0.614219688025959,"false"
"image-keyboard-response",385,298112,"0.0-4.124-1.124","duhtzko8h2xmzn7",345,"91.csv","","null","resources/maskTrios/BBA2.jpg","null","",NA,NA,NA,NA,""
"image-keyboard-response",386,299379,"0.0-4.124-2.124","duhtzko8h2xmzn7",345,"91.csv","","null","resources/images/fishbone.png","null","",NA,NA,NA,NA,""
"image-keyboard-response",387,299637,"0.0-4.125-0.125","duhtzko8h2xmzn7",345,"91.csv","","256","resources/trios/L1T2A2.jpg","37","restless",0.4,0.6,0.6,0.84923465162836,"false"
"image-keyboard-response",388,300046,"0.0-4.125-1.125","duhtzko8h2xmzn7",345,"91.csv","","null","resources/maskTrios/L1BB.jpg","null","",NA,NA,NA,NA,""
"image-keyboard-response",389,301402,"0.0-4.125-2.125","duhtzko8h2xmzn7",345,"91.csv","","null","resources/images/fishbone.png","null","",NA,NA,NA,NA,""
"image-keyboard-response",390,301794,"0.0-4.126-0.126","duhtzko8h2xmzn7",345,"91.csv","","392","resources/trios/L1T2A2.jpg","38","restless",0.4,0.6,0.6,0.941936738328799,"false"
"image-keyboard-response",391,302199,"0.0-4.126-1.126","duhtzko8h2xmzn7",345,"91.csv","","null","resources/maskTrios/BT2B.jpg","null","",NA,NA,NA,NA,""
"image-keyboard-response",392,303409,"0.0-4.126-2.126","duhtzko8h2xmzn7",345,"91.csv","","null","resources/images/fishbone.png","null","",NA,NA,NA,NA,""
"image-keyboard-response",393,303917,"0.0-4.127-0.127","duhtzko8h2xmzn7",345,"91.csv","","506","resources/trios/L1T2A2.jpg","37","restless",0.4,0.6,0.6,0.515671808563515,"false"
"image-keyboard-response",394,304322,"0.0-4.127-1.127","duhtzko8h2xmzn7",345,"91.csv","","null","resources/maskTrios/L1BB.jpg","null","",NA,NA,NA,NA,""
"image-keyboard-response",395,305525,"0.0-4.127-2.127","duhtzko8h2xmzn7",345,"91.csv","","null","resources/images/fishbone.png","null","",NA,NA,NA,NA,""
"image-keyboard-response",396,305922,"0.0-4.128-0.128","duhtzko8h2xmzn7",345,"91.csv","","397","resources/trios/L1T2A2.jpg","39","restless",0.4,0.6,0.6,0.941506811456065,"false"
"image-keyboard-response",397,306324,"0.0-4.128-1.128","duhtzko8h2xmzn7",345,"91.csv","","null","resources/maskTrios/BBA2.jpg","null","",NA,NA,NA,NA,""
"image-keyboard-response",398,307529,"0.0-4.128-2.128","duhtzko8h2xmzn7",345,"91.csv","","null","resources/images/fishbone.png","null","",NA,NA,NA,NA,""
"image-keyboard-response",399,307812,"0.0-4.129-0.129","duhtzko8h2xmzn7",345,"91.csv","","281","resources/trios/L1T2A2.jpg","38","restless",0.4,0.6,0.6,0.0344045588917684,"true"
"image-keyboard-response",400,308219,"0.0-4.129-1.129","duhtzko8h2xmzn7",345,"91.csv","","null","resources/maskTrios/BT2B.jpg","null","",NA,NA,NA,NA,""
"image-keyboard-response",401,309545,"0.0-4.129-2.129","duhtzko8h2xmzn7",345,"91.csv","","null","resources/images/coin2.png","null","",NA,NA,NA,NA,""
"image-keyboard-response",402,309851,"0.0-4.130-0.130","duhtzko8h2xmzn7",345,"91.csv","","304","resources/trios/L1T2A2.jpg","38","restless",0.4,0.6,0.6,0.842490714322012,"false"
"image-keyboard-response",403,310255,"0.0-4.130-1.130","duhtzko8h2xmzn7",345,"91.csv","","null","resources/maskTrios/BT2B.jpg","null","",NA,NA,NA,NA,""
"image-keyboard-response",404,311556,"0.0-4.130-2.130","duhtzko8h2xmzn7",345,"91.csv","","null","resources/images/fishbone.png","null","",NA,NA,NA,NA,""
"image-keyboard-response",405,311905,"0.0-4.131-0.131","duhtzko8h2xmzn7",345,"91.csv","","349","resources/trios/L1T2A2.jpg","39","restless",0.4,0.6,0.6,0.123476007839297,"true"
"image-keyboard-response",406,312314,"0.0-4.131-1.131","duhtzko8h2xmzn7",345,"91.csv","","null","resources/maskTrios/BBA2.jpg","null","",NA,NA,NA,NA,""
"image-keyboard-response",407,313572,"0.0-4.131-2.131","duhtzko8h2xmzn7",345,"91.csv","","null","resources/images/coin2.png","null","",NA,NA,NA,NA,""
"image-keyboard-response",408,313872,"0.0-4.132-0.132","duhtzko8h2xmzn7",345,"91.csv","","299","resources/trios/L1T2A2.jpg","39","restless",0.4,0.6,0.6,0.308178355873407,"true"
"image-keyboard-response",409,314281,"0.0-4.132-1.132","duhtzko8h2xmzn7",345,"91.csv","","null","resources/maskTrios/BBA2.jpg","null","",NA,NA,NA,NA,""
"image-keyboard-response",410,315576,"0.0-4.132-2.132","duhtzko8h2xmzn7",345,"91.csv","","null","resources/images/coin2.png","null","",NA,NA,NA,NA,""
"image-keyboard-response",411,315861,"0.0-4.133-0.133","duhtzko8h2xmzn7",345,"91.csv","","284","resources/trios/L1T2A2.jpg","39","restless",0.4,0.6,0.5,0.710617643084293,"false"
"image-keyboard-response",412,316262,"0.0-4.133-1.133","duhtzko8h2xmzn7",345,"91.csv","","null","resources/maskTrios/BBA2.jpg","null","",NA,NA,NA,NA,""
"image-keyboard-response",413,317588,"0.0-4.133-2.133","duhtzko8h2xmzn7",345,"91.csv","","null","resources/images/fishbone.png","null","",NA,NA,NA,NA,""
"image-keyboard-response",414,317842,"0.0-4.134-0.134","duhtzko8h2xmzn7",345,"91.csv","","252","resources/trios/L1T2A2.jpg","37","restless",0.4,0.6,0.5,0.0950556135984567,"true"
"image-keyboard-response",415,318243,"0.0-4.134-1.134","duhtzko8h2xmzn7",345,"91.csv","","null","resources/maskTrios/L1BB.jpg","null","",NA,NA,NA,NA,""
"image-keyboard-response",416,319448,"0.0-4.134-2.134","duhtzko8h2xmzn7",345,"91.csv","","null","resources/images/coin2.png","null","",NA,NA,NA,NA,""
"image-keyboard-response",417,319725,"0.0-4.135-0.135","duhtzko8h2xmzn7",345,"91.csv","","277","resources/trios/L1T2A2.jpg","37","restless",0.4,0.6,0.5,0.506905583209992,"false"
"image-keyboard-response",418,320131,"0.0-4.135-1.135","duhtzko8h2xmzn7",345,"91.csv","","null","resources/maskTrios/L1BB.jpg","null","",NA,NA,NA,NA,""
"image-keyboard-response",419,321339,"0.0-4.135-2.135","duhtzko8h2xmzn7",345,"91.csv","","null","resources/images/fishbone.png","null","",NA,NA,NA,NA,""
"image-keyboard-response",420,321614,"0.0-4.136-0.136","duhtzko8h2xmzn7",345,"91.csv","","274","resources/trios/L1T2A2.jpg","38","restless",0.4,0.6,0.5,0.857512848017859,"false"
"image-keyboard-response",421,322016,"0.0-4.136-1.136","duhtzko8h2xmzn7",345,"91.csv","","null","resources/maskTrios/BT2B.jpg","null","",NA,NA,NA,NA,""
"image-keyboard-response",422,323223,"0.0-4.136-2.136","duhtzko8h2xmzn7",345,"91.csv","","null","resources/images/fishbone.png","null","",NA,NA,NA,NA,""
"image-keyboard-response",423,323512,"0.0-4.137-0.137","duhtzko8h2xmzn7",345,"91.csv","","287","resources/trios/L1T2A2.jpg","38","restless",0.4,0.6,0.5,0.192222900081851,"true"
"image-keyboard-response",424,323920,"0.0-4.137-1.137","duhtzko8h2xmzn7",345,"91.csv","","null","resources/maskTrios/BT2B.jpg","null","",NA,NA,NA,NA,""
"image-keyboard-response",425,325123,"0.0-4.137-2.137","duhtzko8h2xmzn7",345,"91.csv","","null","resources/images/coin2.png","null","",NA,NA,NA,NA,""
"image-keyboard-response",426,325395,"0.0-4.138-0.138","duhtzko8h2xmzn7",345,"91.csv","","271","resources/trios/L1T2A2.jpg","38","restless",0.4,0.7,0.5,0.836980286976955,"false"
"image-keyboard-response",427,325799,"0.0-4.138-1.138","duhtzko8h2xmzn7",345,"91.csv","","null","resources/maskTrios/BT2B.jpg","null","",NA,NA,NA,NA,""
"image-keyboard-response",428,327005,"0.0-4.138-2.138","duhtzko8h2xmzn7",345,"91.csv","","null","resources/images/fishbone.png","null","",NA,NA,NA,NA,""
"image-keyboard-response",429,327301,"0.0-4.139-0.139","duhtzko8h2xmzn7",345,"91.csv","","295","resources/trios/L1T2A2.jpg","37","restless",0.4,0.7,0.5,0.340239454386742,"true"
"image-keyboard-response",430,327707,"0.0-4.139-1.139","duhtzko8h2xmzn7",345,"91.csv","","null","resources/maskTrios/L1BB.jpg","null","",NA,NA,NA,NA,""
"image-keyboard-response",431,329010,"0.0-4.139-2.139","duhtzko8h2xmzn7",345,"91.csv","","null","resources/images/coin2.png","null","",NA,NA,NA,NA,""
"image-keyboard-response",432,329341,"0.0-4.140-0.140","duhtzko8h2xmzn7",345,"91.csv","","330","resources/trios/L1T2A2.jpg","37","restless",0.4,0.7,0.5,0.364511946796271,"true"
"image-keyboard-response",433,329748,"0.0-4.140-1.140","duhtzko8h2xmzn7",345,"91.csv","","null","resources/maskTrios/L1BB.jpg","null","",NA,NA,NA,NA,""
"image-keyboard-response",434,331030,"0.0-4.140-2.140","duhtzko8h2xmzn7",345,"91.csv","","null","resources/images/coin2.png","null","",NA,NA,NA,NA,""
"image-keyboard-response",435,331349,"0.0-4.141-0.141","duhtzko8h2xmzn7",345,"91.csv","","319","resources/trios/L1T2A2.jpg","39","restless",0.4,0.7,0.5,0.468376581499851,"true"
"image-keyboard-response",436,331752,"0.0-4.141-1.141","duhtzko8h2xmzn7",345,"91.csv","","null","resources/maskTrios/BBA2.jpg","null","",NA,NA,NA,NA,""
"image-keyboard-response",437,333040,"0.0-4.141-2.141","duhtzko8h2xmzn7",345,"91.csv","","null","resources/images/coin2.png","null","",NA,NA,NA,NA,""
"image-keyboard-response",438,333372,"0.0-4.142-0.142","duhtzko8h2xmzn7",345,"91.csv","","331","resources/trios/L1T2A2.jpg","39","restless",0.4,0.7,0.5,0.807985787185028,"false"
"image-keyboard-response",439,333773,"0.0-4.142-1.142","duhtzko8h2xmzn7",345,"91.csv","","null","resources/maskTrios/BBA2.jpg","null","",NA,NA,NA,NA,""
"image-keyboard-response",440,335059,"0.0-4.142-2.142","duhtzko8h2xmzn7",345,"91.csv","","null","resources/images/fishbone.png","null","",NA,NA,NA,NA,""
"image-keyboard-response",441,335360,"0.0-4.143-0.143","duhtzko8h2xmzn7",345,"91.csv","","299","resources/trios/L1T2A2.jpg","37","restless",0.4,0.7,0.5,0.133679974608573,"true"
"image-keyboard-response",442,335761,"0.0-4.143-1.143","duhtzko8h2xmzn7",345,"91.csv","","null","resources/maskTrios/L1BB.jpg","null","",NA,NA,NA,NA,""
"image-keyboard-response",443,337074,"0.0-4.143-2.143","duhtzko8h2xmzn7",345,"91.csv","","null","resources/images/coin2.png","null","",NA,NA,NA,NA,""
"image-keyboard-response",444,337499,"0.0-4.144-0.144","duhtzko8h2xmzn7",345,"91.csv","","423","resources/trios/L1T2A2.jpg","38","restless",0.4,0.7,0.5,0.103272133826445,"true"
"image-keyboard-response",445,337902,"0.0-4.144-1.144","duhtzko8h2xmzn7",345,"91.csv","","null","resources/maskTrios/BT2B.jpg","null","",NA,NA,NA,NA,""
"image-keyboard-response",446,339109,"0.0-4.144-2.144","duhtzko8h2xmzn7",345,"91.csv","","null","resources/images/coin2.png","null","",NA,NA,NA,NA,""
"image-keyboard-response",447,339450,"0.0-4.145-0.145","duhtzko8h2xmzn7",345,"91.csv","","339","resources/trios/L1T2A2.jpg","37","restless",0.4,0.7,0.5,0.00602329706419669,"true"
"image-keyboard-response",448,339853,"0.0-4.145-1.145","duhtzko8h2xmzn7",345,"91.csv","","null","resources/maskTrios/L1BB.jpg","null","",NA,NA,NA,NA,""
"image-keyboard-response",449,341113,"0.0-4.145-2.145","duhtzko8h2xmzn7",345,"91.csv","","null","resources/images/coin2.png","null","",NA,NA,NA,NA,""
"image-keyboard-response",450,341457,"0.0-4.146-0.146","duhtzko8h2xmzn7",345,"91.csv","","342","resources/trios/L1T2A2.jpg","38","restless",0.4,0.7,0.5,0.99304043302573,"false"
"image-keyboard-response",451,341858,"0.0-4.146-1.146","duhtzko8h2xmzn7",345,"91.csv","","null","resources/maskTrios/BT2B.jpg","null","",NA,NA,NA,NA,""
"image-keyboard-response",452,343117,"0.0-4.146-2.146","duhtzko8h2xmzn7",345,"91.csv","","null","resources/images/fishbone.png","null","",NA,NA,NA,NA,""
"image-keyboard-response",453,343587,"0.0-4.147-0.147","duhtzko8h2xmzn7",345,"91.csv","","469","resources/trios/L1T2A2.jpg","38","restless",0.4,0.7,0.5,0.917706060682504,"false"
"image-keyboard-response",454,343991,"0.0-4.147-1.147","duhtzko8h2xmzn7",345,"91.csv","","null","resources/maskTrios/BT2B.jpg","null","",NA,NA,NA,NA,""
"image-keyboard-response",455,345197,"0.0-4.147-2.147","duhtzko8h2xmzn7",345,"91.csv","","null","resources/images/fishbone.png","null","",NA,NA,NA,NA,""
"image-keyboard-response",456,345502,"0.0-4.148-0.148","duhtzko8h2xmzn7",345,"91.csv","","303","resources/trios/L1T2A2.jpg","37","restless",0.4,0.7,0.6,0.0995946544660067,"true"
"image-keyboard-response",457,345905,"0.0-4.148-1.148","duhtzko8h2xmzn7",345,"91.csv","","null","resources/maskTrios/L1BB.jpg","null","",NA,NA,NA,NA,""
"image-keyboard-response",458,347205,"0.0-4.148-2.148","duhtzko8h2xmzn7",345,"91.csv","","null","resources/images/coin2.png","null","",NA,NA,NA,NA,""
"image-keyboard-response",459,347500,"0.0-4.149-0.149","duhtzko8h2xmzn7",345,"91.csv","","294","resources/trios/L1T2A2.jpg","37","restless",0.4,0.7,0.6,0.835382306228648,"false"
"image-keyboard-response",460,347906,"0.0-4.149-1.149","duhtzko8h2xmzn7",345,"91.csv","","null","resources/maskTrios/L1BB.jpg","null","",NA,NA,NA,NA,""
"image-keyboard-response",461,349217,"0.0-4.149-2.149","duhtzko8h2xmzn7",345,"91.csv","","null","resources/images/fishbone.png","null","",NA,NA,NA,NA,""
"image-keyboard-response",462,349547,"0.0-4.150-0.150","duhtzko8h2xmzn7",345,"91.csv","","328","resources/trios/L1T2A2.jpg","39","restless",0.4,0.7,0.6,0.250291841738155,"true"
"image-keyboard-response",463,349952,"0.0-4.150-1.150","duhtzko8h2xmzn7",345,"91.csv","","null","resources/maskTrios/BBA2.jpg","null","",NA,NA,NA,NA,""
"image-keyboard-response",464,351233,"0.0-4.150-2.150","duhtzko8h2xmzn7",345,"91.csv","","null","resources/images/coin2.png","null","",NA,NA,NA,NA,""
"image-keyboard-response",465,351520,"0.0-4.151-0.151","duhtzko8h2xmzn7",345,"91.csv","","286","resources/trios/L1T2A2.jpg","39","restless",0.4,0.6,0.6,0.0398729445247181,"true"
"image-keyboard-response",466,351925,"0.0-4.151-1.151","duhtzko8h2xmzn7",345,"91.csv","","null","resources/maskTrios/BBA2.jpg","null","",NA,NA,NA,NA,""
"image-keyboard-response",467,353243,"0.0-4.151-2.151","duhtzko8h2xmzn7",345,"91.csv","","null","resources/images/coin2.png","null","",NA,NA,NA,NA,""
"image-keyboard-response",468,353676,"0.0-4.152-0.152","duhtzko8h2xmzn7",345,"91.csv","","432","resources/trios/L1T2A2.jpg","37","restless",0.4,0.6,0.6,0.0146867149844494,"true"
"image-keyboard-response",469,354081,"0.0-4.152-1.152","duhtzko8h2xmzn7",345,"91.csv","","null","resources/maskTrios/L1BB.jpg","null","",NA,NA,NA,NA,""
"image-keyboard-response",470,355283,"0.0-4.152-2.152","duhtzko8h2xmzn7",345,"91.csv","","null","resources/images/coin2.png","null","",NA,NA,NA,NA,""
"image-keyboard-response",471,355603,"0.0-4.153-0.153","duhtzko8h2xmzn7",345,"91.csv","","319","resources/trios/L1T2A2.jpg","39","restless",0.4,0.7,0.6,0.506216613700082,"true"
"image-keyboard-response",472,356005,"0.0-4.153-1.153","duhtzko8h2xmzn7",345,"91.csv","","null","resources/maskTrios/BBA2.jpg","null","",NA,NA,NA,NA,""
"image-keyboard-response",473,357290,"0.0-4.153-2.153","duhtzko8h2xmzn7",345,"91.csv","","null","resources/images/coin2.png","null","",NA,NA,NA,NA,""
"image-keyboard-response",474,357680,"0.0-4.154-0.154","duhtzko8h2xmzn7",345,"91.csv","","389","resources/trios/L1T2A2.jpg","39","restless",0.4,0.7,0.6,0.384954121566366,"true"
"image-keyboard-response",475,358082,"0.0-4.154-1.154","duhtzko8h2xmzn7",345,"91.csv","","null","resources/maskTrios/BBA2.jpg","null","",NA,NA,NA,NA,""
"image-keyboard-response",476,359305,"0.0-4.154-2.154","duhtzko8h2xmzn7",345,"91.csv","","null","resources/images/coin2.png","null","",NA,NA,NA,NA,""
"image-keyboard-response",477,359643,"0.0-4.155-0.155","duhtzko8h2xmzn7",345,"91.csv","","336","resources/trios/L1T2A2.jpg","38","restless",0.4,0.7,0.6,0.257752917792078,"true"
"image-keyboard-response",478,360049,"0.0-4.155-1.155","duhtzko8h2xmzn7",345,"91.csv","","null","resources/maskTrios/BT2B.jpg","null","",NA,NA,NA,NA,""
"image-keyboard-response",479,361404,"0.0-4.155-2.155","duhtzko8h2xmzn7",345,"91.csv","","null","resources/images/coin2.png","null","",NA,NA,NA,NA,""
"image-keyboard-response",480,361714,"0.0-4.156-0.156","duhtzko8h2xmzn7",345,"91.csv","","309","resources/trios/L1T2A2.jpg","38","restless",0.4,0.6,0.6,0.479010194978492,"true"
"image-keyboard-response",481,362118,"0.0-4.156-1.156","duhtzko8h2xmzn7",345,"91.csv","","null","resources/maskTrios/BT2B.jpg","null","",NA,NA,NA,NA,""
"image-keyboard-response",482,363422,"0.0-4.156-2.156","duhtzko8h2xmzn7",345,"91.csv","","null","resources/images/coin2.png","null","",NA,NA,NA,NA,""
"image-keyboard-response",483,363731,"0.0-4.157-0.157","duhtzko8h2xmzn7",345,"91.csv","","308","resources/trios/L1T2A2.jpg","37","restless",0.4,0.5,0.6,0.959463099408533,"false"
"image-keyboard-response",484,364133,"0.0-4.157-1.157","duhtzko8h2xmzn7",345,"91.csv","","null","resources/maskTrios/L1BB.jpg","null","",NA,NA,NA,NA,""
"image-keyboard-response",485,365435,"0.0-4.157-2.157","duhtzko8h2xmzn7",345,"91.csv","","null","resources/images/fishbone.png","null","",NA,NA,NA,NA,""
"image-keyboard-response",486,365771,"0.0-4.158-0.158","duhtzko8h2xmzn7",345,"91.csv","","335","resources/trios/L1T2A2.jpg","38","restless",0.4,0.5,0.6,0.884530099631631,"false"
"image-keyboard-response",487,366177,"0.0-4.158-1.158","duhtzko8h2xmzn7",345,"91.csv","","null","resources/maskTrios/BT2B.jpg","null","",NA,NA,NA,NA,""
"image-keyboard-response",488,367452,"0.0-4.158-2.158","duhtzko8h2xmzn7",345,"91.csv","","null","resources/images/fishbone.png","null","",NA,NA,NA,NA,""
"image-keyboard-response",489,367739,"0.0-4.159-0.159","duhtzko8h2xmzn7",345,"91.csv","","286","resources/trios/L1T2A2.jpg","39","restless",0.5,0.5,0.7,0.793638990150599,"false"
"image-keyboard-response",490,368142,"0.0-4.159-1.159","duhtzko8h2xmzn7",345,"91.csv","","null","resources/maskTrios/BBA2.jpg","null","",NA,NA,NA,NA,""
"image-keyboard-response",491,369470,"0.0-4.159-2.159","duhtzko8h2xmzn7",345,"91.csv","","null","resources/images/fishbone.png","null","",NA,NA,NA,NA,""
"image-keyboard-response",492,369756,"0.0-4.160-0.160","duhtzko8h2xmzn7",345,"91.csv","","284","resources/trios/L1T2A2.jpg","39","restless",0.5,0.5,0.8,0.919611503616768,"false"
"image-keyboard-response",493,370163,"0.0-4.160-1.160","duhtzko8h2xmzn7",345,"91.csv","","null","resources/maskTrios/BBA2.jpg","null","",NA,NA,NA,NA,""
"image-keyboard-response",494,371486,"0.0-4.160-2.160","duhtzko8h2xmzn7",345,"91.csv","","null","resources/images/fishbone.png","null","",NA,NA,NA,NA,""
"image-keyboard-response",495,371742,"0.0-4.161-0.161","duhtzko8h2xmzn7",345,"91.csv","","254","resources/trios/L1T2A2.jpg","37","restless",0.5,0.5,0.8,0.205188843398341,"true"
"image-keyboard-response",496,372145,"0.0-4.161-1.161","duhtzko8h2xmzn7",345,"91.csv","","null","resources/maskTrios/L1BB.jpg","null","",NA,NA,NA,NA,""
"image-keyboard-response",497,373496,"0.0-4.161-2.161","duhtzko8h2xmzn7",345,"91.csv","","null","resources/images/coin2.png","null","",NA,NA,NA,NA,""
"image-keyboard-response",498,373755,"0.0-4.162-0.162","duhtzko8h2xmzn7",345,"91.csv","","259","resources/trios/L1T2A2.jpg","37","restless",0.5,0.5,0.8,0.280102011196334,"true"
"image-keyboard-response",499,374160,"0.0-4.162-1.162","duhtzko8h2xmzn7",345,"91.csv","","null","resources/maskTrios/L1BB.jpg","null","",NA,NA,NA,NA,""
"image-keyboard-response",500,375511,"0.0-4.162-2.162","duhtzko8h2xmzn7",345,"91.csv","","null","resources/images/coin2.png","null","",NA,NA,NA,NA,""
"image-keyboard-response",501,375803,"0.0-4.163-0.163","duhtzko8h2xmzn7",345,"91.csv","","291","resources/trios/L1T2A2.jpg","37","restless",0.5,0.5,0.8,0.629826101119945,"false"
"image-keyboard-response",502,376208,"0.0-4.163-1.163","duhtzko8h2xmzn7",345,"91.csv","","null","resources/maskTrios/L1BB.jpg","null","",NA,NA,NA,NA,""
"image-keyboard-response",503,377530,"0.0-4.163-2.163","duhtzko8h2xmzn7",345,"91.csv","","null","resources/images/fishbone.png","null","",NA,NA,NA,NA,""
"image-keyboard-response",504,377705,"0.0-4.164-0.164","duhtzko8h2xmzn7",345,"91.csv","","174","resources/trios/L1T2A2.jpg","38","restless",0.5,0.5,0.8,0.378656150132646,"true"
"image-keyboard-response",505,378112,"0.0-4.164-1.164","duhtzko8h2xmzn7",345,"91.csv","","null","resources/maskTrios/BT2B.jpg","null","",NA,NA,NA,NA,""
"image-keyboard-response",506,379316,"0.0-4.164-2.164","duhtzko8h2xmzn7",345,"91.csv","","null","resources/images/coin2.png","null","",NA,NA,NA,NA,""
"image-keyboard-response",507,379580,"0.0-4.165-0.165","duhtzko8h2xmzn7",345,"91.csv","","263","resources/trios/L1T2A2.jpg","38","restless",0.5,0.5,0.8,0.177594934876551,"true"
"image-keyboard-response",508,379985,"0.0-4.165-1.165","duhtzko8h2xmzn7",345,"91.csv","","null","resources/maskTrios/BT2B.jpg","null","",NA,NA,NA,NA,""
"image-keyboard-response",509,381190,"0.0-4.165-2.165","duhtzko8h2xmzn7",345,"91.csv","","null","resources/images/coin2.png","null","",NA,NA,NA,NA,""
"image-keyboard-response",510,381488,"0.0-4.166-0.166","duhtzko8h2xmzn7",345,"91.csv","","297","resources/trios/L1T2A2.jpg","37","restless",0.5,0.5,0.8,0.328979828017118,"true"
"image-keyboard-response",511,381892,"0.0-4.166-1.166","duhtzko8h2xmzn7",345,"91.csv","","null","resources/maskTrios/L1BB.jpg","null","",NA,NA,NA,NA,""
"image-keyboard-response",512,383098,"0.0-4.166-2.166","duhtzko8h2xmzn7",345,"91.csv","","null","resources/images/coin2.png","null","",NA,NA,NA,NA,""
"image-keyboard-response",513,383379,"0.0-4.167-0.167","duhtzko8h2xmzn7",345,"91.csv","","281","resources/trios/L1T2A2.jpg","37","restless",0.5,0.5,0.8,0.371872510110966,"true"
"image-keyboard-response",514,383783,"0.0-4.167-1.167","duhtzko8h2xmzn7",345,"91.csv","","null","resources/maskTrios/L1BB.jpg","null","",NA,NA,NA,NA,""
"image-keyboard-response",515,384988,"0.0-4.167-2.167","duhtzko8h2xmzn7",345,"91.csv","","null","resources/images/coin2.png","null","",NA,NA,NA,NA,""
"image-keyboard-response",516,385283,"0.0-4.168-0.168","duhtzko8h2xmzn7",345,"91.csv","","294","resources/trios/L1T2A2.jpg","37","restless",0.5,0.5,0.8,0.861460211037684,"false"
"image-keyboard-response",517,385685,"0.0-4.168-1.168","duhtzko8h2xmzn7",345,"91.csv","","null","resources/maskTrios/L1BB.jpg","null","",NA,NA,NA,NA,""
"image-keyboard-response",518,386994,"0.0-4.168-2.168","duhtzko8h2xmzn7",345,"91.csv","","null","resources/images/fishbone.png","null","",NA,NA,NA,NA,""
"image-keyboard-response",519,387290,"0.0-4.169-0.169","duhtzko8h2xmzn7",345,"91.csv","","294","resources/trios/L1T2A2.jpg","39","restless",0.5,0.5,0.9,0.165280518062179,"true"
"image-keyboard-response",520,387695,"0.0-4.169-1.169","duhtzko8h2xmzn7",345,"91.csv","","null","resources/maskTrios/BBA2.jpg","null","",NA,NA,NA,NA,""
"image-keyboard-response",521,389003,"0.0-4.169-2.169","duhtzko8h2xmzn7",345,"91.csv","","null","resources/images/coin2.png","null","",NA,NA,NA,NA,""
"image-keyboard-response",522,389305,"0.0-4.170-0.170","duhtzko8h2xmzn7",345,"91.csv","","301","resources/trios/L1T2A2.jpg","39","restless",0.5,0.5,0.9,0.738102740853878,"true"
"image-keyboard-response",523,389711,"0.0-4.170-1.170","duhtzko8h2xmzn7",345,"91.csv","","null","resources/maskTrios/BBA2.jpg","null","",NA,NA,NA,NA,""
"image-keyboard-response",524,391017,"0.0-4.170-2.170","duhtzko8h2xmzn7",345,"91.csv","","null","resources/images/coin2.png","null","",NA,NA,NA,NA,""
"image-keyboard-response",525,391315,"0.0-4.171-0.171","duhtzko8h2xmzn7",345,"91.csv","","297","resources/trios/L1T2A2.jpg","38","restless",0.5,0.5,0.9,0.841424057304825,"false"
"image-keyboard-response",526,391719,"0.0-4.171-1.171","duhtzko8h2xmzn7",345,"91.csv","","null","resources/maskTrios/BT2B.jpg","null","",NA,NA,NA,NA,""
"image-keyboard-response",527,393035,"0.0-4.171-2.171","duhtzko8h2xmzn7",345,"91.csv","","null","resources/images/fishbone.png","null","",NA,NA,NA,NA,""
"image-keyboard-response",528,393281,"0.0-4.172-0.172","duhtzko8h2xmzn7",345,"91.csv","","246","resources/trios/L1T2A2.jpg","38","restless",0.5,0.4,0.9,0.988992114856354,"false"
"image-keyboard-response",529,393690,"0.0-4.172-1.172","duhtzko8h2xmzn7",345,"91.csv","","null","resources/maskTrios/BT2B.jpg","null","",NA,NA,NA,NA,""
"image-keyboard-response",530,394895,"0.0-4.172-2.172","duhtzko8h2xmzn7",345,"91.csv","","null","resources/images/fishbone.png","null","",NA,NA,NA,NA,""
"image-keyboard-response",531,395204,"0.0-4.173-0.173","duhtzko8h2xmzn7",345,"91.csv","","308","resources/trios/L1T2A2.jpg","37","restless",0.5,0.4,0.9,0.0864018304018376,"true"
"image-keyboard-response",532,395606,"0.0-4.173-1.173","duhtzko8h2xmzn7",345,"91.csv","","null","resources/maskTrios/L1BB.jpg","null","",NA,NA,NA,NA,""
"image-keyboard-response",533,396811,"0.0-4.173-2.173","duhtzko8h2xmzn7",345,"91.csv","","null","resources/images/coin2.png","null","",NA,NA,NA,NA,""
"image-keyboard-response",534,397267,"0.0-4.174-0.174","duhtzko8h2xmzn7",345,"91.csv","","453","resources/trios/L1T2A2.jpg","37","restless",0.5,0.4,0.9,0.748267827825593,"false"
"image-keyboard-response",535,397670,"0.0-4.174-1.174","duhtzko8h2xmzn7",345,"91.csv","","null","resources/maskTrios/L1BB.jpg","null","",NA,NA,NA,NA,""
"image-keyboard-response",536,398881,"0.0-4.174-2.174","duhtzko8h2xmzn7",345,"91.csv","","null","resources/images/fishbone.png","null","",NA,NA,NA,NA,""
"image-keyboard-response",537,399040,"0.0-4.175-0.175","duhtzko8h2xmzn7",345,"91.csv","","158","resources/trios/L1T2A2.jpg","38","restless",0.5,0.4,0.9,0.299321952708667,"true"
"image-keyboard-response",538,399442,"0.0-4.175-1.175","duhtzko8h2xmzn7",345,"91.csv","","null","resources/maskTrios/BT2B.jpg","null","",NA,NA,NA,NA,""
"image-keyboard-response",539,400646,"0.0-4.175-2.175","duhtzko8h2xmzn7",345,"91.csv","","null","resources/images/coin2.png","null","",NA,NA,NA,NA,""
"image-keyboard-response",540,400930,"0.0-4.176-0.176","duhtzko8h2xmzn7",345,"91.csv","","281","resources/trios/L1T2A2.jpg","38","restless",0.5,0.4,0.9,0.999302239129679,"false"
"image-keyboard-response",541,401335,"0.0-4.176-1.176","duhtzko8h2xmzn7",345,"91.csv","","null","resources/maskTrios/BT2B.jpg","null","",NA,NA,NA,NA,""
"image-keyboard-response",542,402543,"0.0-4.176-2.176","duhtzko8h2xmzn7",345,"91.csv","","null","resources/images/fishbone.png","null","",NA,NA,NA,NA,""
"image-keyboard-response",543,402847,"0.0-4.177-0.177","duhtzko8h2xmzn7",345,"91.csv","","302","resources/trios/L1T2A2.jpg","39","restless",0.5,0.4,0.9,0.450944773679443,"true"
"image-keyboard-response",544,403249,"0.0-4.177-1.177","duhtzko8h2xmzn7",345,"91.csv","","null","resources/maskTrios/BBA2.jpg","null","",NA,NA,NA,NA,""
"image-keyboard-response",545,404555,"0.0-4.177-2.177","duhtzko8h2xmzn7",345,"91.csv","","null","resources/images/coin2.png","null","",NA,NA,NA,NA,""
"image-keyboard-response",546,404846,"0.0-4.178-0.178","duhtzko8h2xmzn7",345,"91.csv","","289","resources/trios/L1T2A2.jpg","39","restless",0.5,0.4,0.9,0.961370962098573,"false"
"image-keyboard-response",547,405253,"0.0-4.178-1.178","duhtzko8h2xmzn7",345,"91.csv","","null","resources/maskTrios/BBA2.jpg","null","",NA,NA,NA,NA,""
"image-keyboard-response",548,406563,"0.0-4.178-2.178","duhtzko8h2xmzn7",345,"91.csv","","null","resources/images/fishbone.png","null","",NA,NA,NA,NA,""
"image-keyboard-response",549,406787,"0.0-4.179-0.179","duhtzko8h2xmzn7",345,"91.csv","","222","resources/trios/L1T2A2.jpg","37","restless",0.5,0.4,0.9,0.833425653078353,"false"
"image-keyboard-response",550,407193,"0.0-4.179-1.179","duhtzko8h2xmzn7",345,"91.csv","","null","resources/maskTrios/L1BB.jpg","null","",NA,NA,NA,NA,""
"image-keyboard-response",551,408402,"0.0-4.179-2.179","duhtzko8h2xmzn7",345,"91.csv","","null","resources/images/fishbone.png","null","",NA,NA,NA,NA,""
"image-keyboard-response",552,408696,"0.0-4.180-0.180","duhtzko8h2xmzn7",345,"91.csv","","292","resources/trios/L1T2A2.jpg","38","restless",0.5,0.4,0.9,0.73049183938355,"false"
"image-keyboard-response",553,409104,"0.0-4.180-1.180","duhtzko8h2xmzn7",345,"91.csv","","null","resources/maskTrios/BT2B.jpg","null","",NA,NA,NA,NA,""
"image-keyboard-response",554,410311,"0.0-4.180-2.180","duhtzko8h2xmzn7",345,"91.csv","","null","resources/images/fishbone.png","null","",NA,NA,NA,NA,""
"image-keyboard-response",555,410561,"0.0-4.181-0.181","duhtzko8h2xmzn7",345,"91.csv","","249","resources/trios/L1T2A2.jpg","37","restless",0.5,0.4,0.9,0.492744173721258,"true"
"image-keyboard-response",556,410965,"0.0-4.181-1.181","duhtzko8h2xmzn7",345,"91.csv","","null","resources/maskTrios/L1BB.jpg","null","",NA,NA,NA,NA,""
"image-keyboard-response",557,412172,"0.0-4.181-2.181","duhtzko8h2xmzn7",345,"91.csv","","null","resources/images/coin2.png","null","",NA,NA,NA,NA,""
"image-keyboard-response",558,412584,"0.0-4.182-0.182","duhtzko8h2xmzn7",345,"91.csv","","411","resources/trios/L1T2A2.jpg","37","restless",0.5,0.4,0.8,0.0617795401488562,"true"
"image-keyboard-response",559,412989,"0.0-4.182-1.182","duhtzko8h2xmzn7",345,"91.csv","","null","resources/maskTrios/L1BB.jpg","null","",NA,NA,NA,NA,""
"image-keyboard-response",560,414195,"0.0-4.182-2.182","duhtzko8h2xmzn7",345,"91.csv","","null","resources/images/coin2.png","null","",NA,NA,NA,NA,""
"image-keyboard-response",561,414528,"0.0-4.183-0.183","duhtzko8h2xmzn7",345,"91.csv","","332","resources/trios/L1T2A2.jpg","38","restless",0.5,0.4,0.8,0.262127294433582,"true"
"image-keyboard-response",562,414933,"0.0-4.183-1.183","duhtzko8h2xmzn7",345,"91.csv","","null","resources/maskTrios/BT2B.jpg","null","",NA,NA,NA,NA,""
"image-keyboard-response",563,416140,"0.0-4.183-2.183","duhtzko8h2xmzn7",345,"91.csv","","null","resources/images/coin2.png","null","",NA,NA,NA,NA,""
"image-keyboard-response",564,416436,"0.0-4.184-0.184","duhtzko8h2xmzn7",345,"91.csv","","294","resources/trios/L1T2A2.jpg","38","restless",0.5,0.4,0.7,0.250391404112105,"true"
"image-keyboard-response",565,416839,"0.0-4.184-1.184","duhtzko8h2xmzn7",345,"91.csv","","null","resources/maskTrios/BT2B.jpg","null","",NA,NA,NA,NA,""
"image-keyboard-response",566,418146,"0.0-4.184-2.184","duhtzko8h2xmzn7",345,"91.csv","","null","resources/images/coin2.png","null","",NA,NA,NA,NA,""
"image-keyboard-response",567,418455,"0.0-4.185-0.185","duhtzko8h2xmzn7",345,"91.csv","","307","resources/trios/L1T2A2.jpg","37","restless",0.6,0.4,0.7,0.643107494440979,"false"
"image-keyboard-response",568,418861,"0.0-4.185-1.185","duhtzko8h2xmzn7",345,"91.csv","","null","resources/maskTrios/L1BB.jpg","null","",NA,NA,NA,NA,""
"image-keyboard-response",569,420163,"0.0-4.185-2.185","duhtzko8h2xmzn7",345,"91.csv","","null","resources/images/fishbone.png","null","",NA,NA,NA,NA,""
"image-keyboard-response",570,420434,"0.0-4.186-0.186","duhtzko8h2xmzn7",345,"91.csv","","269","resources/trios/L1T2A2.jpg","38","restless",0.6,0.4,0.7,0.401137089731085,"false"
"image-keyboard-response",571,420838,"0.0-4.186-1.186","duhtzko8h2xmzn7",345,"91.csv","","null","resources/maskTrios/BT2B.jpg","null","",NA,NA,NA,NA,""
"image-keyboard-response",572,422185,"0.0-4.186-2.186","duhtzko8h2xmzn7",345,"91.csv","","null","resources/images/fishbone.png","null","",NA,NA,NA,NA,""
"image-keyboard-response",573,422520,"0.0-4.187-0.187","duhtzko8h2xmzn7",345,"91.csv","","336","resources/trios/L1T2A2.jpg","37","restless",0.6,0.4,0.7,0.802710027929355,"false"
"image-keyboard-response",574,422925,"0.0-4.187-1.187","duhtzko8h2xmzn7",345,"91.csv","","null","resources/maskTrios/L1BB.jpg","null","",NA,NA,NA,NA,""
"image-keyboard-response",575,424189,"0.0-4.187-2.187","duhtzko8h2xmzn7",345,"91.csv","","null","resources/images/fishbone.png","null","",NA,NA,NA,NA,""
"image-keyboard-response",576,424478,"0.0-4.188-0.188","duhtzko8h2xmzn7",345,"91.csv","","288","resources/trios/L1T2A2.jpg","39","restless",0.6,0.4,0.6,0.208960620892027,"true"
"image-keyboard-response",577,424883,"0.0-4.188-1.188","duhtzko8h2xmzn7",345,"91.csv","","null","resources/maskTrios/BBA2.jpg","null","",NA,NA,NA,NA,""
"image-keyboard-response",578,426202,"0.0-4.188-2.188","duhtzko8h2xmzn7",345,"91.csv","","null","resources/images/coin2.png","null","",NA,NA,NA,NA,""
"image-keyboard-response",579,426508,"0.0-4.189-0.189","duhtzko8h2xmzn7",345,"91.csv","","304","resources/trios/L1T2A2.jpg","39","restless",0.6,0.4,0.6,0.590312114823054,"true"
"image-keyboard-response",580,426913,"0.0-4.189-1.189","duhtzko8h2xmzn7",345,"91.csv","","null","resources/maskTrios/BBA2.jpg","null","",NA,NA,NA,NA,""
"image-keyboard-response",581,428212,"0.0-4.189-2.189","duhtzko8h2xmzn7",345,"91.csv","","null","resources/images/coin2.png","null","",NA,NA,NA,NA,""
"image-keyboard-response",582,428535,"0.0-4.190-0.190","duhtzko8h2xmzn7",345,"91.csv","","321","resources/trios/L1T2A2.jpg","37","restless",0.6,0.4,0.6,0.106735073589626,"true"
"image-keyboard-response",583,428941,"0.0-4.190-1.190","duhtzko8h2xmzn7",345,"91.csv","","null","resources/maskTrios/L1BB.jpg","null","",NA,NA,NA,NA,""
"image-keyboard-response",584,430229,"0.0-4.190-2.190","duhtzko8h2xmzn7",345,"91.csv","","null","resources/images/coin2.png","null","",NA,NA,NA,NA,""
"image-keyboard-response",585,430512,"0.0-4.191-0.191","duhtzko8h2xmzn7",345,"91.csv","","282","resources/trios/L1T2A2.jpg","37","restless",0.6,0.4,0.6,0.59407055448307,"true"
"image-keyboard-response",586,430919,"0.0-4.191-1.191","duhtzko8h2xmzn7",345,"91.csv","","null","resources/maskTrios/L1BB.jpg","null","",NA,NA,NA,NA,""
"image-keyboard-response",587,432243,"0.0-4.191-2.191","duhtzko8h2xmzn7",345,"91.csv","","null","resources/images/coin2.png","null","",NA,NA,NA,NA,""
"image-keyboard-response",588,432519,"0.0-4.192-0.192","duhtzko8h2xmzn7",345,"91.csv","","275","resources/trios/L1T2A2.jpg","38","restless",0.7,0.4,0.5,0.531308751476304,"false"
"image-keyboard-response",589,432925,"0.0-4.192-1.192","duhtzko8h2xmzn7",345,"91.csv","","null","resources/maskTrios/BT2B.jpg","null","",NA,NA,NA,NA,""
"image-keyboard-response",590,434262,"0.0-4.192-2.192","duhtzko8h2xmzn7",345,"91.csv","","null","resources/images/fishbone.png","null","",NA,NA,NA,NA,""
"image-keyboard-response",591,434532,"0.0-4.193-0.193","duhtzko8h2xmzn7",345,"91.csv","","271","resources/trios/L1T2A2.jpg","37","restless",0.8,0.4,0.5,0.928678351534561,"false"
"image-keyboard-response",592,434938,"0.0-4.193-1.193","duhtzko8h2xmzn7",345,"91.csv","","null","resources/maskTrios/L1BB.jpg","null","",NA,NA,NA,NA,""
"image-keyboard-response",593,436268,"0.0-4.193-2.193","duhtzko8h2xmzn7",345,"91.csv","","null","resources/images/fishbone.png","null","",NA,NA,NA,NA,""
"image-keyboard-response",594,436572,"0.0-4.194-0.194","duhtzko8h2xmzn7",345,"91.csv","","304","resources/trios/L1T2A2.jpg","39","restless",0.9,0.4,0.5,0.117646616697076,"true"
"image-keyboard-response",595,436974,"0.0-4.194-1.194","duhtzko8h2xmzn7",345,"91.csv","","null","resources/maskTrios/BBA2.jpg","null","",NA,NA,NA,NA,""
"image-keyboard-response",596,438275,"0.0-4.194-2.194","duhtzko8h2xmzn7",345,"91.csv","","null","resources/images/coin2.png","null","",NA,NA,NA,NA,""
"image-keyboard-response",597,438546,"0.0-4.195-0.195","duhtzko8h2xmzn7",345,"91.csv","","269","resources/trios/L1T2A2.jpg","39","restless",0.9,0.4,0.4,0.331395212770548,"true"
"image-keyboard-response",598,438948,"0.0-4.195-1.195","duhtzko8h2xmzn7",345,"91.csv","","null","resources/maskTrios/BBA2.jpg","null","",NA,NA,NA,NA,""
"image-keyboard-response",599,440296,"0.0-4.195-2.195","duhtzko8h2xmzn7",345,"91.csv","","null","resources/images/coin2.png","null","",NA,NA,NA,NA,""
"image-keyboard-response",600,440647,"0.0-4.196-0.196","duhtzko8h2xmzn7",345,"91.csv","","350","resources/trios/L1T2A2.jpg","37","restless",0.9,0.3,0.4,0.733906291002159,"true"
"image-keyboard-response",601,441050,"0.0-4.196-1.196","duhtzko8h2xmzn7",345,"91.csv","","null","resources/maskTrios/L1BB.jpg","null","",NA,NA,NA,NA,""
"image-keyboard-response",602,442304,"0.0-4.196-2.196","duhtzko8h2xmzn7",345,"91.csv","","null","resources/images/coin2.png","null","",NA,NA,NA,NA,""
"image-keyboard-response",603,442571,"0.0-4.197-0.197","duhtzko8h2xmzn7",345,"91.csv","","267","resources/trios/L1T2A2.jpg","37","restless",0.9,0.3,0.4,0.382020357202491,"true"
"image-keyboard-response",604,442977,"0.0-4.197-1.197","duhtzko8h2xmzn7",345,"91.csv","","null","resources/maskTrios/L1BB.jpg","null","",NA,NA,NA,NA,""
"image-keyboard-response",605,444327,"0.0-4.197-2.197","duhtzko8h2xmzn7",345,"91.csv","","null","resources/images/coin2.png","null","",NA,NA,NA,NA,""
"image-keyboard-response",606,444608,"0.0-4.198-0.198","duhtzko8h2xmzn7",345,"91.csv","","281","resources/trios/L1T2A2.jpg","38","restless",0.9,0.3,0.4,0.225100991394022,"true"
"image-keyboard-response",607,445010,"0.0-4.198-1.198","duhtzko8h2xmzn7",345,"91.csv","","null","resources/maskTrios/BT2B.jpg","null","",NA,NA,NA,NA,""
"image-keyboard-response",608,446335,"0.0-4.198-2.198","duhtzko8h2xmzn7",345,"91.csv","","null","resources/images/coin2.png","null","",NA,NA,NA,NA,""
"image-keyboard-response",609,446638,"0.0-4.199-0.199","duhtzko8h2xmzn7",345,"91.csv","","301","resources/trios/L1T2A2.jpg","38","restless",0.9,0.3,0.4,0.407191134954912,"false"
"image-keyboard-response",610,447041,"0.0-4.199-1.199","duhtzko8h2xmzn7",345,"91.csv","","null","resources/maskTrios/BT2B.jpg","null","",NA,NA,NA,NA,""
"image-keyboard-response",611,448355,"0.0-4.199-2.199","duhtzko8h2xmzn7",345,"91.csv","","null","resources/images/fishbone.png","null","",NA,NA,NA,NA,""
"survey-text",612,523003,"0.0-5.0","duhtzko8h2xmzn7",345,"91.csv","","74637","","","",NA,NA,NA,NA,""
