"trial_type","trial_index","time_elapsed","internal_node_id","subject","participantCode","walkNumber","success","rt","stimulus","key_press","test_part","leftProb","midProb","rightProb","generatedNum","correct"
"pavlovia",0,1165,"0.0-0.0","7u8n4waabd7hl6n",754,"184.csv","","","","","",NA,NA,NA,NA,""
"fullscreen",1,8802,"0.0-1.0","7u8n4waabd7hl6n",754,"184.csv","true","","","","",NA,NA,NA,NA,""
"survey-html-form",2,44776,"0.0-2.0","7u8n4waabd7hl6n",754,"184.csv","","35967.299999952316","","","",NA,NA,NA,NA,""
"image-keyboard-response",3,56685,"0.0-3.0-0.0","7u8n4waabd7hl6n",754,"184.csv","","11899.299999952316","resources/images/parrot_nobg.png","13","",NA,NA,NA,NA,""
"image-keyboard-response",4,59696,"0.0-3.0-1.0","7u8n4waabd7hl6n",754,"184.csv","","null","resources/image_sets/111.png","null","",NA,NA,NA,NA,""
"image-keyboard-response",5,63523,"0.0-3.0-2.0","7u8n4waabd7hl6n",754,"184.csv","","3824.7999999523163","resources/image_sets/left_highlight.png","37","",NA,NA,NA,NA,""
"image-keyboard-response",6,66088,"0.0-3.0-3.0","7u8n4waabd7hl6n",754,"184.csv","","2563.399999976158","resources/image_sets/mid_highlight.png","38","",NA,NA,NA,NA,""
"image-keyboard-response",7,68136,"0.0-3.0-4.0","7u8n4waabd7hl6n",754,"184.csv","","2045.1000000238419","resources/image_sets/right_highlight.png","39","",NA,NA,NA,NA,""
"image-keyboard-response",8,70682,"0.0-3.0-5.0","7u8n4waabd7hl6n",754,"184.csv","","2544.6999999284744","resources/image_sets/111.png","13","",NA,NA,NA,NA,""
"image-keyboard-response",9,72977,"0.0-3.0-6.0","7u8n4waabd7hl6n",754,"184.csv","","2293.100000023842","resources/images/coin2.png","13","",NA,NA,NA,NA,""
"image-keyboard-response",10,76121,"0.0-3.0-7.0","7u8n4waabd7hl6n",754,"184.csv","","3142.899999976158","resources/images/fishbone.png","13","",NA,NA,NA,NA,""
"html-keyboard-response",11,77102,"0.0-3.0-8.0","7u8n4waabd7hl6n",754,"184.csv","","979.3999999761581","<p>You can track your coin total on the top right of your screen. </p><p>At the end of your journey you will be directed to a survey, so please click on the link before exiting the task</p><p>Press Enter to begin</p>","13","",NA,NA,NA,NA,""
"image-keyboard-response",12,78532,"0.0-4.0-0.0","7u8n4waabd7hl6n",754,"184.csv","","1426.3999999761581","resources/trios/L1T2A3.jpg","37","restless",0.7,0.9,0.3,0.492966164034252,"true"
"image-keyboard-response",13,78950,"0.0-4.0-1.0","7u8n4waabd7hl6n",754,"184.csv","","null","resources/maskTrios/L1BB.jpg","null","",NA,NA,NA,NA,""
"image-keyboard-response",14,80167,"0.0-4.0-2.0","7u8n4waabd7hl6n",754,"184.csv","","null","resources/images/coin2.png","null","",NA,NA,NA,NA,""
"image-keyboard-response",15,80829,"0.0-4.1-0.1","7u8n4waabd7hl6n",754,"184.csv","","658.2000000476837","resources/trios/L1T2A3.jpg","38","restless",0.7,0.9,0.3,0.640181867583946,"true"
"image-keyboard-response",16,81233,"0.0-4.1-1.1","7u8n4waabd7hl6n",754,"184.csv","","null","resources/maskTrios/BT2B.jpg","null","",NA,NA,NA,NA,""
"image-keyboard-response",17,82453,"0.0-4.1-2.1","7u8n4waabd7hl6n",754,"184.csv","","null","resources/images/coin2.png","null","",NA,NA,NA,NA,""
"image-keyboard-response",18,83251,"0.0-4.2-0.2","7u8n4waabd7hl6n",754,"184.csv","","796.1000000238419","resources/trios/L1T2A3.jpg","39","restless",0.7,0.9,0.2,0.0575808493422791,"true"
"image-keyboard-response",19,83660,"0.0-4.2-1.2","7u8n4waabd7hl6n",754,"184.csv","","null","resources/maskTrios/BBA3.jpg","null","",NA,NA,NA,NA,""
"image-keyboard-response",20,84864,"0.0-4.2-2.2","7u8n4waabd7hl6n",754,"184.csv","","null","resources/images/coin2.png","null","",NA,NA,NA,NA,""
"image-keyboard-response",21,85330,"0.0-4.3-0.3","7u8n4waabd7hl6n",754,"184.csv","","462.7000000476837","resources/trios/L1T2A3.jpg","37","restless",0.6,0.9,0.2,0.241941129174951,"true"
"image-keyboard-response",22,85742,"0.0-4.3-1.3","7u8n4waabd7hl6n",754,"184.csv","","null","resources/maskTrios/L1BB.jpg","null","",NA,NA,NA,NA,""
"image-keyboard-response",23,86947,"0.0-4.3-2.3","7u8n4waabd7hl6n",754,"184.csv","","null","resources/images/coin2.png","null","",NA,NA,NA,NA,""
"image-keyboard-response",24,87242,"0.0-4.4-0.4","7u8n4waabd7hl6n",754,"184.csv","","293.2999999523163","resources/trios/L1T2A3.jpg","38","restless",0.6,0.8,0.3,0.162399960037416,"true"
"image-keyboard-response",25,87655,"0.0-4.4-1.4","7u8n4waabd7hl6n",754,"184.csv","","null","resources/maskTrios/BT2B.jpg","null","",NA,NA,NA,NA,""
"image-keyboard-response",26,88866,"0.0-4.4-2.4","7u8n4waabd7hl6n",754,"184.csv","","null","resources/images/coin2.png","null","",NA,NA,NA,NA,""
"image-keyboard-response",27,89261,"0.0-4.5-0.5","7u8n4waabd7hl6n",754,"184.csv","","391.90000009536743","resources/trios/L1T2A3.jpg","39","restless",0.5,0.8,0.3,0.905490353630824,"false"
"image-keyboard-response",28,89677,"0.0-4.5-1.5","7u8n4waabd7hl6n",754,"184.csv","","null","resources/maskTrios/BBA3.jpg","null","",NA,NA,NA,NA,""
"image-keyboard-response",29,90883,"0.0-4.5-2.5","7u8n4waabd7hl6n",754,"184.csv","","null","resources/images/fishbone.png","null","",NA,NA,NA,NA,""
"image-keyboard-response",30,91451,"0.0-4.6-0.6","7u8n4waabd7hl6n",754,"184.csv","","565.5","resources/trios/L1T2A3.jpg","38","restless",0.5,0.8,0.3,0.933216025814478,"false"
"image-keyboard-response",31,91867,"0.0-4.6-1.6","7u8n4waabd7hl6n",754,"184.csv","","null","resources/maskTrios/BT2B.jpg","null","",NA,NA,NA,NA,""
"image-keyboard-response",32,93075,"0.0-4.6-2.6","7u8n4waabd7hl6n",754,"184.csv","","null","resources/images/fishbone.png","null","",NA,NA,NA,NA,""
"image-keyboard-response",33,93298,"0.0-4.7-0.7","7u8n4waabd7hl6n",754,"184.csv","","220.20000004768372","resources/trios/L1T2A3.jpg","37","restless",0.5,0.8,0.3,0.495245518653768,"true"
"image-keyboard-response",34,93707,"0.0-4.7-1.7","7u8n4waabd7hl6n",754,"184.csv","","null","resources/maskTrios/L1BB.jpg","null","",NA,NA,NA,NA,""
"image-keyboard-response",35,94911,"0.0-4.7-2.7","7u8n4waabd7hl6n",754,"184.csv","","null","resources/images/coin2.png","null","",NA,NA,NA,NA,""
"image-keyboard-response",36,95167,"0.0-4.8-0.8","7u8n4waabd7hl6n",754,"184.csv","","253.70000004768372","resources/trios/L1T2A3.jpg","37","restless",0.5,0.8,0.3,0.456913465297803,"true"
"image-keyboard-response",37,95571,"0.0-4.8-1.8","7u8n4waabd7hl6n",754,"184.csv","","null","resources/maskTrios/L1BB.jpg","null","",NA,NA,NA,NA,""
"image-keyboard-response",38,96784,"0.0-4.8-2.8","7u8n4waabd7hl6n",754,"184.csv","","null","resources/images/coin2.png","null","",NA,NA,NA,NA,""
"image-keyboard-response",39,97038,"0.0-4.9-0.9","7u8n4waabd7hl6n",754,"184.csv","","251.19999992847443","resources/trios/L1T2A3.jpg","37","restless",0.5,0.7,0.4,0.833618292993501,"false"
"image-keyboard-response",40,97443,"0.0-4.9-1.9","7u8n4waabd7hl6n",754,"184.csv","","null","resources/maskTrios/L1BB.jpg","null","",NA,NA,NA,NA,""
"image-keyboard-response",41,98646,"0.0-4.9-2.9","7u8n4waabd7hl6n",754,"184.csv","","null","resources/images/fishbone.png","null","",NA,NA,NA,NA,""
"image-keyboard-response",42,99007,"0.0-4.10-0.10","7u8n4waabd7hl6n",754,"184.csv","","357.8000000715256","resources/trios/L1T2A3.jpg","38","restless",0.5,0.7,0.4,0.727723675992224,"false"
"image-keyboard-response",43,99413,"0.0-4.10-1.10","7u8n4waabd7hl6n",754,"184.csv","","null","resources/maskTrios/BT2B.jpg","null","",NA,NA,NA,NA,""
"image-keyboard-response",44,100619,"0.0-4.10-2.10","7u8n4waabd7hl6n",754,"184.csv","","null","resources/images/fishbone.png","null","",NA,NA,NA,NA,""
"image-keyboard-response",45,100807,"0.0-4.11-0.11","7u8n4waabd7hl6n",754,"184.csv","","184.89999997615814","resources/trios/L1T2A3.jpg","39","restless",0.5,0.8,0.4,0.994201331198644,"false"
"image-keyboard-response",46,101214,"0.0-4.11-1.11","7u8n4waabd7hl6n",754,"184.csv","","null","resources/maskTrios/BBA3.jpg","null","",NA,NA,NA,NA,""
"image-keyboard-response",47,102423,"0.0-4.11-2.11","7u8n4waabd7hl6n",754,"184.csv","","null","resources/images/fishbone.png","null","",NA,NA,NA,NA,""
"image-keyboard-response",48,102973,"0.0-4.12-0.12","7u8n4waabd7hl6n",754,"184.csv","","547.6000000238419","resources/trios/L1T2A3.jpg","37","restless",0.5,0.8,0.4,0.769724318140355,"false"
"image-keyboard-response",49,103389,"0.0-4.12-1.12","7u8n4waabd7hl6n",754,"184.csv","","null","resources/maskTrios/L1BB.jpg","null","",NA,NA,NA,NA,""
"image-keyboard-response",50,104601,"0.0-4.12-2.12","7u8n4waabd7hl6n",754,"184.csv","","null","resources/images/fishbone.png","null","",NA,NA,NA,NA,""
"image-keyboard-response",51,104718,"0.0-4.13-0.13","7u8n4waabd7hl6n",754,"184.csv","","114.90000009536743","resources/trios/L1T2A3.jpg","37","restless",0.5,0.8,0.4,0.995631910518422,"false"
"image-keyboard-response",52,105121,"0.0-4.13-1.13","7u8n4waabd7hl6n",754,"184.csv","","null","resources/maskTrios/L1BB.jpg","null","",NA,NA,NA,NA,""
"image-keyboard-response",53,106335,"0.0-4.13-2.13","7u8n4waabd7hl6n",754,"184.csv","","null","resources/images/fishbone.png","null","",NA,NA,NA,NA,""
"image-keyboard-response",54,106630,"0.0-4.14-0.14","7u8n4waabd7hl6n",754,"184.csv","","292.10000002384186","resources/trios/L1T2A3.jpg","37","restless",0.5,0.8,0.4,0.515909957154101,"false"
"image-keyboard-response",55,107034,"0.0-4.14-1.14","7u8n4waabd7hl6n",754,"184.csv","","null","resources/maskTrios/L1BB.jpg","null","",NA,NA,NA,NA,""
"image-keyboard-response",56,108247,"0.0-4.14-2.14","7u8n4waabd7hl6n",754,"184.csv","","null","resources/images/fishbone.png","null","",NA,NA,NA,NA,""
"image-keyboard-response",57,108251,"0.0-4.15-0.15","7u8n4waabd7hl6n",754,"184.csv","","1.5","resources/trios/L1T2A3.jpg","37","restless",0.5,0.8,0.4,0.328940688051162,"true"
"image-keyboard-response",58,108659,"0.0-4.15-1.15","7u8n4waabd7hl6n",754,"184.csv","","null","resources/maskTrios/L1BB.jpg","null","",NA,NA,NA,NA,""
"image-keyboard-response",59,109878,"0.0-4.15-2.15","7u8n4waabd7hl6n",754,"184.csv","","null","resources/images/coin2.png","null","",NA,NA,NA,NA,""
"image-keyboard-response",60,109965,"0.0-4.16-0.16","7u8n4waabd7hl6n",754,"184.csv","","83.60000002384186","resources/trios/L1T2A3.jpg","37","restless",0.5,0.8,0.4,0.89150770043132,"false"
"image-keyboard-response",61,110376,"0.0-4.16-1.16","7u8n4waabd7hl6n",754,"184.csv","","null","resources/maskTrios/L1BB.jpg","null","",NA,NA,NA,NA,""
"image-keyboard-response",62,111586,"0.0-4.16-2.16","7u8n4waabd7hl6n",754,"184.csv","","null","resources/images/fishbone.png","null","",NA,NA,NA,NA,""
"image-keyboard-response",63,111770,"0.0-4.17-0.17","7u8n4waabd7hl6n",754,"184.csv","","181.60000002384186","resources/trios/L1T2A3.jpg","37","restless",0.5,0.8,0.4,0.810175546840598,"false"
"image-keyboard-response",64,112183,"0.0-4.17-1.17","7u8n4waabd7hl6n",754,"184.csv","","null","resources/maskTrios/L1BB.jpg","null","",NA,NA,NA,NA,""
"image-keyboard-response",65,113388,"0.0-4.17-2.17","7u8n4waabd7hl6n",754,"184.csv","","null","resources/images/fishbone.png","null","",NA,NA,NA,NA,""
"image-keyboard-response",66,113392,"0.0-4.18-0.18","7u8n4waabd7hl6n",754,"184.csv","","1.2000000476837158","resources/trios/L1T2A3.jpg","38","restless",0.5,0.8,0.4,0.516010317598932,"true"
"image-keyboard-response",67,113797,"0.0-4.18-1.18","7u8n4waabd7hl6n",754,"184.csv","","null","resources/maskTrios/BT2B.jpg","null","",NA,NA,NA,NA,""
"image-keyboard-response",68,115004,"0.0-4.18-2.18","7u8n4waabd7hl6n",754,"184.csv","","null","resources/images/coin2.png","null","",NA,NA,NA,NA,""
"image-keyboard-response",69,115069,"0.0-4.19-0.19","7u8n4waabd7hl6n",754,"184.csv","","62.200000047683716","resources/trios/L1T2A3.jpg","38","restless",0.5,0.8,0.4,0.347748500073979,"true"
"image-keyboard-response",70,115486,"0.0-4.19-1.19","7u8n4waabd7hl6n",754,"184.csv","","null","resources/maskTrios/BT2B.jpg","null","",NA,NA,NA,NA,""
"image-keyboard-response",71,116692,"0.0-4.19-2.19","7u8n4waabd7hl6n",754,"184.csv","","null","resources/images/coin2.png","null","",NA,NA,NA,NA,""
"image-keyboard-response",72,116704,"0.0-4.20-0.20","7u8n4waabd7hl6n",754,"184.csv","","9.700000047683716","resources/trios/L1T2A3.jpg","38","restless",0.5,0.8,0.4,0.859531394954861,"false"
"image-keyboard-response",73,117112,"0.0-4.20-1.20","7u8n4waabd7hl6n",754,"184.csv","","null","resources/maskTrios/BT2B.jpg","null","",NA,NA,NA,NA,""
"image-keyboard-response",74,118319,"0.0-4.20-2.20","7u8n4waabd7hl6n",754,"184.csv","","null","resources/images/fishbone.png","null","",NA,NA,NA,NA,""
"image-keyboard-response",75,118453,"0.0-4.21-0.21","7u8n4waabd7hl6n",754,"184.csv","","131.10000002384186","resources/trios/L1T2A3.jpg","39","restless",0.5,0.8,0.5,0.231571222946424,"true"
"image-keyboard-response",76,118861,"0.0-4.21-1.21","7u8n4waabd7hl6n",754,"184.csv","","null","resources/maskTrios/BBA3.jpg","null","",NA,NA,NA,NA,""
"image-keyboard-response",77,120077,"0.0-4.21-2.21","7u8n4waabd7hl6n",754,"184.csv","","null","resources/images/coin2.png","null","",NA,NA,NA,NA,""
"image-keyboard-response",78,120167,"0.0-4.22-0.22","7u8n4waabd7hl6n",754,"184.csv","","87.89999997615814","resources/trios/L1T2A3.jpg","39","restless",0.5,0.7,0.6,0.597460520126916,"true"
"image-keyboard-response",79,120581,"0.0-4.22-1.22","7u8n4waabd7hl6n",754,"184.csv","","null","resources/maskTrios/BBA3.jpg","null","",NA,NA,NA,NA,""
"image-keyboard-response",80,121795,"0.0-4.22-2.22","7u8n4waabd7hl6n",754,"184.csv","","null","resources/images/coin2.png","null","",NA,NA,NA,NA,""
"image-keyboard-response",81,121870,"0.0-4.23-0.23","7u8n4waabd7hl6n",754,"184.csv","","72","resources/trios/L1T2A3.jpg","39","restless",0.5,0.6,0.7,0.454508643640221,"true"
"image-keyboard-response",82,122277,"0.0-4.23-1.23","7u8n4waabd7hl6n",754,"184.csv","","null","resources/maskTrios/BBA3.jpg","null","",NA,NA,NA,NA,""
"image-keyboard-response",83,123480,"0.0-4.23-2.23","7u8n4waabd7hl6n",754,"184.csv","","null","resources/images/coin2.png","null","",NA,NA,NA,NA,""
"image-keyboard-response",84,123582,"0.0-4.24-0.24","7u8n4waabd7hl6n",754,"184.csv","","99","resources/trios/L1T2A3.jpg","39","restless",0.5,0.6,0.7,0.124976308133406,"true"
"image-keyboard-response",85,123996,"0.0-4.24-1.24","7u8n4waabd7hl6n",754,"184.csv","","null","resources/maskTrios/BBA3.jpg","null","",NA,NA,NA,NA,""
"image-keyboard-response",86,125199,"0.0-4.24-2.24","7u8n4waabd7hl6n",754,"184.csv","","null","resources/images/coin2.png","null","",NA,NA,NA,NA,""
"image-keyboard-response",87,125379,"0.0-4.25-0.25","7u8n4waabd7hl6n",754,"184.csv","","177.5","resources/trios/L1T2A3.jpg","39","restless",0.5,0.6,0.7,0.0532950778005996,"true"
"image-keyboard-response",88,125796,"0.0-4.25-1.25","7u8n4waabd7hl6n",754,"184.csv","","null","resources/maskTrios/BBA3.jpg","null","",NA,NA,NA,NA,""
"image-keyboard-response",89,127000,"0.0-4.25-2.25","7u8n4waabd7hl6n",754,"184.csv","","null","resources/images/coin2.png","null","",NA,NA,NA,NA,""
"image-keyboard-response",90,127114,"0.0-4.26-0.26","7u8n4waabd7hl6n",754,"184.csv","","111.29999995231628","resources/trios/L1T2A3.jpg","39","restless",0.5,0.6,0.7,0.702604652226827,"false"
"image-keyboard-response",91,127519,"0.0-4.26-1.26","7u8n4waabd7hl6n",754,"184.csv","","null","resources/maskTrios/BBA3.jpg","null","",NA,NA,NA,NA,""
"image-keyboard-response",92,128734,"0.0-4.26-2.26","7u8n4waabd7hl6n",754,"184.csv","","null","resources/images/fishbone.png","null","",NA,NA,NA,NA,""
"image-keyboard-response",93,129341,"0.0-4.27-0.27","7u8n4waabd7hl6n",754,"184.csv","","604","resources/trios/L1T2A3.jpg","38","restless",0.6,0.6,0.7,0.816958426222149,"false"
"image-keyboard-response",94,129756,"0.0-4.27-1.27","7u8n4waabd7hl6n",754,"184.csv","","null","resources/maskTrios/BT2B.jpg","null","",NA,NA,NA,NA,""
"image-keyboard-response",95,130966,"0.0-4.27-2.27","7u8n4waabd7hl6n",754,"184.csv","","null","resources/images/fishbone.png","null","",NA,NA,NA,NA,""
"image-keyboard-response",96,130973,"0.0-4.28-0.28","7u8n4waabd7hl6n",754,"184.csv","","4.900000095367432","resources/trios/L1T2A3.jpg","38","restless",0.5,0.6,0.7,0.869897337852153,"false"
"image-keyboard-response",97,131387,"0.0-4.28-1.28","7u8n4waabd7hl6n",754,"184.csv","","null","resources/maskTrios/BT2B.jpg","null","",NA,NA,NA,NA,""
"image-keyboard-response",98,132593,"0.0-4.28-2.28","7u8n4waabd7hl6n",754,"184.csv","","null","resources/images/fishbone.png","null","",NA,NA,NA,NA,""
"image-keyboard-response",99,132812,"0.0-4.29-0.29","7u8n4waabd7hl6n",754,"184.csv","","216.90000009536743","resources/trios/L1T2A3.jpg","38","restless",0.4,0.6,0.7,0.289397939371333,"true"
"image-keyboard-response",100,133220,"0.0-4.29-1.29","7u8n4waabd7hl6n",754,"184.csv","","null","resources/maskTrios/BT2B.jpg","null","",NA,NA,NA,NA,""
"image-keyboard-response",101,134423,"0.0-4.29-2.29","7u8n4waabd7hl6n",754,"184.csv","","null","resources/images/coin2.png","null","",NA,NA,NA,NA,""
"image-keyboard-response",102,134640,"0.0-4.30-0.30","7u8n4waabd7hl6n",754,"184.csv","","214","resources/trios/L1T2A3.jpg","38","restless",0.3,0.6,0.7,0.767943583625629,"false"
"image-keyboard-response",103,135045,"0.0-4.30-1.30","7u8n4waabd7hl6n",754,"184.csv","","null","resources/maskTrios/BT2B.jpg","null","",NA,NA,NA,NA,""
"image-keyboard-response",104,136253,"0.0-4.30-2.30","7u8n4waabd7hl6n",754,"184.csv","","null","resources/images/fishbone.png","null","",NA,NA,NA,NA,""
"image-keyboard-response",105,136485,"0.0-4.31-0.31","7u8n4waabd7hl6n",754,"184.csv","","229.20000004768372","resources/trios/L1T2A3.jpg","38","restless",0.3,0.6,0.7,0.761735797817564,"false"
"image-keyboard-response",106,136903,"0.0-4.31-1.31","7u8n4waabd7hl6n",754,"184.csv","","null","resources/maskTrios/BT2B.jpg","null","",NA,NA,NA,NA,""
"image-keyboard-response",107,138110,"0.0-4.31-2.31","7u8n4waabd7hl6n",754,"184.csv","","null","resources/images/fishbone.png","null","",NA,NA,NA,NA,""
"image-keyboard-response",108,138307,"0.0-4.32-0.32","7u8n4waabd7hl6n",754,"184.csv","","194.19999992847443","resources/trios/L1T2A3.jpg","38","restless",0.3,0.6,0.7,0.175848709283976,"true"
"image-keyboard-response",109,138719,"0.0-4.32-1.32","7u8n4waabd7hl6n",754,"184.csv","","null","resources/maskTrios/BT2B.jpg","null","",NA,NA,NA,NA,""
"image-keyboard-response",110,139922,"0.0-4.32-2.32","7u8n4waabd7hl6n",754,"184.csv","","null","resources/images/coin2.png","null","",NA,NA,NA,NA,""
"image-keyboard-response",111,141363,"0.0-4.33-0.33","7u8n4waabd7hl6n",754,"184.csv","","1438.3000000715256","resources/trios/L1T2A3.jpg","37","restless",0.4,0.6,0.7,0.349481094468758,"true"
"image-keyboard-response",112,141779,"0.0-4.33-1.33","7u8n4waabd7hl6n",754,"184.csv","","null","resources/maskTrios/L1BB.jpg","null","",NA,NA,NA,NA,""
"image-keyboard-response",113,142991,"0.0-4.33-2.33","7u8n4waabd7hl6n",754,"184.csv","","null","resources/images/coin2.png","null","",NA,NA,NA,NA,""
"image-keyboard-response",114,143075,"0.0-4.34-0.34","7u8n4waabd7hl6n",754,"184.csv","","80.79999995231628","resources/trios/L1T2A3.jpg","37","restless",0.4,0.6,0.7,0.0470483938905666,"true"
"image-keyboard-response",115,143480,"0.0-4.34-1.34","7u8n4waabd7hl6n",754,"184.csv","","null","resources/maskTrios/L1BB.jpg","null","",NA,NA,NA,NA,""
"image-keyboard-response",116,144683,"0.0-4.34-2.34","7u8n4waabd7hl6n",754,"184.csv","","null","resources/images/coin2.png","null","",NA,NA,NA,NA,""
"image-keyboard-response",117,145034,"0.0-4.35-0.35","7u8n4waabd7hl6n",754,"184.csv","","348.10000002384186","resources/trios/L1T2A3.jpg","37","restless",0.4,0.6,0.7,0.0159341174510315,"true"
"image-keyboard-response",118,145440,"0.0-4.35-1.35","7u8n4waabd7hl6n",754,"184.csv","","null","resources/maskTrios/L1BB.jpg","null","",NA,NA,NA,NA,""
"image-keyboard-response",119,146647,"0.0-4.35-2.35","7u8n4waabd7hl6n",754,"184.csv","","null","resources/images/coin2.png","null","",NA,NA,NA,NA,""
"image-keyboard-response",120,146893,"0.0-4.36-0.36","7u8n4waabd7hl6n",754,"184.csv","","243.80000007152557","resources/trios/L1T2A3.jpg","38","restless",0.4,0.6,0.8,0.450968831272079,"true"
"image-keyboard-response",121,147304,"0.0-4.36-1.36","7u8n4waabd7hl6n",754,"184.csv","","null","resources/maskTrios/BT2B.jpg","null","",NA,NA,NA,NA,""
"image-keyboard-response",122,148511,"0.0-4.36-2.36","7u8n4waabd7hl6n",754,"184.csv","","null","resources/images/coin2.png","null","",NA,NA,NA,NA,""
"image-keyboard-response",123,148845,"0.0-4.37-0.37","7u8n4waabd7hl6n",754,"184.csv","","331.1999999284744","resources/trios/L1T2A3.jpg","38","restless",0.4,0.5,0.8,0.554691928586833,"false"
"image-keyboard-response",124,149249,"0.0-4.37-1.37","7u8n4waabd7hl6n",754,"184.csv","","null","resources/maskTrios/BT2B.jpg","null","",NA,NA,NA,NA,""
"image-keyboard-response",125,150455,"0.0-4.37-2.37","7u8n4waabd7hl6n",754,"184.csv","","null","resources/images/fishbone.png","null","",NA,NA,NA,NA,""
"image-keyboard-response",126,150729,"0.0-4.38-0.38","7u8n4waabd7hl6n",754,"184.csv","","271.39999997615814","resources/trios/L1T2A3.jpg","37","restless",0.4,0.5,0.8,0.169949254531935,"true"
"image-keyboard-response",127,151143,"0.0-4.38-1.38","7u8n4waabd7hl6n",754,"184.csv","","null","resources/maskTrios/L1BB.jpg","null","",NA,NA,NA,NA,""
"image-keyboard-response",128,152356,"0.0-4.38-2.38","7u8n4waabd7hl6n",754,"184.csv","","null","resources/images/coin2.png","null","",NA,NA,NA,NA,""
"image-keyboard-response",129,152416,"0.0-4.39-0.39","7u8n4waabd7hl6n",754,"184.csv","","57.39999997615814","resources/trios/L1T2A3.jpg","39","restless",0.5,0.5,0.8,0.702497955129249,"true"
"image-keyboard-response",130,152825,"0.0-4.39-1.39","7u8n4waabd7hl6n",754,"184.csv","","null","resources/maskTrios/BBA3.jpg","null","",NA,NA,NA,NA,""
"image-keyboard-response",131,154034,"0.0-4.39-2.39","7u8n4waabd7hl6n",754,"184.csv","","null","resources/images/coin2.png","null","",NA,NA,NA,NA,""
"image-keyboard-response",132,154088,"0.0-4.40-0.40","7u8n4waabd7hl6n",754,"184.csv","","50.700000047683716","resources/trios/L1T2A3.jpg","37","restless",0.5,0.5,0.8,0.172245144676997,"true"
"image-keyboard-response",133,154503,"0.0-4.40-1.40","7u8n4waabd7hl6n",754,"184.csv","","null","resources/maskTrios/L1BB.jpg","null","",NA,NA,NA,NA,""
"image-keyboard-response",134,155706,"0.0-4.40-2.40","7u8n4waabd7hl6n",754,"184.csv","","null","resources/images/coin2.png","null","",NA,NA,NA,NA,""
"image-keyboard-response",135,155993,"0.0-4.41-0.41","7u8n4waabd7hl6n",754,"184.csv","","284.60000002384186","resources/trios/L1T2A3.jpg","37","restless",0.5,0.5,0.8,0.623667869553729,"false"
"image-keyboard-response",136,156397,"0.0-4.41-1.41","7u8n4waabd7hl6n",754,"184.csv","","null","resources/maskTrios/L1BB.jpg","null","",NA,NA,NA,NA,""
"image-keyboard-response",137,157599,"0.0-4.41-2.41","7u8n4waabd7hl6n",754,"184.csv","","null","resources/images/fishbone.png","null","",NA,NA,NA,NA,""
"image-keyboard-response",138,157999,"0.0-4.42-0.42","7u8n4waabd7hl6n",754,"184.csv","","397.40000009536743","resources/trios/L1T2A3.jpg","39","restless",0.5,0.5,0.8,0.451851336040022,"true"
"image-keyboard-response",139,158402,"0.0-4.42-1.42","7u8n4waabd7hl6n",754,"184.csv","","null","resources/maskTrios/BBA3.jpg","null","",NA,NA,NA,NA,""
"image-keyboard-response",140,159608,"0.0-4.42-2.42","7u8n4waabd7hl6n",754,"184.csv","","null","resources/images/coin2.png","null","",NA,NA,NA,NA,""
"image-keyboard-response",141,159654,"0.0-4.43-0.43","7u8n4waabd7hl6n",754,"184.csv","","42.700000047683716","resources/trios/L1T2A3.jpg","37","restless",0.5,0.5,0.8,0.195594787655158,"true"
"image-keyboard-response",142,160058,"0.0-4.43-1.43","7u8n4waabd7hl6n",754,"184.csv","","null","resources/maskTrios/L1BB.jpg","null","",NA,NA,NA,NA,""
"image-keyboard-response",143,161265,"0.0-4.43-2.43","7u8n4waabd7hl6n",754,"184.csv","","null","resources/images/coin2.png","null","",NA,NA,NA,NA,""
"image-keyboard-response",144,162166,"0.0-4.44-0.44","7u8n4waabd7hl6n",754,"184.csv","","899.1000000238419","resources/trios/L1T2A3.jpg","39","restless",0.5,0.5,0.8,0.356744274691121,"true"
"image-keyboard-response",145,162580,"0.0-4.44-1.44","7u8n4waabd7hl6n",754,"184.csv","","null","resources/maskTrios/BBA3.jpg","null","",NA,NA,NA,NA,""
"image-keyboard-response",146,163794,"0.0-4.44-2.44","7u8n4waabd7hl6n",754,"184.csv","","null","resources/images/coin2.png","null","",NA,NA,NA,NA,""
"image-keyboard-response",147,164156,"0.0-4.45-0.45","7u8n4waabd7hl6n",754,"184.csv","","359.2000000476837","resources/trios/L1T2A3.jpg","37","restless",0.5,0.5,0.8,0.0910705604553994,"true"
"image-keyboard-response",148,164562,"0.0-4.45-1.45","7u8n4waabd7hl6n",754,"184.csv","","null","resources/maskTrios/L1BB.jpg","null","",NA,NA,NA,NA,""
"image-keyboard-response",149,165765,"0.0-4.45-2.45","7u8n4waabd7hl6n",754,"184.csv","","null","resources/images/coin2.png","null","",NA,NA,NA,NA,""
"image-keyboard-response",150,165914,"0.0-4.46-0.46","7u8n4waabd7hl6n",754,"184.csv","","146.29999995231628","resources/trios/L1T2A3.jpg","37","restless",0.5,0.5,0.8,0.305861086325377,"true"
"image-keyboard-response",151,166331,"0.0-4.46-1.46","7u8n4waabd7hl6n",754,"184.csv","","null","resources/maskTrios/L1BB.jpg","null","",NA,NA,NA,NA,""
"image-keyboard-response",152,167548,"0.0-4.46-2.46","7u8n4waabd7hl6n",754,"184.csv","","null","resources/images/coin2.png","null","",NA,NA,NA,NA,""
"image-keyboard-response",153,167703,"0.0-4.47-0.47","7u8n4waabd7hl6n",754,"184.csv","","151.89999997615814","resources/trios/L1T2A3.jpg","37","restless",0.5,0.5,0.8,0.274616764014099,"true"
"image-keyboard-response",154,168106,"0.0-4.47-1.47","7u8n4waabd7hl6n",754,"184.csv","","null","resources/maskTrios/L1BB.jpg","null","",NA,NA,NA,NA,""
"image-keyboard-response",155,169309,"0.0-4.47-2.47","7u8n4waabd7hl6n",754,"184.csv","","null","resources/images/coin2.png","null","",NA,NA,NA,NA,""
"image-keyboard-response",156,169433,"0.0-4.48-0.48","7u8n4waabd7hl6n",754,"184.csv","","121.80000007152557","resources/trios/L1T2A3.jpg","39","restless",0.5,0.5,0.8,0.454231841150724,"true"
"image-keyboard-response",157,169844,"0.0-4.48-1.48","7u8n4waabd7hl6n",754,"184.csv","","null","resources/maskTrios/BBA3.jpg","null","",NA,NA,NA,NA,""
"image-keyboard-response",158,171044,"0.0-4.48-2.48","7u8n4waabd7hl6n",754,"184.csv","","null","resources/images/coin2.png","null","",NA,NA,NA,NA,""
"image-keyboard-response",159,171193,"0.0-4.49-0.49","7u8n4waabd7hl6n",754,"184.csv","","147.30000007152557","resources/trios/L1T2A3.jpg","39","restless",0.5,0.4,0.8,0.687867588206528,"true"
"image-keyboard-response",160,171598,"0.0-4.49-1.49","7u8n4waabd7hl6n",754,"184.csv","","null","resources/maskTrios/BBA3.jpg","null","",NA,NA,NA,NA,""
"image-keyboard-response",161,172803,"0.0-4.49-2.49","7u8n4waabd7hl6n",754,"184.csv","","null","resources/images/coin2.png","null","",NA,NA,NA,NA,""
"image-keyboard-response",162,173041,"0.0-4.50-0.50","7u8n4waabd7hl6n",754,"184.csv","","236","resources/trios/L1T2A3.jpg","37","restless",0.5,0.4,0.8,0.942634864423158,"false"
"image-keyboard-response",163,173449,"0.0-4.50-1.50","7u8n4waabd7hl6n",754,"184.csv","","null","resources/maskTrios/L1BB.jpg","null","",NA,NA,NA,NA,""
"image-keyboard-response",164,174653,"0.0-4.50-2.50","7u8n4waabd7hl6n",754,"184.csv","","null","resources/images/fishbone.png","null","",NA,NA,NA,NA,""
"image-keyboard-response",165,174699,"0.0-4.51-0.51","7u8n4waabd7hl6n",754,"184.csv","","43.39999997615814","resources/trios/L1T2A3.jpg","38","restless",0.5,0.4,0.8,0.915333351187799,"false"
"image-keyboard-response",166,175106,"0.0-4.51-1.51","7u8n4waabd7hl6n",754,"184.csv","","null","resources/maskTrios/BT2B.jpg","null","",NA,NA,NA,NA,""
"image-keyboard-response",167,176311,"0.0-4.51-2.51","7u8n4waabd7hl6n",754,"184.csv","","null","resources/images/fishbone.png","null","",NA,NA,NA,NA,""
"image-keyboard-response",168,176499,"0.0-4.52-0.52","7u8n4waabd7hl6n",754,"184.csv","","185.20000004768372","resources/trios/L1T2A3.jpg","37","restless",0.5,0.4,0.8,0.103002850115907,"true"
"image-keyboard-response",169,176905,"0.0-4.52-1.52","7u8n4waabd7hl6n",754,"184.csv","","null","resources/maskTrios/L1BB.jpg","null","",NA,NA,NA,NA,""
"image-keyboard-response",170,178112,"0.0-4.52-2.52","7u8n4waabd7hl6n",754,"184.csv","","null","resources/images/coin2.png","null","",NA,NA,NA,NA,""
"image-keyboard-response",171,178200,"0.0-4.53-0.53","7u8n4waabd7hl6n",754,"184.csv","","85.29999995231628","resources/trios/L1T2A3.jpg","38","restless",0.6,0.4,0.8,0.403490140523042,"false"
"image-keyboard-response",172,178606,"0.0-4.53-1.53","7u8n4waabd7hl6n",754,"184.csv","","null","resources/maskTrios/BT2B.jpg","null","",NA,NA,NA,NA,""
"image-keyboard-response",173,179813,"0.0-4.53-2.53","7u8n4waabd7hl6n",754,"184.csv","","null","resources/images/fishbone.png","null","",NA,NA,NA,NA,""
"image-keyboard-response",174,179827,"0.0-4.54-0.54","7u8n4waabd7hl6n",754,"184.csv","","11.600000023841858","resources/trios/L1T2A3.jpg","38","restless",0.6,0.4,0.8,0.730175449065729,"false"
"image-keyboard-response",175,180243,"0.0-4.54-1.54","7u8n4waabd7hl6n",754,"184.csv","","null","resources/maskTrios/BT2B.jpg","null","",NA,NA,NA,NA,""
"image-keyboard-response",176,181449,"0.0-4.54-2.54","7u8n4waabd7hl6n",754,"184.csv","","null","resources/images/fishbone.png","null","",NA,NA,NA,NA,""
"image-keyboard-response",177,181530,"0.0-4.55-0.55","7u8n4waabd7hl6n",754,"184.csv","","78","resources/trios/L1T2A3.jpg","38","restless",0.6,0.4,0.8,0.687378437776733,"false"
"image-keyboard-response",178,181937,"0.0-4.55-1.55","7u8n4waabd7hl6n",754,"184.csv","","null","resources/maskTrios/BT2B.jpg","null","",NA,NA,NA,NA,""
"image-keyboard-response",179,183141,"0.0-4.55-2.55","7u8n4waabd7hl6n",754,"184.csv","","null","resources/images/fishbone.png","null","",NA,NA,NA,NA,""
"image-keyboard-response",180,183529,"0.0-4.56-0.56","7u8n4waabd7hl6n",754,"184.csv","","385.5","resources/trios/L1T2A3.jpg","37","restless",0.6,0.4,0.8,0.187826505598557,"true"
"image-keyboard-response",181,183938,"0.0-4.56-1.56","7u8n4waabd7hl6n",754,"184.csv","","null","resources/maskTrios/L1BB.jpg","null","",NA,NA,NA,NA,""
"image-keyboard-response",182,185155,"0.0-4.56-2.56","7u8n4waabd7hl6n",754,"184.csv","","null","resources/images/coin2.png","null","",NA,NA,NA,NA,""
"image-keyboard-response",183,185293,"0.0-4.57-0.57","7u8n4waabd7hl6n",754,"184.csv","","135.60000002384186","resources/trios/L1T2A3.jpg","37","restless",0.6,0.4,0.9,0.518533396061856,"true"
"image-keyboard-response",184,185707,"0.0-4.57-1.57","7u8n4waabd7hl6n",754,"184.csv","","null","resources/maskTrios/L1BB.jpg","null","",NA,NA,NA,NA,""
"image-keyboard-response",185,186910,"0.0-4.57-2.57","7u8n4waabd7hl6n",754,"184.csv","","null","resources/images/coin2.png","null","",NA,NA,NA,NA,""
"image-keyboard-response",186,186934,"0.0-4.58-0.58","7u8n4waabd7hl6n",754,"184.csv","","21.5","resources/trios/L1T2A3.jpg","37","restless",0.6,0.5,0.9,0.571423446835946,"true"
"image-keyboard-response",187,187351,"0.0-4.58-1.58","7u8n4waabd7hl6n",754,"184.csv","","null","resources/maskTrios/L1BB.jpg","null","",NA,NA,NA,NA,""
"image-keyboard-response",188,188568,"0.0-4.58-2.58","7u8n4waabd7hl6n",754,"184.csv","","null","resources/images/coin2.png","null","",NA,NA,NA,NA,""
"image-keyboard-response",189,188687,"0.0-4.59-0.59","7u8n4waabd7hl6n",754,"184.csv","","116.30000007152557","resources/trios/L1T2A3.jpg","37","restless",0.6,0.6,0.9,0.676698259958599,"false"
"image-keyboard-response",190,189091,"0.0-4.59-1.59","7u8n4waabd7hl6n",754,"184.csv","","null","resources/maskTrios/L1BB.jpg","null","",NA,NA,NA,NA,""
"image-keyboard-response",191,190308,"0.0-4.59-2.59","7u8n4waabd7hl6n",754,"184.csv","","null","resources/images/fishbone.png","null","",NA,NA,NA,NA,""
"image-keyboard-response",192,190588,"0.0-4.60-0.60","7u8n4waabd7hl6n",754,"184.csv","","277.3000000715256","resources/trios/L1T2A3.jpg","39","restless",0.6,0.6,0.9,0.832930232087477,"true"
"image-keyboard-response",193,191006,"0.0-4.60-1.60","7u8n4waabd7hl6n",754,"184.csv","","null","resources/maskTrios/BBA3.jpg","null","",NA,NA,NA,NA,""
"image-keyboard-response",194,192218,"0.0-4.60-2.60","7u8n4waabd7hl6n",754,"184.csv","","null","resources/images/coin2.png","null","",NA,NA,NA,NA,""
"image-keyboard-response",195,192546,"0.0-4.61-0.61","7u8n4waabd7hl6n",754,"184.csv","","324.5","resources/trios/L1T2A3.jpg","39","restless",0.6,0.6,0.9,0.0793237578208916,"true"
"image-keyboard-response",196,192949,"0.0-4.61-1.61","7u8n4waabd7hl6n",754,"184.csv","","null","resources/maskTrios/BBA3.jpg","null","",NA,NA,NA,NA,""
"image-keyboard-response",197,194153,"0.0-4.61-2.61","7u8n4waabd7hl6n",754,"184.csv","","null","resources/images/coin2.png","null","",NA,NA,NA,NA,""
"image-keyboard-response",198,194522,"0.0-4.62-0.62","7u8n4waabd7hl6n",754,"184.csv","","366.10000002384186","resources/trios/L1T2A3.jpg","39","restless",0.6,0.5,0.8,0.347788876347195,"true"
"image-keyboard-response",199,194929,"0.0-4.62-1.62","7u8n4waabd7hl6n",754,"184.csv","","null","resources/maskTrios/BBA3.jpg","null","",NA,NA,NA,NA,""
"image-keyboard-response",200,196136,"0.0-4.62-2.62","7u8n4waabd7hl6n",754,"184.csv","","null","resources/images/coin2.png","null","",NA,NA,NA,NA,""
"image-keyboard-response",201,196425,"0.0-4.63-0.63","7u8n4waabd7hl6n",754,"184.csv","","287.10000002384186","resources/trios/L1T2A3.jpg","39","restless",0.6,0.5,0.9,0.784072392277906,"true"
"image-keyboard-response",202,196841,"0.0-4.63-1.63","7u8n4waabd7hl6n",754,"184.csv","","null","resources/maskTrios/BBA3.jpg","null","",NA,NA,NA,NA,""
"image-keyboard-response",203,198045,"0.0-4.63-2.63","7u8n4waabd7hl6n",754,"184.csv","","null","resources/images/coin2.png","null","",NA,NA,NA,NA,""
"image-keyboard-response",204,198082,"0.0-4.64-0.64","7u8n4waabd7hl6n",754,"184.csv","","34.5","resources/trios/L1T2A3.jpg","39","restless",0.6,0.5,0.9,0.554623424443432,"true"
"image-keyboard-response",205,198498,"0.0-4.64-1.64","7u8n4waabd7hl6n",754,"184.csv","","null","resources/maskTrios/BBA3.jpg","null","",NA,NA,NA,NA,""
"image-keyboard-response",206,199701,"0.0-4.64-2.64","7u8n4waabd7hl6n",754,"184.csv","","null","resources/images/coin2.png","null","",NA,NA,NA,NA,""
"image-keyboard-response",207,200005,"0.0-4.65-0.65","7u8n4waabd7hl6n",754,"184.csv","","301.39999997615814","resources/trios/L1T2A3.jpg","39","restless",0.6,0.5,0.9,0.0183425945178624,"true"
"image-keyboard-response",208,200423,"0.0-4.65-1.65","7u8n4waabd7hl6n",754,"184.csv","","null","resources/maskTrios/BBA3.jpg","null","",NA,NA,NA,NA,""
"image-keyboard-response",209,201638,"0.0-4.65-2.65","7u8n4waabd7hl6n",754,"184.csv","","null","resources/images/coin2.png","null","",NA,NA,NA,NA,""
"image-keyboard-response",210,201925,"0.0-4.66-0.66","7u8n4waabd7hl6n",754,"184.csv","","284.10000002384186","resources/trios/L1T2A3.jpg","39","restless",0.6,0.5,0.9,0.272454605821437,"true"
"image-keyboard-response",211,202338,"0.0-4.66-1.66","7u8n4waabd7hl6n",754,"184.csv","","null","resources/maskTrios/BBA3.jpg","null","",NA,NA,NA,NA,""
"image-keyboard-response",212,203550,"0.0-4.66-2.66","7u8n4waabd7hl6n",754,"184.csv","","null","resources/images/coin2.png","null","",NA,NA,NA,NA,""
"image-keyboard-response",213,203660,"0.0-4.67-0.67","7u8n4waabd7hl6n",754,"184.csv","","107.20000004768372","resources/trios/L1T2A3.jpg","39","restless",0.6,0.6,0.9,0.395574059144401,"true"
"image-keyboard-response",214,204063,"0.0-4.67-1.67","7u8n4waabd7hl6n",754,"184.csv","","null","resources/maskTrios/BBA3.jpg","null","",NA,NA,NA,NA,""
"image-keyboard-response",215,205278,"0.0-4.67-2.67","7u8n4waabd7hl6n",754,"184.csv","","null","resources/images/coin2.png","null","",NA,NA,NA,NA,""
"image-keyboard-response",216,205927,"0.0-4.68-0.68","7u8n4waabd7hl6n",754,"184.csv","","646.2000000476837","resources/trios/L1T2A3.jpg","39","restless",0.6,0.6,0.9,0.687870652125808,"true"
"image-keyboard-response",217,206341,"0.0-4.68-1.68","7u8n4waabd7hl6n",754,"184.csv","","null","resources/maskTrios/BBA3.jpg","null","",NA,NA,NA,NA,""
"image-keyboard-response",218,207560,"0.0-4.68-2.68","7u8n4waabd7hl6n",754,"184.csv","","null","resources/images/coin2.png","null","",NA,NA,NA,NA,""
"image-keyboard-response",219,207979,"0.0-4.69-0.69","7u8n4waabd7hl6n",754,"184.csv","","417","resources/trios/L1T2A3.jpg","39","restless",0.6,0.6,0.8,0.22283360748926,"true"
"image-keyboard-response",220,208387,"0.0-4.69-1.69","7u8n4waabd7hl6n",754,"184.csv","","null","resources/maskTrios/BBA3.jpg","null","",NA,NA,NA,NA,""
"image-keyboard-response",221,209591,"0.0-4.69-2.69","7u8n4waabd7hl6n",754,"184.csv","","null","resources/images/coin2.png","null","",NA,NA,NA,NA,""
"image-keyboard-response",222,209910,"0.0-4.70-0.70","7u8n4waabd7hl6n",754,"184.csv","","316.2999999523163","resources/trios/L1T2A3.jpg","39","restless",0.6,0.6,0.8,0.991642472760571,"false"
"image-keyboard-response",223,210324,"0.0-4.70-1.70","7u8n4waabd7hl6n",754,"184.csv","","null","resources/maskTrios/BBA3.jpg","null","",NA,NA,NA,NA,""
"image-keyboard-response",224,211527,"0.0-4.70-2.70","7u8n4waabd7hl6n",754,"184.csv","","null","resources/images/fishbone.png","null","",NA,NA,NA,NA,""
"image-keyboard-response",225,211863,"0.0-4.71-0.71","7u8n4waabd7hl6n",754,"184.csv","","333.2999999523163","resources/trios/L1T2A3.jpg","37","restless",0.7,0.6,0.8,0.874712149471769,"false"
"image-keyboard-response",226,212275,"0.0-4.71-1.71","7u8n4waabd7hl6n",754,"184.csv","","null","resources/maskTrios/L1BB.jpg","null","",NA,NA,NA,NA,""
"image-keyboard-response",227,213478,"0.0-4.71-2.71","7u8n4waabd7hl6n",754,"184.csv","","null","resources/images/fishbone.png","null","",NA,NA,NA,NA,""
"image-keyboard-response",228,213767,"0.0-4.72-0.72","7u8n4waabd7hl6n",754,"184.csv","","286.2999999523163","resources/trios/L1T2A3.jpg","38","restless",0.7,0.6,0.8,0.495601866607245,"true"
"image-keyboard-response",229,214174,"0.0-4.72-1.72","7u8n4waabd7hl6n",754,"184.csv","","null","resources/maskTrios/BT2B.jpg","null","",NA,NA,NA,NA,""
"image-keyboard-response",230,215381,"0.0-4.72-2.72","7u8n4waabd7hl6n",754,"184.csv","","null","resources/images/coin2.png","null","",NA,NA,NA,NA,""
"image-keyboard-response",231,215642,"0.0-4.73-0.73","7u8n4waabd7hl6n",754,"184.csv","","258.60000002384186","resources/trios/L1T2A3.jpg","38","restless",0.7,0.6,0.7,0.888771377232324,"false"
"image-keyboard-response",232,216056,"0.0-4.73-1.73","7u8n4waabd7hl6n",754,"184.csv","","null","resources/maskTrios/BT2B.jpg","null","",NA,NA,NA,NA,""
"image-keyboard-response",233,217263,"0.0-4.73-2.73","7u8n4waabd7hl6n",754,"184.csv","","null","resources/images/fishbone.png","null","",NA,NA,NA,NA,""
"image-keyboard-response",234,217523,"0.0-4.74-0.74","7u8n4waabd7hl6n",754,"184.csv","","257.39999997615814","resources/trios/L1T2A3.jpg","39","restless",0.7,0.6,0.7,0.0505554479628765,"true"
"image-keyboard-response",235,217934,"0.0-4.74-1.74","7u8n4waabd7hl6n",754,"184.csv","","null","resources/maskTrios/BBA3.jpg","null","",NA,NA,NA,NA,""
"image-keyboard-response",236,219140,"0.0-4.74-2.74","7u8n4waabd7hl6n",754,"184.csv","","null","resources/images/coin2.png","null","",NA,NA,NA,NA,""
"image-keyboard-response",237,219439,"0.0-4.75-0.75","7u8n4waabd7hl6n",754,"184.csv","","296.5","resources/trios/L1T2A3.jpg","39","restless",0.7,0.6,0.7,0.100822665574881,"true"
"image-keyboard-response",238,219843,"0.0-4.75-1.75","7u8n4waabd7hl6n",754,"184.csv","","null","resources/maskTrios/BBA3.jpg","null","",NA,NA,NA,NA,""
"image-keyboard-response",239,221046,"0.0-4.75-2.75","7u8n4waabd7hl6n",754,"184.csv","","null","resources/images/coin2.png","null","",NA,NA,NA,NA,""
"image-keyboard-response",240,221526,"0.0-4.76-0.76","7u8n4waabd7hl6n",754,"184.csv","","477.2999999523163","resources/trios/L1T2A3.jpg","39","restless",0.7,0.6,0.6,0.198662358319566,"true"
"image-keyboard-response",241,221935,"0.0-4.76-1.76","7u8n4waabd7hl6n",754,"184.csv","","null","resources/maskTrios/BBA3.jpg","null","",NA,NA,NA,NA,""
"image-keyboard-response",242,223138,"0.0-4.76-2.76","7u8n4waabd7hl6n",754,"184.csv","","null","resources/images/coin2.png","null","",NA,NA,NA,NA,""
"image-keyboard-response",243,223795,"0.0-4.77-0.77","7u8n4waabd7hl6n",754,"184.csv","","654.8999999761581","resources/trios/L1T2A3.jpg","39","restless",0.7,0.6,0.6,0.48331365994471,"true"
"image-keyboard-response",244,224204,"0.0-4.77-1.77","7u8n4waabd7hl6n",754,"184.csv","","null","resources/maskTrios/BBA3.jpg","null","",NA,NA,NA,NA,""
"image-keyboard-response",245,225420,"0.0-4.77-2.77","7u8n4waabd7hl6n",754,"184.csv","","null","resources/images/coin2.png","null","",NA,NA,NA,NA,""
"image-keyboard-response",246,227769,"0.0-4.78-0.78","7u8n4waabd7hl6n",754,"184.csv","","2347.100000023842","resources/trios/L1T2A3.jpg","39","restless",0.7,0.6,0.6,0.206069214813497,"true"
"image-keyboard-response",247,228176,"0.0-4.78-1.78","7u8n4waabd7hl6n",754,"184.csv","","null","resources/maskTrios/BBA3.jpg","null","",NA,NA,NA,NA,""
"image-keyboard-response",248,229391,"0.0-4.78-2.78","7u8n4waabd7hl6n",754,"184.csv","","null","resources/images/coin2.png","null","",NA,NA,NA,NA,""
"image-keyboard-response",249,231562,"0.0-4.79-0.79","7u8n4waabd7hl6n",754,"184.csv","","2165.5","resources/trios/L1T2A3.jpg","39","restless",0.7,0.6,0.6,0.669109344183495,"false"
"image-keyboard-response",250,231979,"0.0-4.79-1.79","7u8n4waabd7hl6n",754,"184.csv","","null","resources/maskTrios/BBA3.jpg","null","",NA,NA,NA,NA,""
"image-keyboard-response",251,233186,"0.0-4.79-2.79","7u8n4waabd7hl6n",754,"184.csv","","null","resources/images/fishbone.png","null","",NA,NA,NA,NA,""
"image-keyboard-response",252,233192,"0.0-4.80-0.80","7u8n4waabd7hl6n",754,"184.csv","","3.100000023841858","resources/trios/L1T2A3.jpg","37","restless",0.7,0.6,0.6,0.40939875707876,"true"
"image-keyboard-response",253,233597,"0.0-4.80-1.80","7u8n4waabd7hl6n",754,"184.csv","","null","resources/maskTrios/L1BB.jpg","null","",NA,NA,NA,NA,""
"image-keyboard-response",254,234800,"0.0-4.80-2.80","7u8n4waabd7hl6n",754,"184.csv","","null","resources/images/coin2.png","null","",NA,NA,NA,NA,""
"image-keyboard-response",255,238820,"0.0-4.81-0.81","7u8n4waabd7hl6n",754,"184.csv","","4017.2999999523163","resources/trios/L1T2A3.jpg","38","restless",0.7,0.6,0.6,0.984333852624742,"false"
"image-keyboard-response",256,239232,"0.0-4.81-1.81","7u8n4waabd7hl6n",754,"184.csv","","null","resources/maskTrios/BT2B.jpg","null","",NA,NA,NA,NA,""
"image-keyboard-response",257,240441,"0.0-4.81-2.81","7u8n4waabd7hl6n",754,"184.csv","","null","resources/images/fishbone.png","null","",NA,NA,NA,NA,""
"image-keyboard-response",258,240757,"0.0-4.82-0.82","7u8n4waabd7hl6n",754,"184.csv","","313.59999990463257","resources/trios/L1T2A3.jpg","39","restless",0.7,0.5,0.6,0.315450310168732,"true"
"image-keyboard-response",259,241172,"0.0-4.82-1.82","7u8n4waabd7hl6n",754,"184.csv","","null","resources/maskTrios/BBA3.jpg","null","",NA,NA,NA,NA,""
"image-keyboard-response",260,242378,"0.0-4.82-2.82","7u8n4waabd7hl6n",754,"184.csv","","null","resources/images/coin2.png","null","",NA,NA,NA,NA,""
"image-keyboard-response",261,243853,"0.0-4.83-0.83","7u8n4waabd7hl6n",754,"184.csv","","1472.2000000476837","resources/trios/L1T2A3.jpg","39","restless",0.7,0.5,0.6,0.231338089726726,"true"
"image-keyboard-response",262,244267,"0.0-4.83-1.83","7u8n4waabd7hl6n",754,"184.csv","","null","resources/maskTrios/BBA3.jpg","null","",NA,NA,NA,NA,""
"image-keyboard-response",263,245471,"0.0-4.83-2.83","7u8n4waabd7hl6n",754,"184.csv","","null","resources/images/coin2.png","null","",NA,NA,NA,NA,""
"image-keyboard-response",264,245790,"0.0-4.84-0.84","7u8n4waabd7hl6n",754,"184.csv","","317.1999999284744","resources/trios/L1T2A3.jpg","39","restless",0.7,0.5,0.6,0.469059865125359,"true"
"image-keyboard-response",265,246206,"0.0-4.84-1.84","7u8n4waabd7hl6n",754,"184.csv","","null","resources/maskTrios/BBA3.jpg","null","",NA,NA,NA,NA,""
"image-keyboard-response",266,247409,"0.0-4.84-2.84","7u8n4waabd7hl6n",754,"184.csv","","null","resources/images/coin2.png","null","",NA,NA,NA,NA,""
"image-keyboard-response",267,248821,"0.0-4.85-0.85","7u8n4waabd7hl6n",754,"184.csv","","1410.1999999284744","resources/trios/L1T2A3.jpg","39","restless",0.7,0.5,0.6,0.00895862752527843,"true"
"image-keyboard-response",268,249224,"0.0-4.85-1.85","7u8n4waabd7hl6n",754,"184.csv","","null","resources/maskTrios/BBA3.jpg","null","",NA,NA,NA,NA,""
"image-keyboard-response",269,250427,"0.0-4.85-2.85","7u8n4waabd7hl6n",754,"184.csv","","null","resources/images/coin2.png","null","",NA,NA,NA,NA,""
"image-keyboard-response",270,250872,"0.0-4.86-0.86","7u8n4waabd7hl6n",754,"184.csv","","442","resources/trios/L1T2A3.jpg","39","restless",0.7,0.5,0.6,0.212291614385513,"true"
"image-keyboard-response",271,251275,"0.0-4.86-1.86","7u8n4waabd7hl6n",754,"184.csv","","null","resources/maskTrios/BBA3.jpg","null","",NA,NA,NA,NA,""
"image-keyboard-response",272,252478,"0.0-4.86-2.86","7u8n4waabd7hl6n",754,"184.csv","","null","resources/images/coin2.png","null","",NA,NA,NA,NA,""
"image-keyboard-response",273,253053,"0.0-4.87-0.87","7u8n4waabd7hl6n",754,"184.csv","","572.8000000715256","resources/trios/L1T2A3.jpg","39","restless",0.7,0.5,0.6,0.455669389105708,"true"
"image-keyboard-response",274,253469,"0.0-4.87-1.87","7u8n4waabd7hl6n",754,"184.csv","","null","resources/maskTrios/BBA3.jpg","null","",NA,NA,NA,NA,""
"image-keyboard-response",275,254672,"0.0-4.87-2.87","7u8n4waabd7hl6n",754,"184.csv","","null","resources/images/coin2.png","null","",NA,NA,NA,NA,""
"image-keyboard-response",276,254997,"0.0-4.88-0.88","7u8n4waabd7hl6n",754,"184.csv","","322.39999997615814","resources/trios/L1T2A3.jpg","39","restless",0.7,0.5,0.6,0.437820003414767,"true"
"image-keyboard-response",277,255410,"0.0-4.88-1.88","7u8n4waabd7hl6n",754,"184.csv","","null","resources/maskTrios/BBA3.jpg","null","",NA,NA,NA,NA,""
"image-keyboard-response",278,256614,"0.0-4.88-2.88","7u8n4waabd7hl6n",754,"184.csv","","null","resources/images/coin2.png","null","",NA,NA,NA,NA,""
"image-keyboard-response",279,256903,"0.0-4.89-0.89","7u8n4waabd7hl6n",754,"184.csv","","287","resources/trios/L1T2A3.jpg","39","restless",0.7,0.5,0.6,0.429517124463293,"true"
"image-keyboard-response",280,257308,"0.0-4.89-1.89","7u8n4waabd7hl6n",754,"184.csv","","null","resources/maskTrios/BBA3.jpg","null","",NA,NA,NA,NA,""
"image-keyboard-response",281,258510,"0.0-4.89-2.89","7u8n4waabd7hl6n",754,"184.csv","","null","resources/images/coin2.png","null","",NA,NA,NA,NA,""
"image-keyboard-response",282,258970,"0.0-4.90-0.90","7u8n4waabd7hl6n",754,"184.csv","","454.89999997615814","resources/trios/L1T2A3.jpg","39","restless",0.7,0.6,0.6,0.00894211570761594,"true"
"image-keyboard-response",283,259382,"0.0-4.90-1.90","7u8n4waabd7hl6n",754,"184.csv","","null","resources/maskTrios/BBA3.jpg","null","",NA,NA,NA,NA,""
"image-keyboard-response",284,260596,"0.0-4.90-2.90","7u8n4waabd7hl6n",754,"184.csv","","null","resources/images/coin2.png","null","",NA,NA,NA,NA,""
"image-keyboard-response",285,260769,"0.0-4.91-0.91","7u8n4waabd7hl6n",754,"184.csv","","170.59999990463257","resources/trios/L1T2A3.jpg","39","restless",0.7,0.6,0.6,0.045451808268556,"true"
"image-keyboard-response",286,261174,"0.0-4.91-1.91","7u8n4waabd7hl6n",754,"184.csv","","null","resources/maskTrios/BBA3.jpg","null","",NA,NA,NA,NA,""
"image-keyboard-response",287,262391,"0.0-4.91-2.91","7u8n4waabd7hl6n",754,"184.csv","","null","resources/images/coin2.png","null","",NA,NA,NA,NA,""
"image-keyboard-response",288,262627,"0.0-4.92-0.92","7u8n4waabd7hl6n",754,"184.csv","","233.5","resources/trios/L1T2A3.jpg","39","restless",0.7,0.6,0.6,0.164030519347574,"true"
"image-keyboard-response",289,263035,"0.0-4.92-1.92","7u8n4waabd7hl6n",754,"184.csv","","null","resources/maskTrios/BBA3.jpg","null","",NA,NA,NA,NA,""
"image-keyboard-response",290,264250,"0.0-4.92-2.92","7u8n4waabd7hl6n",754,"184.csv","","null","resources/images/coin2.png","null","",NA,NA,NA,NA,""
"image-keyboard-response",291,264347,"0.0-4.93-0.93","7u8n4waabd7hl6n",754,"184.csv","","95.19999992847443","resources/trios/L1T2A3.jpg","39","restless",0.7,0.6,0.7,0.254491911819925,"true"
"image-keyboard-response",292,264765,"0.0-4.93-1.93","7u8n4waabd7hl6n",754,"184.csv","","null","resources/maskTrios/BBA3.jpg","null","",NA,NA,NA,NA,""
"image-keyboard-response",293,265981,"0.0-4.93-2.93","7u8n4waabd7hl6n",754,"184.csv","","null","resources/images/coin2.png","null","",NA,NA,NA,NA,""
"image-keyboard-response",294,266100,"0.0-4.94-0.94","7u8n4waabd7hl6n",754,"184.csv","","116.39999997615814","resources/trios/L1T2A3.jpg","39","restless",0.7,0.6,0.6,0.452123767012734,"true"
"image-keyboard-response",295,266512,"0.0-4.94-1.94","7u8n4waabd7hl6n",754,"184.csv","","null","resources/maskTrios/BBA3.jpg","null","",NA,NA,NA,NA,""
"image-keyboard-response",296,267715,"0.0-4.94-2.94","7u8n4waabd7hl6n",754,"184.csv","","null","resources/images/coin2.png","null","",NA,NA,NA,NA,""
"image-keyboard-response",297,267837,"0.0-4.95-0.95","7u8n4waabd7hl6n",754,"184.csv","","119.70000004768372","resources/trios/L1T2A3.jpg","39","restless",0.7,0.6,0.6,0.683590057772406,"false"
"image-keyboard-response",298,268246,"0.0-4.95-1.95","7u8n4waabd7hl6n",754,"184.csv","","null","resources/maskTrios/BBA3.jpg","null","",NA,NA,NA,NA,""
"image-keyboard-response",299,269449,"0.0-4.95-2.95","7u8n4waabd7hl6n",754,"184.csv","","null","resources/images/fishbone.png","null","",NA,NA,NA,NA,""
"image-keyboard-response",300,269491,"0.0-4.96-0.96","7u8n4waabd7hl6n",754,"184.csv","","39.5","resources/trios/L1T2A3.jpg","39","restless",0.7,0.6,0.6,0.944344398115831,"false"
"image-keyboard-response",301,269902,"0.0-4.96-1.96","7u8n4waabd7hl6n",754,"184.csv","","null","resources/maskTrios/BBA3.jpg","null","",NA,NA,NA,NA,""
"image-keyboard-response",302,271110,"0.0-4.96-2.96","7u8n4waabd7hl6n",754,"184.csv","","null","resources/images/fishbone.png","null","",NA,NA,NA,NA,""
"image-keyboard-response",303,271458,"0.0-4.97-0.97","7u8n4waabd7hl6n",754,"184.csv","","345.90000009536743","resources/trios/L1T2A3.jpg","39","restless",0.7,0.6,0.6,0.553994218682374,"true"
"image-keyboard-response",304,271871,"0.0-4.97-1.97","7u8n4waabd7hl6n",754,"184.csv","","null","resources/maskTrios/BBA3.jpg","null","",NA,NA,NA,NA,""
"image-keyboard-response",305,273073,"0.0-4.97-2.97","7u8n4waabd7hl6n",754,"184.csv","","null","resources/images/coin2.png","null","",NA,NA,NA,NA,""
"image-keyboard-response",306,273312,"0.0-4.98-0.98","7u8n4waabd7hl6n",754,"184.csv","","236.10000002384186","resources/trios/L1T2A3.jpg","39","restless",0.7,0.6,0.6,0.208326888297557,"true"
"image-keyboard-response",307,273715,"0.0-4.98-1.98","7u8n4waabd7hl6n",754,"184.csv","","null","resources/maskTrios/BBA3.jpg","null","",NA,NA,NA,NA,""
"image-keyboard-response",308,274918,"0.0-4.98-2.98","7u8n4waabd7hl6n",754,"184.csv","","null","resources/images/coin2.png","null","",NA,NA,NA,NA,""
"image-keyboard-response",309,274972,"0.0-4.99-0.99","7u8n4waabd7hl6n",754,"184.csv","","51.10000002384186","resources/trios/L1T2A3.jpg","39","restless",0.7,0.6,0.6,0.310964047746694,"true"
"image-keyboard-response",310,275377,"0.0-4.99-1.99","7u8n4waabd7hl6n",754,"184.csv","","null","resources/maskTrios/BBA3.jpg","null","",NA,NA,NA,NA,""
"image-keyboard-response",311,276591,"0.0-4.99-2.99","7u8n4waabd7hl6n",754,"184.csv","","null","resources/images/coin2.png","null","",NA,NA,NA,NA,""
"image-keyboard-response",312,276855,"0.0-4.100-0.100","7u8n4waabd7hl6n",754,"184.csv","","261.2999999523163","resources/trios/L1T2A3.jpg","39","restless",0.7,0.7,0.6,0.00928135817298092,"true"
"image-keyboard-response",313,277258,"0.0-4.100-1.100","7u8n4waabd7hl6n",754,"184.csv","","null","resources/maskTrios/BBA3.jpg","null","",NA,NA,NA,NA,""
"image-keyboard-response",314,278462,"0.0-4.100-2.100","7u8n4waabd7hl6n",754,"184.csv","","null","resources/images/coin2.png","null","",NA,NA,NA,NA,""
"image-keyboard-response",315,279237,"0.0-4.101-0.101","7u8n4waabd7hl6n",754,"184.csv","","772.2000000476837","resources/trios/L1T2A3.jpg","39","restless",0.7,0.7,0.6,0.585856175211542,"true"
"image-keyboard-response",316,279646,"0.0-4.101-1.101","7u8n4waabd7hl6n",754,"184.csv","","null","resources/maskTrios/BBA3.jpg","null","",NA,NA,NA,NA,""
"image-keyboard-response",317,280849,"0.0-4.101-2.101","7u8n4waabd7hl6n",754,"184.csv","","null","resources/images/coin2.png","null","",NA,NA,NA,NA,""
"image-keyboard-response",318,281246,"0.0-4.102-0.102","7u8n4waabd7hl6n",754,"184.csv","","394.5","resources/trios/L1T2A3.jpg","39","restless",0.7,0.7,0.6,0.85656822806728,"false"
"image-keyboard-response",319,281658,"0.0-4.102-1.102","7u8n4waabd7hl6n",754,"184.csv","","null","resources/maskTrios/BBA3.jpg","null","",NA,NA,NA,NA,""
"image-keyboard-response",320,282863,"0.0-4.102-2.102","7u8n4waabd7hl6n",754,"184.csv","","null","resources/images/fishbone.png","null","",NA,NA,NA,NA,""
"image-keyboard-response",321,283347,"0.0-4.103-0.103","7u8n4waabd7hl6n",754,"184.csv","","481.2999999523163","resources/trios/L1T2A3.jpg","39","restless",0.7,0.8,0.5,0.392514256657944,"true"
"image-keyboard-response",322,283757,"0.0-4.103-1.103","7u8n4waabd7hl6n",754,"184.csv","","null","resources/maskTrios/BBA3.jpg","null","",NA,NA,NA,NA,""
"image-keyboard-response",323,284960,"0.0-4.103-2.103","7u8n4waabd7hl6n",754,"184.csv","","null","resources/images/coin2.png","null","",NA,NA,NA,NA,""
"image-keyboard-response",324,285376,"0.0-4.104-0.104","7u8n4waabd7hl6n",754,"184.csv","","413.7999999523163","resources/trios/L1T2A3.jpg","39","restless",0.7,0.8,0.5,0.781628728685761,"false"
"image-keyboard-response",325,285786,"0.0-4.104-1.104","7u8n4waabd7hl6n",754,"184.csv","","null","resources/maskTrios/BBA3.jpg","null","",NA,NA,NA,NA,""
"image-keyboard-response",326,286988,"0.0-4.104-2.104","7u8n4waabd7hl6n",754,"184.csv","","null","resources/images/fishbone.png","null","",NA,NA,NA,NA,""
"image-keyboard-response",327,287671,"0.0-4.105-0.105","7u8n4waabd7hl6n",754,"184.csv","","680.2999999523163","resources/trios/L1T2A3.jpg","39","restless",0.7,0.8,0.5,0.518021488900532,"false"
"image-keyboard-response",328,288086,"0.0-4.105-1.105","7u8n4waabd7hl6n",754,"184.csv","","null","resources/maskTrios/BBA3.jpg","null","",NA,NA,NA,NA,""
"image-keyboard-response",329,289293,"0.0-4.105-2.105","7u8n4waabd7hl6n",754,"184.csv","","null","resources/images/fishbone.png","null","",NA,NA,NA,NA,""
"image-keyboard-response",330,289854,"0.0-4.106-0.106","7u8n4waabd7hl6n",754,"184.csv","","558.3000000715256","resources/trios/L1T2A3.jpg","39","restless",0.7,0.8,0.5,0.144542199505443,"true"
"image-keyboard-response",331,290266,"0.0-4.106-1.106","7u8n4waabd7hl6n",754,"184.csv","","null","resources/maskTrios/BBA3.jpg","null","",NA,NA,NA,NA,""
"image-keyboard-response",332,291484,"0.0-4.106-2.106","7u8n4waabd7hl6n",754,"184.csv","","null","resources/images/coin2.png","null","",NA,NA,NA,NA,""
"image-keyboard-response",333,292202,"0.0-4.107-0.107","7u8n4waabd7hl6n",754,"184.csv","","724","resources/trios/L1T2A3.jpg","39","restless",0.7,0.8,0.5,0.461100480887522,"true"
"image-keyboard-response",334,292606,"0.0-4.107-1.107","7u8n4waabd7hl6n",754,"184.csv","","null","resources/maskTrios/BBA3.jpg","null","",NA,NA,NA,NA,""
"image-keyboard-response",335,293809,"0.0-4.107-2.107","7u8n4waabd7hl6n",754,"184.csv","","null","resources/images/coin2.png","null","",NA,NA,NA,NA,""
"image-keyboard-response",336,297168,"0.0-4.108-0.108","7u8n4waabd7hl6n",754,"184.csv","","3357","resources/trios/L1T2A3.jpg","39","restless",0.7,0.7,0.5,0.398816854436588,"true"
"image-keyboard-response",337,297586,"0.0-4.108-1.108","7u8n4waabd7hl6n",754,"184.csv","","null","resources/maskTrios/BBA3.jpg","null","",NA,NA,NA,NA,""
"image-keyboard-response",338,298801,"0.0-4.108-2.108","7u8n4waabd7hl6n",754,"184.csv","","null","resources/images/coin2.png","null","",NA,NA,NA,NA,""
"image-keyboard-response",339,299329,"0.0-4.109-0.109","7u8n4waabd7hl6n",754,"184.csv","","525.6999999284744","resources/trios/L1T2A3.jpg","39","restless",0.7,0.7,0.5,0.367673054023656,"true"
"image-keyboard-response",340,299739,"0.0-4.109-1.109","7u8n4waabd7hl6n",754,"184.csv","","null","resources/maskTrios/BBA3.jpg","null","",NA,NA,NA,NA,""
"image-keyboard-response",341,300950,"0.0-4.109-2.109","7u8n4waabd7hl6n",754,"184.csv","","null","resources/images/coin2.png","null","",NA,NA,NA,NA,""
"image-keyboard-response",342,301346,"0.0-4.110-0.110","7u8n4waabd7hl6n",754,"184.csv","","393.10000002384186","resources/trios/L1T2A3.jpg","39","restless",0.7,0.7,0.5,0.428346088100409,"true"
"image-keyboard-response",343,301751,"0.0-4.110-1.110","7u8n4waabd7hl6n",754,"184.csv","","null","resources/maskTrios/BBA3.jpg","null","",NA,NA,NA,NA,""
"image-keyboard-response",344,302959,"0.0-4.110-2.110","7u8n4waabd7hl6n",754,"184.csv","","null","resources/images/coin2.png","null","",NA,NA,NA,NA,""
"image-keyboard-response",345,303433,"0.0-4.111-0.111","7u8n4waabd7hl6n",754,"184.csv","","471.2999999523163","resources/trios/L1T2A3.jpg","39","restless",0.7,0.7,0.5,0.820784731116694,"false"
"image-keyboard-response",346,303838,"0.0-4.111-1.111","7u8n4waabd7hl6n",754,"184.csv","","null","resources/maskTrios/BBA3.jpg","null","",NA,NA,NA,NA,""
"image-keyboard-response",347,305041,"0.0-4.111-2.111","7u8n4waabd7hl6n",754,"184.csv","","null","resources/images/fishbone.png","null","",NA,NA,NA,NA,""
"image-keyboard-response",348,305497,"0.0-4.112-0.112","7u8n4waabd7hl6n",754,"184.csv","","452.89999997615814","resources/trios/L1T2A3.jpg","39","restless",0.7,0.6,0.5,0.0685246807464508,"true"
"image-keyboard-response",349,305914,"0.0-4.112-1.112","7u8n4waabd7hl6n",754,"184.csv","","null","resources/maskTrios/BBA3.jpg","null","",NA,NA,NA,NA,""
"image-keyboard-response",350,307124,"0.0-4.112-2.112","7u8n4waabd7hl6n",754,"184.csv","","null","resources/images/coin2.png","null","",NA,NA,NA,NA,""
"image-keyboard-response",351,307298,"0.0-4.113-0.113","7u8n4waabd7hl6n",754,"184.csv","","171.19999992847443","resources/trios/L1T2A3.jpg","39","restless",0.7,0.6,0.5,0.625452555922285,"false"
"image-keyboard-response",352,307703,"0.0-4.113-1.113","7u8n4waabd7hl6n",754,"184.csv","","null","resources/maskTrios/BBA3.jpg","null","",NA,NA,NA,NA,""
"image-keyboard-response",353,308917,"0.0-4.113-2.113","7u8n4waabd7hl6n",754,"184.csv","","null","resources/images/fishbone.png","null","",NA,NA,NA,NA,""
"image-keyboard-response",354,309558,"0.0-4.114-0.114","7u8n4waabd7hl6n",754,"184.csv","","638.5","resources/trios/L1T2A3.jpg","39","restless",0.7,0.6,0.5,0.724160034108276,"false"
"image-keyboard-response",355,309975,"0.0-4.114-1.114","7u8n4waabd7hl6n",754,"184.csv","","null","resources/maskTrios/BBA3.jpg","null","",NA,NA,NA,NA,""
"image-keyboard-response",356,311183,"0.0-4.114-2.114","7u8n4waabd7hl6n",754,"184.csv","","null","resources/images/fishbone.png","null","",NA,NA,NA,NA,""
"image-keyboard-response",357,311344,"0.0-4.115-0.115","7u8n4waabd7hl6n",754,"184.csv","","158.20000004768372","resources/trios/L1T2A3.jpg","39","restless",0.7,0.6,0.5,0.63621475331689,"false"
"image-keyboard-response",358,311754,"0.0-4.115-1.115","7u8n4waabd7hl6n",754,"184.csv","","null","resources/maskTrios/BBA3.jpg","null","",NA,NA,NA,NA,""
"image-keyboard-response",359,312963,"0.0-4.115-2.115","7u8n4waabd7hl6n",754,"184.csv","","null","resources/images/fishbone.png","null","",NA,NA,NA,NA,""
"image-keyboard-response",360,313382,"0.0-4.116-0.116","7u8n4waabd7hl6n",754,"184.csv","","416.1999999284744","resources/trios/L1T2A3.jpg","39","restless",0.7,0.6,0.5,0.865341726960698,"false"
"image-keyboard-response",361,313788,"0.0-4.116-1.116","7u8n4waabd7hl6n",754,"184.csv","","null","resources/maskTrios/BBA3.jpg","null","",NA,NA,NA,NA,""
"image-keyboard-response",362,314991,"0.0-4.116-2.116","7u8n4waabd7hl6n",754,"184.csv","","null","resources/images/fishbone.png","null","",NA,NA,NA,NA,""
"image-keyboard-response",363,315254,"0.0-4.117-0.117","7u8n4waabd7hl6n",754,"184.csv","","260","resources/trios/L1T2A3.jpg","37","restless",0.7,0.6,0.5,0.89486213642047,"false"
"image-keyboard-response",364,315672,"0.0-4.117-1.117","7u8n4waabd7hl6n",754,"184.csv","","null","resources/maskTrios/L1BB.jpg","null","",NA,NA,NA,NA,""
"image-keyboard-response",365,316874,"0.0-4.117-2.117","7u8n4waabd7hl6n",754,"184.csv","","null","resources/images/fishbone.png","null","",NA,NA,NA,NA,""
"image-keyboard-response",366,316973,"0.0-4.118-0.118","7u8n4waabd7hl6n",754,"184.csv","","95.90000009536743","resources/trios/L1T2A3.jpg","38","restless",0.7,0.6,0.5,0.386720271841307,"true"
"image-keyboard-response",367,317381,"0.0-4.118-1.118","7u8n4waabd7hl6n",754,"184.csv","","null","resources/maskTrios/BT2B.jpg","null","",NA,NA,NA,NA,""
"image-keyboard-response",368,318586,"0.0-4.118-2.118","7u8n4waabd7hl6n",754,"184.csv","","null","resources/images/coin2.png","null","",NA,NA,NA,NA,""
"image-keyboard-response",369,319308,"0.0-4.119-0.119","7u8n4waabd7hl6n",754,"184.csv","","719.2000000476837","resources/trios/L1T2A3.jpg","38","restless",0.7,0.6,0.5,0.387710819894171,"true"
"image-keyboard-response",370,319725,"0.0-4.119-1.119","7u8n4waabd7hl6n",754,"184.csv","","null","resources/maskTrios/BT2B.jpg","null","",NA,NA,NA,NA,""
"image-keyboard-response",371,320934,"0.0-4.119-2.119","7u8n4waabd7hl6n",754,"184.csv","","null","resources/images/coin2.png","null","",NA,NA,NA,NA,""
"image-keyboard-response",372,323772,"0.0-4.120-0.120","7u8n4waabd7hl6n",754,"184.csv","","2835.5","resources/trios/L1T2A3.jpg","38","restless",0.7,0.5,0.5,0.684242952012167,"false"
"image-keyboard-response",373,324180,"0.0-4.120-1.120","7u8n4waabd7hl6n",754,"184.csv","","null","resources/maskTrios/BT2B.jpg","null","",NA,NA,NA,NA,""
"image-keyboard-response",374,325382,"0.0-4.120-2.120","7u8n4waabd7hl6n",754,"184.csv","","null","resources/images/fishbone.png","null","",NA,NA,NA,NA,""
"image-keyboard-response",375,326158,"0.0-4.121-0.121","7u8n4waabd7hl6n",754,"184.csv","","773.5","resources/trios/L1T2A3.jpg","39","restless",0.7,0.5,0.5,0.859065547470778,"false"
"image-keyboard-response",376,326573,"0.0-4.121-1.121","7u8n4waabd7hl6n",754,"184.csv","","null","resources/maskTrios/BBA3.jpg","null","",NA,NA,NA,NA,""
"image-keyboard-response",377,327788,"0.0-4.121-2.121","7u8n4waabd7hl6n",754,"184.csv","","null","resources/images/fishbone.png","null","",NA,NA,NA,NA,""
"image-keyboard-response",378,328060,"0.0-4.122-0.122","7u8n4waabd7hl6n",754,"184.csv","","269.39999997615814","resources/trios/L1T2A3.jpg","37","restless",0.8,0.5,0.6,0.269797373348688,"true"
"image-keyboard-response",379,328472,"0.0-4.122-1.122","7u8n4waabd7hl6n",754,"184.csv","","null","resources/maskTrios/L1BB.jpg","null","",NA,NA,NA,NA,""
"image-keyboard-response",380,329675,"0.0-4.122-2.122","7u8n4waabd7hl6n",754,"184.csv","","null","resources/images/coin2.png","null","",NA,NA,NA,NA,""
"image-keyboard-response",381,330205,"0.0-4.123-0.123","7u8n4waabd7hl6n",754,"184.csv","","527.6000000238419","resources/trios/L1T2A3.jpg","37","restless",0.8,0.5,0.6,0.736936907812105,"true"
"image-keyboard-response",382,330608,"0.0-4.123-1.123","7u8n4waabd7hl6n",754,"184.csv","","null","resources/maskTrios/L1BB.jpg","null","",NA,NA,NA,NA,""
"image-keyboard-response",383,331816,"0.0-4.123-2.123","7u8n4waabd7hl6n",754,"184.csv","","null","resources/images/coin2.png","null","",NA,NA,NA,NA,""
"image-keyboard-response",384,332380,"0.0-4.124-0.124","7u8n4waabd7hl6n",754,"184.csv","","561","resources/trios/L1T2A3.jpg","37","restless",0.8,0.5,0.6,0.650000067390964,"true"
"image-keyboard-response",385,332788,"0.0-4.124-1.124","7u8n4waabd7hl6n",754,"184.csv","","null","resources/maskTrios/L1BB.jpg","null","",NA,NA,NA,NA,""
"image-keyboard-response",386,333992,"0.0-4.124-2.124","7u8n4waabd7hl6n",754,"184.csv","","null","resources/images/coin2.png","null","",NA,NA,NA,NA,""
"image-keyboard-response",387,334375,"0.0-4.125-0.125","7u8n4waabd7hl6n",754,"184.csv","","380","resources/trios/L1T2A3.jpg","37","restless",0.8,0.5,0.6,0.0570148972538551,"true"
"image-keyboard-response",388,334789,"0.0-4.125-1.125","7u8n4waabd7hl6n",754,"184.csv","","null","resources/maskTrios/L1BB.jpg","null","",NA,NA,NA,NA,""
"image-keyboard-response",389,335991,"0.0-4.125-2.125","7u8n4waabd7hl6n",754,"184.csv","","null","resources/images/coin2.png","null","",NA,NA,NA,NA,""
"image-keyboard-response",390,336239,"0.0-4.126-0.126","7u8n4waabd7hl6n",754,"184.csv","","245.10000002384186","resources/trios/L1T2A3.jpg","37","restless",0.9,0.5,0.6,0.588221362658131,"true"
"image-keyboard-response",391,336650,"0.0-4.126-1.126","7u8n4waabd7hl6n",754,"184.csv","","null","resources/maskTrios/L1BB.jpg","null","",NA,NA,NA,NA,""
"image-keyboard-response",392,337853,"0.0-4.126-2.126","7u8n4waabd7hl6n",754,"184.csv","","null","resources/images/coin2.png","null","",NA,NA,NA,NA,""
"image-keyboard-response",393,338335,"0.0-4.127-0.127","7u8n4waabd7hl6n",754,"184.csv","","479.60000002384186","resources/trios/L1T2A3.jpg","37","restless",0.8,0.5,0.6,0.362627947615622,"true"
"image-keyboard-response",394,338742,"0.0-4.127-1.127","7u8n4waabd7hl6n",754,"184.csv","","null","resources/maskTrios/L1BB.jpg","null","",NA,NA,NA,NA,""
"image-keyboard-response",395,339945,"0.0-4.127-2.127","7u8n4waabd7hl6n",754,"184.csv","","null","resources/images/coin2.png","null","",NA,NA,NA,NA,""
"image-keyboard-response",396,341223,"0.0-4.128-0.128","7u8n4waabd7hl6n",754,"184.csv","","1275.6000000238419","resources/trios/L1T2A3.jpg","37","restless",0.8,0.5,0.6,0.961548684170946,"false"
"image-keyboard-response",397,341641,"0.0-4.128-1.128","7u8n4waabd7hl6n",754,"184.csv","","null","resources/maskTrios/L1BB.jpg","null","",NA,NA,NA,NA,""
"image-keyboard-response",398,342844,"0.0-4.128-2.128","7u8n4waabd7hl6n",754,"184.csv","","null","resources/images/fishbone.png","null","",NA,NA,NA,NA,""
"image-keyboard-response",399,343249,"0.0-4.129-0.129","7u8n4waabd7hl6n",754,"184.csv","","401.89999997615814","resources/trios/L1T2A3.jpg","38","restless",0.8,0.5,0.6,0.265537313945059,"true"
"image-keyboard-response",400,343666,"0.0-4.129-1.129","7u8n4waabd7hl6n",754,"184.csv","","null","resources/maskTrios/BT2B.jpg","null","",NA,NA,NA,NA,""
"image-keyboard-response",401,344873,"0.0-4.129-2.129","7u8n4waabd7hl6n",754,"184.csv","","null","resources/images/coin2.png","null","",NA,NA,NA,NA,""
"image-keyboard-response",402,345198,"0.0-4.130-0.130","7u8n4waabd7hl6n",754,"184.csv","","321.40000009536743","resources/trios/L1T2A3.jpg","38","restless",0.8,0.5,0.6,0.312204250047862,"true"
"image-keyboard-response",403,345608,"0.0-4.130-1.130","7u8n4waabd7hl6n",754,"184.csv","","null","resources/maskTrios/BT2B.jpg","null","",NA,NA,NA,NA,""
"image-keyboard-response",404,346810,"0.0-4.130-2.130","7u8n4waabd7hl6n",754,"184.csv","","null","resources/images/coin2.png","null","",NA,NA,NA,NA,""
"image-keyboard-response",405,347287,"0.0-4.131-0.131","7u8n4waabd7hl6n",754,"184.csv","","473.7000000476837","resources/trios/L1T2A3.jpg","38","restless",0.9,0.5,0.6,0.94665887199529,"false"
"image-keyboard-response",406,347690,"0.0-4.131-1.131","7u8n4waabd7hl6n",754,"184.csv","","null","resources/maskTrios/BT2B.jpg","null","",NA,NA,NA,NA,""
"image-keyboard-response",407,348892,"0.0-4.131-2.131","7u8n4waabd7hl6n",754,"184.csv","","null","resources/images/fishbone.png","null","",NA,NA,NA,NA,""
"image-keyboard-response",408,349285,"0.0-4.132-0.132","7u8n4waabd7hl6n",754,"184.csv","","389.7000000476837","resources/trios/L1T2A3.jpg","39","restless",0.9,0.5,0.6,0.823652757064849,"false"
"image-keyboard-response",409,349699,"0.0-4.132-1.132","7u8n4waabd7hl6n",754,"184.csv","","null","resources/maskTrios/BBA3.jpg","null","",NA,NA,NA,NA,""
"image-keyboard-response",410,350903,"0.0-4.132-2.132","7u8n4waabd7hl6n",754,"184.csv","","null","resources/images/fishbone.png","null","",NA,NA,NA,NA,""
"image-keyboard-response",411,351448,"0.0-4.133-0.133","7u8n4waabd7hl6n",754,"184.csv","","542.5","resources/trios/L1T2A3.jpg","39","restless",0.9,0.5,0.6,0.804386755958615,"false"
"image-keyboard-response",412,351861,"0.0-4.133-1.133","7u8n4waabd7hl6n",754,"184.csv","","null","resources/maskTrios/BBA3.jpg","null","",NA,NA,NA,NA,""
"image-keyboard-response",413,353086,"0.0-4.133-2.133","7u8n4waabd7hl6n",754,"184.csv","","null","resources/images/fishbone.png","null","",NA,NA,NA,NA,""
"image-keyboard-response",414,353486,"0.0-4.134-0.134","7u8n4waabd7hl6n",754,"184.csv","","397.5","resources/trios/L1T2A3.jpg","37","restless",0.9,0.4,0.6,0.489575476685013,"true"
"image-keyboard-response",415,353890,"0.0-4.134-1.134","7u8n4waabd7hl6n",754,"184.csv","","null","resources/maskTrios/L1BB.jpg","null","",NA,NA,NA,NA,""
"image-keyboard-response",416,355097,"0.0-4.134-2.134","7u8n4waabd7hl6n",754,"184.csv","","null","resources/images/coin2.png","null","",NA,NA,NA,NA,""
"image-keyboard-response",417,355533,"0.0-4.135-0.135","7u8n4waabd7hl6n",754,"184.csv","","433.8000000715256","resources/trios/L1T2A3.jpg","37","restless",0.9,0.4,0.6,0.704071276970816,"true"
"image-keyboard-response",418,355946,"0.0-4.135-1.135","7u8n4waabd7hl6n",754,"184.csv","","null","resources/maskTrios/L1BB.jpg","null","",NA,NA,NA,NA,""
"image-keyboard-response",419,357164,"0.0-4.135-2.135","7u8n4waabd7hl6n",754,"184.csv","","null","resources/images/coin2.png","null","",NA,NA,NA,NA,""
"image-keyboard-response",420,357705,"0.0-4.136-0.136","7u8n4waabd7hl6n",754,"184.csv","","539","resources/trios/L1T2A3.jpg","37","restless",0.8,0.4,0.6,0.919867578557447,"false"
"image-keyboard-response",421,358116,"0.0-4.136-1.136","7u8n4waabd7hl6n",754,"184.csv","","null","resources/maskTrios/L1BB.jpg","null","",NA,NA,NA,NA,""
"image-keyboard-response",422,359329,"0.0-4.136-2.136","7u8n4waabd7hl6n",754,"184.csv","","null","resources/images/fishbone.png","null","",NA,NA,NA,NA,""
"image-keyboard-response",423,359609,"0.0-4.137-0.137","7u8n4waabd7hl6n",754,"184.csv","","277","resources/trios/L1T2A3.jpg","38","restless",0.7,0.4,0.5,0.996391481608669,"false"
"image-keyboard-response",424,360012,"0.0-4.137-1.137","7u8n4waabd7hl6n",754,"184.csv","","null","resources/maskTrios/BT2B.jpg","null","",NA,NA,NA,NA,""
"image-keyboard-response",425,361220,"0.0-4.137-2.137","7u8n4waabd7hl6n",754,"184.csv","","null","resources/images/fishbone.png","null","",NA,NA,NA,NA,""
"image-keyboard-response",426,361545,"0.0-4.138-0.138","7u8n4waabd7hl6n",754,"184.csv","","322.2000000476837","resources/trios/L1T2A3.jpg","39","restless",0.7,0.4,0.5,0.984161696008603,"false"
"image-keyboard-response",427,361954,"0.0-4.138-1.138","7u8n4waabd7hl6n",754,"184.csv","","null","resources/maskTrios/BBA3.jpg","null","",NA,NA,NA,NA,""
"image-keyboard-response",428,363163,"0.0-4.138-2.138","7u8n4waabd7hl6n",754,"184.csv","","null","resources/images/fishbone.png","null","",NA,NA,NA,NA,""
"image-keyboard-response",429,363781,"0.0-4.139-0.139","7u8n4waabd7hl6n",754,"184.csv","","616.0999999046326","resources/trios/L1T2A3.jpg","37","restless",0.7,0.4,0.4,0.0149208016793034,"true"
"image-keyboard-response",430,364189,"0.0-4.139-1.139","7u8n4waabd7hl6n",754,"184.csv","","null","resources/maskTrios/L1BB.jpg","null","",NA,NA,NA,NA,""
"image-keyboard-response",431,365406,"0.0-4.139-2.139","7u8n4waabd7hl6n",754,"184.csv","","null","resources/images/coin2.png","null","",NA,NA,NA,NA,""
"image-keyboard-response",432,366147,"0.0-4.140-0.140","7u8n4waabd7hl6n",754,"184.csv","","737.8999999761581","resources/trios/L1T2A3.jpg","37","restless",0.7,0.4,0.4,0.971067688349156,"false"
"image-keyboard-response",433,366560,"0.0-4.140-1.140","7u8n4waabd7hl6n",754,"184.csv","","null","resources/maskTrios/L1BB.jpg","null","",NA,NA,NA,NA,""
"image-keyboard-response",434,367763,"0.0-4.140-2.140","7u8n4waabd7hl6n",754,"184.csv","","null","resources/images/fishbone.png","null","",NA,NA,NA,NA,""
"image-keyboard-response",435,367970,"0.0-4.141-0.141","7u8n4waabd7hl6n",754,"184.csv","","204.60000002384186","resources/trios/L1T2A3.jpg","38","restless",0.7,0.4,0.4,0.190809929920759,"true"
"image-keyboard-response",436,368384,"0.0-4.141-1.141","7u8n4waabd7hl6n",754,"184.csv","","null","resources/maskTrios/BT2B.jpg","null","",NA,NA,NA,NA,""
"image-keyboard-response",437,369591,"0.0-4.141-2.141","7u8n4waabd7hl6n",754,"184.csv","","null","resources/images/coin2.png","null","",NA,NA,NA,NA,""
"image-keyboard-response",438,370134,"0.0-4.142-0.142","7u8n4waabd7hl6n",754,"184.csv","","540.5","resources/trios/L1T2A3.jpg","38","restless",0.7,0.4,0.4,0.819444579088099,"false"
"image-keyboard-response",439,370540,"0.0-4.142-1.142","7u8n4waabd7hl6n",754,"184.csv","","null","resources/maskTrios/BT2B.jpg","null","",NA,NA,NA,NA,""
"image-keyboard-response",440,371748,"0.0-4.142-2.142","7u8n4waabd7hl6n",754,"184.csv","","null","resources/images/fishbone.png","null","",NA,NA,NA,NA,""
"image-keyboard-response",441,372232,"0.0-4.143-0.143","7u8n4waabd7hl6n",754,"184.csv","","481.60000002384186","resources/trios/L1T2A3.jpg","38","restless",0.7,0.4,0.4,0.552168488012904,"false"
"image-keyboard-response",442,372647,"0.0-4.143-1.143","7u8n4waabd7hl6n",754,"184.csv","","null","resources/maskTrios/BT2B.jpg","null","",NA,NA,NA,NA,""
"image-keyboard-response",443,373854,"0.0-4.143-2.143","7u8n4waabd7hl6n",754,"184.csv","","null","resources/images/fishbone.png","null","",NA,NA,NA,NA,""
"image-keyboard-response",444,374169,"0.0-4.144-0.144","7u8n4waabd7hl6n",754,"184.csv","","311.89999997615814","resources/trios/L1T2A3.jpg","39","restless",0.7,0.4,0.4,0.0459909599014188,"true"
"image-keyboard-response",445,374585,"0.0-4.144-1.144","7u8n4waabd7hl6n",754,"184.csv","","null","resources/maskTrios/BBA3.jpg","null","",NA,NA,NA,NA,""
"image-keyboard-response",446,375799,"0.0-4.144-2.144","7u8n4waabd7hl6n",754,"184.csv","","null","resources/images/coin2.png","null","",NA,NA,NA,NA,""
"image-keyboard-response",447,376177,"0.0-4.145-0.145","7u8n4waabd7hl6n",754,"184.csv","","375.2999999523163","resources/trios/L1T2A3.jpg","39","restless",0.7,0.4,0.4,0.302379235585583,"true"
"image-keyboard-response",448,376580,"0.0-4.145-1.145","7u8n4waabd7hl6n",754,"184.csv","","null","resources/maskTrios/BBA3.jpg","null","",NA,NA,NA,NA,""
"image-keyboard-response",449,377799,"0.0-4.145-2.145","7u8n4waabd7hl6n",754,"184.csv","","null","resources/images/coin2.png","null","",NA,NA,NA,NA,""
"image-keyboard-response",450,378112,"0.0-4.146-0.146","7u8n4waabd7hl6n",754,"184.csv","","311","resources/trios/L1T2A3.jpg","39","restless",0.7,0.4,0.4,0.211712744209065,"true"
"image-keyboard-response",451,378516,"0.0-4.146-1.146","7u8n4waabd7hl6n",754,"184.csv","","null","resources/maskTrios/BBA3.jpg","null","",NA,NA,NA,NA,""
"image-keyboard-response",452,379718,"0.0-4.146-2.146","7u8n4waabd7hl6n",754,"184.csv","","null","resources/images/coin2.png","null","",NA,NA,NA,NA,""
"image-keyboard-response",453,379926,"0.0-4.147-0.147","7u8n4waabd7hl6n",754,"184.csv","","205.5","resources/trios/L1T2A3.jpg","39","restless",0.7,0.4,0.4,0.134215969689063,"true"
"image-keyboard-response",454,380333,"0.0-4.147-1.147","7u8n4waabd7hl6n",754,"184.csv","","null","resources/maskTrios/BBA3.jpg","null","",NA,NA,NA,NA,""
"image-keyboard-response",455,381536,"0.0-4.147-2.147","7u8n4waabd7hl6n",754,"184.csv","","null","resources/images/coin2.png","null","",NA,NA,NA,NA,""
"image-keyboard-response",456,381915,"0.0-4.148-0.148","7u8n4waabd7hl6n",754,"184.csv","","376","resources/trios/L1T2A3.jpg","39","restless",0.6,0.4,0.4,0.490708772401701,"false"
"image-keyboard-response",457,382323,"0.0-4.148-1.148","7u8n4waabd7hl6n",754,"184.csv","","null","resources/maskTrios/BBA3.jpg","null","",NA,NA,NA,NA,""
"image-keyboard-response",458,383529,"0.0-4.148-2.148","7u8n4waabd7hl6n",754,"184.csv","","null","resources/images/fishbone.png","null","",NA,NA,NA,NA,""
"image-keyboard-response",459,383784,"0.0-4.149-0.149","7u8n4waabd7hl6n",754,"184.csv","","252.69999992847443","resources/trios/L1T2A3.jpg","37","restless",0.6,0.3,0.4,0.676428990455634,"false"
"image-keyboard-response",460,384187,"0.0-4.149-1.149","7u8n4waabd7hl6n",754,"184.csv","","null","resources/maskTrios/L1BB.jpg","null","",NA,NA,NA,NA,""
"image-keyboard-response",461,385390,"0.0-4.149-2.149","7u8n4waabd7hl6n",754,"184.csv","","null","resources/images/fishbone.png","null","",NA,NA,NA,NA,""
"image-keyboard-response",462,385614,"0.0-4.150-0.150","7u8n4waabd7hl6n",754,"184.csv","","221.09999990463257","resources/trios/L1T2A3.jpg","38","restless",0.6,0.2,0.4,0.591282850756894,"false"
"image-keyboard-response",463,386017,"0.0-4.150-1.150","7u8n4waabd7hl6n",754,"184.csv","","null","resources/maskTrios/BT2B.jpg","null","",NA,NA,NA,NA,""
"image-keyboard-response",464,387230,"0.0-4.150-2.150","7u8n4waabd7hl6n",754,"184.csv","","null","resources/images/fishbone.png","null","",NA,NA,NA,NA,""
"image-keyboard-response",465,387514,"0.0-4.151-0.151","7u8n4waabd7hl6n",754,"184.csv","","281.60000002384186","resources/trios/L1T2A3.jpg","39","restless",0.6,0.2,0.4,0.625051437976454,"false"
"image-keyboard-response",466,387921,"0.0-4.151-1.151","7u8n4waabd7hl6n",754,"184.csv","","null","resources/maskTrios/BBA3.jpg","null","",NA,NA,NA,NA,""
"image-keyboard-response",467,389136,"0.0-4.151-2.151","7u8n4waabd7hl6n",754,"184.csv","","null","resources/images/fishbone.png","null","",NA,NA,NA,NA,""
"image-keyboard-response",468,389396,"0.0-4.152-0.152","7u8n4waabd7hl6n",754,"184.csv","","257.2000000476837","resources/trios/L1T2A3.jpg","39","restless",0.6,0.2,0.5,0.0217671571991189,"true"
"image-keyboard-response",469,389806,"0.0-4.152-1.152","7u8n4waabd7hl6n",754,"184.csv","","null","resources/maskTrios/BBA3.jpg","null","",NA,NA,NA,NA,""
"image-keyboard-response",470,391009,"0.0-4.152-2.152","7u8n4waabd7hl6n",754,"184.csv","","null","resources/images/coin2.png","null","",NA,NA,NA,NA,""
"image-keyboard-response",471,392971,"0.0-4.153-0.153","7u8n4waabd7hl6n",754,"184.csv","","1959.8000000715256","resources/trios/L1T2A3.jpg","39","restless",0.6,0.2,0.5,0.762269764859431,"false"
"image-keyboard-response",472,393380,"0.0-4.153-1.153","7u8n4waabd7hl6n",754,"184.csv","","null","resources/maskTrios/BBA3.jpg","null","",NA,NA,NA,NA,""
"image-keyboard-response",473,394597,"0.0-4.153-2.153","7u8n4waabd7hl6n",754,"184.csv","","null","resources/images/fishbone.png","null","",NA,NA,NA,NA,""
"image-keyboard-response",474,394999,"0.0-4.154-0.154","7u8n4waabd7hl6n",754,"184.csv","","399.7999999523163","resources/trios/L1T2A3.jpg","39","restless",0.6,0.2,0.5,0.472294812864312,"true"
"image-keyboard-response",475,395416,"0.0-4.154-1.154","7u8n4waabd7hl6n",754,"184.csv","","null","resources/maskTrios/BBA3.jpg","null","",NA,NA,NA,NA,""
"image-keyboard-response",476,396620,"0.0-4.154-2.154","7u8n4waabd7hl6n",754,"184.csv","","null","resources/images/coin2.png","null","",NA,NA,NA,NA,""
"image-keyboard-response",477,397379,"0.0-4.155-0.155","7u8n4waabd7hl6n",754,"184.csv","","756.8999999761581","resources/trios/L1T2A3.jpg","39","restless",0.6,0.2,0.5,0.00872031632032289,"true"
"image-keyboard-response",478,397785,"0.0-4.155-1.155","7u8n4waabd7hl6n",754,"184.csv","","null","resources/maskTrios/BBA3.jpg","null","",NA,NA,NA,NA,""
"image-keyboard-response",479,398990,"0.0-4.155-2.155","7u8n4waabd7hl6n",754,"184.csv","","null","resources/images/coin2.png","null","",NA,NA,NA,NA,""
"image-keyboard-response",480,399078,"0.0-4.156-0.156","7u8n4waabd7hl6n",754,"184.csv","","85.30000007152557","resources/trios/L1T2A3.jpg","39","restless",0.6,0.3,0.5,0.951216998606255,"false"
"image-keyboard-response",481,399490,"0.0-4.156-1.156","7u8n4waabd7hl6n",754,"184.csv","","null","resources/maskTrios/BBA3.jpg","null","",NA,NA,NA,NA,""
"image-keyboard-response",482,400699,"0.0-4.156-2.156","7u8n4waabd7hl6n",754,"184.csv","","null","resources/images/fishbone.png","null","",NA,NA,NA,NA,""
"image-keyboard-response",483,401445,"0.0-4.157-0.157","7u8n4waabd7hl6n",754,"184.csv","","742.7000000476837","resources/trios/L1T2A3.jpg","39","restless",0.6,0.3,0.5,0.721854843204191,"false"
"image-keyboard-response",484,401860,"0.0-4.157-1.157","7u8n4waabd7hl6n",754,"184.csv","","null","resources/maskTrios/BBA3.jpg","null","",NA,NA,NA,NA,""
"image-keyboard-response",485,403064,"0.0-4.157-2.157","7u8n4waabd7hl6n",754,"184.csv","","null","resources/images/fishbone.png","null","",NA,NA,NA,NA,""
"image-keyboard-response",486,405181,"0.0-4.158-0.158","7u8n4waabd7hl6n",754,"184.csv","","2114.5","resources/trios/L1T2A3.jpg","39","restless",0.6,0.3,0.5,0.573678512670016,"false"
"image-keyboard-response",487,405585,"0.0-4.158-1.158","7u8n4waabd7hl6n",754,"184.csv","","null","resources/maskTrios/BBA3.jpg","null","",NA,NA,NA,NA,""
"image-keyboard-response",488,406790,"0.0-4.158-2.158","7u8n4waabd7hl6n",754,"184.csv","","null","resources/images/fishbone.png","null","",NA,NA,NA,NA,""
"image-keyboard-response",489,407021,"0.0-4.159-0.159","7u8n4waabd7hl6n",754,"184.csv","","228.89999997615814","resources/trios/L1T2A3.jpg","39","restless",0.6,0.3,0.5,0.512356363484135,"false"
"image-keyboard-response",490,407432,"0.0-4.159-1.159","7u8n4waabd7hl6n",754,"184.csv","","null","resources/maskTrios/BBA3.jpg","null","",NA,NA,NA,NA,""
"image-keyboard-response",491,408643,"0.0-4.159-2.159","7u8n4waabd7hl6n",754,"184.csv","","null","resources/images/fishbone.png","null","",NA,NA,NA,NA,""
"image-keyboard-response",492,408955,"0.0-4.160-0.160","7u8n4waabd7hl6n",754,"184.csv","","309.2999999523163","resources/trios/L1T2A3.jpg","37","restless",0.6,0.3,0.5,0.0296952837021238,"true"
"image-keyboard-response",493,409360,"0.0-4.160-1.160","7u8n4waabd7hl6n",754,"184.csv","","null","resources/maskTrios/L1BB.jpg","null","",NA,NA,NA,NA,""
"image-keyboard-response",494,410571,"0.0-4.160-2.160","7u8n4waabd7hl6n",754,"184.csv","","null","resources/images/coin2.png","null","",NA,NA,NA,NA,""
"image-keyboard-response",495,410990,"0.0-4.161-0.161","7u8n4waabd7hl6n",754,"184.csv","","416.1999999284744","resources/trios/L1T2A3.jpg","38","restless",0.6,0.3,0.5,0.777411753783565,"false"
"image-keyboard-response",496,411395,"0.0-4.161-1.161","7u8n4waabd7hl6n",754,"184.csv","","null","resources/maskTrios/BT2B.jpg","null","",NA,NA,NA,NA,""
"image-keyboard-response",497,412599,"0.0-4.161-2.161","7u8n4waabd7hl6n",754,"184.csv","","null","resources/images/fishbone.png","null","",NA,NA,NA,NA,""
"image-keyboard-response",498,413301,"0.0-4.162-0.162","7u8n4waabd7hl6n",754,"184.csv","","702","resources/trios/L1T2A3.jpg","39","restless",0.6,0.3,0.5,0.970797324884518,"false"
"image-keyboard-response",499,413715,"0.0-4.162-1.162","7u8n4waabd7hl6n",754,"184.csv","","null","resources/maskTrios/BBA3.jpg","null","",NA,NA,NA,NA,""
"image-keyboard-response",500,414922,"0.0-4.162-2.162","7u8n4waabd7hl6n",754,"184.csv","","null","resources/images/fishbone.png","null","",NA,NA,NA,NA,""
"image-keyboard-response",501,415726,"0.0-4.163-0.163","7u8n4waabd7hl6n",754,"184.csv","","801.2000000476837","resources/trios/L1T2A3.jpg","39","restless",0.6,0.3,0.5,0.284480596271514,"true"
"image-keyboard-response",502,416132,"0.0-4.163-1.163","7u8n4waabd7hl6n",754,"184.csv","","null","resources/maskTrios/BBA3.jpg","null","",NA,NA,NA,NA,""
"image-keyboard-response",503,417337,"0.0-4.163-2.163","7u8n4waabd7hl6n",754,"184.csv","","null","resources/images/coin2.png","null","",NA,NA,NA,NA,""
"image-keyboard-response",504,419707,"0.0-4.164-0.164","7u8n4waabd7hl6n",754,"184.csv","","2367.7999999523163","resources/trios/L1T2A3.jpg","38","restless",0.6,0.3,0.5,0.263821930266136,"true"
"image-keyboard-response",505,420115,"0.0-4.164-1.164","7u8n4waabd7hl6n",754,"184.csv","","null","resources/maskTrios/BT2B.jpg","null","",NA,NA,NA,NA,""
"image-keyboard-response",506,421319,"0.0-4.164-2.164","7u8n4waabd7hl6n",754,"184.csv","","null","resources/images/coin2.png","null","",NA,NA,NA,NA,""
"image-keyboard-response",507,427510,"0.0-4.165-0.165","7u8n4waabd7hl6n",754,"184.csv","","6188.399999976158","resources/trios/L1T2A3.jpg","37","restless",0.6,0.3,0.6,0.791206088391293,"false"
"image-keyboard-response",508,427923,"0.0-4.165-1.165","7u8n4waabd7hl6n",754,"184.csv","","null","resources/maskTrios/L1BB.jpg","null","",NA,NA,NA,NA,""
"image-keyboard-response",509,429132,"0.0-4.165-2.165","7u8n4waabd7hl6n",754,"184.csv","","null","resources/images/fishbone.png","null","",NA,NA,NA,NA,""
"image-keyboard-response",510,429621,"0.0-4.166-0.166","7u8n4waabd7hl6n",754,"184.csv","","485.60000002384186","resources/trios/L1T2A3.jpg","38","restless",0.6,0.3,0.6,0.886631046925247,"false"
"image-keyboard-response",511,430034,"0.0-4.166-1.166","7u8n4waabd7hl6n",754,"184.csv","","null","resources/maskTrios/BT2B.jpg","null","",NA,NA,NA,NA,""
"image-keyboard-response",512,431237,"0.0-4.166-2.166","7u8n4waabd7hl6n",754,"184.csv","","null","resources/images/fishbone.png","null","",NA,NA,NA,NA,""
"image-keyboard-response",513,432225,"0.0-4.167-0.167","7u8n4waabd7hl6n",754,"184.csv","","986","resources/trios/L1T2A3.jpg","39","restless",0.6,0.3,0.6,0.176143282744158,"true"
"image-keyboard-response",514,432636,"0.0-4.167-1.167","7u8n4waabd7hl6n",754,"184.csv","","null","resources/maskTrios/BBA3.jpg","null","",NA,NA,NA,NA,""
"image-keyboard-response",515,433852,"0.0-4.167-2.167","7u8n4waabd7hl6n",754,"184.csv","","null","resources/images/coin2.png","null","",NA,NA,NA,NA,""
"image-keyboard-response",516,434113,"0.0-4.168-0.168","7u8n4waabd7hl6n",754,"184.csv","","258.59999990463257","resources/trios/L1T2A3.jpg","38","restless",0.6,0.3,0.6,0.0398540525903393,"true"
"image-keyboard-response",517,434517,"0.0-4.168-1.168","7u8n4waabd7hl6n",754,"184.csv","","null","resources/maskTrios/BT2B.jpg","null","",NA,NA,NA,NA,""
"image-keyboard-response",518,435734,"0.0-4.168-2.168","7u8n4waabd7hl6n",754,"184.csv","","null","resources/images/coin2.png","null","",NA,NA,NA,NA,""
"image-keyboard-response",519,437214,"0.0-4.169-0.169","7u8n4waabd7hl6n",754,"184.csv","","1477.2000000476837","resources/trios/L1T2A3.jpg","37","restless",0.6,0.3,0.6,0.237855711862677,"true"
"image-keyboard-response",520,437627,"0.0-4.169-1.169","7u8n4waabd7hl6n",754,"184.csv","","null","resources/maskTrios/L1BB.jpg","null","",NA,NA,NA,NA,""
"image-keyboard-response",521,438830,"0.0-4.169-2.169","7u8n4waabd7hl6n",754,"184.csv","","null","resources/images/coin2.png","null","",NA,NA,NA,NA,""
"image-keyboard-response",522,439551,"0.0-4.170-0.170","7u8n4waabd7hl6n",754,"184.csv","","718.3999999761581","resources/trios/L1T2A3.jpg","38","restless",0.6,0.3,0.6,0.156758280722886,"true"
"image-keyboard-response",523,439955,"0.0-4.170-1.170","7u8n4waabd7hl6n",754,"184.csv","","null","resources/maskTrios/BT2B.jpg","null","",NA,NA,NA,NA,""
"image-keyboard-response",524,441171,"0.0-4.170-2.170","7u8n4waabd7hl6n",754,"184.csv","","null","resources/images/coin2.png","null","",NA,NA,NA,NA,""
"image-keyboard-response",525,441938,"0.0-4.171-0.171","7u8n4waabd7hl6n",754,"184.csv","","764.3999999761581","resources/trios/L1T2A3.jpg","39","restless",0.7,0.3,0.6,0.758048960177061,"false"
"image-keyboard-response",526,442346,"0.0-4.171-1.171","7u8n4waabd7hl6n",754,"184.csv","","null","resources/maskTrios/BBA3.jpg","null","",NA,NA,NA,NA,""
"image-keyboard-response",527,443549,"0.0-4.171-2.171","7u8n4waabd7hl6n",754,"184.csv","","null","resources/images/fishbone.png","null","",NA,NA,NA,NA,""
"image-keyboard-response",528,445212,"0.0-4.172-0.172","7u8n4waabd7hl6n",754,"184.csv","","1660","resources/trios/L1T2A3.jpg","39","restless",0.7,0.3,0.6,0.721568344093308,"false"
"image-keyboard-response",529,445625,"0.0-4.172-1.172","7u8n4waabd7hl6n",754,"184.csv","","null","resources/maskTrios/BBA3.jpg","null","",NA,NA,NA,NA,""
"image-keyboard-response",530,446827,"0.0-4.172-2.172","7u8n4waabd7hl6n",754,"184.csv","","null","resources/images/fishbone.png","null","",NA,NA,NA,NA,""
"image-keyboard-response",531,468639,"0.0-4.173-0.173","7u8n4waabd7hl6n",754,"184.csv","","21808.5","resources/trios/L1T2A3.jpg","39","restless",0.7,0.3,0.6,0.383571135299173,"true"
"image-keyboard-response",532,469055,"0.0-4.173-1.173","7u8n4waabd7hl6n",754,"184.csv","","null","resources/maskTrios/BBA3.jpg","null","",NA,NA,NA,NA,""
"image-keyboard-response",533,470258,"0.0-4.173-2.173","7u8n4waabd7hl6n",754,"184.csv","","null","resources/images/coin2.png","null","",NA,NA,NA,NA,""
"image-keyboard-response",534,470798,"0.0-4.174-0.174","7u8n4waabd7hl6n",754,"184.csv","","537.1000000238419","resources/trios/L1T2A3.jpg","39","restless",0.7,0.3,0.6,0.707148692967813,"false"
"image-keyboard-response",535,471204,"0.0-4.174-1.174","7u8n4waabd7hl6n",754,"184.csv","","null","resources/maskTrios/BBA3.jpg","null","",NA,NA,NA,NA,""
"image-keyboard-response",536,472411,"0.0-4.174-2.174","7u8n4waabd7hl6n",754,"184.csv","","null","resources/images/fishbone.png","null","",NA,NA,NA,NA,""
"image-keyboard-response",537,472624,"0.0-4.175-0.175","7u8n4waabd7hl6n",754,"184.csv","","210.10000002384186","resources/trios/L1T2A3.jpg","37","restless",0.7,0.3,0.6,0.229603805294944,"true"
"image-keyboard-response",538,473033,"0.0-4.175-1.175","7u8n4waabd7hl6n",754,"184.csv","","null","resources/maskTrios/L1BB.jpg","null","",NA,NA,NA,NA,""
"image-keyboard-response",539,474242,"0.0-4.175-2.175","7u8n4waabd7hl6n",754,"184.csv","","null","resources/images/coin2.png","null","",NA,NA,NA,NA,""
"image-keyboard-response",540,474908,"0.0-4.176-0.176","7u8n4waabd7hl6n",754,"184.csv","","663.1999999284744","resources/trios/L1T2A3.jpg","38","restless",0.7,0.3,0.6,0.0245738612402469,"true"
"image-keyboard-response",541,475317,"0.0-4.176-1.176","7u8n4waabd7hl6n",754,"184.csv","","null","resources/maskTrios/BT2B.jpg","null","",NA,NA,NA,NA,""
"image-keyboard-response",542,476521,"0.0-4.176-2.176","7u8n4waabd7hl6n",754,"184.csv","","null","resources/images/coin2.png","null","",NA,NA,NA,NA,""
"image-keyboard-response",543,477122,"0.0-4.177-0.177","7u8n4waabd7hl6n",754,"184.csv","","597.7999999523163","resources/trios/L1T2A3.jpg","38","restless",0.7,0.3,0.6,0.996346432488962,"false"
"image-keyboard-response",544,477538,"0.0-4.177-1.177","7u8n4waabd7hl6n",754,"184.csv","","null","resources/maskTrios/BT2B.jpg","null","",NA,NA,NA,NA,""
"image-keyboard-response",545,478749,"0.0-4.177-2.177","7u8n4waabd7hl6n",754,"184.csv","","null","resources/images/fishbone.png","null","",NA,NA,NA,NA,""
"image-keyboard-response",546,478827,"0.0-4.178-0.178","7u8n4waabd7hl6n",754,"184.csv","","74.5","resources/trios/L1T2A3.jpg","39","restless",0.7,0.3,0.6,0.0699959392351164,"true"
"image-keyboard-response",547,479245,"0.0-4.178-1.178","7u8n4waabd7hl6n",754,"184.csv","","null","resources/maskTrios/BBA3.jpg","null","",NA,NA,NA,NA,""
"image-keyboard-response",548,480448,"0.0-4.178-2.178","7u8n4waabd7hl6n",754,"184.csv","","null","resources/images/coin2.png","null","",NA,NA,NA,NA,""
"image-keyboard-response",549,481701,"0.0-4.179-0.179","7u8n4waabd7hl6n",754,"184.csv","","1249.6999999284744","resources/trios/L1T2A3.jpg","37","restless",0.7,0.3,0.6,0.798127414904827,"false"
"image-keyboard-response",550,482114,"0.0-4.179-1.179","7u8n4waabd7hl6n",754,"184.csv","","null","resources/maskTrios/L1BB.jpg","null","",NA,NA,NA,NA,""
"image-keyboard-response",551,483317,"0.0-4.179-2.179","7u8n4waabd7hl6n",754,"184.csv","","null","resources/images/fishbone.png","null","",NA,NA,NA,NA,""
"image-keyboard-response",552,483689,"0.0-4.180-0.180","7u8n4waabd7hl6n",754,"184.csv","","368.7999999523163","resources/trios/L1T2A3.jpg","38","restless",0.7,0.4,0.6,0.404212264027787,"false"
"image-keyboard-response",553,484097,"0.0-4.180-1.180","7u8n4waabd7hl6n",754,"184.csv","","null","resources/maskTrios/BT2B.jpg","null","",NA,NA,NA,NA,""
"image-keyboard-response",554,485302,"0.0-4.180-2.180","7u8n4waabd7hl6n",754,"184.csv","","null","resources/images/fishbone.png","null","",NA,NA,NA,NA,""
"image-keyboard-response",555,485961,"0.0-4.181-0.181","7u8n4waabd7hl6n",754,"184.csv","","656.1000000238419","resources/trios/L1T2A3.jpg","38","restless",0.7,0.4,0.5,0.235255611033535,"true"
"image-keyboard-response",556,486367,"0.0-4.181-1.181","7u8n4waabd7hl6n",754,"184.csv","","null","resources/maskTrios/BT2B.jpg","null","",NA,NA,NA,NA,""
"image-keyboard-response",557,487571,"0.0-4.181-2.181","7u8n4waabd7hl6n",754,"184.csv","","null","resources/images/coin2.png","null","",NA,NA,NA,NA,""
"image-keyboard-response",558,488642,"0.0-4.182-0.182","7u8n4waabd7hl6n",754,"184.csv","","1068.7999999523163","resources/trios/L1T2A3.jpg","38","restless",0.7,0.4,0.5,0.233830997787344,"true"
"image-keyboard-response",559,489049,"0.0-4.182-1.182","7u8n4waabd7hl6n",754,"184.csv","","null","resources/maskTrios/BT2B.jpg","null","",NA,NA,NA,NA,""
"image-keyboard-response",560,490252,"0.0-4.182-2.182","7u8n4waabd7hl6n",754,"184.csv","","null","resources/images/coin2.png","null","",NA,NA,NA,NA,""
"image-keyboard-response",561,490363,"0.0-4.183-0.183","7u8n4waabd7hl6n",754,"184.csv","","108.29999995231628","resources/trios/L1T2A3.jpg","38","restless",0.7,0.4,0.5,0.352402580565823,"true"
"image-keyboard-response",562,490777,"0.0-4.183-1.183","7u8n4waabd7hl6n",754,"184.csv","","null","resources/maskTrios/BT2B.jpg","null","",NA,NA,NA,NA,""
"image-keyboard-response",563,491982,"0.0-4.183-2.183","7u8n4waabd7hl6n",754,"184.csv","","null","resources/images/coin2.png","null","",NA,NA,NA,NA,""
"image-keyboard-response",564,492209,"0.0-4.184-0.184","7u8n4waabd7hl6n",754,"184.csv","","224.09999990463257","resources/trios/L1T2A3.jpg","38","restless",0.8,0.4,0.4,0.811487681610968,"false"
"image-keyboard-response",565,492626,"0.0-4.184-1.184","7u8n4waabd7hl6n",754,"184.csv","","null","resources/maskTrios/BT2B.jpg","null","",NA,NA,NA,NA,""
"image-keyboard-response",566,493835,"0.0-4.184-2.184","7u8n4waabd7hl6n",754,"184.csv","","null","resources/images/fishbone.png","null","",NA,NA,NA,NA,""
"image-keyboard-response",567,494125,"0.0-4.185-0.185","7u8n4waabd7hl6n",754,"184.csv","","287.2000000476837","resources/trios/L1T2A3.jpg","38","restless",0.8,0.4,0.4,0.700171802777457,"false"
"image-keyboard-response",568,494542,"0.0-4.185-1.185","7u8n4waabd7hl6n",754,"184.csv","","null","resources/maskTrios/BT2B.jpg","null","",NA,NA,NA,NA,""
"image-keyboard-response",569,495757,"0.0-4.185-2.185","7u8n4waabd7hl6n",754,"184.csv","","null","resources/images/fishbone.png","null","",NA,NA,NA,NA,""
"image-keyboard-response",570,496369,"0.0-4.186-0.186","7u8n4waabd7hl6n",754,"184.csv","","609.7999999523163","resources/trios/L1T2A3.jpg","37","restless",0.8,0.4,0.4,0.540357761290699,"true"
"image-keyboard-response",571,496778,"0.0-4.186-1.186","7u8n4waabd7hl6n",754,"184.csv","","null","resources/maskTrios/L1BB.jpg","null","",NA,NA,NA,NA,""
"image-keyboard-response",572,497992,"0.0-4.186-2.186","7u8n4waabd7hl6n",754,"184.csv","","null","resources/images/coin2.png","null","",NA,NA,NA,NA,""
"image-keyboard-response",573,498368,"0.0-4.187-0.187","7u8n4waabd7hl6n",754,"184.csv","","373.3000000715256","resources/trios/L1T2A3.jpg","37","restless",0.8,0.4,0.4,0.892355504694514,"false"
"image-keyboard-response",574,498785,"0.0-4.187-1.187","7u8n4waabd7hl6n",754,"184.csv","","null","resources/maskTrios/L1BB.jpg","null","",NA,NA,NA,NA,""
"image-keyboard-response",575,499987,"0.0-4.187-2.187","7u8n4waabd7hl6n",754,"184.csv","","null","resources/images/fishbone.png","null","",NA,NA,NA,NA,""
"image-keyboard-response",576,500275,"0.0-4.188-0.188","7u8n4waabd7hl6n",754,"184.csv","","284.89999997615814","resources/trios/L1T2A3.jpg","39","restless",0.8,0.4,0.4,0.659887942886205,"false"
"image-keyboard-response",577,500679,"0.0-4.188-1.188","7u8n4waabd7hl6n",754,"184.csv","","null","resources/maskTrios/BBA3.jpg","null","",NA,NA,NA,NA,""
"image-keyboard-response",578,501894,"0.0-4.188-2.188","7u8n4waabd7hl6n",754,"184.csv","","null","resources/images/fishbone.png","null","",NA,NA,NA,NA,""
"image-keyboard-response",579,502249,"0.0-4.189-0.189","7u8n4waabd7hl6n",754,"184.csv","","352.2000000476837","resources/trios/L1T2A3.jpg","38","restless",0.8,0.4,0.4,0.488751819925514,"false"
"image-keyboard-response",580,502659,"0.0-4.189-1.189","7u8n4waabd7hl6n",754,"184.csv","","null","resources/maskTrios/BT2B.jpg","null","",NA,NA,NA,NA,""
"image-keyboard-response",581,503874,"0.0-4.189-2.189","7u8n4waabd7hl6n",754,"184.csv","","null","resources/images/fishbone.png","null","",NA,NA,NA,NA,""
"image-keyboard-response",582,504153,"0.0-4.190-0.190","7u8n4waabd7hl6n",754,"184.csv","","276.60000002384186","resources/trios/L1T2A3.jpg","37","restless",0.8,0.4,0.4,0.636460174084204,"true"
"image-keyboard-response",583,504556,"0.0-4.190-1.190","7u8n4waabd7hl6n",754,"184.csv","","null","resources/maskTrios/L1BB.jpg","null","",NA,NA,NA,NA,""
"image-keyboard-response",584,505773,"0.0-4.190-2.190","7u8n4waabd7hl6n",754,"184.csv","","null","resources/images/coin2.png","null","",NA,NA,NA,NA,""
"image-keyboard-response",585,506091,"0.0-4.191-0.191","7u8n4waabd7hl6n",754,"184.csv","","315.39999997615814","resources/trios/L1T2A3.jpg","37","restless",0.7,0.4,0.4,0.756947285416986,"false"
"image-keyboard-response",586,506496,"0.0-4.191-1.191","7u8n4waabd7hl6n",754,"184.csv","","null","resources/maskTrios/L1BB.jpg","null","",NA,NA,NA,NA,""
"image-keyboard-response",587,507713,"0.0-4.191-2.191","7u8n4waabd7hl6n",754,"184.csv","","null","resources/images/fishbone.png","null","",NA,NA,NA,NA,""
"image-keyboard-response",588,507719,"0.0-4.192-0.192","7u8n4waabd7hl6n",754,"184.csv","","3","resources/trios/L1T2A3.jpg","39","restless",0.7,0.4,0.4,0.111275678992118,"true"
"image-keyboard-response",589,508126,"0.0-4.192-1.192","7u8n4waabd7hl6n",754,"184.csv","","null","resources/maskTrios/BBA3.jpg","null","",NA,NA,NA,NA,""
"image-keyboard-response",590,509330,"0.0-4.192-2.192","7u8n4waabd7hl6n",754,"184.csv","","null","resources/images/coin2.png","null","",NA,NA,NA,NA,""
"image-keyboard-response",591,509351,"0.0-4.193-0.193","7u8n4waabd7hl6n",754,"184.csv","","18","resources/trios/L1T2A3.jpg","39","restless",0.7,0.4,0.4,0.0527672977121587,"true"
"image-keyboard-response",592,509763,"0.0-4.193-1.193","7u8n4waabd7hl6n",754,"184.csv","","null","resources/maskTrios/BBA3.jpg","null","",NA,NA,NA,NA,""
"image-keyboard-response",593,510966,"0.0-4.193-2.193","7u8n4waabd7hl6n",754,"184.csv","","null","resources/images/coin2.png","null","",NA,NA,NA,NA,""
"image-keyboard-response",594,511545,"0.0-4.194-0.194","7u8n4waabd7hl6n",754,"184.csv","","576","resources/trios/L1T2A3.jpg","39","restless",0.7,0.4,0.4,0.276634226898768,"true"
"image-keyboard-response",595,511953,"0.0-4.194-1.194","7u8n4waabd7hl6n",754,"184.csv","","null","resources/maskTrios/BBA3.jpg","null","",NA,NA,NA,NA,""
"image-keyboard-response",596,513157,"0.0-4.194-2.194","7u8n4waabd7hl6n",754,"184.csv","","null","resources/images/coin2.png","null","",NA,NA,NA,NA,""
"image-keyboard-response",597,516037,"0.0-4.195-0.195","7u8n4waabd7hl6n",754,"184.csv","","2878.2000000476837","resources/trios/L1T2A3.jpg","39","restless",0.7,0.4,0.4,0.605229101034198,"false"
"image-keyboard-response",598,516452,"0.0-4.195-1.195","7u8n4waabd7hl6n",754,"184.csv","","null","resources/maskTrios/BBA3.jpg","null","",NA,NA,NA,NA,""
"image-keyboard-response",599,517660,"0.0-4.195-2.195","7u8n4waabd7hl6n",754,"184.csv","","null","resources/images/fishbone.png","null","",NA,NA,NA,NA,""
"image-keyboard-response",600,517980,"0.0-4.196-0.196","7u8n4waabd7hl6n",754,"184.csv","","317.7000000476837","resources/trios/L1T2A3.jpg","37","restless",0.7,0.4,0.4,0.707327793409202,"false"
"image-keyboard-response",601,518398,"0.0-4.196-1.196","7u8n4waabd7hl6n",754,"184.csv","","null","resources/maskTrios/L1BB.jpg","null","",NA,NA,NA,NA,""
"image-keyboard-response",602,519601,"0.0-4.196-2.196","7u8n4waabd7hl6n",754,"184.csv","","null","resources/images/fishbone.png","null","",NA,NA,NA,NA,""
"image-keyboard-response",603,519720,"0.0-4.197-0.197","7u8n4waabd7hl6n",754,"184.csv","","116.60000002384186","resources/trios/L1T2A3.jpg","38","restless",0.7,0.4,0.4,0.447069322036973,"false"
"image-keyboard-response",604,520132,"0.0-4.197-1.197","7u8n4waabd7hl6n",754,"184.csv","","null","resources/maskTrios/BT2B.jpg","null","",NA,NA,NA,NA,""
"image-keyboard-response",605,521337,"0.0-4.197-2.197","7u8n4waabd7hl6n",754,"184.csv","","null","resources/images/fishbone.png","null","",NA,NA,NA,NA,""
"image-keyboard-response",606,521624,"0.0-4.198-0.198","7u8n4waabd7hl6n",754,"184.csv","","284.2000000476837","resources/trios/L1T2A3.jpg","39","restless",0.7,0.4,0.4,0.0115082650755016,"true"
"image-keyboard-response",607,522030,"0.0-4.198-1.198","7u8n4waabd7hl6n",754,"184.csv","","null","resources/maskTrios/BBA3.jpg","null","",NA,NA,NA,NA,""
"image-keyboard-response",608,523237,"0.0-4.198-2.198","7u8n4waabd7hl6n",754,"184.csv","","null","resources/images/coin2.png","null","",NA,NA,NA,NA,""
