"trial_type","trial_index","time_elapsed","internal_node_id","subject","participantCode","walkNumber","success","rt","stimulus","key_press","test_part","leftProb","midProb","rightProb","generatedNum","correct"
"pavlovia",0,904,"0.0-0.0","ebn2c6r72w2zp41",856,"147.csv","","","","","",NA,NA,NA,NA,""
"fullscreen",1,8203,"0.0-1.0","ebn2c6r72w2zp41",856,"147.csv","true","","","","",NA,NA,NA,NA,""
"survey-html-form",2,15460,"0.0-2.0","ebn2c6r72w2zp41",856,"147.csv","","7058","","","",NA,NA,NA,NA,""
"image-keyboard-response",3,27745,"0.0-3.0-0.0","ebn2c6r72w2zp41",856,"147.csv","","12284","resources/images/parrot_nobg.png","13","",NA,NA,NA,NA,""
"image-keyboard-response",4,30746,"0.0-3.0-1.0","ebn2c6r72w2zp41",856,"147.csv","","null","resources/image_sets/111.png","null","",NA,NA,NA,NA,""
"image-keyboard-response",5,36057,"0.0-3.0-2.0","ebn2c6r72w2zp41",856,"147.csv","","5309","resources/image_sets/left_highlight.png","37","",NA,NA,NA,NA,""
"image-keyboard-response",6,38104,"0.0-3.0-3.0","ebn2c6r72w2zp41",856,"147.csv","","2049","resources/image_sets/mid_highlight.png","38","",NA,NA,NA,NA,""
"image-keyboard-response",7,39184,"0.0-3.0-4.0","ebn2c6r72w2zp41",856,"147.csv","","1079","resources/image_sets/right_highlight.png","39","",NA,NA,NA,NA,""
"image-keyboard-response",8,41465,"0.0-3.0-5.0","ebn2c6r72w2zp41",856,"147.csv","","2279","resources/image_sets/111.png","13","",NA,NA,NA,NA,""
"image-keyboard-response",9,44913,"0.0-3.0-6.0","ebn2c6r72w2zp41",856,"147.csv","","3448","resources/images/coin2.png","13","",NA,NA,NA,NA,""
"image-keyboard-response",10,46577,"0.0-3.0-7.0","ebn2c6r72w2zp41",856,"147.csv","","1663","resources/images/fishbone.png","13","",NA,NA,NA,NA,""
"html-keyboard-response",11,50529,"0.0-3.0-8.0","ebn2c6r72w2zp41",856,"147.csv","","3952","<p>You can track your coin total on the top right of your screen. </p><p>At the end of your journey you will be directed to a survey, so please click on the link before exiting the task</p><p>Press Enter to begin</p>","13","",NA,NA,NA,NA,""
"image-keyboard-response",12,54000,"0.0-4.0-0.0","ebn2c6r72w2zp41",856,"147.csv","","3471","resources/trios/L1T4A3.jpg","39","restless",0.9,0.3,0.7,0.644584599978352,"true"
"image-keyboard-response",13,54408,"0.0-4.0-1.0","ebn2c6r72w2zp41",856,"147.csv","","null","resources/maskTrios/BBA3.jpg","null","",NA,NA,NA,NA,""
"image-keyboard-response",14,55621,"0.0-4.0-2.0","ebn2c6r72w2zp41",856,"147.csv","","null","resources/images/coin2.png","null","",NA,NA,NA,NA,""
"image-keyboard-response",15,57169,"0.0-4.1-0.1","ebn2c6r72w2zp41",856,"147.csv","","1547","resources/trios/L1T4A3.jpg","39","restless",0.8,0.3,0.7,0.486605973058479,"true"
"image-keyboard-response",16,57584,"0.0-4.1-1.1","ebn2c6r72w2zp41",856,"147.csv","","null","resources/maskTrios/BBA3.jpg","null","",NA,NA,NA,NA,""
"image-keyboard-response",17,58793,"0.0-4.1-2.1","ebn2c6r72w2zp41",856,"147.csv","","null","resources/images/coin2.png","null","",NA,NA,NA,NA,""
"image-keyboard-response",18,59961,"0.0-4.2-0.2","ebn2c6r72w2zp41",856,"147.csv","","1166","resources/trios/L1T4A3.jpg","37","restless",0.8,0.3,0.7,0.416990160244541,"true"
"image-keyboard-response",19,60370,"0.0-4.2-1.2","ebn2c6r72w2zp41",856,"147.csv","","null","resources/maskTrios/L1BB.jpg","null","",NA,NA,NA,NA,""
"image-keyboard-response",20,61584,"0.0-4.2-2.2","ebn2c6r72w2zp41",856,"147.csv","","null","resources/images/coin2.png","null","",NA,NA,NA,NA,""
"image-keyboard-response",21,62817,"0.0-4.3-0.3","ebn2c6r72w2zp41",856,"147.csv","","1233","resources/trios/L1T4A3.jpg","37","restless",0.8,0.3,0.7,0.938547310461248,"false"
"image-keyboard-response",22,63222,"0.0-4.3-1.3","ebn2c6r72w2zp41",856,"147.csv","","null","resources/maskTrios/L1BB.jpg","null","",NA,NA,NA,NA,""
"image-keyboard-response",23,64432,"0.0-4.3-2.3","ebn2c6r72w2zp41",856,"147.csv","","null","resources/images/fishbone.png","null","",NA,NA,NA,NA,""
"image-keyboard-response",24,64881,"0.0-4.4-0.4","ebn2c6r72w2zp41",856,"147.csv","","448","resources/trios/L1T4A3.jpg","38","restless",0.8,0.3,0.7,0.975054891954147,"false"
"image-keyboard-response",25,65292,"0.0-4.4-1.4","ebn2c6r72w2zp41",856,"147.csv","","null","resources/maskTrios/BT4B.jpg","null","",NA,NA,NA,NA,""
"image-keyboard-response",26,66505,"0.0-4.4-2.4","ebn2c6r72w2zp41",856,"147.csv","","null","resources/images/fishbone.png","null","",NA,NA,NA,NA,""
"image-keyboard-response",27,66769,"0.0-4.5-0.5","ebn2c6r72w2zp41",856,"147.csv","","264","resources/trios/L1T4A3.jpg","39","restless",0.8,0.3,0.8,0.339876930649816,"true"
"image-keyboard-response",28,67173,"0.0-4.5-1.5","ebn2c6r72w2zp41",856,"147.csv","","null","resources/maskTrios/BBA3.jpg","null","",NA,NA,NA,NA,""
"image-keyboard-response",29,68383,"0.0-4.5-2.5","ebn2c6r72w2zp41",856,"147.csv","","null","resources/images/coin2.png","null","",NA,NA,NA,NA,""
"image-keyboard-response",30,69025,"0.0-4.6-0.6","ebn2c6r72w2zp41",856,"147.csv","","641","resources/trios/L1T4A3.jpg","39","restless",0.8,0.3,0.9,0.59244460286705,"true"
"image-keyboard-response",31,69429,"0.0-4.6-1.6","ebn2c6r72w2zp41",856,"147.csv","","null","resources/maskTrios/BBA3.jpg","null","",NA,NA,NA,NA,""
"image-keyboard-response",32,70643,"0.0-4.6-2.6","ebn2c6r72w2zp41",856,"147.csv","","null","resources/images/coin2.png","null","",NA,NA,NA,NA,""
"image-keyboard-response",33,71345,"0.0-4.7-0.7","ebn2c6r72w2zp41",856,"147.csv","","702","resources/trios/L1T4A3.jpg","39","restless",0.8,0.3,0.9,0.124886480027843,"true"
"image-keyboard-response",34,71760,"0.0-4.7-1.7","ebn2c6r72w2zp41",856,"147.csv","","null","resources/maskTrios/BBA3.jpg","null","",NA,NA,NA,NA,""
"image-keyboard-response",35,72973,"0.0-4.7-2.7","ebn2c6r72w2zp41",856,"147.csv","","null","resources/images/coin2.png","null","",NA,NA,NA,NA,""
"image-keyboard-response",36,73296,"0.0-4.8-0.8","ebn2c6r72w2zp41",856,"147.csv","","323","resources/trios/L1T4A3.jpg","39","restless",0.8,0.3,0.9,0.838201573853073,"true"
"image-keyboard-response",37,73708,"0.0-4.8-1.8","ebn2c6r72w2zp41",856,"147.csv","","null","resources/maskTrios/BBA3.jpg","null","",NA,NA,NA,NA,""
"image-keyboard-response",38,74922,"0.0-4.8-2.8","ebn2c6r72w2zp41",856,"147.csv","","null","resources/images/coin2.png","null","",NA,NA,NA,NA,""
"image-keyboard-response",39,75360,"0.0-4.9-0.9","ebn2c6r72w2zp41",856,"147.csv","","439","resources/trios/L1T4A3.jpg","39","restless",0.8,0.3,0.9,0.965181263765668,"false"
"image-keyboard-response",40,75766,"0.0-4.9-1.9","ebn2c6r72w2zp41",856,"147.csv","","null","resources/maskTrios/BBA3.jpg","null","",NA,NA,NA,NA,""
"image-keyboard-response",41,76978,"0.0-4.9-2.9","ebn2c6r72w2zp41",856,"147.csv","","null","resources/images/fishbone.png","null","",NA,NA,NA,NA,""
"image-keyboard-response",42,77265,"0.0-4.10-0.10","ebn2c6r72w2zp41",856,"147.csv","","286","resources/trios/L1T4A3.jpg","38","restless",0.7,0.3,0.9,0.909841886682752,"false"
"image-keyboard-response",43,77666,"0.0-4.10-1.10","ebn2c6r72w2zp41",856,"147.csv","","null","resources/maskTrios/BT4B.jpg","null","",NA,NA,NA,NA,""
"image-keyboard-response",44,78992,"0.0-4.10-2.10","ebn2c6r72w2zp41",856,"147.csv","","null","resources/images/fishbone.png","null","",NA,NA,NA,NA,""
"image-keyboard-response",45,79248,"0.0-4.11-0.11","ebn2c6r72w2zp41",856,"147.csv","","256","resources/trios/L1T4A3.jpg","37","restless",0.7,0.3,0.9,0.51296209569506,"true"
"image-keyboard-response",46,79662,"0.0-4.11-1.11","ebn2c6r72w2zp41",856,"147.csv","","null","resources/maskTrios/L1BB.jpg","null","",NA,NA,NA,NA,""
"image-keyboard-response",47,81002,"0.0-4.11-2.11","ebn2c6r72w2zp41",856,"147.csv","","null","resources/images/coin2.png","null","",NA,NA,NA,NA,""
"image-keyboard-response",48,81328,"0.0-4.12-0.12","ebn2c6r72w2zp41",856,"147.csv","","326","resources/trios/L1T4A3.jpg","37","restless",0.6,0.3,0.9,0.465069228700991,"true"
"image-keyboard-response",49,81737,"0.0-4.12-1.12","ebn2c6r72w2zp41",856,"147.csv","","null","resources/maskTrios/L1BB.jpg","null","",NA,NA,NA,NA,""
"image-keyboard-response",50,83015,"0.0-4.12-2.12","ebn2c6r72w2zp41",856,"147.csv","","null","resources/images/coin2.png","null","",NA,NA,NA,NA,""
"image-keyboard-response",51,83424,"0.0-4.13-0.13","ebn2c6r72w2zp41",856,"147.csv","","410","resources/trios/L1T4A3.jpg","37","restless",0.6,0.3,0.9,0.590356431243931,"true"
"image-keyboard-response",52,83825,"0.0-4.13-1.13","ebn2c6r72w2zp41",856,"147.csv","","null","resources/maskTrios/L1BB.jpg","null","",NA,NA,NA,NA,""
"image-keyboard-response",53,85034,"0.0-4.13-2.13","ebn2c6r72w2zp41",856,"147.csv","","null","resources/images/coin2.png","null","",NA,NA,NA,NA,""
"image-keyboard-response",54,85313,"0.0-4.14-0.14","ebn2c6r72w2zp41",856,"147.csv","","278","resources/trios/L1T4A3.jpg","37","restless",0.5,0.4,0.9,0.437174793426436,"true"
"image-keyboard-response",55,85718,"0.0-4.14-1.14","ebn2c6r72w2zp41",856,"147.csv","","null","resources/maskTrios/L1BB.jpg","null","",NA,NA,NA,NA,""
"image-keyboard-response",56,87045,"0.0-4.14-2.14","ebn2c6r72w2zp41",856,"147.csv","","null","resources/images/coin2.png","null","",NA,NA,NA,NA,""
"image-keyboard-response",57,87329,"0.0-4.15-0.15","ebn2c6r72w2zp41",856,"147.csv","","284","resources/trios/L1T4A3.jpg","37","restless",0.5,0.5,0.9,0.0022235788832583,"true"
"image-keyboard-response",58,87731,"0.0-4.15-1.15","ebn2c6r72w2zp41",856,"147.csv","","null","resources/maskTrios/L1BB.jpg","null","",NA,NA,NA,NA,""
"image-keyboard-response",59,89052,"0.0-4.15-2.15","ebn2c6r72w2zp41",856,"147.csv","","null","resources/images/coin2.png","null","",NA,NA,NA,NA,""
"image-keyboard-response",60,89096,"0.0-4.16-0.16","ebn2c6r72w2zp41",856,"147.csv","","44","resources/trios/L1T4A3.jpg","37","restless",0.5,0.4,0.9,0.73322017140173,"false"
"image-keyboard-response",61,89497,"0.0-4.16-1.16","ebn2c6r72w2zp41",856,"147.csv","","null","resources/maskTrios/L1BB.jpg","null","",NA,NA,NA,NA,""
"image-keyboard-response",62,90710,"0.0-4.16-2.16","ebn2c6r72w2zp41",856,"147.csv","","null","resources/images/fishbone.png","null","",NA,NA,NA,NA,""
"image-keyboard-response",63,91096,"0.0-4.17-0.17","ebn2c6r72w2zp41",856,"147.csv","","386","resources/trios/L1T4A3.jpg","39","restless",0.6,0.4,0.9,0.873506167112533,"true"
"image-keyboard-response",64,91510,"0.0-4.17-1.17","ebn2c6r72w2zp41",856,"147.csv","","null","resources/maskTrios/BBA3.jpg","null","",NA,NA,NA,NA,""
"image-keyboard-response",65,92720,"0.0-4.17-2.17","ebn2c6r72w2zp41",856,"147.csv","","null","resources/images/coin2.png","null","",NA,NA,NA,NA,""
"image-keyboard-response",66,93065,"0.0-4.18-0.18","ebn2c6r72w2zp41",856,"147.csv","","344","resources/trios/L1T4A3.jpg","39","restless",0.6,0.4,0.9,0.0815615546618754,"true"
"image-keyboard-response",67,93470,"0.0-4.18-1.18","ebn2c6r72w2zp41",856,"147.csv","","null","resources/maskTrios/BBA3.jpg","null","",NA,NA,NA,NA,""
"image-keyboard-response",68,94684,"0.0-4.18-2.18","ebn2c6r72w2zp41",856,"147.csv","","null","resources/images/coin2.png","null","",NA,NA,NA,NA,""
"image-keyboard-response",69,95616,"0.0-4.19-0.19","ebn2c6r72w2zp41",856,"147.csv","","932","resources/trios/L1T4A3.jpg","39","restless",0.6,0.4,0.9,0.119865720197451,"true"
"image-keyboard-response",70,96024,"0.0-4.19-1.19","ebn2c6r72w2zp41",856,"147.csv","","null","resources/maskTrios/BBA3.jpg","null","",NA,NA,NA,NA,""
"image-keyboard-response",71,97234,"0.0-4.19-2.19","ebn2c6r72w2zp41",856,"147.csv","","null","resources/images/coin2.png","null","",NA,NA,NA,NA,""
"image-keyboard-response",72,97512,"0.0-4.20-0.20","ebn2c6r72w2zp41",856,"147.csv","","278","resources/trios/L1T4A3.jpg","39","restless",0.6,0.4,0.9,0.570763769927203,"true"
"image-keyboard-response",73,97922,"0.0-4.20-1.20","ebn2c6r72w2zp41",856,"147.csv","","null","resources/maskTrios/BBA3.jpg","null","",NA,NA,NA,NA,""
"image-keyboard-response",74,99129,"0.0-4.20-2.20","ebn2c6r72w2zp41",856,"147.csv","","null","resources/images/coin2.png","null","",NA,NA,NA,NA,""
"image-keyboard-response",75,99400,"0.0-4.21-0.21","ebn2c6r72w2zp41",856,"147.csv","","272","resources/trios/L1T4A3.jpg","39","restless",0.6,0.4,0.9,0.277275671347518,"true"
"image-keyboard-response",76,99814,"0.0-4.21-1.21","ebn2c6r72w2zp41",856,"147.csv","","null","resources/maskTrios/BBA3.jpg","null","",NA,NA,NA,NA,""
"image-keyboard-response",77,101029,"0.0-4.21-2.21","ebn2c6r72w2zp41",856,"147.csv","","null","resources/images/coin2.png","null","",NA,NA,NA,NA,""
"image-keyboard-response",78,101280,"0.0-4.22-0.22","ebn2c6r72w2zp41",856,"147.csv","","252","resources/trios/L1T4A3.jpg","39","restless",0.6,0.4,0.9,0.540564481478575,"true"
"image-keyboard-response",79,101682,"0.0-4.22-1.22","ebn2c6r72w2zp41",856,"147.csv","","null","resources/maskTrios/BBA3.jpg","null","",NA,NA,NA,NA,""
"image-keyboard-response",80,103034,"0.0-4.22-2.22","ebn2c6r72w2zp41",856,"147.csv","","null","resources/images/coin2.png","null","",NA,NA,NA,NA,""
"image-keyboard-response",81,103265,"0.0-4.23-0.23","ebn2c6r72w2zp41",856,"147.csv","","230","resources/trios/L1T4A3.jpg","39","restless",0.6,0.4,0.9,0.6702794460638,"true"
"image-keyboard-response",82,103674,"0.0-4.23-1.23","ebn2c6r72w2zp41",856,"147.csv","","null","resources/maskTrios/BBA3.jpg","null","",NA,NA,NA,NA,""
"image-keyboard-response",83,104882,"0.0-4.23-2.23","ebn2c6r72w2zp41",856,"147.csv","","null","resources/images/coin2.png","null","",NA,NA,NA,NA,""
"image-keyboard-response",84,105161,"0.0-4.24-0.24","ebn2c6r72w2zp41",856,"147.csv","","277","resources/trios/L1T4A3.jpg","39","restless",0.6,0.4,0.9,0.0581781127777226,"true"
"image-keyboard-response",85,105568,"0.0-4.24-1.24","ebn2c6r72w2zp41",856,"147.csv","","null","resources/maskTrios/BBA3.jpg","null","",NA,NA,NA,NA,""
"image-keyboard-response",86,106775,"0.0-4.24-2.24","ebn2c6r72w2zp41",856,"147.csv","","null","resources/images/coin2.png","null","",NA,NA,NA,NA,""
"image-keyboard-response",87,107041,"0.0-4.25-0.25","ebn2c6r72w2zp41",856,"147.csv","","266","resources/trios/L1T4A3.jpg","39","restless",0.6,0.4,0.9,0.58204092273497,"true"
"image-keyboard-response",88,107442,"0.0-4.25-1.25","ebn2c6r72w2zp41",856,"147.csv","","null","resources/maskTrios/BBA3.jpg","null","",NA,NA,NA,NA,""
"image-keyboard-response",89,108654,"0.0-4.25-2.25","ebn2c6r72w2zp41",856,"147.csv","","null","resources/images/coin2.png","null","",NA,NA,NA,NA,""
"image-keyboard-response",90,108936,"0.0-4.26-0.26","ebn2c6r72w2zp41",856,"147.csv","","281","resources/trios/L1T4A3.jpg","39","restless",0.6,0.4,0.8,0.977746966469055,"false"
"image-keyboard-response",91,109351,"0.0-4.26-1.26","ebn2c6r72w2zp41",856,"147.csv","","null","resources/maskTrios/BBA3.jpg","null","",NA,NA,NA,NA,""
"image-keyboard-response",92,110560,"0.0-4.26-2.26","ebn2c6r72w2zp41",856,"147.csv","","null","resources/images/fishbone.png","null","",NA,NA,NA,NA,""
"image-keyboard-response",93,110880,"0.0-4.27-0.27","ebn2c6r72w2zp41",856,"147.csv","","321","resources/trios/L1T4A3.jpg","37","restless",0.5,0.4,0.8,0.514829178332346,"false"
"image-keyboard-response",94,111292,"0.0-4.27-1.27","ebn2c6r72w2zp41",856,"147.csv","","null","resources/maskTrios/L1BB.jpg","null","",NA,NA,NA,NA,""
"image-keyboard-response",95,112568,"0.0-4.27-2.27","ebn2c6r72w2zp41",856,"147.csv","","null","resources/images/fishbone.png","null","",NA,NA,NA,NA,""
"image-keyboard-response",96,112865,"0.0-4.28-0.28","ebn2c6r72w2zp41",856,"147.csv","","296","resources/trios/L1T4A3.jpg","38","restless",0.5,0.4,0.8,0.359052545007712,"true"
"image-keyboard-response",97,113268,"0.0-4.28-1.28","ebn2c6r72w2zp41",856,"147.csv","","null","resources/maskTrios/BT4B.jpg","null","",NA,NA,NA,NA,""
"image-keyboard-response",98,114585,"0.0-4.28-2.28","ebn2c6r72w2zp41",856,"147.csv","","null","resources/images/coin2.png","null","",NA,NA,NA,NA,""
"image-keyboard-response",99,114840,"0.0-4.29-0.29","ebn2c6r72w2zp41",856,"147.csv","","255","resources/trios/L1T4A3.jpg","38","restless",0.5,0.4,0.8,0.0430133600023934,"true"
"image-keyboard-response",100,115252,"0.0-4.29-1.29","ebn2c6r72w2zp41",856,"147.csv","","null","resources/maskTrios/BT4B.jpg","null","",NA,NA,NA,NA,""
"image-keyboard-response",101,116600,"0.0-4.29-2.29","ebn2c6r72w2zp41",856,"147.csv","","null","resources/images/coin2.png","null","",NA,NA,NA,NA,""
"image-keyboard-response",102,116945,"0.0-4.30-0.30","ebn2c6r72w2zp41",856,"147.csv","","344","resources/trios/L1T4A3.jpg","38","restless",0.5,0.4,0.7,0.914730874549638,"false"
"image-keyboard-response",103,117346,"0.0-4.30-1.30","ebn2c6r72w2zp41",856,"147.csv","","null","resources/maskTrios/BT4B.jpg","null","",NA,NA,NA,NA,""
"image-keyboard-response",104,118681,"0.0-4.30-2.30","ebn2c6r72w2zp41",856,"147.csv","","null","resources/images/fishbone.png","null","",NA,NA,NA,NA,""
"image-keyboard-response",105,118961,"0.0-4.31-0.31","ebn2c6r72w2zp41",856,"147.csv","","279","resources/trios/L1T4A3.jpg","39","restless",0.5,0.4,0.7,0.360377676769498,"true"
"image-keyboard-response",106,119364,"0.0-4.31-1.31","ebn2c6r72w2zp41",856,"147.csv","","null","resources/maskTrios/BBA3.jpg","null","",NA,NA,NA,NA,""
"image-keyboard-response",107,120696,"0.0-4.31-2.31","ebn2c6r72w2zp41",856,"147.csv","","null","resources/images/coin2.png","null","",NA,NA,NA,NA,""
"image-keyboard-response",108,120785,"0.0-4.32-0.32","ebn2c6r72w2zp41",856,"147.csv","","88","resources/trios/L1T4A3.jpg","39","restless",0.4,0.4,0.7,0.978573086475967,"false"
"image-keyboard-response",109,121189,"0.0-4.32-1.32","ebn2c6r72w2zp41",856,"147.csv","","null","resources/maskTrios/BBA3.jpg","null","",NA,NA,NA,NA,""
"image-keyboard-response",110,122399,"0.0-4.32-2.32","ebn2c6r72w2zp41",856,"147.csv","","null","resources/images/fishbone.png","null","",NA,NA,NA,NA,""
"image-keyboard-response",111,122664,"0.0-4.33-0.33","ebn2c6r72w2zp41",856,"147.csv","","266","resources/trios/L1T4A3.jpg","37","restless",0.4,0.4,0.6,0.513837507627808,"false"
"image-keyboard-response",112,123066,"0.0-4.33-1.33","ebn2c6r72w2zp41",856,"147.csv","","null","resources/maskTrios/L1BB.jpg","null","",NA,NA,NA,NA,""
"image-keyboard-response",113,124276,"0.0-4.33-2.33","ebn2c6r72w2zp41",856,"147.csv","","null","resources/images/fishbone.png","null","",NA,NA,NA,NA,""
"image-keyboard-response",114,124521,"0.0-4.34-0.34","ebn2c6r72w2zp41",856,"147.csv","","245","resources/trios/L1T4A3.jpg","38","restless",0.4,0.4,0.6,0.802819751570485,"false"
"image-keyboard-response",115,124928,"0.0-4.34-1.34","ebn2c6r72w2zp41",856,"147.csv","","null","resources/maskTrios/BT4B.jpg","null","",NA,NA,NA,NA,""
"image-keyboard-response",116,126137,"0.0-4.34-2.34","ebn2c6r72w2zp41",856,"147.csv","","null","resources/images/fishbone.png","null","",NA,NA,NA,NA,""
"image-keyboard-response",117,126376,"0.0-4.35-0.35","ebn2c6r72w2zp41",856,"147.csv","","239","resources/trios/L1T4A3.jpg","39","restless",0.4,0.4,0.6,0.871485408485096,"false"
"image-keyboard-response",118,126791,"0.0-4.35-1.35","ebn2c6r72w2zp41",856,"147.csv","","null","resources/maskTrios/BBA3.jpg","null","",NA,NA,NA,NA,""
"image-keyboard-response",119,128004,"0.0-4.35-2.35","ebn2c6r72w2zp41",856,"147.csv","","null","resources/images/fishbone.png","null","",NA,NA,NA,NA,""
"image-keyboard-response",120,128256,"0.0-4.36-0.36","ebn2c6r72w2zp41",856,"147.csv","","252","resources/trios/L1T4A3.jpg","37","restless",0.4,0.4,0.6,0.971285681406676,"false"
"image-keyboard-response",121,128671,"0.0-4.36-1.36","ebn2c6r72w2zp41",856,"147.csv","","null","resources/maskTrios/L1BB.jpg","null","",NA,NA,NA,NA,""
"image-keyboard-response",122,130009,"0.0-4.36-2.36","ebn2c6r72w2zp41",856,"147.csv","","null","resources/images/fishbone.png","null","",NA,NA,NA,NA,""
"image-keyboard-response",123,130249,"0.0-4.37-0.37","ebn2c6r72w2zp41",856,"147.csv","","238","resources/trios/L1T4A3.jpg","38","restless",0.4,0.4,0.6,0.81138457806492,"false"
"image-keyboard-response",124,130664,"0.0-4.37-1.37","ebn2c6r72w2zp41",856,"147.csv","","null","resources/maskTrios/BT4B.jpg","null","",NA,NA,NA,NA,""
"image-keyboard-response",125,131879,"0.0-4.37-2.37","ebn2c6r72w2zp41",856,"147.csv","","null","resources/images/fishbone.png","null","",NA,NA,NA,NA,""
"image-keyboard-response",126,132128,"0.0-4.38-0.38","ebn2c6r72w2zp41",856,"147.csv","","249","resources/trios/L1T4A3.jpg","39","restless",0.4,0.4,0.6,0.903624143574973,"false"
"image-keyboard-response",127,132532,"0.0-4.38-1.38","ebn2c6r72w2zp41",856,"147.csv","","null","resources/maskTrios/BBA3.jpg","null","",NA,NA,NA,NA,""
"image-keyboard-response",128,133746,"0.0-4.38-2.38","ebn2c6r72w2zp41",856,"147.csv","","null","resources/images/fishbone.png","null","",NA,NA,NA,NA,""
"image-keyboard-response",129,133960,"0.0-4.39-0.39","ebn2c6r72w2zp41",856,"147.csv","","214","resources/trios/L1T4A3.jpg","37","restless",0.4,0.4,0.6,0.360819704086817,"true"
"image-keyboard-response",130,134370,"0.0-4.39-1.39","ebn2c6r72w2zp41",856,"147.csv","","null","resources/maskTrios/L1BB.jpg","null","",NA,NA,NA,NA,""
"image-keyboard-response",131,135579,"0.0-4.39-2.39","ebn2c6r72w2zp41",856,"147.csv","","null","resources/images/coin2.png","null","",NA,NA,NA,NA,""
"image-keyboard-response",132,135825,"0.0-4.40-0.40","ebn2c6r72w2zp41",856,"147.csv","","245","resources/trios/L1T4A3.jpg","37","restless",0.4,0.4,0.6,0.529680099553995,"false"
"image-keyboard-response",133,136232,"0.0-4.40-1.40","ebn2c6r72w2zp41",856,"147.csv","","null","resources/maskTrios/L1BB.jpg","null","",NA,NA,NA,NA,""
"image-keyboard-response",134,137444,"0.0-4.40-2.40","ebn2c6r72w2zp41",856,"147.csv","","null","resources/images/fishbone.png","null","",NA,NA,NA,NA,""
"image-keyboard-response",135,137665,"0.0-4.41-0.41","ebn2c6r72w2zp41",856,"147.csv","","219","resources/trios/L1T4A3.jpg","38","restless",0.4,0.4,0.6,0.908229940983331,"false"
"image-keyboard-response",136,138068,"0.0-4.41-1.41","ebn2c6r72w2zp41",856,"147.csv","","null","resources/maskTrios/BT4B.jpg","null","",NA,NA,NA,NA,""
"image-keyboard-response",137,139279,"0.0-4.41-2.41","ebn2c6r72w2zp41",856,"147.csv","","null","resources/images/fishbone.png","null","",NA,NA,NA,NA,""
"image-keyboard-response",138,139312,"0.0-4.42-0.42","ebn2c6r72w2zp41",856,"147.csv","","35","resources/trios/L1T4A3.jpg","39","restless",0.4,0.4,0.5,0.825763993543703,"false"
"image-keyboard-response",139,139726,"0.0-4.42-1.42","ebn2c6r72w2zp41",856,"147.csv","","null","resources/maskTrios/BBA3.jpg","null","",NA,NA,NA,NA,""
"image-keyboard-response",140,140936,"0.0-4.42-2.42","ebn2c6r72w2zp41",856,"147.csv","","null","resources/images/fishbone.png","null","",NA,NA,NA,NA,""
"image-keyboard-response",141,140993,"0.0-4.43-0.43","ebn2c6r72w2zp41",856,"147.csv","","56","resources/trios/L1T4A3.jpg","37","restless",0.4,0.4,0.5,0.308320434629338,"true"
"image-keyboard-response",142,141398,"0.0-4.43-1.43","ebn2c6r72w2zp41",856,"147.csv","","null","resources/maskTrios/L1BB.jpg","null","",NA,NA,NA,NA,""
"image-keyboard-response",143,142613,"0.0-4.43-2.43","ebn2c6r72w2zp41",856,"147.csv","","null","resources/images/coin2.png","null","",NA,NA,NA,NA,""
"image-keyboard-response",144,142704,"0.0-4.44-0.44","ebn2c6r72w2zp41",856,"147.csv","","92","resources/trios/L1T4A3.jpg","37","restless",0.4,0.4,0.5,0.028864063477453,"true"
"image-keyboard-response",145,143108,"0.0-4.44-1.44","ebn2c6r72w2zp41",856,"147.csv","","null","resources/maskTrios/L1BB.jpg","null","",NA,NA,NA,NA,""
"image-keyboard-response",146,144321,"0.0-4.44-2.44","ebn2c6r72w2zp41",856,"147.csv","","null","resources/images/coin2.png","null","",NA,NA,NA,NA,""
"image-keyboard-response",147,144617,"0.0-4.45-0.45","ebn2c6r72w2zp41",856,"147.csv","","296","resources/trios/L1T4A3.jpg","37","restless",0.4,0.5,0.5,0.441749093364343,"false"
"image-keyboard-response",148,145022,"0.0-4.45-1.45","ebn2c6r72w2zp41",856,"147.csv","","null","resources/maskTrios/L1BB.jpg","null","",NA,NA,NA,NA,""
"image-keyboard-response",149,146232,"0.0-4.45-2.45","ebn2c6r72w2zp41",856,"147.csv","","null","resources/images/fishbone.png","null","",NA,NA,NA,NA,""
"image-keyboard-response",150,146937,"0.0-4.46-0.46","ebn2c6r72w2zp41",856,"147.csv","","704","resources/trios/L1T4A3.jpg","39","restless",0.4,0.5,0.5,0.0504365550082638,"true"
"image-keyboard-response",151,147349,"0.0-4.46-1.46","ebn2c6r72w2zp41",856,"147.csv","","null","resources/maskTrios/BBA3.jpg","null","",NA,NA,NA,NA,""
"image-keyboard-response",152,148554,"0.0-4.46-2.46","ebn2c6r72w2zp41",856,"147.csv","","null","resources/images/coin2.png","null","",NA,NA,NA,NA,""
"image-keyboard-response",153,148801,"0.0-4.47-0.47","ebn2c6r72w2zp41",856,"147.csv","","246","resources/trios/L1T4A3.jpg","39","restless",0.4,0.5,0.5,0.613205320980705,"false"
"image-keyboard-response",154,149208,"0.0-4.47-1.47","ebn2c6r72w2zp41",856,"147.csv","","null","resources/maskTrios/BBA3.jpg","null","",NA,NA,NA,NA,""
"image-keyboard-response",155,150420,"0.0-4.47-2.47","ebn2c6r72w2zp41",856,"147.csv","","null","resources/images/fishbone.png","null","",NA,NA,NA,NA,""
"image-keyboard-response",156,150657,"0.0-4.48-0.48","ebn2c6r72w2zp41",856,"147.csv","","237","resources/trios/L1T4A3.jpg","37","restless",0.4,0.5,0.5,0.889199091792192,"false"
"image-keyboard-response",157,151071,"0.0-4.48-1.48","ebn2c6r72w2zp41",856,"147.csv","","null","resources/maskTrios/L1BB.jpg","null","",NA,NA,NA,NA,""
"image-keyboard-response",158,152283,"0.0-4.48-2.48","ebn2c6r72w2zp41",856,"147.csv","","null","resources/images/fishbone.png","null","",NA,NA,NA,NA,""
"image-keyboard-response",159,152545,"0.0-4.49-0.49","ebn2c6r72w2zp41",856,"147.csv","","261","resources/trios/L1T4A3.jpg","39","restless",0.4,0.5,0.5,0.508889809603985,"false"
"image-keyboard-response",160,152950,"0.0-4.49-1.49","ebn2c6r72w2zp41",856,"147.csv","","null","resources/maskTrios/BBA3.jpg","null","",NA,NA,NA,NA,""
"image-keyboard-response",161,154290,"0.0-4.49-2.49","ebn2c6r72w2zp41",856,"147.csv","","null","resources/images/fishbone.png","null","",NA,NA,NA,NA,""
"image-keyboard-response",162,154384,"0.0-4.50-0.50","ebn2c6r72w2zp41",856,"147.csv","","94","resources/trios/L1T4A3.jpg","38","restless",0.4,0.5,0.5,0.445903383120752,"true"
"image-keyboard-response",163,154798,"0.0-4.50-1.50","ebn2c6r72w2zp41",856,"147.csv","","null","resources/maskTrios/BT4B.jpg","null","",NA,NA,NA,NA,""
"image-keyboard-response",164,156013,"0.0-4.50-2.50","ebn2c6r72w2zp41",856,"147.csv","","null","resources/images/coin2.png","null","",NA,NA,NA,NA,""
"image-keyboard-response",165,156321,"0.0-4.51-0.51","ebn2c6r72w2zp41",856,"147.csv","","307","resources/trios/L1T4A3.jpg","38","restless",0.4,0.6,0.5,0.973422246279694,"false"
"image-keyboard-response",166,156731,"0.0-4.51-1.51","ebn2c6r72w2zp41",856,"147.csv","","null","resources/maskTrios/BT4B.jpg","null","",NA,NA,NA,NA,""
"image-keyboard-response",167,157943,"0.0-4.51-2.51","ebn2c6r72w2zp41",856,"147.csv","","null","resources/images/fishbone.png","null","",NA,NA,NA,NA,""
"image-keyboard-response",168,158137,"0.0-4.52-0.52","ebn2c6r72w2zp41",856,"147.csv","","193","resources/trios/L1T4A3.jpg","39","restless",0.4,0.6,0.5,0.533522485438635,"false"
"image-keyboard-response",169,158566,"0.0-4.52-1.52","ebn2c6r72w2zp41",856,"147.csv","","null","resources/maskTrios/BBA3.jpg","null","",NA,NA,NA,NA,""
"image-keyboard-response",170,159774,"0.0-4.52-2.52","ebn2c6r72w2zp41",856,"147.csv","","null","resources/images/fishbone.png","null","",NA,NA,NA,NA,""
"image-keyboard-response",171,160001,"0.0-4.53-0.53","ebn2c6r72w2zp41",856,"147.csv","","226","resources/trios/L1T4A3.jpg","37","restless",0.4,0.6,0.5,0.242979536418076,"true"
"image-keyboard-response",172,160414,"0.0-4.53-1.53","ebn2c6r72w2zp41",856,"147.csv","","null","resources/maskTrios/L1BB.jpg","null","",NA,NA,NA,NA,""
"image-keyboard-response",173,161625,"0.0-4.53-2.53","ebn2c6r72w2zp41",856,"147.csv","","null","resources/images/coin2.png","null","",NA,NA,NA,NA,""
"image-keyboard-response",174,161865,"0.0-4.54-0.54","ebn2c6r72w2zp41",856,"147.csv","","240","resources/trios/L1T4A3.jpg","37","restless",0.4,0.6,0.5,0.893942080235019,"false"
"image-keyboard-response",175,162276,"0.0-4.54-1.54","ebn2c6r72w2zp41",856,"147.csv","","null","resources/maskTrios/L1BB.jpg","null","",NA,NA,NA,NA,""
"image-keyboard-response",176,163630,"0.0-4.54-2.54","ebn2c6r72w2zp41",856,"147.csv","","null","resources/images/fishbone.png","null","",NA,NA,NA,NA,""
"image-keyboard-response",177,163896,"0.0-4.55-0.55","ebn2c6r72w2zp41",856,"147.csv","","266","resources/trios/L1T4A3.jpg","39","restless",0.4,0.6,0.5,0.4028477314542,"true"
"image-keyboard-response",178,164300,"0.0-4.55-1.55","ebn2c6r72w2zp41",856,"147.csv","","null","resources/maskTrios/BBA3.jpg","null","",NA,NA,NA,NA,""
"image-keyboard-response",179,165654,"0.0-4.55-2.55","ebn2c6r72w2zp41",856,"147.csv","","null","resources/images/coin2.png","null","",NA,NA,NA,NA,""
"image-keyboard-response",180,165889,"0.0-4.56-0.56","ebn2c6r72w2zp41",856,"147.csv","","234","resources/trios/L1T4A3.jpg","39","restless",0.4,0.6,0.4,0.516919224816434,"false"
"image-keyboard-response",181,166292,"0.0-4.56-1.56","ebn2c6r72w2zp41",856,"147.csv","","null","resources/maskTrios/BBA3.jpg","null","",NA,NA,NA,NA,""
"image-keyboard-response",182,167504,"0.0-4.56-2.56","ebn2c6r72w2zp41",856,"147.csv","","null","resources/images/fishbone.png","null","",NA,NA,NA,NA,""
"image-keyboard-response",183,168240,"0.0-4.57-0.57","ebn2c6r72w2zp41",856,"147.csv","","737","resources/trios/L1T4A3.jpg","38","restless",0.4,0.6,0.3,0.140378923497336,"true"
"image-keyboard-response",184,168652,"0.0-4.57-1.57","ebn2c6r72w2zp41",856,"147.csv","","null","resources/maskTrios/BT4B.jpg","null","",NA,NA,NA,NA,""
"image-keyboard-response",185,169865,"0.0-4.57-2.57","ebn2c6r72w2zp41",856,"147.csv","","null","resources/images/coin2.png","null","",NA,NA,NA,NA,""
"image-keyboard-response",186,170129,"0.0-4.58-0.58","ebn2c6r72w2zp41",856,"147.csv","","262","resources/trios/L1T4A3.jpg","38","restless",0.4,0.5,0.3,0.363970656905608,"true"
"image-keyboard-response",187,170536,"0.0-4.58-1.58","ebn2c6r72w2zp41",856,"147.csv","","null","resources/maskTrios/BT4B.jpg","null","",NA,NA,NA,NA,""
"image-keyboard-response",188,171748,"0.0-4.58-2.58","ebn2c6r72w2zp41",856,"147.csv","","null","resources/images/coin2.png","null","",NA,NA,NA,NA,""
"image-keyboard-response",189,172096,"0.0-4.59-0.59","ebn2c6r72w2zp41",856,"147.csv","","349","resources/trios/L1T4A3.jpg","38","restless",0.4,0.5,0.3,0.192418302732963,"true"
"image-keyboard-response",190,172538,"0.0-4.59-1.59","ebn2c6r72w2zp41",856,"147.csv","","null","resources/maskTrios/BT4B.jpg","null","",NA,NA,NA,NA,""
"image-keyboard-response",191,173752,"0.0-4.59-2.59","ebn2c6r72w2zp41",856,"147.csv","","null","resources/images/coin2.png","null","",NA,NA,NA,NA,""
"image-keyboard-response",192,174017,"0.0-4.60-0.60","ebn2c6r72w2zp41",856,"147.csv","","263","resources/trios/L1T4A3.jpg","38","restless",0.4,0.6,0.3,0.787367315425863,"false"
"image-keyboard-response",193,174422,"0.0-4.60-1.60","ebn2c6r72w2zp41",856,"147.csv","","null","resources/maskTrios/BT4B.jpg","null","",NA,NA,NA,NA,""
"image-keyboard-response",194,175636,"0.0-4.60-2.60","ebn2c6r72w2zp41",856,"147.csv","","null","resources/images/fishbone.png","null","",NA,NA,NA,NA,""
"image-keyboard-response",195,175873,"0.0-4.61-0.61","ebn2c6r72w2zp41",856,"147.csv","","236","resources/trios/L1T4A3.jpg","39","restless",0.4,0.6,0.3,0.312780204020071,"false"
"image-keyboard-response",196,176275,"0.0-4.61-1.61","ebn2c6r72w2zp41",856,"147.csv","","null","resources/maskTrios/BBA3.jpg","null","",NA,NA,NA,NA,""
"image-keyboard-response",197,177489,"0.0-4.61-2.61","ebn2c6r72w2zp41",856,"147.csv","","null","resources/images/fishbone.png","null","",NA,NA,NA,NA,""
"image-keyboard-response",198,177873,"0.0-4.62-0.62","ebn2c6r72w2zp41",856,"147.csv","","384","resources/trios/L1T4A3.jpg","37","restless",0.4,0.6,0.3,0.72526241997217,"false"
"image-keyboard-response",199,178286,"0.0-4.62-1.62","ebn2c6r72w2zp41",856,"147.csv","","null","resources/maskTrios/L1BB.jpg","null","",NA,NA,NA,NA,""
"image-keyboard-response",200,179498,"0.0-4.62-2.62","ebn2c6r72w2zp41",856,"147.csv","","null","resources/images/fishbone.png","null","",NA,NA,NA,NA,""
"image-keyboard-response",201,179792,"0.0-4.63-0.63","ebn2c6r72w2zp41",856,"147.csv","","294","resources/trios/L1T4A3.jpg","39","restless",0.4,0.5,0.3,0.131448686629797,"true"
"image-keyboard-response",202,180202,"0.0-4.63-1.63","ebn2c6r72w2zp41",856,"147.csv","","null","resources/maskTrios/BBA3.jpg","null","",NA,NA,NA,NA,""
"image-keyboard-response",203,181416,"0.0-4.63-2.63","ebn2c6r72w2zp41",856,"147.csv","","null","resources/images/coin2.png","null","",NA,NA,NA,NA,""
"image-keyboard-response",204,181737,"0.0-4.64-0.64","ebn2c6r72w2zp41",856,"147.csv","","320","resources/trios/L1T4A3.jpg","39","restless",0.4,0.5,0.3,0.694110878414114,"false"
"image-keyboard-response",205,182149,"0.0-4.64-1.64","ebn2c6r72w2zp41",856,"147.csv","","null","resources/maskTrios/BBA3.jpg","null","",NA,NA,NA,NA,""
"image-keyboard-response",206,183360,"0.0-4.64-2.64","ebn2c6r72w2zp41",856,"147.csv","","null","resources/images/fishbone.png","null","",NA,NA,NA,NA,""
"image-keyboard-response",207,183616,"0.0-4.65-0.65","ebn2c6r72w2zp41",856,"147.csv","","256","resources/trios/L1T4A3.jpg","38","restless",0.4,0.5,0.3,0.00711749094934122,"true"
"image-keyboard-response",208,184028,"0.0-4.65-1.65","ebn2c6r72w2zp41",856,"147.csv","","null","resources/maskTrios/BT4B.jpg","null","",NA,NA,NA,NA,""
"image-keyboard-response",209,185243,"0.0-4.65-2.65","ebn2c6r72w2zp41",856,"147.csv","","null","resources/images/coin2.png","null","",NA,NA,NA,NA,""
"image-keyboard-response",210,185496,"0.0-4.66-0.66","ebn2c6r72w2zp41",856,"147.csv","","253","resources/trios/L1T4A3.jpg","38","restless",0.4,0.5,0.3,0.490548213917385,"true"
"image-keyboard-response",211,185898,"0.0-4.66-1.66","ebn2c6r72w2zp41",856,"147.csv","","null","resources/maskTrios/BT4B.jpg","null","",NA,NA,NA,NA,""
"image-keyboard-response",212,187249,"0.0-4.66-2.66","ebn2c6r72w2zp41",856,"147.csv","","null","resources/images/coin2.png","null","",NA,NA,NA,NA,""
"image-keyboard-response",213,187505,"0.0-4.67-0.67","ebn2c6r72w2zp41",856,"147.csv","","255","resources/trios/L1T4A3.jpg","38","restless",0.4,0.5,0.3,0.240326815698071,"true"
"image-keyboard-response",214,187921,"0.0-4.67-1.67","ebn2c6r72w2zp41",856,"147.csv","","null","resources/maskTrios/BT4B.jpg","null","",NA,NA,NA,NA,""
"image-keyboard-response",215,189274,"0.0-4.67-2.67","ebn2c6r72w2zp41",856,"147.csv","","null","resources/images/coin2.png","null","",NA,NA,NA,NA,""
"image-keyboard-response",216,189441,"0.0-4.68-0.68","ebn2c6r72w2zp41",856,"147.csv","","166","resources/trios/L1T4A3.jpg","38","restless",0.4,0.5,0.3,0.956587904097689,"false"
"image-keyboard-response",217,189848,"0.0-4.68-1.68","ebn2c6r72w2zp41",856,"147.csv","","null","resources/maskTrios/BT4B.jpg","null","",NA,NA,NA,NA,""
"image-keyboard-response",218,191061,"0.0-4.68-2.68","ebn2c6r72w2zp41",856,"147.csv","","null","resources/images/fishbone.png","null","",NA,NA,NA,NA,""
"image-keyboard-response",219,191392,"0.0-4.69-0.69","ebn2c6r72w2zp41",856,"147.csv","","332","resources/trios/L1T4A3.jpg","37","restless",0.5,0.5,0.3,0.71019077903435,"false"
"image-keyboard-response",220,191795,"0.0-4.69-1.69","ebn2c6r72w2zp41",856,"147.csv","","null","resources/maskTrios/L1BB.jpg","null","",NA,NA,NA,NA,""
"image-keyboard-response",221,193008,"0.0-4.69-2.69","ebn2c6r72w2zp41",856,"147.csv","","null","resources/images/fishbone.png","null","",NA,NA,NA,NA,""
"image-keyboard-response",222,193168,"0.0-4.70-0.70","ebn2c6r72w2zp41",856,"147.csv","","160","resources/trios/L1T4A3.jpg","39","restless",0.5,0.5,0.3,0.654825572969017,"false"
"image-keyboard-response",223,193582,"0.0-4.70-1.70","ebn2c6r72w2zp41",856,"147.csv","","null","resources/maskTrios/BBA3.jpg","null","",NA,NA,NA,NA,""
"image-keyboard-response",224,194797,"0.0-4.70-2.70","ebn2c6r72w2zp41",856,"147.csv","","null","resources/images/fishbone.png","null","",NA,NA,NA,NA,""
"image-keyboard-response",225,195000,"0.0-4.71-0.71","ebn2c6r72w2zp41",856,"147.csv","","203","resources/trios/L1T4A3.jpg","37","restless",0.5,0.5,0.3,0.888592163663145,"false"
"image-keyboard-response",226,195402,"0.0-4.71-1.71","ebn2c6r72w2zp41",856,"147.csv","","null","resources/maskTrios/L1BB.jpg","null","",NA,NA,NA,NA,""
"image-keyboard-response",227,196613,"0.0-4.71-2.71","ebn2c6r72w2zp41",856,"147.csv","","null","resources/images/fishbone.png","null","",NA,NA,NA,NA,""
"image-keyboard-response",228,196809,"0.0-4.72-0.72","ebn2c6r72w2zp41",856,"147.csv","","194","resources/trios/L1T4A3.jpg","38","restless",0.5,0.5,0.3,0.878909695197326,"false"
"image-keyboard-response",229,197220,"0.0-4.72-1.72","ebn2c6r72w2zp41",856,"147.csv","","null","resources/maskTrios/BT4B.jpg","null","",NA,NA,NA,NA,""
"image-keyboard-response",230,198432,"0.0-4.72-2.72","ebn2c6r72w2zp41",856,"147.csv","","null","resources/images/fishbone.png","null","",NA,NA,NA,NA,""
"image-keyboard-response",231,198584,"0.0-4.73-0.73","ebn2c6r72w2zp41",856,"147.csv","","152","resources/trios/L1T4A3.jpg","39","restless",0.5,0.4,0.2,0.378988529565077,"false"
"image-keyboard-response",232,198991,"0.0-4.73-1.73","ebn2c6r72w2zp41",856,"147.csv","","null","resources/maskTrios/BBA3.jpg","null","",NA,NA,NA,NA,""
"image-keyboard-response",233,200204,"0.0-4.73-2.73","ebn2c6r72w2zp41",856,"147.csv","","null","resources/images/fishbone.png","null","",NA,NA,NA,NA,""
"image-keyboard-response",234,200240,"0.0-4.74-0.74","ebn2c6r72w2zp41",856,"147.csv","","37","resources/trios/L1T4A3.jpg","37","restless",0.5,0.4,0.2,0.367853923330223,"true"
"image-keyboard-response",235,200649,"0.0-4.74-1.74","ebn2c6r72w2zp41",856,"147.csv","","null","resources/maskTrios/L1BB.jpg","null","",NA,NA,NA,NA,""
"image-keyboard-response",236,201864,"0.0-4.74-2.74","ebn2c6r72w2zp41",856,"147.csv","","null","resources/images/coin2.png","null","",NA,NA,NA,NA,""
"image-keyboard-response",237,202145,"0.0-4.75-0.75","ebn2c6r72w2zp41",856,"147.csv","","280","resources/trios/L1T4A3.jpg","37","restless",0.5,0.4,0.2,0.556057197482129,"false"
"image-keyboard-response",238,202551,"0.0-4.75-1.75","ebn2c6r72w2zp41",856,"147.csv","","null","resources/maskTrios/L1BB.jpg","null","",NA,NA,NA,NA,""
"image-keyboard-response",239,203870,"0.0-4.75-2.75","ebn2c6r72w2zp41",856,"147.csv","","null","resources/images/fishbone.png","null","",NA,NA,NA,NA,""
"image-keyboard-response",240,204128,"0.0-4.76-0.76","ebn2c6r72w2zp41",856,"147.csv","","258","resources/trios/L1T4A3.jpg","38","restless",0.5,0.4,0.2,0.263615304007067,"true"
"image-keyboard-response",241,204540,"0.0-4.76-1.76","ebn2c6r72w2zp41",856,"147.csv","","null","resources/maskTrios/BT4B.jpg","null","",NA,NA,NA,NA,""
"image-keyboard-response",242,205892,"0.0-4.76-2.76","ebn2c6r72w2zp41",856,"147.csv","","null","resources/images/coin2.png","null","",NA,NA,NA,NA,""
"image-keyboard-response",243,206120,"0.0-4.77-0.77","ebn2c6r72w2zp41",856,"147.csv","","228","resources/trios/L1T4A3.jpg","38","restless",0.6,0.4,0.2,0.147884138448826,"true"
"image-keyboard-response",244,206528,"0.0-4.77-1.77","ebn2c6r72w2zp41",856,"147.csv","","null","resources/maskTrios/BT4B.jpg","null","",NA,NA,NA,NA,""
"image-keyboard-response",245,207740,"0.0-4.77-2.77","ebn2c6r72w2zp41",856,"147.csv","","null","resources/images/coin2.png","null","",NA,NA,NA,NA,""
"image-keyboard-response",246,208352,"0.0-4.78-0.78","ebn2c6r72w2zp41",856,"147.csv","","612","resources/trios/L1T4A3.jpg","38","restless",0.6,0.4,0.2,0.379148379183251,"true"
"image-keyboard-response",247,208758,"0.0-4.78-1.78","ebn2c6r72w2zp41",856,"147.csv","","null","resources/maskTrios/BT4B.jpg","null","",NA,NA,NA,NA,""
"image-keyboard-response",248,209966,"0.0-4.78-2.78","ebn2c6r72w2zp41",856,"147.csv","","null","resources/images/coin2.png","null","",NA,NA,NA,NA,""
"image-keyboard-response",249,210264,"0.0-4.79-0.79","ebn2c6r72w2zp41",856,"147.csv","","297","resources/trios/L1T4A3.jpg","38","restless",0.6,0.4,0.2,0.372746472270883,"true"
"image-keyboard-response",250,210666,"0.0-4.79-1.79","ebn2c6r72w2zp41",856,"147.csv","","null","resources/maskTrios/BT4B.jpg","null","",NA,NA,NA,NA,""
"image-keyboard-response",251,211879,"0.0-4.79-2.79","ebn2c6r72w2zp41",856,"147.csv","","null","resources/images/coin2.png","null","",NA,NA,NA,NA,""
"image-keyboard-response",252,212145,"0.0-4.80-0.80","ebn2c6r72w2zp41",856,"147.csv","","265","resources/trios/L1T4A3.jpg","38","restless",0.6,0.4,0.3,0.903681307149896,"false"
"image-keyboard-response",253,212547,"0.0-4.80-1.80","ebn2c6r72w2zp41",856,"147.csv","","null","resources/maskTrios/BT4B.jpg","null","",NA,NA,NA,NA,""
"image-keyboard-response",254,213757,"0.0-4.80-2.80","ebn2c6r72w2zp41",856,"147.csv","","null","resources/images/fishbone.png","null","",NA,NA,NA,NA,""
"image-keyboard-response",255,214024,"0.0-4.81-0.81","ebn2c6r72w2zp41",856,"147.csv","","266","resources/trios/L1T4A3.jpg","39","restless",0.6,0.3,0.3,0.190279000876865,"true"
"image-keyboard-response",256,214426,"0.0-4.81-1.81","ebn2c6r72w2zp41",856,"147.csv","","null","resources/maskTrios/BBA3.jpg","null","",NA,NA,NA,NA,""
"image-keyboard-response",257,215637,"0.0-4.81-2.81","ebn2c6r72w2zp41",856,"147.csv","","null","resources/images/coin2.png","null","",NA,NA,NA,NA,""
"image-keyboard-response",258,215872,"0.0-4.82-0.82","ebn2c6r72w2zp41",856,"147.csv","","236","resources/trios/L1T4A3.jpg","39","restless",0.6,0.3,0.3,0.922349724796236,"false"
"image-keyboard-response",259,216274,"0.0-4.82-1.82","ebn2c6r72w2zp41",856,"147.csv","","null","resources/maskTrios/BBA3.jpg","null","",NA,NA,NA,NA,""
"image-keyboard-response",260,217485,"0.0-4.82-2.82","ebn2c6r72w2zp41",856,"147.csv","","null","resources/images/fishbone.png","null","",NA,NA,NA,NA,""
"image-keyboard-response",261,217720,"0.0-4.83-0.83","ebn2c6r72w2zp41",856,"147.csv","","236","resources/trios/L1T4A3.jpg","37","restless",0.6,0.3,0.3,0.855756259692741,"false"
"image-keyboard-response",262,218121,"0.0-4.83-1.83","ebn2c6r72w2zp41",856,"147.csv","","null","resources/maskTrios/L1BB.jpg","null","",NA,NA,NA,NA,""
"image-keyboard-response",263,219332,"0.0-4.83-2.83","ebn2c6r72w2zp41",856,"147.csv","","null","resources/images/fishbone.png","null","",NA,NA,NA,NA,""
"image-keyboard-response",264,219553,"0.0-4.84-0.84","ebn2c6r72w2zp41",856,"147.csv","","220","resources/trios/L1T4A3.jpg","39","restless",0.6,0.2,0.3,0.874575927932236,"false"
"image-keyboard-response",265,219954,"0.0-4.84-1.84","ebn2c6r72w2zp41",856,"147.csv","","null","resources/maskTrios/BBA3.jpg","null","",NA,NA,NA,NA,""
"image-keyboard-response",266,221165,"0.0-4.84-2.84","ebn2c6r72w2zp41",856,"147.csv","","null","resources/images/fishbone.png","null","",NA,NA,NA,NA,""
"image-keyboard-response",267,221489,"0.0-4.85-0.85","ebn2c6r72w2zp41",856,"147.csv","","322","resources/trios/L1T4A3.jpg","38","restless",0.6,0.3,0.3,0.863751611741521,"false"
"image-keyboard-response",268,221899,"0.0-4.85-1.85","ebn2c6r72w2zp41",856,"147.csv","","null","resources/maskTrios/BT4B.jpg","null","",NA,NA,NA,NA,""
"image-keyboard-response",269,223111,"0.0-4.85-2.85","ebn2c6r72w2zp41",856,"147.csv","","null","resources/images/fishbone.png","null","",NA,NA,NA,NA,""
"image-keyboard-response",270,223385,"0.0-4.86-0.86","ebn2c6r72w2zp41",856,"147.csv","","274","resources/trios/L1T4A3.jpg","39","restless",0.6,0.3,0.3,0.682171539806456,"false"
"image-keyboard-response",271,223797,"0.0-4.86-1.86","ebn2c6r72w2zp41",856,"147.csv","","null","resources/maskTrios/BBA3.jpg","null","",NA,NA,NA,NA,""
"image-keyboard-response",272,225121,"0.0-4.86-2.86","ebn2c6r72w2zp41",856,"147.csv","","null","resources/images/fishbone.png","null","",NA,NA,NA,NA,""
"image-keyboard-response",273,225265,"0.0-4.87-0.87","ebn2c6r72w2zp41",856,"147.csv","","143","resources/trios/L1T4A3.jpg","37","restless",0.6,0.3,0.3,0.480431895831561,"true"
"image-keyboard-response",274,225677,"0.0-4.87-1.87","ebn2c6r72w2zp41",856,"147.csv","","null","resources/maskTrios/L1BB.jpg","null","",NA,NA,NA,NA,""
"image-keyboard-response",275,226892,"0.0-4.87-2.87","ebn2c6r72w2zp41",856,"147.csv","","null","resources/images/coin2.png","null","",NA,NA,NA,NA,""
"image-keyboard-response",276,227273,"0.0-4.88-0.88","ebn2c6r72w2zp41",856,"147.csv","","379","resources/trios/L1T4A3.jpg","37","restless",0.6,0.3,0.3,0.617845217280785,"false"
"image-keyboard-response",277,227683,"0.0-4.88-1.88","ebn2c6r72w2zp41",856,"147.csv","","null","resources/maskTrios/L1BB.jpg","null","",NA,NA,NA,NA,""
"image-keyboard-response",278,228888,"0.0-4.88-2.88","ebn2c6r72w2zp41",856,"147.csv","","null","resources/images/fishbone.png","null","",NA,NA,NA,NA,""
"image-keyboard-response",279,229152,"0.0-4.89-0.89","ebn2c6r72w2zp41",856,"147.csv","","262","resources/trios/L1T4A3.jpg","39","restless",0.6,0.3,0.4,0.901803656070752,"false"
"image-keyboard-response",280,229561,"0.0-4.89-1.89","ebn2c6r72w2zp41",856,"147.csv","","null","resources/maskTrios/BBA3.jpg","null","",NA,NA,NA,NA,""
"image-keyboard-response",281,230770,"0.0-4.89-2.89","ebn2c6r72w2zp41",856,"147.csv","","null","resources/images/fishbone.png","null","",NA,NA,NA,NA,""
"image-keyboard-response",282,231065,"0.0-4.90-0.90","ebn2c6r72w2zp41",856,"147.csv","","295","resources/trios/L1T4A3.jpg","38","restless",0.6,0.3,0.4,0.41451869299967,"false"
"image-keyboard-response",283,231471,"0.0-4.90-1.90","ebn2c6r72w2zp41",856,"147.csv","","null","resources/maskTrios/BT4B.jpg","null","",NA,NA,NA,NA,""
"image-keyboard-response",284,232678,"0.0-4.90-2.90","ebn2c6r72w2zp41",856,"147.csv","","null","resources/images/fishbone.png","null","",NA,NA,NA,NA,""
"image-keyboard-response",285,232825,"0.0-4.91-0.91","ebn2c6r72w2zp41",856,"147.csv","","145","resources/trios/L1T4A3.jpg","39","restless",0.6,0.3,0.4,0.416002386373018,"false"
"image-keyboard-response",286,233236,"0.0-4.91-1.91","ebn2c6r72w2zp41",856,"147.csv","","null","resources/maskTrios/BBA3.jpg","null","",NA,NA,NA,NA,""
"image-keyboard-response",287,234445,"0.0-4.91-2.91","ebn2c6r72w2zp41",856,"147.csv","","null","resources/images/fishbone.png","null","",NA,NA,NA,NA,""
"image-keyboard-response",288,234505,"0.0-4.92-0.92","ebn2c6r72w2zp41",856,"147.csv","","60","resources/trios/L1T4A3.jpg","37","restless",0.6,0.4,0.4,0.872888549488171,"false"
"image-keyboard-response",289,234909,"0.0-4.92-1.92","ebn2c6r72w2zp41",856,"147.csv","","null","resources/maskTrios/L1BB.jpg","null","",NA,NA,NA,NA,""
"image-keyboard-response",290,236117,"0.0-4.92-2.92","ebn2c6r72w2zp41",856,"147.csv","","null","resources/images/fishbone.png","null","",NA,NA,NA,NA,""
"image-keyboard-response",291,236248,"0.0-4.93-0.93","ebn2c6r72w2zp41",856,"147.csv","","131","resources/trios/L1T4A3.jpg","37","restless",0.6,0.4,0.4,0.78131949646621,"false"
"image-keyboard-response",292,236658,"0.0-4.93-1.93","ebn2c6r72w2zp41",856,"147.csv","","null","resources/maskTrios/L1BB.jpg","null","",NA,NA,NA,NA,""
"image-keyboard-response",293,237873,"0.0-4.93-2.93","ebn2c6r72w2zp41",856,"147.csv","","null","resources/images/fishbone.png","null","",NA,NA,NA,NA,""
"image-keyboard-response",294,237952,"0.0-4.94-0.94","ebn2c6r72w2zp41",856,"147.csv","","79","resources/trios/L1T4A3.jpg","39","restless",0.6,0.4,0.4,0.467856703264379,"false"
"image-keyboard-response",295,238364,"0.0-4.94-1.94","ebn2c6r72w2zp41",856,"147.csv","","null","resources/maskTrios/BBA3.jpg","null","",NA,NA,NA,NA,""
"image-keyboard-response",296,239577,"0.0-4.94-2.94","ebn2c6r72w2zp41",856,"147.csv","","null","resources/images/fishbone.png","null","",NA,NA,NA,NA,""
"image-keyboard-response",297,239968,"0.0-4.95-0.95","ebn2c6r72w2zp41",856,"147.csv","","391","resources/trios/L1T4A3.jpg","38","restless",0.6,0.4,0.4,0.6913325740297,"false"
"image-keyboard-response",298,240373,"0.0-4.95-1.95","ebn2c6r72w2zp41",856,"147.csv","","null","resources/maskTrios/BT4B.jpg","null","",NA,NA,NA,NA,""
"image-keyboard-response",299,241589,"0.0-4.95-2.95","ebn2c6r72w2zp41",856,"147.csv","","null","resources/images/fishbone.png","null","",NA,NA,NA,NA,""
"image-keyboard-response",300,241889,"0.0-4.96-0.96","ebn2c6r72w2zp41",856,"147.csv","","299","resources/trios/L1T4A3.jpg","39","restless",0.6,0.4,0.4,0.644552120964214,"false"
"image-keyboard-response",301,242291,"0.0-4.96-1.96","ebn2c6r72w2zp41",856,"147.csv","","null","resources/maskTrios/BBA3.jpg","null","",NA,NA,NA,NA,""
"image-keyboard-response",302,243505,"0.0-4.96-2.96","ebn2c6r72w2zp41",856,"147.csv","","null","resources/images/fishbone.png","null","",NA,NA,NA,NA,""
"image-keyboard-response",303,243592,"0.0-4.97-0.97","ebn2c6r72w2zp41",856,"147.csv","","87","resources/trios/L1T4A3.jpg","37","restless",0.6,0.4,0.4,0.39991527542439,"true"
"image-keyboard-response",304,243998,"0.0-4.97-1.97","ebn2c6r72w2zp41",856,"147.csv","","null","resources/maskTrios/L1BB.jpg","null","",NA,NA,NA,NA,""
"image-keyboard-response",305,245206,"0.0-4.97-2.97","ebn2c6r72w2zp41",856,"147.csv","","null","resources/images/coin2.png","null","",NA,NA,NA,NA,""
"image-keyboard-response",306,245488,"0.0-4.98-0.98","ebn2c6r72w2zp41",856,"147.csv","","283","resources/trios/L1T4A3.jpg","37","restless",0.6,0.4,0.4,0.984971330286902,"false"
"image-keyboard-response",307,245889,"0.0-4.98-1.98","ebn2c6r72w2zp41",856,"147.csv","","null","resources/maskTrios/L1BB.jpg","null","",NA,NA,NA,NA,""
"image-keyboard-response",308,247101,"0.0-4.98-2.98","ebn2c6r72w2zp41",856,"147.csv","","null","resources/images/fishbone.png","null","",NA,NA,NA,NA,""
"image-keyboard-response",309,247177,"0.0-4.99-0.99","ebn2c6r72w2zp41",856,"147.csv","","76","resources/trios/L1T4A3.jpg","39","restless",0.6,0.4,0.5,0.684274823033436,"false"
"image-keyboard-response",310,247578,"0.0-4.99-1.99","ebn2c6r72w2zp41",856,"147.csv","","null","resources/maskTrios/BBA3.jpg","null","",NA,NA,NA,NA,""
"image-keyboard-response",311,248788,"0.0-4.99-2.99","ebn2c6r72w2zp41",856,"147.csv","","null","resources/images/fishbone.png","null","",NA,NA,NA,NA,""
"image-keyboard-response",312,248961,"0.0-4.100-0.100","ebn2c6r72w2zp41",856,"147.csv","","173","resources/trios/L1T4A3.jpg","38","restless",0.6,0.4,0.5,0.0429968045658856,"true"
"image-keyboard-response",313,249377,"0.0-4.100-1.100","ebn2c6r72w2zp41",856,"147.csv","","null","resources/maskTrios/BT4B.jpg","null","",NA,NA,NA,NA,""
"image-keyboard-response",314,250587,"0.0-4.100-2.100","ebn2c6r72w2zp41",856,"147.csv","","null","resources/images/coin2.png","null","",NA,NA,NA,NA,""
"image-keyboard-response",315,250897,"0.0-4.101-0.101","ebn2c6r72w2zp41",856,"147.csv","","308","resources/trios/L1T4A3.jpg","38","restless",0.6,0.4,0.5,0.29900801568516,"true"
"image-keyboard-response",316,251302,"0.0-4.101-1.101","ebn2c6r72w2zp41",856,"147.csv","","null","resources/maskTrios/BT4B.jpg","null","",NA,NA,NA,NA,""
"image-keyboard-response",317,252516,"0.0-4.101-2.101","ebn2c6r72w2zp41",856,"147.csv","","null","resources/images/coin2.png","null","",NA,NA,NA,NA,""
"image-keyboard-response",318,252832,"0.0-4.102-0.102","ebn2c6r72w2zp41",856,"147.csv","","315","resources/trios/L1T4A3.jpg","38","restless",0.7,0.4,0.4,0.220305307518961,"true"
"image-keyboard-response",319,253233,"0.0-4.102-1.102","ebn2c6r72w2zp41",856,"147.csv","","null","resources/maskTrios/BT4B.jpg","null","",NA,NA,NA,NA,""
"image-keyboard-response",320,254525,"0.0-4.102-2.102","ebn2c6r72w2zp41",856,"147.csv","","null","resources/images/coin2.png","null","",NA,NA,NA,NA,""
"image-keyboard-response",321,254784,"0.0-4.103-0.103","ebn2c6r72w2zp41",856,"147.csv","","259","resources/trios/L1T4A3.jpg","38","restless",0.7,0.4,0.4,0.0136975756102574,"true"
"image-keyboard-response",322,255193,"0.0-4.103-1.103","ebn2c6r72w2zp41",856,"147.csv","","null","resources/maskTrios/BT4B.jpg","null","",NA,NA,NA,NA,""
"image-keyboard-response",323,256533,"0.0-4.103-2.103","ebn2c6r72w2zp41",856,"147.csv","","null","resources/images/coin2.png","null","",NA,NA,NA,NA,""
"image-keyboard-response",324,256713,"0.0-4.104-0.104","ebn2c6r72w2zp41",856,"147.csv","","179","resources/trios/L1T4A3.jpg","38","restless",0.7,0.4,0.4,0.52092231907158,"false"
"image-keyboard-response",325,257125,"0.0-4.104-1.104","ebn2c6r72w2zp41",856,"147.csv","","null","resources/maskTrios/BT4B.jpg","null","",NA,NA,NA,NA,""
"image-keyboard-response",326,258336,"0.0-4.104-2.104","ebn2c6r72w2zp41",856,"147.csv","","null","resources/images/fishbone.png","null","",NA,NA,NA,NA,""
"image-keyboard-response",327,258576,"0.0-4.105-0.105","ebn2c6r72w2zp41",856,"147.csv","","239","resources/trios/L1T4A3.jpg","39","restless",0.7,0.4,0.4,0.175976464047009,"true"
"image-keyboard-response",328,258990,"0.0-4.105-1.105","ebn2c6r72w2zp41",856,"147.csv","","null","resources/maskTrios/BBA3.jpg","null","",NA,NA,NA,NA,""
"image-keyboard-response",329,260205,"0.0-4.105-2.105","ebn2c6r72w2zp41",856,"147.csv","","null","resources/images/coin2.png","null","",NA,NA,NA,NA,""
"image-keyboard-response",330,260457,"0.0-4.106-0.106","ebn2c6r72w2zp41",856,"147.csv","","251","resources/trios/L1T4A3.jpg","39","restless",0.7,0.4,0.4,0.0933223278167189,"true"
"image-keyboard-response",331,260861,"0.0-4.106-1.106","ebn2c6r72w2zp41",856,"147.csv","","null","resources/maskTrios/BBA3.jpg","null","",NA,NA,NA,NA,""
"image-keyboard-response",332,262071,"0.0-4.106-2.106","ebn2c6r72w2zp41",856,"147.csv","","null","resources/images/coin2.png","null","",NA,NA,NA,NA,""
"image-keyboard-response",333,262425,"0.0-4.107-0.107","ebn2c6r72w2zp41",856,"147.csv","","353","resources/trios/L1T4A3.jpg","39","restless",0.7,0.4,0.4,0.0684550510666335,"true"
"image-keyboard-response",334,262868,"0.0-4.107-1.107","ebn2c6r72w2zp41",856,"147.csv","","null","resources/maskTrios/BBA3.jpg","null","",NA,NA,NA,NA,""
"image-keyboard-response",335,264077,"0.0-4.107-2.107","ebn2c6r72w2zp41",856,"147.csv","","null","resources/images/coin2.png","null","",NA,NA,NA,NA,""
"image-keyboard-response",336,264280,"0.0-4.108-0.108","ebn2c6r72w2zp41",856,"147.csv","","203","resources/trios/L1T4A3.jpg","39","restless",0.8,0.4,0.4,0.756799656175639,"false"
"image-keyboard-response",337,264695,"0.0-4.108-1.108","ebn2c6r72w2zp41",856,"147.csv","","null","resources/maskTrios/BBA3.jpg","null","",NA,NA,NA,NA,""
"image-keyboard-response",338,265909,"0.0-4.108-2.108","ebn2c6r72w2zp41",856,"147.csv","","null","resources/images/fishbone.png","null","",NA,NA,NA,NA,""
"image-keyboard-response",339,266161,"0.0-4.109-0.109","ebn2c6r72w2zp41",856,"147.csv","","251","resources/trios/L1T4A3.jpg","37","restless",0.7,0.4,0.4,0.114097869228503,"true"
"image-keyboard-response",340,266563,"0.0-4.109-1.109","ebn2c6r72w2zp41",856,"147.csv","","null","resources/maskTrios/L1BB.jpg","null","",NA,NA,NA,NA,""
"image-keyboard-response",341,267917,"0.0-4.109-2.109","ebn2c6r72w2zp41",856,"147.csv","","null","resources/images/coin2.png","null","",NA,NA,NA,NA,""
"image-keyboard-response",342,268161,"0.0-4.110-0.110","ebn2c6r72w2zp41",856,"147.csv","","243","resources/trios/L1T4A3.jpg","37","restless",0.7,0.4,0.4,0.7824575973919,"false"
"image-keyboard-response",343,268567,"0.0-4.110-1.110","ebn2c6r72w2zp41",856,"147.csv","","null","resources/maskTrios/L1BB.jpg","null","",NA,NA,NA,NA,""
"image-keyboard-response",344,269778,"0.0-4.110-2.110","ebn2c6r72w2zp41",856,"147.csv","","null","resources/images/fishbone.png","null","",NA,NA,NA,NA,""
"image-keyboard-response",345,270009,"0.0-4.111-0.111","ebn2c6r72w2zp41",856,"147.csv","","229","resources/trios/L1T4A3.jpg","38","restless",0.7,0.4,0.4,0.473249110627552,"false"
"image-keyboard-response",346,270413,"0.0-4.111-1.111","ebn2c6r72w2zp41",856,"147.csv","","null","resources/maskTrios/BT4B.jpg","null","",NA,NA,NA,NA,""
"image-keyboard-response",347,271623,"0.0-4.111-2.111","ebn2c6r72w2zp41",856,"147.csv","","null","resources/images/fishbone.png","null","",NA,NA,NA,NA,""
"image-keyboard-response",348,271713,"0.0-4.112-0.112","ebn2c6r72w2zp41",856,"147.csv","","89","resources/trios/L1T4A3.jpg","39","restless",0.7,0.4,0.4,0.457422277339187,"false"
"image-keyboard-response",349,272117,"0.0-4.112-1.112","ebn2c6r72w2zp41",856,"147.csv","","null","resources/maskTrios/BBA3.jpg","null","",NA,NA,NA,NA,""
"image-keyboard-response",350,273322,"0.0-4.112-2.112","ebn2c6r72w2zp41",856,"147.csv","","null","resources/images/fishbone.png","null","",NA,NA,NA,NA,""
"image-keyboard-response",351,273496,"0.0-4.113-0.113","ebn2c6r72w2zp41",856,"147.csv","","175","resources/trios/L1T4A3.jpg","37","restless",0.7,0.4,0.4,0.388198342173642,"true"
"image-keyboard-response",352,273909,"0.0-4.113-1.113","ebn2c6r72w2zp41",856,"147.csv","","null","resources/maskTrios/L1BB.jpg","null","",NA,NA,NA,NA,""
"image-keyboard-response",353,275120,"0.0-4.113-2.113","ebn2c6r72w2zp41",856,"147.csv","","null","resources/images/coin2.png","null","",NA,NA,NA,NA,""
"image-keyboard-response",354,275337,"0.0-4.114-0.114","ebn2c6r72w2zp41",856,"147.csv","","217","resources/trios/L1T4A3.jpg","37","restless",0.7,0.5,0.4,0.476709016216981,"true"
"image-keyboard-response",355,275738,"0.0-4.114-1.114","ebn2c6r72w2zp41",856,"147.csv","","null","resources/maskTrios/L1BB.jpg","null","",NA,NA,NA,NA,""
"image-keyboard-response",356,276951,"0.0-4.114-2.114","ebn2c6r72w2zp41",856,"147.csv","","null","resources/images/coin2.png","null","",NA,NA,NA,NA,""
"image-keyboard-response",357,277152,"0.0-4.115-0.115","ebn2c6r72w2zp41",856,"147.csv","","200","resources/trios/L1T4A3.jpg","37","restless",0.7,0.5,0.4,0.403682510927313,"true"
"image-keyboard-response",358,277557,"0.0-4.115-1.115","ebn2c6r72w2zp41",856,"147.csv","","null","resources/maskTrios/L1BB.jpg","null","",NA,NA,NA,NA,""
"image-keyboard-response",359,278770,"0.0-4.115-2.115","ebn2c6r72w2zp41",856,"147.csv","","null","resources/images/coin2.png","null","",NA,NA,NA,NA,""
"image-keyboard-response",360,278904,"0.0-4.116-0.116","ebn2c6r72w2zp41",856,"147.csv","","133","resources/trios/L1T4A3.jpg","37","restless",0.7,0.5,0.4,0.369582312390938,"true"
"image-keyboard-response",361,279313,"0.0-4.116-1.116","ebn2c6r72w2zp41",856,"147.csv","","null","resources/maskTrios/L1BB.jpg","null","",NA,NA,NA,NA,""
"image-keyboard-response",362,280526,"0.0-4.116-2.116","ebn2c6r72w2zp41",856,"147.csv","","null","resources/images/coin2.png","null","",NA,NA,NA,NA,""
"image-keyboard-response",363,280777,"0.0-4.117-0.117","ebn2c6r72w2zp41",856,"147.csv","","252","resources/trios/L1T4A3.jpg","37","restless",0.7,0.5,0.4,0.521284442453916,"true"
"image-keyboard-response",364,281193,"0.0-4.117-1.117","ebn2c6r72w2zp41",856,"147.csv","","null","resources/maskTrios/L1BB.jpg","null","",NA,NA,NA,NA,""
"image-keyboard-response",365,282401,"0.0-4.117-2.117","ebn2c6r72w2zp41",856,"147.csv","","null","resources/images/coin2.png","null","",NA,NA,NA,NA,""
"image-keyboard-response",366,282441,"0.0-4.118-0.118","ebn2c6r72w2zp41",856,"147.csv","","38","resources/trios/L1T4A3.jpg","37","restless",0.7,0.6,0.5,0.621494993026946,"true"
"image-keyboard-response",367,282847,"0.0-4.118-1.118","ebn2c6r72w2zp41",856,"147.csv","","null","resources/maskTrios/L1BB.jpg","null","",NA,NA,NA,NA,""
"image-keyboard-response",368,284059,"0.0-4.118-2.118","ebn2c6r72w2zp41",856,"147.csv","","null","resources/images/coin2.png","null","",NA,NA,NA,NA,""
"image-keyboard-response",369,284185,"0.0-4.119-0.119","ebn2c6r72w2zp41",856,"147.csv","","126","resources/trios/L1T4A3.jpg","37","restless",0.7,0.6,0.5,0.385539784253377,"true"
"image-keyboard-response",370,284585,"0.0-4.119-1.119","ebn2c6r72w2zp41",856,"147.csv","","null","resources/maskTrios/L1BB.jpg","null","",NA,NA,NA,NA,""
"image-keyboard-response",371,285798,"0.0-4.119-2.119","ebn2c6r72w2zp41",856,"147.csv","","null","resources/images/coin2.png","null","",NA,NA,NA,NA,""
"image-keyboard-response",372,285921,"0.0-4.120-0.120","ebn2c6r72w2zp41",856,"147.csv","","123","resources/trios/L1T4A3.jpg","37","restless",0.7,0.6,0.5,0.0832266968624356,"true"
"image-keyboard-response",373,286323,"0.0-4.120-1.120","ebn2c6r72w2zp41",856,"147.csv","","null","resources/maskTrios/L1BB.jpg","null","",NA,NA,NA,NA,""
"image-keyboard-response",374,287534,"0.0-4.120-2.120","ebn2c6r72w2zp41",856,"147.csv","","null","resources/images/coin2.png","null","",NA,NA,NA,NA,""
"image-keyboard-response",375,287825,"0.0-4.121-0.121","ebn2c6r72w2zp41",856,"147.csv","","290","resources/trios/L1T4A3.jpg","37","restless",0.7,0.6,0.5,0.220369538693757,"true"
"image-keyboard-response",376,288237,"0.0-4.121-1.121","ebn2c6r72w2zp41",856,"147.csv","","null","resources/maskTrios/L1BB.jpg","null","",NA,NA,NA,NA,""
"image-keyboard-response",377,289541,"0.0-4.121-2.121","ebn2c6r72w2zp41",856,"147.csv","","null","resources/images/coin2.png","null","",NA,NA,NA,NA,""
"image-keyboard-response",378,289865,"0.0-4.122-0.122","ebn2c6r72w2zp41",856,"147.csv","","322","resources/trios/L1T4A3.jpg","37","restless",0.7,0.6,0.5,0.15732603861015,"true"
"image-keyboard-response",379,290276,"0.0-4.122-1.122","ebn2c6r72w2zp41",856,"147.csv","","null","resources/maskTrios/L1BB.jpg","null","",NA,NA,NA,NA,""
"image-keyboard-response",380,291563,"0.0-4.122-2.122","ebn2c6r72w2zp41",856,"147.csv","","null","resources/images/coin2.png","null","",NA,NA,NA,NA,""
"image-keyboard-response",381,291745,"0.0-4.123-0.123","ebn2c6r72w2zp41",856,"147.csv","","181","resources/trios/L1T4A3.jpg","37","restless",0.7,0.6,0.5,0.022083699561058,"true"
"image-keyboard-response",382,292152,"0.0-4.123-1.123","ebn2c6r72w2zp41",856,"147.csv","","null","resources/maskTrios/L1BB.jpg","null","",NA,NA,NA,NA,""
"image-keyboard-response",383,293356,"0.0-4.123-2.123","ebn2c6r72w2zp41",856,"147.csv","","null","resources/images/coin2.png","null","",NA,NA,NA,NA,""
"image-keyboard-response",384,293488,"0.0-4.124-0.124","ebn2c6r72w2zp41",856,"147.csv","","131","resources/trios/L1T4A3.jpg","37","restless",0.7,0.6,0.5,0.559265838460811,"true"
"image-keyboard-response",385,293896,"0.0-4.124-1.124","ebn2c6r72w2zp41",856,"147.csv","","null","resources/maskTrios/L1BB.jpg","null","",NA,NA,NA,NA,""
"image-keyboard-response",386,295142,"0.0-4.124-2.124","ebn2c6r72w2zp41",856,"147.csv","","null","resources/images/coin2.png","null","",NA,NA,NA,NA,""
"image-keyboard-response",387,295416,"0.0-4.125-0.125","ebn2c6r72w2zp41",856,"147.csv","","275","resources/trios/L1T4A3.jpg","37","restless",0.7,0.6,0.5,0.016885503847496,"true"
"image-keyboard-response",388,295828,"0.0-4.125-1.125","ebn2c6r72w2zp41",856,"147.csv","","null","resources/maskTrios/L1BB.jpg","null","",NA,NA,NA,NA,""
"image-keyboard-response",389,297037,"0.0-4.125-2.125","ebn2c6r72w2zp41",856,"147.csv","","null","resources/images/coin2.png","null","",NA,NA,NA,NA,""
"image-keyboard-response",390,297304,"0.0-4.126-0.126","ebn2c6r72w2zp41",856,"147.csv","","267","resources/trios/L1T4A3.jpg","37","restless",0.7,0.6,0.5,0.617659530067322,"true"
"image-keyboard-response",391,297705,"0.0-4.126-1.126","ebn2c6r72w2zp41",856,"147.csv","","null","resources/maskTrios/L1BB.jpg","null","",NA,NA,NA,NA,""
"image-keyboard-response",392,298921,"0.0-4.126-2.126","ebn2c6r72w2zp41",856,"147.csv","","null","resources/images/coin2.png","null","",NA,NA,NA,NA,""
"image-keyboard-response",393,298984,"0.0-4.127-0.127","ebn2c6r72w2zp41",856,"147.csv","","63","resources/trios/L1T4A3.jpg","37","restless",0.6,0.6,0.5,0.813702821878738,"false"
"image-keyboard-response",394,299399,"0.0-4.127-1.127","ebn2c6r72w2zp41",856,"147.csv","","null","resources/maskTrios/L1BB.jpg","null","",NA,NA,NA,NA,""
"image-keyboard-response",395,300612,"0.0-4.127-2.127","ebn2c6r72w2zp41",856,"147.csv","","null","resources/images/fishbone.png","null","",NA,NA,NA,NA,""
"image-keyboard-response",396,300841,"0.0-4.128-0.128","ebn2c6r72w2zp41",856,"147.csv","","229","resources/trios/L1T4A3.jpg","39","restless",0.6,0.6,0.6,0.530895813896935,"true"
"image-keyboard-response",397,301251,"0.0-4.128-1.128","ebn2c6r72w2zp41",856,"147.csv","","null","resources/maskTrios/BBA3.jpg","null","",NA,NA,NA,NA,""
"image-keyboard-response",398,302464,"0.0-4.128-2.128","ebn2c6r72w2zp41",856,"147.csv","","null","resources/images/coin2.png","null","",NA,NA,NA,NA,""
"image-keyboard-response",399,302696,"0.0-4.129-0.129","ebn2c6r72w2zp41",856,"147.csv","","232","resources/trios/L1T4A3.jpg","39","restless",0.6,0.6,0.7,0.646229271379089,"true"
"image-keyboard-response",400,303103,"0.0-4.129-1.129","ebn2c6r72w2zp41",856,"147.csv","","null","resources/maskTrios/BBA3.jpg","null","",NA,NA,NA,NA,""
"image-keyboard-response",401,304312,"0.0-4.129-2.129","ebn2c6r72w2zp41",856,"147.csv","","null","resources/images/coin2.png","null","",NA,NA,NA,NA,""
"image-keyboard-response",402,304560,"0.0-4.130-0.130","ebn2c6r72w2zp41",856,"147.csv","","248","resources/trios/L1T4A3.jpg","39","restless",0.6,0.6,0.7,0.778092861521228,"false"
"image-keyboard-response",403,304968,"0.0-4.130-1.130","ebn2c6r72w2zp41",856,"147.csv","","null","resources/maskTrios/BBA3.jpg","null","",NA,NA,NA,NA,""
"image-keyboard-response",404,306180,"0.0-4.130-2.130","ebn2c6r72w2zp41",856,"147.csv","","null","resources/images/fishbone.png","null","",NA,NA,NA,NA,""
"image-keyboard-response",405,306425,"0.0-4.131-0.131","ebn2c6r72w2zp41",856,"147.csv","","244","resources/trios/L1T4A3.jpg","37","restless",0.6,0.6,0.7,0.37320766612763,"true"
"image-keyboard-response",406,306834,"0.0-4.131-1.131","ebn2c6r72w2zp41",856,"147.csv","","null","resources/maskTrios/L1BB.jpg","null","",NA,NA,NA,NA,""
"image-keyboard-response",407,308191,"0.0-4.131-2.131","ebn2c6r72w2zp41",856,"147.csv","","null","resources/images/coin2.png","null","",NA,NA,NA,NA,""
"image-keyboard-response",408,308680,"0.0-4.132-0.132","ebn2c6r72w2zp41",856,"147.csv","","488","resources/trios/L1T4A3.jpg","37","restless",0.6,0.6,0.7,0.056304048172045,"true"
"image-keyboard-response",409,309085,"0.0-4.132-1.132","ebn2c6r72w2zp41",856,"147.csv","","null","resources/maskTrios/L1BB.jpg","null","",NA,NA,NA,NA,""
"image-keyboard-response",410,310299,"0.0-4.132-2.132","ebn2c6r72w2zp41",856,"147.csv","","null","resources/images/coin2.png","null","",NA,NA,NA,NA,""
"image-keyboard-response",411,310593,"0.0-4.133-0.133","ebn2c6r72w2zp41",856,"147.csv","","293","resources/trios/L1T4A3.jpg","37","restless",0.6,0.6,0.7,0.305079657968718,"true"
"image-keyboard-response",412,311000,"0.0-4.133-1.133","ebn2c6r72w2zp41",856,"147.csv","","null","resources/maskTrios/L1BB.jpg","null","",NA,NA,NA,NA,""
"image-keyboard-response",413,312309,"0.0-4.133-2.133","ebn2c6r72w2zp41",856,"147.csv","","null","resources/images/coin2.png","null","",NA,NA,NA,NA,""
"image-keyboard-response",414,312505,"0.0-4.134-0.134","ebn2c6r72w2zp41",856,"147.csv","","195","resources/trios/L1T4A3.jpg","37","restless",0.6,0.6,0.7,0.795802939604971,"false"
"image-keyboard-response",415,312914,"0.0-4.134-1.134","ebn2c6r72w2zp41",856,"147.csv","","null","resources/maskTrios/L1BB.jpg","null","",NA,NA,NA,NA,""
"image-keyboard-response",416,314125,"0.0-4.134-2.134","ebn2c6r72w2zp41",856,"147.csv","","null","resources/images/fishbone.png","null","",NA,NA,NA,NA,""
"image-keyboard-response",417,314337,"0.0-4.135-0.135","ebn2c6r72w2zp41",856,"147.csv","","210","resources/trios/L1T4A3.jpg","39","restless",0.6,0.6,0.7,0.362532624692426,"true"
"image-keyboard-response",418,314748,"0.0-4.135-1.135","ebn2c6r72w2zp41",856,"147.csv","","null","resources/maskTrios/BBA3.jpg","null","",NA,NA,NA,NA,""
"image-keyboard-response",419,315961,"0.0-4.135-2.135","ebn2c6r72w2zp41",856,"147.csv","","null","resources/images/coin2.png","null","",NA,NA,NA,NA,""
"image-keyboard-response",420,316177,"0.0-4.136-0.136","ebn2c6r72w2zp41",856,"147.csv","","215","resources/trios/L1T4A3.jpg","39","restless",0.6,0.6,0.7,0.585543215611933,"true"
"image-keyboard-response",421,316582,"0.0-4.136-1.136","ebn2c6r72w2zp41",856,"147.csv","","null","resources/maskTrios/BBA3.jpg","null","",NA,NA,NA,NA,""
"image-keyboard-response",422,317787,"0.0-4.136-2.136","ebn2c6r72w2zp41",856,"147.csv","","null","resources/images/coin2.png","null","",NA,NA,NA,NA,""
"image-keyboard-response",423,318193,"0.0-4.137-0.137","ebn2c6r72w2zp41",856,"147.csv","","405","resources/trios/L1T4A3.jpg","39","restless",0.5,0.6,0.6,0.212020802715213,"true"
"image-keyboard-response",424,318602,"0.0-4.137-1.137","ebn2c6r72w2zp41",856,"147.csv","","null","resources/maskTrios/BBA3.jpg","null","",NA,NA,NA,NA,""
"image-keyboard-response",425,319814,"0.0-4.137-2.137","ebn2c6r72w2zp41",856,"147.csv","","null","resources/images/coin2.png","null","",NA,NA,NA,NA,""
"image-keyboard-response",426,320081,"0.0-4.138-0.138","ebn2c6r72w2zp41",856,"147.csv","","265","resources/trios/L1T4A3.jpg","39","restless",0.5,0.6,0.6,0.26035937014539,"true"
"image-keyboard-response",427,320483,"0.0-4.138-1.138","ebn2c6r72w2zp41",856,"147.csv","","null","resources/maskTrios/BBA3.jpg","null","",NA,NA,NA,NA,""
"image-keyboard-response",428,321696,"0.0-4.138-2.138","ebn2c6r72w2zp41",856,"147.csv","","null","resources/images/coin2.png","null","",NA,NA,NA,NA,""
"image-keyboard-response",429,321921,"0.0-4.139-0.139","ebn2c6r72w2zp41",856,"147.csv","","224","resources/trios/L1T4A3.jpg","39","restless",0.5,0.6,0.6,0.211202512918608,"true"
"image-keyboard-response",430,322334,"0.0-4.139-1.139","ebn2c6r72w2zp41",856,"147.csv","","null","resources/maskTrios/BBA3.jpg","null","",NA,NA,NA,NA,""
"image-keyboard-response",431,323542,"0.0-4.139-2.139","ebn2c6r72w2zp41",856,"147.csv","","null","resources/images/coin2.png","null","",NA,NA,NA,NA,""
"image-keyboard-response",432,323801,"0.0-4.140-0.140","ebn2c6r72w2zp41",856,"147.csv","","258","resources/trios/L1T4A3.jpg","39","restless",0.5,0.6,0.6,0.589590501441288,"true"
"image-keyboard-response",433,324211,"0.0-4.140-1.140","ebn2c6r72w2zp41",856,"147.csv","","null","resources/maskTrios/BBA3.jpg","null","",NA,NA,NA,NA,""
"image-keyboard-response",434,325422,"0.0-4.140-2.140","ebn2c6r72w2zp41",856,"147.csv","","null","resources/images/coin2.png","null","",NA,NA,NA,NA,""
"image-keyboard-response",435,325512,"0.0-4.141-0.141","ebn2c6r72w2zp41",856,"147.csv","","90","resources/trios/L1T4A3.jpg","39","restless",0.5,0.6,0.6,0.117565131695558,"true"
"image-keyboard-response",436,325915,"0.0-4.141-1.141","ebn2c6r72w2zp41",856,"147.csv","","null","resources/maskTrios/BBA3.jpg","null","",NA,NA,NA,NA,""
"image-keyboard-response",437,327127,"0.0-4.141-2.141","ebn2c6r72w2zp41",856,"147.csv","","null","resources/images/coin2.png","null","",NA,NA,NA,NA,""
"image-keyboard-response",438,327393,"0.0-4.142-0.142","ebn2c6r72w2zp41",856,"147.csv","","266","resources/trios/L1T4A3.jpg","39","restless",0.5,0.6,0.6,0.687916598744335,"false"
"image-keyboard-response",439,327794,"0.0-4.142-1.142","ebn2c6r72w2zp41",856,"147.csv","","null","resources/maskTrios/BBA3.jpg","null","",NA,NA,NA,NA,""
"image-keyboard-response",440,329005,"0.0-4.142-2.142","ebn2c6r72w2zp41",856,"147.csv","","null","resources/images/fishbone.png","null","",NA,NA,NA,NA,""
"image-keyboard-response",441,329240,"0.0-4.143-0.143","ebn2c6r72w2zp41",856,"147.csv","","236","resources/trios/L1T4A3.jpg","37","restless",0.5,0.7,0.6,0.821771877901946,"false"
"image-keyboard-response",442,329642,"0.0-4.143-1.143","ebn2c6r72w2zp41",856,"147.csv","","null","resources/maskTrios/L1BB.jpg","null","",NA,NA,NA,NA,""
"image-keyboard-response",443,330848,"0.0-4.143-2.143","ebn2c6r72w2zp41",856,"147.csv","","null","resources/images/fishbone.png","null","",NA,NA,NA,NA,""
"image-keyboard-response",444,330937,"0.0-4.144-0.144","ebn2c6r72w2zp41",856,"147.csv","","87","resources/trios/L1T4A3.jpg","39","restless",0.5,0.8,0.6,0.816771099549457,"false"
"image-keyboard-response",445,331343,"0.0-4.144-1.144","ebn2c6r72w2zp41",856,"147.csv","","null","resources/maskTrios/BBA3.jpg","null","",NA,NA,NA,NA,""
"image-keyboard-response",446,332554,"0.0-4.144-2.144","ebn2c6r72w2zp41",856,"147.csv","","null","resources/images/fishbone.png","null","",NA,NA,NA,NA,""
"image-keyboard-response",447,332625,"0.0-4.145-0.145","ebn2c6r72w2zp41",856,"147.csv","","70","resources/trios/L1T4A3.jpg","38","restless",0.5,0.8,0.6,0.134447291170663,"true"
"image-keyboard-response",448,333044,"0.0-4.145-1.145","ebn2c6r72w2zp41",856,"147.csv","","null","resources/maskTrios/BT4B.jpg","null","",NA,NA,NA,NA,""
"image-keyboard-response",449,334255,"0.0-4.145-2.145","ebn2c6r72w2zp41",856,"147.csv","","null","resources/images/coin2.png","null","",NA,NA,NA,NA,""
"image-keyboard-response",450,334496,"0.0-4.146-0.146","ebn2c6r72w2zp41",856,"147.csv","","242","resources/trios/L1T4A3.jpg","38","restless",0.5,0.8,0.6,0.905281791250768,"false"
"image-keyboard-response",451,334906,"0.0-4.146-1.146","ebn2c6r72w2zp41",856,"147.csv","","null","resources/maskTrios/BT4B.jpg","null","",NA,NA,NA,NA,""
"image-keyboard-response",452,336119,"0.0-4.146-2.146","ebn2c6r72w2zp41",856,"147.csv","","null","resources/images/fishbone.png","null","",NA,NA,NA,NA,""
"image-keyboard-response",453,336376,"0.0-4.147-0.147","ebn2c6r72w2zp41",856,"147.csv","","257","resources/trios/L1T4A3.jpg","39","restless",0.5,0.8,0.6,0.0532571522371185,"true"
"image-keyboard-response",454,336789,"0.0-4.147-1.147","ebn2c6r72w2zp41",856,"147.csv","","null","resources/maskTrios/BBA3.jpg","null","",NA,NA,NA,NA,""
"image-keyboard-response",455,338129,"0.0-4.147-2.147","ebn2c6r72w2zp41",856,"147.csv","","null","resources/images/coin2.png","null","",NA,NA,NA,NA,""
"image-keyboard-response",456,338401,"0.0-4.148-0.148","ebn2c6r72w2zp41",856,"147.csv","","271","resources/trios/L1T4A3.jpg","39","restless",0.5,0.8,0.6,0.299366127321384,"true"
"image-keyboard-response",457,338815,"0.0-4.148-1.148","ebn2c6r72w2zp41",856,"147.csv","","null","resources/maskTrios/BBA3.jpg","null","",NA,NA,NA,NA,""
"image-keyboard-response",458,340138,"0.0-4.148-2.148","ebn2c6r72w2zp41",856,"147.csv","","null","resources/images/coin2.png","null","",NA,NA,NA,NA,""
"image-keyboard-response",459,340360,"0.0-4.149-0.149","ebn2c6r72w2zp41",856,"147.csv","","222","resources/trios/L1T4A3.jpg","39","restless",0.4,0.8,0.5,0.481093596171951,"true"
"image-keyboard-response",460,340773,"0.0-4.149-1.149","ebn2c6r72w2zp41",856,"147.csv","","null","resources/maskTrios/BBA3.jpg","null","",NA,NA,NA,NA,""
"image-keyboard-response",461,341984,"0.0-4.149-2.149","ebn2c6r72w2zp41",856,"147.csv","","null","resources/images/coin2.png","null","",NA,NA,NA,NA,""
"image-keyboard-response",462,342305,"0.0-4.150-0.150","ebn2c6r72w2zp41",856,"147.csv","","319","resources/trios/L1T4A3.jpg","39","restless",0.4,0.8,0.5,0.191053954251251,"true"
"image-keyboard-response",463,342717,"0.0-4.150-1.150","ebn2c6r72w2zp41",856,"147.csv","","null","resources/maskTrios/BBA3.jpg","null","",NA,NA,NA,NA,""
"image-keyboard-response",464,343930,"0.0-4.150-2.150","ebn2c6r72w2zp41",856,"147.csv","","null","resources/images/coin2.png","null","",NA,NA,NA,NA,""
"image-keyboard-response",465,344192,"0.0-4.151-0.151","ebn2c6r72w2zp41",856,"147.csv","","261","resources/trios/L1T4A3.jpg","39","restless",0.4,0.8,0.5,0.129945091963766,"true"
"image-keyboard-response",466,344598,"0.0-4.151-1.151","ebn2c6r72w2zp41",856,"147.csv","","null","resources/maskTrios/BBA3.jpg","null","",NA,NA,NA,NA,""
"image-keyboard-response",467,345812,"0.0-4.151-2.151","ebn2c6r72w2zp41",856,"147.csv","","null","resources/images/coin2.png","null","",NA,NA,NA,NA,""
"image-keyboard-response",468,346073,"0.0-4.152-0.152","ebn2c6r72w2zp41",856,"147.csv","","260","resources/trios/L1T4A3.jpg","39","restless",0.4,0.7,0.5,0.66696711432113,"false"
"image-keyboard-response",469,346483,"0.0-4.152-1.152","ebn2c6r72w2zp41",856,"147.csv","","null","resources/maskTrios/BBA3.jpg","null","",NA,NA,NA,NA,""
"image-keyboard-response",470,347696,"0.0-4.152-2.152","ebn2c6r72w2zp41",856,"147.csv","","null","resources/images/fishbone.png","null","",NA,NA,NA,NA,""
"image-keyboard-response",471,347937,"0.0-4.153-0.153","ebn2c6r72w2zp41",856,"147.csv","","240","resources/trios/L1T4A3.jpg","37","restless",0.4,0.7,0.5,0.81144149982317,"false"
"image-keyboard-response",472,348348,"0.0-4.153-1.153","ebn2c6r72w2zp41",856,"147.csv","","null","resources/maskTrios/L1BB.jpg","null","",NA,NA,NA,NA,""
"image-keyboard-response",473,349560,"0.0-4.153-2.153","ebn2c6r72w2zp41",856,"147.csv","","null","resources/images/fishbone.png","null","",NA,NA,NA,NA,""
"image-keyboard-response",474,349785,"0.0-4.154-0.154","ebn2c6r72w2zp41",856,"147.csv","","224","resources/trios/L1T4A3.jpg","39","restless",0.4,0.8,0.5,0.111019713066952,"true"
"image-keyboard-response",475,350198,"0.0-4.154-1.154","ebn2c6r72w2zp41",856,"147.csv","","null","resources/maskTrios/BBA3.jpg","null","",NA,NA,NA,NA,""
"image-keyboard-response",476,351412,"0.0-4.154-2.154","ebn2c6r72w2zp41",856,"147.csv","","null","resources/images/coin2.png","null","",NA,NA,NA,NA,""
"image-keyboard-response",477,351657,"0.0-4.155-0.155","ebn2c6r72w2zp41",856,"147.csv","","243","resources/trios/L1T4A3.jpg","39","restless",0.5,0.8,0.6,0.115148408974569,"true"
"image-keyboard-response",478,352068,"0.0-4.155-1.155","ebn2c6r72w2zp41",856,"147.csv","","null","resources/maskTrios/BBA3.jpg","null","",NA,NA,NA,NA,""
"image-keyboard-response",479,353279,"0.0-4.155-2.155","ebn2c6r72w2zp41",856,"147.csv","","null","resources/images/coin2.png","null","",NA,NA,NA,NA,""
"image-keyboard-response",480,353537,"0.0-4.156-0.156","ebn2c6r72w2zp41",856,"147.csv","","256","resources/trios/L1T4A3.jpg","39","restless",0.5,0.8,0.6,0.449129627279277,"true"
"image-keyboard-response",481,353949,"0.0-4.156-1.156","ebn2c6r72w2zp41",856,"147.csv","","null","resources/maskTrios/BBA3.jpg","null","",NA,NA,NA,NA,""
"image-keyboard-response",482,355163,"0.0-4.156-2.156","ebn2c6r72w2zp41",856,"147.csv","","null","resources/images/coin2.png","null","",NA,NA,NA,NA,""
"image-keyboard-response",483,355304,"0.0-4.157-0.157","ebn2c6r72w2zp41",856,"147.csv","","140","resources/trios/L1T4A3.jpg","39","restless",0.5,0.8,0.6,0.0640054799847217,"true"
"image-keyboard-response",484,355706,"0.0-4.157-1.157","ebn2c6r72w2zp41",856,"147.csv","","null","resources/maskTrios/BBA3.jpg","null","",NA,NA,NA,NA,""
"image-keyboard-response",485,356917,"0.0-4.157-2.157","ebn2c6r72w2zp41",856,"147.csv","","null","resources/images/coin2.png","null","",NA,NA,NA,NA,""
"image-keyboard-response",486,357281,"0.0-4.158-0.158","ebn2c6r72w2zp41",856,"147.csv","","362","resources/trios/L1T4A3.jpg","39","restless",0.5,0.7,0.6,0.382756007687913,"true"
"image-keyboard-response",487,357684,"0.0-4.158-1.158","ebn2c6r72w2zp41",856,"147.csv","","null","resources/maskTrios/BBA3.jpg","null","",NA,NA,NA,NA,""
"image-keyboard-response",488,358928,"0.0-4.158-2.158","ebn2c6r72w2zp41",856,"147.csv","","null","resources/images/coin2.png","null","",NA,NA,NA,NA,""
"image-keyboard-response",489,359296,"0.0-4.159-0.159","ebn2c6r72w2zp41",856,"147.csv","","368","resources/trios/L1T4A3.jpg","39","restless",0.5,0.7,0.6,0.0645686330788768,"true"
"image-keyboard-response",490,359710,"0.0-4.159-1.159","ebn2c6r72w2zp41",856,"147.csv","","null","resources/maskTrios/BBA3.jpg","null","",NA,NA,NA,NA,""
"image-keyboard-response",491,360940,"0.0-4.159-2.159","ebn2c6r72w2zp41",856,"147.csv","","null","resources/images/coin2.png","null","",NA,NA,NA,NA,""
"image-keyboard-response",492,361185,"0.0-4.160-0.160","ebn2c6r72w2zp41",856,"147.csv","","244","resources/trios/L1T4A3.jpg","39","restless",0.5,0.7,0.6,0.00551849559130357,"true"
"image-keyboard-response",493,361595,"0.0-4.160-1.160","ebn2c6r72w2zp41",856,"147.csv","","null","resources/maskTrios/BBA3.jpg","null","",NA,NA,NA,NA,""
"image-keyboard-response",494,362806,"0.0-4.160-2.160","ebn2c6r72w2zp41",856,"147.csv","","null","resources/images/coin2.png","null","",NA,NA,NA,NA,""
"image-keyboard-response",495,363089,"0.0-4.161-0.161","ebn2c6r72w2zp41",856,"147.csv","","282","resources/trios/L1T4A3.jpg","39","restless",0.5,0.8,0.6,0.967181774488298,"false"
"image-keyboard-response",496,363494,"0.0-4.161-1.161","ebn2c6r72w2zp41",856,"147.csv","","null","resources/maskTrios/BBA3.jpg","null","",NA,NA,NA,NA,""
"image-keyboard-response",497,364708,"0.0-4.161-2.161","ebn2c6r72w2zp41",856,"147.csv","","null","resources/images/fishbone.png","null","",NA,NA,NA,NA,""
"image-keyboard-response",498,364929,"0.0-4.162-0.162","ebn2c6r72w2zp41",856,"147.csv","","219","resources/trios/L1T4A3.jpg","37","restless",0.5,0.8,0.6,0.233926126982566,"true"
"image-keyboard-response",499,365329,"0.0-4.162-1.162","ebn2c6r72w2zp41",856,"147.csv","","null","resources/maskTrios/L1BB.jpg","null","",NA,NA,NA,NA,""
"image-keyboard-response",500,366544,"0.0-4.162-2.162","ebn2c6r72w2zp41",856,"147.csv","","null","resources/images/coin2.png","null","",NA,NA,NA,NA,""
"image-keyboard-response",501,366672,"0.0-4.163-0.163","ebn2c6r72w2zp41",856,"147.csv","","127","resources/trios/L1T4A3.jpg","37","restless",0.5,0.8,0.6,0.338271126067412,"true"
"image-keyboard-response",502,367087,"0.0-4.163-1.163","ebn2c6r72w2zp41",856,"147.csv","","null","resources/maskTrios/L1BB.jpg","null","",NA,NA,NA,NA,""
"image-keyboard-response",503,368291,"0.0-4.163-2.163","ebn2c6r72w2zp41",856,"147.csv","","null","resources/images/coin2.png","null","",NA,NA,NA,NA,""
"image-keyboard-response",504,368473,"0.0-4.164-0.164","ebn2c6r72w2zp41",856,"147.csv","","182","resources/trios/L1T4A3.jpg","37","restless",0.5,0.8,0.6,0.634362190030269,"false"
"image-keyboard-response",505,368882,"0.0-4.164-1.164","ebn2c6r72w2zp41",856,"147.csv","","null","resources/maskTrios/L1BB.jpg","null","",NA,NA,NA,NA,""
"image-keyboard-response",506,370094,"0.0-4.164-2.164","ebn2c6r72w2zp41",856,"147.csv","","null","resources/images/fishbone.png","null","",NA,NA,NA,NA,""
"image-keyboard-response",507,370289,"0.0-4.165-0.165","ebn2c6r72w2zp41",856,"147.csv","","194","resources/trios/L1T4A3.jpg","39","restless",0.5,0.8,0.5,0.323107989344256,"true"
"image-keyboard-response",508,370700,"0.0-4.165-1.165","ebn2c6r72w2zp41",856,"147.csv","","null","resources/maskTrios/BBA3.jpg","null","",NA,NA,NA,NA,""
"image-keyboard-response",509,371904,"0.0-4.165-2.165","ebn2c6r72w2zp41",856,"147.csv","","null","resources/images/coin2.png","null","",NA,NA,NA,NA,""
"image-keyboard-response",510,372008,"0.0-4.166-0.166","ebn2c6r72w2zp41",856,"147.csv","","103","resources/trios/L1T4A3.jpg","39","restless",0.5,0.8,0.5,0.760200549185218,"false"
"image-keyboard-response",511,372416,"0.0-4.166-1.166","ebn2c6r72w2zp41",856,"147.csv","","null","resources/maskTrios/BBA3.jpg","null","",NA,NA,NA,NA,""
"image-keyboard-response",512,373628,"0.0-4.166-2.166","ebn2c6r72w2zp41",856,"147.csv","","null","resources/images/fishbone.png","null","",NA,NA,NA,NA,""
"image-keyboard-response",513,373760,"0.0-4.167-0.167","ebn2c6r72w2zp41",856,"147.csv","","131","resources/trios/L1T4A3.jpg","37","restless",0.5,0.8,0.5,0.0295937366688711,"true"
"image-keyboard-response",514,374172,"0.0-4.167-1.167","ebn2c6r72w2zp41",856,"147.csv","","null","resources/maskTrios/L1BB.jpg","null","",NA,NA,NA,NA,""
"image-keyboard-response",515,375382,"0.0-4.167-2.167","ebn2c6r72w2zp41",856,"147.csv","","null","resources/images/coin2.png","null","",NA,NA,NA,NA,""
"image-keyboard-response",516,375481,"0.0-4.168-0.168","ebn2c6r72w2zp41",856,"147.csv","","98","resources/trios/L1T4A3.jpg","37","restless",0.5,0.8,0.5,0.951795551332656,"false"
"image-keyboard-response",517,375891,"0.0-4.168-1.168","ebn2c6r72w2zp41",856,"147.csv","","null","resources/maskTrios/L1BB.jpg","null","",NA,NA,NA,NA,""
"image-keyboard-response",518,377199,"0.0-4.168-2.168","ebn2c6r72w2zp41",856,"147.csv","","null","resources/images/fishbone.png","null","",NA,NA,NA,NA,""
"image-keyboard-response",519,377336,"0.0-4.169-0.169","ebn2c6r72w2zp41",856,"147.csv","","137","resources/trios/L1T4A3.jpg","39","restless",0.5,0.8,0.5,0.255167173913554,"true"
"image-keyboard-response",520,377738,"0.0-4.169-1.169","ebn2c6r72w2zp41",856,"147.csv","","null","resources/maskTrios/BBA3.jpg","null","",NA,NA,NA,NA,""
"image-keyboard-response",521,378952,"0.0-4.169-2.169","ebn2c6r72w2zp41",856,"147.csv","","null","resources/images/coin2.png","null","",NA,NA,NA,NA,""
"image-keyboard-response",522,379208,"0.0-4.170-0.170","ebn2c6r72w2zp41",856,"147.csv","","256","resources/trios/L1T4A3.jpg","39","restless",0.5,0.9,0.5,0.28391622130125,"true"
"image-keyboard-response",523,379616,"0.0-4.170-1.170","ebn2c6r72w2zp41",856,"147.csv","","null","resources/maskTrios/BBA3.jpg","null","",NA,NA,NA,NA,""
"image-keyboard-response",524,380826,"0.0-4.170-2.170","ebn2c6r72w2zp41",856,"147.csv","","null","resources/images/coin2.png","null","",NA,NA,NA,NA,""
"image-keyboard-response",525,381056,"0.0-4.171-0.171","ebn2c6r72w2zp41",856,"147.csv","","230","resources/trios/L1T4A3.jpg","39","restless",0.5,0.9,0.5,0.256296548335577,"true"
"image-keyboard-response",526,381465,"0.0-4.171-1.171","ebn2c6r72w2zp41",856,"147.csv","","null","resources/maskTrios/BBA3.jpg","null","",NA,NA,NA,NA,""
"image-keyboard-response",527,382678,"0.0-4.171-2.171","ebn2c6r72w2zp41",856,"147.csv","","null","resources/images/coin2.png","null","",NA,NA,NA,NA,""
"image-keyboard-response",528,382801,"0.0-4.172-0.172","ebn2c6r72w2zp41",856,"147.csv","","122","resources/trios/L1T4A3.jpg","37","restless",0.5,0.9,0.5,0.672182906994844,"false"
"image-keyboard-response",529,383206,"0.0-4.172-1.172","ebn2c6r72w2zp41",856,"147.csv","","null","resources/maskTrios/L1BB.jpg","null","",NA,NA,NA,NA,""
"image-keyboard-response",530,384416,"0.0-4.172-2.172","ebn2c6r72w2zp41",856,"147.csv","","null","resources/images/fishbone.png","null","",NA,NA,NA,NA,""
"image-keyboard-response",531,384769,"0.0-4.173-0.173","ebn2c6r72w2zp41",856,"147.csv","","352","resources/trios/L1T4A3.jpg","39","restless",0.5,0.9,0.5,0.0856197925327463,"true"
"image-keyboard-response",532,385178,"0.0-4.173-1.173","ebn2c6r72w2zp41",856,"147.csv","","null","resources/maskTrios/BBA3.jpg","null","",NA,NA,NA,NA,""
"image-keyboard-response",533,386390,"0.0-4.173-2.173","ebn2c6r72w2zp41",856,"147.csv","","null","resources/images/coin2.png","null","",NA,NA,NA,NA,""
"image-keyboard-response",534,386585,"0.0-4.174-0.174","ebn2c6r72w2zp41",856,"147.csv","","195","resources/trios/L1T4A3.jpg","39","restless",0.6,0.9,0.5,0.0975925516937771,"true"
"image-keyboard-response",535,386988,"0.0-4.174-1.174","ebn2c6r72w2zp41",856,"147.csv","","null","resources/maskTrios/BBA3.jpg","null","",NA,NA,NA,NA,""
"image-keyboard-response",536,388197,"0.0-4.174-2.174","ebn2c6r72w2zp41",856,"147.csv","","null","resources/images/coin2.png","null","",NA,NA,NA,NA,""
"image-keyboard-response",537,388409,"0.0-4.175-0.175","ebn2c6r72w2zp41",856,"147.csv","","210","resources/trios/L1T4A3.jpg","39","restless",0.6,0.9,0.5,0.237752107628986,"true"
"image-keyboard-response",538,388815,"0.0-4.175-1.175","ebn2c6r72w2zp41",856,"147.csv","","null","resources/maskTrios/BBA3.jpg","null","",NA,NA,NA,NA,""
"image-keyboard-response",539,390024,"0.0-4.175-2.175","ebn2c6r72w2zp41",856,"147.csv","","null","resources/images/coin2.png","null","",NA,NA,NA,NA,""
"image-keyboard-response",540,390153,"0.0-4.176-0.176","ebn2c6r72w2zp41",856,"147.csv","","128","resources/trios/L1T4A3.jpg","39","restless",0.6,0.9,0.5,0.166918416306656,"true"
"image-keyboard-response",541,390562,"0.0-4.176-1.176","ebn2c6r72w2zp41",856,"147.csv","","null","resources/maskTrios/BBA3.jpg","null","",NA,NA,NA,NA,""
"image-keyboard-response",542,391763,"0.0-4.176-2.176","ebn2c6r72w2zp41",856,"147.csv","","null","resources/images/coin2.png","null","",NA,NA,NA,NA,""
"image-keyboard-response",543,392001,"0.0-4.177-0.177","ebn2c6r72w2zp41",856,"147.csv","","238","resources/trios/L1T4A3.jpg","39","restless",0.6,0.9,0.5,0.865715922102492,"false"
"image-keyboard-response",544,392414,"0.0-4.177-1.177","ebn2c6r72w2zp41",856,"147.csv","","null","resources/maskTrios/BBA3.jpg","null","",NA,NA,NA,NA,""
"image-keyboard-response",545,393626,"0.0-4.177-2.177","ebn2c6r72w2zp41",856,"147.csv","","null","resources/images/fishbone.png","null","",NA,NA,NA,NA,""
"image-keyboard-response",546,393865,"0.0-4.178-0.178","ebn2c6r72w2zp41",856,"147.csv","","239","resources/trios/L1T4A3.jpg","37","restless",0.6,0.8,0.5,0.124132774653407,"true"
"image-keyboard-response",547,394278,"0.0-4.178-1.178","ebn2c6r72w2zp41",856,"147.csv","","null","resources/maskTrios/L1BB.jpg","null","",NA,NA,NA,NA,""
"image-keyboard-response",548,395490,"0.0-4.178-2.178","ebn2c6r72w2zp41",856,"147.csv","","null","resources/images/coin2.png","null","",NA,NA,NA,NA,""
"image-keyboard-response",549,395712,"0.0-4.179-0.179","ebn2c6r72w2zp41",856,"147.csv","","223","resources/trios/L1T4A3.jpg","37","restless",0.6,0.7,0.5,0.975652803101291,"false"
"image-keyboard-response",550,396126,"0.0-4.179-1.179","ebn2c6r72w2zp41",856,"147.csv","","null","resources/maskTrios/L1BB.jpg","null","",NA,NA,NA,NA,""
"image-keyboard-response",551,397330,"0.0-4.179-2.179","ebn2c6r72w2zp41",856,"147.csv","","null","resources/images/fishbone.png","null","",NA,NA,NA,NA,""
"image-keyboard-response",552,397553,"0.0-4.180-0.180","ebn2c6r72w2zp41",856,"147.csv","","222","resources/trios/L1T4A3.jpg","39","restless",0.6,0.7,0.5,0.506963267888434,"false"
"image-keyboard-response",553,397963,"0.0-4.180-1.180","ebn2c6r72w2zp41",856,"147.csv","","null","resources/maskTrios/BBA3.jpg","null","",NA,NA,NA,NA,""
"image-keyboard-response",554,399168,"0.0-4.180-2.180","ebn2c6r72w2zp41",856,"147.csv","","null","resources/images/fishbone.png","null","",NA,NA,NA,NA,""
"image-keyboard-response",555,399313,"0.0-4.181-0.181","ebn2c6r72w2zp41",856,"147.csv","","145","resources/trios/L1T4A3.jpg","37","restless",0.6,0.8,0.5,0.41182334622941,"true"
"image-keyboard-response",556,399724,"0.0-4.181-1.181","ebn2c6r72w2zp41",856,"147.csv","","null","resources/maskTrios/L1BB.jpg","null","",NA,NA,NA,NA,""
"image-keyboard-response",557,400939,"0.0-4.181-2.181","ebn2c6r72w2zp41",856,"147.csv","","null","resources/images/coin2.png","null","",NA,NA,NA,NA,""
"image-keyboard-response",558,401089,"0.0-4.182-0.182","ebn2c6r72w2zp41",856,"147.csv","","150","resources/trios/L1T4A3.jpg","37","restless",0.6,0.8,0.5,0.0912130289630352,"true"
"image-keyboard-response",559,401492,"0.0-4.182-1.182","ebn2c6r72w2zp41",856,"147.csv","","null","resources/maskTrios/L1BB.jpg","null","",NA,NA,NA,NA,""
"image-keyboard-response",560,402720,"0.0-4.182-2.182","ebn2c6r72w2zp41",856,"147.csv","","null","resources/images/coin2.png","null","",NA,NA,NA,NA,""
"image-keyboard-response",561,403048,"0.0-4.183-0.183","ebn2c6r72w2zp41",856,"147.csv","","328","resources/trios/L1T4A3.jpg","37","restless",0.6,0.8,0.5,0.231819678423001,"true"
"image-keyboard-response",562,403498,"0.0-4.183-1.183","ebn2c6r72w2zp41",856,"147.csv","","null","resources/maskTrios/L1BB.jpg","null","",NA,NA,NA,NA,""
"image-keyboard-response",563,404711,"0.0-4.183-2.183","ebn2c6r72w2zp41",856,"147.csv","","null","resources/images/coin2.png","null","",NA,NA,NA,NA,""
"image-keyboard-response",564,405073,"0.0-4.184-0.184","ebn2c6r72w2zp41",856,"147.csv","","361","resources/trios/L1T4A3.jpg","37","restless",0.6,0.8,0.5,0.936528025015396,"false"
"image-keyboard-response",565,405508,"0.0-4.184-1.184","ebn2c6r72w2zp41",856,"147.csv","","null","resources/maskTrios/L1BB.jpg","null","",NA,NA,NA,NA,""
"image-keyboard-response",566,406713,"0.0-4.184-2.184","ebn2c6r72w2zp41",856,"147.csv","","null","resources/images/fishbone.png","null","",NA,NA,NA,NA,""
"image-keyboard-response",567,406936,"0.0-4.185-0.185","ebn2c6r72w2zp41",856,"147.csv","","223","resources/trios/L1T4A3.jpg","39","restless",0.6,0.8,0.5,0.316369103479233,"true"
"image-keyboard-response",568,407347,"0.0-4.185-1.185","ebn2c6r72w2zp41",856,"147.csv","","null","resources/maskTrios/BBA3.jpg","null","",NA,NA,NA,NA,""
"image-keyboard-response",569,408562,"0.0-4.185-2.185","ebn2c6r72w2zp41",856,"147.csv","","null","resources/images/coin2.png","null","",NA,NA,NA,NA,""
"image-keyboard-response",570,408841,"0.0-4.186-0.186","ebn2c6r72w2zp41",856,"147.csv","","278","resources/trios/L1T4A3.jpg","39","restless",0.6,0.8,0.5,0.727395572985717,"false"
"image-keyboard-response",571,409242,"0.0-4.186-1.186","ebn2c6r72w2zp41",856,"147.csv","","null","resources/maskTrios/BBA3.jpg","null","",NA,NA,NA,NA,""
"image-keyboard-response",572,410572,"0.0-4.186-2.186","ebn2c6r72w2zp41",856,"147.csv","","null","resources/images/fishbone.png","null","",NA,NA,NA,NA,""
"image-keyboard-response",573,410785,"0.0-4.187-0.187","ebn2c6r72w2zp41",856,"147.csv","","212","resources/trios/L1T4A3.jpg","37","restless",0.6,0.8,0.5,0.578757152758583,"true"
"image-keyboard-response",574,411193,"0.0-4.187-1.187","ebn2c6r72w2zp41",856,"147.csv","","null","resources/maskTrios/L1BB.jpg","null","",NA,NA,NA,NA,""
"image-keyboard-response",575,412400,"0.0-4.187-2.187","ebn2c6r72w2zp41",856,"147.csv","","null","resources/images/coin2.png","null","",NA,NA,NA,NA,""
"image-keyboard-response",576,412649,"0.0-4.188-0.188","ebn2c6r72w2zp41",856,"147.csv","","248","resources/trios/L1T4A3.jpg","37","restless",0.6,0.8,0.5,0.287073476587092,"true"
"image-keyboard-response",577,413053,"0.0-4.188-1.188","ebn2c6r72w2zp41",856,"147.csv","","null","resources/maskTrios/L1BB.jpg","null","",NA,NA,NA,NA,""
"image-keyboard-response",578,414254,"0.0-4.188-2.188","ebn2c6r72w2zp41",856,"147.csv","","null","resources/images/coin2.png","null","",NA,NA,NA,NA,""
"image-keyboard-response",579,414521,"0.0-4.189-0.189","ebn2c6r72w2zp41",856,"147.csv","","267","resources/trios/L1T4A3.jpg","37","restless",0.5,0.8,0.5,0.567993966135263,"false"
"image-keyboard-response",580,414935,"0.0-4.189-1.189","ebn2c6r72w2zp41",856,"147.csv","","null","resources/maskTrios/L1BB.jpg","null","",NA,NA,NA,NA,""
"image-keyboard-response",581,416145,"0.0-4.189-2.189","ebn2c6r72w2zp41",856,"147.csv","","null","resources/images/fishbone.png","null","",NA,NA,NA,NA,""
"image-keyboard-response",582,416417,"0.0-4.190-0.190","ebn2c6r72w2zp41",856,"147.csv","","272","resources/trios/L1T4A3.jpg","39","restless",0.5,0.9,0.5,0.870865382066638,"false"
"image-keyboard-response",583,416823,"0.0-4.190-1.190","ebn2c6r72w2zp41",856,"147.csv","","null","resources/maskTrios/BBA3.jpg","null","",NA,NA,NA,NA,""
"image-keyboard-response",584,418034,"0.0-4.190-2.190","ebn2c6r72w2zp41",856,"147.csv","","null","resources/images/fishbone.png","null","",NA,NA,NA,NA,""
"image-keyboard-response",585,418185,"0.0-4.191-0.191","ebn2c6r72w2zp41",856,"147.csv","","149","resources/trios/L1T4A3.jpg","37","restless",0.5,0.9,0.5,0.492341016525846,"true"
"image-keyboard-response",586,418592,"0.0-4.191-1.191","ebn2c6r72w2zp41",856,"147.csv","","null","resources/maskTrios/L1BB.jpg","null","",NA,NA,NA,NA,""
"image-keyboard-response",587,419802,"0.0-4.191-2.191","ebn2c6r72w2zp41",856,"147.csv","","null","resources/images/coin2.png","null","",NA,NA,NA,NA,""
"image-keyboard-response",588,419985,"0.0-4.192-0.192","ebn2c6r72w2zp41",856,"147.csv","","182","resources/trios/L1T4A3.jpg","37","restless",0.5,0.9,0.5,0.619322219644154,"false"
"image-keyboard-response",589,420390,"0.0-4.192-1.192","ebn2c6r72w2zp41",856,"147.csv","","null","resources/maskTrios/L1BB.jpg","null","",NA,NA,NA,NA,""
"image-keyboard-response",590,421595,"0.0-4.192-2.192","ebn2c6r72w2zp41",856,"147.csv","","null","resources/images/fishbone.png","null","",NA,NA,NA,NA,""
"image-keyboard-response",591,421841,"0.0-4.193-0.193","ebn2c6r72w2zp41",856,"147.csv","","245","resources/trios/L1T4A3.jpg","39","restless",0.5,0.9,0.5,0.63743097913131,"false"
"image-keyboard-response",592,422244,"0.0-4.193-1.193","ebn2c6r72w2zp41",856,"147.csv","","null","resources/maskTrios/BBA3.jpg","null","",NA,NA,NA,NA,""
"image-keyboard-response",593,423456,"0.0-4.193-2.193","ebn2c6r72w2zp41",856,"147.csv","","null","resources/images/fishbone.png","null","",NA,NA,NA,NA,""
"image-keyboard-response",594,423513,"0.0-4.194-0.194","ebn2c6r72w2zp41",856,"147.csv","","56","resources/trios/L1T4A3.jpg","37","restless",0.5,0.9,0.5,0.0301046918270031,"true"
"image-keyboard-response",595,423916,"0.0-4.194-1.194","ebn2c6r72w2zp41",856,"147.csv","","null","resources/maskTrios/L1BB.jpg","null","",NA,NA,NA,NA,""
"image-keyboard-response",596,425124,"0.0-4.194-2.194","ebn2c6r72w2zp41",856,"147.csv","","null","resources/images/coin2.png","null","",NA,NA,NA,NA,""
"image-keyboard-response",597,425400,"0.0-4.195-0.195","ebn2c6r72w2zp41",856,"147.csv","","276","resources/trios/L1T4A3.jpg","37","restless",0.5,0.9,0.5,0.802157648337613,"false"
"image-keyboard-response",598,425805,"0.0-4.195-1.195","ebn2c6r72w2zp41",856,"147.csv","","null","resources/maskTrios/L1BB.jpg","null","",NA,NA,NA,NA,""
"image-keyboard-response",599,427137,"0.0-4.195-2.195","ebn2c6r72w2zp41",856,"147.csv","","null","resources/images/fishbone.png","null","",NA,NA,NA,NA,""
"image-keyboard-response",600,427408,"0.0-4.196-0.196","ebn2c6r72w2zp41",856,"147.csv","","271","resources/trios/L1T4A3.jpg","38","restless",0.5,0.9,0.5,0.0937968435724814,"true"
"image-keyboard-response",601,427821,"0.0-4.196-1.196","ebn2c6r72w2zp41",856,"147.csv","","null","resources/maskTrios/BT4B.jpg","null","",NA,NA,NA,NA,""
"image-keyboard-response",602,429145,"0.0-4.196-2.196","ebn2c6r72w2zp41",856,"147.csv","","null","resources/images/coin2.png","null","",NA,NA,NA,NA,""
"image-keyboard-response",603,429232,"0.0-4.197-0.197","ebn2c6r72w2zp41",856,"147.csv","","87","resources/trios/L1T4A3.jpg","38","restless",0.5,0.9,0.5,0.100284218125932,"true"
"image-keyboard-response",604,429638,"0.0-4.197-1.197","ebn2c6r72w2zp41",856,"147.csv","","null","resources/maskTrios/BT4B.jpg","null","",NA,NA,NA,NA,""
"image-keyboard-response",605,430850,"0.0-4.197-2.197","ebn2c6r72w2zp41",856,"147.csv","","null","resources/images/coin2.png","null","",NA,NA,NA,NA,""
"image-keyboard-response",606,431113,"0.0-4.198-0.198","ebn2c6r72w2zp41",856,"147.csv","","264","resources/trios/L1T4A3.jpg","38","restless",0.5,0.9,0.5,0.362269015296523,"true"
"image-keyboard-response",607,431516,"0.0-4.198-1.198","ebn2c6r72w2zp41",856,"147.csv","","null","resources/maskTrios/BT4B.jpg","null","",NA,NA,NA,NA,""
"image-keyboard-response",608,432723,"0.0-4.198-2.198","ebn2c6r72w2zp41",856,"147.csv","","null","resources/images/coin2.png","null","",NA,NA,NA,NA,""
"image-keyboard-response",609,433001,"0.0-4.199-0.199","ebn2c6r72w2zp41",856,"147.csv","","276","resources/trios/L1T4A3.jpg","38","restless",0.5,0.8,0.6,0.27278528900965,"true"
"image-keyboard-response",610,433402,"0.0-4.199-1.199","ebn2c6r72w2zp41",856,"147.csv","","null","resources/maskTrios/BT4B.jpg","null","",NA,NA,NA,NA,""
"image-keyboard-response",611,434609,"0.0-4.199-2.199","ebn2c6r72w2zp41",856,"147.csv","","null","resources/images/coin2.png","null","",NA,NA,NA,NA,""
"survey-text",612,506412,"0.0-5.0","ebn2c6r72w2zp41",856,"147.csv","","71798","","","",NA,NA,NA,NA,""
