"trial_type","trial_index","time_elapsed","internal_node_id","subject","participantCode","walkNumber","success","rt","stimulus","key_press","test_part","leftProb","midProb","rightProb","generatedNum","correct"
"pavlovia",0,635,"0.0-0.0","ttpykqdd598y3tq",232,"114.csv","","","","","",NA,NA,NA,NA,""
"fullscreen",1,6387,"0.0-1.0","ttpykqdd598y3tq",232,"114.csv","true","","","","",NA,NA,NA,NA,""
"survey-html-form",2,16521,"0.0-2.0","ttpykqdd598y3tq",232,"114.csv","","10132.29999999702","","","",NA,NA,NA,NA,""
"image-keyboard-response",3,24710,"0.0-3.0-0.0","ttpykqdd598y3tq",232,"114.csv","","8187.30000000447","resources/images/parrot_nobg.png","13","",NA,NA,NA,NA,""
"image-keyboard-response",4,27711,"0.0-3.0-1.0","ttpykqdd598y3tq",232,"114.csv","","null","resources/image_sets/111.png","null","",NA,NA,NA,NA,""
"image-keyboard-response",5,30740,"0.0-3.0-2.0","ttpykqdd598y3tq",232,"114.csv","","3028.5","resources/image_sets/left_highlight.png","37","",NA,NA,NA,NA,""
"image-keyboard-response",6,31735,"0.0-3.0-3.0","ttpykqdd598y3tq",232,"114.csv","","994.1000000014901","resources/image_sets/mid_highlight.png","38","",NA,NA,NA,NA,""
"image-keyboard-response",7,32252,"0.0-3.0-4.0","ttpykqdd598y3tq",232,"114.csv","","516.3999999985099","resources/image_sets/right_highlight.png","39","",NA,NA,NA,NA,""
"image-keyboard-response",8,33557,"0.0-3.0-5.0","ttpykqdd598y3tq",232,"114.csv","","1304.6000000014901","resources/image_sets/111.png","13","",NA,NA,NA,NA,""
"image-keyboard-response",9,35424,"0.0-3.0-6.0","ttpykqdd598y3tq",232,"114.csv","","1866.8999999985099","resources/images/coin2.png","13","",NA,NA,NA,NA,""
"image-keyboard-response",10,37269,"0.0-3.0-7.0","ttpykqdd598y3tq",232,"114.csv","","1844.1000000014901","resources/images/fishbone.png","13","",NA,NA,NA,NA,""
"html-keyboard-response",11,43834,"0.0-3.0-8.0","ttpykqdd598y3tq",232,"114.csv","","6565","<p>You can track your coin total on the top right of your screen. </p><p>At the end of your journey you will be directed to a survey, so please click on the link before exiting the task</p><p>Press Enter to begin</p>","13","",NA,NA,NA,NA,""
"image-keyboard-response",12,46355,"0.0-4.0-0.0","ttpykqdd598y3tq",232,"114.csv","","2519.7999999970198","resources/trios/L1T4A2.jpg","39","restless",0.7,0.9,0.3,0.671343991811089,"false"
"image-keyboard-response",13,46757,"0.0-4.0-1.0","ttpykqdd598y3tq",232,"114.csv","","null","resources/maskTrios/BBA2.jpg","null","",NA,NA,NA,NA,""
"image-keyboard-response",14,47959,"0.0-4.0-2.0","ttpykqdd598y3tq",232,"114.csv","","null","resources/images/fishbone.png","null","",NA,NA,NA,NA,""
"image-keyboard-response",15,48514,"0.0-4.1-0.1","ttpykqdd598y3tq",232,"114.csv","","554.5999999940395","resources/trios/L1T4A2.jpg","39","restless",0.7,0.9,0.3,0.20728680563707,"true"
"image-keyboard-response",16,48915,"0.0-4.1-1.1","ttpykqdd598y3tq",232,"114.csv","","null","resources/maskTrios/BBA2.jpg","null","",NA,NA,NA,NA,""
"image-keyboard-response",17,50118,"0.0-4.1-2.1","ttpykqdd598y3tq",232,"114.csv","","null","resources/images/coin2.png","null","",NA,NA,NA,NA,""
"image-keyboard-response",18,52114,"0.0-4.2-0.2","ttpykqdd598y3tq",232,"114.csv","","1995","resources/trios/L1T4A2.jpg","38","restless",0.7,0.9,0.3,0.805005850623529,"true"
"image-keyboard-response",19,52515,"0.0-4.2-1.2","ttpykqdd598y3tq",232,"114.csv","","null","resources/maskTrios/BT4B.jpg","null","",NA,NA,NA,NA,""
"image-keyboard-response",20,53717,"0.0-4.2-2.2","ttpykqdd598y3tq",232,"114.csv","","null","resources/images/coin2.png","null","",NA,NA,NA,NA,""
"image-keyboard-response",21,54657,"0.0-4.3-0.3","ttpykqdd598y3tq",232,"114.csv","","939.3999999985099","resources/trios/L1T4A2.jpg","37","restless",0.8,0.8,0.3,0.621125125288441,"true"
"image-keyboard-response",22,55059,"0.0-4.3-1.3","ttpykqdd598y3tq",232,"114.csv","","null","resources/maskTrios/L1BB.jpg","null","",NA,NA,NA,NA,""
"image-keyboard-response",23,56261,"0.0-4.3-2.3","ttpykqdd598y3tq",232,"114.csv","","null","resources/images/coin2.png","null","",NA,NA,NA,NA,""
"image-keyboard-response",24,57133,"0.0-4.4-0.4","ttpykqdd598y3tq",232,"114.csv","","872","resources/trios/L1T4A2.jpg","39","restless",0.8,0.8,0.3,0.394173996643673,"false"
"image-keyboard-response",25,57534,"0.0-4.4-1.4","ttpykqdd598y3tq",232,"114.csv","","null","resources/maskTrios/BBA2.jpg","null","",NA,NA,NA,NA,""
"image-keyboard-response",26,58736,"0.0-4.4-2.4","ttpykqdd598y3tq",232,"114.csv","","null","resources/images/fishbone.png","null","",NA,NA,NA,NA,""
"image-keyboard-response",27,59270,"0.0-4.5-0.5","ttpykqdd598y3tq",232,"114.csv","","533.8999999985099","resources/trios/L1T4A2.jpg","38","restless",0.8,0.7,0.2,0.398753291892254,"true"
"image-keyboard-response",28,59672,"0.0-4.5-1.5","ttpykqdd598y3tq",232,"114.csv","","null","resources/maskTrios/BT4B.jpg","null","",NA,NA,NA,NA,""
"image-keyboard-response",29,60874,"0.0-4.5-2.5","ttpykqdd598y3tq",232,"114.csv","","null","resources/images/coin2.png","null","",NA,NA,NA,NA,""
"image-keyboard-response",30,61565,"0.0-4.6-0.6","ttpykqdd598y3tq",232,"114.csv","","690.6000000014901","resources/trios/L1T4A2.jpg","37","restless",0.8,0.7,0.2,0.685210990851558,"true"
"image-keyboard-response",31,61967,"0.0-4.6-1.6","ttpykqdd598y3tq",232,"114.csv","","null","resources/maskTrios/L1BB.jpg","null","",NA,NA,NA,NA,""
"image-keyboard-response",32,63169,"0.0-4.6-2.6","ttpykqdd598y3tq",232,"114.csv","","null","resources/images/coin2.png","null","",NA,NA,NA,NA,""
"image-keyboard-response",33,63595,"0.0-4.7-0.7","ttpykqdd598y3tq",232,"114.csv","","425.19999999552965","resources/trios/L1T4A2.jpg","38","restless",0.8,0.7,0.2,0.443634966150512,"true"
"image-keyboard-response",34,63996,"0.0-4.7-1.7","ttpykqdd598y3tq",232,"114.csv","","null","resources/maskTrios/BT4B.jpg","null","",NA,NA,NA,NA,""
"image-keyboard-response",35,65198,"0.0-4.7-2.7","ttpykqdd598y3tq",232,"114.csv","","null","resources/images/coin2.png","null","",NA,NA,NA,NA,""
"image-keyboard-response",36,65553,"0.0-4.8-0.8","ttpykqdd598y3tq",232,"114.csv","","354.3999999985099","resources/trios/L1T4A2.jpg","37","restless",0.8,0.7,0.2,0.182347391453221,"true"
"image-keyboard-response",37,65955,"0.0-4.8-1.8","ttpykqdd598y3tq",232,"114.csv","","null","resources/maskTrios/L1BB.jpg","null","",NA,NA,NA,NA,""
"image-keyboard-response",38,67156,"0.0-4.8-2.8","ttpykqdd598y3tq",232,"114.csv","","null","resources/images/coin2.png","null","",NA,NA,NA,NA,""
"image-keyboard-response",39,67443,"0.0-4.9-0.9","ttpykqdd598y3tq",232,"114.csv","","285.8999999985099","resources/trios/L1T4A2.jpg","38","restless",0.8,0.7,0.2,0.774981086749902,"false"
"image-keyboard-response",40,67845,"0.0-4.9-1.9","ttpykqdd598y3tq",232,"114.csv","","null","resources/maskTrios/BT4B.jpg","null","",NA,NA,NA,NA,""
"image-keyboard-response",41,69045,"0.0-4.9-2.9","ttpykqdd598y3tq",232,"114.csv","","null","resources/images/fishbone.png","null","",NA,NA,NA,NA,""
"image-keyboard-response",42,69536,"0.0-4.10-0.10","ttpykqdd598y3tq",232,"114.csv","","490.20000000298023","resources/trios/L1T4A2.jpg","37","restless",0.9,0.7,0.2,0.368487418840399,"true"
"image-keyboard-response",43,69937,"0.0-4.10-1.10","ttpykqdd598y3tq",232,"114.csv","","null","resources/maskTrios/L1BB.jpg","null","",NA,NA,NA,NA,""
"image-keyboard-response",44,71139,"0.0-4.10-2.10","ttpykqdd598y3tq",232,"114.csv","","null","resources/images/coin2.png","null","",NA,NA,NA,NA,""
"image-keyboard-response",45,71515,"0.0-4.11-0.11","ttpykqdd598y3tq",232,"114.csv","","375.90000000596046","resources/trios/L1T4A2.jpg","39","restless",0.9,0.7,0.2,0.835853732620984,"false"
"image-keyboard-response",46,71917,"0.0-4.11-1.11","ttpykqdd598y3tq",232,"114.csv","","null","resources/maskTrios/BBA2.jpg","null","",NA,NA,NA,NA,""
"image-keyboard-response",47,73118,"0.0-4.11-2.11","ttpykqdd598y3tq",232,"114.csv","","null","resources/images/fishbone.png","null","",NA,NA,NA,NA,""
"image-keyboard-response",48,73473,"0.0-4.12-0.12","ttpykqdd598y3tq",232,"114.csv","","354","resources/trios/L1T4A2.jpg","37","restless",0.9,0.7,0.2,0.924934987952736,"false"
"image-keyboard-response",49,73875,"0.0-4.12-1.12","ttpykqdd598y3tq",232,"114.csv","","null","resources/maskTrios/L1BB.jpg","null","",NA,NA,NA,NA,""
"image-keyboard-response",50,75076,"0.0-4.12-2.12","ttpykqdd598y3tq",232,"114.csv","","null","resources/images/fishbone.png","null","",NA,NA,NA,NA,""
"image-keyboard-response",51,75364,"0.0-4.13-0.13","ttpykqdd598y3tq",232,"114.csv","","288.1000000014901","resources/trios/L1T4A2.jpg","38","restless",0.9,0.7,0.2,0.726319216536536,"false"
"image-keyboard-response",52,75766,"0.0-4.13-1.13","ttpykqdd598y3tq",232,"114.csv","","null","resources/maskTrios/BT4B.jpg","null","",NA,NA,NA,NA,""
"image-keyboard-response",53,76967,"0.0-4.13-2.13","ttpykqdd598y3tq",232,"114.csv","","null","resources/images/fishbone.png","null","",NA,NA,NA,NA,""
"image-keyboard-response",54,77434,"0.0-4.14-0.14","ttpykqdd598y3tq",232,"114.csv","","466","resources/trios/L1T4A2.jpg","38","restless",0.9,0.7,0.2,0.746145277504932,"false"
"image-keyboard-response",55,77835,"0.0-4.14-1.14","ttpykqdd598y3tq",232,"114.csv","","null","resources/maskTrios/BT4B.jpg","null","",NA,NA,NA,NA,""
"image-keyboard-response",56,79037,"0.0-4.14-2.14","ttpykqdd598y3tq",232,"114.csv","","null","resources/images/fishbone.png","null","",NA,NA,NA,NA,""
"image-keyboard-response",57,79391,"0.0-4.15-0.15","ttpykqdd598y3tq",232,"114.csv","","353.20000000298023","resources/trios/L1T4A2.jpg","38","restless",0.9,0.7,0.3,0.0149457508241542,"true"
"image-keyboard-response",58,79792,"0.0-4.15-1.15","ttpykqdd598y3tq",232,"114.csv","","null","resources/maskTrios/BT4B.jpg","null","",NA,NA,NA,NA,""
"image-keyboard-response",59,80994,"0.0-4.15-2.15","ttpykqdd598y3tq",232,"114.csv","","null","resources/images/coin2.png","null","",NA,NA,NA,NA,""
"image-keyboard-response",60,81393,"0.0-4.16-0.16","ttpykqdd598y3tq",232,"114.csv","","399.19999999552965","resources/trios/L1T4A2.jpg","37","restless",0.9,0.7,0.3,0.110804748848156,"true"
"image-keyboard-response",61,81795,"0.0-4.16-1.16","ttpykqdd598y3tq",232,"114.csv","","null","resources/maskTrios/L1BB.jpg","null","",NA,NA,NA,NA,""
"image-keyboard-response",62,82996,"0.0-4.16-2.16","ttpykqdd598y3tq",232,"114.csv","","null","resources/images/coin2.png","null","",NA,NA,NA,NA,""
"image-keyboard-response",63,83306,"0.0-4.17-0.17","ttpykqdd598y3tq",232,"114.csv","","309.29999999701977","resources/trios/L1T4A2.jpg","39","restless",0.9,0.6,0.3,0.0747709537266397,"true"
"image-keyboard-response",64,83708,"0.0-4.17-1.17","ttpykqdd598y3tq",232,"114.csv","","null","resources/maskTrios/BBA2.jpg","null","",NA,NA,NA,NA,""
"image-keyboard-response",65,84910,"0.0-4.17-2.17","ttpykqdd598y3tq",232,"114.csv","","null","resources/images/coin2.png","null","",NA,NA,NA,NA,""
"image-keyboard-response",66,85264,"0.0-4.18-0.18","ttpykqdd598y3tq",232,"114.csv","","353.3999999985099","resources/trios/L1T4A2.jpg","38","restless",0.9,0.6,0.3,0.104991481008319,"true"
"image-keyboard-response",67,85665,"0.0-4.18-1.18","ttpykqdd598y3tq",232,"114.csv","","null","resources/maskTrios/BT4B.jpg","null","",NA,NA,NA,NA,""
"image-keyboard-response",68,86866,"0.0-4.18-2.18","ttpykqdd598y3tq",232,"114.csv","","null","resources/images/coin2.png","null","",NA,NA,NA,NA,""
"image-keyboard-response",69,87175,"0.0-4.19-0.19","ttpykqdd598y3tq",232,"114.csv","","308.59999999403954","resources/trios/L1T4A2.jpg","37","restless",0.9,0.6,0.3,0.776559982194569,"true"
"image-keyboard-response",70,87592,"0.0-4.19-1.19","ttpykqdd598y3tq",232,"114.csv","","null","resources/maskTrios/L1BB.jpg","null","",NA,NA,NA,NA,""
"image-keyboard-response",71,88794,"0.0-4.19-2.19","ttpykqdd598y3tq",232,"114.csv","","null","resources/images/coin2.png","null","",NA,NA,NA,NA,""
"image-keyboard-response",72,89066,"0.0-4.20-0.20","ttpykqdd598y3tq",232,"114.csv","","271.70000000298023","resources/trios/L1T4A2.jpg","39","restless",0.9,0.6,0.3,0.0542400671537415,"true"
"image-keyboard-response",73,89469,"0.0-4.20-1.20","ttpykqdd598y3tq",232,"114.csv","","null","resources/maskTrios/BBA2.jpg","null","",NA,NA,NA,NA,""
"image-keyboard-response",74,90670,"0.0-4.20-2.20","ttpykqdd598y3tq",232,"114.csv","","null","resources/images/coin2.png","null","",NA,NA,NA,NA,""
"image-keyboard-response",75,91091,"0.0-4.21-0.21","ttpykqdd598y3tq",232,"114.csv","","419.8999999985099","resources/trios/L1T4A2.jpg","38","restless",0.9,0.6,0.3,0.522864281320533,"true"
"image-keyboard-response",76,91493,"0.0-4.21-1.21","ttpykqdd598y3tq",232,"114.csv","","null","resources/maskTrios/BT4B.jpg","null","",NA,NA,NA,NA,""
"image-keyboard-response",77,92695,"0.0-4.21-2.21","ttpykqdd598y3tq",232,"114.csv","","null","resources/images/coin2.png","null","",NA,NA,NA,NA,""
"image-keyboard-response",78,92891,"0.0-4.22-0.22","ttpykqdd598y3tq",232,"114.csv","","194.79999999701977","resources/trios/L1T4A2.jpg","37","restless",0.9,0.5,0.2,0.166998952468276,"true"
"image-keyboard-response",79,93292,"0.0-4.22-1.22","ttpykqdd598y3tq",232,"114.csv","","null","resources/maskTrios/L1BB.jpg","null","",NA,NA,NA,NA,""
"image-keyboard-response",80,94494,"0.0-4.22-2.22","ttpykqdd598y3tq",232,"114.csv","","null","resources/images/coin2.png","null","",NA,NA,NA,NA,""
"image-keyboard-response",81,94804,"0.0-4.23-0.23","ttpykqdd598y3tq",232,"114.csv","","309.69999999552965","resources/trios/L1T4A2.jpg","39","restless",0.9,0.5,0.1,0.576676371676432,"false"
"image-keyboard-response",82,95206,"0.0-4.23-1.23","ttpykqdd598y3tq",232,"114.csv","","null","resources/maskTrios/BBA2.jpg","null","",NA,NA,NA,NA,""
"image-keyboard-response",83,96408,"0.0-4.23-2.23","ttpykqdd598y3tq",232,"114.csv","","null","resources/images/fishbone.png","null","",NA,NA,NA,NA,""
"image-keyboard-response",84,96761,"0.0-4.24-0.24","ttpykqdd598y3tq",232,"114.csv","","352.8999999985099","resources/trios/L1T4A2.jpg","39","restless",0.9,0.5,0.1,0.822347027945057,"false"
"image-keyboard-response",85,97166,"0.0-4.24-1.24","ttpykqdd598y3tq",232,"114.csv","","null","resources/maskTrios/BBA2.jpg","null","",NA,NA,NA,NA,""
"image-keyboard-response",86,98368,"0.0-4.24-2.24","ttpykqdd598y3tq",232,"114.csv","","null","resources/images/fishbone.png","null","",NA,NA,NA,NA,""
"image-keyboard-response",87,98651,"0.0-4.25-0.25","ttpykqdd598y3tq",232,"114.csv","","282.1000000014901","resources/trios/L1T4A2.jpg","39","restless",0.9,0.5,0.1,0.230588041711052,"false"
"image-keyboard-response",88,99052,"0.0-4.25-1.25","ttpykqdd598y3tq",232,"114.csv","","null","resources/maskTrios/BBA2.jpg","null","",NA,NA,NA,NA,""
"image-keyboard-response",89,100253,"0.0-4.25-2.25","ttpykqdd598y3tq",232,"114.csv","","null","resources/images/fishbone.png","null","",NA,NA,NA,NA,""
"image-keyboard-response",90,100520,"0.0-4.26-0.26","ttpykqdd598y3tq",232,"114.csv","","266","resources/trios/L1T4A2.jpg","39","restless",0.9,0.5,0.1,0.769391810512161,"false"
"image-keyboard-response",91,100922,"0.0-4.26-1.26","ttpykqdd598y3tq",232,"114.csv","","null","resources/maskTrios/BBA2.jpg","null","",NA,NA,NA,NA,""
"image-keyboard-response",92,102123,"0.0-4.26-2.26","ttpykqdd598y3tq",232,"114.csv","","null","resources/images/fishbone.png","null","",NA,NA,NA,NA,""
"image-keyboard-response",93,102364,"0.0-4.27-0.27","ttpykqdd598y3tq",232,"114.csv","","240.60000000149012","resources/trios/L1T4A2.jpg","38","restless",0.9,0.5,0.1,0.0834249659315296,"true"
"image-keyboard-response",94,102765,"0.0-4.27-1.27","ttpykqdd598y3tq",232,"114.csv","","null","resources/maskTrios/BT4B.jpg","null","",NA,NA,NA,NA,""
"image-keyboard-response",95,103967,"0.0-4.27-2.27","ttpykqdd598y3tq",232,"114.csv","","null","resources/images/coin2.png","null","",NA,NA,NA,NA,""
"image-keyboard-response",96,104586,"0.0-4.28-0.28","ttpykqdd598y3tq",232,"114.csv","","618.1999999955297","resources/trios/L1T4A2.jpg","37","restless",0.9,0.5,0.1,0.678643159098466,"true"
"image-keyboard-response",97,104987,"0.0-4.28-1.28","ttpykqdd598y3tq",232,"114.csv","","null","resources/maskTrios/L1BB.jpg","null","",NA,NA,NA,NA,""
"image-keyboard-response",98,106191,"0.0-4.28-2.28","ttpykqdd598y3tq",232,"114.csv","","null","resources/images/coin2.png","null","",NA,NA,NA,NA,""
"image-keyboard-response",99,106526,"0.0-4.29-0.29","ttpykqdd598y3tq",232,"114.csv","","334.6000000014901","resources/trios/L1T4A2.jpg","39","restless",0.9,0.5,0.1,0.593134055016489,"false"
"image-keyboard-response",100,106928,"0.0-4.29-1.29","ttpykqdd598y3tq",232,"114.csv","","null","resources/maskTrios/BBA2.jpg","null","",NA,NA,NA,NA,""
"image-keyboard-response",101,108130,"0.0-4.29-2.29","ttpykqdd598y3tq",232,"114.csv","","null","resources/images/fishbone.png","null","",NA,NA,NA,NA,""
"image-keyboard-response",102,108303,"0.0-4.30-0.30","ttpykqdd598y3tq",232,"114.csv","","173.09999999403954","resources/trios/L1T4A2.jpg","38","restless",0.9,0.5,0.1,0.674264930220726,"false"
"image-keyboard-response",103,108706,"0.0-4.30-1.30","ttpykqdd598y3tq",232,"114.csv","","null","resources/maskTrios/BT4B.jpg","null","",NA,NA,NA,NA,""
"image-keyboard-response",104,109908,"0.0-4.30-2.30","ttpykqdd598y3tq",232,"114.csv","","null","resources/images/fishbone.png","null","",NA,NA,NA,NA,""
"image-keyboard-response",105,110194,"0.0-4.31-0.31","ttpykqdd598y3tq",232,"114.csv","","285.5","resources/trios/L1T4A2.jpg","37","restless",0.9,0.5,0.1,0.146694159545935,"true"
"image-keyboard-response",106,110596,"0.0-4.31-1.31","ttpykqdd598y3tq",232,"114.csv","","null","resources/maskTrios/L1BB.jpg","null","",NA,NA,NA,NA,""
"image-keyboard-response",107,111797,"0.0-4.31-2.31","ttpykqdd598y3tq",232,"114.csv","","null","resources/images/coin2.png","null","",NA,NA,NA,NA,""
"image-keyboard-response",108,112686,"0.0-4.32-0.32","ttpykqdd598y3tq",232,"114.csv","","888.1999999955297","resources/trios/L1T4A2.jpg","39","restless",0.9,0.5,0.1,0.386883784352194,"false"
"image-keyboard-response",109,113087,"0.0-4.32-1.32","ttpykqdd598y3tq",232,"114.csv","","null","resources/maskTrios/BBA2.jpg","null","",NA,NA,NA,NA,""
"image-keyboard-response",110,114290,"0.0-4.32-2.32","ttpykqdd598y3tq",232,"114.csv","","null","resources/images/fishbone.png","null","",NA,NA,NA,NA,""
"image-keyboard-response",111,114581,"0.0-4.33-0.33","ttpykqdd598y3tq",232,"114.csv","","290.3999999985099","resources/trios/L1T4A2.jpg","38","restless",0.9,0.5,0.1,0.586625216623564,"false"
"image-keyboard-response",112,114982,"0.0-4.33-1.33","ttpykqdd598y3tq",232,"114.csv","","null","resources/maskTrios/BT4B.jpg","null","",NA,NA,NA,NA,""
"image-keyboard-response",113,116184,"0.0-4.33-2.33","ttpykqdd598y3tq",232,"114.csv","","null","resources/images/fishbone.png","null","",NA,NA,NA,NA,""
"image-keyboard-response",114,116449,"0.0-4.34-0.34","ttpykqdd598y3tq",232,"114.csv","","265","resources/trios/L1T4A2.jpg","38","restless",0.9,0.5,0.1,0.567791674392796,"false"
"image-keyboard-response",115,116850,"0.0-4.34-1.34","ttpykqdd598y3tq",232,"114.csv","","null","resources/maskTrios/BT4B.jpg","null","",NA,NA,NA,NA,""
"image-keyboard-response",116,118052,"0.0-4.34-2.34","ttpykqdd598y3tq",232,"114.csv","","null","resources/images/fishbone.png","null","",NA,NA,NA,NA,""
"image-keyboard-response",117,118294,"0.0-4.35-0.35","ttpykqdd598y3tq",232,"114.csv","","241.20000000298023","resources/trios/L1T4A2.jpg","38","restless",0.9,0.5,0.1,0.024709171086565,"true"
"image-keyboard-response",118,118696,"0.0-4.35-1.35","ttpykqdd598y3tq",232,"114.csv","","null","resources/maskTrios/BT4B.jpg","null","",NA,NA,NA,NA,""
"image-keyboard-response",119,119898,"0.0-4.35-2.35","ttpykqdd598y3tq",232,"114.csv","","null","resources/images/coin2.png","null","",NA,NA,NA,NA,""
"image-keyboard-response",120,120365,"0.0-4.36-0.36","ttpykqdd598y3tq",232,"114.csv","","465.40000000596046","resources/trios/L1T4A2.jpg","37","restless",0.9,0.5,0.2,0.908627010626581,"false"
"image-keyboard-response",121,120766,"0.0-4.36-1.36","ttpykqdd598y3tq",232,"114.csv","","null","resources/maskTrios/L1BB.jpg","null","",NA,NA,NA,NA,""
"image-keyboard-response",122,121968,"0.0-4.36-2.36","ttpykqdd598y3tq",232,"114.csv","","null","resources/images/fishbone.png","null","",NA,NA,NA,NA,""
"image-keyboard-response",123,122231,"0.0-4.37-0.37","ttpykqdd598y3tq",232,"114.csv","","262.70000000298023","resources/trios/L1T4A2.jpg","39","restless",0.9,0.5,0.2,0.000108534791221082,"true"
"image-keyboard-response",124,122633,"0.0-4.37-1.37","ttpykqdd598y3tq",232,"114.csv","","null","resources/maskTrios/BBA2.jpg","null","",NA,NA,NA,NA,""
"image-keyboard-response",125,123835,"0.0-4.37-2.37","ttpykqdd598y3tq",232,"114.csv","","null","resources/images/coin2.png","null","",NA,NA,NA,NA,""
"image-keyboard-response",126,124166,"0.0-4.38-0.38","ttpykqdd598y3tq",232,"114.csv","","330.79999999701977","resources/trios/L1T4A2.jpg","38","restless",0.9,0.5,0.2,0.62319267831397,"false"
"image-keyboard-response",127,124567,"0.0-4.38-1.38","ttpykqdd598y3tq",232,"114.csv","","null","resources/maskTrios/BT4B.jpg","null","",NA,NA,NA,NA,""
"image-keyboard-response",128,125769,"0.0-4.38-2.38","ttpykqdd598y3tq",232,"114.csv","","null","resources/images/fishbone.png","null","",NA,NA,NA,NA,""
"image-keyboard-response",129,126079,"0.0-4.39-0.39","ttpykqdd598y3tq",232,"114.csv","","309.3999999985099","resources/trios/L1T4A2.jpg","37","restless",0.9,0.5,0.2,0.415506535508212,"true"
"image-keyboard-response",130,126482,"0.0-4.39-1.39","ttpykqdd598y3tq",232,"114.csv","","null","resources/maskTrios/L1BB.jpg","null","",NA,NA,NA,NA,""
"image-keyboard-response",131,127683,"0.0-4.39-2.39","ttpykqdd598y3tq",232,"114.csv","","null","resources/images/coin2.png","null","",NA,NA,NA,NA,""
"image-keyboard-response",132,128369,"0.0-4.40-0.40","ttpykqdd598y3tq",232,"114.csv","","684.6000000014901","resources/trios/L1T4A2.jpg","39","restless",0.9,0.5,0.3,0.138244694554305,"true"
"image-keyboard-response",133,128770,"0.0-4.40-1.40","ttpykqdd598y3tq",232,"114.csv","","null","resources/maskTrios/BBA2.jpg","null","",NA,NA,NA,NA,""
"image-keyboard-response",134,129972,"0.0-4.40-2.40","ttpykqdd598y3tq",232,"114.csv","","null","resources/images/coin2.png","null","",NA,NA,NA,NA,""
"image-keyboard-response",135,130529,"0.0-4.41-0.41","ttpykqdd598y3tq",232,"114.csv","","556.5","resources/trios/L1T4A2.jpg","38","restless",0.8,0.4,0.3,0.735839793924862,"false"
"image-keyboard-response",136,130930,"0.0-4.41-1.41","ttpykqdd598y3tq",232,"114.csv","","null","resources/maskTrios/BT4B.jpg","null","",NA,NA,NA,NA,""
"image-keyboard-response",137,132132,"0.0-4.41-2.41","ttpykqdd598y3tq",232,"114.csv","","null","resources/images/fishbone.png","null","",NA,NA,NA,NA,""
"image-keyboard-response",138,132446,"0.0-4.42-0.42","ttpykqdd598y3tq",232,"114.csv","","313.29999999701977","resources/trios/L1T4A2.jpg","38","restless",0.8,0.4,0.4,0.598390588562883,"false"
"image-keyboard-response",139,132848,"0.0-4.42-1.42","ttpykqdd598y3tq",232,"114.csv","","null","resources/maskTrios/BT4B.jpg","null","",NA,NA,NA,NA,""
"image-keyboard-response",140,134050,"0.0-4.42-2.42","ttpykqdd598y3tq",232,"114.csv","","null","resources/images/fishbone.png","null","",NA,NA,NA,NA,""
"image-keyboard-response",141,134180,"0.0-4.43-0.43","ttpykqdd598y3tq",232,"114.csv","","128.89999999850988","resources/trios/L1T4A2.jpg","38","restless",0.8,0.4,0.4,0.592536940670995,"false"
"image-keyboard-response",142,134581,"0.0-4.43-1.43","ttpykqdd598y3tq",232,"114.csv","","null","resources/maskTrios/BT4B.jpg","null","",NA,NA,NA,NA,""
"image-keyboard-response",143,135783,"0.0-4.43-2.43","ttpykqdd598y3tq",232,"114.csv","","null","resources/images/fishbone.png","null","",NA,NA,NA,NA,""
"image-keyboard-response",144,136023,"0.0-4.44-0.44","ttpykqdd598y3tq",232,"114.csv","","239.79999999701977","resources/trios/L1T4A2.jpg","38","restless",0.8,0.4,0.4,0.850229932693889,"false"
"image-keyboard-response",145,136425,"0.0-4.44-1.44","ttpykqdd598y3tq",232,"114.csv","","null","resources/maskTrios/BT4B.jpg","null","",NA,NA,NA,NA,""
"image-keyboard-response",146,137627,"0.0-4.44-2.44","ttpykqdd598y3tq",232,"114.csv","","null","resources/images/fishbone.png","null","",NA,NA,NA,NA,""
"image-keyboard-response",147,137846,"0.0-4.45-0.45","ttpykqdd598y3tq",232,"114.csv","","219.10000000149012","resources/trios/L1T4A2.jpg","38","restless",0.8,0.4,0.4,0.575548147130941,"false"
"image-keyboard-response",148,138248,"0.0-4.45-1.45","ttpykqdd598y3tq",232,"114.csv","","null","resources/maskTrios/BT4B.jpg","null","",NA,NA,NA,NA,""
"image-keyboard-response",149,139450,"0.0-4.45-2.45","ttpykqdd598y3tq",232,"114.csv","","null","resources/images/fishbone.png","null","",NA,NA,NA,NA,""
"image-keyboard-response",150,139715,"0.0-4.46-0.46","ttpykqdd598y3tq",232,"114.csv","","263.90000000596046","resources/trios/L1T4A2.jpg","37","restless",0.8,0.4,0.4,0.413756057138598,"true"
"image-keyboard-response",151,140117,"0.0-4.46-1.46","ttpykqdd598y3tq",232,"114.csv","","null","resources/maskTrios/L1BB.jpg","null","",NA,NA,NA,NA,""
"image-keyboard-response",152,141318,"0.0-4.46-2.46","ttpykqdd598y3tq",232,"114.csv","","null","resources/images/coin2.png","null","",NA,NA,NA,NA,""
"image-keyboard-response",153,141716,"0.0-4.47-0.47","ttpykqdd598y3tq",232,"114.csv","","397.09999999403954","resources/trios/L1T4A2.jpg","39","restless",0.8,0.4,0.4,0.679981095257447,"false"
"image-keyboard-response",154,142124,"0.0-4.47-1.47","ttpykqdd598y3tq",232,"114.csv","","null","resources/maskTrios/BBA2.jpg","null","",NA,NA,NA,NA,""
"image-keyboard-response",155,143325,"0.0-4.47-2.47","ttpykqdd598y3tq",232,"114.csv","","null","resources/images/fishbone.png","null","",NA,NA,NA,NA,""
"image-keyboard-response",156,143607,"0.0-4.48-0.48","ttpykqdd598y3tq",232,"114.csv","","280.80000000447035","resources/trios/L1T4A2.jpg","39","restless",0.8,0.4,0.4,0.676116453811533,"false"
"image-keyboard-response",157,144009,"0.0-4.48-1.48","ttpykqdd598y3tq",232,"114.csv","","null","resources/maskTrios/BBA2.jpg","null","",NA,NA,NA,NA,""
"image-keyboard-response",158,145210,"0.0-4.48-2.48","ttpykqdd598y3tq",232,"114.csv","","null","resources/images/fishbone.png","null","",NA,NA,NA,NA,""
"image-keyboard-response",159,145452,"0.0-4.49-0.49","ttpykqdd598y3tq",232,"114.csv","","241.20000000298023","resources/trios/L1T4A2.jpg","38","restless",0.8,0.4,0.4,0.213223597911167,"true"
"image-keyboard-response",160,145854,"0.0-4.49-1.49","ttpykqdd598y3tq",232,"114.csv","","null","resources/maskTrios/BT4B.jpg","null","",NA,NA,NA,NA,""
"image-keyboard-response",161,147055,"0.0-4.49-2.49","ttpykqdd598y3tq",232,"114.csv","","null","resources/images/coin2.png","null","",NA,NA,NA,NA,""
"image-keyboard-response",162,147319,"0.0-4.50-0.50","ttpykqdd598y3tq",232,"114.csv","","263.80000000447035","resources/trios/L1T4A2.jpg","37","restless",0.7,0.4,0.4,0.628321721623352,"true"
"image-keyboard-response",163,147722,"0.0-4.50-1.50","ttpykqdd598y3tq",232,"114.csv","","null","resources/maskTrios/L1BB.jpg","null","",NA,NA,NA,NA,""
"image-keyboard-response",164,148923,"0.0-4.50-2.50","ttpykqdd598y3tq",232,"114.csv","","null","resources/images/coin2.png","null","",NA,NA,NA,NA,""
"image-keyboard-response",165,149233,"0.0-4.51-0.51","ttpykqdd598y3tq",232,"114.csv","","309","resources/trios/L1T4A2.jpg","38","restless",0.7,0.4,0.4,0.799588743539078,"false"
"image-keyboard-response",166,149639,"0.0-4.51-1.51","ttpykqdd598y3tq",232,"114.csv","","null","resources/maskTrios/BT4B.jpg","null","",NA,NA,NA,NA,""
"image-keyboard-response",167,150841,"0.0-4.51-2.51","ttpykqdd598y3tq",232,"114.csv","","null","resources/images/fishbone.png","null","",NA,NA,NA,NA,""
"image-keyboard-response",168,151077,"0.0-4.52-0.52","ttpykqdd598y3tq",232,"114.csv","","235.10000000149012","resources/trios/L1T4A2.jpg","37","restless",0.7,0.4,0.4,0.604188716384818,"true"
"image-keyboard-response",169,151479,"0.0-4.52-1.52","ttpykqdd598y3tq",232,"114.csv","","null","resources/maskTrios/L1BB.jpg","null","",NA,NA,NA,NA,""
"image-keyboard-response",170,152679,"0.0-4.52-2.52","ttpykqdd598y3tq",232,"114.csv","","null","resources/images/coin2.png","null","",NA,NA,NA,NA,""
"image-keyboard-response",171,153345,"0.0-4.53-0.53","ttpykqdd598y3tq",232,"114.csv","","664.8000000044703","resources/trios/L1T4A2.jpg","37","restless",0.7,0.4,0.5,0.585368600165134,"true"
"image-keyboard-response",172,153747,"0.0-4.53-1.53","ttpykqdd598y3tq",232,"114.csv","","null","resources/maskTrios/L1BB.jpg","null","",NA,NA,NA,NA,""
"image-keyboard-response",173,154949,"0.0-4.53-2.53","ttpykqdd598y3tq",232,"114.csv","","null","resources/images/coin2.png","null","",NA,NA,NA,NA,""
"image-keyboard-response",174,155172,"0.0-4.54-0.54","ttpykqdd598y3tq",232,"114.csv","","222.5","resources/trios/L1T4A2.jpg","37","restless",0.7,0.4,0.5,0.631318758874187,"true"
"image-keyboard-response",175,155582,"0.0-4.54-1.54","ttpykqdd598y3tq",232,"114.csv","","null","resources/maskTrios/L1BB.jpg","null","",NA,NA,NA,NA,""
"image-keyboard-response",176,156783,"0.0-4.54-2.54","ttpykqdd598y3tq",232,"114.csv","","null","resources/images/coin2.png","null","",NA,NA,NA,NA,""
"image-keyboard-response",177,156995,"0.0-4.55-0.55","ttpykqdd598y3tq",232,"114.csv","","211.29999999701977","resources/trios/L1T4A2.jpg","37","restless",0.7,0.4,0.5,0.596995138281894,"true"
"image-keyboard-response",178,157397,"0.0-4.55-1.55","ttpykqdd598y3tq",232,"114.csv","","null","resources/maskTrios/L1BB.jpg","null","",NA,NA,NA,NA,""
"image-keyboard-response",179,158598,"0.0-4.55-2.55","ttpykqdd598y3tq",232,"114.csv","","null","resources/images/coin2.png","null","",NA,NA,NA,NA,""
"image-keyboard-response",180,158795,"0.0-4.56-0.56","ttpykqdd598y3tq",232,"114.csv","","195.5","resources/trios/L1T4A2.jpg","37","restless",0.7,0.4,0.5,0.416238111853124,"true"
"image-keyboard-response",181,159196,"0.0-4.56-1.56","ttpykqdd598y3tq",232,"114.csv","","null","resources/maskTrios/L1BB.jpg","null","",NA,NA,NA,NA,""
"image-keyboard-response",182,160397,"0.0-4.56-2.56","ttpykqdd598y3tq",232,"114.csv","","null","resources/images/coin2.png","null","",NA,NA,NA,NA,""
"image-keyboard-response",183,160617,"0.0-4.57-0.57","ttpykqdd598y3tq",232,"114.csv","","218.69999999552965","resources/trios/L1T4A2.jpg","37","restless",0.7,0.4,0.5,0.00818870274423733,"true"
"image-keyboard-response",184,161019,"0.0-4.57-1.57","ttpykqdd598y3tq",232,"114.csv","","null","resources/maskTrios/L1BB.jpg","null","",NA,NA,NA,NA,""
"image-keyboard-response",185,162220,"0.0-4.57-2.57","ttpykqdd598y3tq",232,"114.csv","","null","resources/images/coin2.png","null","",NA,NA,NA,NA,""
"image-keyboard-response",186,162416,"0.0-4.58-0.58","ttpykqdd598y3tq",232,"114.csv","","195.19999999552965","resources/trios/L1T4A2.jpg","37","restless",0.7,0.4,0.5,0.486502022315737,"true"
"image-keyboard-response",187,162818,"0.0-4.58-1.58","ttpykqdd598y3tq",232,"114.csv","","null","resources/maskTrios/L1BB.jpg","null","",NA,NA,NA,NA,""
"image-keyboard-response",188,164021,"0.0-4.58-2.58","ttpykqdd598y3tq",232,"114.csv","","null","resources/images/coin2.png","null","",NA,NA,NA,NA,""
"image-keyboard-response",189,164240,"0.0-4.59-0.59","ttpykqdd598y3tq",232,"114.csv","","218.60000000149012","resources/trios/L1T4A2.jpg","37","restless",0.7,0.4,0.6,0.067664709510743,"true"
"image-keyboard-response",190,164641,"0.0-4.59-1.59","ttpykqdd598y3tq",232,"114.csv","","null","resources/maskTrios/L1BB.jpg","null","",NA,NA,NA,NA,""
"image-keyboard-response",191,165843,"0.0-4.59-2.59","ttpykqdd598y3tq",232,"114.csv","","null","resources/images/coin2.png","null","",NA,NA,NA,NA,""
"image-keyboard-response",192,166085,"0.0-4.60-0.60","ttpykqdd598y3tq",232,"114.csv","","241.10000000149012","resources/trios/L1T4A2.jpg","37","restless",0.7,0.4,0.6,0.36177845914543,"true"
"image-keyboard-response",193,166486,"0.0-4.60-1.60","ttpykqdd598y3tq",232,"114.csv","","null","resources/maskTrios/L1BB.jpg","null","",NA,NA,NA,NA,""
"image-keyboard-response",194,167688,"0.0-4.60-2.60","ttpykqdd598y3tq",232,"114.csv","","null","resources/images/coin2.png","null","",NA,NA,NA,NA,""
"image-keyboard-response",195,167930,"0.0-4.61-0.61","ttpykqdd598y3tq",232,"114.csv","","241","resources/trios/L1T4A2.jpg","37","restless",0.7,0.4,0.6,0.261031521230711,"true"
"image-keyboard-response",196,168331,"0.0-4.61-1.61","ttpykqdd598y3tq",232,"114.csv","","null","resources/maskTrios/L1BB.jpg","null","",NA,NA,NA,NA,""
"image-keyboard-response",197,169533,"0.0-4.61-2.61","ttpykqdd598y3tq",232,"114.csv","","null","resources/images/coin2.png","null","",NA,NA,NA,NA,""
"image-keyboard-response",198,169595,"0.0-4.62-0.62","ttpykqdd598y3tq",232,"114.csv","","61.19999999552965","resources/trios/L1T4A2.jpg","37","restless",0.7,0.4,0.6,0.872613028551973,"false"
"image-keyboard-response",199,169998,"0.0-4.62-1.62","ttpykqdd598y3tq",232,"114.csv","","null","resources/maskTrios/L1BB.jpg","null","",NA,NA,NA,NA,""
"image-keyboard-response",200,171199,"0.0-4.62-2.62","ttpykqdd598y3tq",232,"114.csv","","null","resources/images/fishbone.png","null","",NA,NA,NA,NA,""
"image-keyboard-response",201,171440,"0.0-4.63-0.63","ttpykqdd598y3tq",232,"114.csv","","239.60000000149012","resources/trios/L1T4A2.jpg","39","restless",0.7,0.4,0.6,0.453582148961531,"true"
"image-keyboard-response",202,171841,"0.0-4.63-1.63","ttpykqdd598y3tq",232,"114.csv","","null","resources/maskTrios/BBA2.jpg","null","",NA,NA,NA,NA,""
"image-keyboard-response",203,173043,"0.0-4.63-2.63","ttpykqdd598y3tq",232,"114.csv","","null","resources/images/coin2.png","null","",NA,NA,NA,NA,""
"image-keyboard-response",204,173285,"0.0-4.64-0.64","ttpykqdd598y3tq",232,"114.csv","","241.10000000149012","resources/trios/L1T4A2.jpg","39","restless",0.6,0.4,0.7,0.109155405998791,"true"
"image-keyboard-response",205,173687,"0.0-4.64-1.64","ttpykqdd598y3tq",232,"114.csv","","null","resources/maskTrios/BBA2.jpg","null","",NA,NA,NA,NA,""
"image-keyboard-response",206,174888,"0.0-4.64-2.64","ttpykqdd598y3tq",232,"114.csv","","null","resources/images/coin2.png","null","",NA,NA,NA,NA,""
"image-keyboard-response",207,175197,"0.0-4.65-0.65","ttpykqdd598y3tq",232,"114.csv","","308.30000000447035","resources/trios/L1T4A2.jpg","39","restless",0.6,0.4,0.7,0.65309035865281,"true"
"image-keyboard-response",208,175599,"0.0-4.65-1.65","ttpykqdd598y3tq",232,"114.csv","","null","resources/maskTrios/BBA2.jpg","null","",NA,NA,NA,NA,""
"image-keyboard-response",209,176800,"0.0-4.65-2.65","ttpykqdd598y3tq",232,"114.csv","","null","resources/images/coin2.png","null","",NA,NA,NA,NA,""
"image-keyboard-response",210,176907,"0.0-4.66-0.66","ttpykqdd598y3tq",232,"114.csv","","106.30000000447035","resources/trios/L1T4A2.jpg","39","restless",0.6,0.4,0.7,0.0437666349441821,"true"
"image-keyboard-response",211,177308,"0.0-4.66-1.66","ttpykqdd598y3tq",232,"114.csv","","null","resources/maskTrios/BBA2.jpg","null","",NA,NA,NA,NA,""
"image-keyboard-response",212,178510,"0.0-4.66-2.66","ttpykqdd598y3tq",232,"114.csv","","null","resources/images/coin2.png","null","",NA,NA,NA,NA,""
"image-keyboard-response",213,178775,"0.0-4.67-0.67","ttpykqdd598y3tq",232,"114.csv","","264.5","resources/trios/L1T4A2.jpg","39","restless",0.6,0.4,0.7,0.83380662794586,"false"
"image-keyboard-response",214,179178,"0.0-4.67-1.67","ttpykqdd598y3tq",232,"114.csv","","null","resources/maskTrios/BBA2.jpg","null","",NA,NA,NA,NA,""
"image-keyboard-response",215,180380,"0.0-4.67-2.67","ttpykqdd598y3tq",232,"114.csv","","null","resources/images/fishbone.png","null","",NA,NA,NA,NA,""
"image-keyboard-response",216,180642,"0.0-4.68-0.68","ttpykqdd598y3tq",232,"114.csv","","261.1000000014901","resources/trios/L1T4A2.jpg","38","restless",0.6,0.4,0.7,0.0758919505235218,"true"
"image-keyboard-response",217,181044,"0.0-4.68-1.68","ttpykqdd598y3tq",232,"114.csv","","null","resources/maskTrios/BT4B.jpg","null","",NA,NA,NA,NA,""
"image-keyboard-response",218,182246,"0.0-4.68-2.68","ttpykqdd598y3tq",232,"114.csv","","null","resources/images/coin2.png","null","",NA,NA,NA,NA,""
"image-keyboard-response",219,182510,"0.0-4.69-0.69","ttpykqdd598y3tq",232,"114.csv","","262.59999999403954","resources/trios/L1T4A2.jpg","38","restless",0.6,0.4,0.7,0.186795111854864,"true"
"image-keyboard-response",220,182912,"0.0-4.69-1.69","ttpykqdd598y3tq",232,"114.csv","","null","resources/maskTrios/BT4B.jpg","null","",NA,NA,NA,NA,""
"image-keyboard-response",221,184113,"0.0-4.69-2.69","ttpykqdd598y3tq",232,"114.csv","","null","resources/images/coin2.png","null","",NA,NA,NA,NA,""
"image-keyboard-response",222,184355,"0.0-4.70-0.70","ttpykqdd598y3tq",232,"114.csv","","240.39999999850988","resources/trios/L1T4A2.jpg","38","restless",0.6,0.4,0.7,0.760268754232728,"false"
"image-keyboard-response",223,184756,"0.0-4.70-1.70","ttpykqdd598y3tq",232,"114.csv","","null","resources/maskTrios/BT4B.jpg","null","",NA,NA,NA,NA,""
"image-keyboard-response",224,185958,"0.0-4.70-2.70","ttpykqdd598y3tq",232,"114.csv","","null","resources/images/fishbone.png","null","",NA,NA,NA,NA,""
"image-keyboard-response",225,186222,"0.0-4.71-0.71","ttpykqdd598y3tq",232,"114.csv","","263.79999999701977","resources/trios/L1T4A2.jpg","37","restless",0.6,0.4,0.7,0.483475573484204,"true"
"image-keyboard-response",226,186623,"0.0-4.71-1.71","ttpykqdd598y3tq",232,"114.csv","","null","resources/maskTrios/L1BB.jpg","null","",NA,NA,NA,NA,""
"image-keyboard-response",227,187825,"0.0-4.71-2.71","ttpykqdd598y3tq",232,"114.csv","","null","resources/images/coin2.png","null","",NA,NA,NA,NA,""
"image-keyboard-response",228,188045,"0.0-4.72-0.72","ttpykqdd598y3tq",232,"114.csv","","219.60000000149012","resources/trios/L1T4A2.jpg","37","restless",0.5,0.4,0.7,0.514159397413242,"false"
"image-keyboard-response",229,188447,"0.0-4.72-1.72","ttpykqdd598y3tq",232,"114.csv","","null","resources/maskTrios/L1BB.jpg","null","",NA,NA,NA,NA,""
"image-keyboard-response",230,189648,"0.0-4.72-2.72","ttpykqdd598y3tq",232,"114.csv","","null","resources/images/fishbone.png","null","",NA,NA,NA,NA,""
"image-keyboard-response",231,189913,"0.0-4.73-0.73","ttpykqdd598y3tq",232,"114.csv","","264.6000000014901","resources/trios/L1T4A2.jpg","39","restless",0.5,0.4,0.7,0.105270054955598,"true"
"image-keyboard-response",232,190315,"0.0-4.73-1.73","ttpykqdd598y3tq",232,"114.csv","","null","resources/maskTrios/BBA2.jpg","null","",NA,NA,NA,NA,""
"image-keyboard-response",233,191516,"0.0-4.73-2.73","ttpykqdd598y3tq",232,"114.csv","","null","resources/images/coin2.png","null","",NA,NA,NA,NA,""
"image-keyboard-response",234,191870,"0.0-4.74-0.74","ttpykqdd598y3tq",232,"114.csv","","353.3999999985099","resources/trios/L1T4A2.jpg","39","restless",0.5,0.4,0.7,0.588745479410005,"true"
"image-keyboard-response",235,192272,"0.0-4.74-1.74","ttpykqdd598y3tq",232,"114.csv","","null","resources/maskTrios/BBA2.jpg","null","",NA,NA,NA,NA,""
"image-keyboard-response",236,193473,"0.0-4.74-2.74","ttpykqdd598y3tq",232,"114.csv","","null","resources/images/coin2.png","null","",NA,NA,NA,NA,""
"image-keyboard-response",237,193670,"0.0-4.75-0.75","ttpykqdd598y3tq",232,"114.csv","","196.20000000298023","resources/trios/L1T4A2.jpg","39","restless",0.5,0.4,0.7,0.662580643838464,"true"
"image-keyboard-response",238,194072,"0.0-4.75-1.75","ttpykqdd598y3tq",232,"114.csv","","null","resources/maskTrios/BBA2.jpg","null","",NA,NA,NA,NA,""
"image-keyboard-response",239,195273,"0.0-4.75-2.75","ttpykqdd598y3tq",232,"114.csv","","null","resources/images/coin2.png","null","",NA,NA,NA,NA,""
"image-keyboard-response",240,195313,"0.0-4.76-0.76","ttpykqdd598y3tq",232,"114.csv","","39","resources/trios/L1T4A2.jpg","39","restless",0.5,0.3,0.7,0.0271770034896575,"true"
"image-keyboard-response",241,195714,"0.0-4.76-1.76","ttpykqdd598y3tq",232,"114.csv","","null","resources/maskTrios/BBA2.jpg","null","",NA,NA,NA,NA,""
"image-keyboard-response",242,196916,"0.0-4.76-2.76","ttpykqdd598y3tq",232,"114.csv","","null","resources/images/coin2.png","null","",NA,NA,NA,NA,""
"image-keyboard-response",243,197338,"0.0-4.77-0.77","ttpykqdd598y3tq",232,"114.csv","","421.70000000298023","resources/trios/L1T4A2.jpg","39","restless",0.4,0.4,0.7,0.740738449669868,"false"
"image-keyboard-response",244,197740,"0.0-4.77-1.77","ttpykqdd598y3tq",232,"114.csv","","null","resources/maskTrios/BBA2.jpg","null","",NA,NA,NA,NA,""
"image-keyboard-response",245,198942,"0.0-4.77-2.77","ttpykqdd598y3tq",232,"114.csv","","null","resources/images/fishbone.png","null","",NA,NA,NA,NA,""
"image-keyboard-response",246,199205,"0.0-4.78-0.78","ttpykqdd598y3tq",232,"114.csv","","262.5","resources/trios/L1T4A2.jpg","38","restless",0.4,0.4,0.7,0.451094190880747,"false"
"image-keyboard-response",247,199606,"0.0-4.78-1.78","ttpykqdd598y3tq",232,"114.csv","","null","resources/maskTrios/BT4B.jpg","null","",NA,NA,NA,NA,""
"image-keyboard-response",248,200808,"0.0-4.78-2.78","ttpykqdd598y3tq",232,"114.csv","","null","resources/images/fishbone.png","null","",NA,NA,NA,NA,""
"image-keyboard-response",249,201072,"0.0-4.79-0.79","ttpykqdd598y3tq",232,"114.csv","","263.29999999701977","resources/trios/L1T4A2.jpg","37","restless",0.4,0.4,0.7,0.010444029029089,"true"
"image-keyboard-response",250,201474,"0.0-4.79-1.79","ttpykqdd598y3tq",232,"114.csv","","null","resources/maskTrios/L1BB.jpg","null","",NA,NA,NA,NA,""
"image-keyboard-response",251,202690,"0.0-4.79-2.79","ttpykqdd598y3tq",232,"114.csv","","null","resources/images/coin2.png","null","",NA,NA,NA,NA,""
"image-keyboard-response",252,202940,"0.0-4.80-0.80","ttpykqdd598y3tq",232,"114.csv","","249.80000000447035","resources/trios/L1T4A2.jpg","37","restless",0.3,0.4,0.7,0.696977101754443,"false"
"image-keyboard-response",253,203342,"0.0-4.80-1.80","ttpykqdd598y3tq",232,"114.csv","","null","resources/maskTrios/L1BB.jpg","null","",NA,NA,NA,NA,""
"image-keyboard-response",254,204543,"0.0-4.80-2.80","ttpykqdd598y3tq",232,"114.csv","","null","resources/images/fishbone.png","null","",NA,NA,NA,NA,""
"image-keyboard-response",255,204695,"0.0-4.81-0.81","ttpykqdd598y3tq",232,"114.csv","","150.30000000447035","resources/trios/L1T4A2.jpg","39","restless",0.3,0.4,0.7,0.28723005425085,"true"
"image-keyboard-response",256,205097,"0.0-4.81-1.81","ttpykqdd598y3tq",232,"114.csv","","null","resources/maskTrios/BBA2.jpg","null","",NA,NA,NA,NA,""
"image-keyboard-response",257,206298,"0.0-4.81-2.81","ttpykqdd598y3tq",232,"114.csv","","null","resources/images/coin2.png","null","",NA,NA,NA,NA,""
"image-keyboard-response",258,206563,"0.0-4.82-0.82","ttpykqdd598y3tq",232,"114.csv","","264.6000000014901","resources/trios/L1T4A2.jpg","39","restless",0.3,0.4,0.7,0.404620269577467,"true"
"image-keyboard-response",259,206965,"0.0-4.82-1.82","ttpykqdd598y3tq",232,"114.csv","","null","resources/maskTrios/BBA2.jpg","null","",NA,NA,NA,NA,""
"image-keyboard-response",260,208181,"0.0-4.82-2.82","ttpykqdd598y3tq",232,"114.csv","","null","resources/images/coin2.png","null","",NA,NA,NA,NA,""
"image-keyboard-response",261,208610,"0.0-4.83-0.83","ttpykqdd598y3tq",232,"114.csv","","314.69999999552965","resources/trios/L1T4A2.jpg","39","restless",0.4,0.4,0.6,0.463877849845447,"true"
"image-keyboard-response",262,209012,"0.0-4.83-1.83","ttpykqdd598y3tq",232,"114.csv","","null","resources/maskTrios/BBA2.jpg","null","",NA,NA,NA,NA,""
"image-keyboard-response",263,210213,"0.0-4.83-2.83","ttpykqdd598y3tq",232,"114.csv","","null","resources/images/coin2.png","null","",NA,NA,NA,NA,""
"image-keyboard-response",264,210478,"0.0-4.84-0.84","ttpykqdd598y3tq",232,"114.csv","","263.5","resources/trios/L1T4A2.jpg","39","restless",0.4,0.4,0.6,0.964161991290549,"false"
"image-keyboard-response",265,210879,"0.0-4.84-1.84","ttpykqdd598y3tq",232,"114.csv","","null","resources/maskTrios/BBA2.jpg","null","",NA,NA,NA,NA,""
"image-keyboard-response",266,212080,"0.0-4.84-2.84","ttpykqdd598y3tq",232,"114.csv","","null","resources/images/fishbone.png","null","",NA,NA,NA,NA,""
"image-keyboard-response",267,212345,"0.0-4.85-0.85","ttpykqdd598y3tq",232,"114.csv","","264.29999999701977","resources/trios/L1T4A2.jpg","38","restless",0.4,0.4,0.6,0.509961896940326,"false"
"image-keyboard-response",268,212747,"0.0-4.85-1.85","ttpykqdd598y3tq",232,"114.csv","","null","resources/maskTrios/BT4B.jpg","null","",NA,NA,NA,NA,""
"image-keyboard-response",269,213957,"0.0-4.85-2.85","ttpykqdd598y3tq",232,"114.csv","","null","resources/images/fishbone.png","null","",NA,NA,NA,NA,""
"image-keyboard-response",270,214167,"0.0-4.86-0.86","ttpykqdd598y3tq",232,"114.csv","","209.30000000447035","resources/trios/L1T4A2.jpg","37","restless",0.4,0.5,0.6,0.596217765870995,"false"
"image-keyboard-response",271,214569,"0.0-4.86-1.86","ttpykqdd598y3tq",232,"114.csv","","null","resources/maskTrios/L1BB.jpg","null","",NA,NA,NA,NA,""
"image-keyboard-response",272,215770,"0.0-4.86-2.86","ttpykqdd598y3tq",232,"114.csv","","null","resources/images/fishbone.png","null","",NA,NA,NA,NA,""
"image-keyboard-response",273,216170,"0.0-4.87-0.87","ttpykqdd598y3tq",232,"114.csv","","398.90000000596046","resources/trios/L1T4A2.jpg","39","restless",0.4,0.5,0.6,0.049953699391069,"true"
"image-keyboard-response",274,216571,"0.0-4.87-1.87","ttpykqdd598y3tq",232,"114.csv","","null","resources/maskTrios/BBA2.jpg","null","",NA,NA,NA,NA,""
"image-keyboard-response",275,217773,"0.0-4.87-2.87","ttpykqdd598y3tq",232,"114.csv","","null","resources/images/coin2.png","null","",NA,NA,NA,NA,""
"image-keyboard-response",276,218037,"0.0-4.88-0.88","ttpykqdd598y3tq",232,"114.csv","","263.19999999552965","resources/trios/L1T4A2.jpg","39","restless",0.4,0.5,0.6,0.0525583922050734,"true"
"image-keyboard-response",277,218439,"0.0-4.88-1.88","ttpykqdd598y3tq",232,"114.csv","","null","resources/maskTrios/BBA2.jpg","null","",NA,NA,NA,NA,""
"image-keyboard-response",278,219640,"0.0-4.88-2.88","ttpykqdd598y3tq",232,"114.csv","","null","resources/images/coin2.png","null","",NA,NA,NA,NA,""
"image-keyboard-response",279,219771,"0.0-4.89-0.89","ttpykqdd598y3tq",232,"114.csv","","129.20000000298023","resources/trios/L1T4A2.jpg","39","restless",0.4,0.5,0.6,0.307870803490714,"true"
"image-keyboard-response",280,220172,"0.0-4.89-1.89","ttpykqdd598y3tq",232,"114.csv","","null","resources/maskTrios/BBA2.jpg","null","",NA,NA,NA,NA,""
"image-keyboard-response",281,221373,"0.0-4.89-2.89","ttpykqdd598y3tq",232,"114.csv","","null","resources/images/coin2.png","null","",NA,NA,NA,NA,""
"image-keyboard-response",282,221616,"0.0-4.90-0.90","ttpykqdd598y3tq",232,"114.csv","","241.60000000149012","resources/trios/L1T4A2.jpg","39","restless",0.4,0.5,0.6,0.718307602889422,"false"
"image-keyboard-response",283,222018,"0.0-4.90-1.90","ttpykqdd598y3tq",232,"114.csv","","null","resources/maskTrios/BBA2.jpg","null","",NA,NA,NA,NA,""
"image-keyboard-response",284,223219,"0.0-4.90-2.90","ttpykqdd598y3tq",232,"114.csv","","null","resources/images/fishbone.png","null","",NA,NA,NA,NA,""
"image-keyboard-response",285,223529,"0.0-4.91-0.91","ttpykqdd598y3tq",232,"114.csv","","309.1000000014901","resources/trios/L1T4A2.jpg","38","restless",0.4,0.5,0.6,0.52543721207391,"false"
"image-keyboard-response",286,223931,"0.0-4.91-1.91","ttpykqdd598y3tq",232,"114.csv","","null","resources/maskTrios/BT4B.jpg","null","",NA,NA,NA,NA,""
"image-keyboard-response",287,225132,"0.0-4.91-2.91","ttpykqdd598y3tq",232,"114.csv","","null","resources/images/fishbone.png","null","",NA,NA,NA,NA,""
"image-keyboard-response",288,225305,"0.0-4.92-0.92","ttpykqdd598y3tq",232,"114.csv","","172.30000000447035","resources/trios/L1T4A2.jpg","37","restless",0.4,0.5,0.6,0.117865409099424,"true"
"image-keyboard-response",289,225708,"0.0-4.92-1.92","ttpykqdd598y3tq",232,"114.csv","","null","resources/maskTrios/L1BB.jpg","null","",NA,NA,NA,NA,""
"image-keyboard-response",290,226909,"0.0-4.92-2.92","ttpykqdd598y3tq",232,"114.csv","","null","resources/images/coin2.png","null","",NA,NA,NA,NA,""
"image-keyboard-response",291,227196,"0.0-4.93-0.93","ttpykqdd598y3tq",232,"114.csv","","286.1000000014901","resources/trios/L1T4A2.jpg","37","restless",0.4,0.5,0.6,0.709788063919241,"false"
"image-keyboard-response",292,227597,"0.0-4.93-1.93","ttpykqdd598y3tq",232,"114.csv","","null","resources/maskTrios/L1BB.jpg","null","",NA,NA,NA,NA,""
"image-keyboard-response",293,228798,"0.0-4.93-2.93","ttpykqdd598y3tq",232,"114.csv","","null","resources/images/fishbone.png","null","",NA,NA,NA,NA,""
"image-keyboard-response",294,229017,"0.0-4.94-0.94","ttpykqdd598y3tq",232,"114.csv","","218.39999999850988","resources/trios/L1T4A2.jpg","39","restless",0.4,0.5,0.5,0.404572152585511,"true"
"image-keyboard-response",295,229419,"0.0-4.94-1.94","ttpykqdd598y3tq",232,"114.csv","","null","resources/maskTrios/BBA2.jpg","null","",NA,NA,NA,NA,""
"image-keyboard-response",296,230620,"0.0-4.94-2.94","ttpykqdd598y3tq",232,"114.csv","","null","resources/images/coin2.png","null","",NA,NA,NA,NA,""
"image-keyboard-response",297,230909,"0.0-4.95-0.95","ttpykqdd598y3tq",232,"114.csv","","287.79999999701977","resources/trios/L1T4A2.jpg","39","restless",0.4,0.5,0.5,0.845324440094033,"false"
"image-keyboard-response",298,231310,"0.0-4.95-1.95","ttpykqdd598y3tq",232,"114.csv","","null","resources/maskTrios/BBA2.jpg","null","",NA,NA,NA,NA,""
"image-keyboard-response",299,232512,"0.0-4.95-2.95","ttpykqdd598y3tq",232,"114.csv","","null","resources/images/fishbone.png","null","",NA,NA,NA,NA,""
"image-keyboard-response",300,232775,"0.0-4.96-0.96","ttpykqdd598y3tq",232,"114.csv","","262.29999999701977","resources/trios/L1T4A2.jpg","38","restless",0.4,0.5,0.5,0.851600499867132,"false"
"image-keyboard-response",301,233176,"0.0-4.96-1.96","ttpykqdd598y3tq",232,"114.csv","","null","resources/maskTrios/BT4B.jpg","null","",NA,NA,NA,NA,""
"image-keyboard-response",302,234378,"0.0-4.96-2.96","ttpykqdd598y3tq",232,"114.csv","","null","resources/images/fishbone.png","null","",NA,NA,NA,NA,""
"image-keyboard-response",303,234621,"0.0-4.97-0.97","ttpykqdd598y3tq",232,"114.csv","","241.5","resources/trios/L1T4A2.jpg","37","restless",0.4,0.5,0.5,0.902681188743873,"false"
"image-keyboard-response",304,235022,"0.0-4.97-1.97","ttpykqdd598y3tq",232,"114.csv","","null","resources/maskTrios/L1BB.jpg","null","",NA,NA,NA,NA,""
"image-keyboard-response",305,236223,"0.0-4.97-2.97","ttpykqdd598y3tq",232,"114.csv","","null","resources/images/fishbone.png","null","",NA,NA,NA,NA,""
"image-keyboard-response",306,236510,"0.0-4.98-0.98","ttpykqdd598y3tq",232,"114.csv","","286.20000000298023","resources/trios/L1T4A2.jpg","39","restless",0.4,0.5,0.5,0.773465162672625,"false"
"image-keyboard-response",307,236912,"0.0-4.98-1.98","ttpykqdd598y3tq",232,"114.csv","","null","resources/maskTrios/BBA2.jpg","null","",NA,NA,NA,NA,""
"image-keyboard-response",308,238113,"0.0-4.98-2.98","ttpykqdd598y3tq",232,"114.csv","","null","resources/images/fishbone.png","null","",NA,NA,NA,NA,""
"image-keyboard-response",309,238468,"0.0-4.99-0.99","ttpykqdd598y3tq",232,"114.csv","","354.3999999985099","resources/trios/L1T4A2.jpg","38","restless",0.4,0.5,0.5,0.339770412522583,"true"
"image-keyboard-response",310,238870,"0.0-4.99-1.99","ttpykqdd598y3tq",232,"114.csv","","null","resources/maskTrios/BT4B.jpg","null","",NA,NA,NA,NA,""
"image-keyboard-response",311,240072,"0.0-4.99-2.99","ttpykqdd598y3tq",232,"114.csv","","null","resources/images/coin2.png","null","",NA,NA,NA,NA,""
"image-keyboard-response",312,240359,"0.0-4.100-0.100","ttpykqdd598y3tq",232,"114.csv","","285.70000000298023","resources/trios/L1T4A2.jpg","38","restless",0.4,0.5,0.5,0.426672345885304,"true"
"image-keyboard-response",313,240760,"0.0-4.100-1.100","ttpykqdd598y3tq",232,"114.csv","","null","resources/maskTrios/BT4B.jpg","null","",NA,NA,NA,NA,""
"image-keyboard-response",314,241962,"0.0-4.100-2.100","ttpykqdd598y3tq",232,"114.csv","","null","resources/images/coin2.png","null","",NA,NA,NA,NA,""
"image-keyboard-response",315,242225,"0.0-4.101-0.101","ttpykqdd598y3tq",232,"114.csv","","262.20000000298023","resources/trios/L1T4A2.jpg","38","restless",0.4,0.5,0.5,0.711672519902234,"false"
"image-keyboard-response",316,242626,"0.0-4.101-1.101","ttpykqdd598y3tq",232,"114.csv","","null","resources/maskTrios/BT4B.jpg","null","",NA,NA,NA,NA,""
"image-keyboard-response",317,243828,"0.0-4.101-2.101","ttpykqdd598y3tq",232,"114.csv","","null","resources/images/fishbone.png","null","",NA,NA,NA,NA,""
"image-keyboard-response",318,244070,"0.0-4.102-0.102","ttpykqdd598y3tq",232,"114.csv","","241.59999999403954","resources/trios/L1T4A2.jpg","37","restless",0.4,0.5,0.4,0.173577124114986,"true"
"image-keyboard-response",319,244472,"0.0-4.102-1.102","ttpykqdd598y3tq",232,"114.csv","","null","resources/maskTrios/L1BB.jpg","null","",NA,NA,NA,NA,""
"image-keyboard-response",320,245675,"0.0-4.102-2.102","ttpykqdd598y3tq",232,"114.csv","","null","resources/images/coin2.png","null","",NA,NA,NA,NA,""
"image-keyboard-response",321,245938,"0.0-4.103-0.103","ttpykqdd598y3tq",232,"114.csv","","262.3999999985099","resources/trios/L1T4A2.jpg","37","restless",0.4,0.5,0.4,0.82563255427506,"false"
"image-keyboard-response",322,246339,"0.0-4.103-1.103","ttpykqdd598y3tq",232,"114.csv","","null","resources/maskTrios/L1BB.jpg","null","",NA,NA,NA,NA,""
"image-keyboard-response",323,247540,"0.0-4.103-2.103","ttpykqdd598y3tq",232,"114.csv","","null","resources/images/fishbone.png","null","",NA,NA,NA,NA,""
"image-keyboard-response",324,247783,"0.0-4.104-0.104","ttpykqdd598y3tq",232,"114.csv","","242.39999999850988","resources/trios/L1T4A2.jpg","39","restless",0.4,0.5,0.4,0.443769812888602,"false"
"image-keyboard-response",325,248185,"0.0-4.104-1.104","ttpykqdd598y3tq",232,"114.csv","","null","resources/maskTrios/BBA2.jpg","null","",NA,NA,NA,NA,""
"image-keyboard-response",326,249387,"0.0-4.104-2.104","ttpykqdd598y3tq",232,"114.csv","","null","resources/images/fishbone.png","null","",NA,NA,NA,NA,""
"image-keyboard-response",327,249674,"0.0-4.105-0.105","ttpykqdd598y3tq",232,"114.csv","","286.1000000014901","resources/trios/L1T4A2.jpg","38","restless",0.4,0.5,0.4,0.333319079052704,"true"
"image-keyboard-response",328,250075,"0.0-4.105-1.105","ttpykqdd598y3tq",232,"114.csv","","null","resources/maskTrios/BT4B.jpg","null","",NA,NA,NA,NA,""
"image-keyboard-response",329,251277,"0.0-4.105-2.105","ttpykqdd598y3tq",232,"114.csv","","null","resources/images/coin2.png","null","",NA,NA,NA,NA,""
"image-keyboard-response",330,251586,"0.0-4.106-0.106","ttpykqdd598y3tq",232,"114.csv","","308.3999999985099","resources/trios/L1T4A2.jpg","38","restless",0.4,0.5,0.4,0.183661058015252,"true"
"image-keyboard-response",331,251988,"0.0-4.106-1.106","ttpykqdd598y3tq",232,"114.csv","","null","resources/maskTrios/BT4B.jpg","null","",NA,NA,NA,NA,""
"image-keyboard-response",332,253189,"0.0-4.106-2.106","ttpykqdd598y3tq",232,"114.csv","","null","resources/images/coin2.png","null","",NA,NA,NA,NA,""
"image-keyboard-response",333,253476,"0.0-4.107-0.107","ttpykqdd598y3tq",232,"114.csv","","286.09999999403954","resources/trios/L1T4A2.jpg","38","restless",0.4,0.5,0.4,0.658593696053129,"false"
"image-keyboard-response",334,253878,"0.0-4.107-1.107","ttpykqdd598y3tq",232,"114.csv","","null","resources/maskTrios/BT4B.jpg","null","",NA,NA,NA,NA,""
"image-keyboard-response",335,255079,"0.0-4.107-2.107","ttpykqdd598y3tq",232,"114.csv","","null","resources/images/fishbone.png","null","",NA,NA,NA,NA,""
"image-keyboard-response",336,255321,"0.0-4.108-0.108","ttpykqdd598y3tq",232,"114.csv","","241.10000000149012","resources/trios/L1T4A2.jpg","37","restless",0.4,0.5,0.4,0.548891596832747,"false"
"image-keyboard-response",337,255723,"0.0-4.108-1.108","ttpykqdd598y3tq",232,"114.csv","","null","resources/maskTrios/L1BB.jpg","null","",NA,NA,NA,NA,""
"image-keyboard-response",338,256926,"0.0-4.108-2.108","ttpykqdd598y3tq",232,"114.csv","","null","resources/images/fishbone.png","null","",NA,NA,NA,NA,""
"image-keyboard-response",339,257121,"0.0-4.109-0.109","ttpykqdd598y3tq",232,"114.csv","","194.20000000298023","resources/trios/L1T4A2.jpg","39","restless",0.4,0.5,0.4,0.327768428853032,"true"
"image-keyboard-response",340,257522,"0.0-4.109-1.109","ttpykqdd598y3tq",232,"114.csv","","null","resources/maskTrios/BBA2.jpg","null","",NA,NA,NA,NA,""
"image-keyboard-response",341,258723,"0.0-4.109-2.109","ttpykqdd598y3tq",232,"114.csv","","null","resources/images/coin2.png","null","",NA,NA,NA,NA,""
"image-keyboard-response",342,258966,"0.0-4.110-0.110","ttpykqdd598y3tq",232,"114.csv","","242.5","resources/trios/L1T4A2.jpg","39","restless",0.5,0.5,0.4,0.440245270147147,"false"
"image-keyboard-response",343,259367,"0.0-4.110-1.110","ttpykqdd598y3tq",232,"114.csv","","null","resources/maskTrios/BBA2.jpg","null","",NA,NA,NA,NA,""
"image-keyboard-response",344,260568,"0.0-4.110-2.110","ttpykqdd598y3tq",232,"114.csv","","null","resources/images/fishbone.png","null","",NA,NA,NA,NA,""
"image-keyboard-response",345,260834,"0.0-4.111-0.111","ttpykqdd598y3tq",232,"114.csv","","264.3999999985099","resources/trios/L1T4A2.jpg","38","restless",0.5,0.6,0.4,0.402702258527359,"true"
"image-keyboard-response",346,261235,"0.0-4.111-1.111","ttpykqdd598y3tq",232,"114.csv","","null","resources/maskTrios/BT4B.jpg","null","",NA,NA,NA,NA,""
"image-keyboard-response",347,262437,"0.0-4.111-2.111","ttpykqdd598y3tq",232,"114.csv","","null","resources/images/coin2.png","null","",NA,NA,NA,NA,""
"image-keyboard-response",348,262700,"0.0-4.112-0.112","ttpykqdd598y3tq",232,"114.csv","","262.3999999985099","resources/trios/L1T4A2.jpg","38","restless",0.5,0.6,0.5,0.702464733204731,"false"
"image-keyboard-response",349,263102,"0.0-4.112-1.112","ttpykqdd598y3tq",232,"114.csv","","null","resources/maskTrios/BT4B.jpg","null","",NA,NA,NA,NA,""
"image-keyboard-response",350,264303,"0.0-4.112-2.112","ttpykqdd598y3tq",232,"114.csv","","null","resources/images/fishbone.png","null","",NA,NA,NA,NA,""
"image-keyboard-response",351,264321,"0.0-4.113-0.113","ttpykqdd598y3tq",232,"114.csv","","16.899999998509884","resources/trios/L1T4A2.jpg","37","restless",0.5,0.6,0.5,0.579117145744795,"false"
"image-keyboard-response",352,264723,"0.0-4.113-1.113","ttpykqdd598y3tq",232,"114.csv","","null","resources/maskTrios/L1BB.jpg","null","",NA,NA,NA,NA,""
"image-keyboard-response",353,265925,"0.0-4.113-2.113","ttpykqdd598y3tq",232,"114.csv","","null","resources/images/fishbone.png","null","",NA,NA,NA,NA,""
"image-keyboard-response",354,266143,"0.0-4.114-0.114","ttpykqdd598y3tq",232,"114.csv","","218","resources/trios/L1T4A2.jpg","39","restless",0.5,0.6,0.5,0.950841306902247,"false"
"image-keyboard-response",355,266544,"0.0-4.114-1.114","ttpykqdd598y3tq",232,"114.csv","","null","resources/maskTrios/BBA2.jpg","null","",NA,NA,NA,NA,""
"image-keyboard-response",356,267745,"0.0-4.114-2.114","ttpykqdd598y3tq",232,"114.csv","","null","resources/images/fishbone.png","null","",NA,NA,NA,NA,""
"image-keyboard-response",357,268011,"0.0-4.115-0.115","ttpykqdd598y3tq",232,"114.csv","","265","resources/trios/L1T4A2.jpg","38","restless",0.5,0.6,0.5,0.129834030095368,"true"
"image-keyboard-response",358,268412,"0.0-4.115-1.115","ttpykqdd598y3tq",232,"114.csv","","null","resources/maskTrios/BT4B.jpg","null","",NA,NA,NA,NA,""
"image-keyboard-response",359,269613,"0.0-4.115-2.115","ttpykqdd598y3tq",232,"114.csv","","null","resources/images/coin2.png","null","",NA,NA,NA,NA,""
"image-keyboard-response",360,269878,"0.0-4.116-0.116","ttpykqdd598y3tq",232,"114.csv","","264.1000000014901","resources/trios/L1T4A2.jpg","38","restless",0.5,0.5,0.5,0.176416953489111,"true"
"image-keyboard-response",361,270279,"0.0-4.116-1.116","ttpykqdd598y3tq",232,"114.csv","","null","resources/maskTrios/BT4B.jpg","null","",NA,NA,NA,NA,""
"image-keyboard-response",362,271481,"0.0-4.116-2.116","ttpykqdd598y3tq",232,"114.csv","","null","resources/images/coin2.png","null","",NA,NA,NA,NA,""
"image-keyboard-response",363,271723,"0.0-4.117-0.117","ttpykqdd598y3tq",232,"114.csv","","241.5","resources/trios/L1T4A2.jpg","38","restless",0.5,0.5,0.5,0.730660732024091,"false"
"image-keyboard-response",364,272125,"0.0-4.117-1.117","ttpykqdd598y3tq",232,"114.csv","","null","resources/maskTrios/BT4B.jpg","null","",NA,NA,NA,NA,""
"image-keyboard-response",365,273327,"0.0-4.117-2.117","ttpykqdd598y3tq",232,"114.csv","","null","resources/images/fishbone.png","null","",NA,NA,NA,NA,""
"image-keyboard-response",366,273636,"0.0-4.118-0.118","ttpykqdd598y3tq",232,"114.csv","","308.70000000298023","resources/trios/L1T4A2.jpg","37","restless",0.5,0.5,0.5,0.414117264039125,"true"
"image-keyboard-response",367,274038,"0.0-4.118-1.118","ttpykqdd598y3tq",232,"114.csv","","null","resources/maskTrios/L1BB.jpg","null","",NA,NA,NA,NA,""
"image-keyboard-response",368,275240,"0.0-4.118-2.118","ttpykqdd598y3tq",232,"114.csv","","null","resources/images/coin2.png","null","",NA,NA,NA,NA,""
"image-keyboard-response",369,275503,"0.0-4.119-0.119","ttpykqdd598y3tq",232,"114.csv","","263","resources/trios/L1T4A2.jpg","37","restless",0.5,0.5,0.5,0.95264687511561,"false"
"image-keyboard-response",370,275905,"0.0-4.119-1.119","ttpykqdd598y3tq",232,"114.csv","","null","resources/maskTrios/L1BB.jpg","null","",NA,NA,NA,NA,""
"image-keyboard-response",371,277106,"0.0-4.119-2.119","ttpykqdd598y3tq",232,"114.csv","","null","resources/images/fishbone.png","null","",NA,NA,NA,NA,""
"image-keyboard-response",372,277348,"0.0-4.120-0.120","ttpykqdd598y3tq",232,"114.csv","","242.10000000149012","resources/trios/L1T4A2.jpg","39","restless",0.5,0.5,0.5,0.911998485249991,"false"
"image-keyboard-response",373,277750,"0.0-4.120-1.120","ttpykqdd598y3tq",232,"114.csv","","null","resources/maskTrios/BBA2.jpg","null","",NA,NA,NA,NA,""
"image-keyboard-response",374,278951,"0.0-4.120-2.120","ttpykqdd598y3tq",232,"114.csv","","null","resources/images/fishbone.png","null","",NA,NA,NA,NA,""
"image-keyboard-response",375,279216,"0.0-4.121-0.121","ttpykqdd598y3tq",232,"114.csv","","264.20000000298023","resources/trios/L1T4A2.jpg","38","restless",0.5,0.5,0.5,0.726062808107701,"false"
"image-keyboard-response",376,279618,"0.0-4.121-1.121","ttpykqdd598y3tq",232,"114.csv","","null","resources/maskTrios/BT4B.jpg","null","",NA,NA,NA,NA,""
"image-keyboard-response",377,280819,"0.0-4.121-2.121","ttpykqdd598y3tq",232,"114.csv","","null","resources/images/fishbone.png","null","",NA,NA,NA,NA,""
"image-keyboard-response",378,281061,"0.0-4.122-0.122","ttpykqdd598y3tq",232,"114.csv","","241.29999999701977","resources/trios/L1T4A2.jpg","37","restless",0.5,0.5,0.5,0.265444266193664,"true"
"image-keyboard-response",379,281463,"0.0-4.122-1.122","ttpykqdd598y3tq",232,"114.csv","","null","resources/maskTrios/L1BB.jpg","null","",NA,NA,NA,NA,""
"image-keyboard-response",380,282665,"0.0-4.122-2.122","ttpykqdd598y3tq",232,"114.csv","","null","resources/images/coin2.png","null","",NA,NA,NA,NA,""
"image-keyboard-response",381,282929,"0.0-4.123-0.123","ttpykqdd598y3tq",232,"114.csv","","263.19999999552965","resources/trios/L1T4A2.jpg","37","restless",0.5,0.5,0.5,0.029765572845196,"true"
"image-keyboard-response",382,283330,"0.0-4.123-1.123","ttpykqdd598y3tq",232,"114.csv","","null","resources/maskTrios/L1BB.jpg","null","",NA,NA,NA,NA,""
"image-keyboard-response",383,284531,"0.0-4.123-2.123","ttpykqdd598y3tq",232,"114.csv","","null","resources/images/coin2.png","null","",NA,NA,NA,NA,""
"image-keyboard-response",384,284774,"0.0-4.124-0.124","ttpykqdd598y3tq",232,"114.csv","","242.10000000149012","resources/trios/L1T4A2.jpg","37","restless",0.4,0.5,0.5,0.13713497264512,"true"
"image-keyboard-response",385,285176,"0.0-4.124-1.124","ttpykqdd598y3tq",232,"114.csv","","null","resources/maskTrios/L1BB.jpg","null","",NA,NA,NA,NA,""
"image-keyboard-response",386,286379,"0.0-4.124-2.124","ttpykqdd598y3tq",232,"114.csv","","null","resources/images/coin2.png","null","",NA,NA,NA,NA,""
"image-keyboard-response",387,286641,"0.0-4.125-0.125","ttpykqdd598y3tq",232,"114.csv","","261.70000000298023","resources/trios/L1T4A2.jpg","37","restless",0.4,0.5,0.5,0.922715197133424,"false"
"image-keyboard-response",388,287043,"0.0-4.125-1.125","ttpykqdd598y3tq",232,"114.csv","","null","resources/maskTrios/L1BB.jpg","null","",NA,NA,NA,NA,""
"image-keyboard-response",389,288244,"0.0-4.125-2.125","ttpykqdd598y3tq",232,"114.csv","","null","resources/images/fishbone.png","null","",NA,NA,NA,NA,""
"image-keyboard-response",390,288509,"0.0-4.126-0.126","ttpykqdd598y3tq",232,"114.csv","","264.6000000014901","resources/trios/L1T4A2.jpg","39","restless",0.4,0.5,0.5,0.492311460522671,"true"
"image-keyboard-response",391,288910,"0.0-4.126-1.126","ttpykqdd598y3tq",232,"114.csv","","null","resources/maskTrios/BBA2.jpg","null","",NA,NA,NA,NA,""
"image-keyboard-response",392,290112,"0.0-4.126-2.126","ttpykqdd598y3tq",232,"114.csv","","null","resources/images/coin2.png","null","",NA,NA,NA,NA,""
"image-keyboard-response",393,290421,"0.0-4.127-0.127","ttpykqdd598y3tq",232,"114.csv","","308.19999999552965","resources/trios/L1T4A2.jpg","39","restless",0.4,0.5,0.5,0.509023626856394,"false"
"image-keyboard-response",394,290823,"0.0-4.127-1.127","ttpykqdd598y3tq",232,"114.csv","","null","resources/maskTrios/BBA2.jpg","null","",NA,NA,NA,NA,""
"image-keyboard-response",395,292024,"0.0-4.127-2.127","ttpykqdd598y3tq",232,"114.csv","","null","resources/images/fishbone.png","null","",NA,NA,NA,NA,""
"image-keyboard-response",396,292356,"0.0-4.128-0.128","ttpykqdd598y3tq",232,"114.csv","","331","resources/trios/L1T4A2.jpg","38","restless",0.4,0.5,0.5,0.761000046817041,"false"
"image-keyboard-response",397,292757,"0.0-4.128-1.128","ttpykqdd598y3tq",232,"114.csv","","null","resources/maskTrios/BT4B.jpg","null","",NA,NA,NA,NA,""
"image-keyboard-response",398,293959,"0.0-4.128-2.128","ttpykqdd598y3tq",232,"114.csv","","null","resources/images/fishbone.png","null","",NA,NA,NA,NA,""
"image-keyboard-response",399,294269,"0.0-4.129-0.129","ttpykqdd598y3tq",232,"114.csv","","309.40000000596046","resources/trios/L1T4A2.jpg","37","restless",0.4,0.5,0.6,0.2439442430807,"true"
"image-keyboard-response",400,294670,"0.0-4.129-1.129","ttpykqdd598y3tq",232,"114.csv","","null","resources/maskTrios/L1BB.jpg","null","",NA,NA,NA,NA,""
"image-keyboard-response",401,295872,"0.0-4.129-2.129","ttpykqdd598y3tq",232,"114.csv","","null","resources/images/coin2.png","null","",NA,NA,NA,NA,""
"image-keyboard-response",402,296159,"0.0-4.130-0.130","ttpykqdd598y3tq",232,"114.csv","","286.5","resources/trios/L1T4A2.jpg","37","restless",0.4,0.5,0.6,0.678297624698663,"false"
"image-keyboard-response",403,296561,"0.0-4.130-1.130","ttpykqdd598y3tq",232,"114.csv","","null","resources/maskTrios/L1BB.jpg","null","",NA,NA,NA,NA,""
"image-keyboard-response",404,297762,"0.0-4.130-2.130","ttpykqdd598y3tq",232,"114.csv","","null","resources/images/fishbone.png","null","",NA,NA,NA,NA,""
"image-keyboard-response",405,298026,"0.0-4.131-0.131","ttpykqdd598y3tq",232,"114.csv","","263.30000000447035","resources/trios/L1T4A2.jpg","39","restless",0.4,0.5,0.6,0.486348781517311,"true"
"image-keyboard-response",406,298428,"0.0-4.131-1.131","ttpykqdd598y3tq",232,"114.csv","","null","resources/maskTrios/BBA2.jpg","null","",NA,NA,NA,NA,""
"image-keyboard-response",407,299629,"0.0-4.131-2.131","ttpykqdd598y3tq",232,"114.csv","","null","resources/images/coin2.png","null","",NA,NA,NA,NA,""
"image-keyboard-response",408,299804,"0.0-4.132-0.132","ttpykqdd598y3tq",232,"114.csv","","173.89999999850988","resources/trios/L1T4A2.jpg","39","restless",0.5,0.5,0.6,0.752166571658243,"false"
"image-keyboard-response",409,300206,"0.0-4.132-1.132","ttpykqdd598y3tq",232,"114.csv","","null","resources/maskTrios/BBA2.jpg","null","",NA,NA,NA,NA,""
"image-keyboard-response",410,301407,"0.0-4.132-2.132","ttpykqdd598y3tq",232,"114.csv","","null","resources/images/fishbone.png","null","",NA,NA,NA,NA,""
"image-keyboard-response",411,301740,"0.0-4.133-0.133","ttpykqdd598y3tq",232,"114.csv","","332.80000000447035","resources/trios/L1T4A2.jpg","38","restless",0.5,0.5,0.6,0.833589430440397,"false"
"image-keyboard-response",412,302142,"0.0-4.133-1.133","ttpykqdd598y3tq",232,"114.csv","","null","resources/maskTrios/BT4B.jpg","null","",NA,NA,NA,NA,""
"image-keyboard-response",413,303344,"0.0-4.133-2.133","ttpykqdd598y3tq",232,"114.csv","","null","resources/images/fishbone.png","null","",NA,NA,NA,NA,""
"image-keyboard-response",414,303584,"0.0-4.134-0.134","ttpykqdd598y3tq",232,"114.csv","","239.29999999701977","resources/trios/L1T4A2.jpg","37","restless",0.5,0.4,0.6,0.199075929360736,"true"
"image-keyboard-response",415,303985,"0.0-4.134-1.134","ttpykqdd598y3tq",232,"114.csv","","null","resources/maskTrios/L1BB.jpg","null","",NA,NA,NA,NA,""
"image-keyboard-response",416,305187,"0.0-4.134-2.134","ttpykqdd598y3tq",232,"114.csv","","null","resources/images/coin2.png","null","",NA,NA,NA,NA,""
"image-keyboard-response",417,305430,"0.0-4.135-0.135","ttpykqdd598y3tq",232,"114.csv","","242.39999999850988","resources/trios/L1T4A2.jpg","37","restless",0.5,0.4,0.6,0.541417988286255,"false"
"image-keyboard-response",418,305831,"0.0-4.135-1.135","ttpykqdd598y3tq",232,"114.csv","","null","resources/maskTrios/L1BB.jpg","null","",NA,NA,NA,NA,""
"image-keyboard-response",419,307033,"0.0-4.135-2.135","ttpykqdd598y3tq",232,"114.csv","","null","resources/images/fishbone.png","null","",NA,NA,NA,NA,""
"image-keyboard-response",420,307252,"0.0-4.136-0.136","ttpykqdd598y3tq",232,"114.csv","","218","resources/trios/L1T4A2.jpg","39","restless",0.5,0.4,0.6,0.492685868817403,"true"
"image-keyboard-response",421,307654,"0.0-4.136-1.136","ttpykqdd598y3tq",232,"114.csv","","null","resources/maskTrios/BBA2.jpg","null","",NA,NA,NA,NA,""
"image-keyboard-response",422,308855,"0.0-4.136-2.136","ttpykqdd598y3tq",232,"114.csv","","null","resources/images/coin2.png","null","",NA,NA,NA,NA,""
"image-keyboard-response",423,309097,"0.0-4.137-0.137","ttpykqdd598y3tq",232,"114.csv","","241.10000000149012","resources/trios/L1T4A2.jpg","39","restless",0.5,0.4,0.6,0.104986349315074,"true"
"image-keyboard-response",424,309499,"0.0-4.137-1.137","ttpykqdd598y3tq",232,"114.csv","","null","resources/maskTrios/BBA2.jpg","null","",NA,NA,NA,NA,""
"image-keyboard-response",425,310700,"0.0-4.137-2.137","ttpykqdd598y3tq",232,"114.csv","","null","resources/images/coin2.png","null","",NA,NA,NA,NA,""
"image-keyboard-response",426,311009,"0.0-4.138-0.138","ttpykqdd598y3tq",232,"114.csv","","308.5","resources/trios/L1T4A2.jpg","39","restless",0.5,0.4,0.6,0.768490388589588,"false"
"image-keyboard-response",427,311411,"0.0-4.138-1.138","ttpykqdd598y3tq",232,"114.csv","","null","resources/maskTrios/BBA2.jpg","null","",NA,NA,NA,NA,""
"image-keyboard-response",428,312612,"0.0-4.138-2.138","ttpykqdd598y3tq",232,"114.csv","","null","resources/images/fishbone.png","null","",NA,NA,NA,NA,""
"image-keyboard-response",429,312810,"0.0-4.139-0.139","ttpykqdd598y3tq",232,"114.csv","","196.29999999701977","resources/trios/L1T4A2.jpg","38","restless",0.5,0.5,0.6,0.827767041827277,"false"
"image-keyboard-response",430,313223,"0.0-4.139-1.139","ttpykqdd598y3tq",232,"114.csv","","null","resources/maskTrios/BT4B.jpg","null","",NA,NA,NA,NA,""
"image-keyboard-response",431,314425,"0.0-4.139-2.139","ttpykqdd598y3tq",232,"114.csv","","null","resources/images/fishbone.png","null","",NA,NA,NA,NA,""
"image-keyboard-response",432,314654,"0.0-4.140-0.140","ttpykqdd598y3tq",232,"114.csv","","228.69999999552965","resources/trios/L1T4A2.jpg","37","restless",0.5,0.5,0.6,0.403347356438157,"true"
"image-keyboard-response",433,315055,"0.0-4.140-1.140","ttpykqdd598y3tq",232,"114.csv","","null","resources/maskTrios/L1BB.jpg","null","",NA,NA,NA,NA,""
"image-keyboard-response",434,316257,"0.0-4.140-2.140","ttpykqdd598y3tq",232,"114.csv","","null","resources/images/coin2.png","null","",NA,NA,NA,NA,""
"image-keyboard-response",435,316522,"0.0-4.141-0.141","ttpykqdd598y3tq",232,"114.csv","","263.80000000447035","resources/trios/L1T4A2.jpg","37","restless",0.5,0.5,0.6,0.0820748915814566,"true"
"image-keyboard-response",436,316924,"0.0-4.141-1.141","ttpykqdd598y3tq",232,"114.csv","","null","resources/maskTrios/L1BB.jpg","null","",NA,NA,NA,NA,""
"image-keyboard-response",437,318126,"0.0-4.141-2.141","ttpykqdd598y3tq",232,"114.csv","","null","resources/images/coin2.png","null","",NA,NA,NA,NA,""
"image-keyboard-response",438,318389,"0.0-4.142-0.142","ttpykqdd598y3tq",232,"114.csv","","262.8999999985099","resources/trios/L1T4A2.jpg","37","restless",0.4,0.5,0.6,0.450939513667126,"false"
"image-keyboard-response",439,318791,"0.0-4.142-1.142","ttpykqdd598y3tq",232,"114.csv","","null","resources/maskTrios/L1BB.jpg","null","",NA,NA,NA,NA,""
"image-keyboard-response",440,319992,"0.0-4.142-2.142","ttpykqdd598y3tq",232,"114.csv","","null","resources/images/fishbone.png","null","",NA,NA,NA,NA,""
"image-keyboard-response",441,320256,"0.0-4.143-0.143","ttpykqdd598y3tq",232,"114.csv","","263.5","resources/trios/L1T4A2.jpg","39","restless",0.4,0.5,0.6,0.824013631955282,"false"
"image-keyboard-response",442,320657,"0.0-4.143-1.143","ttpykqdd598y3tq",232,"114.csv","","null","resources/maskTrios/BBA2.jpg","null","",NA,NA,NA,NA,""
"image-keyboard-response",443,321858,"0.0-4.143-2.143","ttpykqdd598y3tq",232,"114.csv","","null","resources/images/fishbone.png","null","",NA,NA,NA,NA,""
"image-keyboard-response",444,322079,"0.0-4.144-0.144","ttpykqdd598y3tq",232,"114.csv","","220.10000000149012","resources/trios/L1T4A2.jpg","39","restless",0.5,0.4,0.6,0.402686325989792,"true"
"image-keyboard-response",445,322481,"0.0-4.144-1.144","ttpykqdd598y3tq",232,"114.csv","","null","resources/maskTrios/BBA2.jpg","null","",NA,NA,NA,NA,""
"image-keyboard-response",446,323683,"0.0-4.144-2.144","ttpykqdd598y3tq",232,"114.csv","","null","resources/images/coin2.png","null","",NA,NA,NA,NA,""
"image-keyboard-response",447,324082,"0.0-4.145-0.145","ttpykqdd598y3tq",232,"114.csv","","398.1000000014901","resources/trios/L1T4A2.jpg","39","restless",0.5,0.4,0.6,0.965992411577508,"false"
"image-keyboard-response",448,324484,"0.0-4.145-1.145","ttpykqdd598y3tq",232,"114.csv","","null","resources/maskTrios/BBA2.jpg","null","",NA,NA,NA,NA,""
"image-keyboard-response",449,325685,"0.0-4.145-2.145","ttpykqdd598y3tq",232,"114.csv","","null","resources/images/fishbone.png","null","",NA,NA,NA,NA,""
"image-keyboard-response",450,326062,"0.0-4.146-0.146","ttpykqdd598y3tq",232,"114.csv","","375.80000000447035","resources/trios/L1T4A2.jpg","38","restless",0.5,0.4,0.6,0.39280099945905,"true"
"image-keyboard-response",451,326464,"0.0-4.146-1.146","ttpykqdd598y3tq",232,"114.csv","","null","resources/maskTrios/BT4B.jpg","null","",NA,NA,NA,NA,""
"image-keyboard-response",452,327665,"0.0-4.146-2.146","ttpykqdd598y3tq",232,"114.csv","","null","resources/images/coin2.png","null","",NA,NA,NA,NA,""
"image-keyboard-response",453,327974,"0.0-4.147-0.147","ttpykqdd598y3tq",232,"114.csv","","308.90000000596046","resources/trios/L1T4A2.jpg","38","restless",0.5,0.4,0.6,0.626819027757905,"false"
"image-keyboard-response",454,328376,"0.0-4.147-1.147","ttpykqdd598y3tq",232,"114.csv","","null","resources/maskTrios/BT4B.jpg","null","",NA,NA,NA,NA,""
"image-keyboard-response",455,329578,"0.0-4.147-2.147","ttpykqdd598y3tq",232,"114.csv","","null","resources/images/fishbone.png","null","",NA,NA,NA,NA,""
"image-keyboard-response",456,329820,"0.0-4.148-0.148","ttpykqdd598y3tq",232,"114.csv","","240.90000000596046","resources/trios/L1T4A2.jpg","37","restless",0.4,0.4,0.6,0.376163344424093,"true"
"image-keyboard-response",457,330222,"0.0-4.148-1.148","ttpykqdd598y3tq",232,"114.csv","","null","resources/maskTrios/L1BB.jpg","null","",NA,NA,NA,NA,""
"image-keyboard-response",458,331424,"0.0-4.148-2.148","ttpykqdd598y3tq",232,"114.csv","","null","resources/images/coin2.png","null","",NA,NA,NA,NA,""
"image-keyboard-response",459,331800,"0.0-4.149-0.149","ttpykqdd598y3tq",232,"114.csv","","375.69999999552965","resources/trios/L1T4A2.jpg","37","restless",0.4,0.4,0.6,0.992454614678858,"false"
"image-keyboard-response",460,332201,"0.0-4.149-1.149","ttpykqdd598y3tq",232,"114.csv","","null","resources/maskTrios/L1BB.jpg","null","",NA,NA,NA,NA,""
"image-keyboard-response",461,333402,"0.0-4.149-2.149","ttpykqdd598y3tq",232,"114.csv","","null","resources/images/fishbone.png","null","",NA,NA,NA,NA,""
"image-keyboard-response",462,333667,"0.0-4.150-0.150","ttpykqdd598y3tq",232,"114.csv","","264","resources/trios/L1T4A2.jpg","39","restless",0.4,0.4,0.6,0.740708220940267,"false"
"image-keyboard-response",463,334069,"0.0-4.150-1.150","ttpykqdd598y3tq",232,"114.csv","","null","resources/maskTrios/BBA2.jpg","null","",NA,NA,NA,NA,""
"image-keyboard-response",464,335270,"0.0-4.150-2.150","ttpykqdd598y3tq",232,"114.csv","","null","resources/images/fishbone.png","null","",NA,NA,NA,NA,""
"image-keyboard-response",465,335557,"0.0-4.151-0.151","ttpykqdd598y3tq",232,"114.csv","","286.1000000014901","resources/trios/L1T4A2.jpg","38","restless",0.4,0.4,0.6,0.120354910238341,"true"
"image-keyboard-response",466,335959,"0.0-4.151-1.151","ttpykqdd598y3tq",232,"114.csv","","null","resources/maskTrios/BT4B.jpg","null","",NA,NA,NA,NA,""
"image-keyboard-response",467,337160,"0.0-4.151-2.151","ttpykqdd598y3tq",232,"114.csv","","null","resources/images/coin2.png","null","",NA,NA,NA,NA,""
"image-keyboard-response",468,337447,"0.0-4.152-0.152","ttpykqdd598y3tq",232,"114.csv","","286","resources/trios/L1T4A2.jpg","38","restless",0.4,0.4,0.6,0.359290291597738,"true"
"image-keyboard-response",469,337849,"0.0-4.152-1.152","ttpykqdd598y3tq",232,"114.csv","","null","resources/maskTrios/BT4B.jpg","null","",NA,NA,NA,NA,""
"image-keyboard-response",470,339051,"0.0-4.152-2.152","ttpykqdd598y3tq",232,"114.csv","","null","resources/images/coin2.png","null","",NA,NA,NA,NA,""
"image-keyboard-response",471,339382,"0.0-4.153-0.153","ttpykqdd598y3tq",232,"114.csv","","330.8999999985099","resources/trios/L1T4A2.jpg","38","restless",0.4,0.4,0.6,0.555047746692888,"false"
"image-keyboard-response",472,339784,"0.0-4.153-1.153","ttpykqdd598y3tq",232,"114.csv","","null","resources/maskTrios/BT4B.jpg","null","",NA,NA,NA,NA,""
"image-keyboard-response",473,340985,"0.0-4.153-2.153","ttpykqdd598y3tq",232,"114.csv","","null","resources/images/fishbone.png","null","",NA,NA,NA,NA,""
"image-keyboard-response",474,341272,"0.0-4.154-0.154","ttpykqdd598y3tq",232,"114.csv","","286","resources/trios/L1T4A2.jpg","37","restless",0.4,0.4,0.7,0.658638244479073,"false"
"image-keyboard-response",475,341674,"0.0-4.154-1.154","ttpykqdd598y3tq",232,"114.csv","","null","resources/maskTrios/L1BB.jpg","null","",NA,NA,NA,NA,""
"image-keyboard-response",476,342875,"0.0-4.154-2.154","ttpykqdd598y3tq",232,"114.csv","","null","resources/images/fishbone.png","null","",NA,NA,NA,NA,""
"image-keyboard-response",477,343095,"0.0-4.155-0.155","ttpykqdd598y3tq",232,"114.csv","","218.80000000447035","resources/trios/L1T4A2.jpg","39","restless",0.5,0.4,0.7,0.281029547082307,"true"
"image-keyboard-response",478,343497,"0.0-4.155-1.155","ttpykqdd598y3tq",232,"114.csv","","null","resources/maskTrios/BBA2.jpg","null","",NA,NA,NA,NA,""
"image-keyboard-response",479,344697,"0.0-4.155-2.155","ttpykqdd598y3tq",232,"114.csv","","null","resources/images/coin2.png","null","",NA,NA,NA,NA,""
"image-keyboard-response",480,344985,"0.0-4.156-0.156","ttpykqdd598y3tq",232,"114.csv","","286.69999999552965","resources/trios/L1T4A2.jpg","39","restless",0.4,0.4,0.7,0.255117070644084,"true"
"image-keyboard-response",481,345387,"0.0-4.156-1.156","ttpykqdd598y3tq",232,"114.csv","","null","resources/maskTrios/BBA2.jpg","null","",NA,NA,NA,NA,""
"image-keyboard-response",482,346589,"0.0-4.156-2.156","ttpykqdd598y3tq",232,"114.csv","","null","resources/images/coin2.png","null","",NA,NA,NA,NA,""
"image-keyboard-response",483,346898,"0.0-4.157-0.157","ttpykqdd598y3tq",232,"114.csv","","308.20000000298023","resources/trios/L1T4A2.jpg","39","restless",0.4,0.4,0.6,0.340470275479031,"true"
"image-keyboard-response",484,347299,"0.0-4.157-1.157","ttpykqdd598y3tq",232,"114.csv","","null","resources/maskTrios/BBA2.jpg","null","",NA,NA,NA,NA,""
"image-keyboard-response",485,348500,"0.0-4.157-2.157","ttpykqdd598y3tq",232,"114.csv","","null","resources/images/coin2.png","null","",NA,NA,NA,NA,""
"image-keyboard-response",486,348810,"0.0-4.158-0.158","ttpykqdd598y3tq",232,"114.csv","","308.70000000298023","resources/trios/L1T4A2.jpg","39","restless",0.4,0.4,0.6,0.372577088117744,"true"
"image-keyboard-response",487,349211,"0.0-4.158-1.158","ttpykqdd598y3tq",232,"114.csv","","null","resources/maskTrios/BBA2.jpg","null","",NA,NA,NA,NA,""
"image-keyboard-response",488,350414,"0.0-4.158-2.158","ttpykqdd598y3tq",232,"114.csv","","null","resources/images/coin2.png","null","",NA,NA,NA,NA,""
"image-keyboard-response",489,350700,"0.0-4.159-0.159","ttpykqdd598y3tq",232,"114.csv","","286","resources/trios/L1T4A2.jpg","39","restless",0.4,0.4,0.5,0.520413773498645,"false"
"image-keyboard-response",490,351102,"0.0-4.159-1.159","ttpykqdd598y3tq",232,"114.csv","","null","resources/maskTrios/BBA2.jpg","null","",NA,NA,NA,NA,""
"image-keyboard-response",491,352311,"0.0-4.159-2.159","ttpykqdd598y3tq",232,"114.csv","","null","resources/images/fishbone.png","null","",NA,NA,NA,NA,""
"image-keyboard-response",492,352567,"0.0-4.160-0.160","ttpykqdd598y3tq",232,"114.csv","","255","resources/trios/L1T4A2.jpg","38","restless",0.4,0.4,0.5,0.678865048553215,"false"
"image-keyboard-response",493,352969,"0.0-4.160-1.160","ttpykqdd598y3tq",232,"114.csv","","null","resources/maskTrios/BT4B.jpg","null","",NA,NA,NA,NA,""
"image-keyboard-response",494,354171,"0.0-4.160-2.160","ttpykqdd598y3tq",232,"114.csv","","null","resources/images/fishbone.png","null","",NA,NA,NA,NA,""
"image-keyboard-response",495,354457,"0.0-4.161-0.161","ttpykqdd598y3tq",232,"114.csv","","285.8999999985099","resources/trios/L1T4A2.jpg","37","restless",0.4,0.4,0.5,0.541365560817757,"false"
"image-keyboard-response",496,354859,"0.0-4.161-1.161","ttpykqdd598y3tq",232,"114.csv","","null","resources/maskTrios/L1BB.jpg","null","",NA,NA,NA,NA,""
"image-keyboard-response",497,356061,"0.0-4.161-2.161","ttpykqdd598y3tq",232,"114.csv","","null","resources/images/fishbone.png","null","",NA,NA,NA,NA,""
"image-keyboard-response",498,356347,"0.0-4.162-0.162","ttpykqdd598y3tq",232,"114.csv","","286","resources/trios/L1T4A2.jpg","39","restless",0.4,0.4,0.5,0.00404011070599353,"true"
"image-keyboard-response",499,356750,"0.0-4.162-1.162","ttpykqdd598y3tq",232,"114.csv","","null","resources/maskTrios/BBA2.jpg","null","",NA,NA,NA,NA,""
"image-keyboard-response",500,357965,"0.0-4.162-2.162","ttpykqdd598y3tq",232,"114.csv","","null","resources/images/coin2.png","null","",NA,NA,NA,NA,""
"image-keyboard-response",501,358237,"0.0-4.163-0.163","ttpykqdd598y3tq",232,"114.csv","","271.3999999985099","resources/trios/L1T4A2.jpg","39","restless",0.4,0.4,0.5,0.876072748607711,"false"
"image-keyboard-response",502,358639,"0.0-4.163-1.163","ttpykqdd598y3tq",232,"114.csv","","null","resources/maskTrios/BBA2.jpg","null","",NA,NA,NA,NA,""
"image-keyboard-response",503,359841,"0.0-4.163-2.163","ttpykqdd598y3tq",232,"114.csv","","null","resources/images/fishbone.png","null","",NA,NA,NA,NA,""
"image-keyboard-response",504,360195,"0.0-4.164-0.164","ttpykqdd598y3tq",232,"114.csv","","353.20000000298023","resources/trios/L1T4A2.jpg","38","restless",0.4,0.4,0.5,0.465991089747747,"false"
"image-keyboard-response",505,360597,"0.0-4.164-1.164","ttpykqdd598y3tq",232,"114.csv","","null","resources/maskTrios/BT4B.jpg","null","",NA,NA,NA,NA,""
"image-keyboard-response",506,361799,"0.0-4.164-2.164","ttpykqdd598y3tq",232,"114.csv","","null","resources/images/fishbone.png","null","",NA,NA,NA,NA,""
"image-keyboard-response",507,362040,"0.0-4.165-0.165","ttpykqdd598y3tq",232,"114.csv","","240.79999999701977","resources/trios/L1T4A2.jpg","37","restless",0.4,0.4,0.5,0.31461400282608,"true"
"image-keyboard-response",508,362442,"0.0-4.165-1.165","ttpykqdd598y3tq",232,"114.csv","","null","resources/maskTrios/L1BB.jpg","null","",NA,NA,NA,NA,""
"image-keyboard-response",509,363642,"0.0-4.165-2.165","ttpykqdd598y3tq",232,"114.csv","","null","resources/images/coin2.png","null","",NA,NA,NA,NA,""
"image-keyboard-response",510,363907,"0.0-4.166-0.166","ttpykqdd598y3tq",232,"114.csv","","264.19999999552965","resources/trios/L1T4A2.jpg","37","restless",0.4,0.4,0.5,0.640828442453921,"false"
"image-keyboard-response",511,364310,"0.0-4.166-1.166","ttpykqdd598y3tq",232,"114.csv","","null","resources/maskTrios/L1BB.jpg","null","",NA,NA,NA,NA,""
"image-keyboard-response",512,365510,"0.0-4.166-2.166","ttpykqdd598y3tq",232,"114.csv","","null","resources/images/fishbone.png","null","",NA,NA,NA,NA,""
"image-keyboard-response",513,365730,"0.0-4.167-0.167","ttpykqdd598y3tq",232,"114.csv","","219.5","resources/trios/L1T4A2.jpg","39","restless",0.4,0.4,0.5,0.336934418380484,"true"
"image-keyboard-response",514,366137,"0.0-4.167-1.167","ttpykqdd598y3tq",232,"114.csv","","null","resources/maskTrios/BBA2.jpg","null","",NA,NA,NA,NA,""
"image-keyboard-response",515,367340,"0.0-4.167-2.167","ttpykqdd598y3tq",232,"114.csv","","null","resources/images/coin2.png","null","",NA,NA,NA,NA,""
"image-keyboard-response",516,367642,"0.0-4.168-0.168","ttpykqdd598y3tq",232,"114.csv","","302.19999999552965","resources/trios/L1T4A2.jpg","39","restless",0.3,0.4,0.5,0.150149213720284,"true"
"image-keyboard-response",517,368044,"0.0-4.168-1.168","ttpykqdd598y3tq",232,"114.csv","","null","resources/maskTrios/BBA2.jpg","null","",NA,NA,NA,NA,""
"image-keyboard-response",518,369246,"0.0-4.168-2.168","ttpykqdd598y3tq",232,"114.csv","","null","resources/images/coin2.png","null","",NA,NA,NA,NA,""
"image-keyboard-response",519,369533,"0.0-4.169-0.169","ttpykqdd598y3tq",232,"114.csv","","286.29999999701977","resources/trios/L1T4A2.jpg","39","restless",0.2,0.4,0.5,0.372384273691114,"true"
"image-keyboard-response",520,369935,"0.0-4.169-1.169","ttpykqdd598y3tq",232,"114.csv","","null","resources/maskTrios/BBA2.jpg","null","",NA,NA,NA,NA,""
"image-keyboard-response",521,371136,"0.0-4.169-2.169","ttpykqdd598y3tq",232,"114.csv","","null","resources/images/coin2.png","null","",NA,NA,NA,NA,""
"image-keyboard-response",522,371356,"0.0-4.170-0.170","ttpykqdd598y3tq",232,"114.csv","","218.60000000149012","resources/trios/L1T4A2.jpg","39","restless",0.2,0.5,0.5,0.576706816435822,"false"
"image-keyboard-response",523,371757,"0.0-4.170-1.170","ttpykqdd598y3tq",232,"114.csv","","null","resources/maskTrios/BBA2.jpg","null","",NA,NA,NA,NA,""
"image-keyboard-response",524,372957,"0.0-4.170-2.170","ttpykqdd598y3tq",232,"114.csv","","null","resources/images/fishbone.png","null","",NA,NA,NA,NA,""
"image-keyboard-response",525,373312,"0.0-4.171-0.171","ttpykqdd598y3tq",232,"114.csv","","354.29999999701977","resources/trios/L1T4A2.jpg","38","restless",0.2,0.5,0.5,0.747576672553695,"false"
"image-keyboard-response",526,373719,"0.0-4.171-1.171","ttpykqdd598y3tq",232,"114.csv","","null","resources/maskTrios/BT4B.jpg","null","",NA,NA,NA,NA,""
"image-keyboard-response",527,374921,"0.0-4.171-2.171","ttpykqdd598y3tq",232,"114.csv","","null","resources/images/fishbone.png","null","",NA,NA,NA,NA,""
"image-keyboard-response",528,375136,"0.0-4.172-0.172","ttpykqdd598y3tq",232,"114.csv","","213.80000000447035","resources/trios/L1T4A2.jpg","37","restless",0.2,0.5,0.5,0.931537295051931,"false"
"image-keyboard-response",529,375538,"0.0-4.172-1.172","ttpykqdd598y3tq",232,"114.csv","","null","resources/maskTrios/L1BB.jpg","null","",NA,NA,NA,NA,""
"image-keyboard-response",530,376739,"0.0-4.172-2.172","ttpykqdd598y3tq",232,"114.csv","","null","resources/images/fishbone.png","null","",NA,NA,NA,NA,""
"image-keyboard-response",531,376980,"0.0-4.173-0.173","ttpykqdd598y3tq",232,"114.csv","","240.30000000447035","resources/trios/L1T4A2.jpg","39","restless",0.2,0.5,0.5,0.365129718486524,"true"
"image-keyboard-response",532,377381,"0.0-4.173-1.173","ttpykqdd598y3tq",232,"114.csv","","null","resources/maskTrios/BBA2.jpg","null","",NA,NA,NA,NA,""
"image-keyboard-response",533,378582,"0.0-4.173-2.173","ttpykqdd598y3tq",232,"114.csv","","null","resources/images/coin2.png","null","",NA,NA,NA,NA,""
"image-keyboard-response",534,378848,"0.0-4.174-0.174","ttpykqdd598y3tq",232,"114.csv","","264.70000000298023","resources/trios/L1T4A2.jpg","39","restless",0.2,0.5,0.5,0.161954325968188,"true"
"image-keyboard-response",535,379250,"0.0-4.174-1.174","ttpykqdd598y3tq",232,"114.csv","","null","resources/maskTrios/BBA2.jpg","null","",NA,NA,NA,NA,""
"image-keyboard-response",536,380451,"0.0-4.174-2.174","ttpykqdd598y3tq",232,"114.csv","","null","resources/images/coin2.png","null","",NA,NA,NA,NA,""
"image-keyboard-response",537,380760,"0.0-4.175-0.175","ttpykqdd598y3tq",232,"114.csv","","308.29999999701977","resources/trios/L1T4A2.jpg","39","restless",0.1,0.5,0.5,0.935524265585968,"false"
"image-keyboard-response",538,381162,"0.0-4.175-1.175","ttpykqdd598y3tq",232,"114.csv","","null","resources/maskTrios/BBA2.jpg","null","",NA,NA,NA,NA,""
"image-keyboard-response",539,382364,"0.0-4.175-2.175","ttpykqdd598y3tq",232,"114.csv","","null","resources/images/fishbone.png","null","",NA,NA,NA,NA,""
"image-keyboard-response",540,382695,"0.0-4.176-0.176","ttpykqdd598y3tq",232,"114.csv","","330.59999999403954","resources/trios/L1T4A2.jpg","38","restless",0.1,0.5,0.6,0.947539473000753,"false"
"image-keyboard-response",541,383097,"0.0-4.176-1.176","ttpykqdd598y3tq",232,"114.csv","","null","resources/maskTrios/BT4B.jpg","null","",NA,NA,NA,NA,""
"image-keyboard-response",542,384299,"0.0-4.176-2.176","ttpykqdd598y3tq",232,"114.csv","","null","resources/images/fishbone.png","null","",NA,NA,NA,NA,""
"image-keyboard-response",543,384607,"0.0-4.177-0.177","ttpykqdd598y3tq",232,"114.csv","","307.5","resources/trios/L1T4A2.jpg","37","restless",0.2,0.5,0.6,0.653299299600372,"false"
"image-keyboard-response",544,385009,"0.0-4.177-1.177","ttpykqdd598y3tq",232,"114.csv","","null","resources/maskTrios/L1BB.jpg","null","",NA,NA,NA,NA,""
"image-keyboard-response",545,386212,"0.0-4.177-2.177","ttpykqdd598y3tq",232,"114.csv","","null","resources/images/fishbone.png","null","",NA,NA,NA,NA,""
"image-keyboard-response",546,386318,"0.0-4.178-0.178","ttpykqdd598y3tq",232,"114.csv","","105.89999999850988","resources/trios/L1T4A2.jpg","39","restless",0.2,0.5,0.6,0.0445676541845148,"true"
"image-keyboard-response",547,386721,"0.0-4.178-1.178","ttpykqdd598y3tq",232,"114.csv","","null","resources/maskTrios/BBA2.jpg","null","",NA,NA,NA,NA,""
"image-keyboard-response",548,387922,"0.0-4.178-2.178","ttpykqdd598y3tq",232,"114.csv","","null","resources/images/coin2.png","null","",NA,NA,NA,NA,""
"image-keyboard-response",549,388162,"0.0-4.179-0.179","ttpykqdd598y3tq",232,"114.csv","","240.10000000149012","resources/trios/L1T4A2.jpg","39","restless",0.2,0.5,0.6,0.691000409404607,"false"
"image-keyboard-response",550,388564,"0.0-4.179-1.179","ttpykqdd598y3tq",232,"114.csv","","null","resources/maskTrios/BBA2.jpg","null","",NA,NA,NA,NA,""
"image-keyboard-response",551,389765,"0.0-4.179-2.179","ttpykqdd598y3tq",232,"114.csv","","null","resources/images/fishbone.png","null","",NA,NA,NA,NA,""
"image-keyboard-response",552,390053,"0.0-4.180-0.180","ttpykqdd598y3tq",232,"114.csv","","287.5","resources/trios/L1T4A2.jpg","38","restless",0.2,0.5,0.6,0.917291532636644,"false"
"image-keyboard-response",553,390455,"0.0-4.180-1.180","ttpykqdd598y3tq",232,"114.csv","","null","resources/maskTrios/BT4B.jpg","null","",NA,NA,NA,NA,""
"image-keyboard-response",554,391656,"0.0-4.180-2.180","ttpykqdd598y3tq",232,"114.csv","","null","resources/images/fishbone.png","null","",NA,NA,NA,NA,""
"image-keyboard-response",555,391852,"0.0-4.181-0.181","ttpykqdd598y3tq",232,"114.csv","","195.5","resources/trios/L1T4A2.jpg","37","restless",0.2,0.5,0.6,0.902313370915442,"false"
"image-keyboard-response",556,392254,"0.0-4.181-1.181","ttpykqdd598y3tq",232,"114.csv","","null","resources/maskTrios/L1BB.jpg","null","",NA,NA,NA,NA,""
"image-keyboard-response",557,393455,"0.0-4.181-2.181","ttpykqdd598y3tq",232,"114.csv","","null","resources/images/fishbone.png","null","",NA,NA,NA,NA,""
"image-keyboard-response",558,393675,"0.0-4.182-0.182","ttpykqdd598y3tq",232,"114.csv","","219.20000000298023","resources/trios/L1T4A2.jpg","39","restless",0.3,0.5,0.6,0.445396024923509,"true"
"image-keyboard-response",559,394077,"0.0-4.182-1.182","ttpykqdd598y3tq",232,"114.csv","","null","resources/maskTrios/BBA2.jpg","null","",NA,NA,NA,NA,""
"image-keyboard-response",560,395279,"0.0-4.182-2.182","ttpykqdd598y3tq",232,"114.csv","","null","resources/images/coin2.png","null","",NA,NA,NA,NA,""
"image-keyboard-response",561,395544,"0.0-4.183-0.183","ttpykqdd598y3tq",232,"114.csv","","263.8999999985099","resources/trios/L1T4A2.jpg","39","restless",0.3,0.5,0.6,0.738517111925674,"false"
"image-keyboard-response",562,395945,"0.0-4.183-1.183","ttpykqdd598y3tq",232,"114.csv","","null","resources/maskTrios/BBA2.jpg","null","",NA,NA,NA,NA,""
"image-keyboard-response",563,397147,"0.0-4.183-2.183","ttpykqdd598y3tq",232,"114.csv","","null","resources/images/fishbone.png","null","",NA,NA,NA,NA,""
"image-keyboard-response",564,397434,"0.0-4.184-0.184","ttpykqdd598y3tq",232,"114.csv","","285.1000000014901","resources/trios/L1T4A2.jpg","38","restless",0.3,0.5,0.6,0.709673875581853,"false"
"image-keyboard-response",565,397835,"0.0-4.184-1.184","ttpykqdd598y3tq",232,"114.csv","","null","resources/maskTrios/BT4B.jpg","null","",NA,NA,NA,NA,""
"image-keyboard-response",566,399036,"0.0-4.184-2.184","ttpykqdd598y3tq",232,"114.csv","","null","resources/images/fishbone.png","null","",NA,NA,NA,NA,""
"image-keyboard-response",567,399278,"0.0-4.185-0.185","ttpykqdd598y3tq",232,"114.csv","","241.39999999850988","resources/trios/L1T4A2.jpg","37","restless",0.3,0.5,0.6,0.926469711633184,"false"
"image-keyboard-response",568,399681,"0.0-4.185-1.185","ttpykqdd598y3tq",232,"114.csv","","null","resources/maskTrios/L1BB.jpg","null","",NA,NA,NA,NA,""
"image-keyboard-response",569,400883,"0.0-4.185-2.185","ttpykqdd598y3tq",232,"114.csv","","null","resources/images/fishbone.png","null","",NA,NA,NA,NA,""
"image-keyboard-response",570,401145,"0.0-4.186-0.186","ttpykqdd598y3tq",232,"114.csv","","262","resources/trios/L1T4A2.jpg","39","restless",0.3,0.5,0.6,0.0950351490935821,"true"
"image-keyboard-response",571,401547,"0.0-4.186-1.186","ttpykqdd598y3tq",232,"114.csv","","null","resources/maskTrios/BBA2.jpg","null","",NA,NA,NA,NA,""
"image-keyboard-response",572,402749,"0.0-4.186-2.186","ttpykqdd598y3tq",232,"114.csv","","null","resources/images/coin2.png","null","",NA,NA,NA,NA,""
"image-keyboard-response",573,402969,"0.0-4.187-0.187","ttpykqdd598y3tq",232,"114.csv","","219.30000000447035","resources/trios/L1T4A2.jpg","39","restless",0.3,0.5,0.6,0.498236756297995,"true"
"image-keyboard-response",574,403370,"0.0-4.187-1.187","ttpykqdd598y3tq",232,"114.csv","","null","resources/maskTrios/BBA2.jpg","null","",NA,NA,NA,NA,""
"image-keyboard-response",575,404572,"0.0-4.187-2.187","ttpykqdd598y3tq",232,"114.csv","","null","resources/images/coin2.png","null","",NA,NA,NA,NA,""
"image-keyboard-response",576,404881,"0.0-4.188-0.188","ttpykqdd598y3tq",232,"114.csv","","307.90000000596046","resources/trios/L1T4A2.jpg","39","restless",0.3,0.5,0.6,0.808965844313333,"false"
"image-keyboard-response",577,405283,"0.0-4.188-1.188","ttpykqdd598y3tq",232,"114.csv","","null","resources/maskTrios/BBA2.jpg","null","",NA,NA,NA,NA,""
"image-keyboard-response",578,406485,"0.0-4.188-2.188","ttpykqdd598y3tq",232,"114.csv","","null","resources/images/fishbone.png","null","",NA,NA,NA,NA,""
"image-keyboard-response",579,406839,"0.0-4.189-0.189","ttpykqdd598y3tq",232,"114.csv","","352.70000000298023","resources/trios/L1T4A2.jpg","38","restless",0.3,0.5,0.6,0.676219400165455,"false"
"image-keyboard-response",580,407241,"0.0-4.189-1.189","ttpykqdd598y3tq",232,"114.csv","","null","resources/maskTrios/BT4B.jpg","null","",NA,NA,NA,NA,""
"image-keyboard-response",581,408442,"0.0-4.189-2.189","ttpykqdd598y3tq",232,"114.csv","","null","resources/images/fishbone.png","null","",NA,NA,NA,NA,""
"image-keyboard-response",582,408503,"0.0-4.190-0.190","ttpykqdd598y3tq",232,"114.csv","","60.899999998509884","resources/trios/L1T4A2.jpg","37","restless",0.3,0.5,0.6,0.665370126780709,"false"
"image-keyboard-response",583,408905,"0.0-4.190-1.190","ttpykqdd598y3tq",232,"114.csv","","null","resources/maskTrios/L1BB.jpg","null","",NA,NA,NA,NA,""
"image-keyboard-response",584,410106,"0.0-4.190-2.190","ttpykqdd598y3tq",232,"114.csv","","null","resources/images/fishbone.png","null","",NA,NA,NA,NA,""
"image-keyboard-response",585,410168,"0.0-4.191-0.191","ttpykqdd598y3tq",232,"114.csv","","60.899999998509884","resources/trios/L1T4A2.jpg","39","restless",0.3,0.4,0.6,0.531316954862227,"true"
"image-keyboard-response",586,410569,"0.0-4.191-1.191","ttpykqdd598y3tq",232,"114.csv","","null","resources/maskTrios/BBA2.jpg","null","",NA,NA,NA,NA,""
"image-keyboard-response",587,411771,"0.0-4.191-2.191","ttpykqdd598y3tq",232,"114.csv","","null","resources/images/coin2.png","null","",NA,NA,NA,NA,""
"image-keyboard-response",588,412081,"0.0-4.192-0.192","ttpykqdd598y3tq",232,"114.csv","","308.8999999985099","resources/trios/L1T4A2.jpg","39","restless",0.3,0.4,0.6,0.913876445284445,"false"
"image-keyboard-response",589,412482,"0.0-4.192-1.192","ttpykqdd598y3tq",232,"114.csv","","null","resources/maskTrios/BBA2.jpg","null","",NA,NA,NA,NA,""
"image-keyboard-response",590,413683,"0.0-4.192-2.192","ttpykqdd598y3tq",232,"114.csv","","null","resources/images/fishbone.png","null","",NA,NA,NA,NA,""
"image-keyboard-response",591,414016,"0.0-4.193-0.193","ttpykqdd598y3tq",232,"114.csv","","331.70000000298023","resources/trios/L1T4A2.jpg","38","restless",0.3,0.4,0.6,0.89350422051514,"false"
"image-keyboard-response",592,414418,"0.0-4.193-1.193","ttpykqdd598y3tq",232,"114.csv","","null","resources/maskTrios/BT4B.jpg","null","",NA,NA,NA,NA,""
"image-keyboard-response",593,415619,"0.0-4.193-2.193","ttpykqdd598y3tq",232,"114.csv","","null","resources/images/fishbone.png","null","",NA,NA,NA,NA,""
"image-keyboard-response",594,415884,"0.0-4.194-0.194","ttpykqdd598y3tq",232,"114.csv","","263.5","resources/trios/L1T4A2.jpg","37","restless",0.3,0.4,0.6,0.440575968867128,"false"
"image-keyboard-response",595,416285,"0.0-4.194-1.194","ttpykqdd598y3tq",232,"114.csv","","null","resources/maskTrios/L1BB.jpg","null","",NA,NA,NA,NA,""
"image-keyboard-response",596,417487,"0.0-4.194-2.194","ttpykqdd598y3tq",232,"114.csv","","null","resources/images/fishbone.png","null","",NA,NA,NA,NA,""
"image-keyboard-response",597,417773,"0.0-4.195-0.195","ttpykqdd598y3tq",232,"114.csv","","285","resources/trios/L1T4A2.jpg","39","restless",0.3,0.4,0.6,0.269008489161451,"true"
"image-keyboard-response",598,418177,"0.0-4.195-1.195","ttpykqdd598y3tq",232,"114.csv","","null","resources/maskTrios/BBA2.jpg","null","",NA,NA,NA,NA,""
"image-keyboard-response",599,419379,"0.0-4.195-2.195","ttpykqdd598y3tq",232,"114.csv","","null","resources/images/coin2.png","null","",NA,NA,NA,NA,""
"image-keyboard-response",600,420018,"0.0-4.196-0.196","ttpykqdd598y3tq",232,"114.csv","","637.5","resources/trios/L1T4A2.jpg","39","restless",0.3,0.4,0.7,0.641666143432475,"true"
"image-keyboard-response",601,420420,"0.0-4.196-1.196","ttpykqdd598y3tq",232,"114.csv","","null","resources/maskTrios/BBA2.jpg","null","",NA,NA,NA,NA,""
"image-keyboard-response",602,421621,"0.0-4.196-2.196","ttpykqdd598y3tq",232,"114.csv","","null","resources/images/coin2.png","null","",NA,NA,NA,NA,""
"image-keyboard-response",603,422025,"0.0-4.197-0.197","ttpykqdd598y3tq",232,"114.csv","","403.20000000298023","resources/trios/L1T4A2.jpg","39","restless",0.3,0.4,0.7,0.703376131034669,"false"
"image-keyboard-response",604,422426,"0.0-4.197-1.197","ttpykqdd598y3tq",232,"114.csv","","null","resources/maskTrios/BBA2.jpg","null","",NA,NA,NA,NA,""
"image-keyboard-response",605,423629,"0.0-4.197-2.197","ttpykqdd598y3tq",232,"114.csv","","null","resources/images/fishbone.png","null","",NA,NA,NA,NA,""
"image-keyboard-response",606,423915,"0.0-4.198-0.198","ttpykqdd598y3tq",232,"114.csv","","285.69999999552965","resources/trios/L1T4A2.jpg","38","restless",0.3,0.4,0.7,0.160426523640942,"true"
"image-keyboard-response",607,424317,"0.0-4.198-1.198","ttpykqdd598y3tq",232,"114.csv","","null","resources/maskTrios/BT4B.jpg","null","",NA,NA,NA,NA,""
"image-keyboard-response",608,425519,"0.0-4.198-2.198","ttpykqdd598y3tq",232,"114.csv","","null","resources/images/coin2.png","null","",NA,NA,NA,NA,""
