"trial_type","trial_index","time_elapsed","internal_node_id","subject","participantCode","walkNumber","success","rt","stimulus","key_press","test_part","leftProb","midProb","rightProb","generatedNum","correct"
"pavlovia",0,634,"0.0-0.0","mpzxacpehg69duw",376,"84.csv","","","","","",NA,NA,NA,NA,""
"fullscreen",1,6278,"0.0-1.0","mpzxacpehg69duw",376,"84.csv","true","","","","",NA,NA,NA,NA,""
"survey-html-form",2,24109,"0.0-2.0","mpzxacpehg69duw",376,"84.csv","","17827.300000071526","","","",NA,NA,NA,NA,""
"image-keyboard-response",3,28571,"0.0-3.0-0.0","mpzxacpehg69duw",376,"84.csv","","4460.799999952316","resources/images/parrot_nobg.png","13","",NA,NA,NA,NA,""
"image-keyboard-response",4,31583,"0.0-3.0-1.0","mpzxacpehg69duw",376,"84.csv","","null","resources/image_sets/111.png","null","",NA,NA,NA,NA,""
"image-keyboard-response",5,37538,"0.0-3.0-2.0","mpzxacpehg69duw",376,"84.csv","","5952.899999976158","resources/image_sets/left_highlight.png","37","",NA,NA,NA,NA,""
"image-keyboard-response",6,39992,"0.0-3.0-3.0","mpzxacpehg69duw",376,"84.csv","","2452.2999999523163","resources/image_sets/mid_highlight.png","38","",NA,NA,NA,NA,""
"image-keyboard-response",7,40596,"0.0-3.0-4.0","mpzxacpehg69duw",376,"84.csv","","601.6000000238419","resources/image_sets/right_highlight.png","39","",NA,NA,NA,NA,""
"image-keyboard-response",8,47432,"0.0-3.0-5.0","mpzxacpehg69duw",376,"84.csv","","6834.300000071526","resources/image_sets/111.png","13","",NA,NA,NA,NA,""
"image-keyboard-response",9,51656,"0.0-3.0-6.0","mpzxacpehg69duw",376,"84.csv","","4223.700000047684","resources/images/coin2.png","13","",NA,NA,NA,NA,""
"image-keyboard-response",10,56257,"0.0-3.0-7.0","mpzxacpehg69duw",376,"84.csv","","4600","resources/images/fishbone.png","13","",NA,NA,NA,NA,""
"html-keyboard-response",11,63416,"0.0-3.0-8.0","mpzxacpehg69duw",376,"84.csv","","7158.700000047684","<p>You can track your coin total on the top right of your screen. </p><p>At the end of your journey you will be directed to a survey, so please click on the link before exiting the task</p><p>Press Enter to begin</p>","13","",NA,NA,NA,NA,""
"image-keyboard-response",12,110672,"0.0-4.0-0.0","mpzxacpehg69duw",376,"84.csv","","47254.59999990463","resources/trios/L4T4A2.jpg","37","restless",0.9,0.3,0.7,0.731653480452034,"true"
"image-keyboard-response",13,111080,"0.0-4.0-1.0","mpzxacpehg69duw",376,"84.csv","","null","resources/maskTrios/L4BB.jpg","null","",NA,NA,NA,NA,""
"image-keyboard-response",14,112290,"0.0-4.0-2.0","mpzxacpehg69duw",376,"84.csv","","null","resources/images/coin2.png","null","",NA,NA,NA,NA,""
"image-keyboard-response",15,114578,"0.0-4.1-0.1","mpzxacpehg69duw",376,"84.csv","","2285.2000000476837","resources/trios/L4T4A2.jpg","37","restless",0.9,0.3,0.8,0.432217319227082,"true"
"image-keyboard-response",16,114995,"0.0-4.1-1.1","mpzxacpehg69duw",376,"84.csv","","null","resources/maskTrios/L4BB.jpg","null","",NA,NA,NA,NA,""
"image-keyboard-response",17,116212,"0.0-4.1-2.1","mpzxacpehg69duw",376,"84.csv","","null","resources/images/coin2.png","null","",NA,NA,NA,NA,""
"image-keyboard-response",18,117500,"0.0-4.2-0.2","mpzxacpehg69duw",376,"84.csv","","1285.5","resources/trios/L4T4A2.jpg","38","restless",0.9,0.3,0.8,0.781479799442348,"false"
"image-keyboard-response",19,117918,"0.0-4.2-1.2","mpzxacpehg69duw",376,"84.csv","","null","resources/maskTrios/BT4B.jpg","null","",NA,NA,NA,NA,""
"image-keyboard-response",20,119125,"0.0-4.2-2.2","mpzxacpehg69duw",376,"84.csv","","null","resources/images/fishbone.png","null","",NA,NA,NA,NA,""
"image-keyboard-response",21,119923,"0.0-4.3-0.3","mpzxacpehg69duw",376,"84.csv","","795.3999999761581","resources/trios/L4T4A2.jpg","37","restless",0.8,0.3,0.8,0.989312117223559,"false"
"image-keyboard-response",22,120331,"0.0-4.3-1.3","mpzxacpehg69duw",376,"84.csv","","null","resources/maskTrios/L4BB.jpg","null","",NA,NA,NA,NA,""
"image-keyboard-response",23,121546,"0.0-4.3-2.3","mpzxacpehg69duw",376,"84.csv","","null","resources/images/fishbone.png","null","",NA,NA,NA,NA,""
"image-keyboard-response",24,122106,"0.0-4.4-0.4","mpzxacpehg69duw",376,"84.csv","","557.7000000476837","resources/trios/L4T4A2.jpg","39","restless",0.8,0.3,0.8,0.200045230634895,"true"
"image-keyboard-response",25,122514,"0.0-4.4-1.4","mpzxacpehg69duw",376,"84.csv","","null","resources/maskTrios/BBA2.jpg","null","",NA,NA,NA,NA,""
"image-keyboard-response",26,123732,"0.0-4.4-2.4","mpzxacpehg69duw",376,"84.csv","","null","resources/images/coin2.png","null","",NA,NA,NA,NA,""
"image-keyboard-response",27,124572,"0.0-4.5-0.5","mpzxacpehg69duw",376,"84.csv","","839.3000000715256","resources/trios/L4T4A2.jpg","39","restless",0.8,0.3,0.9,0.737995145478742,"true"
"image-keyboard-response",28,124988,"0.0-4.5-1.5","mpzxacpehg69duw",376,"84.csv","","null","resources/maskTrios/BBA2.jpg","null","",NA,NA,NA,NA,""
"image-keyboard-response",29,126224,"0.0-4.5-2.5","mpzxacpehg69duw",376,"84.csv","","null","resources/images/coin2.png","null","",NA,NA,NA,NA,""
"image-keyboard-response",30,127257,"0.0-4.6-0.6","mpzxacpehg69duw",376,"84.csv","","1029.3999999761581","resources/trios/L4T4A2.jpg","38","restless",0.7,0.3,0.9,0.399955149055939,"false"
"image-keyboard-response",31,127661,"0.0-4.6-1.6","mpzxacpehg69duw",376,"84.csv","","null","resources/maskTrios/BT4B.jpg","null","",NA,NA,NA,NA,""
"image-keyboard-response",32,128880,"0.0-4.6-2.6","mpzxacpehg69duw",376,"84.csv","","null","resources/images/fishbone.png","null","",NA,NA,NA,NA,""
"image-keyboard-response",33,129280,"0.0-4.7-0.7","mpzxacpehg69duw",376,"84.csv","","397.39999997615814","resources/trios/L4T4A2.jpg","37","restless",0.7,0.3,0.9,0.0138219141576961,"true"
"image-keyboard-response",34,129692,"0.0-4.7-1.7","mpzxacpehg69duw",376,"84.csv","","null","resources/maskTrios/L4BB.jpg","null","",NA,NA,NA,NA,""
"image-keyboard-response",35,130911,"0.0-4.7-2.7","mpzxacpehg69duw",376,"84.csv","","null","resources/images/coin2.png","null","",NA,NA,NA,NA,""
"image-keyboard-response",36,131267,"0.0-4.8-0.8","mpzxacpehg69duw",376,"84.csv","","353.5","resources/trios/L4T4A2.jpg","39","restless",0.6,0.3,0.9,0.00759481810184925,"true"
"image-keyboard-response",37,131679,"0.0-4.8-1.8","mpzxacpehg69duw",376,"84.csv","","null","resources/maskTrios/BBA2.jpg","null","",NA,NA,NA,NA,""
"image-keyboard-response",38,132914,"0.0-4.8-2.8","mpzxacpehg69duw",376,"84.csv","","null","resources/images/coin2.png","null","",NA,NA,NA,NA,""
"image-keyboard-response",39,134838,"0.0-4.9-0.9","mpzxacpehg69duw",376,"84.csv","","1921.2000000476837","resources/trios/L4T4A2.jpg","39","restless",0.5,0.3,0.9,0.576042059274057,"true"
"image-keyboard-response",40,135256,"0.0-4.9-1.9","mpzxacpehg69duw",376,"84.csv","","null","resources/maskTrios/BBA2.jpg","null","",NA,NA,NA,NA,""
"image-keyboard-response",41,136462,"0.0-4.9-2.9","mpzxacpehg69duw",376,"84.csv","","null","resources/images/coin2.png","null","",NA,NA,NA,NA,""
"image-keyboard-response",42,138628,"0.0-4.10-0.10","mpzxacpehg69duw",376,"84.csv","","2163.7999999523163","resources/trios/L4T4A2.jpg","39","restless",0.5,0.2,0.9,0.298213518766887,"true"
"image-keyboard-response",43,139046,"0.0-4.10-1.10","mpzxacpehg69duw",376,"84.csv","","null","resources/maskTrios/BBA2.jpg","null","",NA,NA,NA,NA,""
"image-keyboard-response",44,140284,"0.0-4.10-2.10","mpzxacpehg69duw",376,"84.csv","","null","resources/images/coin2.png","null","",NA,NA,NA,NA,""
"image-keyboard-response",45,142283,"0.0-4.11-0.11","mpzxacpehg69duw",376,"84.csv","","1997","resources/trios/L4T4A2.jpg","37","restless",0.5,0.2,0.9,0.3438345237721,"true"
"image-keyboard-response",46,142690,"0.0-4.11-1.11","mpzxacpehg69duw",376,"84.csv","","null","resources/maskTrios/L4BB.jpg","null","",NA,NA,NA,NA,""
"image-keyboard-response",47,143904,"0.0-4.11-2.11","mpzxacpehg69duw",376,"84.csv","","null","resources/images/coin2.png","null","",NA,NA,NA,NA,""
"image-keyboard-response",48,144589,"0.0-4.12-0.12","mpzxacpehg69duw",376,"84.csv","","681.5","resources/trios/L4T4A2.jpg","39","restless",0.5,0.2,0.9,0.268061237914212,"true"
"image-keyboard-response",49,145005,"0.0-4.12-1.12","mpzxacpehg69duw",376,"84.csv","","null","resources/maskTrios/BBA2.jpg","null","",NA,NA,NA,NA,""
"image-keyboard-response",50,146218,"0.0-4.12-2.12","mpzxacpehg69duw",376,"84.csv","","null","resources/images/coin2.png","null","",NA,NA,NA,NA,""
"image-keyboard-response",51,147106,"0.0-4.13-0.13","mpzxacpehg69duw",376,"84.csv","","885.5","resources/trios/L4T4A2.jpg","37","restless",0.5,0.2,0.9,0.644881073527911,"false"
"image-keyboard-response",52,147541,"0.0-4.13-1.13","mpzxacpehg69duw",376,"84.csv","","null","resources/maskTrios/L4BB.jpg","null","",NA,NA,NA,NA,""
"image-keyboard-response",53,148781,"0.0-4.13-2.13","mpzxacpehg69duw",376,"84.csv","","null","resources/images/fishbone.png","null","",NA,NA,NA,NA,""
"image-keyboard-response",54,150015,"0.0-4.14-0.14","mpzxacpehg69duw",376,"84.csv","","1231.6999999284744","resources/trios/L4T4A2.jpg","39","restless",0.5,0.3,0.9,0.465009394685389,"true"
"image-keyboard-response",55,150426,"0.0-4.14-1.14","mpzxacpehg69duw",376,"84.csv","","null","resources/maskTrios/BBA2.jpg","null","",NA,NA,NA,NA,""
"image-keyboard-response",56,151640,"0.0-4.14-2.14","mpzxacpehg69duw",376,"84.csv","","null","resources/images/coin2.png","null","",NA,NA,NA,NA,""
"image-keyboard-response",57,152417,"0.0-4.15-0.15","mpzxacpehg69duw",376,"84.csv","","774.5","resources/trios/L4T4A2.jpg","39","restless",0.5,0.3,0.9,0.865467664223748,"true"
"image-keyboard-response",58,152829,"0.0-4.15-1.15","mpzxacpehg69duw",376,"84.csv","","null","resources/maskTrios/BBA2.jpg","null","",NA,NA,NA,NA,""
"image-keyboard-response",59,154035,"0.0-4.15-2.15","mpzxacpehg69duw",376,"84.csv","","null","resources/images/coin2.png","null","",NA,NA,NA,NA,""
"image-keyboard-response",60,155603,"0.0-4.16-0.16","mpzxacpehg69duw",376,"84.csv","","1565.8999999761581","resources/trios/L4T4A2.jpg","39","restless",0.5,0.3,0.9,0.647662093720251,"true"
"image-keyboard-response",61,156011,"0.0-4.16-1.16","mpzxacpehg69duw",376,"84.csv","","null","resources/maskTrios/BBA2.jpg","null","",NA,NA,NA,NA,""
"image-keyboard-response",62,157228,"0.0-4.16-2.16","mpzxacpehg69duw",376,"84.csv","","null","resources/images/coin2.png","null","",NA,NA,NA,NA,""
"image-keyboard-response",63,157743,"0.0-4.17-0.17","mpzxacpehg69duw",376,"84.csv","","511.60000002384186","resources/trios/L4T4A2.jpg","39","restless",0.5,0.3,0.9,0.785447131246646,"true"
"image-keyboard-response",64,158160,"0.0-4.17-1.17","mpzxacpehg69duw",376,"84.csv","","null","resources/maskTrios/BBA2.jpg","null","",NA,NA,NA,NA,""
"image-keyboard-response",65,159379,"0.0-4.17-2.17","mpzxacpehg69duw",376,"84.csv","","null","resources/images/coin2.png","null","",NA,NA,NA,NA,""
"image-keyboard-response",66,159813,"0.0-4.18-0.18","mpzxacpehg69duw",376,"84.csv","","431.5","resources/trios/L4T4A2.jpg","39","restless",0.5,0.3,0.9,0.115066190056117,"true"
"image-keyboard-response",67,160224,"0.0-4.18-1.18","mpzxacpehg69duw",376,"84.csv","","null","resources/maskTrios/BBA2.jpg","null","",NA,NA,NA,NA,""
"image-keyboard-response",68,161442,"0.0-4.18-2.18","mpzxacpehg69duw",376,"84.csv","","null","resources/images/coin2.png","null","",NA,NA,NA,NA,""
"image-keyboard-response",69,161823,"0.0-4.19-0.19","mpzxacpehg69duw",376,"84.csv","","378.39999997615814","resources/trios/L4T4A2.jpg","39","restless",0.5,0.4,0.9,0.465913191831736,"true"
"image-keyboard-response",70,162241,"0.0-4.19-1.19","mpzxacpehg69duw",376,"84.csv","","null","resources/maskTrios/BBA2.jpg","null","",NA,NA,NA,NA,""
"image-keyboard-response",71,163447,"0.0-4.19-2.19","mpzxacpehg69duw",376,"84.csv","","null","resources/images/coin2.png","null","",NA,NA,NA,NA,""
"image-keyboard-response",72,163809,"0.0-4.20-0.20","mpzxacpehg69duw",376,"84.csv","","359.5","resources/trios/L4T4A2.jpg","39","restless",0.5,0.4,0.9,0.473056896750842,"true"
"image-keyboard-response",73,164219,"0.0-4.20-1.20","mpzxacpehg69duw",376,"84.csv","","null","resources/maskTrios/BBA2.jpg","null","",NA,NA,NA,NA,""
"image-keyboard-response",74,165432,"0.0-4.20-2.20","mpzxacpehg69duw",376,"84.csv","","null","resources/images/coin2.png","null","",NA,NA,NA,NA,""
"image-keyboard-response",75,165704,"0.0-4.21-0.21","mpzxacpehg69duw",376,"84.csv","","269.7999999523163","resources/trios/L4T4A2.jpg","39","restless",0.5,0.4,0.9,0.657380022727139,"true"
"image-keyboard-response",76,166114,"0.0-4.21-1.21","mpzxacpehg69duw",376,"84.csv","","null","resources/maskTrios/BBA2.jpg","null","",NA,NA,NA,NA,""
"image-keyboard-response",77,167353,"0.0-4.21-2.21","mpzxacpehg69duw",376,"84.csv","","null","resources/images/coin2.png","null","",NA,NA,NA,NA,""
"image-keyboard-response",78,167642,"0.0-4.22-0.22","mpzxacpehg69duw",376,"84.csv","","286.5","resources/trios/L4T4A2.jpg","39","restless",0.5,0.4,0.9,0.525539710775791,"true"
"image-keyboard-response",79,168056,"0.0-4.22-1.22","mpzxacpehg69duw",376,"84.csv","","null","resources/maskTrios/BBA2.jpg","null","",NA,NA,NA,NA,""
"image-keyboard-response",80,169267,"0.0-4.22-2.22","mpzxacpehg69duw",376,"84.csv","","null","resources/images/coin2.png","null","",NA,NA,NA,NA,""
"image-keyboard-response",81,171240,"0.0-4.23-0.23","mpzxacpehg69duw",376,"84.csv","","1970.8999999761581","resources/trios/L4T4A2.jpg","39","restless",0.5,0.4,0.9,0.335696432877385,"true"
"image-keyboard-response",82,171650,"0.0-4.23-1.23","mpzxacpehg69duw",376,"84.csv","","null","resources/maskTrios/BBA2.jpg","null","",NA,NA,NA,NA,""
"image-keyboard-response",83,172872,"0.0-4.23-2.23","mpzxacpehg69duw",376,"84.csv","","null","resources/images/coin2.png","null","",NA,NA,NA,NA,""
"image-keyboard-response",84,173215,"0.0-4.24-0.24","mpzxacpehg69duw",376,"84.csv","","341","resources/trios/L4T4A2.jpg","39","restless",0.5,0.4,0.9,0.00501740266288664,"true"
"image-keyboard-response",85,173624,"0.0-4.24-1.24","mpzxacpehg69duw",376,"84.csv","","null","resources/maskTrios/BBA2.jpg","null","",NA,NA,NA,NA,""
"image-keyboard-response",86,174840,"0.0-4.24-2.24","mpzxacpehg69duw",376,"84.csv","","null","resources/images/coin2.png","null","",NA,NA,NA,NA,""
"image-keyboard-response",87,175079,"0.0-4.25-0.25","mpzxacpehg69duw",376,"84.csv","","236.39999997615814","resources/trios/L4T4A2.jpg","39","restless",0.5,0.4,0.9,0.355734807727025,"true"
"image-keyboard-response",88,175496,"0.0-4.25-1.25","mpzxacpehg69duw",376,"84.csv","","null","resources/maskTrios/BBA2.jpg","null","",NA,NA,NA,NA,""
"image-keyboard-response",89,176705,"0.0-4.25-2.25","mpzxacpehg69duw",376,"84.csv","","null","resources/images/coin2.png","null","",NA,NA,NA,NA,""
"image-keyboard-response",90,176959,"0.0-4.26-0.26","mpzxacpehg69duw",376,"84.csv","","251.39999997615814","resources/trios/L4T4A2.jpg","39","restless",0.5,0.4,0.9,0.986580476318844,"false"
"image-keyboard-response",91,177362,"0.0-4.26-1.26","mpzxacpehg69duw",376,"84.csv","","null","resources/maskTrios/BBA2.jpg","null","",NA,NA,NA,NA,""
"image-keyboard-response",92,178591,"0.0-4.26-2.26","mpzxacpehg69duw",376,"84.csv","","null","resources/images/fishbone.png","null","",NA,NA,NA,NA,""
"image-keyboard-response",93,178904,"0.0-4.27-0.27","mpzxacpehg69duw",376,"84.csv","","310.2999999523163","resources/trios/L4T4A2.jpg","38","restless",0.5,0.5,0.9,0.0341722061695988,"true"
"image-keyboard-response",94,179319,"0.0-4.27-1.27","mpzxacpehg69duw",376,"84.csv","","null","resources/maskTrios/BT4B.jpg","null","",NA,NA,NA,NA,""
"image-keyboard-response",95,180533,"0.0-4.27-2.27","mpzxacpehg69duw",376,"84.csv","","null","resources/images/coin2.png","null","",NA,NA,NA,NA,""
"image-keyboard-response",96,180808,"0.0-4.28-0.28","mpzxacpehg69duw",376,"84.csv","","273.09999990463257","resources/trios/L4T4A2.jpg","38","restless",0.5,0.5,0.9,0.041102077239684,"true"
"image-keyboard-response",97,181228,"0.0-4.28-1.28","mpzxacpehg69duw",376,"84.csv","","null","resources/maskTrios/BT4B.jpg","null","",NA,NA,NA,NA,""
"image-keyboard-response",98,182438,"0.0-4.28-2.28","mpzxacpehg69duw",376,"84.csv","","null","resources/images/coin2.png","null","",NA,NA,NA,NA,""
"image-keyboard-response",99,183229,"0.0-4.29-0.29","mpzxacpehg69duw",376,"84.csv","","789","resources/trios/L4T4A2.jpg","38","restless",0.5,0.5,0.8,0.421192229740853,"true"
"image-keyboard-response",100,183638,"0.0-4.29-1.29","mpzxacpehg69duw",376,"84.csv","","null","resources/maskTrios/BT4B.jpg","null","",NA,NA,NA,NA,""
"image-keyboard-response",101,184867,"0.0-4.29-2.29","mpzxacpehg69duw",376,"84.csv","","null","resources/images/coin2.png","null","",NA,NA,NA,NA,""
"image-keyboard-response",102,185236,"0.0-4.30-0.30","mpzxacpehg69duw",376,"84.csv","","367","resources/trios/L4T4A2.jpg","38","restless",0.5,0.5,0.9,0.0458488765797067,"true"
"image-keyboard-response",103,185647,"0.0-4.30-1.30","mpzxacpehg69duw",376,"84.csv","","null","resources/maskTrios/BT4B.jpg","null","",NA,NA,NA,NA,""
"image-keyboard-response",104,186851,"0.0-4.30-2.30","mpzxacpehg69duw",376,"84.csv","","null","resources/images/coin2.png","null","",NA,NA,NA,NA,""
"image-keyboard-response",105,187296,"0.0-4.31-0.31","mpzxacpehg69duw",376,"84.csv","","442.10000002384186","resources/trios/L4T4A2.jpg","38","restless",0.5,0.5,0.9,0.231898990840167,"true"
"image-keyboard-response",106,187709,"0.0-4.31-1.31","mpzxacpehg69duw",376,"84.csv","","null","resources/maskTrios/BT4B.jpg","null","",NA,NA,NA,NA,""
"image-keyboard-response",107,188920,"0.0-4.31-2.31","mpzxacpehg69duw",376,"84.csv","","null","resources/images/coin2.png","null","",NA,NA,NA,NA,""
"image-keyboard-response",108,189831,"0.0-4.32-0.32","mpzxacpehg69duw",376,"84.csv","","908.6000000238419","resources/trios/L4T4A2.jpg","38","restless",0.5,0.5,0.9,0.940925817418051,"false"
"image-keyboard-response",109,190250,"0.0-4.32-1.32","mpzxacpehg69duw",376,"84.csv","","null","resources/maskTrios/BT4B.jpg","null","",NA,NA,NA,NA,""
"image-keyboard-response",110,191470,"0.0-4.32-2.32","mpzxacpehg69duw",376,"84.csv","","null","resources/images/fishbone.png","null","",NA,NA,NA,NA,""
"image-keyboard-response",111,193043,"0.0-4.33-0.33","mpzxacpehg69duw",376,"84.csv","","1570.3999999761581","resources/trios/L4T4A2.jpg","37","restless",0.5,0.5,0.9,0.837067433996398,"false"
"image-keyboard-response",112,193454,"0.0-4.33-1.33","mpzxacpehg69duw",376,"84.csv","","null","resources/maskTrios/L4BB.jpg","null","",NA,NA,NA,NA,""
"image-keyboard-response",113,194657,"0.0-4.33-2.33","mpzxacpehg69duw",376,"84.csv","","null","resources/images/fishbone.png","null","",NA,NA,NA,NA,""
"image-keyboard-response",114,213205,"0.0-4.34-0.34","mpzxacpehg69duw",376,"84.csv","","18545.400000095367","resources/trios/L4T4A2.jpg","38","restless",0.5,0.5,0.9,0.7974349911067,"false"
"image-keyboard-response",115,213614,"0.0-4.34-1.34","mpzxacpehg69duw",376,"84.csv","","null","resources/maskTrios/BT4B.jpg","null","",NA,NA,NA,NA,""
"image-keyboard-response",116,214817,"0.0-4.34-2.34","mpzxacpehg69duw",376,"84.csv","","null","resources/images/fishbone.png","null","",NA,NA,NA,NA,""
"image-keyboard-response",117,215159,"0.0-4.35-0.35","mpzxacpehg69duw",376,"84.csv","","340.10000002384186","resources/trios/L4T4A2.jpg","39","restless",0.5,0.5,0.9,0.405878703632217,"true"
"image-keyboard-response",118,215573,"0.0-4.35-1.35","mpzxacpehg69duw",376,"84.csv","","null","resources/maskTrios/BBA2.jpg","null","",NA,NA,NA,NA,""
"image-keyboard-response",119,216777,"0.0-4.35-2.35","mpzxacpehg69duw",376,"84.csv","","null","resources/images/coin2.png","null","",NA,NA,NA,NA,""
"image-keyboard-response",120,217289,"0.0-4.36-0.36","mpzxacpehg69duw",376,"84.csv","","510.5","resources/trios/L4T4A2.jpg","39","restless",0.5,0.5,0.9,0.202929227889965,"true"
"image-keyboard-response",121,217698,"0.0-4.36-1.36","mpzxacpehg69duw",376,"84.csv","","null","resources/maskTrios/BBA2.jpg","null","",NA,NA,NA,NA,""
"image-keyboard-response",122,218912,"0.0-4.36-2.36","mpzxacpehg69duw",376,"84.csv","","null","resources/images/coin2.png","null","",NA,NA,NA,NA,""
"image-keyboard-response",123,219429,"0.0-4.37-0.37","mpzxacpehg69duw",376,"84.csv","","514.8000000715256","resources/trios/L4T4A2.jpg","39","restless",0.5,0.5,0.9,0.356005982613628,"true"
"image-keyboard-response",124,219832,"0.0-4.37-1.37","mpzxacpehg69duw",376,"84.csv","","null","resources/maskTrios/BBA2.jpg","null","",NA,NA,NA,NA,""
"image-keyboard-response",125,221040,"0.0-4.37-2.37","mpzxacpehg69duw",376,"84.csv","","null","resources/images/coin2.png","null","",NA,NA,NA,NA,""
"image-keyboard-response",126,224253,"0.0-4.38-0.38","mpzxacpehg69duw",376,"84.csv","","3211.600000023842","resources/trios/L4T4A2.jpg","39","restless",0.5,0.5,0.9,0.816303952016422,"true"
"image-keyboard-response",127,224685,"0.0-4.38-1.38","mpzxacpehg69duw",376,"84.csv","","null","resources/maskTrios/BBA2.jpg","null","",NA,NA,NA,NA,""
"image-keyboard-response",128,225906,"0.0-4.38-2.38","mpzxacpehg69duw",376,"84.csv","","null","resources/images/coin2.png","null","",NA,NA,NA,NA,""
"image-keyboard-response",129,226337,"0.0-4.39-0.39","mpzxacpehg69duw",376,"84.csv","","429.1999999284744","resources/trios/L4T4A2.jpg","39","restless",0.5,0.5,0.9,0.25193248620716,"true"
"image-keyboard-response",130,226751,"0.0-4.39-1.39","mpzxacpehg69duw",376,"84.csv","","null","resources/maskTrios/BBA2.jpg","null","",NA,NA,NA,NA,""
"image-keyboard-response",131,227959,"0.0-4.39-2.39","mpzxacpehg69duw",376,"84.csv","","null","resources/images/coin2.png","null","",NA,NA,NA,NA,""
"image-keyboard-response",132,228285,"0.0-4.40-0.40","mpzxacpehg69duw",376,"84.csv","","324.2999999523163","resources/trios/L4T4A2.jpg","39","restless",0.5,0.5,0.9,0.0326372238716706,"true"
"image-keyboard-response",133,228699,"0.0-4.40-1.40","mpzxacpehg69duw",376,"84.csv","","null","resources/maskTrios/BBA2.jpg","null","",NA,NA,NA,NA,""
"image-keyboard-response",134,229903,"0.0-4.40-2.40","mpzxacpehg69duw",376,"84.csv","","null","resources/images/coin2.png","null","",NA,NA,NA,NA,""
"image-keyboard-response",135,230812,"0.0-4.41-0.41","mpzxacpehg69duw",376,"84.csv","","906.5","resources/trios/L4T4A2.jpg","39","restless",0.5,0.5,0.9,0.880721601612345,"true"
"image-keyboard-response",136,231222,"0.0-4.41-1.41","mpzxacpehg69duw",376,"84.csv","","null","resources/maskTrios/BBA2.jpg","null","",NA,NA,NA,NA,""
"image-keyboard-response",137,232453,"0.0-4.41-2.41","mpzxacpehg69duw",376,"84.csv","","null","resources/images/coin2.png","null","",NA,NA,NA,NA,""
"image-keyboard-response",138,232966,"0.0-4.42-0.42","mpzxacpehg69duw",376,"84.csv","","511.5","resources/trios/L4T4A2.jpg","39","restless",0.5,0.4,0.9,0.720179191849821,"true"
"image-keyboard-response",139,233386,"0.0-4.42-1.42","mpzxacpehg69duw",376,"84.csv","","null","resources/maskTrios/BBA2.jpg","null","",NA,NA,NA,NA,""
"image-keyboard-response",140,234595,"0.0-4.42-2.42","mpzxacpehg69duw",376,"84.csv","","null","resources/images/coin2.png","null","",NA,NA,NA,NA,""
"image-keyboard-response",141,234834,"0.0-4.43-0.43","mpzxacpehg69duw",376,"84.csv","","236.70000004768372","resources/trios/L4T4A2.jpg","39","restless",0.5,0.4,0.9,0.980477048393415,"false"
"image-keyboard-response",142,235252,"0.0-4.43-1.43","mpzxacpehg69duw",376,"84.csv","","null","resources/maskTrios/BBA2.jpg","null","",NA,NA,NA,NA,""
"image-keyboard-response",143,236465,"0.0-4.43-2.43","mpzxacpehg69duw",376,"84.csv","","null","resources/images/fishbone.png","null","",NA,NA,NA,NA,""
"image-keyboard-response",144,236773,"0.0-4.44-0.44","mpzxacpehg69duw",376,"84.csv","","305","resources/trios/L4T4A2.jpg","37","restless",0.5,0.4,0.9,0.38931972843273,"true"
"image-keyboard-response",145,237188,"0.0-4.44-1.44","mpzxacpehg69duw",376,"84.csv","","null","resources/maskTrios/L4BB.jpg","null","",NA,NA,NA,NA,""
"image-keyboard-response",146,238411,"0.0-4.44-2.44","mpzxacpehg69duw",376,"84.csv","","null","resources/images/coin2.png","null","",NA,NA,NA,NA,""
"image-keyboard-response",147,238666,"0.0-4.45-0.45","mpzxacpehg69duw",376,"84.csv","","252.20000004768372","resources/trios/L4T4A2.jpg","37","restless",0.6,0.4,0.8,0.666748581809837,"false"
"image-keyboard-response",148,239083,"0.0-4.45-1.45","mpzxacpehg69duw",376,"84.csv","","null","resources/maskTrios/L4BB.jpg","null","",NA,NA,NA,NA,""
"image-keyboard-response",149,240305,"0.0-4.45-2.45","mpzxacpehg69duw",376,"84.csv","","null","resources/images/fishbone.png","null","",NA,NA,NA,NA,""
"image-keyboard-response",150,242520,"0.0-4.46-0.46","mpzxacpehg69duw",376,"84.csv","","2213.399999976158","resources/trios/L4T4A2.jpg","38","restless",0.6,0.4,0.8,0.117904434675411,"true"
"image-keyboard-response",151,242930,"0.0-4.46-1.46","mpzxacpehg69duw",376,"84.csv","","null","resources/maskTrios/BT4B.jpg","null","",NA,NA,NA,NA,""
"image-keyboard-response",152,244136,"0.0-4.46-2.46","mpzxacpehg69duw",376,"84.csv","","null","resources/images/coin2.png","null","",NA,NA,NA,NA,""
"image-keyboard-response",153,247576,"0.0-4.47-0.47","mpzxacpehg69duw",376,"84.csv","","3437.5","resources/trios/L4T4A2.jpg","38","restless",0.6,0.4,0.8,0.36428278026413,"true"
"image-keyboard-response",154,247981,"0.0-4.47-1.47","mpzxacpehg69duw",376,"84.csv","","null","resources/maskTrios/BT4B.jpg","null","",NA,NA,NA,NA,""
"image-keyboard-response",155,249226,"0.0-4.47-2.47","mpzxacpehg69duw",376,"84.csv","","null","resources/images/coin2.png","null","",NA,NA,NA,NA,""
"image-keyboard-response",156,255587,"0.0-4.48-0.48","mpzxacpehg69duw",376,"84.csv","","6359.299999952316","resources/trios/L4T4A2.jpg","38","restless",0.6,0.4,0.8,0.980943327001967,"false"
"image-keyboard-response",157,255993,"0.0-4.48-1.48","mpzxacpehg69duw",376,"84.csv","","null","resources/maskTrios/BT4B.jpg","null","",NA,NA,NA,NA,""
"image-keyboard-response",158,257209,"0.0-4.48-2.48","mpzxacpehg69duw",376,"84.csv","","null","resources/images/fishbone.png","null","",NA,NA,NA,NA,""
"image-keyboard-response",159,257613,"0.0-4.49-0.49","mpzxacpehg69duw",376,"84.csv","","403.10000002384186","resources/trios/L4T4A2.jpg","39","restless",0.6,0.4,0.8,0.406850152756865,"true"
"image-keyboard-response",160,258033,"0.0-4.49-1.49","mpzxacpehg69duw",376,"84.csv","","null","resources/maskTrios/BBA2.jpg","null","",NA,NA,NA,NA,""
"image-keyboard-response",161,259241,"0.0-4.49-2.49","mpzxacpehg69duw",376,"84.csv","","null","resources/images/coin2.png","null","",NA,NA,NA,NA,""
"image-keyboard-response",162,260046,"0.0-4.50-0.50","mpzxacpehg69duw",376,"84.csv","","801.8999999761581","resources/trios/L4T4A2.jpg","39","restless",0.6,0.4,0.9,0.113830660097031,"true"
"image-keyboard-response",163,260460,"0.0-4.50-1.50","mpzxacpehg69duw",376,"84.csv","","null","resources/maskTrios/BBA2.jpg","null","",NA,NA,NA,NA,""
"image-keyboard-response",164,261693,"0.0-4.50-2.50","mpzxacpehg69duw",376,"84.csv","","null","resources/images/coin2.png","null","",NA,NA,NA,NA,""
"image-keyboard-response",165,263362,"0.0-4.51-0.51","mpzxacpehg69duw",376,"84.csv","","1666.7000000476837","resources/trios/L4T4A2.jpg","39","restless",0.6,0.4,0.9,0.276269535777461,"true"
"image-keyboard-response",166,263767,"0.0-4.51-1.51","mpzxacpehg69duw",376,"84.csv","","null","resources/maskTrios/BBA2.jpg","null","",NA,NA,NA,NA,""
"image-keyboard-response",167,264971,"0.0-4.51-2.51","mpzxacpehg69duw",376,"84.csv","","null","resources/images/coin2.png","null","",NA,NA,NA,NA,""
"image-keyboard-response",168,265447,"0.0-4.52-0.52","mpzxacpehg69duw",376,"84.csv","","473.2999999523163","resources/trios/L4T4A2.jpg","39","restless",0.6,0.4,0.9,0.0190088735439895,"true"
"image-keyboard-response",169,265856,"0.0-4.52-1.52","mpzxacpehg69duw",376,"84.csv","","null","resources/maskTrios/BBA2.jpg","null","",NA,NA,NA,NA,""
"image-keyboard-response",170,267072,"0.0-4.52-2.52","mpzxacpehg69duw",376,"84.csv","","null","resources/images/coin2.png","null","",NA,NA,NA,NA,""
"image-keyboard-response",171,268265,"0.0-4.53-0.53","mpzxacpehg69duw",376,"84.csv","","1190.5999999046326","resources/trios/L4T4A2.jpg","39","restless",0.6,0.4,0.9,0.43408310090316,"true"
"image-keyboard-response",172,268689,"0.0-4.53-1.53","mpzxacpehg69duw",376,"84.csv","","null","resources/maskTrios/BBA2.jpg","null","",NA,NA,NA,NA,""
"image-keyboard-response",173,269919,"0.0-4.53-2.53","mpzxacpehg69duw",376,"84.csv","","null","resources/images/coin2.png","null","",NA,NA,NA,NA,""
"image-keyboard-response",174,270315,"0.0-4.54-0.54","mpzxacpehg69duw",376,"84.csv","","395.10000002384186","resources/trios/L4T4A2.jpg","39","restless",0.6,0.4,0.9,0.476115452677437,"true"
"image-keyboard-response",175,270740,"0.0-4.54-1.54","mpzxacpehg69duw",376,"84.csv","","null","resources/maskTrios/BBA2.jpg","null","",NA,NA,NA,NA,""
"image-keyboard-response",176,271957,"0.0-4.54-2.54","mpzxacpehg69duw",376,"84.csv","","null","resources/images/coin2.png","null","",NA,NA,NA,NA,""
"image-keyboard-response",177,272417,"0.0-4.55-0.55","mpzxacpehg69duw",376,"84.csv","","458.40000009536743","resources/trios/L4T4A2.jpg","39","restless",0.7,0.4,0.9,0.0210276800233031,"true"
"image-keyboard-response",178,272829,"0.0-4.55-1.55","mpzxacpehg69duw",376,"84.csv","","null","resources/maskTrios/BBA2.jpg","null","",NA,NA,NA,NA,""
"image-keyboard-response",179,274034,"0.0-4.55-2.55","mpzxacpehg69duw",376,"84.csv","","null","resources/images/coin2.png","null","",NA,NA,NA,NA,""
"image-keyboard-response",180,274527,"0.0-4.56-0.56","mpzxacpehg69duw",376,"84.csv","","489.7999999523163","resources/trios/L4T4A2.jpg","39","restless",0.7,0.4,0.9,0.619211680843684,"true"
"image-keyboard-response",181,274938,"0.0-4.56-1.56","mpzxacpehg69duw",376,"84.csv","","null","resources/maskTrios/BBA2.jpg","null","",NA,NA,NA,NA,""
"image-keyboard-response",182,276149,"0.0-4.56-2.56","mpzxacpehg69duw",376,"84.csv","","null","resources/images/coin2.png","null","",NA,NA,NA,NA,""
"image-keyboard-response",183,276405,"0.0-4.57-0.57","mpzxacpehg69duw",376,"84.csv","","254.10000002384186","resources/trios/L4T4A2.jpg","39","restless",0.8,0.4,0.9,0.784324305397324,"true"
"image-keyboard-response",184,276808,"0.0-4.57-1.57","mpzxacpehg69duw",376,"84.csv","","null","resources/maskTrios/BBA2.jpg","null","",NA,NA,NA,NA,""
"image-keyboard-response",185,278019,"0.0-4.57-2.57","mpzxacpehg69duw",376,"84.csv","","null","resources/images/coin2.png","null","",NA,NA,NA,NA,""
"image-keyboard-response",186,279739,"0.0-4.58-0.58","mpzxacpehg69duw",376,"84.csv","","1717.1000000238419","resources/trios/L4T4A2.jpg","39","restless",0.8,0.4,0.9,0.924567974732033,"false"
"image-keyboard-response",187,280146,"0.0-4.58-1.58","mpzxacpehg69duw",376,"84.csv","","null","resources/maskTrios/BBA2.jpg","null","",NA,NA,NA,NA,""
"image-keyboard-response",188,281363,"0.0-4.58-2.58","mpzxacpehg69duw",376,"84.csv","","null","resources/images/fishbone.png","null","",NA,NA,NA,NA,""
"image-keyboard-response",189,281827,"0.0-4.59-0.59","mpzxacpehg69duw",376,"84.csv","","461.89999997615814","resources/trios/L4T4A2.jpg","37","restless",0.8,0.4,0.9,0.93628014956782,"false"
"image-keyboard-response",190,282230,"0.0-4.59-1.59","mpzxacpehg69duw",376,"84.csv","","null","resources/maskTrios/L4BB.jpg","null","",NA,NA,NA,NA,""
"image-keyboard-response",191,283437,"0.0-4.59-2.59","mpzxacpehg69duw",376,"84.csv","","null","resources/images/fishbone.png","null","",NA,NA,NA,NA,""
"image-keyboard-response",192,283657,"0.0-4.60-0.60","mpzxacpehg69duw",376,"84.csv","","218","resources/trios/L4T4A2.jpg","38","restless",0.8,0.4,0.9,0.276202532940746,"true"
"image-keyboard-response",193,284068,"0.0-4.60-1.60","mpzxacpehg69duw",376,"84.csv","","null","resources/maskTrios/BT4B.jpg","null","",NA,NA,NA,NA,""
"image-keyboard-response",194,285274,"0.0-4.60-2.60","mpzxacpehg69duw",376,"84.csv","","null","resources/images/coin2.png","null","",NA,NA,NA,NA,""
"image-keyboard-response",195,285614,"0.0-4.61-0.61","mpzxacpehg69duw",376,"84.csv","","337.60000002384186","resources/trios/L4T4A2.jpg","38","restless",0.8,0.4,0.9,0.427841198415589,"false"
"image-keyboard-response",196,286033,"0.0-4.61-1.61","mpzxacpehg69duw",376,"84.csv","","null","resources/maskTrios/BT4B.jpg","null","",NA,NA,NA,NA,""
"image-keyboard-response",197,287253,"0.0-4.61-2.61","mpzxacpehg69duw",376,"84.csv","","null","resources/images/fishbone.png","null","",NA,NA,NA,NA,""
"image-keyboard-response",198,287520,"0.0-4.62-0.62","mpzxacpehg69duw",376,"84.csv","","263.89999997615814","resources/trios/L4T4A2.jpg","39","restless",0.8,0.4,0.9,0.127226956180633,"true"
"image-keyboard-response",199,287925,"0.0-4.62-1.62","mpzxacpehg69duw",376,"84.csv","","null","resources/maskTrios/BBA2.jpg","null","",NA,NA,NA,NA,""
"image-keyboard-response",200,289132,"0.0-4.62-2.62","mpzxacpehg69duw",376,"84.csv","","null","resources/images/coin2.png","null","",NA,NA,NA,NA,""
"image-keyboard-response",201,289340,"0.0-4.63-0.63","mpzxacpehg69duw",376,"84.csv","","205.69999992847443","resources/trios/L4T4A2.jpg","39","restless",0.8,0.4,0.9,0.116115059402758,"true"
"image-keyboard-response",202,289756,"0.0-4.63-1.63","mpzxacpehg69duw",376,"84.csv","","null","resources/maskTrios/BBA2.jpg","null","",NA,NA,NA,NA,""
"image-keyboard-response",203,290967,"0.0-4.63-2.63","mpzxacpehg69duw",376,"84.csv","","null","resources/images/coin2.png","null","",NA,NA,NA,NA,""
"image-keyboard-response",204,291335,"0.0-4.64-0.64","mpzxacpehg69duw",376,"84.csv","","365.7000000476837","resources/trios/L4T4A2.jpg","39","restless",0.8,0.4,0.9,0.0203954281155547,"true"
"image-keyboard-response",205,291753,"0.0-4.64-1.64","mpzxacpehg69duw",376,"84.csv","","null","resources/maskTrios/BBA2.jpg","null","",NA,NA,NA,NA,""
"image-keyboard-response",206,292984,"0.0-4.64-2.64","mpzxacpehg69duw",376,"84.csv","","null","resources/images/coin2.png","null","",NA,NA,NA,NA,""
"image-keyboard-response",207,293298,"0.0-4.65-0.65","mpzxacpehg69duw",376,"84.csv","","312","resources/trios/L4T4A2.jpg","39","restless",0.8,0.4,0.9,0.344048768992552,"true"
"image-keyboard-response",208,293702,"0.0-4.65-1.65","mpzxacpehg69duw",376,"84.csv","","null","resources/maskTrios/BBA2.jpg","null","",NA,NA,NA,NA,""
"image-keyboard-response",209,294906,"0.0-4.65-2.65","mpzxacpehg69duw",376,"84.csv","","null","resources/images/coin2.png","null","",NA,NA,NA,NA,""
"image-keyboard-response",210,295226,"0.0-4.66-0.66","mpzxacpehg69duw",376,"84.csv","","318","resources/trios/L4T4A2.jpg","39","restless",0.8,0.4,0.9,0.764982486068768,"true"
"image-keyboard-response",211,295647,"0.0-4.66-1.66","mpzxacpehg69duw",376,"84.csv","","null","resources/maskTrios/BBA2.jpg","null","",NA,NA,NA,NA,""
"image-keyboard-response",212,296864,"0.0-4.66-2.66","mpzxacpehg69duw",376,"84.csv","","null","resources/images/coin2.png","null","",NA,NA,NA,NA,""
"image-keyboard-response",213,297122,"0.0-4.67-0.67","mpzxacpehg69duw",376,"84.csv","","255.39999997615814","resources/trios/L4T4A2.jpg","39","restless",0.8,0.5,0.9,0.912624226738002,"false"
"image-keyboard-response",214,297538,"0.0-4.67-1.67","mpzxacpehg69duw",376,"84.csv","","null","resources/maskTrios/BBA2.jpg","null","",NA,NA,NA,NA,""
"image-keyboard-response",215,298779,"0.0-4.67-2.67","mpzxacpehg69duw",376,"84.csv","","null","resources/images/fishbone.png","null","",NA,NA,NA,NA,""
"image-keyboard-response",216,299068,"0.0-4.68-0.68","mpzxacpehg69duw",376,"84.csv","","285.5","resources/trios/L4T4A2.jpg","37","restless",0.7,0.5,0.9,0.175195394875364,"true"
"image-keyboard-response",217,299488,"0.0-4.68-1.68","mpzxacpehg69duw",376,"84.csv","","null","resources/maskTrios/L4BB.jpg","null","",NA,NA,NA,NA,""
"image-keyboard-response",218,300698,"0.0-4.68-2.68","mpzxacpehg69duw",376,"84.csv","","null","resources/images/coin2.png","null","",NA,NA,NA,NA,""
"image-keyboard-response",219,300899,"0.0-4.69-0.69","mpzxacpehg69duw",376,"84.csv","","198.29999995231628","resources/trios/L4T4A2.jpg","37","restless",0.7,0.5,0.9,0.540466294270709,"true"
"image-keyboard-response",220,301320,"0.0-4.69-1.69","mpzxacpehg69duw",376,"84.csv","","null","resources/maskTrios/L4BB.jpg","null","",NA,NA,NA,NA,""
"image-keyboard-response",221,302539,"0.0-4.69-2.69","mpzxacpehg69duw",376,"84.csv","","null","resources/images/coin2.png","null","",NA,NA,NA,NA,""
"image-keyboard-response",222,302826,"0.0-4.70-0.70","mpzxacpehg69duw",376,"84.csv","","284.7999999523163","resources/trios/L4T4A2.jpg","37","restless",0.7,0.5,0.9,0.598678875049483,"true"
"image-keyboard-response",223,303243,"0.0-4.70-1.70","mpzxacpehg69duw",376,"84.csv","","null","resources/maskTrios/L4BB.jpg","null","",NA,NA,NA,NA,""
"image-keyboard-response",224,304471,"0.0-4.70-2.70","mpzxacpehg69duw",376,"84.csv","","null","resources/images/coin2.png","null","",NA,NA,NA,NA,""
"image-keyboard-response",225,305107,"0.0-4.71-0.71","mpzxacpehg69duw",376,"84.csv","","633.3999999761581","resources/trios/L4T4A2.jpg","37","restless",0.6,0.5,0.9,0.485715799682185,"true"
"image-keyboard-response",226,305525,"0.0-4.71-1.71","mpzxacpehg69duw",376,"84.csv","","null","resources/maskTrios/L4BB.jpg","null","",NA,NA,NA,NA,""
"image-keyboard-response",227,306737,"0.0-4.71-2.71","mpzxacpehg69duw",376,"84.csv","","null","resources/images/coin2.png","null","",NA,NA,NA,NA,""
"image-keyboard-response",228,306932,"0.0-4.72-0.72","mpzxacpehg69duw",376,"84.csv","","193.69999992847443","resources/trios/L4T4A2.jpg","37","restless",0.6,0.5,0.8,0.385597144929306,"true"
"image-keyboard-response",229,307350,"0.0-4.72-1.72","mpzxacpehg69duw",376,"84.csv","","null","resources/maskTrios/L4BB.jpg","null","",NA,NA,NA,NA,""
"image-keyboard-response",230,308567,"0.0-4.72-2.72","mpzxacpehg69duw",376,"84.csv","","null","resources/images/coin2.png","null","",NA,NA,NA,NA,""
"image-keyboard-response",231,308836,"0.0-4.73-0.73","mpzxacpehg69duw",376,"84.csv","","267.2000000476837","resources/trios/L4T4A2.jpg","38","restless",0.7,0.5,0.8,0.670406045542923,"false"
"image-keyboard-response",232,309241,"0.0-4.73-1.73","mpzxacpehg69duw",376,"84.csv","","null","resources/maskTrios/BT4B.jpg","null","",NA,NA,NA,NA,""
"image-keyboard-response",233,310481,"0.0-4.73-2.73","mpzxacpehg69duw",376,"84.csv","","null","resources/images/fishbone.png","null","",NA,NA,NA,NA,""
"image-keyboard-response",234,310854,"0.0-4.74-0.74","mpzxacpehg69duw",376,"84.csv","","370.10000002384186","resources/trios/L4T4A2.jpg","37","restless",0.6,0.5,0.8,0.430287402061236,"true"
"image-keyboard-response",235,311274,"0.0-4.74-1.74","mpzxacpehg69duw",376,"84.csv","","null","resources/maskTrios/L4BB.jpg","null","",NA,NA,NA,NA,""
"image-keyboard-response",236,312488,"0.0-4.74-2.74","mpzxacpehg69duw",376,"84.csv","","null","resources/images/coin2.png","null","",NA,NA,NA,NA,""
"image-keyboard-response",237,312731,"0.0-4.75-0.75","mpzxacpehg69duw",376,"84.csv","","241.29999995231628","resources/trios/L4T4A2.jpg","37","restless",0.6,0.5,0.8,0.379610739633009,"true"
"image-keyboard-response",238,313136,"0.0-4.75-1.75","mpzxacpehg69duw",376,"84.csv","","null","resources/maskTrios/L4BB.jpg","null","",NA,NA,NA,NA,""
"image-keyboard-response",239,314347,"0.0-4.75-2.75","mpzxacpehg69duw",376,"84.csv","","null","resources/images/coin2.png","null","",NA,NA,NA,NA,""
"image-keyboard-response",240,314581,"0.0-4.76-0.76","mpzxacpehg69duw",376,"84.csv","","231","resources/trios/L4T4A2.jpg","37","restless",0.6,0.5,0.8,0.790828097393653,"false"
"image-keyboard-response",241,314985,"0.0-4.76-1.76","mpzxacpehg69duw",376,"84.csv","","null","resources/maskTrios/L4BB.jpg","null","",NA,NA,NA,NA,""
"image-keyboard-response",242,316210,"0.0-4.76-2.76","mpzxacpehg69duw",376,"84.csv","","null","resources/images/fishbone.png","null","",NA,NA,NA,NA,""
"image-keyboard-response",243,316510,"0.0-4.77-0.77","mpzxacpehg69duw",376,"84.csv","","297.5","resources/trios/L4T4A2.jpg","39","restless",0.6,0.5,0.8,0.807228463696073,"false"
"image-keyboard-response",244,316922,"0.0-4.77-1.77","mpzxacpehg69duw",376,"84.csv","","null","resources/maskTrios/BBA2.jpg","null","",NA,NA,NA,NA,""
"image-keyboard-response",245,318141,"0.0-4.77-2.77","mpzxacpehg69duw",376,"84.csv","","null","resources/images/fishbone.png","null","",NA,NA,NA,NA,""
"image-keyboard-response",246,318146,"0.0-4.78-0.78","mpzxacpehg69duw",376,"84.csv","","2.899999976158142","resources/trios/L4T4A2.jpg","38","restless",0.6,0.5,0.9,0.545951412304075,"false"
"image-keyboard-response",247,318565,"0.0-4.78-1.78","mpzxacpehg69duw",376,"84.csv","","null","resources/maskTrios/BT4B.jpg","null","",NA,NA,NA,NA,""
"image-keyboard-response",248,319773,"0.0-4.78-2.78","mpzxacpehg69duw",376,"84.csv","","null","resources/images/fishbone.png","null","",NA,NA,NA,NA,""
"image-keyboard-response",249,320060,"0.0-4.79-0.79","mpzxacpehg69duw",376,"84.csv","","284.39999997615814","resources/trios/L4T4A2.jpg","38","restless",0.6,0.5,0.9,0.52183223594032,"false"
"image-keyboard-response",250,320463,"0.0-4.79-1.79","mpzxacpehg69duw",376,"84.csv","","null","resources/maskTrios/BT4B.jpg","null","",NA,NA,NA,NA,""
"image-keyboard-response",251,321691,"0.0-4.79-2.79","mpzxacpehg69duw",376,"84.csv","","null","resources/images/fishbone.png","null","",NA,NA,NA,NA,""
"image-keyboard-response",252,321886,"0.0-4.80-0.80","mpzxacpehg69duw",376,"84.csv","","192","resources/trios/L4T4A2.jpg","37","restless",0.6,0.5,0.9,0.195430685205204,"true"
"image-keyboard-response",253,322294,"0.0-4.80-1.80","mpzxacpehg69duw",376,"84.csv","","null","resources/maskTrios/L4BB.jpg","null","",NA,NA,NA,NA,""
"image-keyboard-response",254,323502,"0.0-4.80-2.80","mpzxacpehg69duw",376,"84.csv","","null","resources/images/coin2.png","null","",NA,NA,NA,NA,""
"image-keyboard-response",255,323771,"0.0-4.81-0.81","mpzxacpehg69duw",376,"84.csv","","267.2999999523163","resources/trios/L4T4A2.jpg","37","restless",0.6,0.6,0.9,0.27315042159963,"true"
"image-keyboard-response",256,324177,"0.0-4.81-1.81","mpzxacpehg69duw",376,"84.csv","","null","resources/maskTrios/L4BB.jpg","null","",NA,NA,NA,NA,""
"image-keyboard-response",257,325396,"0.0-4.81-2.81","mpzxacpehg69duw",376,"84.csv","","null","resources/images/coin2.png","null","",NA,NA,NA,NA,""
"image-keyboard-response",258,325637,"0.0-4.82-0.82","mpzxacpehg69duw",376,"84.csv","","238.30000007152557","resources/trios/L4T4A2.jpg","37","restless",0.6,0.6,0.9,0.436706090890519,"true"
"image-keyboard-response",259,326047,"0.0-4.82-1.82","mpzxacpehg69duw",376,"84.csv","","null","resources/maskTrios/L4BB.jpg","null","",NA,NA,NA,NA,""
"image-keyboard-response",260,327271,"0.0-4.82-2.82","mpzxacpehg69duw",376,"84.csv","","null","resources/images/coin2.png","null","",NA,NA,NA,NA,""
"image-keyboard-response",261,327301,"0.0-4.83-0.83","mpzxacpehg69duw",376,"84.csv","","27","resources/trios/L4T4A2.jpg","37","restless",0.6,0.6,0.9,0.493581808535118,"true"
"image-keyboard-response",262,327716,"0.0-4.83-1.83","mpzxacpehg69duw",376,"84.csv","","null","resources/maskTrios/L4BB.jpg","null","",NA,NA,NA,NA,""
"image-keyboard-response",263,328935,"0.0-4.83-2.83","mpzxacpehg69duw",376,"84.csv","","null","resources/images/coin2.png","null","",NA,NA,NA,NA,""
"image-keyboard-response",264,329011,"0.0-4.84-0.84","mpzxacpehg69duw",376,"84.csv","","72.70000004768372","resources/trios/L4T4A2.jpg","37","restless",0.6,0.6,0.9,0.612040302358229,"false"
"image-keyboard-response",265,329427,"0.0-4.84-1.84","mpzxacpehg69duw",376,"84.csv","","null","resources/maskTrios/L4BB.jpg","null","",NA,NA,NA,NA,""
"image-keyboard-response",266,330630,"0.0-4.84-2.84","mpzxacpehg69duw",376,"84.csv","","null","resources/images/fishbone.png","null","",NA,NA,NA,NA,""
"image-keyboard-response",267,330870,"0.0-4.85-0.85","mpzxacpehg69duw",376,"84.csv","","238.20000004768372","resources/trios/L4T4A2.jpg","39","restless",0.6,0.7,0.9,0.789790999890006,"true"
"image-keyboard-response",268,331282,"0.0-4.85-1.85","mpzxacpehg69duw",376,"84.csv","","null","resources/maskTrios/BBA2.jpg","null","",NA,NA,NA,NA,""
"image-keyboard-response",269,332489,"0.0-4.85-2.85","mpzxacpehg69duw",376,"84.csv","","null","resources/images/coin2.png","null","",NA,NA,NA,NA,""
"image-keyboard-response",270,332594,"0.0-4.86-0.86","mpzxacpehg69duw",376,"84.csv","","103.20000004768372","resources/trios/L4T4A2.jpg","39","restless",0.6,0.7,0.9,0.768796977479082,"true"
"image-keyboard-response",271,332998,"0.0-4.86-1.86","mpzxacpehg69duw",376,"84.csv","","null","resources/maskTrios/BBA2.jpg","null","",NA,NA,NA,NA,""
"image-keyboard-response",272,334215,"0.0-4.86-2.86","mpzxacpehg69duw",376,"84.csv","","null","resources/images/coin2.png","null","",NA,NA,NA,NA,""
"image-keyboard-response",273,334441,"0.0-4.87-0.87","mpzxacpehg69duw",376,"84.csv","","223.5","resources/trios/L4T4A2.jpg","39","restless",0.6,0.7,0.8,0.420524475260124,"true"
"image-keyboard-response",274,334860,"0.0-4.87-1.87","mpzxacpehg69duw",376,"84.csv","","null","resources/maskTrios/BBA2.jpg","null","",NA,NA,NA,NA,""
"image-keyboard-response",275,336063,"0.0-4.87-2.87","mpzxacpehg69duw",376,"84.csv","","null","resources/images/coin2.png","null","",NA,NA,NA,NA,""
"image-keyboard-response",276,336116,"0.0-4.88-0.88","mpzxacpehg69duw",376,"84.csv","","50.39999997615814","resources/trios/L4T4A2.jpg","39","restless",0.6,0.7,0.8,0.540039887042796,"true"
"image-keyboard-response",277,336531,"0.0-4.88-1.88","mpzxacpehg69duw",376,"84.csv","","null","resources/maskTrios/BBA2.jpg","null","",NA,NA,NA,NA,""
"image-keyboard-response",278,337742,"0.0-4.88-2.88","mpzxacpehg69duw",376,"84.csv","","null","resources/images/coin2.png","null","",NA,NA,NA,NA,""
"image-keyboard-response",279,337832,"0.0-4.89-0.89","mpzxacpehg69duw",376,"84.csv","","87","resources/trios/L4T4A2.jpg","39","restless",0.6,0.7,0.8,0.454382463357048,"true"
"image-keyboard-response",280,338248,"0.0-4.89-1.89","mpzxacpehg69duw",376,"84.csv","","null","resources/maskTrios/BBA2.jpg","null","",NA,NA,NA,NA,""
"image-keyboard-response",281,339461,"0.0-4.89-2.89","mpzxacpehg69duw",376,"84.csv","","null","resources/images/coin2.png","null","",NA,NA,NA,NA,""
"image-keyboard-response",282,339526,"0.0-4.90-0.90","mpzxacpehg69duw",376,"84.csv","","62.90000009536743","resources/trios/L4T4A2.jpg","39","restless",0.7,0.7,0.7,0.150450380057517,"true"
"image-keyboard-response",283,339943,"0.0-4.90-1.90","mpzxacpehg69duw",376,"84.csv","","null","resources/maskTrios/BBA2.jpg","null","",NA,NA,NA,NA,""
"image-keyboard-response",284,341156,"0.0-4.90-2.90","mpzxacpehg69duw",376,"84.csv","","null","resources/images/coin2.png","null","",NA,NA,NA,NA,""
"image-keyboard-response",285,342198,"0.0-4.91-0.91","mpzxacpehg69duw",376,"84.csv","","1039.5","resources/trios/L4T4A2.jpg","39","restless",0.7,0.7,0.7,0.571994537184274,"true"
"image-keyboard-response",286,342615,"0.0-4.91-1.91","mpzxacpehg69duw",376,"84.csv","","null","resources/maskTrios/BBA2.jpg","null","",NA,NA,NA,NA,""
"image-keyboard-response",287,343832,"0.0-4.91-2.91","mpzxacpehg69duw",376,"84.csv","","null","resources/images/coin2.png","null","",NA,NA,NA,NA,""
"image-keyboard-response",288,344083,"0.0-4.92-0.92","mpzxacpehg69duw",376,"84.csv","","248.70000004768372","resources/trios/L4T4A2.jpg","39","restless",0.7,0.7,0.6,0.187418016171637,"true"
"image-keyboard-response",289,344501,"0.0-4.92-1.92","mpzxacpehg69duw",376,"84.csv","","null","resources/maskTrios/BBA2.jpg","null","",NA,NA,NA,NA,""
"image-keyboard-response",290,345711,"0.0-4.92-2.92","mpzxacpehg69duw",376,"84.csv","","null","resources/images/coin2.png","null","",NA,NA,NA,NA,""
"image-keyboard-response",291,345772,"0.0-4.93-0.93","mpzxacpehg69duw",376,"84.csv","","59.10000002384186","resources/trios/L4T4A2.jpg","39","restless",0.7,0.7,0.6,0.0349009256620756,"true"
"image-keyboard-response",292,346191,"0.0-4.93-1.93","mpzxacpehg69duw",376,"84.csv","","null","resources/maskTrios/BBA2.jpg","null","",NA,NA,NA,NA,""
"image-keyboard-response",293,347404,"0.0-4.93-2.93","mpzxacpehg69duw",376,"84.csv","","null","resources/images/coin2.png","null","",NA,NA,NA,NA,""
"image-keyboard-response",294,347827,"0.0-4.94-0.94","mpzxacpehg69duw",376,"84.csv","","421","resources/trios/L4T4A2.jpg","39","restless",0.7,0.7,0.6,0.0367097648694938,"true"
"image-keyboard-response",295,348243,"0.0-4.94-1.94","mpzxacpehg69duw",376,"84.csv","","null","resources/maskTrios/BBA2.jpg","null","",NA,NA,NA,NA,""
"image-keyboard-response",296,349482,"0.0-4.94-2.94","mpzxacpehg69duw",376,"84.csv","","null","resources/images/coin2.png","null","",NA,NA,NA,NA,""
"image-keyboard-response",297,349485,"0.0-4.95-0.95","mpzxacpehg69duw",376,"84.csv","","1","resources/trios/L4T4A2.jpg","39","restless",0.7,0.7,0.6,0.314572888941451,"true"
"image-keyboard-response",298,349903,"0.0-4.95-1.95","mpzxacpehg69duw",376,"84.csv","","null","resources/maskTrios/BBA2.jpg","null","",NA,NA,NA,NA,""
"image-keyboard-response",299,351105,"0.0-4.95-2.95","mpzxacpehg69duw",376,"84.csv","","null","resources/images/coin2.png","null","",NA,NA,NA,NA,""
"image-keyboard-response",300,351469,"0.0-4.96-0.96","mpzxacpehg69duw",376,"84.csv","","361","resources/trios/L4T4A2.jpg","39","restless",0.7,0.7,0.6,0.507689284120393,"true"
"image-keyboard-response",301,351874,"0.0-4.96-1.96","mpzxacpehg69duw",376,"84.csv","","null","resources/maskTrios/BBA2.jpg","null","",NA,NA,NA,NA,""
"image-keyboard-response",302,353082,"0.0-4.96-2.96","mpzxacpehg69duw",376,"84.csv","","null","resources/images/coin2.png","null","",NA,NA,NA,NA,""
"image-keyboard-response",303,353142,"0.0-4.97-0.97","mpzxacpehg69duw",376,"84.csv","","57.800000071525574","resources/trios/L4T4A2.jpg","39","restless",0.7,0.7,0.6,0.984967037115959,"false"
"image-keyboard-response",304,353546,"0.0-4.97-1.97","mpzxacpehg69duw",376,"84.csv","","null","resources/maskTrios/BBA2.jpg","null","",NA,NA,NA,NA,""
"image-keyboard-response",305,354765,"0.0-4.97-2.97","mpzxacpehg69duw",376,"84.csv","","null","resources/images/fishbone.png","null","",NA,NA,NA,NA,""
"image-keyboard-response",306,355024,"0.0-4.98-0.98","mpzxacpehg69duw",376,"84.csv","","256.60000002384186","resources/trios/L4T4A2.jpg","38","restless",0.6,0.7,0.6,0.418803982509385,"true"
"image-keyboard-response",307,355431,"0.0-4.98-1.98","mpzxacpehg69duw",376,"84.csv","","null","resources/maskTrios/BT4B.jpg","null","",NA,NA,NA,NA,""
"image-keyboard-response",308,356636,"0.0-4.98-2.98","mpzxacpehg69duw",376,"84.csv","","null","resources/images/coin2.png","null","",NA,NA,NA,NA,""
"image-keyboard-response",309,356906,"0.0-4.99-0.99","mpzxacpehg69duw",376,"84.csv","","267.2999999523163","resources/trios/L4T4A2.jpg","38","restless",0.6,0.7,0.6,0.596329432703843,"true"
"image-keyboard-response",310,357318,"0.0-4.99-1.99","mpzxacpehg69duw",376,"84.csv","","null","resources/maskTrios/BT4B.jpg","null","",NA,NA,NA,NA,""
"image-keyboard-response",311,358521,"0.0-4.99-2.99","mpzxacpehg69duw",376,"84.csv","","null","resources/images/coin2.png","null","",NA,NA,NA,NA,""
"image-keyboard-response",312,358739,"0.0-4.100-0.100","mpzxacpehg69duw",376,"84.csv","","215.90000009536743","resources/trios/L4T4A2.jpg","38","restless",0.5,0.6,0.6,0.180177839650317,"true"
"image-keyboard-response",313,359143,"0.0-4.100-1.100","mpzxacpehg69duw",376,"84.csv","","null","resources/maskTrios/BT4B.jpg","null","",NA,NA,NA,NA,""
"image-keyboard-response",314,360359,"0.0-4.100-2.100","mpzxacpehg69duw",376,"84.csv","","null","resources/images/coin2.png","null","",NA,NA,NA,NA,""
"image-keyboard-response",315,360365,"0.0-4.101-0.101","mpzxacpehg69duw",376,"84.csv","","4.299999952316284","resources/trios/L4T4A2.jpg","38","restless",0.4,0.6,0.6,0.290175498630687,"true"
"image-keyboard-response",316,360772,"0.0-4.101-1.101","mpzxacpehg69duw",376,"84.csv","","null","resources/maskTrios/BT4B.jpg","null","",NA,NA,NA,NA,""
"image-keyboard-response",317,361991,"0.0-4.101-2.101","mpzxacpehg69duw",376,"84.csv","","null","resources/images/coin2.png","null","",NA,NA,NA,NA,""
"image-keyboard-response",318,362273,"0.0-4.102-0.102","mpzxacpehg69duw",376,"84.csv","","279.7999999523163","resources/trios/L4T4A2.jpg","38","restless",0.4,0.6,0.6,0.412103224377996,"true"
"image-keyboard-response",319,362678,"0.0-4.102-1.102","mpzxacpehg69duw",376,"84.csv","","null","resources/maskTrios/BT4B.jpg","null","",NA,NA,NA,NA,""
"image-keyboard-response",320,363880,"0.0-4.102-2.102","mpzxacpehg69duw",376,"84.csv","","null","resources/images/coin2.png","null","",NA,NA,NA,NA,""
"image-keyboard-response",321,364095,"0.0-4.103-0.103","mpzxacpehg69duw",376,"84.csv","","212.40000009536743","resources/trios/L4T4A2.jpg","38","restless",0.4,0.6,0.6,0.975306044528768,"false"
"image-keyboard-response",322,364510,"0.0-4.103-1.103","mpzxacpehg69duw",376,"84.csv","","null","resources/maskTrios/BT4B.jpg","null","",NA,NA,NA,NA,""
"image-keyboard-response",323,365731,"0.0-4.103-2.103","mpzxacpehg69duw",376,"84.csv","","null","resources/images/fishbone.png","null","",NA,NA,NA,NA,""
"image-keyboard-response",324,365874,"0.0-4.104-0.104","mpzxacpehg69duw",376,"84.csv","","140.19999992847443","resources/trios/L4T4A2.jpg","37","restless",0.4,0.6,0.6,0.515038048128552,"false"
"image-keyboard-response",325,366293,"0.0-4.104-1.104","mpzxacpehg69duw",376,"84.csv","","null","resources/maskTrios/L4BB.jpg","null","",NA,NA,NA,NA,""
"image-keyboard-response",326,367497,"0.0-4.104-2.104","mpzxacpehg69duw",376,"84.csv","","null","resources/images/fishbone.png","null","",NA,NA,NA,NA,""
"image-keyboard-response",327,368067,"0.0-4.105-0.105","mpzxacpehg69duw",376,"84.csv","","566.8000000715256","resources/trios/L4T4A2.jpg","39","restless",0.4,0.6,0.6,0.972165960933135,"false"
"image-keyboard-response",328,368481,"0.0-4.105-1.105","mpzxacpehg69duw",376,"84.csv","","null","resources/maskTrios/BBA2.jpg","null","",NA,NA,NA,NA,""
"image-keyboard-response",329,369693,"0.0-4.105-2.105","mpzxacpehg69duw",376,"84.csv","","null","resources/images/fishbone.png","null","",NA,NA,NA,NA,""
"image-keyboard-response",330,369837,"0.0-4.106-0.106","mpzxacpehg69duw",376,"84.csv","","142.40000009536743","resources/trios/L4T4A2.jpg","38","restless",0.4,0.6,0.5,0.651092421173367,"false"
"image-keyboard-response",331,370247,"0.0-4.106-1.106","mpzxacpehg69duw",376,"84.csv","","null","resources/maskTrios/BT4B.jpg","null","",NA,NA,NA,NA,""
"image-keyboard-response",332,371465,"0.0-4.106-2.106","mpzxacpehg69duw",376,"84.csv","","null","resources/images/fishbone.png","null","",NA,NA,NA,NA,""
"image-keyboard-response",333,371702,"0.0-4.107-0.107","mpzxacpehg69duw",376,"84.csv","","234.5","resources/trios/L4T4A2.jpg","38","restless",0.4,0.6,0.5,0.198064411184175,"true"
"image-keyboard-response",334,372107,"0.0-4.107-1.107","mpzxacpehg69duw",376,"84.csv","","null","resources/maskTrios/BT4B.jpg","null","",NA,NA,NA,NA,""
"image-keyboard-response",335,373326,"0.0-4.107-2.107","mpzxacpehg69duw",376,"84.csv","","null","resources/images/coin2.png","null","",NA,NA,NA,NA,""
"image-keyboard-response",336,373573,"0.0-4.108-0.108","mpzxacpehg69duw",376,"84.csv","","244.60000002384186","resources/trios/L4T4A2.jpg","38","restless",0.5,0.7,0.5,0.191095679810181,"true"
"image-keyboard-response",337,373978,"0.0-4.108-1.108","mpzxacpehg69duw",376,"84.csv","","null","resources/maskTrios/BT4B.jpg","null","",NA,NA,NA,NA,""
"image-keyboard-response",338,375189,"0.0-4.108-2.108","mpzxacpehg69duw",376,"84.csv","","null","resources/images/coin2.png","null","",NA,NA,NA,NA,""
"image-keyboard-response",339,375365,"0.0-4.109-0.109","mpzxacpehg69duw",376,"84.csv","","173.60000002384186","resources/trios/L4T4A2.jpg","38","restless",0.5,0.7,0.5,0.683798965095284,"true"
"image-keyboard-response",340,375773,"0.0-4.109-1.109","mpzxacpehg69duw",376,"84.csv","","null","resources/maskTrios/BT4B.jpg","null","",NA,NA,NA,NA,""
"image-keyboard-response",341,376978,"0.0-4.109-2.109","mpzxacpehg69duw",376,"84.csv","","null","resources/images/coin2.png","null","",NA,NA,NA,NA,""
"image-keyboard-response",342,377644,"0.0-4.110-0.110","mpzxacpehg69duw",376,"84.csv","","663.4000000953674","resources/trios/L4T4A2.jpg","38","restless",0.5,0.7,0.5,0.145727288984836,"true"
"image-keyboard-response",343,378062,"0.0-4.110-1.110","mpzxacpehg69duw",376,"84.csv","","null","resources/maskTrios/BT4B.jpg","null","",NA,NA,NA,NA,""
"image-keyboard-response",344,379276,"0.0-4.110-2.110","mpzxacpehg69duw",376,"84.csv","","null","resources/images/coin2.png","null","",NA,NA,NA,NA,""
"image-keyboard-response",345,379557,"0.0-4.111-0.111","mpzxacpehg69duw",376,"84.csv","","278.7999999523163","resources/trios/L4T4A2.jpg","38","restless",0.5,0.7,0.5,0.561570635164883,"true"
"image-keyboard-response",346,379972,"0.0-4.111-1.111","mpzxacpehg69duw",376,"84.csv","","null","resources/maskTrios/BT4B.jpg","null","",NA,NA,NA,NA,""
"image-keyboard-response",347,381181,"0.0-4.111-2.111","mpzxacpehg69duw",376,"84.csv","","null","resources/images/coin2.png","null","",NA,NA,NA,NA,""
"image-keyboard-response",348,381470,"0.0-4.112-0.112","mpzxacpehg69duw",376,"84.csv","","286.7000000476837","resources/trios/L4T4A2.jpg","38","restless",0.5,0.7,0.5,0.23944351411393,"true"
"image-keyboard-response",349,381879,"0.0-4.112-1.112","mpzxacpehg69duw",376,"84.csv","","null","resources/maskTrios/BT4B.jpg","null","",NA,NA,NA,NA,""
"image-keyboard-response",350,383115,"0.0-4.112-2.112","mpzxacpehg69duw",376,"84.csv","","null","resources/images/coin2.png","null","",NA,NA,NA,NA,""
"image-keyboard-response",351,383360,"0.0-4.113-0.113","mpzxacpehg69duw",376,"84.csv","","242.90000009536743","resources/trios/L4T4A2.jpg","38","restless",0.5,0.7,0.6,0.246173935888651,"true"
"image-keyboard-response",352,383774,"0.0-4.113-1.113","mpzxacpehg69duw",376,"84.csv","","null","resources/maskTrios/BT4B.jpg","null","",NA,NA,NA,NA,""
"image-keyboard-response",353,384982,"0.0-4.113-2.113","mpzxacpehg69duw",376,"84.csv","","null","resources/images/coin2.png","null","",NA,NA,NA,NA,""
"image-keyboard-response",354,385210,"0.0-4.114-0.114","mpzxacpehg69duw",376,"84.csv","","225.29999995231628","resources/trios/L4T4A2.jpg","38","restless",0.5,0.7,0.6,0.546990322427417,"true"
"image-keyboard-response",355,385614,"0.0-4.114-1.114","mpzxacpehg69duw",376,"84.csv","","null","resources/maskTrios/BT4B.jpg","null","",NA,NA,NA,NA,""
"image-keyboard-response",356,386823,"0.0-4.114-2.114","mpzxacpehg69duw",376,"84.csv","","null","resources/images/coin2.png","null","",NA,NA,NA,NA,""
"image-keyboard-response",357,387071,"0.0-4.115-0.115","mpzxacpehg69duw",376,"84.csv","","245.5","resources/trios/L4T4A2.jpg","38","restless",0.5,0.7,0.5,0.482687914210907,"true"
"image-keyboard-response",358,387482,"0.0-4.115-1.115","mpzxacpehg69duw",376,"84.csv","","null","resources/maskTrios/BT4B.jpg","null","",NA,NA,NA,NA,""
"image-keyboard-response",359,388720,"0.0-4.115-2.115","mpzxacpehg69duw",376,"84.csv","","null","resources/images/coin2.png","null","",NA,NA,NA,NA,""
"image-keyboard-response",360,388948,"0.0-4.116-0.116","mpzxacpehg69duw",376,"84.csv","","226.80000007152557","resources/trios/L4T4A2.jpg","38","restless",0.5,0.7,0.5,0.663224884336759,"true"
"image-keyboard-response",361,389358,"0.0-4.116-1.116","mpzxacpehg69duw",376,"84.csv","","null","resources/maskTrios/BT4B.jpg","null","",NA,NA,NA,NA,""
"image-keyboard-response",362,390574,"0.0-4.116-2.116","mpzxacpehg69duw",376,"84.csv","","null","resources/images/coin2.png","null","",NA,NA,NA,NA,""
"image-keyboard-response",363,390890,"0.0-4.117-0.117","mpzxacpehg69duw",376,"84.csv","","313.8000000715256","resources/trios/L4T4A2.jpg","38","restless",0.5,0.6,0.5,0.189788613853487,"true"
"image-keyboard-response",364,391294,"0.0-4.117-1.117","mpzxacpehg69duw",376,"84.csv","","null","resources/maskTrios/BT4B.jpg","null","",NA,NA,NA,NA,""
"image-keyboard-response",365,392502,"0.0-4.117-2.117","mpzxacpehg69duw",376,"84.csv","","null","resources/images/coin2.png","null","",NA,NA,NA,NA,""
"image-keyboard-response",366,392638,"0.0-4.118-0.118","mpzxacpehg69duw",376,"84.csv","","133.39999997615814","resources/trios/L4T4A2.jpg","38","restless",0.5,0.6,0.5,0.0414270724206189,"true"
"image-keyboard-response",367,393046,"0.0-4.118-1.118","mpzxacpehg69duw",376,"84.csv","","null","resources/maskTrios/BT4B.jpg","null","",NA,NA,NA,NA,""
"image-keyboard-response",368,394268,"0.0-4.118-2.118","mpzxacpehg69duw",376,"84.csv","","null","resources/images/coin2.png","null","",NA,NA,NA,NA,""
"image-keyboard-response",369,394525,"0.0-4.119-0.119","mpzxacpehg69duw",376,"84.csv","","254.60000002384186","resources/trios/L4T4A2.jpg","38","restless",0.5,0.5,0.4,0.211293778665538,"true"
"image-keyboard-response",370,394932,"0.0-4.119-1.119","mpzxacpehg69duw",376,"84.csv","","null","resources/maskTrios/BT4B.jpg","null","",NA,NA,NA,NA,""
"image-keyboard-response",371,396144,"0.0-4.119-2.119","mpzxacpehg69duw",376,"84.csv","","null","resources/images/coin2.png","null","",NA,NA,NA,NA,""
"image-keyboard-response",372,396386,"0.0-4.120-0.120","mpzxacpehg69duw",376,"84.csv","","239.39999997615814","resources/trios/L4T4A2.jpg","38","restless",0.6,0.5,0.4,0.22238993210825,"true"
"image-keyboard-response",373,396801,"0.0-4.120-1.120","mpzxacpehg69duw",376,"84.csv","","null","resources/maskTrios/BT4B.jpg","null","",NA,NA,NA,NA,""
"image-keyboard-response",374,398020,"0.0-4.120-2.120","mpzxacpehg69duw",376,"84.csv","","null","resources/images/coin2.png","null","",NA,NA,NA,NA,""
"image-keyboard-response",375,398197,"0.0-4.121-0.121","mpzxacpehg69duw",376,"84.csv","","174.70000004768372","resources/trios/L4T4A2.jpg","38","restless",0.6,0.5,0.4,0.112280679217542,"true"
"image-keyboard-response",376,398608,"0.0-4.121-1.121","mpzxacpehg69duw",376,"84.csv","","null","resources/maskTrios/BT4B.jpg","null","",NA,NA,NA,NA,""
"image-keyboard-response",377,399851,"0.0-4.121-2.121","mpzxacpehg69duw",376,"84.csv","","null","resources/images/coin2.png","null","",NA,NA,NA,NA,""
"image-keyboard-response",378,399958,"0.0-4.122-0.122","mpzxacpehg69duw",376,"84.csv","","104.70000004768372","resources/trios/L4T4A2.jpg","38","restless",0.6,0.5,0.4,0.633526236068067,"false"
"image-keyboard-response",379,400378,"0.0-4.122-1.122","mpzxacpehg69duw",376,"84.csv","","null","resources/maskTrios/BT4B.jpg","null","",NA,NA,NA,NA,""
"image-keyboard-response",380,401582,"0.0-4.122-2.122","mpzxacpehg69duw",376,"84.csv","","null","resources/images/fishbone.png","null","",NA,NA,NA,NA,""
"image-keyboard-response",381,401904,"0.0-4.123-0.123","mpzxacpehg69duw",376,"84.csv","","319.5","resources/trios/L4T4A2.jpg","39","restless",0.6,0.5,0.4,0.804384598374837,"false"
"image-keyboard-response",382,402317,"0.0-4.123-1.123","mpzxacpehg69duw",376,"84.csv","","null","resources/maskTrios/BBA2.jpg","null","",NA,NA,NA,NA,""
"image-keyboard-response",383,403521,"0.0-4.123-2.123","mpzxacpehg69duw",376,"84.csv","","null","resources/images/fishbone.png","null","",NA,NA,NA,NA,""
"image-keyboard-response",384,403895,"0.0-4.124-0.124","mpzxacpehg69duw",376,"84.csv","","371.5","resources/trios/L4T4A2.jpg","38","restless",0.7,0.5,0.4,0.166410045167273,"true"
"image-keyboard-response",385,404302,"0.0-4.124-1.124","mpzxacpehg69duw",376,"84.csv","","null","resources/maskTrios/BT4B.jpg","null","",NA,NA,NA,NA,""
"image-keyboard-response",386,405525,"0.0-4.124-2.124","mpzxacpehg69duw",376,"84.csv","","null","resources/images/coin2.png","null","",NA,NA,NA,NA,""
"image-keyboard-response",387,405631,"0.0-4.125-0.125","mpzxacpehg69duw",376,"84.csv","","104.10000002384186","resources/trios/L4T4A2.jpg","38","restless",0.7,0.5,0.4,0.968335832729938,"false"
"image-keyboard-response",388,406035,"0.0-4.125-1.125","mpzxacpehg69duw",376,"84.csv","","null","resources/maskTrios/BT4B.jpg","null","",NA,NA,NA,NA,""
"image-keyboard-response",389,407243,"0.0-4.125-2.125","mpzxacpehg69duw",376,"84.csv","","null","resources/images/fishbone.png","null","",NA,NA,NA,NA,""
"image-keyboard-response",390,407492,"0.0-4.126-0.126","mpzxacpehg69duw",376,"84.csv","","247.20000004768372","resources/trios/L4T4A2.jpg","38","restless",0.7,0.5,0.4,0.0433270789627962,"true"
"image-keyboard-response",391,407895,"0.0-4.126-1.126","mpzxacpehg69duw",376,"84.csv","","null","resources/maskTrios/BT4B.jpg","null","",NA,NA,NA,NA,""
"image-keyboard-response",392,409111,"0.0-4.126-2.126","mpzxacpehg69duw",376,"84.csv","","null","resources/images/coin2.png","null","",NA,NA,NA,NA,""
"image-keyboard-response",393,409185,"0.0-4.127-0.127","mpzxacpehg69duw",376,"84.csv","","71.10000002384186","resources/trios/L4T4A2.jpg","38","restless",0.7,0.5,0.4,0.574316598686305,"false"
"image-keyboard-response",394,409591,"0.0-4.127-1.127","mpzxacpehg69duw",376,"84.csv","","null","resources/maskTrios/BT4B.jpg","null","",NA,NA,NA,NA,""
"image-keyboard-response",395,410820,"0.0-4.127-2.127","mpzxacpehg69duw",376,"84.csv","","null","resources/images/fishbone.png","null","",NA,NA,NA,NA,""
"image-keyboard-response",396,411053,"0.0-4.128-0.128","mpzxacpehg69duw",376,"84.csv","","230.80000007152557","resources/trios/L4T4A2.jpg","38","restless",0.7,0.5,0.4,0.57564773310997,"false"
"image-keyboard-response",397,411467,"0.0-4.128-1.128","mpzxacpehg69duw",376,"84.csv","","null","resources/maskTrios/BT4B.jpg","null","",NA,NA,NA,NA,""
"image-keyboard-response",398,412684,"0.0-4.128-2.128","mpzxacpehg69duw",376,"84.csv","","null","resources/images/fishbone.png","null","",NA,NA,NA,NA,""
"image-keyboard-response",399,412914,"0.0-4.129-0.129","mpzxacpehg69duw",376,"84.csv","","227.30000007152557","resources/trios/L4T4A2.jpg","37","restless",0.8,0.5,0.4,0.871917611142621,"false"
"image-keyboard-response",400,413327,"0.0-4.129-1.129","mpzxacpehg69duw",376,"84.csv","","null","resources/maskTrios/L4BB.jpg","null","",NA,NA,NA,NA,""
"image-keyboard-response",401,414544,"0.0-4.129-2.129","mpzxacpehg69duw",376,"84.csv","","null","resources/images/fishbone.png","null","",NA,NA,NA,NA,""
"image-keyboard-response",402,414548,"0.0-4.130-0.130","mpzxacpehg69duw",376,"84.csv","","0.6000000238418579","resources/trios/L4T4A2.jpg","38","restless",0.8,0.5,0.4,0.96100332606129,"false"
"image-keyboard-response",403,414963,"0.0-4.130-1.130","mpzxacpehg69duw",376,"84.csv","","null","resources/maskTrios/BT4B.jpg","null","",NA,NA,NA,NA,""
"image-keyboard-response",404,416202,"0.0-4.130-2.130","mpzxacpehg69duw",376,"84.csv","","null","resources/images/fishbone.png","null","",NA,NA,NA,NA,""
"image-keyboard-response",405,416440,"0.0-4.131-0.131","mpzxacpehg69duw",376,"84.csv","","235","resources/trios/L4T4A2.jpg","38","restless",0.8,0.5,0.4,0.929080529501754,"false"
"image-keyboard-response",406,416851,"0.0-4.131-1.131","mpzxacpehg69duw",376,"84.csv","","null","resources/maskTrios/BT4B.jpg","null","",NA,NA,NA,NA,""
"image-keyboard-response",407,418059,"0.0-4.131-2.131","mpzxacpehg69duw",376,"84.csv","","null","resources/images/fishbone.png","null","",NA,NA,NA,NA,""
"image-keyboard-response",408,418297,"0.0-4.132-0.132","mpzxacpehg69duw",376,"84.csv","","236.10000002384186","resources/trios/L4T4A2.jpg","38","restless",0.8,0.5,0.4,0.355660305704705,"true"
"image-keyboard-response",409,418715,"0.0-4.132-1.132","mpzxacpehg69duw",376,"84.csv","","null","resources/maskTrios/BT4B.jpg","null","",NA,NA,NA,NA,""
"image-keyboard-response",410,419922,"0.0-4.132-2.132","mpzxacpehg69duw",376,"84.csv","","null","resources/images/coin2.png","null","",NA,NA,NA,NA,""
"image-keyboard-response",411,420215,"0.0-4.133-0.133","mpzxacpehg69duw",376,"84.csv","","290.6999999284744","resources/trios/L4T4A2.jpg","38","restless",0.8,0.5,0.4,0.839402042186054,"false"
"image-keyboard-response",412,420629,"0.0-4.133-1.133","mpzxacpehg69duw",376,"84.csv","","null","resources/maskTrios/BT4B.jpg","null","",NA,NA,NA,NA,""
"image-keyboard-response",413,421841,"0.0-4.133-2.133","mpzxacpehg69duw",376,"84.csv","","null","resources/images/fishbone.png","null","",NA,NA,NA,NA,""
"image-keyboard-response",414,422060,"0.0-4.134-0.134","mpzxacpehg69duw",376,"84.csv","","217.69999992847443","resources/trios/L4T4A2.jpg","38","restless",0.8,0.5,0.4,0.11693540422189,"true"
"image-keyboard-response",415,422464,"0.0-4.134-1.134","mpzxacpehg69duw",376,"84.csv","","null","resources/maskTrios/BT4B.jpg","null","",NA,NA,NA,NA,""
"image-keyboard-response",416,423683,"0.0-4.134-2.134","mpzxacpehg69duw",376,"84.csv","","null","resources/images/coin2.png","null","",NA,NA,NA,NA,""
"image-keyboard-response",417,424188,"0.0-4.135-0.135","mpzxacpehg69duw",376,"84.csv","","502.2000000476837","resources/trios/L4T4A2.jpg","38","restless",0.7,0.5,0.4,0.0894819142842438,"true"
"image-keyboard-response",418,424602,"0.0-4.135-1.135","mpzxacpehg69duw",376,"84.csv","","null","resources/maskTrios/BT4B.jpg","null","",NA,NA,NA,NA,""
"image-keyboard-response",419,425818,"0.0-4.135-2.135","mpzxacpehg69duw",376,"84.csv","","null","resources/images/coin2.png","null","",NA,NA,NA,NA,""
"image-keyboard-response",420,425944,"0.0-4.136-0.136","mpzxacpehg69duw",376,"84.csv","","123.60000002384186","resources/trios/L4T4A2.jpg","38","restless",0.7,0.5,0.4,0.116714036740436,"true"
"image-keyboard-response",421,426352,"0.0-4.136-1.136","mpzxacpehg69duw",376,"84.csv","","null","resources/maskTrios/BT4B.jpg","null","",NA,NA,NA,NA,""
"image-keyboard-response",422,427564,"0.0-4.136-2.136","mpzxacpehg69duw",376,"84.csv","","null","resources/images/coin2.png","null","",NA,NA,NA,NA,""
"image-keyboard-response",423,427634,"0.0-4.137-0.137","mpzxacpehg69duw",376,"84.csv","","68","resources/trios/L4T4A2.jpg","38","restless",0.7,0.5,0.4,0.778773418923673,"false"
"image-keyboard-response",424,428042,"0.0-4.137-1.137","mpzxacpehg69duw",376,"84.csv","","null","resources/maskTrios/BT4B.jpg","null","",NA,NA,NA,NA,""
"image-keyboard-response",425,429256,"0.0-4.137-2.137","mpzxacpehg69duw",376,"84.csv","","null","resources/images/fishbone.png","null","",NA,NA,NA,NA,""
"image-keyboard-response",426,429292,"0.0-4.138-0.138","mpzxacpehg69duw",376,"84.csv","","34.299999952316284","resources/trios/L4T4A2.jpg","38","restless",0.7,0.5,0.4,0.876382743867805,"false"
"image-keyboard-response",427,429711,"0.0-4.138-1.138","mpzxacpehg69duw",376,"84.csv","","null","resources/maskTrios/BT4B.jpg","null","",NA,NA,NA,NA,""
"image-keyboard-response",428,430924,"0.0-4.138-2.138","mpzxacpehg69duw",376,"84.csv","","null","resources/images/fishbone.png","null","",NA,NA,NA,NA,""
"image-keyboard-response",429,431120,"0.0-4.139-0.139","mpzxacpehg69duw",376,"84.csv","","193.60000002384186","resources/trios/L4T4A2.jpg","39","restless",0.7,0.5,0.3,0.137064576264092,"true"
"image-keyboard-response",430,431535,"0.0-4.139-1.139","mpzxacpehg69duw",376,"84.csv","","null","resources/maskTrios/BBA2.jpg","null","",NA,NA,NA,NA,""
"image-keyboard-response",431,432753,"0.0-4.139-2.139","mpzxacpehg69duw",376,"84.csv","","null","resources/images/coin2.png","null","",NA,NA,NA,NA,""
"image-keyboard-response",432,432966,"0.0-4.140-0.140","mpzxacpehg69duw",376,"84.csv","","210.5","resources/trios/L4T4A2.jpg","39","restless",0.7,0.5,0.3,0.73705438365227,"false"
"image-keyboard-response",433,433372,"0.0-4.140-1.140","mpzxacpehg69duw",376,"84.csv","","null","resources/maskTrios/BBA2.jpg","null","",NA,NA,NA,NA,""
"image-keyboard-response",434,434575,"0.0-4.140-2.140","mpzxacpehg69duw",376,"84.csv","","null","resources/images/fishbone.png","null","",NA,NA,NA,NA,""
"image-keyboard-response",435,434626,"0.0-4.141-0.141","mpzxacpehg69duw",376,"84.csv","","49.299999952316284","resources/trios/L4T4A2.jpg","38","restless",0.7,0.5,0.3,0.892448547887309,"false"
"image-keyboard-response",436,435041,"0.0-4.141-1.141","mpzxacpehg69duw",376,"84.csv","","null","resources/maskTrios/BT4B.jpg","null","",NA,NA,NA,NA,""
"image-keyboard-response",437,436255,"0.0-4.141-2.141","mpzxacpehg69duw",376,"84.csv","","null","resources/images/fishbone.png","null","",NA,NA,NA,NA,""
"image-keyboard-response",438,437090,"0.0-4.142-0.142","mpzxacpehg69duw",376,"84.csv","","832.6000000238419","resources/trios/L4T4A2.jpg","37","restless",0.6,0.5,0.3,0.931113007140445,"false"
"image-keyboard-response",439,437494,"0.0-4.142-1.142","mpzxacpehg69duw",376,"84.csv","","null","resources/maskTrios/L4BB.jpg","null","",NA,NA,NA,NA,""
"image-keyboard-response",440,438722,"0.0-4.142-2.142","mpzxacpehg69duw",376,"84.csv","","null","resources/images/fishbone.png","null","",NA,NA,NA,NA,""
"image-keyboard-response",441,438859,"0.0-4.143-0.143","mpzxacpehg69duw",376,"84.csv","","134.19999992847443","resources/trios/L4T4A2.jpg","38","restless",0.6,0.5,0.3,0.893883678385057,"false"
"image-keyboard-response",442,439265,"0.0-4.143-1.143","mpzxacpehg69duw",376,"84.csv","","null","resources/maskTrios/BT4B.jpg","null","",NA,NA,NA,NA,""
"image-keyboard-response",443,440474,"0.0-4.143-2.143","mpzxacpehg69duw",376,"84.csv","","null","resources/images/fishbone.png","null","",NA,NA,NA,NA,""
"image-keyboard-response",444,440760,"0.0-4.144-0.144","mpzxacpehg69duw",376,"84.csv","","283.7000000476837","resources/trios/L4T4A2.jpg","38","restless",0.6,0.5,0.3,0.137008768950257,"true"
"image-keyboard-response",445,441174,"0.0-4.144-1.144","mpzxacpehg69duw",376,"84.csv","","null","resources/maskTrios/BT4B.jpg","null","",NA,NA,NA,NA,""
"image-keyboard-response",446,442391,"0.0-4.144-2.144","mpzxacpehg69duw",376,"84.csv","","null","resources/images/coin2.png","null","",NA,NA,NA,NA,""
"image-keyboard-response",447,443548,"0.0-4.145-0.145","mpzxacpehg69duw",376,"84.csv","","1154.2000000476837","resources/trios/L4T4A2.jpg","38","restless",0.6,0.5,0.3,0.773162576825268,"false"
"image-keyboard-response",448,443972,"0.0-4.145-1.145","mpzxacpehg69duw",376,"84.csv","","null","resources/maskTrios/BT4B.jpg","null","",NA,NA,NA,NA,""
"image-keyboard-response",449,445199,"0.0-4.145-2.145","mpzxacpehg69duw",376,"84.csv","","null","resources/images/fishbone.png","null","",NA,NA,NA,NA,""
"image-keyboard-response",450,445292,"0.0-4.146-0.146","mpzxacpehg69duw",376,"84.csv","","91","resources/trios/L4T4A2.jpg","38","restless",0.6,0.5,0.3,0.309156698009304,"true"
"image-keyboard-response",451,445703,"0.0-4.146-1.146","mpzxacpehg69duw",376,"84.csv","","null","resources/maskTrios/BT4B.jpg","null","",NA,NA,NA,NA,""
"image-keyboard-response",452,446911,"0.0-4.146-2.146","mpzxacpehg69duw",376,"84.csv","","null","resources/images/coin2.png","null","",NA,NA,NA,NA,""
"image-keyboard-response",453,447305,"0.0-4.147-0.147","mpzxacpehg69duw",376,"84.csv","","392.10000002384186","resources/trios/L4T4A2.jpg","38","restless",0.6,0.5,0.3,0.879450876596068,"false"
"image-keyboard-response",454,447718,"0.0-4.147-1.147","mpzxacpehg69duw",376,"84.csv","","null","resources/maskTrios/BT4B.jpg","null","",NA,NA,NA,NA,""
"image-keyboard-response",455,448926,"0.0-4.147-2.147","mpzxacpehg69duw",376,"84.csv","","null","resources/images/fishbone.png","null","",NA,NA,NA,NA,""
"image-keyboard-response",456,448964,"0.0-4.148-0.148","mpzxacpehg69duw",376,"84.csv","","35.200000047683716","resources/trios/L4T4A2.jpg","38","restless",0.6,0.5,0.3,0.433598780033828,"true"
"image-keyboard-response",457,449383,"0.0-4.148-1.148","mpzxacpehg69duw",376,"84.csv","","null","resources/maskTrios/BT4B.jpg","null","",NA,NA,NA,NA,""
"image-keyboard-response",458,450613,"0.0-4.148-2.148","mpzxacpehg69duw",376,"84.csv","","null","resources/images/coin2.png","null","",NA,NA,NA,NA,""
"image-keyboard-response",459,451586,"0.0-4.149-0.149","mpzxacpehg69duw",376,"84.csv","","970.8999999761581","resources/trios/L4T4A2.jpg","38","restless",0.6,0.5,0.3,0.598459885432326,"false"
"image-keyboard-response",460,452001,"0.0-4.149-1.149","mpzxacpehg69duw",376,"84.csv","","null","resources/maskTrios/BT4B.jpg","null","",NA,NA,NA,NA,""
"image-keyboard-response",461,453205,"0.0-4.149-2.149","mpzxacpehg69duw",376,"84.csv","","null","resources/images/fishbone.png","null","",NA,NA,NA,NA,""
"image-keyboard-response",462,453469,"0.0-4.150-0.150","mpzxacpehg69duw",376,"84.csv","","261.5","resources/trios/L4T4A2.jpg","38","restless",0.6,0.5,0.3,0.936245091216762,"false"
"image-keyboard-response",463,453882,"0.0-4.150-1.150","mpzxacpehg69duw",376,"84.csv","","null","resources/maskTrios/BT4B.jpg","null","",NA,NA,NA,NA,""
"image-keyboard-response",464,455097,"0.0-4.150-2.150","mpzxacpehg69duw",376,"84.csv","","null","resources/images/fishbone.png","null","",NA,NA,NA,NA,""
"image-keyboard-response",465,455419,"0.0-4.151-0.151","mpzxacpehg69duw",376,"84.csv","","319","resources/trios/L4T4A2.jpg","39","restless",0.6,0.5,0.3,0.359441255500364,"false"
"image-keyboard-response",466,455823,"0.0-4.151-1.151","mpzxacpehg69duw",376,"84.csv","","null","resources/maskTrios/BBA2.jpg","null","",NA,NA,NA,NA,""
"image-keyboard-response",467,457061,"0.0-4.151-2.151","mpzxacpehg69duw",376,"84.csv","","null","resources/images/fishbone.png","null","",NA,NA,NA,NA,""
"image-keyboard-response",468,457210,"0.0-4.152-0.152","mpzxacpehg69duw",376,"84.csv","","147.10000002384186","resources/trios/L4T4A2.jpg","39","restless",0.6,0.5,0.3,0.247822902990502,"true"
"image-keyboard-response",469,457627,"0.0-4.152-1.152","mpzxacpehg69duw",376,"84.csv","","null","resources/maskTrios/BBA2.jpg","null","",NA,NA,NA,NA,""
"image-keyboard-response",470,458844,"0.0-4.152-2.152","mpzxacpehg69duw",376,"84.csv","","null","resources/images/coin2.png","null","",NA,NA,NA,NA,""
"image-keyboard-response",471,459053,"0.0-4.153-0.153","mpzxacpehg69duw",376,"84.csv","","206.5","resources/trios/L4T4A2.jpg","39","restless",0.5,0.5,0.3,0.569082213809334,"false"
"image-keyboard-response",472,459466,"0.0-4.153-1.153","mpzxacpehg69duw",376,"84.csv","","null","resources/maskTrios/BBA2.jpg","null","",NA,NA,NA,NA,""
"image-keyboard-response",473,460680,"0.0-4.153-2.153","mpzxacpehg69duw",376,"84.csv","","null","resources/images/fishbone.png","null","",NA,NA,NA,NA,""
"image-keyboard-response",474,460943,"0.0-4.154-0.154","mpzxacpehg69duw",376,"84.csv","","260.1999999284744","resources/trios/L4T4A2.jpg","39","restless",0.5,0.6,0.3,0.401260658734511,"false"
"image-keyboard-response",475,461354,"0.0-4.154-1.154","mpzxacpehg69duw",376,"84.csv","","null","resources/maskTrios/BBA2.jpg","null","",NA,NA,NA,NA,""
"image-keyboard-response",476,462583,"0.0-4.154-2.154","mpzxacpehg69duw",376,"84.csv","","null","resources/images/fishbone.png","null","",NA,NA,NA,NA,""
"image-keyboard-response",477,462636,"0.0-4.155-0.155","mpzxacpehg69duw",376,"84.csv","","50.5","resources/trios/L4T4A2.jpg","37","restless",0.5,0.6,0.3,0.37658244029303,"true"
"image-keyboard-response",478,463053,"0.0-4.155-1.155","mpzxacpehg69duw",376,"84.csv","","null","resources/maskTrios/L4BB.jpg","null","",NA,NA,NA,NA,""
"image-keyboard-response",479,464273,"0.0-4.155-2.155","mpzxacpehg69duw",376,"84.csv","","null","resources/images/coin2.png","null","",NA,NA,NA,NA,""
"image-keyboard-response",480,464462,"0.0-4.156-0.156","mpzxacpehg69duw",376,"84.csv","","187.19999992847443","resources/trios/L4T4A2.jpg","37","restless",0.5,0.6,0.3,0.96738094940863,"false"
"image-keyboard-response",481,464868,"0.0-4.156-1.156","mpzxacpehg69duw",376,"84.csv","","null","resources/maskTrios/L4BB.jpg","null","",NA,NA,NA,NA,""
"image-keyboard-response",482,466078,"0.0-4.156-2.156","mpzxacpehg69duw",376,"84.csv","","null","resources/images/fishbone.png","null","",NA,NA,NA,NA,""
"image-keyboard-response",483,466364,"0.0-4.157-0.157","mpzxacpehg69duw",376,"84.csv","","283.60000002384186","resources/trios/L4T4A2.jpg","38","restless",0.5,0.6,0.3,0.521031778046244,"true"
"image-keyboard-response",484,466781,"0.0-4.157-1.157","mpzxacpehg69duw",376,"84.csv","","null","resources/maskTrios/BT4B.jpg","null","",NA,NA,NA,NA,""
"image-keyboard-response",485,468012,"0.0-4.157-2.157","mpzxacpehg69duw",376,"84.csv","","null","resources/images/coin2.png","null","",NA,NA,NA,NA,""
"image-keyboard-response",486,468238,"0.0-4.158-0.158","mpzxacpehg69duw",376,"84.csv","","224.30000007152557","resources/trios/L4T4A2.jpg","39","restless",0.4,0.6,0.3,0.123204924108826,"true"
"image-keyboard-response",487,468641,"0.0-4.158-1.158","mpzxacpehg69duw",376,"84.csv","","null","resources/maskTrios/BBA2.jpg","null","",NA,NA,NA,NA,""
"image-keyboard-response",488,469855,"0.0-4.158-2.158","mpzxacpehg69duw",376,"84.csv","","null","resources/images/coin2.png","null","",NA,NA,NA,NA,""
"image-keyboard-response",489,470091,"0.0-4.159-0.159","mpzxacpehg69duw",376,"84.csv","","232.69999992847443","resources/trios/L4T4A2.jpg","37","restless",0.4,0.6,0.3,0.0548268573359101,"true"
"image-keyboard-response",490,470505,"0.0-4.159-1.159","mpzxacpehg69duw",376,"84.csv","","null","resources/maskTrios/L4BB.jpg","null","",NA,NA,NA,NA,""
"image-keyboard-response",491,471707,"0.0-4.159-2.159","mpzxacpehg69duw",376,"84.csv","","null","resources/images/coin2.png","null","",NA,NA,NA,NA,""
"image-keyboard-response",492,471893,"0.0-4.160-0.160","mpzxacpehg69duw",376,"84.csv","","183.09999990463257","resources/trios/L4T4A2.jpg","38","restless",0.4,0.6,0.3,0.331339660593481,"true"
"image-keyboard-response",493,472298,"0.0-4.160-1.160","mpzxacpehg69duw",376,"84.csv","","null","resources/maskTrios/BT4B.jpg","null","",NA,NA,NA,NA,""
"image-keyboard-response",494,473512,"0.0-4.160-2.160","mpzxacpehg69duw",376,"84.csv","","null","resources/images/coin2.png","null","",NA,NA,NA,NA,""
"image-keyboard-response",495,473746,"0.0-4.161-0.161","mpzxacpehg69duw",376,"84.csv","","232.40000009536743","resources/trios/L4T4A2.jpg","39","restless",0.4,0.6,0.3,0.112788826782878,"true"
"image-keyboard-response",496,474162,"0.0-4.161-1.161","mpzxacpehg69duw",376,"84.csv","","null","resources/maskTrios/BBA2.jpg","null","",NA,NA,NA,NA,""
"image-keyboard-response",497,475373,"0.0-4.161-2.161","mpzxacpehg69duw",376,"84.csv","","null","resources/images/coin2.png","null","",NA,NA,NA,NA,""
"image-keyboard-response",498,475526,"0.0-4.162-0.162","mpzxacpehg69duw",376,"84.csv","","151.19999992847443","resources/trios/L4T4A2.jpg","37","restless",0.4,0.6,0.3,0.657252263759058,"false"
"image-keyboard-response",499,475935,"0.0-4.162-1.162","mpzxacpehg69duw",376,"84.csv","","null","resources/maskTrios/L4BB.jpg","null","",NA,NA,NA,NA,""
"image-keyboard-response",500,477153,"0.0-4.162-2.162","mpzxacpehg69duw",376,"84.csv","","null","resources/images/fishbone.png","null","",NA,NA,NA,NA,""
"image-keyboard-response",501,477742,"0.0-4.163-0.163","mpzxacpehg69duw",376,"84.csv","","587.5999999046326","resources/trios/L4T4A2.jpg","38","restless",0.5,0.6,0.3,0.508148641638059,"true"
"image-keyboard-response",502,478153,"0.0-4.163-1.163","mpzxacpehg69duw",376,"84.csv","","null","resources/maskTrios/BT4B.jpg","null","",NA,NA,NA,NA,""
"image-keyboard-response",503,479370,"0.0-4.163-2.163","mpzxacpehg69duw",376,"84.csv","","null","resources/images/coin2.png","null","",NA,NA,NA,NA,""
"image-keyboard-response",504,479547,"0.0-4.164-0.164","mpzxacpehg69duw",376,"84.csv","","174.89999997615814","resources/trios/L4T4A2.jpg","38","restless",0.5,0.6,0.3,0.886858646159101,"false"
"image-keyboard-response",505,479959,"0.0-4.164-1.164","mpzxacpehg69duw",376,"84.csv","","null","resources/maskTrios/BT4B.jpg","null","",NA,NA,NA,NA,""
"image-keyboard-response",506,481162,"0.0-4.164-2.164","mpzxacpehg69duw",376,"84.csv","","null","resources/images/fishbone.png","null","",NA,NA,NA,NA,""
"image-keyboard-response",507,481528,"0.0-4.165-0.165","mpzxacpehg69duw",376,"84.csv","","364.09999990463257","resources/trios/L4T4A2.jpg","37","restless",0.5,0.7,0.3,0.556943684141741,"false"
"image-keyboard-response",508,481945,"0.0-4.165-1.165","mpzxacpehg69duw",376,"84.csv","","null","resources/maskTrios/L4BB.jpg","null","",NA,NA,NA,NA,""
"image-keyboard-response",509,483151,"0.0-4.165-2.165","mpzxacpehg69duw",376,"84.csv","","null","resources/images/fishbone.png","null","",NA,NA,NA,NA,""
"image-keyboard-response",510,483320,"0.0-4.166-0.166","mpzxacpehg69duw",376,"84.csv","","166.89999997615814","resources/trios/L4T4A2.jpg","38","restless",0.5,0.7,0.3,0.365726247845906,"true"
"image-keyboard-response",511,483740,"0.0-4.166-1.166","mpzxacpehg69duw",376,"84.csv","","null","resources/maskTrios/BT4B.jpg","null","",NA,NA,NA,NA,""
"image-keyboard-response",512,484954,"0.0-4.166-2.166","mpzxacpehg69duw",376,"84.csv","","null","resources/images/coin2.png","null","",NA,NA,NA,NA,""
"image-keyboard-response",513,485213,"0.0-4.167-0.167","mpzxacpehg69duw",376,"84.csv","","256","resources/trios/L4T4A2.jpg","39","restless",0.5,0.7,0.2,0.127133485569354,"true"
"image-keyboard-response",514,485629,"0.0-4.167-1.167","mpzxacpehg69duw",376,"84.csv","","null","resources/maskTrios/BBA2.jpg","null","",NA,NA,NA,NA,""
"image-keyboard-response",515,486837,"0.0-4.167-2.167","mpzxacpehg69duw",376,"84.csv","","null","resources/images/coin2.png","null","",NA,NA,NA,NA,""
"image-keyboard-response",516,487257,"0.0-4.168-0.168","mpzxacpehg69duw",376,"84.csv","","417.2999999523163","resources/trios/L4T4A2.jpg","37","restless",0.5,0.7,0.2,0.866921022646677,"false"
"image-keyboard-response",517,487664,"0.0-4.168-1.168","mpzxacpehg69duw",376,"84.csv","","null","resources/maskTrios/L4BB.jpg","null","",NA,NA,NA,NA,""
"image-keyboard-response",518,488881,"0.0-4.168-2.168","mpzxacpehg69duw",376,"84.csv","","null","resources/images/fishbone.png","null","",NA,NA,NA,NA,""
"image-keyboard-response",519,489553,"0.0-4.169-0.169","mpzxacpehg69duw",376,"84.csv","","669.3999999761581","resources/trios/L4T4A2.jpg","39","restless",0.5,0.7,0.2,0.886996434839961,"false"
"image-keyboard-response",520,489964,"0.0-4.169-1.169","mpzxacpehg69duw",376,"84.csv","","null","resources/maskTrios/BBA2.jpg","null","",NA,NA,NA,NA,""
"image-keyboard-response",521,491195,"0.0-4.169-2.169","mpzxacpehg69duw",376,"84.csv","","null","resources/images/fishbone.png","null","",NA,NA,NA,NA,""
"image-keyboard-response",522,491506,"0.0-4.170-0.170","mpzxacpehg69duw",376,"84.csv","","308.60000002384186","resources/trios/L4T4A2.jpg","38","restless",0.5,0.7,0.2,0.931772733735928,"false"
"image-keyboard-response",523,491919,"0.0-4.170-1.170","mpzxacpehg69duw",376,"84.csv","","null","resources/maskTrios/BT4B.jpg","null","",NA,NA,NA,NA,""
"image-keyboard-response",524,493137,"0.0-4.170-2.170","mpzxacpehg69duw",376,"84.csv","","null","resources/images/fishbone.png","null","",NA,NA,NA,NA,""
"image-keyboard-response",525,493399,"0.0-4.171-0.171","mpzxacpehg69duw",376,"84.csv","","259.10000002384186","resources/trios/L4T4A2.jpg","38","restless",0.5,0.7,0.2,0.221978674729479,"true"
"image-keyboard-response",526,493816,"0.0-4.171-1.171","mpzxacpehg69duw",376,"84.csv","","null","resources/maskTrios/BT4B.jpg","null","",NA,NA,NA,NA,""
"image-keyboard-response",527,495019,"0.0-4.171-2.171","mpzxacpehg69duw",376,"84.csv","","null","resources/images/coin2.png","null","",NA,NA,NA,NA,""
"image-keyboard-response",528,495335,"0.0-4.172-0.172","mpzxacpehg69duw",376,"84.csv","","313.39999997615814","resources/trios/L4T4A2.jpg","39","restless",0.5,0.7,0.2,0.0631629753268459,"true"
"image-keyboard-response",529,495748,"0.0-4.172-1.172","mpzxacpehg69duw",376,"84.csv","","null","resources/maskTrios/BBA2.jpg","null","",NA,NA,NA,NA,""
"image-keyboard-response",530,496990,"0.0-4.172-2.172","mpzxacpehg69duw",376,"84.csv","","null","resources/images/coin2.png","null","",NA,NA,NA,NA,""
"image-keyboard-response",531,497057,"0.0-4.173-0.173","mpzxacpehg69duw",376,"84.csv","","64.89999997615814","resources/trios/L4T4A2.jpg","38","restless",0.5,0.7,0.2,0.56197026304737,"true"
"image-keyboard-response",532,497471,"0.0-4.173-1.173","mpzxacpehg69duw",376,"84.csv","","null","resources/maskTrios/BT4B.jpg","null","",NA,NA,NA,NA,""
"image-keyboard-response",533,498677,"0.0-4.173-2.173","mpzxacpehg69duw",376,"84.csv","","null","resources/images/coin2.png","null","",NA,NA,NA,NA,""
"image-keyboard-response",534,498804,"0.0-4.174-0.174","mpzxacpehg69duw",376,"84.csv","","124.39999997615814","resources/trios/L4T4A2.jpg","39","restless",0.5,0.7,0.2,0.258102894290438,"false"
"image-keyboard-response",535,499213,"0.0-4.174-1.174","mpzxacpehg69duw",376,"84.csv","","null","resources/maskTrios/BBA2.jpg","null","",NA,NA,NA,NA,""
"image-keyboard-response",536,500429,"0.0-4.174-2.174","mpzxacpehg69duw",376,"84.csv","","null","resources/images/fishbone.png","null","",NA,NA,NA,NA,""
"image-keyboard-response",537,500639,"0.0-4.175-0.175","mpzxacpehg69duw",376,"84.csv","","207.5","resources/trios/L4T4A2.jpg","38","restless",0.5,0.8,0.2,0.743007769915351,"true"
"image-keyboard-response",538,501058,"0.0-4.175-1.175","mpzxacpehg69duw",376,"84.csv","","null","resources/maskTrios/BT4B.jpg","null","",NA,NA,NA,NA,""
"image-keyboard-response",539,502291,"0.0-4.175-2.175","mpzxacpehg69duw",376,"84.csv","","null","resources/images/coin2.png","null","",NA,NA,NA,NA,""
"image-keyboard-response",540,502462,"0.0-4.176-0.176","mpzxacpehg69duw",376,"84.csv","","168.39999997615814","resources/trios/L4T4A2.jpg","38","restless",0.5,0.8,0.2,0.222674160179507,"true"
"image-keyboard-response",541,502865,"0.0-4.176-1.176","mpzxacpehg69duw",376,"84.csv","","null","resources/maskTrios/BT4B.jpg","null","",NA,NA,NA,NA,""
"image-keyboard-response",542,504077,"0.0-4.176-2.176","mpzxacpehg69duw",376,"84.csv","","null","resources/images/coin2.png","null","",NA,NA,NA,NA,""
"image-keyboard-response",543,504255,"0.0-4.177-0.177","mpzxacpehg69duw",376,"84.csv","","175.5","resources/trios/L4T4A2.jpg","38","restless",0.5,0.9,0.2,0.644428112164595,"true"
"image-keyboard-response",544,504666,"0.0-4.177-1.177","mpzxacpehg69duw",376,"84.csv","","null","resources/maskTrios/BT4B.jpg","null","",NA,NA,NA,NA,""
"image-keyboard-response",545,505876,"0.0-4.177-2.177","mpzxacpehg69duw",376,"84.csv","","null","resources/images/coin2.png","null","",NA,NA,NA,NA,""
"image-keyboard-response",546,506033,"0.0-4.178-0.178","mpzxacpehg69duw",376,"84.csv","","153.70000004768372","resources/trios/L4T4A2.jpg","38","restless",0.5,0.9,0.2,0.513203747623944,"true"
"image-keyboard-response",547,506448,"0.0-4.178-1.178","mpzxacpehg69duw",376,"84.csv","","null","resources/maskTrios/BT4B.jpg","null","",NA,NA,NA,NA,""
"image-keyboard-response",548,507653,"0.0-4.178-2.178","mpzxacpehg69duw",376,"84.csv","","null","resources/images/coin2.png","null","",NA,NA,NA,NA,""
"image-keyboard-response",549,508332,"0.0-4.179-0.179","mpzxacpehg69duw",376,"84.csv","","676.4000000953674","resources/trios/L4T4A2.jpg","38","restless",0.5,0.8,0.2,0.911435091080009,"false"
"image-keyboard-response",550,508749,"0.0-4.179-1.179","mpzxacpehg69duw",376,"84.csv","","null","resources/maskTrios/BT4B.jpg","null","",NA,NA,NA,NA,""
"image-keyboard-response",551,509959,"0.0-4.179-2.179","mpzxacpehg69duw",376,"84.csv","","null","resources/images/fishbone.png","null","",NA,NA,NA,NA,""
"image-keyboard-response",552,510167,"0.0-4.180-0.180","mpzxacpehg69duw",376,"84.csv","","205.29999995231628","resources/trios/L4T4A2.jpg","37","restless",0.5,0.7,0.3,0.138089705442169,"true"
"image-keyboard-response",553,510570,"0.0-4.180-1.180","mpzxacpehg69duw",376,"84.csv","","null","resources/maskTrios/L4BB.jpg","null","",NA,NA,NA,NA,""
"image-keyboard-response",554,511772,"0.0-4.180-2.180","mpzxacpehg69duw",376,"84.csv","","null","resources/images/coin2.png","null","",NA,NA,NA,NA,""
"image-keyboard-response",555,512044,"0.0-4.181-0.181","mpzxacpehg69duw",376,"84.csv","","269.7000000476837","resources/trios/L4T4A2.jpg","39","restless",0.5,0.7,0.4,0.522868353309541,"false"
"image-keyboard-response",556,512454,"0.0-4.181-1.181","mpzxacpehg69duw",376,"84.csv","","null","resources/maskTrios/BBA2.jpg","null","",NA,NA,NA,NA,""
"image-keyboard-response",557,513674,"0.0-4.181-2.181","mpzxacpehg69duw",376,"84.csv","","null","resources/images/fishbone.png","null","",NA,NA,NA,NA,""
"image-keyboard-response",558,513875,"0.0-4.182-0.182","mpzxacpehg69duw",376,"84.csv","","198.20000004768372","resources/trios/L4T4A2.jpg","39","restless",0.5,0.7,0.4,0.536478338519397,"false"
"image-keyboard-response",559,514291,"0.0-4.182-1.182","mpzxacpehg69duw",376,"84.csv","","null","resources/maskTrios/BBA2.jpg","null","",NA,NA,NA,NA,""
"image-keyboard-response",560,515506,"0.0-4.182-2.182","mpzxacpehg69duw",376,"84.csv","","null","resources/images/fishbone.png","null","",NA,NA,NA,NA,""
"image-keyboard-response",561,516016,"0.0-4.183-0.183","mpzxacpehg69duw",376,"84.csv","","507.2999999523163","resources/trios/L4T4A2.jpg","39","restless",0.5,0.7,0.4,0.746436321110139,"false"
"image-keyboard-response",562,516425,"0.0-4.183-1.183","mpzxacpehg69duw",376,"84.csv","","null","resources/maskTrios/BBA2.jpg","null","",NA,NA,NA,NA,""
"image-keyboard-response",563,517632,"0.0-4.183-2.183","mpzxacpehg69duw",376,"84.csv","","null","resources/images/fishbone.png","null","",NA,NA,NA,NA,""
"image-keyboard-response",564,518006,"0.0-4.184-0.184","mpzxacpehg69duw",376,"84.csv","","372","resources/trios/L4T4A2.jpg","38","restless",0.5,0.7,0.4,0.625338036617002,"true"
"image-keyboard-response",565,518420,"0.0-4.184-1.184","mpzxacpehg69duw",376,"84.csv","","null","resources/maskTrios/BT4B.jpg","null","",NA,NA,NA,NA,""
"image-keyboard-response",566,519640,"0.0-4.184-2.184","mpzxacpehg69duw",376,"84.csv","","null","resources/images/coin2.png","null","",NA,NA,NA,NA,""
"image-keyboard-response",567,519959,"0.0-4.185-0.185","mpzxacpehg69duw",376,"84.csv","","316.2999999523163","resources/trios/L4T4A2.jpg","38","restless",0.5,0.7,0.4,0.771597413048133,"false"
"image-keyboard-response",568,520372,"0.0-4.185-1.185","mpzxacpehg69duw",376,"84.csv","","null","resources/maskTrios/BT4B.jpg","null","",NA,NA,NA,NA,""
"image-keyboard-response",569,521586,"0.0-4.185-2.185","mpzxacpehg69duw",376,"84.csv","","null","resources/images/fishbone.png","null","",NA,NA,NA,NA,""
"image-keyboard-response",570,522113,"0.0-4.186-0.186","mpzxacpehg69duw",376,"84.csv","","524.6999999284744","resources/trios/L4T4A2.jpg","39","restless",0.5,0.7,0.3,0.226757249576959,"true"
"image-keyboard-response",571,522529,"0.0-4.186-1.186","mpzxacpehg69duw",376,"84.csv","","null","resources/maskTrios/BBA2.jpg","null","",NA,NA,NA,NA,""
"image-keyboard-response",572,523748,"0.0-4.186-2.186","mpzxacpehg69duw",376,"84.csv","","null","resources/images/coin2.png","null","",NA,NA,NA,NA,""
"image-keyboard-response",573,524113,"0.0-4.187-0.187","mpzxacpehg69duw",376,"84.csv","","362.7999999523163","resources/trios/L4T4A2.jpg","39","restless",0.5,0.7,0.4,0.899027373312497,"false"
"image-keyboard-response",574,524527,"0.0-4.187-1.187","mpzxacpehg69duw",376,"84.csv","","null","resources/maskTrios/BBA2.jpg","null","",NA,NA,NA,NA,""
"image-keyboard-response",575,525752,"0.0-4.187-2.187","mpzxacpehg69duw",376,"84.csv","","null","resources/images/fishbone.png","null","",NA,NA,NA,NA,""
"image-keyboard-response",576,526695,"0.0-4.188-0.188","mpzxacpehg69duw",376,"84.csv","","940.3999999761581","resources/trios/L4T4A2.jpg","37","restless",0.5,0.6,0.4,0.648910617779872,"false"
"image-keyboard-response",577,527111,"0.0-4.188-1.188","mpzxacpehg69duw",376,"84.csv","","null","resources/maskTrios/L4BB.jpg","null","",NA,NA,NA,NA,""
"image-keyboard-response",578,528315,"0.0-4.188-2.188","mpzxacpehg69duw",376,"84.csv","","null","resources/images/fishbone.png","null","",NA,NA,NA,NA,""
"image-keyboard-response",579,528344,"0.0-4.189-0.189","mpzxacpehg69duw",376,"84.csv","","25.699999928474426","resources/trios/L4T4A2.jpg","38","restless",0.5,0.6,0.4,0.436922622701036,"true"
"image-keyboard-response",580,528752,"0.0-4.189-1.189","mpzxacpehg69duw",376,"84.csv","","null","resources/maskTrios/BT4B.jpg","null","",NA,NA,NA,NA,""
"image-keyboard-response",581,529965,"0.0-4.189-2.189","mpzxacpehg69duw",376,"84.csv","","null","resources/images/coin2.png","null","",NA,NA,NA,NA,""
"image-keyboard-response",582,530930,"0.0-4.190-0.190","mpzxacpehg69duw",376,"84.csv","","962.5999999046326","resources/trios/L4T4A2.jpg","38","restless",0.5,0.6,0.3,0.14581937711562,"true"
"image-keyboard-response",583,531343,"0.0-4.190-1.190","mpzxacpehg69duw",376,"84.csv","","null","resources/maskTrios/BT4B.jpg","null","",NA,NA,NA,NA,""
"image-keyboard-response",584,532565,"0.0-4.190-2.190","mpzxacpehg69duw",376,"84.csv","","null","resources/images/coin2.png","null","",NA,NA,NA,NA,""
"image-keyboard-response",585,533616,"0.0-4.191-0.191","mpzxacpehg69duw",376,"84.csv","","1048.3999999761581","resources/trios/L4T4A2.jpg","38","restless",0.5,0.6,0.3,0.152204977661184,"true"
"image-keyboard-response",586,534032,"0.0-4.191-1.191","mpzxacpehg69duw",376,"84.csv","","null","resources/maskTrios/BT4B.jpg","null","",NA,NA,NA,NA,""
"image-keyboard-response",587,535248,"0.0-4.191-2.191","mpzxacpehg69duw",376,"84.csv","","null","resources/images/coin2.png","null","",NA,NA,NA,NA,""
"image-keyboard-response",588,538613,"0.0-4.192-0.192","mpzxacpehg69duw",376,"84.csv","","3362.600000023842","resources/trios/L4T4A2.jpg","38","restless",0.4,0.6,0.3,0.874513436467709,"false"
"image-keyboard-response",589,539029,"0.0-4.192-1.192","mpzxacpehg69duw",376,"84.csv","","null","resources/maskTrios/BT4B.jpg","null","",NA,NA,NA,NA,""
"image-keyboard-response",590,540243,"0.0-4.192-2.192","mpzxacpehg69duw",376,"84.csv","","null","resources/images/fishbone.png","null","",NA,NA,NA,NA,""
"image-keyboard-response",591,541425,"0.0-4.193-0.193","mpzxacpehg69duw",376,"84.csv","","1180.1999999284744","resources/trios/L4T4A2.jpg","39","restless",0.4,0.6,0.2,0.654231605937517,"false"
"image-keyboard-response",592,541833,"0.0-4.193-1.193","mpzxacpehg69duw",376,"84.csv","","null","resources/maskTrios/BBA2.jpg","null","",NA,NA,NA,NA,""
"image-keyboard-response",593,543051,"0.0-4.193-2.193","mpzxacpehg69duw",376,"84.csv","","null","resources/images/fishbone.png","null","",NA,NA,NA,NA,""
"image-keyboard-response",594,543330,"0.0-4.194-0.194","mpzxacpehg69duw",376,"84.csv","","277","resources/trios/L4T4A2.jpg","38","restless",0.4,0.6,0.2,0.161907982200064,"true"
"image-keyboard-response",595,543737,"0.0-4.194-1.194","mpzxacpehg69duw",376,"84.csv","","null","resources/maskTrios/BT4B.jpg","null","",NA,NA,NA,NA,""
"image-keyboard-response",596,544949,"0.0-4.194-2.194","mpzxacpehg69duw",376,"84.csv","","null","resources/images/coin2.png","null","",NA,NA,NA,NA,""
"image-keyboard-response",597,545313,"0.0-4.195-0.195","mpzxacpehg69duw",376,"84.csv","","361.89999997615814","resources/trios/L4T4A2.jpg","38","restless",0.4,0.6,0.2,0.983578348150407,"false"
"image-keyboard-response",598,545724,"0.0-4.195-1.195","mpzxacpehg69duw",376,"84.csv","","null","resources/maskTrios/BT4B.jpg","null","",NA,NA,NA,NA,""
"image-keyboard-response",599,546943,"0.0-4.195-2.195","mpzxacpehg69duw",376,"84.csv","","null","resources/images/fishbone.png","null","",NA,NA,NA,NA,""
"image-keyboard-response",600,547015,"0.0-4.196-0.196","mpzxacpehg69duw",376,"84.csv","","69.69999992847443","resources/trios/L4T4A2.jpg","37","restless",0.4,0.6,0.2,0.878723841666617,"false"
"image-keyboard-response",601,547433,"0.0-4.196-1.196","mpzxacpehg69duw",376,"84.csv","","null","resources/maskTrios/L4BB.jpg","null","",NA,NA,NA,NA,""
"image-keyboard-response",602,548643,"0.0-4.196-2.196","mpzxacpehg69duw",376,"84.csv","","null","resources/images/fishbone.png","null","",NA,NA,NA,NA,""
"image-keyboard-response",603,548996,"0.0-4.197-0.197","mpzxacpehg69duw",376,"84.csv","","350.1999999284744","resources/trios/L4T4A2.jpg","38","restless",0.4,0.6,0.2,0.191399758856037,"true"
"image-keyboard-response",604,549407,"0.0-4.197-1.197","mpzxacpehg69duw",376,"84.csv","","null","resources/maskTrios/BT4B.jpg","null","",NA,NA,NA,NA,""
"image-keyboard-response",605,550631,"0.0-4.197-2.197","mpzxacpehg69duw",376,"84.csv","","null","resources/images/coin2.png","null","",NA,NA,NA,NA,""
"image-keyboard-response",606,551886,"0.0-4.198-0.198","mpzxacpehg69duw",376,"84.csv","","1252.7000000476837","resources/trios/L4T4A2.jpg","38","restless",0.4,0.6,0.2,0.639289768955277,"false"
"image-keyboard-response",607,552294,"0.0-4.198-1.198","mpzxacpehg69duw",376,"84.csv","","null","resources/maskTrios/BT4B.jpg","null","",NA,NA,NA,NA,""
"image-keyboard-response",608,553506,"0.0-4.198-2.198","mpzxacpehg69duw",376,"84.csv","","null","resources/images/fishbone.png","null","",NA,NA,NA,NA,""
"image-keyboard-response",609,554081,"0.0-4.199-0.199","mpzxacpehg69duw",376,"84.csv","","572.5999999046326","resources/trios/L4T4A2.jpg","38","restless",0.3,0.6,0.3,0.995287690529434,"false"
"image-keyboard-response",610,554499,"0.0-4.199-1.199","mpzxacpehg69duw",376,"84.csv","","null","resources/maskTrios/BT4B.jpg","null","",NA,NA,NA,NA,""
"image-keyboard-response",611,555702,"0.0-4.199-2.199","mpzxacpehg69duw",376,"84.csv","","null","resources/images/fishbone.png","null","",NA,NA,NA,NA,""
"survey-text",612,645303,"0.0-5.0","mpzxacpehg69duw",376,"84.csv","","89595","","","",NA,NA,NA,NA,""
