"trial_type","trial_index","time_elapsed","internal_node_id","subject","participantCode","walkNumber","success","rt","stimulus","key_press","test_part","leftProb","midProb","rightProb","generatedNum","correct"
"pavlovia",0,948,"0.0-0.0","pena802487phcyh",623,"193.csv","","","","","",NA,NA,NA,NA,""
"fullscreen",1,4250,"0.0-1.0","pena802487phcyh",623,"193.csv","true","","","","",NA,NA,NA,NA,""
"survey-html-form",2,18729,"0.0-2.0","pena802487phcyh",623,"193.csv","","14474.70000076294","","","",NA,NA,NA,NA,""
"image-keyboard-response",3,23016,"0.0-3.0-0.0","pena802487phcyh",623,"193.csv","","4286.699998855591","resources/images/parrot_nobg.png","13","",NA,NA,NA,NA,""
"image-keyboard-response",4,26029,"0.0-3.0-1.0","pena802487phcyh",623,"193.csv","","null","resources/image_sets/111.png","null","",NA,NA,NA,NA,""
"image-keyboard-response",5,27252,"0.0-3.0-2.0","pena802487phcyh",623,"193.csv","","1222.400001525879","resources/image_sets/left_highlight.png","37","",NA,NA,NA,NA,""
"image-keyboard-response",6,28062,"0.0-3.0-3.0","pena802487phcyh",623,"193.csv","","809.3000011444092","resources/image_sets/mid_highlight.png","38","",NA,NA,NA,NA,""
"image-keyboard-response",7,28459,"0.0-3.0-4.0","pena802487phcyh",623,"193.csv","","395.8000011444092","resources/image_sets/right_highlight.png","39","",NA,NA,NA,NA,""
"image-keyboard-response",8,29655,"0.0-3.0-5.0","pena802487phcyh",623,"193.csv","","1195.3999996185303","resources/image_sets/111.png","13","",NA,NA,NA,NA,""
"image-keyboard-response",9,31520,"0.0-3.0-6.0","pena802487phcyh",623,"193.csv","","1864","resources/images/coin2.png","13","",NA,NA,NA,NA,""
"image-keyboard-response",10,32602,"0.0-3.0-7.0","pena802487phcyh",623,"193.csv","","1082","resources/images/fishbone.png","13","",NA,NA,NA,NA,""
"html-keyboard-response",11,34038,"0.0-3.0-8.0","pena802487phcyh",623,"193.csv","","1435.3000011444092","<p>You can track your coin total on the top right of your screen. </p><p>At the end of your journey you will be directed to a survey, so please click on the link before exiting the task</p><p>Press Enter to begin</p>","13","",NA,NA,NA,NA,""
"image-keyboard-response",12,35457,"0.0-4.0-0.0","pena802487phcyh",623,"193.csv","","1418.2000007629395","resources/trios/L1T2A3.jpg","37","restless",0.9,0.3,0.7,0.648896543077621,"true"
"image-keyboard-response",13,35872,"0.0-4.0-1.0","pena802487phcyh",623,"193.csv","","null","resources/maskTrios/L1BB.jpg","null","",NA,NA,NA,NA,""
"image-keyboard-response",14,37082,"0.0-4.0-2.0","pena802487phcyh",623,"193.csv","","null","resources/images/coin2.png","null","",NA,NA,NA,NA,""
"image-keyboard-response",15,37473,"0.0-4.1-0.1","pena802487phcyh",623,"193.csv","","389.70000076293945","resources/trios/L1T2A3.jpg","38","restless",0.9,0.3,0.7,0.851884425412044,"false"
"image-keyboard-response",16,37888,"0.0-4.1-1.1","pena802487phcyh",623,"193.csv","","null","resources/maskTrios/BT2B.jpg","null","",NA,NA,NA,NA,""
"image-keyboard-response",17,39096,"0.0-4.1-2.1","pena802487phcyh",623,"193.csv","","null","resources/images/fishbone.png","null","",NA,NA,NA,NA,""
"image-keyboard-response",18,39404,"0.0-4.2-0.2","pena802487phcyh",623,"193.csv","","307","resources/trios/L1T2A3.jpg","39","restless",0.9,0.3,0.7,0.667637851945927,"true"
"image-keyboard-response",19,39809,"0.0-4.2-1.2","pena802487phcyh",623,"193.csv","","null","resources/maskTrios/BBA3.jpg","null","",NA,NA,NA,NA,""
"image-keyboard-response",20,41013,"0.0-4.2-2.2","pena802487phcyh",623,"193.csv","","null","resources/images/coin2.png","null","",NA,NA,NA,NA,""
"image-keyboard-response",21,42071,"0.0-4.3-0.3","pena802487phcyh",623,"193.csv","","1056.7999992370605","resources/trios/L1T2A3.jpg","38","restless",0.9,0.3,0.7,0.0298669314119895,"true"
"image-keyboard-response",22,42476,"0.0-4.3-1.3","pena802487phcyh",623,"193.csv","","null","resources/maskTrios/BT2B.jpg","null","",NA,NA,NA,NA,""
"image-keyboard-response",23,43692,"0.0-4.3-2.3","pena802487phcyh",623,"193.csv","","null","resources/images/coin2.png","null","",NA,NA,NA,NA,""
"image-keyboard-response",24,44533,"0.0-4.4-0.4","pena802487phcyh",623,"193.csv","","839.3000011444092","resources/trios/L1T2A3.jpg","37","restless",0.9,0.3,0.6,0.370675536379822,"true"
"image-keyboard-response",25,44937,"0.0-4.4-1.4","pena802487phcyh",623,"193.csv","","null","resources/maskTrios/L1BB.jpg","null","",NA,NA,NA,NA,""
"image-keyboard-response",26,46148,"0.0-4.4-2.4","pena802487phcyh",623,"193.csv","","null","resources/images/coin2.png","null","",NA,NA,NA,NA,""
"image-keyboard-response",27,46705,"0.0-4.5-0.5","pena802487phcyh",623,"193.csv","","556.0999984741211","resources/trios/L1T2A3.jpg","39","restless",0.9,0.3,0.6,0.437822011290312,"true"
"image-keyboard-response",28,47110,"0.0-4.5-1.5","pena802487phcyh",623,"193.csv","","null","resources/maskTrios/BBA3.jpg","null","",NA,NA,NA,NA,""
"image-keyboard-response",29,48315,"0.0-4.5-2.5","pena802487phcyh",623,"193.csv","","null","resources/images/coin2.png","null","",NA,NA,NA,NA,""
"image-keyboard-response",30,48624,"0.0-4.6-0.6","pena802487phcyh",623,"193.csv","","307.29999923706055","resources/trios/L1T2A3.jpg","38","restless",0.9,0.3,0.5,0.824524415032507,"false"
"image-keyboard-response",31,49025,"0.0-4.6-1.6","pena802487phcyh",623,"193.csv","","null","resources/maskTrios/BT2B.jpg","null","",NA,NA,NA,NA,""
"image-keyboard-response",32,50242,"0.0-4.6-2.6","pena802487phcyh",623,"193.csv","","null","resources/images/fishbone.png","null","",NA,NA,NA,NA,""
"image-keyboard-response",33,50569,"0.0-4.7-0.7","pena802487phcyh",623,"193.csv","","325.8999996185303","resources/trios/L1T2A3.jpg","37","restless",0.9,0.3,0.5,0.237366472315895,"true"
"image-keyboard-response",34,50974,"0.0-4.7-1.7","pena802487phcyh",623,"193.csv","","null","resources/maskTrios/L1BB.jpg","null","",NA,NA,NA,NA,""
"image-keyboard-response",35,52180,"0.0-4.7-2.7","pena802487phcyh",623,"193.csv","","null","resources/images/coin2.png","null","",NA,NA,NA,NA,""
"image-keyboard-response",36,52500,"0.0-4.8-0.8","pena802487phcyh",623,"193.csv","","319.3999996185303","resources/trios/L1T2A3.jpg","39","restless",0.9,0.3,0.5,0.754620916705672,"false"
"image-keyboard-response",37,52904,"0.0-4.8-1.8","pena802487phcyh",623,"193.csv","","null","resources/maskTrios/BBA3.jpg","null","",NA,NA,NA,NA,""
"image-keyboard-response",38,54119,"0.0-4.8-2.8","pena802487phcyh",623,"193.csv","","null","resources/images/fishbone.png","null","",NA,NA,NA,NA,""
"image-keyboard-response",39,54526,"0.0-4.9-0.9","pena802487phcyh",623,"193.csv","","406.6000003814697","resources/trios/L1T2A3.jpg","37","restless",0.9,0.3,0.5,0.652184825473369,"true"
"image-keyboard-response",40,54933,"0.0-4.9-1.9","pena802487phcyh",623,"193.csv","","null","resources/maskTrios/L1BB.jpg","null","",NA,NA,NA,NA,""
"image-keyboard-response",41,56142,"0.0-4.9-2.9","pena802487phcyh",623,"193.csv","","null","resources/images/coin2.png","null","",NA,NA,NA,NA,""
"image-keyboard-response",42,56540,"0.0-4.10-0.10","pena802487phcyh",623,"193.csv","","397.1000003814697","resources/trios/L1T2A3.jpg","38","restless",0.9,0.3,0.5,0.128882197158885,"true"
"image-keyboard-response",43,56952,"0.0-4.10-1.10","pena802487phcyh",623,"193.csv","","null","resources/maskTrios/BT2B.jpg","null","",NA,NA,NA,NA,""
"image-keyboard-response",44,58163,"0.0-4.10-2.10","pena802487phcyh",623,"193.csv","","null","resources/images/coin2.png","null","",NA,NA,NA,NA,""
"image-keyboard-response",45,58581,"0.0-4.11-0.11","pena802487phcyh",623,"193.csv","","416.6000003814697","resources/trios/L1T2A3.jpg","39","restless",0.9,0.3,0.4,0.0810069698166334,"true"
"image-keyboard-response",46,58985,"0.0-4.11-1.11","pena802487phcyh",623,"193.csv","","null","resources/maskTrios/BBA3.jpg","null","",NA,NA,NA,NA,""
"image-keyboard-response",47,60193,"0.0-4.11-2.11","pena802487phcyh",623,"193.csv","","null","resources/images/coin2.png","null","",NA,NA,NA,NA,""
"image-keyboard-response",48,60625,"0.0-4.12-0.12","pena802487phcyh",623,"193.csv","","430.8000011444092","resources/trios/L1T2A3.jpg","39","restless",0.9,0.3,0.4,0.779078691416142,"false"
"image-keyboard-response",49,61042,"0.0-4.12-1.12","pena802487phcyh",623,"193.csv","","null","resources/maskTrios/BBA3.jpg","null","",NA,NA,NA,NA,""
"image-keyboard-response",50,62258,"0.0-4.12-2.12","pena802487phcyh",623,"193.csv","","null","resources/images/fishbone.png","null","",NA,NA,NA,NA,""
"image-keyboard-response",51,62610,"0.0-4.13-0.13","pena802487phcyh",623,"193.csv","","351.0999984741211","resources/trios/L1T2A3.jpg","38","restless",0.9,0.3,0.4,0.689234590314918,"false"
"image-keyboard-response",52,63014,"0.0-4.13-1.13","pena802487phcyh",623,"193.csv","","null","resources/maskTrios/BT2B.jpg","null","",NA,NA,NA,NA,""
"image-keyboard-response",53,64222,"0.0-4.13-2.13","pena802487phcyh",623,"193.csv","","null","resources/images/fishbone.png","null","",NA,NA,NA,NA,""
"image-keyboard-response",54,64497,"0.0-4.14-0.14","pena802487phcyh",623,"193.csv","","274.6000003814697","resources/trios/L1T2A3.jpg","37","restless",0.9,0.3,0.4,0.586193200661231,"true"
"image-keyboard-response",55,64914,"0.0-4.14-1.14","pena802487phcyh",623,"193.csv","","null","resources/maskTrios/L1BB.jpg","null","",NA,NA,NA,NA,""
"image-keyboard-response",56,66129,"0.0-4.14-2.14","pena802487phcyh",623,"193.csv","","null","resources/images/coin2.png","null","",NA,NA,NA,NA,""
"image-keyboard-response",57,66809,"0.0-4.15-0.15","pena802487phcyh",623,"193.csv","","678.8999996185303","resources/trios/L1T2A3.jpg","39","restless",0.9,0.4,0.4,0.0296705236751329,"true"
"image-keyboard-response",58,67214,"0.0-4.15-1.15","pena802487phcyh",623,"193.csv","","null","resources/maskTrios/BBA3.jpg","null","",NA,NA,NA,NA,""
"image-keyboard-response",59,68418,"0.0-4.15-2.15","pena802487phcyh",623,"193.csv","","null","resources/images/coin2.png","null","",NA,NA,NA,NA,""
"image-keyboard-response",60,68804,"0.0-4.16-0.16","pena802487phcyh",623,"193.csv","","385","resources/trios/L1T2A3.jpg","38","restless",0.9,0.4,0.4,0.734818628755312,"false"
"image-keyboard-response",61,69208,"0.0-4.16-1.16","pena802487phcyh",623,"193.csv","","null","resources/maskTrios/BT2B.jpg","null","",NA,NA,NA,NA,""
"image-keyboard-response",62,70420,"0.0-4.16-2.16","pena802487phcyh",623,"193.csv","","null","resources/images/fishbone.png","null","",NA,NA,NA,NA,""
"image-keyboard-response",63,70817,"0.0-4.17-0.17","pena802487phcyh",623,"193.csv","","395.6000003814697","resources/trios/L1T2A3.jpg","37","restless",0.9,0.4,0.4,0.978460669782236,"false"
"image-keyboard-response",64,71233,"0.0-4.17-1.17","pena802487phcyh",623,"193.csv","","null","resources/maskTrios/L1BB.jpg","null","",NA,NA,NA,NA,""
"image-keyboard-response",65,72440,"0.0-4.17-2.17","pena802487phcyh",623,"193.csv","","null","resources/images/fishbone.png","null","",NA,NA,NA,NA,""
"image-keyboard-response",66,72962,"0.0-4.18-0.18","pena802487phcyh",623,"193.csv","","520.6000003814697","resources/trios/L1T2A3.jpg","39","restless",0.8,0.4,0.4,0.570422368575044,"false"
"image-keyboard-response",67,73363,"0.0-4.18-1.18","pena802487phcyh",623,"193.csv","","null","resources/maskTrios/BBA3.jpg","null","",NA,NA,NA,NA,""
"image-keyboard-response",68,74571,"0.0-4.18-2.18","pena802487phcyh",623,"193.csv","","null","resources/images/fishbone.png","null","",NA,NA,NA,NA,""
"image-keyboard-response",69,75042,"0.0-4.19-0.19","pena802487phcyh",623,"193.csv","","469.70000076293945","resources/trios/L1T2A3.jpg","38","restless",0.8,0.4,0.4,0.562080273465839,"false"
"image-keyboard-response",70,75445,"0.0-4.19-1.19","pena802487phcyh",623,"193.csv","","null","resources/maskTrios/BT2B.jpg","null","",NA,NA,NA,NA,""
"image-keyboard-response",71,76661,"0.0-4.19-2.19","pena802487phcyh",623,"193.csv","","null","resources/images/fishbone.png","null","",NA,NA,NA,NA,""
"image-keyboard-response",72,77076,"0.0-4.20-0.20","pena802487phcyh",623,"193.csv","","413","resources/trios/L1T2A3.jpg","38","restless",0.8,0.4,0.4,0.517281883714936,"false"
"image-keyboard-response",73,77484,"0.0-4.20-1.20","pena802487phcyh",623,"193.csv","","null","resources/maskTrios/BT2B.jpg","null","",NA,NA,NA,NA,""
"image-keyboard-response",74,78688,"0.0-4.20-2.20","pena802487phcyh",623,"193.csv","","null","resources/images/fishbone.png","null","",NA,NA,NA,NA,""
"image-keyboard-response",75,79015,"0.0-4.21-0.21","pena802487phcyh",623,"193.csv","","325.29999923706055","resources/trios/L1T2A3.jpg","39","restless",0.8,0.4,0.4,0.0413950413754258,"true"
"image-keyboard-response",76,79427,"0.0-4.21-1.21","pena802487phcyh",623,"193.csv","","null","resources/maskTrios/BBA3.jpg","null","",NA,NA,NA,NA,""
"image-keyboard-response",77,80634,"0.0-4.21-2.21","pena802487phcyh",623,"193.csv","","null","resources/images/coin2.png","null","",NA,NA,NA,NA,""
"image-keyboard-response",78,80952,"0.0-4.22-0.22","pena802487phcyh",623,"193.csv","","317.20000076293945","resources/trios/L1T2A3.jpg","39","restless",0.8,0.5,0.4,0.365233923055113,"true"
"image-keyboard-response",79,81365,"0.0-4.22-1.22","pena802487phcyh",623,"193.csv","","null","resources/maskTrios/BBA3.jpg","null","",NA,NA,NA,NA,""
"image-keyboard-response",80,82576,"0.0-4.22-2.22","pena802487phcyh",623,"193.csv","","null","resources/images/coin2.png","null","",NA,NA,NA,NA,""
"image-keyboard-response",81,82913,"0.0-4.23-0.23","pena802487phcyh",623,"193.csv","","335","resources/trios/L1T2A3.jpg","39","restless",0.8,0.5,0.4,0.182456843056918,"true"
"image-keyboard-response",82,83317,"0.0-4.23-1.23","pena802487phcyh",623,"193.csv","","null","resources/maskTrios/BBA3.jpg","null","",NA,NA,NA,NA,""
"image-keyboard-response",83,84522,"0.0-4.23-2.23","pena802487phcyh",623,"193.csv","","null","resources/images/coin2.png","null","",NA,NA,NA,NA,""
"image-keyboard-response",84,84937,"0.0-4.24-0.24","pena802487phcyh",623,"193.csv","","413.70000076293945","resources/trios/L1T2A3.jpg","37","restless",0.8,0.5,0.4,0.37875721847272,"true"
"image-keyboard-response",85,85353,"0.0-4.24-1.24","pena802487phcyh",623,"193.csv","","null","resources/maskTrios/L1BB.jpg","null","",NA,NA,NA,NA,""
"image-keyboard-response",86,86560,"0.0-4.24-2.24","pena802487phcyh",623,"193.csv","","null","resources/images/coin2.png","null","",NA,NA,NA,NA,""
"image-keyboard-response",87,86838,"0.0-4.25-0.25","pena802487phcyh",623,"193.csv","","277.3000011444092","resources/trios/L1T2A3.jpg","37","restless",0.8,0.5,0.4,0.848076647406358,"false"
"image-keyboard-response",88,87248,"0.0-4.25-1.25","pena802487phcyh",623,"193.csv","","null","resources/maskTrios/L1BB.jpg","null","",NA,NA,NA,NA,""
"image-keyboard-response",89,88461,"0.0-4.25-2.25","pena802487phcyh",623,"193.csv","","null","resources/images/fishbone.png","null","",NA,NA,NA,NA,""
"image-keyboard-response",90,88770,"0.0-4.26-0.26","pena802487phcyh",623,"193.csv","","307.6999988555908","resources/trios/L1T2A3.jpg","38","restless",0.8,0.5,0.4,0.551486829471819,"false"
"image-keyboard-response",91,89175,"0.0-4.26-1.26","pena802487phcyh",623,"193.csv","","null","resources/maskTrios/BT2B.jpg","null","",NA,NA,NA,NA,""
"image-keyboard-response",92,90379,"0.0-4.26-2.26","pena802487phcyh",623,"193.csv","","null","resources/images/fishbone.png","null","",NA,NA,NA,NA,""
"image-keyboard-response",93,90656,"0.0-4.27-0.27","pena802487phcyh",623,"193.csv","","275.8000011444092","resources/trios/L1T2A3.jpg","39","restless",0.8,0.5,0.4,0.443350827445449,"false"
"image-keyboard-response",94,91062,"0.0-4.27-1.27","pena802487phcyh",623,"193.csv","","null","resources/maskTrios/BBA3.jpg","null","",NA,NA,NA,NA,""
"image-keyboard-response",95,92279,"0.0-4.27-2.27","pena802487phcyh",623,"193.csv","","null","resources/images/fishbone.png","null","",NA,NA,NA,NA,""
"image-keyboard-response",96,92546,"0.0-4.28-0.28","pena802487phcyh",623,"193.csv","","265.5","resources/trios/L1T2A3.jpg","38","restless",0.8,0.5,0.4,0.141227294527422,"true"
"image-keyboard-response",97,92958,"0.0-4.28-1.28","pena802487phcyh",623,"193.csv","","null","resources/maskTrios/BT2B.jpg","null","",NA,NA,NA,NA,""
"image-keyboard-response",98,94166,"0.0-4.28-2.28","pena802487phcyh",623,"193.csv","","null","resources/images/coin2.png","null","",NA,NA,NA,NA,""
"image-keyboard-response",99,94556,"0.0-4.29-0.29","pena802487phcyh",623,"193.csv","","388.79999923706055","resources/trios/L1T2A3.jpg","38","restless",0.8,0.5,0.4,0.75566143175001,"false"
"image-keyboard-response",100,94971,"0.0-4.29-1.29","pena802487phcyh",623,"193.csv","","null","resources/maskTrios/BT2B.jpg","null","",NA,NA,NA,NA,""
"image-keyboard-response",101,96182,"0.0-4.29-2.29","pena802487phcyh",623,"193.csv","","null","resources/images/fishbone.png","null","",NA,NA,NA,NA,""
"image-keyboard-response",102,106482,"0.0-4.30-0.30","pena802487phcyh",623,"193.csv","","10298.89999961853","resources/trios/L1T2A3.jpg","37","restless",0.8,0.5,0.4,0.838002398193215,"false"
"image-keyboard-response",103,106886,"0.0-4.30-1.30","pena802487phcyh",623,"193.csv","","null","resources/maskTrios/L1BB.jpg","null","",NA,NA,NA,NA,""
"image-keyboard-response",104,108089,"0.0-4.30-2.30","pena802487phcyh",623,"193.csv","","null","resources/images/fishbone.png","null","",NA,NA,NA,NA,""
"image-keyboard-response",105,108531,"0.0-4.31-0.31","pena802487phcyh",623,"193.csv","","440.20000076293945","resources/trios/L1T2A3.jpg","39","restless",0.8,0.5,0.4,0.233540405732175,"true"
"image-keyboard-response",106,108936,"0.0-4.31-1.31","pena802487phcyh",623,"193.csv","","null","resources/maskTrios/BBA3.jpg","null","",NA,NA,NA,NA,""
"image-keyboard-response",107,110139,"0.0-4.31-2.31","pena802487phcyh",623,"193.csv","","null","resources/images/coin2.png","null","",NA,NA,NA,NA,""
"image-keyboard-response",108,110969,"0.0-4.32-0.32","pena802487phcyh",623,"193.csv","","829.3000011444092","resources/trios/L1T2A3.jpg","38","restless",0.8,0.5,0.4,0.025750547793469,"true"
"image-keyboard-response",109,111375,"0.0-4.32-1.32","pena802487phcyh",623,"193.csv","","null","resources/maskTrios/BT2B.jpg","null","",NA,NA,NA,NA,""
"image-keyboard-response",110,112591,"0.0-4.32-2.32","pena802487phcyh",623,"193.csv","","null","resources/images/coin2.png","null","",NA,NA,NA,NA,""
"image-keyboard-response",111,113266,"0.0-4.33-0.33","pena802487phcyh",623,"193.csv","","674.5","resources/trios/L1T2A3.jpg","39","restless",0.8,0.5,0.4,0.38353833655194,"true"
"image-keyboard-response",112,113674,"0.0-4.33-1.33","pena802487phcyh",623,"193.csv","","null","resources/maskTrios/BBA3.jpg","null","",NA,NA,NA,NA,""
"image-keyboard-response",113,114887,"0.0-4.33-2.33","pena802487phcyh",623,"193.csv","","null","resources/images/coin2.png","null","",NA,NA,NA,NA,""
"image-keyboard-response",114,116249,"0.0-4.34-0.34","pena802487phcyh",623,"193.csv","","1361","resources/trios/L1T2A3.jpg","38","restless",0.8,0.5,0.4,0.129682953332681,"true"
"image-keyboard-response",115,116659,"0.0-4.34-1.34","pena802487phcyh",623,"193.csv","","null","resources/maskTrios/BT2B.jpg","null","",NA,NA,NA,NA,""
"image-keyboard-response",116,117868,"0.0-4.34-2.34","pena802487phcyh",623,"193.csv","","null","resources/images/coin2.png","null","",NA,NA,NA,NA,""
"image-keyboard-response",117,118237,"0.0-4.35-0.35","pena802487phcyh",623,"193.csv","","367.29999923706055","resources/trios/L1T2A3.jpg","37","restless",0.8,0.5,0.4,0.971274286236839,"false"
"image-keyboard-response",118,118648,"0.0-4.35-1.35","pena802487phcyh",623,"193.csv","","null","resources/maskTrios/L1BB.jpg","null","",NA,NA,NA,NA,""
"image-keyboard-response",119,119858,"0.0-4.35-2.35","pena802487phcyh",623,"193.csv","","null","resources/images/fishbone.png","null","",NA,NA,NA,NA,""
"image-keyboard-response",120,120366,"0.0-4.36-0.36","pena802487phcyh",623,"193.csv","","507.20000076293945","resources/trios/L1T2A3.jpg","39","restless",0.8,0.5,0.4,0.45772924497032,"false"
"image-keyboard-response",121,120774,"0.0-4.36-1.36","pena802487phcyh",623,"193.csv","","null","resources/maskTrios/BBA3.jpg","null","",NA,NA,NA,NA,""
"image-keyboard-response",122,121988,"0.0-4.36-2.36","pena802487phcyh",623,"193.csv","","null","resources/images/fishbone.png","null","",NA,NA,NA,NA,""
"image-keyboard-response",123,122306,"0.0-4.37-0.37","pena802487phcyh",623,"193.csv","","317.5999984741211","resources/trios/L1T2A3.jpg","38","restless",0.8,0.5,0.4,0.798505749233492,"false"
"image-keyboard-response",124,122710,"0.0-4.37-1.37","pena802487phcyh",623,"193.csv","","null","resources/maskTrios/BT2B.jpg","null","",NA,NA,NA,NA,""
"image-keyboard-response",125,123922,"0.0-4.37-2.37","pena802487phcyh",623,"193.csv","","null","resources/images/fishbone.png","null","",NA,NA,NA,NA,""
"image-keyboard-response",126,125069,"0.0-4.38-0.38","pena802487phcyh",623,"193.csv","","1145.3999996185303","resources/trios/L1T2A3.jpg","37","restless",0.8,0.5,0.4,0.246229652631405,"true"
"image-keyboard-response",127,125473,"0.0-4.38-1.38","pena802487phcyh",623,"193.csv","","null","resources/maskTrios/L1BB.jpg","null","",NA,NA,NA,NA,""
"image-keyboard-response",128,126678,"0.0-4.38-2.38","pena802487phcyh",623,"193.csv","","null","resources/images/coin2.png","null","",NA,NA,NA,NA,""
"image-keyboard-response",129,126942,"0.0-4.39-0.39","pena802487phcyh",623,"193.csv","","262.6999988555908","resources/trios/L1T2A3.jpg","37","restless",0.8,0.5,0.4,0.509068554111622,"true"
"image-keyboard-response",130,127345,"0.0-4.39-1.39","pena802487phcyh",623,"193.csv","","null","resources/maskTrios/L1BB.jpg","null","",NA,NA,NA,NA,""
"image-keyboard-response",131,128558,"0.0-4.39-2.39","pena802487phcyh",623,"193.csv","","null","resources/images/coin2.png","null","",NA,NA,NA,NA,""
"image-keyboard-response",132,128989,"0.0-4.40-0.40","pena802487phcyh",623,"193.csv","","430.5999984741211","resources/trios/L1T2A3.jpg","38","restless",0.8,0.5,0.4,0.716314131963793,"false"
"image-keyboard-response",133,129399,"0.0-4.40-1.40","pena802487phcyh",623,"193.csv","","null","resources/maskTrios/BT2B.jpg","null","",NA,NA,NA,NA,""
"image-keyboard-response",134,130613,"0.0-4.40-2.40","pena802487phcyh",623,"193.csv","","null","resources/images/fishbone.png","null","",NA,NA,NA,NA,""
"image-keyboard-response",135,130905,"0.0-4.41-0.41","pena802487phcyh",623,"193.csv","","290.3999996185303","resources/trios/L1T2A3.jpg","39","restless",0.8,0.5,0.4,0.18806144345667,"true"
"image-keyboard-response",136,131319,"0.0-4.41-1.41","pena802487phcyh",623,"193.csv","","null","resources/maskTrios/BBA3.jpg","null","",NA,NA,NA,NA,""
"image-keyboard-response",137,132528,"0.0-4.41-2.41","pena802487phcyh",623,"193.csv","","null","resources/images/coin2.png","null","",NA,NA,NA,NA,""
"image-keyboard-response",138,132820,"0.0-4.42-0.42","pena802487phcyh",623,"193.csv","","291.79999923706055","resources/trios/L1T2A3.jpg","39","restless",0.8,0.5,0.4,0.689054588263433,"false"
"image-keyboard-response",139,133237,"0.0-4.42-1.42","pena802487phcyh",623,"193.csv","","null","resources/maskTrios/BBA3.jpg","null","",NA,NA,NA,NA,""
"image-keyboard-response",140,134447,"0.0-4.42-2.42","pena802487phcyh",623,"193.csv","","null","resources/images/fishbone.png","null","",NA,NA,NA,NA,""
"image-keyboard-response",141,134718,"0.0-4.43-0.43","pena802487phcyh",623,"193.csv","","269.70000076293945","resources/trios/L1T2A3.jpg","37","restless",0.8,0.5,0.4,0.716250387931851,"true"
"image-keyboard-response",142,135122,"0.0-4.43-1.43","pena802487phcyh",623,"193.csv","","null","resources/maskTrios/L1BB.jpg","null","",NA,NA,NA,NA,""
"image-keyboard-response",143,136325,"0.0-4.43-2.43","pena802487phcyh",623,"193.csv","","null","resources/images/coin2.png","null","",NA,NA,NA,NA,""
"image-keyboard-response",144,136715,"0.0-4.44-0.44","pena802487phcyh",623,"193.csv","","388.8999996185303","resources/trios/L1T2A3.jpg","37","restless",0.8,0.5,0.4,0.771652004582163,"true"
"image-keyboard-response",145,137129,"0.0-4.44-1.44","pena802487phcyh",623,"193.csv","","null","resources/maskTrios/L1BB.jpg","null","",NA,NA,NA,NA,""
"image-keyboard-response",146,138333,"0.0-4.44-2.44","pena802487phcyh",623,"193.csv","","null","resources/images/coin2.png","null","",NA,NA,NA,NA,""
"image-keyboard-response",147,138762,"0.0-4.45-0.45","pena802487phcyh",623,"193.csv","","427.1000003814697","resources/trios/L1T2A3.jpg","39","restless",0.8,0.5,0.4,0.381793802126762,"true"
"image-keyboard-response",148,139169,"0.0-4.45-1.45","pena802487phcyh",623,"193.csv","","null","resources/maskTrios/BBA3.jpg","null","",NA,NA,NA,NA,""
"image-keyboard-response",149,140376,"0.0-4.45-2.45","pena802487phcyh",623,"193.csv","","null","resources/images/coin2.png","null","",NA,NA,NA,NA,""
"image-keyboard-response",150,140811,"0.0-4.46-0.46","pena802487phcyh",623,"193.csv","","433.6000003814697","resources/trios/L1T2A3.jpg","39","restless",0.8,0.6,0.4,0.135087618114391,"true"
"image-keyboard-response",151,141215,"0.0-4.46-1.46","pena802487phcyh",623,"193.csv","","null","resources/maskTrios/BBA3.jpg","null","",NA,NA,NA,NA,""
"image-keyboard-response",152,142428,"0.0-4.46-2.46","pena802487phcyh",623,"193.csv","","null","resources/images/coin2.png","null","",NA,NA,NA,NA,""
"image-keyboard-response",153,142725,"0.0-4.47-0.47","pena802487phcyh",623,"193.csv","","295.6000003814697","resources/trios/L1T2A3.jpg","38","restless",0.8,0.6,0.3,0.125345657061818,"true"
"image-keyboard-response",154,143130,"0.0-4.47-1.47","pena802487phcyh",623,"193.csv","","null","resources/maskTrios/BT2B.jpg","null","",NA,NA,NA,NA,""
"image-keyboard-response",155,144336,"0.0-4.47-2.47","pena802487phcyh",623,"193.csv","","null","resources/images/coin2.png","null","",NA,NA,NA,NA,""
"image-keyboard-response",156,145048,"0.0-4.48-0.48","pena802487phcyh",623,"193.csv","","711.0999984741211","resources/trios/L1T2A3.jpg","38","restless",0.8,0.6,0.2,0.0549669747323427,"true"
"image-keyboard-response",157,145457,"0.0-4.48-1.48","pena802487phcyh",623,"193.csv","","null","resources/maskTrios/BT2B.jpg","null","",NA,NA,NA,NA,""
"image-keyboard-response",158,146671,"0.0-4.48-2.48","pena802487phcyh",623,"193.csv","","null","resources/images/coin2.png","null","",NA,NA,NA,NA,""
"image-keyboard-response",159,146968,"0.0-4.49-0.49","pena802487phcyh",623,"193.csv","","296.0999984741211","resources/trios/L1T2A3.jpg","37","restless",0.8,0.6,0.2,0.383658709930382,"true"
"image-keyboard-response",160,147373,"0.0-4.49-1.49","pena802487phcyh",623,"193.csv","","null","resources/maskTrios/L1BB.jpg","null","",NA,NA,NA,NA,""
"image-keyboard-response",161,148589,"0.0-4.49-2.49","pena802487phcyh",623,"193.csv","","null","resources/images/coin2.png","null","",NA,NA,NA,NA,""
"image-keyboard-response",162,148845,"0.0-4.50-0.50","pena802487phcyh",623,"193.csv","","254.60000038146973","resources/trios/L1T2A3.jpg","37","restless",0.8,0.7,0.2,0.259763748462962,"true"
"image-keyboard-response",163,149252,"0.0-4.50-1.50","pena802487phcyh",623,"193.csv","","null","resources/maskTrios/L1BB.jpg","null","",NA,NA,NA,NA,""
"image-keyboard-response",164,150464,"0.0-4.50-2.50","pena802487phcyh",623,"193.csv","","null","resources/images/coin2.png","null","",NA,NA,NA,NA,""
"image-keyboard-response",165,150770,"0.0-4.51-0.51","pena802487phcyh",623,"193.csv","","305.20000076293945","resources/trios/L1T2A3.jpg","39","restless",0.8,0.7,0.2,0.858990933110132,"false"
"image-keyboard-response",166,151184,"0.0-4.51-1.51","pena802487phcyh",623,"193.csv","","null","resources/maskTrios/BBA3.jpg","null","",NA,NA,NA,NA,""
"image-keyboard-response",167,152399,"0.0-4.51-2.51","pena802487phcyh",623,"193.csv","","null","resources/images/fishbone.png","null","",NA,NA,NA,NA,""
"image-keyboard-response",168,152692,"0.0-4.52-0.52","pena802487phcyh",623,"193.csv","","292.1000003814697","resources/trios/L1T2A3.jpg","39","restless",0.8,0.7,0.2,0.106051884604961,"true"
"image-keyboard-response",169,153102,"0.0-4.52-1.52","pena802487phcyh",623,"193.csv","","null","resources/maskTrios/BBA3.jpg","null","",NA,NA,NA,NA,""
"image-keyboard-response",170,154307,"0.0-4.52-2.52","pena802487phcyh",623,"193.csv","","null","resources/images/coin2.png","null","",NA,NA,NA,NA,""
"image-keyboard-response",171,154622,"0.0-4.53-0.53","pena802487phcyh",623,"193.csv","","313.5","resources/trios/L1T2A3.jpg","38","restless",0.8,0.7,0.2,0.638130476723107,"true"
"image-keyboard-response",172,155037,"0.0-4.53-1.53","pena802487phcyh",623,"193.csv","","null","resources/maskTrios/BT2B.jpg","null","",NA,NA,NA,NA,""
"image-keyboard-response",173,156254,"0.0-4.53-2.53","pena802487phcyh",623,"193.csv","","null","resources/images/coin2.png","null","",NA,NA,NA,NA,""
"image-keyboard-response",174,156530,"0.0-4.54-0.54","pena802487phcyh",623,"193.csv","","274.8000011444092","resources/trios/L1T2A3.jpg","38","restless",0.7,0.6,0.2,0.334272606665632,"true"
"image-keyboard-response",175,156945,"0.0-4.54-1.54","pena802487phcyh",623,"193.csv","","null","resources/maskTrios/BT2B.jpg","null","",NA,NA,NA,NA,""
"image-keyboard-response",176,158153,"0.0-4.54-2.54","pena802487phcyh",623,"193.csv","","null","resources/images/coin2.png","null","",NA,NA,NA,NA,""
"image-keyboard-response",177,158446,"0.0-4.55-0.55","pena802487phcyh",623,"193.csv","","292","resources/trios/L1T2A3.jpg","37","restless",0.7,0.6,0.2,0.911047732239761,"false"
"image-keyboard-response",178,158863,"0.0-4.55-1.55","pena802487phcyh",623,"193.csv","","null","resources/maskTrios/L1BB.jpg","null","",NA,NA,NA,NA,""
"image-keyboard-response",179,160072,"0.0-4.55-2.55","pena802487phcyh",623,"193.csv","","null","resources/images/fishbone.png","null","",NA,NA,NA,NA,""
"image-keyboard-response",180,160416,"0.0-4.56-0.56","pena802487phcyh",623,"193.csv","","342.6000003814697","resources/trios/L1T2A3.jpg","37","restless",0.7,0.6,0.3,0.315687099912636,"true"
"image-keyboard-response",181,160818,"0.0-4.56-1.56","pena802487phcyh",623,"193.csv","","null","resources/maskTrios/L1BB.jpg","null","",NA,NA,NA,NA,""
"image-keyboard-response",182,162031,"0.0-4.56-2.56","pena802487phcyh",623,"193.csv","","null","resources/images/coin2.png","null","",NA,NA,NA,NA,""
"image-keyboard-response",183,162372,"0.0-4.57-0.57","pena802487phcyh",623,"193.csv","","339.3999996185303","resources/trios/L1T2A3.jpg","39","restless",0.7,0.6,0.3,0.600317588097629,"false"
"image-keyboard-response",184,162782,"0.0-4.57-1.57","pena802487phcyh",623,"193.csv","","null","resources/maskTrios/BBA3.jpg","null","",NA,NA,NA,NA,""
"image-keyboard-response",185,163998,"0.0-4.57-2.57","pena802487phcyh",623,"193.csv","","null","resources/images/fishbone.png","null","",NA,NA,NA,NA,""
"image-keyboard-response",186,164255,"0.0-4.58-0.58","pena802487phcyh",623,"193.csv","","255.4000015258789","resources/trios/L1T2A3.jpg","39","restless",0.7,0.6,0.3,0.844297937305704,"false"
"image-keyboard-response",187,164666,"0.0-4.58-1.58","pena802487phcyh",623,"193.csv","","null","resources/maskTrios/BBA3.jpg","null","",NA,NA,NA,NA,""
"image-keyboard-response",188,165870,"0.0-4.58-2.58","pena802487phcyh",623,"193.csv","","null","resources/images/fishbone.png","null","",NA,NA,NA,NA,""
"image-keyboard-response",189,166110,"0.0-4.59-0.59","pena802487phcyh",623,"193.csv","","238.5","resources/trios/L1T2A3.jpg","38","restless",0.6,0.6,0.3,0.707550914738609,"false"
"image-keyboard-response",190,166525,"0.0-4.59-1.59","pena802487phcyh",623,"193.csv","","null","resources/maskTrios/BT2B.jpg","null","",NA,NA,NA,NA,""
"image-keyboard-response",191,167732,"0.0-4.59-2.59","pena802487phcyh",623,"193.csv","","null","resources/images/fishbone.png","null","",NA,NA,NA,NA,""
"image-keyboard-response",192,168015,"0.0-4.60-0.60","pena802487phcyh",623,"193.csv","","282.3000011444092","resources/trios/L1T2A3.jpg","37","restless",0.6,0.6,0.2,0.35291567418526,"true"
"image-keyboard-response",193,168419,"0.0-4.60-1.60","pena802487phcyh",623,"193.csv","","null","resources/maskTrios/L1BB.jpg","null","",NA,NA,NA,NA,""
"image-keyboard-response",194,169631,"0.0-4.60-2.60","pena802487phcyh",623,"193.csv","","null","resources/images/coin2.png","null","",NA,NA,NA,NA,""
"image-keyboard-response",195,170521,"0.0-4.61-0.61","pena802487phcyh",623,"193.csv","","889.3000011444092","resources/trios/L1T2A3.jpg","38","restless",0.6,0.6,0.2,0.833484825790407,"false"
"image-keyboard-response",196,170938,"0.0-4.61-1.61","pena802487phcyh",623,"193.csv","","null","resources/maskTrios/BT2B.jpg","null","",NA,NA,NA,NA,""
"image-keyboard-response",197,172153,"0.0-4.61-2.61","pena802487phcyh",623,"193.csv","","null","resources/images/fishbone.png","null","",NA,NA,NA,NA,""
"image-keyboard-response",198,172995,"0.0-4.62-0.62","pena802487phcyh",623,"193.csv","","841.2999992370605","resources/trios/L1T2A3.jpg","39","restless",0.5,0.6,0.2,0.809456565232224,"false"
"image-keyboard-response",199,173405,"0.0-4.62-1.62","pena802487phcyh",623,"193.csv","","null","resources/maskTrios/BBA3.jpg","null","",NA,NA,NA,NA,""
"image-keyboard-response",200,174615,"0.0-4.62-2.62","pena802487phcyh",623,"193.csv","","null","resources/images/fishbone.png","null","",NA,NA,NA,NA,""
"image-keyboard-response",201,174969,"0.0-4.63-0.63","pena802487phcyh",623,"193.csv","","353.20000076293945","resources/trios/L1T2A3.jpg","38","restless",0.5,0.5,0.2,0.919813660345832,"false"
"image-keyboard-response",202,175374,"0.0-4.63-1.63","pena802487phcyh",623,"193.csv","","null","resources/maskTrios/BT2B.jpg","null","",NA,NA,NA,NA,""
"image-keyboard-response",203,176589,"0.0-4.63-2.63","pena802487phcyh",623,"193.csv","","null","resources/images/fishbone.png","null","",NA,NA,NA,NA,""
"image-keyboard-response",204,176693,"0.0-4.64-0.64","pena802487phcyh",623,"193.csv","","102.5999984741211","resources/trios/L1T2A3.jpg","37","restless",0.5,0.5,0.2,0.708212824423955,"false"
"image-keyboard-response",205,177097,"0.0-4.64-1.64","pena802487phcyh",623,"193.csv","","null","resources/maskTrios/L1BB.jpg","null","",NA,NA,NA,NA,""
"image-keyboard-response",206,178311,"0.0-4.64-2.64","pena802487phcyh",623,"193.csv","","null","resources/images/fishbone.png","null","",NA,NA,NA,NA,""
"image-keyboard-response",207,178741,"0.0-4.65-0.65","pena802487phcyh",623,"193.csv","","428.1999988555908","resources/trios/L1T2A3.jpg","39","restless",0.4,0.5,0.2,0.582086047802076,"false"
"image-keyboard-response",208,179148,"0.0-4.65-1.65","pena802487phcyh",623,"193.csv","","null","resources/maskTrios/BBA3.jpg","null","",NA,NA,NA,NA,""
"image-keyboard-response",209,180363,"0.0-4.65-2.65","pena802487phcyh",623,"193.csv","","null","resources/images/fishbone.png","null","",NA,NA,NA,NA,""
"image-keyboard-response",210,180596,"0.0-4.66-0.66","pena802487phcyh",623,"193.csv","","231.19999885559082","resources/trios/L1T2A3.jpg","39","restless",0.4,0.5,0.1,0.913131543853824,"false"
"image-keyboard-response",211,181007,"0.0-4.66-1.66","pena802487phcyh",623,"193.csv","","null","resources/maskTrios/BBA3.jpg","null","",NA,NA,NA,NA,""
"image-keyboard-response",212,182211,"0.0-4.66-2.66","pena802487phcyh",623,"193.csv","","null","resources/images/fishbone.png","null","",NA,NA,NA,NA,""
"image-keyboard-response",213,182312,"0.0-4.67-0.67","pena802487phcyh",623,"193.csv","","100.20000076293945","resources/trios/L1T2A3.jpg","38","restless",0.4,0.5,0.1,0.692717058017681,"false"
"image-keyboard-response",214,182716,"0.0-4.67-1.67","pena802487phcyh",623,"193.csv","","null","resources/maskTrios/BT2B.jpg","null","",NA,NA,NA,NA,""
"image-keyboard-response",215,183931,"0.0-4.67-2.67","pena802487phcyh",623,"193.csv","","null","resources/images/fishbone.png","null","",NA,NA,NA,NA,""
"image-keyboard-response",216,184342,"0.0-4.68-0.68","pena802487phcyh",623,"193.csv","","409.3999996185303","resources/trios/L1T2A3.jpg","38","restless",0.3,0.4,0.1,0.358099686087,"true"
"image-keyboard-response",217,184759,"0.0-4.68-1.68","pena802487phcyh",623,"193.csv","","null","resources/maskTrios/BT2B.jpg","null","",NA,NA,NA,NA,""
"image-keyboard-response",218,185972,"0.0-4.68-2.68","pena802487phcyh",623,"193.csv","","null","resources/images/coin2.png","null","",NA,NA,NA,NA,""
"image-keyboard-response",219,186509,"0.0-4.69-0.69","pena802487phcyh",623,"193.csv","","535.5","resources/trios/L1T2A3.jpg","38","restless",0.3,0.4,0.1,0.95974504760212,"false"
"image-keyboard-response",220,186921,"0.0-4.69-1.69","pena802487phcyh",623,"193.csv","","null","resources/maskTrios/BT2B.jpg","null","",NA,NA,NA,NA,""
"image-keyboard-response",221,188135,"0.0-4.69-2.69","pena802487phcyh",623,"193.csv","","null","resources/images/fishbone.png","null","",NA,NA,NA,NA,""
"image-keyboard-response",222,188467,"0.0-4.70-0.70","pena802487phcyh",623,"193.csv","","330.9000015258789","resources/trios/L1T2A3.jpg","39","restless",0.4,0.4,0.1,0.509845325620523,"false"
"image-keyboard-response",223,188876,"0.0-4.70-1.70","pena802487phcyh",623,"193.csv","","null","resources/maskTrios/BBA3.jpg","null","",NA,NA,NA,NA,""
"image-keyboard-response",224,190089,"0.0-4.70-2.70","pena802487phcyh",623,"193.csv","","null","resources/images/fishbone.png","null","",NA,NA,NA,NA,""
"image-keyboard-response",225,190257,"0.0-4.71-0.71","pena802487phcyh",623,"193.csv","","166.39999961853027","resources/trios/L1T2A3.jpg","37","restless",0.4,0.4,0.1,0.879431212295347,"false"
"image-keyboard-response",226,190662,"0.0-4.71-1.71","pena802487phcyh",623,"193.csv","","null","resources/maskTrios/L1BB.jpg","null","",NA,NA,NA,NA,""
"image-keyboard-response",227,191865,"0.0-4.71-2.71","pena802487phcyh",623,"193.csv","","null","resources/images/fishbone.png","null","",NA,NA,NA,NA,""
"image-keyboard-response",228,192112,"0.0-4.72-0.72","pena802487phcyh",623,"193.csv","","246.19999885559082","resources/trios/L1T2A3.jpg","37","restless",0.4,0.4,0.1,0.943026179985844,"false"
"image-keyboard-response",229,192523,"0.0-4.72-1.72","pena802487phcyh",623,"193.csv","","null","resources/maskTrios/L1BB.jpg","null","",NA,NA,NA,NA,""
"image-keyboard-response",230,193726,"0.0-4.72-2.72","pena802487phcyh",623,"193.csv","","null","resources/images/fishbone.png","null","",NA,NA,NA,NA,""
"image-keyboard-response",231,193942,"0.0-4.73-0.73","pena802487phcyh",623,"193.csv","","215.0999984741211","resources/trios/L1T2A3.jpg","38","restless",0.4,0.4,0.2,0.309883904331867,"true"
"image-keyboard-response",232,194348,"0.0-4.73-1.73","pena802487phcyh",623,"193.csv","","null","resources/maskTrios/BT2B.jpg","null","",NA,NA,NA,NA,""
"image-keyboard-response",233,195553,"0.0-4.73-2.73","pena802487phcyh",623,"193.csv","","null","resources/images/coin2.png","null","",NA,NA,NA,NA,""
"image-keyboard-response",234,195969,"0.0-4.74-0.74","pena802487phcyh",623,"193.csv","","414.9000015258789","resources/trios/L1T2A3.jpg","39","restless",0.4,0.4,0.2,0.799789591454727,"false"
"image-keyboard-response",235,196375,"0.0-4.74-1.74","pena802487phcyh",623,"193.csv","","null","resources/maskTrios/BBA3.jpg","null","",NA,NA,NA,NA,""
"image-keyboard-response",236,197591,"0.0-4.74-2.74","pena802487phcyh",623,"193.csv","","null","resources/images/fishbone.png","null","",NA,NA,NA,NA,""
"image-keyboard-response",237,197839,"0.0-4.75-0.75","pena802487phcyh",623,"193.csv","","247","resources/trios/L1T2A3.jpg","38","restless",0.4,0.4,0.2,0.853883309981266,"false"
"image-keyboard-response",238,198250,"0.0-4.75-1.75","pena802487phcyh",623,"193.csv","","null","resources/maskTrios/BT2B.jpg","null","",NA,NA,NA,NA,""
"image-keyboard-response",239,199462,"0.0-4.75-2.75","pena802487phcyh",623,"193.csv","","null","resources/images/fishbone.png","null","",NA,NA,NA,NA,""
"image-keyboard-response",240,199769,"0.0-4.76-0.76","pena802487phcyh",623,"193.csv","","306.79999923706055","resources/trios/L1T2A3.jpg","37","restless",0.4,0.5,0.2,0.915971417277792,"false"
"image-keyboard-response",241,200182,"0.0-4.76-1.76","pena802487phcyh",623,"193.csv","","null","resources/maskTrios/L1BB.jpg","null","",NA,NA,NA,NA,""
"image-keyboard-response",242,201397,"0.0-4.76-2.76","pena802487phcyh",623,"193.csv","","null","resources/images/fishbone.png","null","",NA,NA,NA,NA,""
"image-keyboard-response",243,201698,"0.0-4.77-0.77","pena802487phcyh",623,"193.csv","","299.5","resources/trios/L1T2A3.jpg","37","restless",0.4,0.5,0.2,0.581420908087419,"false"
"image-keyboard-response",244,202113,"0.0-4.77-1.77","pena802487phcyh",623,"193.csv","","null","resources/maskTrios/L1BB.jpg","null","",NA,NA,NA,NA,""
"image-keyboard-response",245,203315,"0.0-4.77-2.77","pena802487phcyh",623,"193.csv","","null","resources/images/fishbone.png","null","",NA,NA,NA,NA,""
"image-keyboard-response",246,203685,"0.0-4.78-0.78","pena802487phcyh",623,"193.csv","","368.8000011444092","resources/trios/L1T2A3.jpg","37","restless",0.4,0.5,0.2,0.584046249802231,"false"
"image-keyboard-response",247,204088,"0.0-4.78-1.78","pena802487phcyh",623,"193.csv","","null","resources/maskTrios/L1BB.jpg","null","",NA,NA,NA,NA,""
"image-keyboard-response",248,205292,"0.0-4.78-2.78","pena802487phcyh",623,"193.csv","","null","resources/images/fishbone.png","null","",NA,NA,NA,NA,""
"image-keyboard-response",249,205524,"0.0-4.79-0.79","pena802487phcyh",623,"193.csv","","231.10000038146973","resources/trios/L1T2A3.jpg","39","restless",0.4,0.5,0.2,0.156976524212404,"true"
"image-keyboard-response",250,205936,"0.0-4.79-1.79","pena802487phcyh",623,"193.csv","","null","resources/maskTrios/BBA3.jpg","null","",NA,NA,NA,NA,""
"image-keyboard-response",251,207149,"0.0-4.79-2.79","pena802487phcyh",623,"193.csv","","null","resources/images/coin2.png","null","",NA,NA,NA,NA,""
"image-keyboard-response",252,207722,"0.0-4.80-0.80","pena802487phcyh",623,"193.csv","","572.3000011444092","resources/trios/L1T2A3.jpg","39","restless",0.4,0.5,0.2,0.95338028672349,"false"
"image-keyboard-response",253,208127,"0.0-4.80-1.80","pena802487phcyh",623,"193.csv","","null","resources/maskTrios/BBA3.jpg","null","",NA,NA,NA,NA,""
"image-keyboard-response",254,209330,"0.0-4.80-2.80","pena802487phcyh",623,"193.csv","","null","resources/images/fishbone.png","null","",NA,NA,NA,NA,""
"image-keyboard-response",255,209667,"0.0-4.81-0.81","pena802487phcyh",623,"193.csv","","335.5","resources/trios/L1T2A3.jpg","38","restless",0.4,0.4,0.2,0.227825576931283,"true"
"image-keyboard-response",256,210078,"0.0-4.81-1.81","pena802487phcyh",623,"193.csv","","null","resources/maskTrios/BT2B.jpg","null","",NA,NA,NA,NA,""
"image-keyboard-response",257,211288,"0.0-4.81-2.81","pena802487phcyh",623,"193.csv","","null","resources/images/coin2.png","null","",NA,NA,NA,NA,""
"image-keyboard-response",258,211746,"0.0-4.82-0.82","pena802487phcyh",623,"193.csv","","456.8000011444092","resources/trios/L1T2A3.jpg","37","restless",0.4,0.5,0.2,0.783369476559861,"false"
"image-keyboard-response",259,212162,"0.0-4.82-1.82","pena802487phcyh",623,"193.csv","","null","resources/maskTrios/L1BB.jpg","null","",NA,NA,NA,NA,""
"image-keyboard-response",260,213369,"0.0-4.82-2.82","pena802487phcyh",623,"193.csv","","null","resources/images/fishbone.png","null","",NA,NA,NA,NA,""
"image-keyboard-response",261,213714,"0.0-4.83-0.83","pena802487phcyh",623,"193.csv","","343.20000076293945","resources/trios/L1T2A3.jpg","38","restless",0.4,0.5,0.2,0.58704162828162,"false"
"image-keyboard-response",262,214120,"0.0-4.83-1.83","pena802487phcyh",623,"193.csv","","null","resources/maskTrios/BT2B.jpg","null","",NA,NA,NA,NA,""
"image-keyboard-response",263,215323,"0.0-4.83-2.83","pena802487phcyh",623,"193.csv","","null","resources/images/fishbone.png","null","",NA,NA,NA,NA,""
"image-keyboard-response",264,215581,"0.0-4.84-0.84","pena802487phcyh",623,"193.csv","","257.1999988555908","resources/trios/L1T2A3.jpg","39","restless",0.4,0.5,0.2,0.511788496722864,"false"
"image-keyboard-response",265,215995,"0.0-4.84-1.84","pena802487phcyh",623,"193.csv","","null","resources/maskTrios/BBA3.jpg","null","",NA,NA,NA,NA,""
"image-keyboard-response",266,217202,"0.0-4.84-2.84","pena802487phcyh",623,"193.csv","","null","resources/images/fishbone.png","null","",NA,NA,NA,NA,""
"image-keyboard-response",267,217612,"0.0-4.85-0.85","pena802487phcyh",623,"193.csv","","408.8999996185303","resources/trios/L1T2A3.jpg","37","restless",0.4,0.5,0.3,0.108878043713806,"true"
"image-keyboard-response",268,218026,"0.0-4.85-1.85","pena802487phcyh",623,"193.csv","","null","resources/maskTrios/L1BB.jpg","null","",NA,NA,NA,NA,""
"image-keyboard-response",269,219232,"0.0-4.85-2.85","pena802487phcyh",623,"193.csv","","null","resources/images/coin2.png","null","",NA,NA,NA,NA,""
"image-keyboard-response",270,219465,"0.0-4.86-0.86","pena802487phcyh",623,"193.csv","","232.5","resources/trios/L1T2A3.jpg","37","restless",0.4,0.5,0.3,0.871103853053236,"false"
"image-keyboard-response",271,219877,"0.0-4.86-1.86","pena802487phcyh",623,"193.csv","","null","resources/maskTrios/L1BB.jpg","null","",NA,NA,NA,NA,""
"image-keyboard-response",272,221084,"0.0-4.86-2.86","pena802487phcyh",623,"193.csv","","null","resources/images/fishbone.png","null","",NA,NA,NA,NA,""
"image-keyboard-response",273,221339,"0.0-4.87-0.87","pena802487phcyh",623,"193.csv","","253.10000038146973","resources/trios/L1T2A3.jpg","39","restless",0.4,0.5,0.3,0.0647435571580166,"true"
"image-keyboard-response",274,221751,"0.0-4.87-1.87","pena802487phcyh",623,"193.csv","","null","resources/maskTrios/BBA3.jpg","null","",NA,NA,NA,NA,""
"image-keyboard-response",275,222956,"0.0-4.87-2.87","pena802487phcyh",623,"193.csv","","null","resources/images/coin2.png","null","",NA,NA,NA,NA,""
"image-keyboard-response",276,223291,"0.0-4.88-0.88","pena802487phcyh",623,"193.csv","","334.1999988555908","resources/trios/L1T2A3.jpg","38","restless",0.4,0.5,0.3,0.622644904536207,"false"
"image-keyboard-response",277,223697,"0.0-4.88-1.88","pena802487phcyh",623,"193.csv","","null","resources/maskTrios/BT2B.jpg","null","",NA,NA,NA,NA,""
"image-keyboard-response",278,224909,"0.0-4.88-2.88","pena802487phcyh",623,"193.csv","","null","resources/images/fishbone.png","null","",NA,NA,NA,NA,""
"image-keyboard-response",279,224962,"0.0-4.89-0.89","pena802487phcyh",623,"193.csv","","51.29999923706055","resources/trios/L1T2A3.jpg","39","restless",0.4,0.5,0.3,0.200266808151007,"true"
"image-keyboard-response",280,225371,"0.0-4.89-1.89","pena802487phcyh",623,"193.csv","","null","resources/maskTrios/BBA3.jpg","null","",NA,NA,NA,NA,""
"image-keyboard-response",281,226575,"0.0-4.89-2.89","pena802487phcyh",623,"193.csv","","null","resources/images/coin2.png","null","",NA,NA,NA,NA,""
"image-keyboard-response",282,226824,"0.0-4.90-0.90","pena802487phcyh",623,"193.csv","","247.20000076293945","resources/trios/L1T2A3.jpg","37","restless",0.4,0.5,0.3,0.58734875790479,"false"
"image-keyboard-response",283,227234,"0.0-4.90-1.90","pena802487phcyh",623,"193.csv","","null","resources/maskTrios/L1BB.jpg","null","",NA,NA,NA,NA,""
"image-keyboard-response",284,228441,"0.0-4.90-2.90","pena802487phcyh",623,"193.csv","","null","resources/images/fishbone.png","null","",NA,NA,NA,NA,""
"image-keyboard-response",285,228899,"0.0-4.91-0.91","pena802487phcyh",623,"193.csv","","456.5","resources/trios/L1T2A3.jpg","38","restless",0.4,0.5,0.3,0.105064796214988,"true"
"image-keyboard-response",286,229304,"0.0-4.91-1.91","pena802487phcyh",623,"193.csv","","null","resources/maskTrios/BT2B.jpg","null","",NA,NA,NA,NA,""
"image-keyboard-response",287,230513,"0.0-4.91-2.91","pena802487phcyh",623,"193.csv","","null","resources/images/coin2.png","null","",NA,NA,NA,NA,""
"image-keyboard-response",288,230820,"0.0-4.92-0.92","pena802487phcyh",623,"193.csv","","305.20000076293945","resources/trios/L1T2A3.jpg","37","restless",0.4,0.6,0.3,0.00031404212889985,"true"
"image-keyboard-response",289,231231,"0.0-4.92-1.92","pena802487phcyh",623,"193.csv","","null","resources/maskTrios/L1BB.jpg","null","",NA,NA,NA,NA,""
"image-keyboard-response",290,232441,"0.0-4.92-2.92","pena802487phcyh",623,"193.csv","","null","resources/images/coin2.png","null","",NA,NA,NA,NA,""
"image-keyboard-response",291,232919,"0.0-4.93-0.93","pena802487phcyh",623,"193.csv","","476.79999923706055","resources/trios/L1T2A3.jpg","39","restless",0.4,0.6,0.3,0.959352357248811,"false"
"image-keyboard-response",292,233330,"0.0-4.93-1.93","pena802487phcyh",623,"193.csv","","null","resources/maskTrios/BBA3.jpg","null","",NA,NA,NA,NA,""
"image-keyboard-response",293,234538,"0.0-4.93-2.93","pena802487phcyh",623,"193.csv","","null","resources/images/fishbone.png","null","",NA,NA,NA,NA,""
"image-keyboard-response",294,234789,"0.0-4.94-0.94","pena802487phcyh",623,"193.csv","","249.39999961853027","resources/trios/L1T2A3.jpg","38","restless",0.4,0.6,0.3,0.620593131742117,"false"
"image-keyboard-response",295,235195,"0.0-4.94-1.94","pena802487phcyh",623,"193.csv","","null","resources/maskTrios/BT2B.jpg","null","",NA,NA,NA,NA,""
"image-keyboard-response",296,236399,"0.0-4.94-2.94","pena802487phcyh",623,"193.csv","","null","resources/images/fishbone.png","null","",NA,NA,NA,NA,""
"image-keyboard-response",297,236651,"0.0-4.95-0.95","pena802487phcyh",623,"193.csv","","251","resources/trios/L1T2A3.jpg","37","restless",0.4,0.6,0.3,0.666427129321204,"false"
"image-keyboard-response",298,237057,"0.0-4.95-1.95","pena802487phcyh",623,"193.csv","","null","resources/maskTrios/L1BB.jpg","null","",NA,NA,NA,NA,""
"image-keyboard-response",299,238266,"0.0-4.95-2.95","pena802487phcyh",623,"193.csv","","null","resources/images/fishbone.png","null","",NA,NA,NA,NA,""
"image-keyboard-response",300,238565,"0.0-4.96-0.96","pena802487phcyh",623,"193.csv","","297.70000076293945","resources/trios/L1T2A3.jpg","39","restless",0.4,0.6,0.3,0.238816312521789,"true"
"image-keyboard-response",301,238980,"0.0-4.96-1.96","pena802487phcyh",623,"193.csv","","null","resources/maskTrios/BBA3.jpg","null","",NA,NA,NA,NA,""
"image-keyboard-response",302,240185,"0.0-4.96-2.96","pena802487phcyh",623,"193.csv","","null","resources/images/coin2.png","null","",NA,NA,NA,NA,""
"image-keyboard-response",303,240392,"0.0-4.97-0.97","pena802487phcyh",623,"193.csv","","206.39999961853027","resources/trios/L1T2A3.jpg","39","restless",0.4,0.6,0.3,0.123829574471101,"true"
"image-keyboard-response",304,240794,"0.0-4.97-1.97","pena802487phcyh",623,"193.csv","","null","resources/maskTrios/BBA3.jpg","null","",NA,NA,NA,NA,""
"image-keyboard-response",305,242002,"0.0-4.97-2.97","pena802487phcyh",623,"193.csv","","null","resources/images/coin2.png","null","",NA,NA,NA,NA,""
"image-keyboard-response",306,242371,"0.0-4.98-0.98","pena802487phcyh",623,"193.csv","","367.6000003814697","resources/trios/L1T2A3.jpg","39","restless",0.4,0.6,0.3,0.489285505293715,"false"
"image-keyboard-response",307,242777,"0.0-4.98-1.98","pena802487phcyh",623,"193.csv","","null","resources/maskTrios/BBA3.jpg","null","",NA,NA,NA,NA,""
"image-keyboard-response",308,243990,"0.0-4.98-2.98","pena802487phcyh",623,"193.csv","","null","resources/images/fishbone.png","null","",NA,NA,NA,NA,""
"image-keyboard-response",309,244245,"0.0-4.99-0.99","pena802487phcyh",623,"193.csv","","253.89999961853027","resources/trios/L1T2A3.jpg","37","restless",0.4,0.6,0.3,0.121353415817974,"true"
"image-keyboard-response",310,244655,"0.0-4.99-1.99","pena802487phcyh",623,"193.csv","","null","resources/maskTrios/L1BB.jpg","null","",NA,NA,NA,NA,""
"image-keyboard-response",311,245861,"0.0-4.99-2.99","pena802487phcyh",623,"193.csv","","null","resources/images/coin2.png","null","",NA,NA,NA,NA,""
"image-keyboard-response",312,246170,"0.0-4.100-0.100","pena802487phcyh",623,"193.csv","","307.8000011444092","resources/trios/L1T2A3.jpg","37","restless",0.4,0.5,0.4,0.721416956541553,"false"
"image-keyboard-response",313,246575,"0.0-4.100-1.100","pena802487phcyh",623,"193.csv","","null","resources/maskTrios/L1BB.jpg","null","",NA,NA,NA,NA,""
"image-keyboard-response",314,247789,"0.0-4.100-2.100","pena802487phcyh",623,"193.csv","","null","resources/images/fishbone.png","null","",NA,NA,NA,NA,""
"image-keyboard-response",315,248153,"0.0-4.101-0.101","pena802487phcyh",623,"193.csv","","363.3000011444092","resources/trios/L1T2A3.jpg","38","restless",0.4,0.5,0.4,0.808861115888367,"false"
"image-keyboard-response",316,248567,"0.0-4.101-1.101","pena802487phcyh",623,"193.csv","","null","resources/maskTrios/BT2B.jpg","null","",NA,NA,NA,NA,""
"image-keyboard-response",317,249772,"0.0-4.101-2.101","pena802487phcyh",623,"193.csv","","null","resources/images/fishbone.png","null","",NA,NA,NA,NA,""
"image-keyboard-response",318,249979,"0.0-4.102-0.102","pena802487phcyh",623,"193.csv","","205.60000038146973","resources/trios/L1T2A3.jpg","38","restless",0.4,0.5,0.4,0.225318781531991,"true"
"image-keyboard-response",319,250384,"0.0-4.102-1.102","pena802487phcyh",623,"193.csv","","null","resources/maskTrios/BT2B.jpg","null","",NA,NA,NA,NA,""
"image-keyboard-response",320,251591,"0.0-4.102-2.102","pena802487phcyh",623,"193.csv","","null","resources/images/coin2.png","null","",NA,NA,NA,NA,""
"image-keyboard-response",321,251955,"0.0-4.103-0.103","pena802487phcyh",623,"193.csv","","362.4000015258789","resources/trios/L1T2A3.jpg","37","restless",0.4,0.5,0.4,0.268304391916928,"true"
"image-keyboard-response",322,252364,"0.0-4.103-1.103","pena802487phcyh",623,"193.csv","","null","resources/maskTrios/L1BB.jpg","null","",NA,NA,NA,NA,""
"image-keyboard-response",323,253573,"0.0-4.103-2.103","pena802487phcyh",623,"193.csv","","null","resources/images/coin2.png","null","",NA,NA,NA,NA,""
"image-keyboard-response",324,253871,"0.0-4.104-0.104","pena802487phcyh",623,"193.csv","","296","resources/trios/L1T2A3.jpg","39","restless",0.4,0.5,0.4,0.489706180304409,"false"
"image-keyboard-response",325,254282,"0.0-4.104-1.104","pena802487phcyh",623,"193.csv","","null","resources/maskTrios/BBA3.jpg","null","",NA,NA,NA,NA,""
"image-keyboard-response",326,255492,"0.0-4.104-2.104","pena802487phcyh",623,"193.csv","","null","resources/images/fishbone.png","null","",NA,NA,NA,NA,""
"image-keyboard-response",327,256076,"0.0-4.105-0.105","pena802487phcyh",623,"193.csv","","582.3999996185303","resources/trios/L1T2A3.jpg","39","restless",0.4,0.5,0.4,0.865758654625566,"false"
"image-keyboard-response",328,256486,"0.0-4.105-1.105","pena802487phcyh",623,"193.csv","","null","resources/maskTrios/BBA3.jpg","null","",NA,NA,NA,NA,""
"image-keyboard-response",329,257699,"0.0-4.105-2.105","pena802487phcyh",623,"193.csv","","null","resources/images/fishbone.png","null","",NA,NA,NA,NA,""
"image-keyboard-response",330,258660,"0.0-4.106-0.106","pena802487phcyh",623,"193.csv","","959","resources/trios/L1T2A3.jpg","37","restless",0.4,0.5,0.4,0.955657566081419,"false"
"image-keyboard-response",331,259062,"0.0-4.106-1.106","pena802487phcyh",623,"193.csv","","null","resources/maskTrios/L1BB.jpg","null","",NA,NA,NA,NA,""
"image-keyboard-response",332,260272,"0.0-4.106-2.106","pena802487phcyh",623,"193.csv","","null","resources/images/fishbone.png","null","",NA,NA,NA,NA,""
"image-keyboard-response",333,260827,"0.0-4.107-0.107","pena802487phcyh",623,"193.csv","","554","resources/trios/L1T2A3.jpg","38","restless",0.4,0.5,0.4,0.246176062311006,"true"
"image-keyboard-response",334,261242,"0.0-4.107-1.107","pena802487phcyh",623,"193.csv","","null","resources/maskTrios/BT2B.jpg","null","",NA,NA,NA,NA,""
"image-keyboard-response",335,262451,"0.0-4.107-2.107","pena802487phcyh",623,"193.csv","","null","resources/images/coin2.png","null","",NA,NA,NA,NA,""
"image-keyboard-response",336,262811,"0.0-4.108-0.108","pena802487phcyh",623,"193.csv","","359.5","resources/trios/L1T2A3.jpg","38","restless",0.4,0.5,0.4,0.803336160364729,"false"
"image-keyboard-response",337,263217,"0.0-4.108-1.108","pena802487phcyh",623,"193.csv","","null","resources/maskTrios/BT2B.jpg","null","",NA,NA,NA,NA,""
"image-keyboard-response",338,264432,"0.0-4.108-2.108","pena802487phcyh",623,"193.csv","","null","resources/images/fishbone.png","null","",NA,NA,NA,NA,""
"image-keyboard-response",339,265662,"0.0-4.109-0.109","pena802487phcyh",623,"193.csv","","1228.6999988555908","resources/trios/L1T2A3.jpg","39","restless",0.4,0.5,0.5,0.923228164053588,"false"
"image-keyboard-response",340,266075,"0.0-4.109-1.109","pena802487phcyh",623,"193.csv","","null","resources/maskTrios/BBA3.jpg","null","",NA,NA,NA,NA,""
"image-keyboard-response",341,267278,"0.0-4.109-2.109","pena802487phcyh",623,"193.csv","","null","resources/images/fishbone.png","null","",NA,NA,NA,NA,""
"image-keyboard-response",342,267942,"0.0-4.110-0.110","pena802487phcyh",623,"193.csv","","663","resources/trios/L1T2A3.jpg","39","restless",0.5,0.5,0.5,0.507313718071952,"false"
"image-keyboard-response",343,268353,"0.0-4.110-1.110","pena802487phcyh",623,"193.csv","","null","resources/maskTrios/BBA3.jpg","null","",NA,NA,NA,NA,""
"image-keyboard-response",344,269563,"0.0-4.110-2.110","pena802487phcyh",623,"193.csv","","null","resources/images/fishbone.png","null","",NA,NA,NA,NA,""
"image-keyboard-response",345,270207,"0.0-4.111-0.111","pena802487phcyh",623,"193.csv","","643.3999996185303","resources/trios/L1T2A3.jpg","37","restless",0.5,0.5,0.5,0.418638054354613,"true"
"image-keyboard-response",346,270617,"0.0-4.111-1.111","pena802487phcyh",623,"193.csv","","null","resources/maskTrios/L1BB.jpg","null","",NA,NA,NA,NA,""
"image-keyboard-response",347,271820,"0.0-4.111-2.111","pena802487phcyh",623,"193.csv","","null","resources/images/coin2.png","null","",NA,NA,NA,NA,""
"image-keyboard-response",348,272243,"0.0-4.112-0.112","pena802487phcyh",623,"193.csv","","421.3000011444092","resources/trios/L1T2A3.jpg","37","restless",0.5,0.5,0.5,0.287237021114771,"true"
"image-keyboard-response",349,272659,"0.0-4.112-1.112","pena802487phcyh",623,"193.csv","","null","resources/maskTrios/L1BB.jpg","null","",NA,NA,NA,NA,""
"image-keyboard-response",350,273871,"0.0-4.112-2.112","pena802487phcyh",623,"193.csv","","null","resources/images/coin2.png","null","",NA,NA,NA,NA,""
"image-keyboard-response",351,274138,"0.0-4.113-0.113","pena802487phcyh",623,"193.csv","","266.5999984741211","resources/trios/L1T2A3.jpg","38","restless",0.5,0.5,0.5,0.340710767707366,"true"
"image-keyboard-response",352,274546,"0.0-4.113-1.113","pena802487phcyh",623,"193.csv","","null","resources/maskTrios/BT2B.jpg","null","",NA,NA,NA,NA,""
"image-keyboard-response",353,275761,"0.0-4.113-2.113","pena802487phcyh",623,"193.csv","","null","resources/images/coin2.png","null","",NA,NA,NA,NA,""
"image-keyboard-response",354,276036,"0.0-4.114-0.114","pena802487phcyh",623,"193.csv","","273.5","resources/trios/L1T2A3.jpg","39","restless",0.5,0.5,0.5,0.225690238522509,"true"
"image-keyboard-response",355,276440,"0.0-4.114-1.114","pena802487phcyh",623,"193.csv","","null","resources/maskTrios/BBA3.jpg","null","",NA,NA,NA,NA,""
"image-keyboard-response",356,277651,"0.0-4.114-2.114","pena802487phcyh",623,"193.csv","","null","resources/images/coin2.png","null","",NA,NA,NA,NA,""
"image-keyboard-response",357,278098,"0.0-4.115-0.115","pena802487phcyh",623,"193.csv","","446.1000003814697","resources/trios/L1T2A3.jpg","39","restless",0.5,0.5,0.5,0.423289931157817,"true"
"image-keyboard-response",358,278514,"0.0-4.115-1.115","pena802487phcyh",623,"193.csv","","null","resources/maskTrios/BBA3.jpg","null","",NA,NA,NA,NA,""
"image-keyboard-response",359,279726,"0.0-4.115-2.115","pena802487phcyh",623,"193.csv","","null","resources/images/coin2.png","null","",NA,NA,NA,NA,""
"image-keyboard-response",360,280037,"0.0-4.116-0.116","pena802487phcyh",623,"193.csv","","309.8999996185303","resources/trios/L1T2A3.jpg","38","restless",0.5,0.6,0.5,0.0520036281460108,"true"
"image-keyboard-response",361,280454,"0.0-4.116-1.116","pena802487phcyh",623,"193.csv","","null","resources/maskTrios/BT2B.jpg","null","",NA,NA,NA,NA,""
"image-keyboard-response",362,281669,"0.0-4.116-2.116","pena802487phcyh",623,"193.csv","","null","resources/images/coin2.png","null","",NA,NA,NA,NA,""
"image-keyboard-response",363,281895,"0.0-4.117-0.117","pena802487phcyh",623,"193.csv","","224.19999885559082","resources/trios/L1T2A3.jpg","37","restless",0.5,0.7,0.5,0.401074658991677,"true"
"image-keyboard-response",364,282298,"0.0-4.117-1.117","pena802487phcyh",623,"193.csv","","null","resources/maskTrios/L1BB.jpg","null","",NA,NA,NA,NA,""
"image-keyboard-response",365,283513,"0.0-4.117-2.117","pena802487phcyh",623,"193.csv","","null","resources/images/coin2.png","null","",NA,NA,NA,NA,""
"image-keyboard-response",366,283735,"0.0-4.118-0.118","pena802487phcyh",623,"193.csv","","220.5","resources/trios/L1T2A3.jpg","37","restless",0.5,0.7,0.5,0.9114815654225,"false"
"image-keyboard-response",367,284143,"0.0-4.118-1.118","pena802487phcyh",623,"193.csv","","null","resources/maskTrios/L1BB.jpg","null","",NA,NA,NA,NA,""
"image-keyboard-response",368,285360,"0.0-4.118-2.118","pena802487phcyh",623,"193.csv","","null","resources/images/fishbone.png","null","",NA,NA,NA,NA,""
"image-keyboard-response",369,285638,"0.0-4.119-0.119","pena802487phcyh",623,"193.csv","","276.79999923706055","resources/trios/L1T2A3.jpg","38","restless",0.5,0.7,0.5,0.430877342386575,"true"
"image-keyboard-response",370,286053,"0.0-4.119-1.119","pena802487phcyh",623,"193.csv","","null","resources/maskTrios/BT2B.jpg","null","",NA,NA,NA,NA,""
"image-keyboard-response",371,287261,"0.0-4.119-2.119","pena802487phcyh",623,"193.csv","","null","resources/images/coin2.png","null","",NA,NA,NA,NA,""
"image-keyboard-response",372,287566,"0.0-4.120-0.120","pena802487phcyh",623,"193.csv","","303.79999923706055","resources/trios/L1T2A3.jpg","39","restless",0.5,0.7,0.5,0.00481943186240175,"true"
"image-keyboard-response",373,287982,"0.0-4.120-1.120","pena802487phcyh",623,"193.csv","","null","resources/maskTrios/BBA3.jpg","null","",NA,NA,NA,NA,""
"image-keyboard-response",374,289198,"0.0-4.120-2.120","pena802487phcyh",623,"193.csv","","null","resources/images/coin2.png","null","",NA,NA,NA,NA,""
"image-keyboard-response",375,289368,"0.0-4.121-0.121","pena802487phcyh",623,"193.csv","","168.89999961853027","resources/trios/L1T2A3.jpg","39","restless",0.5,0.7,0.6,0.762907004214616,"false"
"image-keyboard-response",376,289785,"0.0-4.121-1.121","pena802487phcyh",623,"193.csv","","null","resources/maskTrios/BBA3.jpg","null","",NA,NA,NA,NA,""
"image-keyboard-response",377,291001,"0.0-4.121-2.121","pena802487phcyh",623,"193.csv","","null","resources/images/fishbone.png","null","",NA,NA,NA,NA,""
"image-keyboard-response",378,291284,"0.0-4.122-0.122","pena802487phcyh",623,"193.csv","","282.20000076293945","resources/trios/L1T2A3.jpg","38","restless",0.5,0.7,0.6,0.706931821835492,"false"
"image-keyboard-response",379,291689,"0.0-4.122-1.122","pena802487phcyh",623,"193.csv","","null","resources/maskTrios/BT2B.jpg","null","",NA,NA,NA,NA,""
"image-keyboard-response",380,292897,"0.0-4.122-2.122","pena802487phcyh",623,"193.csv","","null","resources/images/fishbone.png","null","",NA,NA,NA,NA,""
"image-keyboard-response",381,293271,"0.0-4.123-0.123","pena802487phcyh",623,"193.csv","","372.6000003814697","resources/trios/L1T2A3.jpg","37","restless",0.5,0.7,0.6,0.839716877131133,"false"
"image-keyboard-response",382,293684,"0.0-4.123-1.123","pena802487phcyh",623,"193.csv","","null","resources/maskTrios/L1BB.jpg","null","",NA,NA,NA,NA,""
"image-keyboard-response",383,294900,"0.0-4.123-2.123","pena802487phcyh",623,"193.csv","","null","resources/images/fishbone.png","null","",NA,NA,NA,NA,""
"image-keyboard-response",384,295203,"0.0-4.124-0.124","pena802487phcyh",623,"193.csv","","302.5","resources/trios/L1T2A3.jpg","38","restless",0.5,0.7,0.7,0.222446788645942,"true"
"image-keyboard-response",385,295608,"0.0-4.124-1.124","pena802487phcyh",623,"193.csv","","null","resources/maskTrios/BT2B.jpg","null","",NA,NA,NA,NA,""
"image-keyboard-response",386,296820,"0.0-4.124-2.124","pena802487phcyh",623,"193.csv","","null","resources/images/coin2.png","null","",NA,NA,NA,NA,""
"image-keyboard-response",387,297361,"0.0-4.125-0.125","pena802487phcyh",623,"193.csv","","540.1000003814697","resources/trios/L1T2A3.jpg","38","restless",0.5,0.7,0.7,0.993454018366041,"false"
"image-keyboard-response",388,297773,"0.0-4.125-1.125","pena802487phcyh",623,"193.csv","","null","resources/maskTrios/BT2B.jpg","null","",NA,NA,NA,NA,""
"image-keyboard-response",389,298987,"0.0-4.125-2.125","pena802487phcyh",623,"193.csv","","null","resources/images/fishbone.png","null","",NA,NA,NA,NA,""
"image-keyboard-response",390,299172,"0.0-4.126-0.126","pena802487phcyh",623,"193.csv","","183.29999923706055","resources/trios/L1T2A3.jpg","39","restless",0.5,0.7,0.8,0.589773989550371,"true"
"image-keyboard-response",391,299588,"0.0-4.126-1.126","pena802487phcyh",623,"193.csv","","null","resources/maskTrios/BBA3.jpg","null","",NA,NA,NA,NA,""
"image-keyboard-response",392,300799,"0.0-4.126-2.126","pena802487phcyh",623,"193.csv","","null","resources/images/coin2.png","null","",NA,NA,NA,NA,""
"image-keyboard-response",393,301239,"0.0-4.127-0.127","pena802487phcyh",623,"193.csv","","438.20000076293945","resources/trios/L1T2A3.jpg","39","restless",0.5,0.7,0.8,0.476649498950275,"true"
"image-keyboard-response",394,301645,"0.0-4.127-1.127","pena802487phcyh",623,"193.csv","","null","resources/maskTrios/BBA3.jpg","null","",NA,NA,NA,NA,""
"image-keyboard-response",395,302848,"0.0-4.127-2.127","pena802487phcyh",623,"193.csv","","null","resources/images/coin2.png","null","",NA,NA,NA,NA,""
"image-keyboard-response",396,303445,"0.0-4.128-0.128","pena802487phcyh",623,"193.csv","","595.8000011444092","resources/trios/L1T2A3.jpg","37","restless",0.6,0.7,0.8,0.645223879580324,"false"
"image-keyboard-response",397,303857,"0.0-4.128-1.128","pena802487phcyh",623,"193.csv","","null","resources/maskTrios/L1BB.jpg","null","",NA,NA,NA,NA,""
"image-keyboard-response",398,305066,"0.0-4.128-2.128","pena802487phcyh",623,"193.csv","","null","resources/images/fishbone.png","null","",NA,NA,NA,NA,""
"image-keyboard-response",399,305160,"0.0-4.129-0.129","pena802487phcyh",623,"193.csv","","92.80000114440918","resources/trios/L1T2A3.jpg","38","restless",0.6,0.7,0.8,0.628470773319824,"true"
"image-keyboard-response",400,305576,"0.0-4.129-1.129","pena802487phcyh",623,"193.csv","","null","resources/maskTrios/BT2B.jpg","null","",NA,NA,NA,NA,""
"image-keyboard-response",401,306782,"0.0-4.129-2.129","pena802487phcyh",623,"193.csv","","null","resources/images/coin2.png","null","",NA,NA,NA,NA,""
"image-keyboard-response",402,307752,"0.0-4.130-0.130","pena802487phcyh",623,"193.csv","","968.3000011444092","resources/trios/L1T2A3.jpg","39","restless",0.6,0.7,0.8,0.507300359922582,"true"
"image-keyboard-response",403,308155,"0.0-4.130-1.130","pena802487phcyh",623,"193.csv","","null","resources/maskTrios/BBA3.jpg","null","",NA,NA,NA,NA,""
"image-keyboard-response",404,309363,"0.0-4.130-2.130","pena802487phcyh",623,"193.csv","","null","resources/images/coin2.png","null","",NA,NA,NA,NA,""
"image-keyboard-response",405,309917,"0.0-4.131-0.131","pena802487phcyh",623,"193.csv","","552.6000003814697","resources/trios/L1T2A3.jpg","39","restless",0.6,0.7,0.8,0.242148743772255,"true"
"image-keyboard-response",406,310326,"0.0-4.131-1.131","pena802487phcyh",623,"193.csv","","null","resources/maskTrios/BBA3.jpg","null","",NA,NA,NA,NA,""
"image-keyboard-response",407,311534,"0.0-4.131-2.131","pena802487phcyh",623,"193.csv","","null","resources/images/coin2.png","null","",NA,NA,NA,NA,""
"image-keyboard-response",408,314907,"0.0-4.132-0.132","pena802487phcyh",623,"193.csv","","3371.3999996185303","resources/trios/L1T2A3.jpg","37","restless",0.6,0.7,0.8,0.337522140259823,"true"
"image-keyboard-response",409,315322,"0.0-4.132-1.132","pena802487phcyh",623,"193.csv","","null","resources/maskTrios/L1BB.jpg","null","",NA,NA,NA,NA,""
"image-keyboard-response",410,316530,"0.0-4.132-2.132","pena802487phcyh",623,"193.csv","","null","resources/images/coin2.png","null","",NA,NA,NA,NA,""
"image-keyboard-response",411,318943,"0.0-4.133-0.133","pena802487phcyh",623,"193.csv","","2412.199998855591","resources/trios/L1T2A3.jpg","39","restless",0.6,0.7,0.8,0.57849222866134,"true"
"image-keyboard-response",412,319356,"0.0-4.133-1.133","pena802487phcyh",623,"193.csv","","null","resources/maskTrios/BBA3.jpg","null","",NA,NA,NA,NA,""
"image-keyboard-response",413,320571,"0.0-4.133-2.133","pena802487phcyh",623,"193.csv","","null","resources/images/coin2.png","null","",NA,NA,NA,NA,""
"image-keyboard-response",414,320949,"0.0-4.134-0.134","pena802487phcyh",623,"193.csv","","376.29999923706055","resources/trios/L1T2A3.jpg","38","restless",0.6,0.7,0.9,0.493876237744275,"true"
"image-keyboard-response",415,321352,"0.0-4.134-1.134","pena802487phcyh",623,"193.csv","","null","resources/maskTrios/BT2B.jpg","null","",NA,NA,NA,NA,""
"image-keyboard-response",416,322571,"0.0-4.134-2.134","pena802487phcyh",623,"193.csv","","null","resources/images/coin2.png","null","",NA,NA,NA,NA,""
"image-keyboard-response",417,323904,"0.0-4.135-0.135","pena802487phcyh",623,"193.csv","","1331.7000007629395","resources/trios/L1T2A3.jpg","37","restless",0.6,0.7,0.9,0.479580713341104,"true"
"image-keyboard-response",418,324309,"0.0-4.135-1.135","pena802487phcyh",623,"193.csv","","null","resources/maskTrios/L1BB.jpg","null","",NA,NA,NA,NA,""
"image-keyboard-response",419,325525,"0.0-4.135-2.135","pena802487phcyh",623,"193.csv","","null","resources/images/coin2.png","null","",NA,NA,NA,NA,""
"image-keyboard-response",420,326941,"0.0-4.136-0.136","pena802487phcyh",623,"193.csv","","1414.1000003814697","resources/trios/L1T2A3.jpg","39","restless",0.6,0.6,0.9,0.0957365003009738,"true"
"image-keyboard-response",421,327357,"0.0-4.136-1.136","pena802487phcyh",623,"193.csv","","null","resources/maskTrios/BBA3.jpg","null","",NA,NA,NA,NA,""
"image-keyboard-response",422,328572,"0.0-4.136-2.136","pena802487phcyh",623,"193.csv","","null","resources/images/coin2.png","null","",NA,NA,NA,NA,""
"image-keyboard-response",423,328911,"0.0-4.137-0.137","pena802487phcyh",623,"193.csv","","337.3999996185303","resources/trios/L1T2A3.jpg","38","restless",0.6,0.6,0.9,0.301225593636335,"true"
"image-keyboard-response",424,329314,"0.0-4.137-1.137","pena802487phcyh",623,"193.csv","","null","resources/maskTrios/BT2B.jpg","null","",NA,NA,NA,NA,""
"image-keyboard-response",425,330528,"0.0-4.137-2.137","pena802487phcyh",623,"193.csv","","null","resources/images/coin2.png","null","",NA,NA,NA,NA,""
"image-keyboard-response",426,330660,"0.0-4.138-0.138","pena802487phcyh",623,"193.csv","","130.89999961853027","resources/trios/L1T2A3.jpg","37","restless",0.6,0.6,0.9,0.231153902466727,"true"
"image-keyboard-response",427,331063,"0.0-4.138-1.138","pena802487phcyh",623,"193.csv","","null","resources/maskTrios/L1BB.jpg","null","",NA,NA,NA,NA,""
"image-keyboard-response",428,332280,"0.0-4.138-2.138","pena802487phcyh",623,"193.csv","","null","resources/images/coin2.png","null","",NA,NA,NA,NA,""
"image-keyboard-response",429,332372,"0.0-4.139-0.139","pena802487phcyh",623,"193.csv","","90.39999961853027","resources/trios/L1T2A3.jpg","38","restless",0.6,0.6,0.9,0.0988573743880268,"true"
"image-keyboard-response",430,332778,"0.0-4.139-1.139","pena802487phcyh",623,"193.csv","","null","resources/maskTrios/BT2B.jpg","null","",NA,NA,NA,NA,""
"image-keyboard-response",431,333988,"0.0-4.139-2.139","pena802487phcyh",623,"193.csv","","null","resources/images/coin2.png","null","",NA,NA,NA,NA,""
"image-keyboard-response",432,334232,"0.0-4.140-0.140","pena802487phcyh",623,"193.csv","","242.30000114440918","resources/trios/L1T2A3.jpg","39","restless",0.6,0.6,0.9,0.504858741259144,"true"
"image-keyboard-response",433,334648,"0.0-4.140-1.140","pena802487phcyh",623,"193.csv","","null","resources/maskTrios/BBA3.jpg","null","",NA,NA,NA,NA,""
"image-keyboard-response",434,335854,"0.0-4.140-2.140","pena802487phcyh",623,"193.csv","","null","resources/images/coin2.png","null","",NA,NA,NA,NA,""
"image-keyboard-response",435,336099,"0.0-4.141-0.141","pena802487phcyh",623,"193.csv","","244.39999961853027","resources/trios/L1T2A3.jpg","38","restless",0.6,0.6,0.9,0.246372730927913,"true"
"image-keyboard-response",436,336512,"0.0-4.141-1.141","pena802487phcyh",623,"193.csv","","null","resources/maskTrios/BT2B.jpg","null","",NA,NA,NA,NA,""
"image-keyboard-response",437,337727,"0.0-4.141-2.141","pena802487phcyh",623,"193.csv","","null","resources/images/coin2.png","null","",NA,NA,NA,NA,""
"image-keyboard-response",438,337973,"0.0-4.142-0.142","pena802487phcyh",623,"193.csv","","244.4000015258789","resources/trios/L1T2A3.jpg","37","restless",0.6,0.6,0.8,0.476486822561359,"true"
"image-keyboard-response",439,338378,"0.0-4.142-1.142","pena802487phcyh",623,"193.csv","","null","resources/maskTrios/L1BB.jpg","null","",NA,NA,NA,NA,""
"image-keyboard-response",440,339588,"0.0-4.142-2.142","pena802487phcyh",623,"193.csv","","null","resources/images/coin2.png","null","",NA,NA,NA,NA,""
"image-keyboard-response",441,339805,"0.0-4.143-0.143","pena802487phcyh",623,"193.csv","","215.79999923706055","resources/trios/L1T2A3.jpg","38","restless",0.6,0.6,0.8,0.728630992031901,"false"
"image-keyboard-response",442,340213,"0.0-4.143-1.143","pena802487phcyh",623,"193.csv","","null","resources/maskTrios/BT2B.jpg","null","",NA,NA,NA,NA,""
"image-keyboard-response",443,341426,"0.0-4.143-2.143","pena802487phcyh",623,"193.csv","","null","resources/images/fishbone.png","null","",NA,NA,NA,NA,""
"image-keyboard-response",444,341724,"0.0-4.144-0.144","pena802487phcyh",623,"193.csv","","295.8999996185303","resources/trios/L1T2A3.jpg","39","restless",0.6,0.6,0.8,0.386756697623249,"true"
"image-keyboard-response",445,342134,"0.0-4.144-1.144","pena802487phcyh",623,"193.csv","","null","resources/maskTrios/BBA3.jpg","null","",NA,NA,NA,NA,""
"image-keyboard-response",446,343347,"0.0-4.144-2.144","pena802487phcyh",623,"193.csv","","null","resources/images/coin2.png","null","",NA,NA,NA,NA,""
"image-keyboard-response",447,343573,"0.0-4.145-0.145","pena802487phcyh",623,"193.csv","","225.10000038146973","resources/trios/L1T2A3.jpg","37","restless",0.6,0.6,0.8,0.245511337454288,"true"
"image-keyboard-response",448,343979,"0.0-4.145-1.145","pena802487phcyh",623,"193.csv","","null","resources/maskTrios/L1BB.jpg","null","",NA,NA,NA,NA,""
"image-keyboard-response",449,345188,"0.0-4.145-2.145","pena802487phcyh",623,"193.csv","","null","resources/images/coin2.png","null","",NA,NA,NA,NA,""
"image-keyboard-response",450,345422,"0.0-4.146-0.146","pena802487phcyh",623,"193.csv","","232.5","resources/trios/L1T2A3.jpg","38","restless",0.6,0.6,0.8,0.259391457419949,"true"
"image-keyboard-response",451,345826,"0.0-4.146-1.146","pena802487phcyh",623,"193.csv","","null","resources/maskTrios/BT2B.jpg","null","",NA,NA,NA,NA,""
"image-keyboard-response",452,347029,"0.0-4.146-2.146","pena802487phcyh",623,"193.csv","","null","resources/images/coin2.png","null","",NA,NA,NA,NA,""
"image-keyboard-response",453,347264,"0.0-4.147-0.147","pena802487phcyh",623,"193.csv","","234.30000114440918","resources/trios/L1T2A3.jpg","39","restless",0.6,0.6,0.8,0.524359544693588,"true"
"image-keyboard-response",454,347681,"0.0-4.147-1.147","pena802487phcyh",623,"193.csv","","null","resources/maskTrios/BBA3.jpg","null","",NA,NA,NA,NA,""
"image-keyboard-response",455,348897,"0.0-4.147-2.147","pena802487phcyh",623,"193.csv","","null","resources/images/coin2.png","null","",NA,NA,NA,NA,""
"image-keyboard-response",456,349124,"0.0-4.148-0.148","pena802487phcyh",623,"193.csv","","225.70000076293945","resources/trios/L1T2A3.jpg","37","restless",0.7,0.6,0.8,0.990508057860892,"false"
"image-keyboard-response",457,349529,"0.0-4.148-1.148","pena802487phcyh",623,"193.csv","","null","resources/maskTrios/L1BB.jpg","null","",NA,NA,NA,NA,""
"image-keyboard-response",458,350732,"0.0-4.148-2.148","pena802487phcyh",623,"193.csv","","null","resources/images/fishbone.png","null","",NA,NA,NA,NA,""
"image-keyboard-response",459,351101,"0.0-4.149-0.149","pena802487phcyh",623,"193.csv","","367.6000003814697","resources/trios/L1T2A3.jpg","38","restless",0.7,0.6,0.8,0.290593423378333,"true"
"image-keyboard-response",460,351505,"0.0-4.149-1.149","pena802487phcyh",623,"193.csv","","null","resources/maskTrios/BT2B.jpg","null","",NA,NA,NA,NA,""
"image-keyboard-response",461,352724,"0.0-4.149-2.149","pena802487phcyh",623,"193.csv","","null","resources/images/coin2.png","null","",NA,NA,NA,NA,""
"image-keyboard-response",462,353027,"0.0-4.150-0.150","pena802487phcyh",623,"193.csv","","301.29999923706055","resources/trios/L1T2A3.jpg","37","restless",0.7,0.6,0.7,0.864074306930676,"false"
"image-keyboard-response",463,353441,"0.0-4.150-1.150","pena802487phcyh",623,"193.csv","","null","resources/maskTrios/L1BB.jpg","null","",NA,NA,NA,NA,""
"image-keyboard-response",464,354648,"0.0-4.150-2.150","pena802487phcyh",623,"193.csv","","null","resources/images/fishbone.png","null","",NA,NA,NA,NA,""
"image-keyboard-response",465,354947,"0.0-4.151-0.151","pena802487phcyh",623,"193.csv","","296.8999996185303","resources/trios/L1T2A3.jpg","38","restless",0.6,0.6,0.7,0.0547488432371843,"true"
"image-keyboard-response",466,355365,"0.0-4.151-1.151","pena802487phcyh",623,"193.csv","","null","resources/maskTrios/BT2B.jpg","null","",NA,NA,NA,NA,""
"image-keyboard-response",467,356580,"0.0-4.151-2.151","pena802487phcyh",623,"193.csv","","null","resources/images/coin2.png","null","",NA,NA,NA,NA,""
"image-keyboard-response",468,356863,"0.0-4.152-0.152","pena802487phcyh",623,"193.csv","","282.29999923706055","resources/trios/L1T2A3.jpg","39","restless",0.6,0.6,0.7,0.0208634029643333,"true"
"image-keyboard-response",469,357281,"0.0-4.152-1.152","pena802487phcyh",623,"193.csv","","null","resources/maskTrios/BBA3.jpg","null","",NA,NA,NA,NA,""
"image-keyboard-response",470,358486,"0.0-4.152-2.152","pena802487phcyh",623,"193.csv","","null","resources/images/coin2.png","null","",NA,NA,NA,NA,""
"image-keyboard-response",471,358836,"0.0-4.153-0.153","pena802487phcyh",623,"193.csv","","348.79999923706055","resources/trios/L1T2A3.jpg","38","restless",0.6,0.6,0.7,0.103703023220193,"true"
"image-keyboard-response",472,359250,"0.0-4.153-1.153","pena802487phcyh",623,"193.csv","","null","resources/maskTrios/BT2B.jpg","null","",NA,NA,NA,NA,""
"image-keyboard-response",473,360457,"0.0-4.153-2.153","pena802487phcyh",623,"193.csv","","null","resources/images/coin2.png","null","",NA,NA,NA,NA,""
"image-keyboard-response",474,360680,"0.0-4.154-0.154","pena802487phcyh",623,"193.csv","","221.0999984741211","resources/trios/L1T2A3.jpg","39","restless",0.6,0.6,0.7,0.894578856294626,"false"
"image-keyboard-response",475,361091,"0.0-4.154-1.154","pena802487phcyh",623,"193.csv","","null","resources/maskTrios/BBA3.jpg","null","",NA,NA,NA,NA,""
"image-keyboard-response",476,362296,"0.0-4.154-2.154","pena802487phcyh",623,"193.csv","","null","resources/images/fishbone.png","null","",NA,NA,NA,NA,""
"image-keyboard-response",477,362486,"0.0-4.155-0.155","pena802487phcyh",623,"193.csv","","188.10000038146973","resources/trios/L1T2A3.jpg","37","restless",0.6,0.6,0.7,0.735572051676363,"false"
"image-keyboard-response",478,362896,"0.0-4.155-1.155","pena802487phcyh",623,"193.csv","","null","resources/maskTrios/L1BB.jpg","null","",NA,NA,NA,NA,""
"image-keyboard-response",479,364108,"0.0-4.155-2.155","pena802487phcyh",623,"193.csv","","null","resources/images/fishbone.png","null","",NA,NA,NA,NA,""
"image-keyboard-response",480,364235,"0.0-4.156-0.156","pena802487phcyh",623,"193.csv","","125.29999923706055","resources/trios/L1T2A3.jpg","38","restless",0.6,0.5,0.7,0.588208427971428,"false"
"image-keyboard-response",481,364651,"0.0-4.156-1.156","pena802487phcyh",623,"193.csv","","null","resources/maskTrios/BT2B.jpg","null","",NA,NA,NA,NA,""
"image-keyboard-response",482,365867,"0.0-4.156-2.156","pena802487phcyh",623,"193.csv","","null","resources/images/fishbone.png","null","",NA,NA,NA,NA,""
"image-keyboard-response",483,366163,"0.0-4.157-0.157","pena802487phcyh",623,"193.csv","","295.3000011444092","resources/trios/L1T2A3.jpg","39","restless",0.6,0.5,0.6,0.554716460809744,"true"
"image-keyboard-response",484,366568,"0.0-4.157-1.157","pena802487phcyh",623,"193.csv","","null","resources/maskTrios/BBA3.jpg","null","",NA,NA,NA,NA,""
"image-keyboard-response",485,367783,"0.0-4.157-2.157","pena802487phcyh",623,"193.csv","","null","resources/images/coin2.png","null","",NA,NA,NA,NA,""
"image-keyboard-response",486,368082,"0.0-4.158-0.158","pena802487phcyh",623,"193.csv","","297.6999988555908","resources/trios/L1T2A3.jpg","39","restless",0.6,0.5,0.6,0.560451120811962,"true"
"image-keyboard-response",487,368492,"0.0-4.158-1.158","pena802487phcyh",623,"193.csv","","null","resources/maskTrios/BBA3.jpg","null","",NA,NA,NA,NA,""
"image-keyboard-response",488,369698,"0.0-4.158-2.158","pena802487phcyh",623,"193.csv","","null","resources/images/coin2.png","null","",NA,NA,NA,NA,""
"image-keyboard-response",489,369983,"0.0-4.159-0.159","pena802487phcyh",623,"193.csv","","283.70000076293945","resources/trios/L1T2A3.jpg","37","restless",0.6,0.5,0.6,0.77081177797319,"false"
"image-keyboard-response",490,370389,"0.0-4.159-1.159","pena802487phcyh",623,"193.csv","","null","resources/maskTrios/L1BB.jpg","null","",NA,NA,NA,NA,""
"image-keyboard-response",491,371604,"0.0-4.159-2.159","pena802487phcyh",623,"193.csv","","null","resources/images/fishbone.png","null","",NA,NA,NA,NA,""
"image-keyboard-response",492,371879,"0.0-4.160-0.160","pena802487phcyh",623,"193.csv","","273.6999988555908","resources/trios/L1T2A3.jpg","38","restless",0.6,0.5,0.6,0.700490165751078,"false"
"image-keyboard-response",493,372294,"0.0-4.160-1.160","pena802487phcyh",623,"193.csv","","null","resources/maskTrios/BT2B.jpg","null","",NA,NA,NA,NA,""
"image-keyboard-response",494,373499,"0.0-4.160-2.160","pena802487phcyh",623,"193.csv","","null","resources/images/fishbone.png","null","",NA,NA,NA,NA,""
"image-keyboard-response",495,373738,"0.0-4.161-0.161","pena802487phcyh",623,"193.csv","","237.5","resources/trios/L1T2A3.jpg","38","restless",0.6,0.5,0.6,0.797581353183159,"false"
"image-keyboard-response",496,374147,"0.0-4.161-1.161","pena802487phcyh",623,"193.csv","","null","resources/maskTrios/BT2B.jpg","null","",NA,NA,NA,NA,""
"image-keyboard-response",497,375359,"0.0-4.161-2.161","pena802487phcyh",623,"193.csv","","null","resources/images/fishbone.png","null","",NA,NA,NA,NA,""
"image-keyboard-response",498,375766,"0.0-4.162-0.162","pena802487phcyh",623,"193.csv","","406.3999996185303","resources/trios/L1T2A3.jpg","38","restless",0.6,0.5,0.7,0.554500586865775,"false"
"image-keyboard-response",499,376177,"0.0-4.162-1.162","pena802487phcyh",623,"193.csv","","null","resources/maskTrios/BT2B.jpg","null","",NA,NA,NA,NA,""
"image-keyboard-response",500,377390,"0.0-4.162-2.162","pena802487phcyh",623,"193.csv","","null","resources/images/fishbone.png","null","",NA,NA,NA,NA,""
"image-keyboard-response",501,377655,"0.0-4.163-0.163","pena802487phcyh",623,"193.csv","","263.70000076293945","resources/trios/L1T2A3.jpg","37","restless",0.6,0.4,0.7,0.327458161528514,"true"
"image-keyboard-response",502,378060,"0.0-4.163-1.163","pena802487phcyh",623,"193.csv","","null","resources/maskTrios/L1BB.jpg","null","",NA,NA,NA,NA,""
"image-keyboard-response",503,379273,"0.0-4.163-2.163","pena802487phcyh",623,"193.csv","","null","resources/images/coin2.png","null","",NA,NA,NA,NA,""
"image-keyboard-response",504,379583,"0.0-4.164-0.164","pena802487phcyh",623,"193.csv","","308.8999996185303","resources/trios/L1T2A3.jpg","39","restless",0.6,0.4,0.7,0.498654947932848,"true"
"image-keyboard-response",505,379987,"0.0-4.164-1.164","pena802487phcyh",623,"193.csv","","null","resources/maskTrios/BBA3.jpg","null","",NA,NA,NA,NA,""
"image-keyboard-response",506,381193,"0.0-4.164-2.164","pena802487phcyh",623,"193.csv","","null","resources/images/coin2.png","null","",NA,NA,NA,NA,""
"image-keyboard-response",507,381508,"0.0-4.165-0.165","pena802487phcyh",623,"193.csv","","313.1999988555908","resources/trios/L1T2A3.jpg","37","restless",0.6,0.4,0.7,0.25409555853834,"true"
"image-keyboard-response",508,381924,"0.0-4.165-1.165","pena802487phcyh",623,"193.csv","","null","resources/maskTrios/L1BB.jpg","null","",NA,NA,NA,NA,""
"image-keyboard-response",509,383132,"0.0-4.165-2.165","pena802487phcyh",623,"193.csv","","null","resources/images/coin2.png","null","",NA,NA,NA,NA,""
"image-keyboard-response",510,383408,"0.0-4.166-0.166","pena802487phcyh",623,"193.csv","","274.29999923706055","resources/trios/L1T2A3.jpg","39","restless",0.6,0.4,0.7,0.0662981163520329,"true"
"image-keyboard-response",511,383812,"0.0-4.166-1.166","pena802487phcyh",623,"193.csv","","null","resources/maskTrios/BBA3.jpg","null","",NA,NA,NA,NA,""
"image-keyboard-response",512,385025,"0.0-4.166-2.166","pena802487phcyh",623,"193.csv","","null","resources/images/coin2.png","null","",NA,NA,NA,NA,""
"image-keyboard-response",513,385299,"0.0-4.167-0.167","pena802487phcyh",623,"193.csv","","272.29999923706055","resources/trios/L1T2A3.jpg","37","restless",0.6,0.4,0.7,0.437427577543811,"true"
"image-keyboard-response",514,385708,"0.0-4.167-1.167","pena802487phcyh",623,"193.csv","","null","resources/maskTrios/L1BB.jpg","null","",NA,NA,NA,NA,""
"image-keyboard-response",515,386916,"0.0-4.167-2.167","pena802487phcyh",623,"193.csv","","null","resources/images/coin2.png","null","",NA,NA,NA,NA,""
"image-keyboard-response",516,387133,"0.0-4.168-0.168","pena802487phcyh",623,"193.csv","","216","resources/trios/L1T2A3.jpg","39","restless",0.6,0.4,0.6,0.945472388260786,"false"
"image-keyboard-response",517,387544,"0.0-4.168-1.168","pena802487phcyh",623,"193.csv","","null","resources/maskTrios/BBA3.jpg","null","",NA,NA,NA,NA,""
"image-keyboard-response",518,388760,"0.0-4.168-2.168","pena802487phcyh",623,"193.csv","","null","resources/images/fishbone.png","null","",NA,NA,NA,NA,""
"image-keyboard-response",519,389057,"0.0-4.169-0.169","pena802487phcyh",623,"193.csv","","296","resources/trios/L1T2A3.jpg","38","restless",0.5,0.5,0.6,0.895410707564041,"false"
"image-keyboard-response",520,389472,"0.0-4.169-1.169","pena802487phcyh",623,"193.csv","","null","resources/maskTrios/BT2B.jpg","null","",NA,NA,NA,NA,""
"image-keyboard-response",521,390686,"0.0-4.169-2.169","pena802487phcyh",623,"193.csv","","null","resources/images/fishbone.png","null","",NA,NA,NA,NA,""
"image-keyboard-response",522,390796,"0.0-4.170-0.170","pena802487phcyh",623,"193.csv","","108.19999885559082","resources/trios/L1T2A3.jpg","37","restless",0.5,0.5,0.6,0.534625703225849,"false"
"image-keyboard-response",523,391204,"0.0-4.170-1.170","pena802487phcyh",623,"193.csv","","null","resources/maskTrios/L1BB.jpg","null","",NA,NA,NA,NA,""
"image-keyboard-response",524,392414,"0.0-4.170-2.170","pena802487phcyh",623,"193.csv","","null","resources/images/fishbone.png","null","",NA,NA,NA,NA,""
"image-keyboard-response",525,392694,"0.0-4.171-0.171","pena802487phcyh",623,"193.csv","","278.3000011444092","resources/trios/L1T2A3.jpg","39","restless",0.5,0.5,0.6,0.53780256413716,"true"
"image-keyboard-response",526,393114,"0.0-4.171-1.171","pena802487phcyh",623,"193.csv","","null","resources/maskTrios/BBA3.jpg","null","",NA,NA,NA,NA,""
"image-keyboard-response",527,394326,"0.0-4.171-2.171","pena802487phcyh",623,"193.csv","","null","resources/images/coin2.png","null","",NA,NA,NA,NA,""
"image-keyboard-response",528,394336,"0.0-4.172-0.172","pena802487phcyh",623,"193.csv","","8.100000381469727","resources/trios/L1T2A3.jpg","39","restless",0.4,0.5,0.6,0.536966043377172,"true"
"image-keyboard-response",529,394744,"0.0-4.172-1.172","pena802487phcyh",623,"193.csv","","null","resources/maskTrios/BBA3.jpg","null","",NA,NA,NA,NA,""
"image-keyboard-response",530,395949,"0.0-4.172-2.172","pena802487phcyh",623,"193.csv","","null","resources/images/coin2.png","null","",NA,NA,NA,NA,""
"image-keyboard-response",531,396166,"0.0-4.173-0.173","pena802487phcyh",623,"193.csv","","215.70000076293945","resources/trios/L1T2A3.jpg","37","restless",0.4,0.5,0.6,0.0417201336204942,"true"
"image-keyboard-response",532,396572,"0.0-4.173-1.173","pena802487phcyh",623,"193.csv","","null","resources/maskTrios/L1BB.jpg","null","",NA,NA,NA,NA,""
"image-keyboard-response",533,397777,"0.0-4.173-2.173","pena802487phcyh",623,"193.csv","","null","resources/images/coin2.png","null","",NA,NA,NA,NA,""
"image-keyboard-response",534,398068,"0.0-4.174-0.174","pena802487phcyh",623,"193.csv","","290.1000003814697","resources/trios/L1T2A3.jpg","38","restless",0.4,0.5,0.6,0.547510513025847,"false"
"image-keyboard-response",535,398472,"0.0-4.174-1.174","pena802487phcyh",623,"193.csv","","null","resources/maskTrios/BT2B.jpg","null","",NA,NA,NA,NA,""
"image-keyboard-response",536,399685,"0.0-4.174-2.174","pena802487phcyh",623,"193.csv","","null","resources/images/fishbone.png","null","",NA,NA,NA,NA,""
"image-keyboard-response",537,400151,"0.0-4.175-0.175","pena802487phcyh",623,"193.csv","","464.5999984741211","resources/trios/L1T2A3.jpg","39","restless",0.4,0.5,0.6,0.222983682681074,"true"
"image-keyboard-response",538,400560,"0.0-4.175-1.175","pena802487phcyh",623,"193.csv","","null","resources/maskTrios/BBA3.jpg","null","",NA,NA,NA,NA,""
"image-keyboard-response",539,401763,"0.0-4.175-2.175","pena802487phcyh",623,"193.csv","","null","resources/images/coin2.png","null","",NA,NA,NA,NA,""
"image-keyboard-response",540,402076,"0.0-4.176-0.176","pena802487phcyh",623,"193.csv","","312.29999923706055","resources/trios/L1T2A3.jpg","39","restless",0.4,0.5,0.6,0.304704877421429,"true"
"image-keyboard-response",541,402487,"0.0-4.176-1.176","pena802487phcyh",623,"193.csv","","null","resources/maskTrios/BBA3.jpg","null","",NA,NA,NA,NA,""
"image-keyboard-response",542,403697,"0.0-4.176-2.176","pena802487phcyh",623,"193.csv","","null","resources/images/coin2.png","null","",NA,NA,NA,NA,""
"image-keyboard-response",543,404025,"0.0-4.177-0.177","pena802487phcyh",623,"193.csv","","326.5","resources/trios/L1T2A3.jpg","39","restless",0.4,0.6,0.6,0.628728285898684,"false"
"image-keyboard-response",544,404433,"0.0-4.177-1.177","pena802487phcyh",623,"193.csv","","null","resources/maskTrios/BBA3.jpg","null","",NA,NA,NA,NA,""
"image-keyboard-response",545,405639,"0.0-4.177-2.177","pena802487phcyh",623,"193.csv","","null","resources/images/fishbone.png","null","",NA,NA,NA,NA,""
"image-keyboard-response",546,405911,"0.0-4.178-0.178","pena802487phcyh",623,"193.csv","","271.3999996185303","resources/trios/L1T2A3.jpg","37","restless",0.4,0.6,0.6,0.0341987639735826,"true"
"image-keyboard-response",547,406322,"0.0-4.178-1.178","pena802487phcyh",623,"193.csv","","null","resources/maskTrios/L1BB.jpg","null","",NA,NA,NA,NA,""
"image-keyboard-response",548,407539,"0.0-4.178-2.178","pena802487phcyh",623,"193.csv","","null","resources/images/coin2.png","null","",NA,NA,NA,NA,""
"image-keyboard-response",549,407828,"0.0-4.179-0.179","pena802487phcyh",623,"193.csv","","288","resources/trios/L1T2A3.jpg","37","restless",0.3,0.6,0.6,0.0835270784655675,"true"
"image-keyboard-response",550,408238,"0.0-4.179-1.179","pena802487phcyh",623,"193.csv","","null","resources/maskTrios/L1BB.jpg","null","",NA,NA,NA,NA,""
"image-keyboard-response",551,409442,"0.0-4.179-2.179","pena802487phcyh",623,"193.csv","","null","resources/images/coin2.png","null","",NA,NA,NA,NA,""
"image-keyboard-response",552,409774,"0.0-4.180-0.180","pena802487phcyh",623,"193.csv","","330.5999984741211","resources/trios/L1T2A3.jpg","38","restless",0.3,0.6,0.6,0.238250522892166,"true"
"image-keyboard-response",553,410191,"0.0-4.180-1.180","pena802487phcyh",623,"193.csv","","null","resources/maskTrios/BT2B.jpg","null","",NA,NA,NA,NA,""
"image-keyboard-response",554,411401,"0.0-4.180-2.180","pena802487phcyh",623,"193.csv","","null","resources/images/coin2.png","null","",NA,NA,NA,NA,""
"image-keyboard-response",555,411793,"0.0-4.181-0.181","pena802487phcyh",623,"193.csv","","391.1999988555908","resources/trios/L1T2A3.jpg","38","restless",0.3,0.6,0.6,0.103563999960007,"true"
"image-keyboard-response",556,412198,"0.0-4.181-1.181","pena802487phcyh",623,"193.csv","","null","resources/maskTrios/BT2B.jpg","null","",NA,NA,NA,NA,""
"image-keyboard-response",557,413413,"0.0-4.181-2.181","pena802487phcyh",623,"193.csv","","null","resources/images/coin2.png","null","",NA,NA,NA,NA,""
"image-keyboard-response",558,413718,"0.0-4.182-0.182","pena802487phcyh",623,"193.csv","","304","resources/trios/L1T2A3.jpg","37","restless",0.3,0.6,0.6,0.638712584066383,"false"
"image-keyboard-response",559,414124,"0.0-4.182-1.182","pena802487phcyh",623,"193.csv","","null","resources/maskTrios/L1BB.jpg","null","",NA,NA,NA,NA,""
"image-keyboard-response",560,415326,"0.0-4.182-2.182","pena802487phcyh",623,"193.csv","","null","resources/images/fishbone.png","null","",NA,NA,NA,NA,""
"image-keyboard-response",561,415681,"0.0-4.183-0.183","pena802487phcyh",623,"193.csv","","354.1000003814697","resources/trios/L1T2A3.jpg","39","restless",0.3,0.6,0.5,0.576269179228177,"false"
"image-keyboard-response",562,416085,"0.0-4.183-1.183","pena802487phcyh",623,"193.csv","","null","resources/maskTrios/BBA3.jpg","null","",NA,NA,NA,NA,""
"image-keyboard-response",563,417288,"0.0-4.183-2.183","pena802487phcyh",623,"193.csv","","null","resources/images/fishbone.png","null","",NA,NA,NA,NA,""
"image-keyboard-response",564,417475,"0.0-4.184-0.184","pena802487phcyh",623,"193.csv","","186.5","resources/trios/L1T2A3.jpg","38","restless",0.3,0.6,0.5,0.683208417372316,"false"
"image-keyboard-response",565,417881,"0.0-4.184-1.184","pena802487phcyh",623,"193.csv","","null","resources/maskTrios/BT2B.jpg","null","",NA,NA,NA,NA,""
"image-keyboard-response",566,419086,"0.0-4.184-2.184","pena802487phcyh",623,"193.csv","","null","resources/images/fishbone.png","null","",NA,NA,NA,NA,""
"image-keyboard-response",567,419224,"0.0-4.185-0.185","pena802487phcyh",623,"193.csv","","137.20000076293945","resources/trios/L1T2A3.jpg","37","restless",0.3,0.6,0.5,0.566991230740793,"false"
"image-keyboard-response",568,419629,"0.0-4.185-1.185","pena802487phcyh",623,"193.csv","","null","resources/maskTrios/L1BB.jpg","null","",NA,NA,NA,NA,""
"image-keyboard-response",569,420832,"0.0-4.185-2.185","pena802487phcyh",623,"193.csv","","null","resources/images/fishbone.png","null","",NA,NA,NA,NA,""
"image-keyboard-response",570,420948,"0.0-4.186-0.186","pena802487phcyh",623,"193.csv","","115.29999923706055","resources/trios/L1T2A3.jpg","38","restless",0.3,0.6,0.5,0.977009951751577,"false"
"image-keyboard-response",571,421362,"0.0-4.186-1.186","pena802487phcyh",623,"193.csv","","null","resources/maskTrios/BT2B.jpg","null","",NA,NA,NA,NA,""
"image-keyboard-response",572,422577,"0.0-4.186-2.186","pena802487phcyh",623,"193.csv","","null","resources/images/fishbone.png","null","",NA,NA,NA,NA,""
"image-keyboard-response",573,422784,"0.0-4.187-0.187","pena802487phcyh",623,"193.csv","","206.10000038146973","resources/trios/L1T2A3.jpg","39","restless",0.3,0.6,0.5,0.269621530905088,"true"
"image-keyboard-response",574,423200,"0.0-4.187-1.187","pena802487phcyh",623,"193.csv","","null","resources/maskTrios/BBA3.jpg","null","",NA,NA,NA,NA,""
"image-keyboard-response",575,424415,"0.0-4.187-2.187","pena802487phcyh",623,"193.csv","","null","resources/images/coin2.png","null","",NA,NA,NA,NA,""
"image-keyboard-response",576,424723,"0.0-4.188-0.188","pena802487phcyh",623,"193.csv","","307.3999996185303","resources/trios/L1T2A3.jpg","39","restless",0.3,0.6,0.5,0.391639949545381,"true"
"image-keyboard-response",577,425138,"0.0-4.188-1.188","pena802487phcyh",623,"193.csv","","null","resources/maskTrios/BBA3.jpg","null","",NA,NA,NA,NA,""
"image-keyboard-response",578,426352,"0.0-4.188-2.188","pena802487phcyh",623,"193.csv","","null","resources/images/coin2.png","null","",NA,NA,NA,NA,""
"image-keyboard-response",579,426650,"0.0-4.189-0.189","pena802487phcyh",623,"193.csv","","296.79999923706055","resources/trios/L1T2A3.jpg","37","restless",0.3,0.6,0.5,0.493697791666142,"false"
"image-keyboard-response",580,427053,"0.0-4.189-1.189","pena802487phcyh",623,"193.csv","","null","resources/maskTrios/L1BB.jpg","null","",NA,NA,NA,NA,""
"image-keyboard-response",581,428268,"0.0-4.189-2.189","pena802487phcyh",623,"193.csv","","null","resources/images/fishbone.png","null","",NA,NA,NA,NA,""
"image-keyboard-response",582,428431,"0.0-4.190-0.190","pena802487phcyh",623,"193.csv","","162","resources/trios/L1T2A3.jpg","39","restless",0.3,0.6,0.5,0.639183588667812,"false"
"image-keyboard-response",583,428847,"0.0-4.190-1.190","pena802487phcyh",623,"193.csv","","null","resources/maskTrios/BBA3.jpg","null","",NA,NA,NA,NA,""
"image-keyboard-response",584,430048,"0.0-4.190-2.190","pena802487phcyh",623,"193.csv","","null","resources/images/fishbone.png","null","",NA,NA,NA,NA,""
"image-keyboard-response",585,430341,"0.0-4.191-0.191","pena802487phcyh",623,"193.csv","","292","resources/trios/L1T2A3.jpg","38","restless",0.3,0.6,0.5,0.383089460631129,"true"
"image-keyboard-response",586,430750,"0.0-4.191-1.191","pena802487phcyh",623,"193.csv","","null","resources/maskTrios/BT2B.jpg","null","",NA,NA,NA,NA,""
"image-keyboard-response",587,431965,"0.0-4.191-2.191","pena802487phcyh",623,"193.csv","","null","resources/images/coin2.png","null","",NA,NA,NA,NA,""
"image-keyboard-response",588,432356,"0.0-4.192-0.192","pena802487phcyh",623,"193.csv","","389.8999996185303","resources/trios/L1T2A3.jpg","38","restless",0.3,0.6,0.5,0.117658061733376,"true"
"image-keyboard-response",589,432765,"0.0-4.192-1.192","pena802487phcyh",623,"193.csv","","null","resources/maskTrios/BT2B.jpg","null","",NA,NA,NA,NA,""
"image-keyboard-response",590,433979,"0.0-4.192-2.192","pena802487phcyh",623,"193.csv","","null","resources/images/coin2.png","null","",NA,NA,NA,NA,""
"image-keyboard-response",591,434362,"0.0-4.193-0.193","pena802487phcyh",623,"193.csv","","381.70000076293945","resources/trios/L1T2A3.jpg","38","restless",0.3,0.6,0.5,0.0705661945216725,"true"
"image-keyboard-response",592,434776,"0.0-4.193-1.193","pena802487phcyh",623,"193.csv","","null","resources/maskTrios/BT2B.jpg","null","",NA,NA,NA,NA,""
"image-keyboard-response",593,435978,"0.0-4.193-2.193","pena802487phcyh",623,"193.csv","","null","resources/images/coin2.png","null","",NA,NA,NA,NA,""
"image-keyboard-response",594,436360,"0.0-4.194-0.194","pena802487phcyh",623,"193.csv","","380.3000011444092","resources/trios/L1T2A3.jpg","39","restless",0.3,0.6,0.5,0.0407071085272146,"true"
"image-keyboard-response",595,436775,"0.0-4.194-1.194","pena802487phcyh",623,"193.csv","","null","resources/maskTrios/BBA3.jpg","null","",NA,NA,NA,NA,""
"image-keyboard-response",596,437989,"0.0-4.194-2.194","pena802487phcyh",623,"193.csv","","null","resources/images/coin2.png","null","",NA,NA,NA,NA,""
"image-keyboard-response",597,438349,"0.0-4.195-0.195","pena802487phcyh",623,"193.csv","","359.29999923706055","resources/trios/L1T2A3.jpg","39","restless",0.2,0.6,0.5,0.278557525521028,"true"
"image-keyboard-response",598,438753,"0.0-4.195-1.195","pena802487phcyh",623,"193.csv","","null","resources/maskTrios/BBA3.jpg","null","",NA,NA,NA,NA,""
"image-keyboard-response",599,439979,"0.0-4.195-2.195","pena802487phcyh",623,"193.csv","","null","resources/images/coin2.png","null","",NA,NA,NA,NA,""
"image-keyboard-response",600,440421,"0.0-4.196-0.196","pena802487phcyh",623,"193.csv","","440.8999996185303","resources/trios/L1T2A3.jpg","39","restless",0.2,0.6,0.5,0.483570959461144,"true"
"image-keyboard-response",601,440838,"0.0-4.196-1.196","pena802487phcyh",623,"193.csv","","null","resources/maskTrios/BBA3.jpg","null","",NA,NA,NA,NA,""
"image-keyboard-response",602,442053,"0.0-4.196-2.196","pena802487phcyh",623,"193.csv","","null","resources/images/coin2.png","null","",NA,NA,NA,NA,""
"image-keyboard-response",603,442375,"0.0-4.197-0.197","pena802487phcyh",623,"193.csv","","320.6000003814697","resources/trios/L1T2A3.jpg","37","restless",0.2,0.6,0.4,0.715672216418963,"false"
"image-keyboard-response",604,442784,"0.0-4.197-1.197","pena802487phcyh",623,"193.csv","","null","resources/maskTrios/L1BB.jpg","null","",NA,NA,NA,NA,""
"image-keyboard-response",605,443998,"0.0-4.197-2.197","pena802487phcyh",623,"193.csv","","null","resources/images/fishbone.png","null","",NA,NA,NA,NA,""
"image-keyboard-response",606,444186,"0.0-4.198-0.198","pena802487phcyh",623,"193.csv","","186.5","resources/trios/L1T2A3.jpg","38","restless",0.1,0.6,0.4,0.845913711897052,"false"
"image-keyboard-response",607,444600,"0.0-4.198-1.198","pena802487phcyh",623,"193.csv","","null","resources/maskTrios/BT2B.jpg","null","",NA,NA,NA,NA,""
"image-keyboard-response",608,445801,"0.0-4.198-2.198","pena802487phcyh",623,"193.csv","","null","resources/images/fishbone.png","null","",NA,NA,NA,NA,""
