"trial_type","trial_index","time_elapsed","internal_node_id","subject","participantCode","walkNumber","success","rt","stimulus","key_press","test_part","leftProb","midProb","rightProb","generatedNum","correct"
"pavlovia",0,1231,"0.0-0.0","2d2pu464mj4bu00",94,"148.csv","","","","","",NA,NA,NA,NA,""
"fullscreen",1,4355,"0.0-1.0","2d2pu464mj4bu00",94,"148.csv","true","","","","",NA,NA,NA,NA,""
"survey-html-form",2,14250,"0.0-2.0","2d2pu464mj4bu00",94,"148.csv","","9888.300000011921","","","",NA,NA,NA,NA,""
"image-keyboard-response",3,18216,"0.0-3.0-0.0","2d2pu464mj4bu00",94,"148.csv","","3965.100000023842","resources/images/parrot_nobg.png","13","",NA,NA,NA,NA,""
"image-keyboard-response",4,21222,"0.0-3.0-1.0","2d2pu464mj4bu00",94,"148.csv","","null","resources/image_sets/111.png","null","",NA,NA,NA,NA,""
"image-keyboard-response",5,24705,"0.0-3.0-2.0","2d2pu464mj4bu00",94,"148.csv","","3481.5","resources/image_sets/left_highlight.png","37","",NA,NA,NA,NA,""
"image-keyboard-response",6,26374,"0.0-3.0-3.0","2d2pu464mj4bu00",94,"148.csv","","1668.199999988079","resources/image_sets/mid_highlight.png","38","",NA,NA,NA,NA,""
"image-keyboard-response",7,28323,"0.0-3.0-4.0","2d2pu464mj4bu00",94,"148.csv","","1948","resources/image_sets/right_highlight.png","39","",NA,NA,NA,NA,""
"image-keyboard-response",8,29918,"0.0-3.0-5.0","2d2pu464mj4bu00",94,"148.csv","","1594.3999999761581","resources/image_sets/111.png","13","",NA,NA,NA,NA,""
"image-keyboard-response",9,32195,"0.0-3.0-6.0","2d2pu464mj4bu00",94,"148.csv","","2276.400000035763","resources/images/coin2.png","13","",NA,NA,NA,NA,""
"image-keyboard-response",10,34020,"0.0-3.0-7.0","2d2pu464mj4bu00",94,"148.csv","","1824.5","resources/images/fishbone.png","13","",NA,NA,NA,NA,""
"html-keyboard-response",11,35849,"0.0-3.0-8.0","2d2pu464mj4bu00",94,"148.csv","","1828.7000000476837","<p>You can track your coin total on the top right of your screen. </p><p>At the end of your journey you will be directed to a survey, so please click on the link before exiting the task</p><p>Press Enter to begin</p>","13","",NA,NA,NA,NA,""
"image-keyboard-response",12,38847,"0.0-4.0-0.0","2d2pu464mj4bu00",94,"148.csv","","2995.100000023842","resources/trios/L1T2A3.jpg","39","restless",0.7,0.9,0.3,0.109398292393461,"true"
"image-keyboard-response",13,39254,"0.0-4.0-1.0","2d2pu464mj4bu00",94,"148.csv","","null","resources/maskTrios/BBA3.jpg","null","",NA,NA,NA,NA,""
"image-keyboard-response",14,40462,"0.0-4.0-2.0","2d2pu464mj4bu00",94,"148.csv","","null","resources/images/coin2.png","null","",NA,NA,NA,NA,""
"image-keyboard-response",15,40945,"0.0-4.1-0.1","2d2pu464mj4bu00",94,"148.csv","","481.4000000357628","resources/trios/L1T2A3.jpg","39","restless",0.7,0.9,0.3,0.818689675977309,"false"
"image-keyboard-response",16,41348,"0.0-4.1-1.1","2d2pu464mj4bu00",94,"148.csv","","null","resources/maskTrios/BBA3.jpg","null","",NA,NA,NA,NA,""
"image-keyboard-response",17,42551,"0.0-4.1-2.1","2d2pu464mj4bu00",94,"148.csv","","null","resources/images/fishbone.png","null","",NA,NA,NA,NA,""
"image-keyboard-response",18,43219,"0.0-4.2-0.2","2d2pu464mj4bu00",94,"148.csv","","666.1000000238419","resources/trios/L1T2A3.jpg","38","restless",0.7,0.9,0.3,0.695961348876252,"true"
"image-keyboard-response",19,43623,"0.0-4.2-1.2","2d2pu464mj4bu00",94,"148.csv","","null","resources/maskTrios/BT2B.jpg","null","",NA,NA,NA,NA,""
"image-keyboard-response",20,44825,"0.0-4.2-2.2","2d2pu464mj4bu00",94,"148.csv","","null","resources/images/coin2.png","null","",NA,NA,NA,NA,""
"image-keyboard-response",21,45453,"0.0-4.3-0.3","2d2pu464mj4bu00",94,"148.csv","","626.5","resources/trios/L1T2A3.jpg","38","restless",0.7,0.9,0.3,0.633762062618541,"true"
"image-keyboard-response",22,45859,"0.0-4.3-1.3","2d2pu464mj4bu00",94,"148.csv","","null","resources/maskTrios/BT2B.jpg","null","",NA,NA,NA,NA,""
"image-keyboard-response",23,47062,"0.0-4.3-2.3","2d2pu464mj4bu00",94,"148.csv","","null","resources/images/coin2.png","null","",NA,NA,NA,NA,""
"image-keyboard-response",24,47525,"0.0-4.4-0.4","2d2pu464mj4bu00",94,"148.csv","","461.30000001192093","resources/trios/L1T2A3.jpg","38","restless",0.7,0.9,0.3,0.937469925768327,"false"
"image-keyboard-response",25,47929,"0.0-4.4-1.4","2d2pu464mj4bu00",94,"148.csv","","null","resources/maskTrios/BT2B.jpg","null","",NA,NA,NA,NA,""
"image-keyboard-response",26,49135,"0.0-4.4-2.4","2d2pu464mj4bu00",94,"148.csv","","null","resources/images/fishbone.png","null","",NA,NA,NA,NA,""
"image-keyboard-response",27,49908,"0.0-4.5-0.5","2d2pu464mj4bu00",94,"148.csv","","770.7000000476837","resources/trios/L1T2A3.jpg","38","restless",0.7,0.9,0.3,0.806468005778225,"true"
"image-keyboard-response",28,50314,"0.0-4.5-1.5","2d2pu464mj4bu00",94,"148.csv","","null","resources/maskTrios/BT2B.jpg","null","",NA,NA,NA,NA,""
"image-keyboard-response",29,51520,"0.0-4.5-2.5","2d2pu464mj4bu00",94,"148.csv","","null","resources/images/coin2.png","null","",NA,NA,NA,NA,""
"image-keyboard-response",30,52522,"0.0-4.6-0.6","2d2pu464mj4bu00",94,"148.csv","","999.3000000119209","resources/trios/L1T2A3.jpg","38","restless",0.7,0.8,0.3,0.77515481066752,"true"
"image-keyboard-response",31,52926,"0.0-4.6-1.6","2d2pu464mj4bu00",94,"148.csv","","null","resources/maskTrios/BT2B.jpg","null","",NA,NA,NA,NA,""
"image-keyboard-response",32,54132,"0.0-4.6-2.6","2d2pu464mj4bu00",94,"148.csv","","null","resources/images/coin2.png","null","",NA,NA,NA,NA,""
"image-keyboard-response",33,54726,"0.0-4.7-0.7","2d2pu464mj4bu00",94,"148.csv","","591.0999999642372","resources/trios/L1T2A3.jpg","38","restless",0.7,0.8,0.3,0.848475329512261,"false"
"image-keyboard-response",34,55133,"0.0-4.7-1.7","2d2pu464mj4bu00",94,"148.csv","","null","resources/maskTrios/BT2B.jpg","null","",NA,NA,NA,NA,""
"image-keyboard-response",35,56339,"0.0-4.7-2.7","2d2pu464mj4bu00",94,"148.csv","","null","resources/images/fishbone.png","null","",NA,NA,NA,NA,""
"image-keyboard-response",36,56877,"0.0-4.8-0.8","2d2pu464mj4bu00",94,"148.csv","","536.3000000119209","resources/trios/L1T2A3.jpg","37","restless",0.7,0.8,0.3,0.978418661040432,"false"
"image-keyboard-response",37,57283,"0.0-4.8-1.8","2d2pu464mj4bu00",94,"148.csv","","null","resources/maskTrios/L1BB.jpg","null","",NA,NA,NA,NA,""
"image-keyboard-response",38,58488,"0.0-4.8-2.8","2d2pu464mj4bu00",94,"148.csv","","null","resources/images/fishbone.png","null","",NA,NA,NA,NA,""
"image-keyboard-response",39,58986,"0.0-4.9-0.9","2d2pu464mj4bu00",94,"148.csv","","495.80000001192093","resources/trios/L1T2A3.jpg","37","restless",0.7,0.8,0.3,0.134152957384743,"true"
"image-keyboard-response",40,59392,"0.0-4.9-1.9","2d2pu464mj4bu00",94,"148.csv","","null","resources/maskTrios/L1BB.jpg","null","",NA,NA,NA,NA,""
"image-keyboard-response",41,60599,"0.0-4.9-2.9","2d2pu464mj4bu00",94,"148.csv","","null","resources/images/coin2.png","null","",NA,NA,NA,NA,""
"image-keyboard-response",42,61052,"0.0-4.10-0.10","2d2pu464mj4bu00",94,"148.csv","","451.5","resources/trios/L1T2A3.jpg","37","restless",0.7,0.8,0.3,0.105618930644034,"true"
"image-keyboard-response",43,61458,"0.0-4.10-1.10","2d2pu464mj4bu00",94,"148.csv","","null","resources/maskTrios/L1BB.jpg","null","",NA,NA,NA,NA,""
"image-keyboard-response",44,62661,"0.0-4.10-2.10","2d2pu464mj4bu00",94,"148.csv","","null","resources/images/coin2.png","null","",NA,NA,NA,NA,""
"image-keyboard-response",45,63220,"0.0-4.11-0.11","2d2pu464mj4bu00",94,"148.csv","","557.1999999880791","resources/trios/L1T2A3.jpg","37","restless",0.7,0.8,0.3,0.805919621754444,"false"
"image-keyboard-response",46,63627,"0.0-4.11-1.11","2d2pu464mj4bu00",94,"148.csv","","null","resources/maskTrios/L1BB.jpg","null","",NA,NA,NA,NA,""
"image-keyboard-response",47,64833,"0.0-4.11-2.11","2d2pu464mj4bu00",94,"148.csv","","null","resources/images/fishbone.png","null","",NA,NA,NA,NA,""
"image-keyboard-response",48,65257,"0.0-4.12-0.12","2d2pu464mj4bu00",94,"148.csv","","421.9000000357628","resources/trios/L1T2A3.jpg","39","restless",0.7,0.8,0.3,0.534017553604945,"false"
"image-keyboard-response",49,65661,"0.0-4.12-1.12","2d2pu464mj4bu00",94,"148.csv","","null","resources/maskTrios/BBA3.jpg","null","",NA,NA,NA,NA,""
"image-keyboard-response",50,66868,"0.0-4.12-2.12","2d2pu464mj4bu00",94,"148.csv","","null","resources/images/fishbone.png","null","",NA,NA,NA,NA,""
"image-keyboard-response",51,67604,"0.0-4.13-0.13","2d2pu464mj4bu00",94,"148.csv","","734.9000000357628","resources/trios/L1T2A3.jpg","38","restless",0.7,0.7,0.3,0.915253362326161,"false"
"image-keyboard-response",52,68010,"0.0-4.13-1.13","2d2pu464mj4bu00",94,"148.csv","","null","resources/maskTrios/BT2B.jpg","null","",NA,NA,NA,NA,""
"image-keyboard-response",53,69211,"0.0-4.13-2.13","2d2pu464mj4bu00",94,"148.csv","","null","resources/images/fishbone.png","null","",NA,NA,NA,NA,""
"image-keyboard-response",54,70060,"0.0-4.14-0.14","2d2pu464mj4bu00",94,"148.csv","","847","resources/trios/L1T2A3.jpg","39","restless",0.7,0.7,0.3,0.461761890814329,"false"
"image-keyboard-response",55,70462,"0.0-4.14-1.14","2d2pu464mj4bu00",94,"148.csv","","null","resources/maskTrios/BBA3.jpg","null","",NA,NA,NA,NA,""
"image-keyboard-response",56,71668,"0.0-4.14-2.14","2d2pu464mj4bu00",94,"148.csv","","null","resources/images/fishbone.png","null","",NA,NA,NA,NA,""
"image-keyboard-response",57,72120,"0.0-4.15-0.15","2d2pu464mj4bu00",94,"148.csv","","449.19999998807907","resources/trios/L1T2A3.jpg","39","restless",0.7,0.6,0.4,0.560716123788441,"false"
"image-keyboard-response",58,72527,"0.0-4.15-1.15","2d2pu464mj4bu00",94,"148.csv","","null","resources/maskTrios/BBA3.jpg","null","",NA,NA,NA,NA,""
"image-keyboard-response",59,73728,"0.0-4.15-2.15","2d2pu464mj4bu00",94,"148.csv","","null","resources/images/fishbone.png","null","",NA,NA,NA,NA,""
"image-keyboard-response",60,74151,"0.0-4.16-0.16","2d2pu464mj4bu00",94,"148.csv","","420.9000000357628","resources/trios/L1T2A3.jpg","38","restless",0.7,0.6,0.4,0.00684872220979749,"true"
"image-keyboard-response",61,74557,"0.0-4.16-1.16","2d2pu464mj4bu00",94,"148.csv","","null","resources/maskTrios/BT2B.jpg","null","",NA,NA,NA,NA,""
"image-keyboard-response",62,75763,"0.0-4.16-2.16","2d2pu464mj4bu00",94,"148.csv","","null","resources/images/coin2.png","null","",NA,NA,NA,NA,""
"image-keyboard-response",63,76171,"0.0-4.17-0.17","2d2pu464mj4bu00",94,"148.csv","","406.0999999642372","resources/trios/L1T2A3.jpg","38","restless",0.7,0.6,0.4,0.400828114329884,"true"
"image-keyboard-response",64,76578,"0.0-4.17-1.17","2d2pu464mj4bu00",94,"148.csv","","null","resources/maskTrios/BT2B.jpg","null","",NA,NA,NA,NA,""
"image-keyboard-response",65,77780,"0.0-4.17-2.17","2d2pu464mj4bu00",94,"148.csv","","null","resources/images/coin2.png","null","",NA,NA,NA,NA,""
"image-keyboard-response",66,78257,"0.0-4.18-0.18","2d2pu464mj4bu00",94,"148.csv","","475.89999997615814","resources/trios/L1T2A3.jpg","38","restless",0.6,0.6,0.4,0.915152928770133,"false"
"image-keyboard-response",67,78661,"0.0-4.18-1.18","2d2pu464mj4bu00",94,"148.csv","","null","resources/maskTrios/BT2B.jpg","null","",NA,NA,NA,NA,""
"image-keyboard-response",68,79863,"0.0-4.18-2.18","2d2pu464mj4bu00",94,"148.csv","","null","resources/images/fishbone.png","null","",NA,NA,NA,NA,""
"image-keyboard-response",69,80380,"0.0-4.19-0.19","2d2pu464mj4bu00",94,"148.csv","","515","resources/trios/L1T2A3.jpg","37","restless",0.6,0.6,0.4,0.57276479544896,"true"
"image-keyboard-response",70,80784,"0.0-4.19-1.19","2d2pu464mj4bu00",94,"148.csv","","null","resources/maskTrios/L1BB.jpg","null","",NA,NA,NA,NA,""
"image-keyboard-response",71,81989,"0.0-4.19-2.19","2d2pu464mj4bu00",94,"148.csv","","null","resources/images/coin2.png","null","",NA,NA,NA,NA,""
"image-keyboard-response",72,82489,"0.0-4.20-0.20","2d2pu464mj4bu00",94,"148.csv","","498.5","resources/trios/L1T2A3.jpg","37","restless",0.6,0.6,0.4,0.0761585861965925,"true"
"image-keyboard-response",73,82895,"0.0-4.20-1.20","2d2pu464mj4bu00",94,"148.csv","","null","resources/maskTrios/L1BB.jpg","null","",NA,NA,NA,NA,""
"image-keyboard-response",74,84100,"0.0-4.20-2.20","2d2pu464mj4bu00",94,"148.csv","","null","resources/images/coin2.png","null","",NA,NA,NA,NA,""
"image-keyboard-response",75,84578,"0.0-4.21-0.21","2d2pu464mj4bu00",94,"148.csv","","475.39999997615814","resources/trios/L1T2A3.jpg","37","restless",0.6,0.6,0.4,0.477983485671924,"true"
"image-keyboard-response",76,84980,"0.0-4.21-1.21","2d2pu464mj4bu00",94,"148.csv","","null","resources/maskTrios/L1BB.jpg","null","",NA,NA,NA,NA,""
"image-keyboard-response",77,86185,"0.0-4.21-2.21","2d2pu464mj4bu00",94,"148.csv","","null","resources/images/coin2.png","null","",NA,NA,NA,NA,""
"image-keyboard-response",78,86683,"0.0-4.22-0.22","2d2pu464mj4bu00",94,"148.csv","","496.19999998807907","resources/trios/L1T2A3.jpg","37","restless",0.6,0.6,0.4,0.983966125899145,"false"
"image-keyboard-response",79,87088,"0.0-4.22-1.22","2d2pu464mj4bu00",94,"148.csv","","null","resources/maskTrios/L1BB.jpg","null","",NA,NA,NA,NA,""
"image-keyboard-response",80,88291,"0.0-4.22-2.22","2d2pu464mj4bu00",94,"148.csv","","null","resources/images/fishbone.png","null","",NA,NA,NA,NA,""
"image-keyboard-response",81,88723,"0.0-4.23-0.23","2d2pu464mj4bu00",94,"148.csv","","429.5","resources/trios/L1T2A3.jpg","39","restless",0.6,0.6,0.4,0.257324304530282,"true"
"image-keyboard-response",82,89126,"0.0-4.23-1.23","2d2pu464mj4bu00",94,"148.csv","","null","resources/maskTrios/BBA3.jpg","null","",NA,NA,NA,NA,""
"image-keyboard-response",83,90332,"0.0-4.23-2.23","2d2pu464mj4bu00",94,"148.csv","","null","resources/images/coin2.png","null","",NA,NA,NA,NA,""
"image-keyboard-response",84,90731,"0.0-4.24-0.24","2d2pu464mj4bu00",94,"148.csv","","396.5","resources/trios/L1T2A3.jpg","39","restless",0.6,0.6,0.4,0.0475007039525497,"true"
"image-keyboard-response",85,91137,"0.0-4.24-1.24","2d2pu464mj4bu00",94,"148.csv","","null","resources/maskTrios/BBA3.jpg","null","",NA,NA,NA,NA,""
"image-keyboard-response",86,92343,"0.0-4.24-2.24","2d2pu464mj4bu00",94,"148.csv","","null","resources/images/coin2.png","null","",NA,NA,NA,NA,""
"image-keyboard-response",87,92802,"0.0-4.25-0.25","2d2pu464mj4bu00",94,"148.csv","","457.0999999642372","resources/trios/L1T2A3.jpg","39","restless",0.6,0.6,0.5,0.511222465517409,"false"
"image-keyboard-response",88,93209,"0.0-4.25-1.25","2d2pu464mj4bu00",94,"148.csv","","null","resources/maskTrios/BBA3.jpg","null","",NA,NA,NA,NA,""
"image-keyboard-response",89,94415,"0.0-4.25-2.25","2d2pu464mj4bu00",94,"148.csv","","null","resources/images/fishbone.png","null","",NA,NA,NA,NA,""
"image-keyboard-response",90,95114,"0.0-4.26-0.26","2d2pu464mj4bu00",94,"148.csv","","697.1000000238419","resources/trios/L1T2A3.jpg","37","restless",0.6,0.6,0.4,0.332065000118177,"true"
"image-keyboard-response",91,95520,"0.0-4.26-1.26","2d2pu464mj4bu00",94,"148.csv","","null","resources/maskTrios/L1BB.jpg","null","",NA,NA,NA,NA,""
"image-keyboard-response",92,96727,"0.0-4.26-2.26","2d2pu464mj4bu00",94,"148.csv","","null","resources/images/coin2.png","null","",NA,NA,NA,NA,""
"image-keyboard-response",93,97135,"0.0-4.27-0.27","2d2pu464mj4bu00",94,"148.csv","","406","resources/trios/L1T2A3.jpg","37","restless",0.6,0.6,0.4,0.858052947696727,"false"
"image-keyboard-response",94,97541,"0.0-4.27-1.27","2d2pu464mj4bu00",94,"148.csv","","null","resources/maskTrios/L1BB.jpg","null","",NA,NA,NA,NA,""
"image-keyboard-response",95,98747,"0.0-4.27-2.27","2d2pu464mj4bu00",94,"148.csv","","null","resources/images/fishbone.png","null","",NA,NA,NA,NA,""
"image-keyboard-response",96,99148,"0.0-4.28-0.28","2d2pu464mj4bu00",94,"148.csv","","397.5999999642372","resources/trios/L1T2A3.jpg","38","restless",0.6,0.6,0.4,0.360344083175211,"true"
"image-keyboard-response",97,99554,"0.0-4.28-1.28","2d2pu464mj4bu00",94,"148.csv","","null","resources/maskTrios/BT2B.jpg","null","",NA,NA,NA,NA,""
"image-keyboard-response",98,100757,"0.0-4.28-2.28","2d2pu464mj4bu00",94,"148.csv","","null","resources/images/coin2.png","null","",NA,NA,NA,NA,""
"image-keyboard-response",99,101236,"0.0-4.29-0.29","2d2pu464mj4bu00",94,"148.csv","","477","resources/trios/L1T2A3.jpg","38","restless",0.6,0.6,0.5,0.17618970700666,"true"
"image-keyboard-response",100,101643,"0.0-4.29-1.29","2d2pu464mj4bu00",94,"148.csv","","null","resources/maskTrios/BT2B.jpg","null","",NA,NA,NA,NA,""
"image-keyboard-response",101,102849,"0.0-4.29-2.29","2d2pu464mj4bu00",94,"148.csv","","null","resources/images/coin2.png","null","",NA,NA,NA,NA,""
"image-keyboard-response",102,103026,"0.0-4.30-0.30","2d2pu464mj4bu00",94,"148.csv","","175.5","resources/trios/L1T2A3.jpg","38","restless",0.6,0.6,0.5,0.917345643506807,"false"
"image-keyboard-response",103,103432,"0.0-4.30-1.30","2d2pu464mj4bu00",94,"148.csv","","null","resources/maskTrios/BT2B.jpg","null","",NA,NA,NA,NA,""
"image-keyboard-response",104,104639,"0.0-4.30-2.30","2d2pu464mj4bu00",94,"148.csv","","null","resources/images/fishbone.png","null","",NA,NA,NA,NA,""
"image-keyboard-response",105,105057,"0.0-4.31-0.31","2d2pu464mj4bu00",94,"148.csv","","416.39999997615814","resources/trios/L1T2A3.jpg","39","restless",0.5,0.6,0.5,0.493343650048379,"true"
"image-keyboard-response",106,105463,"0.0-4.31-1.31","2d2pu464mj4bu00",94,"148.csv","","null","resources/maskTrios/BBA3.jpg","null","",NA,NA,NA,NA,""
"image-keyboard-response",107,106669,"0.0-4.31-2.31","2d2pu464mj4bu00",94,"148.csv","","null","resources/images/coin2.png","null","",NA,NA,NA,NA,""
"image-keyboard-response",108,107048,"0.0-4.32-0.32","2d2pu464mj4bu00",94,"148.csv","","377.19999998807907","resources/trios/L1T2A3.jpg","39","restless",0.5,0.6,0.5,0.966284726947708,"false"
"image-keyboard-response",109,107450,"0.0-4.32-1.32","2d2pu464mj4bu00",94,"148.csv","","null","resources/maskTrios/BBA3.jpg","null","",NA,NA,NA,NA,""
"image-keyboard-response",110,108656,"0.0-4.32-2.32","2d2pu464mj4bu00",94,"148.csv","","null","resources/images/fishbone.png","null","",NA,NA,NA,NA,""
"image-keyboard-response",111,109093,"0.0-4.33-0.33","2d2pu464mj4bu00",94,"148.csv","","434.5","resources/trios/L1T2A3.jpg","37","restless",0.5,0.6,0.5,0.222941921430181,"true"
"image-keyboard-response",112,109499,"0.0-4.33-1.33","2d2pu464mj4bu00",94,"148.csv","","null","resources/maskTrios/L1BB.jpg","null","",NA,NA,NA,NA,""
"image-keyboard-response",113,110704,"0.0-4.33-2.33","2d2pu464mj4bu00",94,"148.csv","","null","resources/images/coin2.png","null","",NA,NA,NA,NA,""
"image-keyboard-response",114,111059,"0.0-4.34-0.34","2d2pu464mj4bu00",94,"148.csv","","353","resources/trios/L1T2A3.jpg","37","restless",0.6,0.5,0.5,0.355166202207666,"true"
"image-keyboard-response",115,111472,"0.0-4.34-1.34","2d2pu464mj4bu00",94,"148.csv","","null","resources/maskTrios/L1BB.jpg","null","",NA,NA,NA,NA,""
"image-keyboard-response",116,112676,"0.0-4.34-2.34","2d2pu464mj4bu00",94,"148.csv","","null","resources/images/coin2.png","null","",NA,NA,NA,NA,""
"image-keyboard-response",117,113069,"0.0-4.35-0.35","2d2pu464mj4bu00",94,"148.csv","","391.0999999642372","resources/trios/L1T2A3.jpg","37","restless",0.7,0.5,0.5,0.120234570925553,"true"
"image-keyboard-response",118,113476,"0.0-4.35-1.35","2d2pu464mj4bu00",94,"148.csv","","null","resources/maskTrios/L1BB.jpg","null","",NA,NA,NA,NA,""
"image-keyboard-response",119,114677,"0.0-4.35-2.35","2d2pu464mj4bu00",94,"148.csv","","null","resources/images/coin2.png","null","",NA,NA,NA,NA,""
"image-keyboard-response",120,115163,"0.0-4.36-0.36","2d2pu464mj4bu00",94,"148.csv","","483.89999997615814","resources/trios/L1T2A3.jpg","37","restless",0.8,0.5,0.5,0.824543223111838,"false"
"image-keyboard-response",121,115569,"0.0-4.36-1.36","2d2pu464mj4bu00",94,"148.csv","","null","resources/maskTrios/L1BB.jpg","null","",NA,NA,NA,NA,""
"image-keyboard-response",122,116775,"0.0-4.36-2.36","2d2pu464mj4bu00",94,"148.csv","","null","resources/images/fishbone.png","null","",NA,NA,NA,NA,""
"image-keyboard-response",123,117355,"0.0-4.37-0.37","2d2pu464mj4bu00",94,"148.csv","","578.4000000357628","resources/trios/L1T2A3.jpg","38","restless",0.8,0.5,0.4,0.159554956364335,"true"
"image-keyboard-response",124,117761,"0.0-4.37-1.37","2d2pu464mj4bu00",94,"148.csv","","null","resources/maskTrios/BT2B.jpg","null","",NA,NA,NA,NA,""
"image-keyboard-response",125,118967,"0.0-4.37-2.37","2d2pu464mj4bu00",94,"148.csv","","null","resources/images/coin2.png","null","",NA,NA,NA,NA,""
"image-keyboard-response",126,119403,"0.0-4.38-0.38","2d2pu464mj4bu00",94,"148.csv","","432.7000000476837","resources/trios/L1T2A3.jpg","38","restless",0.8,0.5,0.4,0.285999404307047,"true"
"image-keyboard-response",127,119808,"0.0-4.38-1.38","2d2pu464mj4bu00",94,"148.csv","","null","resources/maskTrios/BT2B.jpg","null","",NA,NA,NA,NA,""
"image-keyboard-response",128,121014,"0.0-4.38-2.38","2d2pu464mj4bu00",94,"148.csv","","null","resources/images/coin2.png","null","",NA,NA,NA,NA,""
"image-keyboard-response",129,121484,"0.0-4.39-0.39","2d2pu464mj4bu00",94,"148.csv","","467.60000002384186","resources/trios/L1T2A3.jpg","38","restless",0.8,0.5,0.3,0.994028516044493,"false"
"image-keyboard-response",130,121890,"0.0-4.39-1.39","2d2pu464mj4bu00",94,"148.csv","","null","resources/maskTrios/BT2B.jpg","null","",NA,NA,NA,NA,""
"image-keyboard-response",131,123096,"0.0-4.39-2.39","2d2pu464mj4bu00",94,"148.csv","","null","resources/images/fishbone.png","null","",NA,NA,NA,NA,""
"image-keyboard-response",132,123700,"0.0-4.40-0.40","2d2pu464mj4bu00",94,"148.csv","","602.1999999880791","resources/trios/L1T2A3.jpg","39","restless",0.8,0.5,0.3,0.214636107750178,"true"
"image-keyboard-response",133,124102,"0.0-4.40-1.40","2d2pu464mj4bu00",94,"148.csv","","null","resources/maskTrios/BBA3.jpg","null","",NA,NA,NA,NA,""
"image-keyboard-response",134,125308,"0.0-4.40-2.40","2d2pu464mj4bu00",94,"148.csv","","null","resources/images/coin2.png","null","",NA,NA,NA,NA,""
"image-keyboard-response",135,125711,"0.0-4.41-0.41","2d2pu464mj4bu00",94,"148.csv","","400.80000001192093","resources/trios/L1T2A3.jpg","39","restless",0.8,0.5,0.3,0.591229230825758,"false"
"image-keyboard-response",136,126113,"0.0-4.41-1.41","2d2pu464mj4bu00",94,"148.csv","","null","resources/maskTrios/BBA3.jpg","null","",NA,NA,NA,NA,""
"image-keyboard-response",137,127319,"0.0-4.41-2.41","2d2pu464mj4bu00",94,"148.csv","","null","resources/images/fishbone.png","null","",NA,NA,NA,NA,""
"image-keyboard-response",138,128028,"0.0-4.42-0.42","2d2pu464mj4bu00",94,"148.csv","","707.1999999880791","resources/trios/L1T2A3.jpg","37","restless",0.9,0.5,0.3,0.508403720543038,"true"
"image-keyboard-response",139,128431,"0.0-4.42-1.42","2d2pu464mj4bu00",94,"148.csv","","null","resources/maskTrios/L1BB.jpg","null","",NA,NA,NA,NA,""
"image-keyboard-response",140,129633,"0.0-4.42-2.42","2d2pu464mj4bu00",94,"148.csv","","null","resources/images/coin2.png","null","",NA,NA,NA,NA,""
"image-keyboard-response",141,130103,"0.0-4.43-0.43","2d2pu464mj4bu00",94,"148.csv","","468.39999997615814","resources/trios/L1T2A3.jpg","37","restless",0.9,0.5,0.3,0.646657537378077,"true"
"image-keyboard-response",142,130510,"0.0-4.43-1.43","2d2pu464mj4bu00",94,"148.csv","","null","resources/maskTrios/L1BB.jpg","null","",NA,NA,NA,NA,""
"image-keyboard-response",143,131716,"0.0-4.43-2.43","2d2pu464mj4bu00",94,"148.csv","","null","resources/images/coin2.png","null","",NA,NA,NA,NA,""
"image-keyboard-response",144,132103,"0.0-4.44-0.44","2d2pu464mj4bu00",94,"148.csv","","385.10000002384186","resources/trios/L1T2A3.jpg","37","restless",0.9,0.5,0.3,0.845509757686831,"true"
"image-keyboard-response",145,132506,"0.0-4.44-1.44","2d2pu464mj4bu00",94,"148.csv","","null","resources/maskTrios/L1BB.jpg","null","",NA,NA,NA,NA,""
"image-keyboard-response",146,133712,"0.0-4.44-2.44","2d2pu464mj4bu00",94,"148.csv","","null","resources/images/coin2.png","null","",NA,NA,NA,NA,""
"image-keyboard-response",147,134078,"0.0-4.45-0.45","2d2pu464mj4bu00",94,"148.csv","","364.10000002384186","resources/trios/L1T2A3.jpg","37","restless",0.9,0.5,0.3,0.4388753357325,"true"
"image-keyboard-response",148,134484,"0.0-4.45-1.45","2d2pu464mj4bu00",94,"148.csv","","null","resources/maskTrios/L1BB.jpg","null","",NA,NA,NA,NA,""
"image-keyboard-response",149,135691,"0.0-4.45-2.45","2d2pu464mj4bu00",94,"148.csv","","null","resources/images/coin2.png","null","",NA,NA,NA,NA,""
"image-keyboard-response",150,136244,"0.0-4.46-0.46","2d2pu464mj4bu00",94,"148.csv","","551.6999999880791","resources/trios/L1T2A3.jpg","37","restless",0.9,0.5,0.3,0.843791056571625,"true"
"image-keyboard-response",151,136651,"0.0-4.46-1.46","2d2pu464mj4bu00",94,"148.csv","","null","resources/maskTrios/L1BB.jpg","null","",NA,NA,NA,NA,""
"image-keyboard-response",152,137857,"0.0-4.46-2.46","2d2pu464mj4bu00",94,"148.csv","","null","resources/images/coin2.png","null","",NA,NA,NA,NA,""
"image-keyboard-response",153,138313,"0.0-4.47-0.47","2d2pu464mj4bu00",94,"148.csv","","454.39999997615814","resources/trios/L1T2A3.jpg","37","restless",0.9,0.5,0.3,0.44791414122959,"true"
"image-keyboard-response",154,138720,"0.0-4.47-1.47","2d2pu464mj4bu00",94,"148.csv","","null","resources/maskTrios/L1BB.jpg","null","",NA,NA,NA,NA,""
"image-keyboard-response",155,139925,"0.0-4.47-2.47","2d2pu464mj4bu00",94,"148.csv","","null","resources/images/coin2.png","null","",NA,NA,NA,NA,""
"image-keyboard-response",156,140470,"0.0-4.48-0.48","2d2pu464mj4bu00",94,"148.csv","","543","resources/trios/L1T2A3.jpg","37","restless",0.9,0.5,0.3,0.0667718003589022,"true"
"image-keyboard-response",157,140876,"0.0-4.48-1.48","2d2pu464mj4bu00",94,"148.csv","","null","resources/maskTrios/L1BB.jpg","null","",NA,NA,NA,NA,""
"image-keyboard-response",158,142082,"0.0-4.48-2.48","2d2pu464mj4bu00",94,"148.csv","","null","resources/images/coin2.png","null","",NA,NA,NA,NA,""
"image-keyboard-response",159,142512,"0.0-4.49-0.49","2d2pu464mj4bu00",94,"148.csv","","427.5","resources/trios/L1T2A3.jpg","37","restless",0.9,0.5,0.3,0.931206862590309,"false"
"image-keyboard-response",160,142918,"0.0-4.49-1.49","2d2pu464mj4bu00",94,"148.csv","","null","resources/maskTrios/L1BB.jpg","null","",NA,NA,NA,NA,""
"image-keyboard-response",161,144122,"0.0-4.49-2.49","2d2pu464mj4bu00",94,"148.csv","","null","resources/images/fishbone.png","null","",NA,NA,NA,NA,""
"image-keyboard-response",162,144692,"0.0-4.50-0.50","2d2pu464mj4bu00",94,"148.csv","","567.5","resources/trios/L1T2A3.jpg","39","restless",0.9,0.5,0.3,0.936266689661358,"false"
"image-keyboard-response",163,145098,"0.0-4.50-1.50","2d2pu464mj4bu00",94,"148.csv","","null","resources/maskTrios/BBA3.jpg","null","",NA,NA,NA,NA,""
"image-keyboard-response",164,146304,"0.0-4.50-2.50","2d2pu464mj4bu00",94,"148.csv","","null","resources/images/fishbone.png","null","",NA,NA,NA,NA,""
"image-keyboard-response",165,146850,"0.0-4.51-0.51","2d2pu464mj4bu00",94,"148.csv","","543.5","resources/trios/L1T2A3.jpg","38","restless",0.9,0.5,0.3,0.807236818864877,"false"
"image-keyboard-response",166,147252,"0.0-4.51-1.51","2d2pu464mj4bu00",94,"148.csv","","null","resources/maskTrios/BT2B.jpg","null","",NA,NA,NA,NA,""
"image-keyboard-response",167,148457,"0.0-4.51-2.51","2d2pu464mj4bu00",94,"148.csv","","null","resources/images/fishbone.png","null","",NA,NA,NA,NA,""
"image-keyboard-response",168,148922,"0.0-4.52-0.52","2d2pu464mj4bu00",94,"148.csv","","462.69999998807907","resources/trios/L1T2A3.jpg","39","restless",0.9,0.5,0.3,0.185803000365233,"true"
"image-keyboard-response",169,149328,"0.0-4.52-1.52","2d2pu464mj4bu00",94,"148.csv","","null","resources/maskTrios/BBA3.jpg","null","",NA,NA,NA,NA,""
"image-keyboard-response",170,150534,"0.0-4.52-2.52","2d2pu464mj4bu00",94,"148.csv","","null","resources/images/coin2.png","null","",NA,NA,NA,NA,""
"image-keyboard-response",171,151064,"0.0-4.53-0.53","2d2pu464mj4bu00",94,"148.csv","","528.1000000238419","resources/trios/L1T2A3.jpg","39","restless",0.8,0.5,0.3,0.951526462766469,"false"
"image-keyboard-response",172,151468,"0.0-4.53-1.53","2d2pu464mj4bu00",94,"148.csv","","null","resources/maskTrios/BBA3.jpg","null","",NA,NA,NA,NA,""
"image-keyboard-response",173,152674,"0.0-4.53-2.53","2d2pu464mj4bu00",94,"148.csv","","null","resources/images/fishbone.png","null","",NA,NA,NA,NA,""
"image-keyboard-response",174,153223,"0.0-4.54-0.54","2d2pu464mj4bu00",94,"148.csv","","547.1999999880791","resources/trios/L1T2A3.jpg","37","restless",0.8,0.5,0.4,0.399524933981362,"true"
"image-keyboard-response",175,153627,"0.0-4.54-1.54","2d2pu464mj4bu00",94,"148.csv","","null","resources/maskTrios/L1BB.jpg","null","",NA,NA,NA,NA,""
"image-keyboard-response",176,154833,"0.0-4.54-2.54","2d2pu464mj4bu00",94,"148.csv","","null","resources/images/coin2.png","null","",NA,NA,NA,NA,""
"image-keyboard-response",177,155287,"0.0-4.55-0.55","2d2pu464mj4bu00",94,"148.csv","","451.69999998807907","resources/trios/L1T2A3.jpg","37","restless",0.8,0.5,0.4,0.647089244468313,"true"
"image-keyboard-response",178,155692,"0.0-4.55-1.55","2d2pu464mj4bu00",94,"148.csv","","null","resources/maskTrios/L1BB.jpg","null","",NA,NA,NA,NA,""
"image-keyboard-response",179,156898,"0.0-4.55-2.55","2d2pu464mj4bu00",94,"148.csv","","null","resources/images/coin2.png","null","",NA,NA,NA,NA,""
"image-keyboard-response",180,157232,"0.0-4.56-0.56","2d2pu464mj4bu00",94,"148.csv","","331.39999997615814","resources/trios/L1T2A3.jpg","37","restless",0.8,0.5,0.4,0.815677324581628,"false"
"image-keyboard-response",181,157636,"0.0-4.56-1.56","2d2pu464mj4bu00",94,"148.csv","","null","resources/maskTrios/L1BB.jpg","null","",NA,NA,NA,NA,""
"image-keyboard-response",182,158842,"0.0-4.56-2.56","2d2pu464mj4bu00",94,"148.csv","","null","resources/images/fishbone.png","null","",NA,NA,NA,NA,""
"image-keyboard-response",183,159318,"0.0-4.57-0.57","2d2pu464mj4bu00",94,"148.csv","","473.0999999642372","resources/trios/L1T2A3.jpg","38","restless",0.8,0.5,0.4,0.123081720297008,"true"
"image-keyboard-response",184,159721,"0.0-4.57-1.57","2d2pu464mj4bu00",94,"148.csv","","null","resources/maskTrios/BT2B.jpg","null","",NA,NA,NA,NA,""
"image-keyboard-response",185,160926,"0.0-4.57-2.57","2d2pu464mj4bu00",94,"148.csv","","null","resources/images/coin2.png","null","",NA,NA,NA,NA,""
"image-keyboard-response",186,161332,"0.0-4.58-0.58","2d2pu464mj4bu00",94,"148.csv","","404.5","resources/trios/L1T2A3.jpg","38","restless",0.8,0.6,0.5,0.378709661374085,"true"
"image-keyboard-response",187,161739,"0.0-4.58-1.58","2d2pu464mj4bu00",94,"148.csv","","null","resources/maskTrios/BT2B.jpg","null","",NA,NA,NA,NA,""
"image-keyboard-response",188,162940,"0.0-4.58-2.58","2d2pu464mj4bu00",94,"148.csv","","null","resources/images/coin2.png","null","",NA,NA,NA,NA,""
"image-keyboard-response",189,163326,"0.0-4.59-0.59","2d2pu464mj4bu00",94,"148.csv","","384.19999998807907","resources/trios/L1T2A3.jpg","38","restless",0.9,0.6,0.6,0.671515060108001,"false"
"image-keyboard-response",190,163730,"0.0-4.59-1.59","2d2pu464mj4bu00",94,"148.csv","","null","resources/maskTrios/BT2B.jpg","null","",NA,NA,NA,NA,""
"image-keyboard-response",191,164935,"0.0-4.59-2.59","2d2pu464mj4bu00",94,"148.csv","","null","resources/images/fishbone.png","null","",NA,NA,NA,NA,""
"image-keyboard-response",192,165471,"0.0-4.60-0.60","2d2pu464mj4bu00",94,"148.csv","","534.1000000238419","resources/trios/L1T2A3.jpg","39","restless",0.9,0.6,0.6,0.806122139331672,"false"
"image-keyboard-response",193,165875,"0.0-4.60-1.60","2d2pu464mj4bu00",94,"148.csv","","null","resources/maskTrios/BBA3.jpg","null","",NA,NA,NA,NA,""
"image-keyboard-response",194,167079,"0.0-4.60-2.60","2d2pu464mj4bu00",94,"148.csv","","null","resources/images/fishbone.png","null","",NA,NA,NA,NA,""
"image-keyboard-response",195,167489,"0.0-4.61-0.61","2d2pu464mj4bu00",94,"148.csv","","407.89999997615814","resources/trios/L1T2A3.jpg","39","restless",0.9,0.6,0.6,0.30526837640565,"true"
"image-keyboard-response",196,167895,"0.0-4.61-1.61","2d2pu464mj4bu00",94,"148.csv","","null","resources/maskTrios/BBA3.jpg","null","",NA,NA,NA,NA,""
"image-keyboard-response",197,169097,"0.0-4.61-2.61","2d2pu464mj4bu00",94,"148.csv","","null","resources/images/coin2.png","null","",NA,NA,NA,NA,""
"image-keyboard-response",198,169595,"0.0-4.62-0.62","2d2pu464mj4bu00",94,"148.csv","","495.5","resources/trios/L1T2A3.jpg","39","restless",0.8,0.7,0.6,0.504553132967714,"true"
"image-keyboard-response",199,170001,"0.0-4.62-1.62","2d2pu464mj4bu00",94,"148.csv","","null","resources/maskTrios/BBA3.jpg","null","",NA,NA,NA,NA,""
"image-keyboard-response",200,171205,"0.0-4.62-2.62","2d2pu464mj4bu00",94,"148.csv","","null","resources/images/coin2.png","null","",NA,NA,NA,NA,""
"image-keyboard-response",201,171577,"0.0-4.63-0.63","2d2pu464mj4bu00",94,"148.csv","","370.0999999642372","resources/trios/L1T2A3.jpg","39","restless",0.8,0.6,0.6,0.245993474473859,"true"
"image-keyboard-response",202,171983,"0.0-4.63-1.63","2d2pu464mj4bu00",94,"148.csv","","null","resources/maskTrios/BBA3.jpg","null","",NA,NA,NA,NA,""
"image-keyboard-response",203,173188,"0.0-4.63-2.63","2d2pu464mj4bu00",94,"148.csv","","null","resources/images/coin2.png","null","",NA,NA,NA,NA,""
"image-keyboard-response",204,173629,"0.0-4.64-0.64","2d2pu464mj4bu00",94,"148.csv","","438.69999998807907","resources/trios/L1T2A3.jpg","39","restless",0.8,0.6,0.6,0.190164505054723,"true"
"image-keyboard-response",205,174035,"0.0-4.64-1.64","2d2pu464mj4bu00",94,"148.csv","","null","resources/maskTrios/BBA3.jpg","null","",NA,NA,NA,NA,""
"image-keyboard-response",206,175241,"0.0-4.64-2.64","2d2pu464mj4bu00",94,"148.csv","","null","resources/images/coin2.png","null","",NA,NA,NA,NA,""
"image-keyboard-response",207,175654,"0.0-4.65-0.65","2d2pu464mj4bu00",94,"148.csv","","410.2999999523163","resources/trios/L1T2A3.jpg","39","restless",0.8,0.6,0.6,0.324453136826022,"true"
"image-keyboard-response",208,176060,"0.0-4.65-1.65","2d2pu464mj4bu00",94,"148.csv","","null","resources/maskTrios/BBA3.jpg","null","",NA,NA,NA,NA,""
"image-keyboard-response",209,177264,"0.0-4.65-2.65","2d2pu464mj4bu00",94,"148.csv","","null","resources/images/coin2.png","null","",NA,NA,NA,NA,""
"image-keyboard-response",210,177690,"0.0-4.66-0.66","2d2pu464mj4bu00",94,"148.csv","","423.5999999642372","resources/trios/L1T2A3.jpg","39","restless",0.8,0.6,0.6,0.998526355133997,"false"
"image-keyboard-response",211,178097,"0.0-4.66-1.66","2d2pu464mj4bu00",94,"148.csv","","null","resources/maskTrios/BBA3.jpg","null","",NA,NA,NA,NA,""
"image-keyboard-response",212,179303,"0.0-4.66-2.66","2d2pu464mj4bu00",94,"148.csv","","null","resources/images/fishbone.png","null","",NA,NA,NA,NA,""
"image-keyboard-response",213,179988,"0.0-4.67-0.67","2d2pu464mj4bu00",94,"148.csv","","683.2000000476837","resources/trios/L1T2A3.jpg","37","restless",0.8,0.6,0.6,0.245075474914623,"true"
"image-keyboard-response",214,180389,"0.0-4.67-1.67","2d2pu464mj4bu00",94,"148.csv","","null","resources/maskTrios/L1BB.jpg","null","",NA,NA,NA,NA,""
"image-keyboard-response",215,181594,"0.0-4.67-2.67","2d2pu464mj4bu00",94,"148.csv","","null","resources/images/coin2.png","null","",NA,NA,NA,NA,""
"image-keyboard-response",216,182004,"0.0-4.68-0.68","2d2pu464mj4bu00",94,"148.csv","","408","resources/trios/L1T2A3.jpg","37","restless",0.8,0.6,0.5,0.339541500358987,"true"
"image-keyboard-response",217,182410,"0.0-4.68-1.68","2d2pu464mj4bu00",94,"148.csv","","null","resources/maskTrios/L1BB.jpg","null","",NA,NA,NA,NA,""
"image-keyboard-response",218,183613,"0.0-4.68-2.68","2d2pu464mj4bu00",94,"148.csv","","null","resources/images/coin2.png","null","",NA,NA,NA,NA,""
"image-keyboard-response",219,183984,"0.0-4.69-0.69","2d2pu464mj4bu00",94,"148.csv","","368.19999998807907","resources/trios/L1T2A3.jpg","37","restless",0.7,0.6,0.5,0.97271033691438,"false"
"image-keyboard-response",220,184389,"0.0-4.69-1.69","2d2pu464mj4bu00",94,"148.csv","","null","resources/maskTrios/L1BB.jpg","null","",NA,NA,NA,NA,""
"image-keyboard-response",221,185596,"0.0-4.69-2.69","2d2pu464mj4bu00",94,"148.csv","","null","resources/images/fishbone.png","null","",NA,NA,NA,NA,""
"image-keyboard-response",222,186051,"0.0-4.70-0.70","2d2pu464mj4bu00",94,"148.csv","","453.39999997615814","resources/trios/L1T2A3.jpg","38","restless",0.7,0.6,0.5,0.569764939153228,"true"
"image-keyboard-response",223,186456,"0.0-4.70-1.70","2d2pu464mj4bu00",94,"148.csv","","null","resources/maskTrios/BT2B.jpg","null","",NA,NA,NA,NA,""
"image-keyboard-response",224,187662,"0.0-4.70-2.70","2d2pu464mj4bu00",94,"148.csv","","null","resources/images/coin2.png","null","",NA,NA,NA,NA,""
"image-keyboard-response",225,188102,"0.0-4.71-0.71","2d2pu464mj4bu00",94,"148.csv","","437.69999998807907","resources/trios/L1T2A3.jpg","38","restless",0.7,0.6,0.5,0.870975907869478,"false"
"image-keyboard-response",226,188504,"0.0-4.71-1.71","2d2pu464mj4bu00",94,"148.csv","","null","resources/maskTrios/BT2B.jpg","null","",NA,NA,NA,NA,""
"image-keyboard-response",227,189710,"0.0-4.71-2.71","2d2pu464mj4bu00",94,"148.csv","","null","resources/images/fishbone.png","null","",NA,NA,NA,NA,""
"image-keyboard-response",228,190254,"0.0-4.72-0.72","2d2pu464mj4bu00",94,"148.csv","","541.8999999761581","resources/trios/L1T2A3.jpg","37","restless",0.7,0.6,0.5,0.408108407644407,"true"
"image-keyboard-response",229,190660,"0.0-4.72-1.72","2d2pu464mj4bu00",94,"148.csv","","null","resources/maskTrios/L1BB.jpg","null","",NA,NA,NA,NA,""
"image-keyboard-response",230,191867,"0.0-4.72-2.72","2d2pu464mj4bu00",94,"148.csv","","null","resources/images/coin2.png","null","",NA,NA,NA,NA,""
"image-keyboard-response",231,192277,"0.0-4.73-0.73","2d2pu464mj4bu00",94,"148.csv","","408.10000002384186","resources/trios/L1T2A3.jpg","37","restless",0.7,0.6,0.5,0.642633219290398,"true"
"image-keyboard-response",232,192683,"0.0-4.73-1.73","2d2pu464mj4bu00",94,"148.csv","","null","resources/maskTrios/L1BB.jpg","null","",NA,NA,NA,NA,""
"image-keyboard-response",233,193890,"0.0-4.73-2.73","2d2pu464mj4bu00",94,"148.csv","","null","resources/images/coin2.png","null","",NA,NA,NA,NA,""
"image-keyboard-response",234,194237,"0.0-4.74-0.74","2d2pu464mj4bu00",94,"148.csv","","345.4000000357628","resources/trios/L1T2A3.jpg","37","restless",0.7,0.6,0.4,0.929827627651304,"false"
"image-keyboard-response",235,194642,"0.0-4.74-1.74","2d2pu464mj4bu00",94,"148.csv","","null","resources/maskTrios/L1BB.jpg","null","",NA,NA,NA,NA,""
"image-keyboard-response",236,195847,"0.0-4.74-2.74","2d2pu464mj4bu00",94,"148.csv","","null","resources/images/fishbone.png","null","",NA,NA,NA,NA,""
"image-keyboard-response",237,196260,"0.0-4.75-0.75","2d2pu464mj4bu00",94,"148.csv","","411.19999998807907","resources/trios/L1T2A3.jpg","39","restless",0.7,0.6,0.4,0.860917578457603,"false"
"image-keyboard-response",238,196666,"0.0-4.75-1.75","2d2pu464mj4bu00",94,"148.csv","","null","resources/maskTrios/BBA3.jpg","null","",NA,NA,NA,NA,""
"image-keyboard-response",239,197871,"0.0-4.75-2.75","2d2pu464mj4bu00",94,"148.csv","","null","resources/images/fishbone.png","null","",NA,NA,NA,NA,""
"image-keyboard-response",240,198468,"0.0-4.76-0.76","2d2pu464mj4bu00",94,"148.csv","","595.6999999880791","resources/trios/L1T2A3.jpg","38","restless",0.7,0.6,0.4,0.882580106610718,"false"
"image-keyboard-response",241,198874,"0.0-4.76-1.76","2d2pu464mj4bu00",94,"148.csv","","null","resources/maskTrios/BT2B.jpg","null","",NA,NA,NA,NA,""
"image-keyboard-response",242,200080,"0.0-4.76-2.76","2d2pu464mj4bu00",94,"148.csv","","null","resources/images/fishbone.png","null","",NA,NA,NA,NA,""
"image-keyboard-response",243,200503,"0.0-4.77-0.77","2d2pu464mj4bu00",94,"148.csv","","421.10000002384186","resources/trios/L1T2A3.jpg","39","restless",0.7,0.5,0.4,0.803962603740982,"false"
"image-keyboard-response",244,200906,"0.0-4.77-1.77","2d2pu464mj4bu00",94,"148.csv","","null","resources/maskTrios/BBA3.jpg","null","",NA,NA,NA,NA,""
"image-keyboard-response",245,202111,"0.0-4.77-2.77","2d2pu464mj4bu00",94,"148.csv","","null","resources/images/fishbone.png","null","",NA,NA,NA,NA,""
"image-keyboard-response",246,202578,"0.0-4.78-0.78","2d2pu464mj4bu00",94,"148.csv","","465.2000000476837","resources/trios/L1T2A3.jpg","38","restless",0.7,0.5,0.4,0.340042590815876,"true"
"image-keyboard-response",247,202984,"0.0-4.78-1.78","2d2pu464mj4bu00",94,"148.csv","","null","resources/maskTrios/BT2B.jpg","null","",NA,NA,NA,NA,""
"image-keyboard-response",248,204190,"0.0-4.78-2.78","2d2pu464mj4bu00",94,"148.csv","","null","resources/images/coin2.png","null","",NA,NA,NA,NA,""
"image-keyboard-response",249,204723,"0.0-4.79-0.79","2d2pu464mj4bu00",94,"148.csv","","530.8000000119209","resources/trios/L1T2A3.jpg","38","restless",0.6,0.4,0.4,0.721969672378597,"false"
"image-keyboard-response",250,205129,"0.0-4.79-1.79","2d2pu464mj4bu00",94,"148.csv","","null","resources/maskTrios/BT2B.jpg","null","",NA,NA,NA,NA,""
"image-keyboard-response",251,206335,"0.0-4.79-2.79","2d2pu464mj4bu00",94,"148.csv","","null","resources/images/fishbone.png","null","",NA,NA,NA,NA,""
"image-keyboard-response",252,206785,"0.0-4.80-0.80","2d2pu464mj4bu00",94,"148.csv","","447.39999997615814","resources/trios/L1T2A3.jpg","37","restless",0.6,0.4,0.4,0.0956214745739137,"true"
"image-keyboard-response",253,207191,"0.0-4.80-1.80","2d2pu464mj4bu00",94,"148.csv","","null","resources/maskTrios/L1BB.jpg","null","",NA,NA,NA,NA,""
"image-keyboard-response",254,208397,"0.0-4.80-2.80","2d2pu464mj4bu00",94,"148.csv","","null","resources/images/coin2.png","null","",NA,NA,NA,NA,""
"image-keyboard-response",255,208815,"0.0-4.81-0.81","2d2pu464mj4bu00",94,"148.csv","","416.69999998807907","resources/trios/L1T2A3.jpg","37","restless",0.6,0.4,0.4,0.738678705641349,"false"
"image-keyboard-response",256,209222,"0.0-4.81-1.81","2d2pu464mj4bu00",94,"148.csv","","null","resources/maskTrios/L1BB.jpg","null","",NA,NA,NA,NA,""
"image-keyboard-response",257,210425,"0.0-4.81-2.81","2d2pu464mj4bu00",94,"148.csv","","null","resources/images/fishbone.png","null","",NA,NA,NA,NA,""
"image-keyboard-response",258,210879,"0.0-4.82-0.82","2d2pu464mj4bu00",94,"148.csv","","452.2000000476837","resources/trios/L1T2A3.jpg","38","restless",0.6,0.4,0.4,0.40503608019999,"false"
"image-keyboard-response",259,211280,"0.0-4.82-1.82","2d2pu464mj4bu00",94,"148.csv","","null","resources/maskTrios/BT2B.jpg","null","",NA,NA,NA,NA,""
"image-keyboard-response",260,212486,"0.0-4.82-2.82","2d2pu464mj4bu00",94,"148.csv","","null","resources/images/fishbone.png","null","",NA,NA,NA,NA,""
"image-keyboard-response",261,212935,"0.0-4.83-0.83","2d2pu464mj4bu00",94,"148.csv","","447","resources/trios/L1T2A3.jpg","39","restless",0.6,0.4,0.4,0.898088528291292,"false"
"image-keyboard-response",262,213336,"0.0-4.83-1.83","2d2pu464mj4bu00",94,"148.csv","","null","resources/maskTrios/BBA3.jpg","null","",NA,NA,NA,NA,""
"image-keyboard-response",263,214541,"0.0-4.83-2.83","2d2pu464mj4bu00",94,"148.csv","","null","resources/images/fishbone.png","null","",NA,NA,NA,NA,""
"image-keyboard-response",264,215528,"0.0-4.84-0.84","2d2pu464mj4bu00",94,"148.csv","","985.1000000238419","resources/trios/L1T2A3.jpg","38","restless",0.6,0.4,0.4,0.977033229433921,"false"
"image-keyboard-response",265,215933,"0.0-4.84-1.84","2d2pu464mj4bu00",94,"148.csv","","null","resources/maskTrios/BT2B.jpg","null","",NA,NA,NA,NA,""
"image-keyboard-response",266,217139,"0.0-4.84-2.84","2d2pu464mj4bu00",94,"148.csv","","null","resources/images/fishbone.png","null","",NA,NA,NA,NA,""
"image-keyboard-response",267,217216,"0.0-4.85-0.85","2d2pu464mj4bu00",94,"148.csv","","75.30000001192093","resources/trios/L1T2A3.jpg","37","restless",0.6,0.4,0.4,0.593224926205968,"true"
"image-keyboard-response",268,217622,"0.0-4.85-1.85","2d2pu464mj4bu00",94,"148.csv","","null","resources/maskTrios/L1BB.jpg","null","",NA,NA,NA,NA,""
"image-keyboard-response",269,218828,"0.0-4.85-2.85","2d2pu464mj4bu00",94,"148.csv","","null","resources/images/coin2.png","null","",NA,NA,NA,NA,""
"image-keyboard-response",270,219343,"0.0-4.86-0.86","2d2pu464mj4bu00",94,"148.csv","","512.4000000357628","resources/trios/L1T2A3.jpg","37","restless",0.6,0.4,0.4,0.794968929412881,"false"
"image-keyboard-response",271,219744,"0.0-4.86-1.86","2d2pu464mj4bu00",94,"148.csv","","null","resources/maskTrios/L1BB.jpg","null","",NA,NA,NA,NA,""
"image-keyboard-response",272,220951,"0.0-4.86-2.86","2d2pu464mj4bu00",94,"148.csv","","null","resources/images/fishbone.png","null","",NA,NA,NA,NA,""
"image-keyboard-response",273,221523,"0.0-4.87-0.87","2d2pu464mj4bu00",94,"148.csv","","571","resources/trios/L1T2A3.jpg","39","restless",0.6,0.3,0.4,0.883379670110486,"false"
"image-keyboard-response",274,221930,"0.0-4.87-1.87","2d2pu464mj4bu00",94,"148.csv","","null","resources/maskTrios/BBA3.jpg","null","",NA,NA,NA,NA,""
"image-keyboard-response",275,223136,"0.0-4.87-2.87","2d2pu464mj4bu00",94,"148.csv","","null","resources/images/fishbone.png","null","",NA,NA,NA,NA,""
"image-keyboard-response",276,223660,"0.0-4.88-0.88","2d2pu464mj4bu00",94,"148.csv","","522.5999999642372","resources/trios/L1T2A3.jpg","38","restless",0.6,0.3,0.4,0.837891892507062,"false"
"image-keyboard-response",277,224062,"0.0-4.88-1.88","2d2pu464mj4bu00",94,"148.csv","","null","resources/maskTrios/BT2B.jpg","null","",NA,NA,NA,NA,""
"image-keyboard-response",278,225267,"0.0-4.88-2.88","2d2pu464mj4bu00",94,"148.csv","","null","resources/images/fishbone.png","null","",NA,NA,NA,NA,""
"image-keyboard-response",279,226081,"0.0-4.89-0.89","2d2pu464mj4bu00",94,"148.csv","","812.2000000476837","resources/trios/L1T2A3.jpg","38","restless",0.7,0.3,0.4,0.0697632197478861,"true"
"image-keyboard-response",280,226487,"0.0-4.89-1.89","2d2pu464mj4bu00",94,"148.csv","","null","resources/maskTrios/BT2B.jpg","null","",NA,NA,NA,NA,""
"image-keyboard-response",281,227693,"0.0-4.89-2.89","2d2pu464mj4bu00",94,"148.csv","","null","resources/images/coin2.png","null","",NA,NA,NA,NA,""
"image-keyboard-response",282,228118,"0.0-4.90-0.90","2d2pu464mj4bu00",94,"148.csv","","422.5","resources/trios/L1T2A3.jpg","38","restless",0.7,0.3,0.4,0.952670885632443,"false"
"image-keyboard-response",283,228521,"0.0-4.90-1.90","2d2pu464mj4bu00",94,"148.csv","","null","resources/maskTrios/BT2B.jpg","null","",NA,NA,NA,NA,""
"image-keyboard-response",284,229726,"0.0-4.90-2.90","2d2pu464mj4bu00",94,"148.csv","","null","resources/images/fishbone.png","null","",NA,NA,NA,NA,""
"image-keyboard-response",285,230248,"0.0-4.91-0.91","2d2pu464mj4bu00",94,"148.csv","","519.8999999761581","resources/trios/L1T2A3.jpg","39","restless",0.6,0.3,0.4,0.746451177273341,"false"
"image-keyboard-response",286,230649,"0.0-4.91-1.91","2d2pu464mj4bu00",94,"148.csv","","null","resources/maskTrios/BBA3.jpg","null","",NA,NA,NA,NA,""
"image-keyboard-response",287,231855,"0.0-4.91-2.91","2d2pu464mj4bu00",94,"148.csv","","null","resources/images/fishbone.png","null","",NA,NA,NA,NA,""
"image-keyboard-response",288,232308,"0.0-4.92-0.92","2d2pu464mj4bu00",94,"148.csv","","451.4000000357628","resources/trios/L1T2A3.jpg","37","restless",0.6,0.3,0.4,0.473236747094794,"true"
"image-keyboard-response",289,232714,"0.0-4.92-1.92","2d2pu464mj4bu00",94,"148.csv","","null","resources/maskTrios/L1BB.jpg","null","",NA,NA,NA,NA,""
"image-keyboard-response",290,233915,"0.0-4.92-2.92","2d2pu464mj4bu00",94,"148.csv","","null","resources/images/coin2.png","null","",NA,NA,NA,NA,""
"image-keyboard-response",291,234374,"0.0-4.93-0.93","2d2pu464mj4bu00",94,"148.csv","","457.19999998807907","resources/trios/L1T2A3.jpg","38","restless",0.6,0.3,0.4,0.751951891591514,"false"
"image-keyboard-response",292,234781,"0.0-4.93-1.93","2d2pu464mj4bu00",94,"148.csv","","null","resources/maskTrios/BT2B.jpg","null","",NA,NA,NA,NA,""
"image-keyboard-response",293,235986,"0.0-4.93-2.93","2d2pu464mj4bu00",94,"148.csv","","null","resources/images/fishbone.png","null","",NA,NA,NA,NA,""
"image-keyboard-response",294,236710,"0.0-4.94-0.94","2d2pu464mj4bu00",94,"148.csv","","722.5","resources/trios/L1T2A3.jpg","37","restless",0.6,0.3,0.4,0.316975491352304,"true"
"image-keyboard-response",295,237117,"0.0-4.94-1.94","2d2pu464mj4bu00",94,"148.csv","","null","resources/maskTrios/L1BB.jpg","null","",NA,NA,NA,NA,""
"image-keyboard-response",296,238319,"0.0-4.94-2.94","2d2pu464mj4bu00",94,"148.csv","","null","resources/images/coin2.png","null","",NA,NA,NA,NA,""
"image-keyboard-response",297,238791,"0.0-4.95-0.95","2d2pu464mj4bu00",94,"148.csv","","470.30000001192093","resources/trios/L1T2A3.jpg","37","restless",0.6,0.3,0.4,0.924676596255392,"false"
"image-keyboard-response",298,239197,"0.0-4.95-1.95","2d2pu464mj4bu00",94,"148.csv","","null","resources/maskTrios/L1BB.jpg","null","",NA,NA,NA,NA,""
"image-keyboard-response",299,240401,"0.0-4.95-2.95","2d2pu464mj4bu00",94,"148.csv","","null","resources/images/fishbone.png","null","",NA,NA,NA,NA,""
"image-keyboard-response",300,240850,"0.0-4.96-0.96","2d2pu464mj4bu00",94,"148.csv","","447.5999999642372","resources/trios/L1T2A3.jpg","39","restless",0.6,0.3,0.4,0.68668364600698,"false"
"image-keyboard-response",301,241257,"0.0-4.96-1.96","2d2pu464mj4bu00",94,"148.csv","","null","resources/maskTrios/BBA3.jpg","null","",NA,NA,NA,NA,""
"image-keyboard-response",302,242463,"0.0-4.96-2.96","2d2pu464mj4bu00",94,"148.csv","","null","resources/images/fishbone.png","null","",NA,NA,NA,NA,""
"image-keyboard-response",303,242866,"0.0-4.97-0.97","2d2pu464mj4bu00",94,"148.csv","","401.2000000476837","resources/trios/L1T2A3.jpg","39","restless",0.6,0.3,0.4,0.829397005650653,"false"
"image-keyboard-response",304,243271,"0.0-4.97-1.97","2d2pu464mj4bu00",94,"148.csv","","null","resources/maskTrios/BBA3.jpg","null","",NA,NA,NA,NA,""
"image-keyboard-response",305,244477,"0.0-4.97-2.97","2d2pu464mj4bu00",94,"148.csv","","null","resources/images/fishbone.png","null","",NA,NA,NA,NA,""
"image-keyboard-response",306,245073,"0.0-4.98-0.98","2d2pu464mj4bu00",94,"148.csv","","594.2000000476837","resources/trios/L1T2A3.jpg","38","restless",0.6,0.3,0.4,0.393062051897991,"false"
"image-keyboard-response",307,245479,"0.0-4.98-1.98","2d2pu464mj4bu00",94,"148.csv","","null","resources/maskTrios/BT2B.jpg","null","",NA,NA,NA,NA,""
"image-keyboard-response",308,246685,"0.0-4.98-2.98","2d2pu464mj4bu00",94,"148.csv","","null","resources/images/fishbone.png","null","",NA,NA,NA,NA,""
"image-keyboard-response",309,247162,"0.0-4.99-0.99","2d2pu464mj4bu00",94,"148.csv","","473.9000000357628","resources/trios/L1T2A3.jpg","38","restless",0.6,0.3,0.4,0.724072874795538,"false"
"image-keyboard-response",310,247568,"0.0-4.99-1.99","2d2pu464mj4bu00",94,"148.csv","","null","resources/maskTrios/BT2B.jpg","null","",NA,NA,NA,NA,""
"image-keyboard-response",311,248774,"0.0-4.99-2.99","2d2pu464mj4bu00",94,"148.csv","","null","resources/images/fishbone.png","null","",NA,NA,NA,NA,""
"image-keyboard-response",312,249278,"0.0-4.100-0.100","2d2pu464mj4bu00",94,"148.csv","","502.10000002384186","resources/trios/L1T2A3.jpg","37","restless",0.6,0.3,0.4,0.433115362434203,"true"
"image-keyboard-response",313,249683,"0.0-4.100-1.100","2d2pu464mj4bu00",94,"148.csv","","null","resources/maskTrios/L1BB.jpg","null","",NA,NA,NA,NA,""
"image-keyboard-response",314,250890,"0.0-4.100-2.100","2d2pu464mj4bu00",94,"148.csv","","null","resources/images/coin2.png","null","",NA,NA,NA,NA,""
"image-keyboard-response",315,251325,"0.0-4.101-0.101","2d2pu464mj4bu00",94,"148.csv","","433.2000000476837","resources/trios/L1T2A3.jpg","37","restless",0.6,0.3,0.4,0.726733351260746,"false"
"image-keyboard-response",316,251731,"0.0-4.101-1.101","2d2pu464mj4bu00",94,"148.csv","","null","resources/maskTrios/L1BB.jpg","null","",NA,NA,NA,NA,""
"image-keyboard-response",317,252934,"0.0-4.101-2.101","2d2pu464mj4bu00",94,"148.csv","","null","resources/images/fishbone.png","null","",NA,NA,NA,NA,""
"image-keyboard-response",318,253398,"0.0-4.102-0.102","2d2pu464mj4bu00",94,"148.csv","","462.19999998807907","resources/trios/L1T2A3.jpg","39","restless",0.6,0.3,0.4,0.706666394524843,"false"
"image-keyboard-response",319,253804,"0.0-4.102-1.102","2d2pu464mj4bu00",94,"148.csv","","null","resources/maskTrios/BBA3.jpg","null","",NA,NA,NA,NA,""
"image-keyboard-response",320,255010,"0.0-4.102-2.102","2d2pu464mj4bu00",94,"148.csv","","null","resources/images/fishbone.png","null","",NA,NA,NA,NA,""
"image-keyboard-response",321,255423,"0.0-4.103-0.103","2d2pu464mj4bu00",94,"148.csv","","410.30000001192093","resources/trios/L1T2A3.jpg","39","restless",0.6,0.3,0.5,0.300024338905388,"true"
"image-keyboard-response",322,255829,"0.0-4.103-1.103","2d2pu464mj4bu00",94,"148.csv","","null","resources/maskTrios/BBA3.jpg","null","",NA,NA,NA,NA,""
"image-keyboard-response",323,257035,"0.0-4.103-2.103","2d2pu464mj4bu00",94,"148.csv","","null","resources/images/coin2.png","null","",NA,NA,NA,NA,""
"image-keyboard-response",324,257550,"0.0-4.104-0.104","2d2pu464mj4bu00",94,"148.csv","","513.1999999880791","resources/trios/L1T2A3.jpg","38","restless",0.6,0.3,0.6,0.505485786930241,"false"
"image-keyboard-response",325,257952,"0.0-4.104-1.104","2d2pu464mj4bu00",94,"148.csv","","null","resources/maskTrios/BT2B.jpg","null","",NA,NA,NA,NA,""
"image-keyboard-response",326,259156,"0.0-4.104-2.104","2d2pu464mj4bu00",94,"148.csv","","null","resources/images/fishbone.png","null","",NA,NA,NA,NA,""
"image-keyboard-response",327,259576,"0.0-4.105-0.105","2d2pu464mj4bu00",94,"148.csv","","418.30000001192093","resources/trios/L1T2A3.jpg","39","restless",0.6,0.3,0.6,0.167463840764181,"true"
"image-keyboard-response",328,259982,"0.0-4.105-1.105","2d2pu464mj4bu00",94,"148.csv","","null","resources/maskTrios/BBA3.jpg","null","",NA,NA,NA,NA,""
"image-keyboard-response",329,261188,"0.0-4.105-2.105","2d2pu464mj4bu00",94,"148.csv","","null","resources/images/coin2.png","null","",NA,NA,NA,NA,""
"image-keyboard-response",330,261634,"0.0-4.106-0.106","2d2pu464mj4bu00",94,"148.csv","","443.30000001192093","resources/trios/L1T2A3.jpg","39","restless",0.6,0.3,0.6,0.211852904598076,"true"
"image-keyboard-response",331,262039,"0.0-4.106-1.106","2d2pu464mj4bu00",94,"148.csv","","null","resources/maskTrios/BBA3.jpg","null","",NA,NA,NA,NA,""
"image-keyboard-response",332,263241,"0.0-4.106-2.106","2d2pu464mj4bu00",94,"148.csv","","null","resources/images/coin2.png","null","",NA,NA,NA,NA,""
"image-keyboard-response",333,263711,"0.0-4.107-0.107","2d2pu464mj4bu00",94,"148.csv","","469.19999998807907","resources/trios/L1T2A3.jpg","39","restless",0.6,0.3,0.6,0.309253554125748,"true"
"image-keyboard-response",334,264118,"0.0-4.107-1.107","2d2pu464mj4bu00",94,"148.csv","","null","resources/maskTrios/BBA3.jpg","null","",NA,NA,NA,NA,""
"image-keyboard-response",335,265325,"0.0-4.107-2.107","2d2pu464mj4bu00",94,"148.csv","","null","resources/images/coin2.png","null","",NA,NA,NA,NA,""
"image-keyboard-response",336,265771,"0.0-4.108-0.108","2d2pu464mj4bu00",94,"148.csv","","444.69999998807907","resources/trios/L1T2A3.jpg","39","restless",0.6,0.4,0.6,0.19277371582087,"true"
"image-keyboard-response",337,266177,"0.0-4.108-1.108","2d2pu464mj4bu00",94,"148.csv","","null","resources/maskTrios/BBA3.jpg","null","",NA,NA,NA,NA,""
"image-keyboard-response",338,267384,"0.0-4.108-2.108","2d2pu464mj4bu00",94,"148.csv","","null","resources/images/coin2.png","null","",NA,NA,NA,NA,""
"image-keyboard-response",339,267862,"0.0-4.109-0.109","2d2pu464mj4bu00",94,"148.csv","","476.30000001192093","resources/trios/L1T2A3.jpg","39","restless",0.6,0.5,0.7,0.5708544255637,"true"
"image-keyboard-response",340,268264,"0.0-4.109-1.109","2d2pu464mj4bu00",94,"148.csv","","null","resources/maskTrios/BBA3.jpg","null","",NA,NA,NA,NA,""
"image-keyboard-response",341,269470,"0.0-4.109-2.109","2d2pu464mj4bu00",94,"148.csv","","null","resources/images/coin2.png","null","",NA,NA,NA,NA,""
"image-keyboard-response",342,269866,"0.0-4.110-0.110","2d2pu464mj4bu00",94,"148.csv","","394.39999997615814","resources/trios/L1T2A3.jpg","39","restless",0.5,0.5,0.7,0.155389807534033,"true"
"image-keyboard-response",343,270272,"0.0-4.110-1.110","2d2pu464mj4bu00",94,"148.csv","","null","resources/maskTrios/BBA3.jpg","null","",NA,NA,NA,NA,""
"image-keyboard-response",344,271478,"0.0-4.110-2.110","2d2pu464mj4bu00",94,"148.csv","","null","resources/images/coin2.png","null","",NA,NA,NA,NA,""
"image-keyboard-response",345,271908,"0.0-4.111-0.111","2d2pu464mj4bu00",94,"148.csv","","427.9000000357628","resources/trios/L1T2A3.jpg","39","restless",0.5,0.5,0.7,0.475333382034704,"true"
"image-keyboard-response",346,272315,"0.0-4.111-1.111","2d2pu464mj4bu00",94,"148.csv","","null","resources/maskTrios/BBA3.jpg","null","",NA,NA,NA,NA,""
"image-keyboard-response",347,273519,"0.0-4.111-2.111","2d2pu464mj4bu00",94,"148.csv","","null","resources/images/coin2.png","null","",NA,NA,NA,NA,""
"image-keyboard-response",348,273961,"0.0-4.112-0.112","2d2pu464mj4bu00",94,"148.csv","","440.30000001192093","resources/trios/L1T2A3.jpg","39","restless",0.5,0.5,0.7,0.350406119179705,"true"
"image-keyboard-response",349,274367,"0.0-4.112-1.112","2d2pu464mj4bu00",94,"148.csv","","null","resources/maskTrios/BBA3.jpg","null","",NA,NA,NA,NA,""
"image-keyboard-response",350,275574,"0.0-4.112-2.112","2d2pu464mj4bu00",94,"148.csv","","null","resources/images/coin2.png","null","",NA,NA,NA,NA,""
"image-keyboard-response",351,276110,"0.0-4.113-0.113","2d2pu464mj4bu00",94,"148.csv","","534.6999999880791","resources/trios/L1T2A3.jpg","39","restless",0.5,0.5,0.7,0.312887102916025,"true"
"image-keyboard-response",352,276517,"0.0-4.113-1.113","2d2pu464mj4bu00",94,"148.csv","","null","resources/maskTrios/BBA3.jpg","null","",NA,NA,NA,NA,""
"image-keyboard-response",353,277723,"0.0-4.113-2.113","2d2pu464mj4bu00",94,"148.csv","","null","resources/images/coin2.png","null","",NA,NA,NA,NA,""
"image-keyboard-response",354,278176,"0.0-4.114-0.114","2d2pu464mj4bu00",94,"148.csv","","450.5999999642372","resources/trios/L1T2A3.jpg","39","restless",0.5,0.5,0.7,0.809832342475037,"false"
"image-keyboard-response",355,278579,"0.0-4.114-1.114","2d2pu464mj4bu00",94,"148.csv","","null","resources/maskTrios/BBA3.jpg","null","",NA,NA,NA,NA,""
"image-keyboard-response",356,279785,"0.0-4.114-2.114","2d2pu464mj4bu00",94,"148.csv","","null","resources/images/fishbone.png","null","",NA,NA,NA,NA,""
"image-keyboard-response",357,280863,"0.0-4.115-0.115","2d2pu464mj4bu00",94,"148.csv","","1074.3999999761581","resources/trios/L1T2A3.jpg","39","restless",0.5,0.5,0.7,0.659761930490624,"true"
"image-keyboard-response",358,281267,"0.0-4.115-1.115","2d2pu464mj4bu00",94,"148.csv","","null","resources/maskTrios/BBA3.jpg","null","",NA,NA,NA,NA,""
"image-keyboard-response",359,282473,"0.0-4.115-2.115","2d2pu464mj4bu00",94,"148.csv","","null","resources/images/coin2.png","null","",NA,NA,NA,NA,""
"image-keyboard-response",360,282945,"0.0-4.116-0.116","2d2pu464mj4bu00",94,"148.csv","","469.60000002384186","resources/trios/L1T2A3.jpg","39","restless",0.5,0.5,0.7,0.2293405317202,"true"
"image-keyboard-response",361,283351,"0.0-4.116-1.116","2d2pu464mj4bu00",94,"148.csv","","null","resources/maskTrios/BBA3.jpg","null","",NA,NA,NA,NA,""
"image-keyboard-response",362,284557,"0.0-4.116-2.116","2d2pu464mj4bu00",94,"148.csv","","null","resources/images/coin2.png","null","",NA,NA,NA,NA,""
"image-keyboard-response",363,284968,"0.0-4.117-0.117","2d2pu464mj4bu00",94,"148.csv","","409","resources/trios/L1T2A3.jpg","39","restless",0.5,0.5,0.7,0.774644113093128,"false"
"image-keyboard-response",364,285374,"0.0-4.117-1.117","2d2pu464mj4bu00",94,"148.csv","","null","resources/maskTrios/BBA3.jpg","null","",NA,NA,NA,NA,""
"image-keyboard-response",365,286576,"0.0-4.117-2.117","2d2pu464mj4bu00",94,"148.csv","","null","resources/images/fishbone.png","null","",NA,NA,NA,NA,""
"image-keyboard-response",366,287145,"0.0-4.118-0.118","2d2pu464mj4bu00",94,"148.csv","","567.0999999642372","resources/trios/L1T2A3.jpg","39","restless",0.5,0.5,0.7,0.685932939278388,"true"
"image-keyboard-response",367,287552,"0.0-4.118-1.118","2d2pu464mj4bu00",94,"148.csv","","null","resources/maskTrios/BBA3.jpg","null","",NA,NA,NA,NA,""
"image-keyboard-response",368,288758,"0.0-4.118-2.118","2d2pu464mj4bu00",94,"148.csv","","null","resources/images/coin2.png","null","",NA,NA,NA,NA,""
"image-keyboard-response",369,289169,"0.0-4.119-0.119","2d2pu464mj4bu00",94,"148.csv","","408.80000001192093","resources/trios/L1T2A3.jpg","39","restless",0.5,0.5,0.7,0.877914969027666,"false"
"image-keyboard-response",370,289575,"0.0-4.119-1.119","2d2pu464mj4bu00",94,"148.csv","","null","resources/maskTrios/BBA3.jpg","null","",NA,NA,NA,NA,""
"image-keyboard-response",371,290777,"0.0-4.119-2.119","2d2pu464mj4bu00",94,"148.csv","","null","resources/images/fishbone.png","null","",NA,NA,NA,NA,""
"image-keyboard-response",372,291272,"0.0-4.120-0.120","2d2pu464mj4bu00",94,"148.csv","","493","resources/trios/L1T2A3.jpg","39","restless",0.5,0.5,0.7,0.0229758519212551,"true"
"image-keyboard-response",373,291678,"0.0-4.120-1.120","2d2pu464mj4bu00",94,"148.csv","","null","resources/maskTrios/BBA3.jpg","null","",NA,NA,NA,NA,""
"image-keyboard-response",374,292884,"0.0-4.120-2.120","2d2pu464mj4bu00",94,"148.csv","","null","resources/images/coin2.png","null","",NA,NA,NA,NA,""
"image-keyboard-response",375,293366,"0.0-4.121-0.121","2d2pu464mj4bu00",94,"148.csv","","480.80000001192093","resources/trios/L1T2A3.jpg","39","restless",0.5,0.5,0.7,0.627341389488315,"true"
"image-keyboard-response",376,293772,"0.0-4.121-1.121","2d2pu464mj4bu00",94,"148.csv","","null","resources/maskTrios/BBA3.jpg","null","",NA,NA,NA,NA,""
"image-keyboard-response",377,294977,"0.0-4.121-2.121","2d2pu464mj4bu00",94,"148.csv","","null","resources/images/coin2.png","null","",NA,NA,NA,NA,""
"image-keyboard-response",378,295375,"0.0-4.122-0.122","2d2pu464mj4bu00",94,"148.csv","","396","resources/trios/L1T2A3.jpg","39","restless",0.5,0.5,0.7,0.403862164895198,"true"
"image-keyboard-response",379,295778,"0.0-4.122-1.122","2d2pu464mj4bu00",94,"148.csv","","null","resources/maskTrios/BBA3.jpg","null","",NA,NA,NA,NA,""
"image-keyboard-response",380,296980,"0.0-4.122-2.122","2d2pu464mj4bu00",94,"148.csv","","null","resources/images/coin2.png","null","",NA,NA,NA,NA,""
"image-keyboard-response",381,297385,"0.0-4.123-0.123","2d2pu464mj4bu00",94,"148.csv","","404","resources/trios/L1T2A3.jpg","39","restless",0.5,0.5,0.7,0.603285514876324,"true"
"image-keyboard-response",382,297788,"0.0-4.123-1.123","2d2pu464mj4bu00",94,"148.csv","","null","resources/maskTrios/BBA3.jpg","null","",NA,NA,NA,NA,""
"image-keyboard-response",383,298990,"0.0-4.123-2.123","2d2pu464mj4bu00",94,"148.csv","","null","resources/images/coin2.png","null","",NA,NA,NA,NA,""
"image-keyboard-response",384,299320,"0.0-4.124-0.124","2d2pu464mj4bu00",94,"148.csv","","328","resources/trios/L1T2A3.jpg","39","restless",0.5,0.5,0.7,0.747548843239012,"false"
"image-keyboard-response",385,299724,"0.0-4.124-1.124","2d2pu464mj4bu00",94,"148.csv","","null","resources/maskTrios/BBA3.jpg","null","",NA,NA,NA,NA,""
"image-keyboard-response",386,300930,"0.0-4.124-2.124","2d2pu464mj4bu00",94,"148.csv","","null","resources/images/fishbone.png","null","",NA,NA,NA,NA,""
"image-keyboard-response",387,301386,"0.0-4.125-0.125","2d2pu464mj4bu00",94,"148.csv","","454.69999998807907","resources/trios/L1T2A3.jpg","39","restless",0.4,0.5,0.7,0.357769940719546,"true"
"image-keyboard-response",388,301788,"0.0-4.125-1.125","2d2pu464mj4bu00",94,"148.csv","","null","resources/maskTrios/BBA3.jpg","null","",NA,NA,NA,NA,""
"image-keyboard-response",389,302995,"0.0-4.125-2.125","2d2pu464mj4bu00",94,"148.csv","","null","resources/images/coin2.png","null","",NA,NA,NA,NA,""
"image-keyboard-response",390,303437,"0.0-4.126-0.126","2d2pu464mj4bu00",94,"148.csv","","440.7000000476837","resources/trios/L1T2A3.jpg","39","restless",0.4,0.5,0.7,0.950157684225654,"false"
"image-keyboard-response",391,303844,"0.0-4.126-1.126","2d2pu464mj4bu00",94,"148.csv","","null","resources/maskTrios/BBA3.jpg","null","",NA,NA,NA,NA,""
"image-keyboard-response",392,305047,"0.0-4.126-2.126","2d2pu464mj4bu00",94,"148.csv","","null","resources/images/fishbone.png","null","",NA,NA,NA,NA,""
"image-keyboard-response",393,305572,"0.0-4.127-0.127","2d2pu464mj4bu00",94,"148.csv","","522.8000000119209","resources/trios/L1T2A3.jpg","39","restless",0.4,0.5,0.7,0.270256231949334,"true"
"image-keyboard-response",394,305976,"0.0-4.127-1.127","2d2pu464mj4bu00",94,"148.csv","","null","resources/maskTrios/BBA3.jpg","null","",NA,NA,NA,NA,""
"image-keyboard-response",395,307179,"0.0-4.127-2.127","2d2pu464mj4bu00",94,"148.csv","","null","resources/images/coin2.png","null","",NA,NA,NA,NA,""
"image-keyboard-response",396,307589,"0.0-4.128-0.128","2d2pu464mj4bu00",94,"148.csv","","407.30000001192093","resources/trios/L1T2A3.jpg","39","restless",0.4,0.5,0.7,0.941117849416889,"false"
"image-keyboard-response",397,307993,"0.0-4.128-1.128","2d2pu464mj4bu00",94,"148.csv","","null","resources/maskTrios/BBA3.jpg","null","",NA,NA,NA,NA,""
"image-keyboard-response",398,309195,"0.0-4.128-2.128","2d2pu464mj4bu00",94,"148.csv","","null","resources/images/fishbone.png","null","",NA,NA,NA,NA,""
"image-keyboard-response",399,309938,"0.0-4.129-0.129","2d2pu464mj4bu00",94,"148.csv","","740.6000000238419","resources/trios/L1T2A3.jpg","37","restless",0.4,0.5,0.7,0.409262268915717,"false"
"image-keyboard-response",400,310341,"0.0-4.129-1.129","2d2pu464mj4bu00",94,"148.csv","","null","resources/maskTrios/L1BB.jpg","null","",NA,NA,NA,NA,""
"image-keyboard-response",401,311547,"0.0-4.129-2.129","2d2pu464mj4bu00",94,"148.csv","","null","resources/images/fishbone.png","null","",NA,NA,NA,NA,""
"image-keyboard-response",402,312032,"0.0-4.130-0.130","2d2pu464mj4bu00",94,"148.csv","","482.69999998807907","resources/trios/L1T2A3.jpg","38","restless",0.4,0.5,0.7,0.587829801581467,"false"
"image-keyboard-response",403,312436,"0.0-4.130-1.130","2d2pu464mj4bu00",94,"148.csv","","null","resources/maskTrios/BT2B.jpg","null","",NA,NA,NA,NA,""
"image-keyboard-response",404,313638,"0.0-4.130-2.130","2d2pu464mj4bu00",94,"148.csv","","null","resources/images/fishbone.png","null","",NA,NA,NA,NA,""
"image-keyboard-response",405,314100,"0.0-4.131-0.131","2d2pu464mj4bu00",94,"148.csv","","459.80000001192093","resources/trios/L1T2A3.jpg","37","restless",0.4,0.5,0.7,0.27716592762258,"true"
"image-keyboard-response",406,314504,"0.0-4.131-1.131","2d2pu464mj4bu00",94,"148.csv","","null","resources/maskTrios/L1BB.jpg","null","",NA,NA,NA,NA,""
"image-keyboard-response",407,315710,"0.0-4.131-2.131","2d2pu464mj4bu00",94,"148.csv","","null","resources/images/coin2.png","null","",NA,NA,NA,NA,""
"image-keyboard-response",408,316198,"0.0-4.132-0.132","2d2pu464mj4bu00",94,"148.csv","","485","resources/trios/L1T2A3.jpg","37","restless",0.4,0.5,0.8,0.0469207798064566,"true"
"image-keyboard-response",409,316599,"0.0-4.132-1.132","2d2pu464mj4bu00",94,"148.csv","","null","resources/maskTrios/L1BB.jpg","null","",NA,NA,NA,NA,""
"image-keyboard-response",410,317806,"0.0-4.132-2.132","2d2pu464mj4bu00",94,"148.csv","","null","resources/images/coin2.png","null","",NA,NA,NA,NA,""
"image-keyboard-response",411,318255,"0.0-4.133-0.133","2d2pu464mj4bu00",94,"148.csv","","447.5","resources/trios/L1T2A3.jpg","37","restless",0.4,0.5,0.8,0.289438088164143,"true"
"image-keyboard-response",412,318661,"0.0-4.133-1.133","2d2pu464mj4bu00",94,"148.csv","","null","resources/maskTrios/L1BB.jpg","null","",NA,NA,NA,NA,""
"image-keyboard-response",413,319866,"0.0-4.133-2.133","2d2pu464mj4bu00",94,"148.csv","","null","resources/images/coin2.png","null","",NA,NA,NA,NA,""
"image-keyboard-response",414,320310,"0.0-4.134-0.134","2d2pu464mj4bu00",94,"148.csv","","442.9000000357628","resources/trios/L1T2A3.jpg","37","restless",0.4,0.5,0.8,0.162981903948256,"true"
"image-keyboard-response",415,320712,"0.0-4.134-1.134","2d2pu464mj4bu00",94,"148.csv","","null","resources/maskTrios/L1BB.jpg","null","",NA,NA,NA,NA,""
"image-keyboard-response",416,321918,"0.0-4.134-2.134","2d2pu464mj4bu00",94,"148.csv","","null","resources/images/coin2.png","null","",NA,NA,NA,NA,""
"image-keyboard-response",417,322306,"0.0-4.135-0.135","2d2pu464mj4bu00",94,"148.csv","","386.30000001192093","resources/trios/L1T2A3.jpg","37","restless",0.4,0.4,0.8,0.797087133832247,"false"
"image-keyboard-response",418,322713,"0.0-4.135-1.135","2d2pu464mj4bu00",94,"148.csv","","null","resources/maskTrios/L1BB.jpg","null","",NA,NA,NA,NA,""
"image-keyboard-response",419,323919,"0.0-4.135-2.135","2d2pu464mj4bu00",94,"148.csv","","null","resources/images/fishbone.png","null","",NA,NA,NA,NA,""
"image-keyboard-response",420,324323,"0.0-4.136-0.136","2d2pu464mj4bu00",94,"148.csv","","402.2999999523163","resources/trios/L1T2A3.jpg","37","restless",0.4,0.4,0.8,0.232345921726006,"true"
"image-keyboard-response",421,324724,"0.0-4.136-1.136","2d2pu464mj4bu00",94,"148.csv","","null","resources/maskTrios/L1BB.jpg","null","",NA,NA,NA,NA,""
"image-keyboard-response",422,325930,"0.0-4.136-2.136","2d2pu464mj4bu00",94,"148.csv","","null","resources/images/coin2.png","null","",NA,NA,NA,NA,""
"image-keyboard-response",423,326358,"0.0-4.137-0.137","2d2pu464mj4bu00",94,"148.csv","","425.80000001192093","resources/trios/L1T2A3.jpg","37","restless",0.3,0.3,0.8,0.0223760514129714,"true"
"image-keyboard-response",424,326764,"0.0-4.137-1.137","2d2pu464mj4bu00",94,"148.csv","","null","resources/maskTrios/L1BB.jpg","null","",NA,NA,NA,NA,""
"image-keyboard-response",425,327965,"0.0-4.137-2.137","2d2pu464mj4bu00",94,"148.csv","","null","resources/images/coin2.png","null","",NA,NA,NA,NA,""
"image-keyboard-response",426,328400,"0.0-4.138-0.138","2d2pu464mj4bu00",94,"148.csv","","432.30000001192093","resources/trios/L1T2A3.jpg","37","restless",0.3,0.3,0.8,0.462991578490232,"false"
"image-keyboard-response",427,328806,"0.0-4.138-1.138","2d2pu464mj4bu00",94,"148.csv","","null","resources/maskTrios/L1BB.jpg","null","",NA,NA,NA,NA,""
"image-keyboard-response",428,330012,"0.0-4.138-2.138","2d2pu464mj4bu00",94,"148.csv","","null","resources/images/fishbone.png","null","",NA,NA,NA,NA,""
"image-keyboard-response",429,330406,"0.0-4.139-0.139","2d2pu464mj4bu00",94,"148.csv","","392.19999998807907","resources/trios/L1T2A3.jpg","39","restless",0.3,0.3,0.8,0.0971962625777885,"true"
"image-keyboard-response",430,330811,"0.0-4.139-1.139","2d2pu464mj4bu00",94,"148.csv","","null","resources/maskTrios/BBA3.jpg","null","",NA,NA,NA,NA,""
"image-keyboard-response",431,332017,"0.0-4.139-2.139","2d2pu464mj4bu00",94,"148.csv","","null","resources/images/coin2.png","null","",NA,NA,NA,NA,""
"image-keyboard-response",432,332512,"0.0-4.140-0.140","2d2pu464mj4bu00",94,"148.csv","","492.5","resources/trios/L1T2A3.jpg","39","restless",0.2,0.3,0.8,0.810285198782464,"false"
"image-keyboard-response",433,332918,"0.0-4.140-1.140","2d2pu464mj4bu00",94,"148.csv","","null","resources/maskTrios/BBA3.jpg","null","",NA,NA,NA,NA,""
"image-keyboard-response",434,334120,"0.0-4.140-2.140","2d2pu464mj4bu00",94,"148.csv","","null","resources/images/fishbone.png","null","",NA,NA,NA,NA,""
"image-keyboard-response",435,334516,"0.0-4.141-0.141","2d2pu464mj4bu00",94,"148.csv","","394.19999998807907","resources/trios/L1T2A3.jpg","39","restless",0.2,0.3,0.8,0.2715373949724,"true"
"image-keyboard-response",436,334922,"0.0-4.141-1.141","2d2pu464mj4bu00",94,"148.csv","","null","resources/maskTrios/BBA3.jpg","null","",NA,NA,NA,NA,""
"image-keyboard-response",437,336129,"0.0-4.141-2.141","2d2pu464mj4bu00",94,"148.csv","","null","resources/images/coin2.png","null","",NA,NA,NA,NA,""
"image-keyboard-response",438,336581,"0.0-4.142-0.142","2d2pu464mj4bu00",94,"148.csv","","450.60000002384186","resources/trios/L1T2A3.jpg","39","restless",0.2,0.3,0.8,0.419901213863604,"true"
"image-keyboard-response",439,336987,"0.0-4.142-1.142","2d2pu464mj4bu00",94,"148.csv","","null","resources/maskTrios/BBA3.jpg","null","",NA,NA,NA,NA,""
"image-keyboard-response",440,338194,"0.0-4.142-2.142","2d2pu464mj4bu00",94,"148.csv","","null","resources/images/coin2.png","null","",NA,NA,NA,NA,""
"image-keyboard-response",441,338426,"0.0-4.143-0.143","2d2pu464mj4bu00",94,"148.csv","","229.29999995231628","resources/trios/L1T2A3.jpg","39","restless",0.2,0.3,0.7,0.946196633661443,"false"
"image-keyboard-response",442,338828,"0.0-4.143-1.143","2d2pu464mj4bu00",94,"148.csv","","null","resources/maskTrios/BBA3.jpg","null","",NA,NA,NA,NA,""
"image-keyboard-response",443,340034,"0.0-4.143-2.143","2d2pu464mj4bu00",94,"148.csv","","null","resources/images/fishbone.png","null","",NA,NA,NA,NA,""
"image-keyboard-response",444,340491,"0.0-4.144-0.144","2d2pu464mj4bu00",94,"148.csv","","454.19999998807907","resources/trios/L1T2A3.jpg","38","restless",0.2,0.3,0.7,0.937586264116302,"false"
"image-keyboard-response",445,340892,"0.0-4.144-1.144","2d2pu464mj4bu00",94,"148.csv","","null","resources/maskTrios/BT2B.jpg","null","",NA,NA,NA,NA,""
"image-keyboard-response",446,342096,"0.0-4.144-2.144","2d2pu464mj4bu00",94,"148.csv","","null","resources/images/fishbone.png","null","",NA,NA,NA,NA,""
"image-keyboard-response",447,342516,"0.0-4.145-0.145","2d2pu464mj4bu00",94,"148.csv","","418.89999997615814","resources/trios/L1T2A3.jpg","38","restless",0.2,0.3,0.7,0.998943559284949,"false"
"image-keyboard-response",448,342918,"0.0-4.145-1.145","2d2pu464mj4bu00",94,"148.csv","","null","resources/maskTrios/BT2B.jpg","null","",NA,NA,NA,NA,""
"image-keyboard-response",449,344122,"0.0-4.145-2.145","2d2pu464mj4bu00",94,"148.csv","","null","resources/images/fishbone.png","null","",NA,NA,NA,NA,""
"image-keyboard-response",450,344554,"0.0-4.146-0.146","2d2pu464mj4bu00",94,"148.csv","","429.10000002384186","resources/trios/L1T2A3.jpg","37","restless",0.2,0.3,0.7,0.9603510061812,"false"
"image-keyboard-response",451,344960,"0.0-4.146-1.146","2d2pu464mj4bu00",94,"148.csv","","null","resources/maskTrios/L1BB.jpg","null","",NA,NA,NA,NA,""
"image-keyboard-response",452,346166,"0.0-4.146-2.146","2d2pu464mj4bu00",94,"148.csv","","null","resources/images/fishbone.png","null","",NA,NA,NA,NA,""
"image-keyboard-response",453,346625,"0.0-4.147-0.147","2d2pu464mj4bu00",94,"148.csv","","457.30000001192093","resources/trios/L1T2A3.jpg","38","restless",0.2,0.3,0.7,0.64820922950215,"false"
"image-keyboard-response",454,347031,"0.0-4.147-1.147","2d2pu464mj4bu00",94,"148.csv","","null","resources/maskTrios/BT2B.jpg","null","",NA,NA,NA,NA,""
"image-keyboard-response",455,348238,"0.0-4.147-2.147","2d2pu464mj4bu00",94,"148.csv","","null","resources/images/fishbone.png","null","",NA,NA,NA,NA,""
"image-keyboard-response",456,348755,"0.0-4.148-0.148","2d2pu464mj4bu00",94,"148.csv","","515.1000000238419","resources/trios/L1T2A3.jpg","37","restless",0.2,0.3,0.7,0.743841518228685,"false"
"image-keyboard-response",457,349161,"0.0-4.148-1.148","2d2pu464mj4bu00",94,"148.csv","","null","resources/maskTrios/L1BB.jpg","null","",NA,NA,NA,NA,""
"image-keyboard-response",458,350363,"0.0-4.148-2.148","2d2pu464mj4bu00",94,"148.csv","","null","resources/images/fishbone.png","null","",NA,NA,NA,NA,""
"image-keyboard-response",459,350826,"0.0-4.149-0.149","2d2pu464mj4bu00",94,"148.csv","","461","resources/trios/L1T2A3.jpg","39","restless",0.2,0.3,0.7,0.753965475449205,"false"
"image-keyboard-response",460,351227,"0.0-4.149-1.149","2d2pu464mj4bu00",94,"148.csv","","null","resources/maskTrios/BBA3.jpg","null","",NA,NA,NA,NA,""
"image-keyboard-response",461,352432,"0.0-4.149-2.149","2d2pu464mj4bu00",94,"148.csv","","null","resources/images/fishbone.png","null","",NA,NA,NA,NA,""
"image-keyboard-response",462,352853,"0.0-4.150-0.150","2d2pu464mj4bu00",94,"148.csv","","418.5","resources/trios/L1T2A3.jpg","39","restless",0.2,0.3,0.6,0.0490882331695106,"true"
"image-keyboard-response",463,353259,"0.0-4.150-1.150","2d2pu464mj4bu00",94,"148.csv","","null","resources/maskTrios/BBA3.jpg","null","",NA,NA,NA,NA,""
"image-keyboard-response",464,354460,"0.0-4.150-2.150","2d2pu464mj4bu00",94,"148.csv","","null","resources/images/coin2.png","null","",NA,NA,NA,NA,""
"image-keyboard-response",465,354830,"0.0-4.151-0.151","2d2pu464mj4bu00",94,"148.csv","","368","resources/trios/L1T2A3.jpg","39","restless",0.2,0.3,0.6,0.57637837727881,"true"
"image-keyboard-response",466,355237,"0.0-4.151-1.151","2d2pu464mj4bu00",94,"148.csv","","null","resources/maskTrios/BBA3.jpg","null","",NA,NA,NA,NA,""
"image-keyboard-response",467,356440,"0.0-4.151-2.151","2d2pu464mj4bu00",94,"148.csv","","null","resources/images/coin2.png","null","",NA,NA,NA,NA,""
"image-keyboard-response",468,357208,"0.0-4.152-0.152","2d2pu464mj4bu00",94,"148.csv","","765.6999999880791","resources/trios/L1T2A3.jpg","39","restless",0.2,0.3,0.6,0.584719506773321,"true"
"image-keyboard-response",469,357614,"0.0-4.152-1.152","2d2pu464mj4bu00",94,"148.csv","","null","resources/maskTrios/BBA3.jpg","null","",NA,NA,NA,NA,""
"image-keyboard-response",470,358820,"0.0-4.152-2.152","2d2pu464mj4bu00",94,"148.csv","","null","resources/images/coin2.png","null","",NA,NA,NA,NA,""
"image-keyboard-response",471,359269,"0.0-4.153-0.153","2d2pu464mj4bu00",94,"148.csv","","446.89999997615814","resources/trios/L1T2A3.jpg","39","restless",0.2,0.2,0.7,0.902818869369184,"false"
"image-keyboard-response",472,359676,"0.0-4.153-1.153","2d2pu464mj4bu00",94,"148.csv","","null","resources/maskTrios/BBA3.jpg","null","",NA,NA,NA,NA,""
"image-keyboard-response",473,360882,"0.0-4.153-2.153","2d2pu464mj4bu00",94,"148.csv","","null","resources/images/fishbone.png","null","",NA,NA,NA,NA,""
"image-keyboard-response",474,361278,"0.0-4.154-0.154","2d2pu464mj4bu00",94,"148.csv","","394.19999998807907","resources/trios/L1T2A3.jpg","37","restless",0.2,0.2,0.6,0.511340671115224,"false"
"image-keyboard-response",475,361682,"0.0-4.154-1.154","2d2pu464mj4bu00",94,"148.csv","","null","resources/maskTrios/L1BB.jpg","null","",NA,NA,NA,NA,""
"image-keyboard-response",476,362889,"0.0-4.154-2.154","2d2pu464mj4bu00",94,"148.csv","","null","resources/images/fishbone.png","null","",NA,NA,NA,NA,""
"image-keyboard-response",477,363278,"0.0-4.155-0.155","2d2pu464mj4bu00",94,"148.csv","","387.60000002384186","resources/trios/L1T2A3.jpg","37","restless",0.2,0.2,0.6,0.347080781498685,"false"
"image-keyboard-response",478,363684,"0.0-4.155-1.155","2d2pu464mj4bu00",94,"148.csv","","null","resources/maskTrios/L1BB.jpg","null","",NA,NA,NA,NA,""
"image-keyboard-response",479,364890,"0.0-4.155-2.155","2d2pu464mj4bu00",94,"148.csv","","null","resources/images/fishbone.png","null","",NA,NA,NA,NA,""
"image-keyboard-response",480,365296,"0.0-4.156-0.156","2d2pu464mj4bu00",94,"148.csv","","404","resources/trios/L1T2A3.jpg","38","restless",0.2,0.2,0.6,0.513609876695503,"false"
"image-keyboard-response",481,365703,"0.0-4.156-1.156","2d2pu464mj4bu00",94,"148.csv","","null","resources/maskTrios/BT2B.jpg","null","",NA,NA,NA,NA,""
"image-keyboard-response",482,366909,"0.0-4.156-2.156","2d2pu464mj4bu00",94,"148.csv","","null","resources/images/fishbone.png","null","",NA,NA,NA,NA,""
"image-keyboard-response",483,367308,"0.0-4.157-0.157","2d2pu464mj4bu00",94,"148.csv","","396.80000001192093","resources/trios/L1T2A3.jpg","39","restless",0.2,0.2,0.6,0.583318528136775,"true"
"image-keyboard-response",484,367712,"0.0-4.157-1.157","2d2pu464mj4bu00",94,"148.csv","","null","resources/maskTrios/BBA3.jpg","null","",NA,NA,NA,NA,""
"image-keyboard-response",485,368916,"0.0-4.157-2.157","2d2pu464mj4bu00",94,"148.csv","","null","resources/images/coin2.png","null","",NA,NA,NA,NA,""
"image-keyboard-response",486,369331,"0.0-4.158-0.158","2d2pu464mj4bu00",94,"148.csv","","413.39999997615814","resources/trios/L1T2A3.jpg","39","restless",0.3,0.2,0.6,0.343369827029286,"true"
"image-keyboard-response",487,369738,"0.0-4.158-1.158","2d2pu464mj4bu00",94,"148.csv","","null","resources/maskTrios/BBA3.jpg","null","",NA,NA,NA,NA,""
"image-keyboard-response",488,370941,"0.0-4.158-2.158","2d2pu464mj4bu00",94,"148.csv","","null","resources/images/coin2.png","null","",NA,NA,NA,NA,""
"image-keyboard-response",489,371366,"0.0-4.159-0.159","2d2pu464mj4bu00",94,"148.csv","","423.5","resources/trios/L1T2A3.jpg","39","restless",0.3,0.2,0.6,0.139132920789365,"true"
"image-keyboard-response",490,371772,"0.0-4.159-1.159","2d2pu464mj4bu00",94,"148.csv","","null","resources/maskTrios/BBA3.jpg","null","",NA,NA,NA,NA,""
"image-keyboard-response",491,372979,"0.0-4.159-2.159","2d2pu464mj4bu00",94,"148.csv","","null","resources/images/coin2.png","null","",NA,NA,NA,NA,""
"image-keyboard-response",492,373377,"0.0-4.160-0.160","2d2pu464mj4bu00",94,"148.csv","","396","resources/trios/L1T2A3.jpg","39","restless",0.3,0.2,0.6,0.180700450536653,"true"
"image-keyboard-response",493,373783,"0.0-4.160-1.160","2d2pu464mj4bu00",94,"148.csv","","null","resources/maskTrios/BBA3.jpg","null","",NA,NA,NA,NA,""
"image-keyboard-response",494,374985,"0.0-4.160-2.160","2d2pu464mj4bu00",94,"148.csv","","null","resources/images/coin2.png","null","",NA,NA,NA,NA,""
"image-keyboard-response",495,375447,"0.0-4.161-0.161","2d2pu464mj4bu00",94,"148.csv","","459.19999998807907","resources/trios/L1T2A3.jpg","39","restless",0.3,0.2,0.6,0.0359814788610606,"true"
"image-keyboard-response",496,375853,"0.0-4.161-1.161","2d2pu464mj4bu00",94,"148.csv","","null","resources/maskTrios/BBA3.jpg","null","",NA,NA,NA,NA,""
"image-keyboard-response",497,377059,"0.0-4.161-2.161","2d2pu464mj4bu00",94,"148.csv","","null","resources/images/coin2.png","null","",NA,NA,NA,NA,""
"image-keyboard-response",498,377505,"0.0-4.162-0.162","2d2pu464mj4bu00",94,"148.csv","","443.39999997615814","resources/trios/L1T2A3.jpg","39","restless",0.3,0.2,0.6,0.0856841840907843,"true"
"image-keyboard-response",499,377906,"0.0-4.162-1.162","2d2pu464mj4bu00",94,"148.csv","","null","resources/maskTrios/BBA3.jpg","null","",NA,NA,NA,NA,""
"image-keyboard-response",500,379112,"0.0-4.162-2.162","2d2pu464mj4bu00",94,"148.csv","","null","resources/images/coin2.png","null","",NA,NA,NA,NA,""
"image-keyboard-response",501,379660,"0.0-4.163-0.163","2d2pu464mj4bu00",94,"148.csv","","545.1000000238419","resources/trios/L1T2A3.jpg","39","restless",0.3,0.2,0.6,0.289526977702469,"true"
"image-keyboard-response",502,380066,"0.0-4.163-1.163","2d2pu464mj4bu00",94,"148.csv","","null","resources/maskTrios/BBA3.jpg","null","",NA,NA,NA,NA,""
"image-keyboard-response",503,381272,"0.0-4.163-2.163","2d2pu464mj4bu00",94,"148.csv","","null","resources/images/coin2.png","null","",NA,NA,NA,NA,""
"image-keyboard-response",504,381679,"0.0-4.164-0.164","2d2pu464mj4bu00",94,"148.csv","","404.5","resources/trios/L1T2A3.jpg","39","restless",0.3,0.2,0.6,0.260448462186543,"true"
"image-keyboard-response",505,382084,"0.0-4.164-1.164","2d2pu464mj4bu00",94,"148.csv","","null","resources/maskTrios/BBA3.jpg","null","",NA,NA,NA,NA,""
"image-keyboard-response",506,383286,"0.0-4.164-2.164","2d2pu464mj4bu00",94,"148.csv","","null","resources/images/coin2.png","null","",NA,NA,NA,NA,""
"image-keyboard-response",507,383733,"0.0-4.165-0.165","2d2pu464mj4bu00",94,"148.csv","","445.0999999642372","resources/trios/L1T2A3.jpg","39","restless",0.3,0.2,0.6,0.00889368759735976,"true"
"image-keyboard-response",508,384136,"0.0-4.165-1.165","2d2pu464mj4bu00",94,"148.csv","","null","resources/maskTrios/BBA3.jpg","null","",NA,NA,NA,NA,""
"image-keyboard-response",509,385342,"0.0-4.165-2.165","2d2pu464mj4bu00",94,"148.csv","","null","resources/images/coin2.png","null","",NA,NA,NA,NA,""
"image-keyboard-response",510,385811,"0.0-4.166-0.166","2d2pu464mj4bu00",94,"148.csv","","466.89999997615814","resources/trios/L1T2A3.jpg","39","restless",0.3,0.3,0.6,0.764637620309968,"false"
"image-keyboard-response",511,386214,"0.0-4.166-1.166","2d2pu464mj4bu00",94,"148.csv","","null","resources/maskTrios/BBA3.jpg","null","",NA,NA,NA,NA,""
"image-keyboard-response",512,387421,"0.0-4.166-2.166","2d2pu464mj4bu00",94,"148.csv","","null","resources/images/fishbone.png","null","",NA,NA,NA,NA,""
"image-keyboard-response",513,387946,"0.0-4.167-0.167","2d2pu464mj4bu00",94,"148.csv","","523.3000000119209","resources/trios/L1T2A3.jpg","39","restless",0.3,0.4,0.6,0.243918837944812,"true"
"image-keyboard-response",514,388347,"0.0-4.167-1.167","2d2pu464mj4bu00",94,"148.csv","","null","resources/maskTrios/BBA3.jpg","null","",NA,NA,NA,NA,""
"image-keyboard-response",515,389552,"0.0-4.167-2.167","2d2pu464mj4bu00",94,"148.csv","","null","resources/images/coin2.png","null","",NA,NA,NA,NA,""
"image-keyboard-response",516,389987,"0.0-4.168-0.168","2d2pu464mj4bu00",94,"148.csv","","432.60000002384186","resources/trios/L1T2A3.jpg","39","restless",0.3,0.4,0.6,0.153092817045281,"true"
"image-keyboard-response",517,390393,"0.0-4.168-1.168","2d2pu464mj4bu00",94,"148.csv","","null","resources/maskTrios/BBA3.jpg","null","",NA,NA,NA,NA,""
"image-keyboard-response",518,391597,"0.0-4.168-2.168","2d2pu464mj4bu00",94,"148.csv","","null","resources/images/coin2.png","null","",NA,NA,NA,NA,""
"image-keyboard-response",519,392119,"0.0-4.169-0.169","2d2pu464mj4bu00",94,"148.csv","","519.8000000119209","resources/trios/L1T2A3.jpg","39","restless",0.3,0.4,0.6,0.696975611185652,"false"
"image-keyboard-response",520,392526,"0.0-4.169-1.169","2d2pu464mj4bu00",94,"148.csv","","null","resources/maskTrios/BBA3.jpg","null","",NA,NA,NA,NA,""
"image-keyboard-response",521,393732,"0.0-4.169-2.169","2d2pu464mj4bu00",94,"148.csv","","null","resources/images/fishbone.png","null","",NA,NA,NA,NA,""
"image-keyboard-response",522,394210,"0.0-4.170-0.170","2d2pu464mj4bu00",94,"148.csv","","476.19999998807907","resources/trios/L1T2A3.jpg","39","restless",0.3,0.4,0.6,0.565403896448113,"true"
"image-keyboard-response",523,394617,"0.0-4.170-1.170","2d2pu464mj4bu00",94,"148.csv","","null","resources/maskTrios/BBA3.jpg","null","",NA,NA,NA,NA,""
"image-keyboard-response",524,395823,"0.0-4.170-2.170","2d2pu464mj4bu00",94,"148.csv","","null","resources/images/coin2.png","null","",NA,NA,NA,NA,""
"image-keyboard-response",525,396304,"0.0-4.171-0.171","2d2pu464mj4bu00",94,"148.csv","","478.5","resources/trios/L1T2A3.jpg","39","restless",0.3,0.4,0.6,0.72612274237963,"false"
"image-keyboard-response",526,396710,"0.0-4.171-1.171","2d2pu464mj4bu00",94,"148.csv","","null","resources/maskTrios/BBA3.jpg","null","",NA,NA,NA,NA,""
"image-keyboard-response",527,397913,"0.0-4.171-2.171","2d2pu464mj4bu00",94,"148.csv","","null","resources/images/fishbone.png","null","",NA,NA,NA,NA,""
"image-keyboard-response",528,399283,"0.0-4.172-0.172","2d2pu464mj4bu00",94,"148.csv","","1367.9000000357628","resources/trios/L1T2A3.jpg","38","restless",0.3,0.4,0.6,0.679997188619877,"false"
"image-keyboard-response",529,399689,"0.0-4.172-1.172","2d2pu464mj4bu00",94,"148.csv","","null","resources/maskTrios/BT2B.jpg","null","",NA,NA,NA,NA,""
"image-keyboard-response",530,400890,"0.0-4.172-2.172","2d2pu464mj4bu00",94,"148.csv","","null","resources/images/fishbone.png","null","",NA,NA,NA,NA,""
"image-keyboard-response",531,401513,"0.0-4.173-0.173","2d2pu464mj4bu00",94,"148.csv","","620.3000000119209","resources/trios/L1T2A3.jpg","37","restless",0.3,0.4,0.6,0.085127554276422,"true"
"image-keyboard-response",532,401919,"0.0-4.173-1.173","2d2pu464mj4bu00",94,"148.csv","","null","resources/maskTrios/L1BB.jpg","null","",NA,NA,NA,NA,""
"image-keyboard-response",533,403123,"0.0-4.173-2.173","2d2pu464mj4bu00",94,"148.csv","","null","resources/images/coin2.png","null","",NA,NA,NA,NA,""
"image-keyboard-response",534,403566,"0.0-4.174-0.174","2d2pu464mj4bu00",94,"148.csv","","441.5999999642372","resources/trios/L1T2A3.jpg","37","restless",0.3,0.4,0.6,0.229184460347426,"true"
"image-keyboard-response",535,403972,"0.0-4.174-1.174","2d2pu464mj4bu00",94,"148.csv","","null","resources/maskTrios/L1BB.jpg","null","",NA,NA,NA,NA,""
"image-keyboard-response",536,405173,"0.0-4.174-2.174","2d2pu464mj4bu00",94,"148.csv","","null","resources/images/coin2.png","null","",NA,NA,NA,NA,""
"image-keyboard-response",537,405594,"0.0-4.175-0.175","2d2pu464mj4bu00",94,"148.csv","","418.80000001192093","resources/trios/L1T2A3.jpg","37","restless",0.3,0.4,0.6,0.350506019167286,"false"
"image-keyboard-response",538,405997,"0.0-4.175-1.175","2d2pu464mj4bu00",94,"148.csv","","null","resources/maskTrios/L1BB.jpg","null","",NA,NA,NA,NA,""
"image-keyboard-response",539,407197,"0.0-4.175-2.175","2d2pu464mj4bu00",94,"148.csv","","null","resources/images/fishbone.png","null","",NA,NA,NA,NA,""
"image-keyboard-response",540,407631,"0.0-4.176-0.176","2d2pu464mj4bu00",94,"148.csv","","432.30000001192093","resources/trios/L1T2A3.jpg","37","restless",0.3,0.4,0.6,0.631874229523326,"false"
"image-keyboard-response",541,408034,"0.0-4.176-1.176","2d2pu464mj4bu00",94,"148.csv","","null","resources/maskTrios/L1BB.jpg","null","",NA,NA,NA,NA,""
"image-keyboard-response",542,409236,"0.0-4.176-2.176","2d2pu464mj4bu00",94,"148.csv","","null","resources/images/fishbone.png","null","",NA,NA,NA,NA,""
"image-keyboard-response",543,411104,"0.0-4.177-0.177","2d2pu464mj4bu00",94,"148.csv","","1865.2999999523163","resources/trios/L1T2A3.jpg","39","restless",0.3,0.4,0.6,0.796685158153986,"false"
"image-keyboard-response",544,411505,"0.0-4.177-1.177","2d2pu464mj4bu00",94,"148.csv","","null","resources/maskTrios/BBA3.jpg","null","",NA,NA,NA,NA,""
"image-keyboard-response",545,412708,"0.0-4.177-2.177","2d2pu464mj4bu00",94,"148.csv","","null","resources/images/fishbone.png","null","",NA,NA,NA,NA,""
"image-keyboard-response",546,413199,"0.0-4.178-0.178","2d2pu464mj4bu00",94,"148.csv","","489.60000002384186","resources/trios/L1T2A3.jpg","38","restless",0.3,0.4,0.6,0.434885165926963,"false"
"image-keyboard-response",547,413601,"0.0-4.178-1.178","2d2pu464mj4bu00",94,"148.csv","","null","resources/maskTrios/BT2B.jpg","null","",NA,NA,NA,NA,""
"image-keyboard-response",548,414801,"0.0-4.178-2.178","2d2pu464mj4bu00",94,"148.csv","","null","resources/images/fishbone.png","null","",NA,NA,NA,NA,""
"image-keyboard-response",549,415385,"0.0-4.179-0.179","2d2pu464mj4bu00",94,"148.csv","","582.1999999880791","resources/trios/L1T2A3.jpg","39","restless",0.3,0.4,0.6,0.843903545961603,"false"
"image-keyboard-response",550,415787,"0.0-4.179-1.179","2d2pu464mj4bu00",94,"148.csv","","null","resources/maskTrios/BBA3.jpg","null","",NA,NA,NA,NA,""
"image-keyboard-response",551,416989,"0.0-4.179-2.179","2d2pu464mj4bu00",94,"148.csv","","null","resources/images/fishbone.png","null","",NA,NA,NA,NA,""
"image-keyboard-response",552,417394,"0.0-4.180-0.180","2d2pu464mj4bu00",94,"148.csv","","403.2999999523163","resources/trios/L1T2A3.jpg","39","restless",0.3,0.4,0.6,0.171804061821786,"true"
"image-keyboard-response",553,417800,"0.0-4.180-1.180","2d2pu464mj4bu00",94,"148.csv","","null","resources/maskTrios/BBA3.jpg","null","",NA,NA,NA,NA,""
"image-keyboard-response",554,419007,"0.0-4.180-2.180","2d2pu464mj4bu00",94,"148.csv","","null","resources/images/coin2.png","null","",NA,NA,NA,NA,""
"image-keyboard-response",555,419457,"0.0-4.181-0.181","2d2pu464mj4bu00",94,"148.csv","","448.69999998807907","resources/trios/L1T2A3.jpg","39","restless",0.3,0.4,0.6,0.528205417386055,"true"
"image-keyboard-response",556,419861,"0.0-4.181-1.181","2d2pu464mj4bu00",94,"148.csv","","null","resources/maskTrios/BBA3.jpg","null","",NA,NA,NA,NA,""
"image-keyboard-response",557,421067,"0.0-4.181-2.181","2d2pu464mj4bu00",94,"148.csv","","null","resources/images/coin2.png","null","",NA,NA,NA,NA,""
"image-keyboard-response",558,421590,"0.0-4.182-0.182","2d2pu464mj4bu00",94,"148.csv","","520.8000000119209","resources/trios/L1T2A3.jpg","39","restless",0.3,0.4,0.6,0.726796258405991,"false"
"image-keyboard-response",559,421996,"0.0-4.182-1.182","2d2pu464mj4bu00",94,"148.csv","","null","resources/maskTrios/BBA3.jpg","null","",NA,NA,NA,NA,""
"image-keyboard-response",560,423200,"0.0-4.182-2.182","2d2pu464mj4bu00",94,"148.csv","","null","resources/images/fishbone.png","null","",NA,NA,NA,NA,""
"image-keyboard-response",561,423661,"0.0-4.183-0.183","2d2pu464mj4bu00",94,"148.csv","","460","resources/trios/L1T2A3.jpg","39","restless",0.3,0.4,0.6,0.240992956863621,"true"
"image-keyboard-response",562,424068,"0.0-4.183-1.183","2d2pu464mj4bu00",94,"148.csv","","null","resources/maskTrios/BBA3.jpg","null","",NA,NA,NA,NA,""
"image-keyboard-response",563,425270,"0.0-4.183-2.183","2d2pu464mj4bu00",94,"148.csv","","null","resources/images/coin2.png","null","",NA,NA,NA,NA,""
"image-keyboard-response",564,425718,"0.0-4.184-0.184","2d2pu464mj4bu00",94,"148.csv","","446","resources/trios/L1T2A3.jpg","39","restless",0.3,0.4,0.7,0.271956416366279,"true"
"image-keyboard-response",565,426124,"0.0-4.184-1.184","2d2pu464mj4bu00",94,"148.csv","","null","resources/maskTrios/BBA3.jpg","null","",NA,NA,NA,NA,""
"image-keyboard-response",566,427329,"0.0-4.184-2.184","2d2pu464mj4bu00",94,"148.csv","","null","resources/images/coin2.png","null","",NA,NA,NA,NA,""
"image-keyboard-response",567,427701,"0.0-4.185-0.185","2d2pu464mj4bu00",94,"148.csv","","370.0999999642372","resources/trios/L1T2A3.jpg","39","restless",0.3,0.4,0.7,0.644870398390544,"true"
"image-keyboard-response",568,428107,"0.0-4.185-1.185","2d2pu464mj4bu00",94,"148.csv","","null","resources/maskTrios/BBA3.jpg","null","",NA,NA,NA,NA,""
"image-keyboard-response",569,429313,"0.0-4.185-2.185","2d2pu464mj4bu00",94,"148.csv","","null","resources/images/coin2.png","null","",NA,NA,NA,NA,""
"image-keyboard-response",570,429761,"0.0-4.186-0.186","2d2pu464mj4bu00",94,"148.csv","","446.19999998807907","resources/trios/L1T2A3.jpg","39","restless",0.3,0.5,0.7,0.551887597035952,"true"
"image-keyboard-response",571,430168,"0.0-4.186-1.186","2d2pu464mj4bu00",94,"148.csv","","null","resources/maskTrios/BBA3.jpg","null","",NA,NA,NA,NA,""
"image-keyboard-response",572,431374,"0.0-4.186-2.186","2d2pu464mj4bu00",94,"148.csv","","null","resources/images/coin2.png","null","",NA,NA,NA,NA,""
"image-keyboard-response",573,431455,"0.0-4.187-0.187","2d2pu464mj4bu00",94,"148.csv","","79.30000001192093","resources/trios/L1T2A3.jpg","39","restless",0.3,0.5,0.7,0.0233353245059031,"true"
"image-keyboard-response",574,431861,"0.0-4.187-1.187","2d2pu464mj4bu00",94,"148.csv","","null","resources/maskTrios/BBA3.jpg","null","",NA,NA,NA,NA,""
"image-keyboard-response",575,433067,"0.0-4.187-2.187","2d2pu464mj4bu00",94,"148.csv","","null","resources/images/coin2.png","null","",NA,NA,NA,NA,""
"image-keyboard-response",576,433496,"0.0-4.188-0.188","2d2pu464mj4bu00",94,"148.csv","","426.80000001192093","resources/trios/L1T2A3.jpg","39","restless",0.3,0.5,0.7,0.608763461172535,"true"
"image-keyboard-response",577,433901,"0.0-4.188-1.188","2d2pu464mj4bu00",94,"148.csv","","null","resources/maskTrios/BBA3.jpg","null","",NA,NA,NA,NA,""
"image-keyboard-response",578,435105,"0.0-4.188-2.188","2d2pu464mj4bu00",94,"148.csv","","null","resources/images/coin2.png","null","",NA,NA,NA,NA,""
"image-keyboard-response",579,435562,"0.0-4.189-0.189","2d2pu464mj4bu00",94,"148.csv","","454.30000001192093","resources/trios/L1T2A3.jpg","39","restless",0.3,0.6,0.7,0.888907742316928,"false"
"image-keyboard-response",580,435963,"0.0-4.189-1.189","2d2pu464mj4bu00",94,"148.csv","","null","resources/maskTrios/BBA3.jpg","null","",NA,NA,NA,NA,""
"image-keyboard-response",581,437169,"0.0-4.189-2.189","2d2pu464mj4bu00",94,"148.csv","","null","resources/images/fishbone.png","null","",NA,NA,NA,NA,""
"image-keyboard-response",582,438911,"0.0-4.190-0.190","2d2pu464mj4bu00",94,"148.csv","","1738.800000011921","resources/trios/L1T2A3.jpg","39","restless",0.4,0.6,0.7,0.612761618771611,"true"
"image-keyboard-response",583,439317,"0.0-4.190-1.190","2d2pu464mj4bu00",94,"148.csv","","null","resources/maskTrios/BBA3.jpg","null","",NA,NA,NA,NA,""
"image-keyboard-response",584,440523,"0.0-4.190-2.190","2d2pu464mj4bu00",94,"148.csv","","null","resources/images/coin2.png","null","",NA,NA,NA,NA,""
"image-keyboard-response",585,440973,"0.0-4.191-0.191","2d2pu464mj4bu00",94,"148.csv","","447.69999998807907","resources/trios/L1T2A3.jpg","39","restless",0.4,0.6,0.8,0.687526181180391,"true"
"image-keyboard-response",586,441379,"0.0-4.191-1.191","2d2pu464mj4bu00",94,"148.csv","","null","resources/maskTrios/BBA3.jpg","null","",NA,NA,NA,NA,""
"image-keyboard-response",587,442585,"0.0-4.191-2.191","2d2pu464mj4bu00",94,"148.csv","","null","resources/images/coin2.png","null","",NA,NA,NA,NA,""
"image-keyboard-response",588,442943,"0.0-4.192-0.192","2d2pu464mj4bu00",94,"148.csv","","355.69999998807907","resources/trios/L1T2A3.jpg","39","restless",0.4,0.6,0.9,0.368020592442547,"true"
"image-keyboard-response",589,443347,"0.0-4.192-1.192","2d2pu464mj4bu00",94,"148.csv","","null","resources/maskTrios/BBA3.jpg","null","",NA,NA,NA,NA,""
"image-keyboard-response",590,444554,"0.0-4.192-2.192","2d2pu464mj4bu00",94,"148.csv","","null","resources/images/coin2.png","null","",NA,NA,NA,NA,""
"image-keyboard-response",591,445010,"0.0-4.193-0.193","2d2pu464mj4bu00",94,"148.csv","","454.5","resources/trios/L1T2A3.jpg","39","restless",0.4,0.6,0.9,0.563850517697045,"true"
"image-keyboard-response",592,445411,"0.0-4.193-1.193","2d2pu464mj4bu00",94,"148.csv","","null","resources/maskTrios/BBA3.jpg","null","",NA,NA,NA,NA,""
"image-keyboard-response",593,446618,"0.0-4.193-2.193","2d2pu464mj4bu00",94,"148.csv","","null","resources/images/coin2.png","null","",NA,NA,NA,NA,""
"image-keyboard-response",594,447099,"0.0-4.194-0.194","2d2pu464mj4bu00",94,"148.csv","","479","resources/trios/L1T2A3.jpg","39","restless",0.4,0.6,0.8,0.0658255945551645,"true"
"image-keyboard-response",595,447505,"0.0-4.194-1.194","2d2pu464mj4bu00",94,"148.csv","","null","resources/maskTrios/BBA3.jpg","null","",NA,NA,NA,NA,""
"image-keyboard-response",596,448711,"0.0-4.194-2.194","2d2pu464mj4bu00",94,"148.csv","","null","resources/images/coin2.png","null","",NA,NA,NA,NA,""
"image-keyboard-response",597,449172,"0.0-4.195-0.195","2d2pu464mj4bu00",94,"148.csv","","458.39999997615814","resources/trios/L1T2A3.jpg","39","restless",0.4,0.6,0.8,0.0997565659116675,"true"
"image-keyboard-response",598,449575,"0.0-4.195-1.195","2d2pu464mj4bu00",94,"148.csv","","null","resources/maskTrios/BBA3.jpg","null","",NA,NA,NA,NA,""
"image-keyboard-response",599,450780,"0.0-4.195-2.195","2d2pu464mj4bu00",94,"148.csv","","null","resources/images/coin2.png","null","",NA,NA,NA,NA,""
"image-keyboard-response",600,451279,"0.0-4.196-0.196","2d2pu464mj4bu00",94,"148.csv","","497.0999999642372","resources/trios/L1T2A3.jpg","39","restless",0.4,0.6,0.8,0.121550978814683,"true"
"image-keyboard-response",601,451681,"0.0-4.196-1.196","2d2pu464mj4bu00",94,"148.csv","","null","resources/maskTrios/BBA3.jpg","null","",NA,NA,NA,NA,""
"image-keyboard-response",602,452884,"0.0-4.196-2.196","2d2pu464mj4bu00",94,"148.csv","","null","resources/images/coin2.png","null","",NA,NA,NA,NA,""
"image-keyboard-response",603,453343,"0.0-4.197-0.197","2d2pu464mj4bu00",94,"148.csv","","455.69999998807907","resources/trios/L1T2A3.jpg","39","restless",0.3,0.6,0.9,0.968234072024819,"false"
"image-keyboard-response",604,453745,"0.0-4.197-1.197","2d2pu464mj4bu00",94,"148.csv","","null","resources/maskTrios/BBA3.jpg","null","",NA,NA,NA,NA,""
"image-keyboard-response",605,454951,"0.0-4.197-2.197","2d2pu464mj4bu00",94,"148.csv","","null","resources/images/fishbone.png","null","",NA,NA,NA,NA,""
"image-keyboard-response",606,455609,"0.0-4.198-0.198","2d2pu464mj4bu00",94,"148.csv","","656.1000000238419","resources/trios/L1T2A3.jpg","39","restless",0.3,0.6,0.9,0.783352953417685,"true"
"image-keyboard-response",607,456012,"0.0-4.198-1.198","2d2pu464mj4bu00",94,"148.csv","","null","resources/maskTrios/BBA3.jpg","null","",NA,NA,NA,NA,""
"image-keyboard-response",608,457218,"0.0-4.198-2.198","2d2pu464mj4bu00",94,"148.csv","","null","resources/images/coin2.png","null","",NA,NA,NA,NA,""
"image-keyboard-response",609,457577,"0.0-4.199-0.199","2d2pu464mj4bu00",94,"148.csv","","357","resources/trios/L1T2A3.jpg","39","restless",0.3,0.6,0.9,0.235653853283753,"true"
"image-keyboard-response",610,457978,"0.0-4.199-1.199","2d2pu464mj4bu00",94,"148.csv","","null","resources/maskTrios/BBA3.jpg","null","",NA,NA,NA,NA,""
"image-keyboard-response",611,459180,"0.0-4.199-2.199","2d2pu464mj4bu00",94,"148.csv","","null","resources/images/coin2.png","null","",NA,NA,NA,NA,""
"survey-text",612,623327,"0.0-5.0","2d2pu464mj4bu00",94,"148.csv","","164146.89999997616","","","",NA,NA,NA,NA,""
