"trial_type","trial_index","time_elapsed","internal_node_id","subject","participantCode","walkNumber","success","rt","stimulus","key_press","test_part","leftProb","midProb","rightProb","generatedNum","correct"
"pavlovia",0,980,"0.0-0.0","dn41v8te4g39rnz",979,"157.csv","","","","","",NA,NA,NA,NA,""
"fullscreen",1,3812,"0.0-1.0","dn41v8te4g39rnz",979,"157.csv","true","","","","",NA,NA,NA,NA,""
"survey-html-form",2,24008,"0.0-2.0","dn41v8te4g39rnz",979,"157.csv","","20164","","","",NA,NA,NA,NA,""
"image-keyboard-response",3,29993,"0.0-3.0-0.0","dn41v8te4g39rnz",979,"157.csv","","5983","resources/images/parrot_nobg.png","13","",NA,NA,NA,NA,""
"image-keyboard-response",4,32999,"0.0-3.0-1.0","dn41v8te4g39rnz",979,"157.csv","","null","resources/image_sets/111.png","null","",NA,NA,NA,NA,""
"image-keyboard-response",5,38311,"0.0-3.0-2.0","dn41v8te4g39rnz",979,"157.csv","","5310","resources/image_sets/left_highlight.png","37","",NA,NA,NA,NA,""
"image-keyboard-response",6,39198,"0.0-3.0-3.0","dn41v8te4g39rnz",979,"157.csv","","887","resources/image_sets/mid_highlight.png","38","",NA,NA,NA,NA,""
"image-keyboard-response",7,39650,"0.0-3.0-4.0","dn41v8te4g39rnz",979,"157.csv","","450","resources/image_sets/right_highlight.png","39","",NA,NA,NA,NA,""
"image-keyboard-response",8,40757,"0.0-3.0-5.0","dn41v8te4g39rnz",979,"157.csv","","1106","resources/image_sets/111.png","13","",NA,NA,NA,NA,""
"image-keyboard-response",9,43207,"0.0-3.0-6.0","dn41v8te4g39rnz",979,"157.csv","","2451","resources/images/coin2.png","13","",NA,NA,NA,NA,""
"image-keyboard-response",10,44460,"0.0-3.0-7.0","dn41v8te4g39rnz",979,"157.csv","","1250","resources/images/fishbone.png","13","",NA,NA,NA,NA,""
"html-keyboard-response",11,49125,"0.0-3.0-8.0","dn41v8te4g39rnz",979,"157.csv","","4665","<p>You can track your coin total on the top right of your screen. </p><p>At the end of your journey you will be directed to a survey, so please click on the link before exiting the task</p><p>Press Enter to begin</p>","13","",NA,NA,NA,NA,""
"image-keyboard-response",12,50937,"0.0-4.0-0.0","dn41v8te4g39rnz",979,"157.csv","","1812","resources/trios/L4T2A2.jpg","38","restless",0.3,0.9,0.7,0.853770848357343,"true"
"image-keyboard-response",13,51353,"0.0-4.0-1.0","dn41v8te4g39rnz",979,"157.csv","","null","resources/maskTrios/BT2B.jpg","null","",NA,NA,NA,NA,""
"image-keyboard-response",14,52564,"0.0-4.0-2.0","dn41v8te4g39rnz",979,"157.csv","","null","resources/images/coin2.png","null","",NA,NA,NA,NA,""
"image-keyboard-response",15,56042,"0.0-4.1-0.1","dn41v8te4g39rnz",979,"157.csv","","3477","resources/trios/L4T2A2.jpg","37","restless",0.3,0.9,0.7,0.0220885474284973,"true"
"image-keyboard-response",16,56446,"0.0-4.1-1.1","dn41v8te4g39rnz",979,"157.csv","","null","resources/maskTrios/L4BB.jpg","null","",NA,NA,NA,NA,""
"image-keyboard-response",17,57660,"0.0-4.1-2.1","dn41v8te4g39rnz",979,"157.csv","","null","resources/images/coin2.png","null","",NA,NA,NA,NA,""
"image-keyboard-response",18,58995,"0.0-4.2-0.2","dn41v8te4g39rnz",979,"157.csv","","1334","resources/trios/L4T2A2.jpg","38","restless",0.3,0.8,0.7,0.305947420635246,"true"
"image-keyboard-response",19,59410,"0.0-4.2-1.2","dn41v8te4g39rnz",979,"157.csv","","null","resources/maskTrios/BT2B.jpg","null","",NA,NA,NA,NA,""
"image-keyboard-response",20,60623,"0.0-4.2-2.2","dn41v8te4g39rnz",979,"157.csv","","null","resources/images/coin2.png","null","",NA,NA,NA,NA,""
"image-keyboard-response",21,61268,"0.0-4.3-0.3","dn41v8te4g39rnz",979,"157.csv","","645","resources/trios/L4T2A2.jpg","39","restless",0.3,0.8,0.6,0.795359215344956,"false"
"image-keyboard-response",22,61681,"0.0-4.3-1.3","dn41v8te4g39rnz",979,"157.csv","","null","resources/maskTrios/BBA2.jpg","null","",NA,NA,NA,NA,""
"image-keyboard-response",23,62894,"0.0-4.3-2.3","dn41v8te4g39rnz",979,"157.csv","","null","resources/images/fishbone.png","null","",NA,NA,NA,NA,""
"image-keyboard-response",24,63668,"0.0-4.4-0.4","dn41v8te4g39rnz",979,"157.csv","","773","resources/trios/L4T2A2.jpg","38","restless",0.3,0.7,0.6,0.322660433587634,"true"
"image-keyboard-response",25,64077,"0.0-4.4-1.4","dn41v8te4g39rnz",979,"157.csv","","null","resources/maskTrios/BT2B.jpg","null","",NA,NA,NA,NA,""
"image-keyboard-response",26,65292,"0.0-4.4-2.4","dn41v8te4g39rnz",979,"157.csv","","null","resources/images/coin2.png","null","",NA,NA,NA,NA,""
"image-keyboard-response",27,65794,"0.0-4.5-0.5","dn41v8te4g39rnz",979,"157.csv","","501","resources/trios/L4T2A2.jpg","38","restless",0.3,0.7,0.6,0.374792004398079,"true"
"image-keyboard-response",28,66197,"0.0-4.5-1.5","dn41v8te4g39rnz",979,"157.csv","","null","resources/maskTrios/BT2B.jpg","null","",NA,NA,NA,NA,""
"image-keyboard-response",29,67411,"0.0-4.5-2.5","dn41v8te4g39rnz",979,"157.csv","","null","resources/images/coin2.png","null","",NA,NA,NA,NA,""
"image-keyboard-response",30,68227,"0.0-4.6-0.6","dn41v8te4g39rnz",979,"157.csv","","815","resources/trios/L4T2A2.jpg","37","restless",0.3,0.7,0.7,0.229035172676762,"true"
"image-keyboard-response",31,68638,"0.0-4.6-1.6","dn41v8te4g39rnz",979,"157.csv","","null","resources/maskTrios/L4BB.jpg","null","",NA,NA,NA,NA,""
"image-keyboard-response",32,69850,"0.0-4.6-2.6","dn41v8te4g39rnz",979,"157.csv","","null","resources/images/coin2.png","null","",NA,NA,NA,NA,""
"image-keyboard-response",33,70173,"0.0-4.7-0.7","dn41v8te4g39rnz",979,"157.csv","","320","resources/trios/L4T2A2.jpg","38","restless",0.3,0.7,0.8,0.940118244257883,"false"
"image-keyboard-response",34,70587,"0.0-4.7-1.7","dn41v8te4g39rnz",979,"157.csv","","null","resources/maskTrios/BT2B.jpg","null","",NA,NA,NA,NA,""
"image-keyboard-response",35,71862,"0.0-4.7-2.7","dn41v8te4g39rnz",979,"157.csv","","null","resources/images/fishbone.png","null","",NA,NA,NA,NA,""
"image-keyboard-response",36,72247,"0.0-4.8-0.8","dn41v8te4g39rnz",979,"157.csv","","383","resources/trios/L4T2A2.jpg","38","restless",0.3,0.7,0.8,0.631206756217795,"true"
"image-keyboard-response",37,72660,"0.0-4.8-1.8","dn41v8te4g39rnz",979,"157.csv","","null","resources/maskTrios/BT2B.jpg","null","",NA,NA,NA,NA,""
"image-keyboard-response",38,73889,"0.0-4.8-2.8","dn41v8te4g39rnz",979,"157.csv","","null","resources/images/coin2.png","null","",NA,NA,NA,NA,""
"image-keyboard-response",39,74334,"0.0-4.9-0.9","dn41v8te4g39rnz",979,"157.csv","","445","resources/trios/L4T2A2.jpg","37","restless",0.3,0.7,0.8,0.328013120193797,"false"
"image-keyboard-response",40,74748,"0.0-4.9-1.9","dn41v8te4g39rnz",979,"157.csv","","null","resources/maskTrios/L4BB.jpg","null","",NA,NA,NA,NA,""
"image-keyboard-response",41,75963,"0.0-4.9-2.9","dn41v8te4g39rnz",979,"157.csv","","null","resources/images/fishbone.png","null","",NA,NA,NA,NA,""
"image-keyboard-response",42,76831,"0.0-4.10-0.10","dn41v8te4g39rnz",979,"157.csv","","866","resources/trios/L4T2A2.jpg","37","restless",0.3,0.7,0.8,0.0981034337525679,"true"
"image-keyboard-response",43,77238,"0.0-4.10-1.10","dn41v8te4g39rnz",979,"157.csv","","null","resources/maskTrios/L4BB.jpg","null","",NA,NA,NA,NA,""
"image-keyboard-response",44,78524,"0.0-4.10-2.10","dn41v8te4g39rnz",979,"157.csv","","null","resources/images/coin2.png","null","",NA,NA,NA,NA,""
"image-keyboard-response",45,79040,"0.0-4.11-0.11","dn41v8te4g39rnz",979,"157.csv","","515","resources/trios/L4T2A2.jpg","39","restless",0.3,0.7,0.8,0.60331412930302,"true"
"image-keyboard-response",46,79443,"0.0-4.11-1.11","dn41v8te4g39rnz",979,"157.csv","","null","resources/maskTrios/BBA2.jpg","null","",NA,NA,NA,NA,""
"image-keyboard-response",47,80656,"0.0-4.11-2.11","dn41v8te4g39rnz",979,"157.csv","","null","resources/images/coin2.png","null","",NA,NA,NA,NA,""
"image-keyboard-response",48,80991,"0.0-4.12-0.12","dn41v8te4g39rnz",979,"157.csv","","333","resources/trios/L4T2A2.jpg","37","restless",0.3,0.7,0.8,0.00540022503051818,"true"
"image-keyboard-response",49,81393,"0.0-4.12-1.12","dn41v8te4g39rnz",979,"157.csv","","null","resources/maskTrios/L4BB.jpg","null","",NA,NA,NA,NA,""
"image-keyboard-response",50,82669,"0.0-4.12-2.12","dn41v8te4g39rnz",979,"157.csv","","null","resources/images/coin2.png","null","",NA,NA,NA,NA,""
"image-keyboard-response",51,82945,"0.0-4.13-0.13","dn41v8te4g39rnz",979,"157.csv","","277","resources/trios/L4T2A2.jpg","39","restless",0.2,0.7,0.8,0.48221855094614,"true"
"image-keyboard-response",52,83360,"0.0-4.13-1.13","dn41v8te4g39rnz",979,"157.csv","","null","resources/maskTrios/BBA2.jpg","null","",NA,NA,NA,NA,""
"image-keyboard-response",53,84676,"0.0-4.13-2.13","dn41v8te4g39rnz",979,"157.csv","","null","resources/images/coin2.png","null","",NA,NA,NA,NA,""
"image-keyboard-response",54,84942,"0.0-4.14-0.14","dn41v8te4g39rnz",979,"157.csv","","265","resources/trios/L4T2A2.jpg","38","restless",0.2,0.7,0.8,0.934562124793761,"false"
"image-keyboard-response",55,85351,"0.0-4.14-1.14","dn41v8te4g39rnz",979,"157.csv","","null","resources/maskTrios/BT2B.jpg","null","",NA,NA,NA,NA,""
"image-keyboard-response",56,86701,"0.0-4.14-2.14","dn41v8te4g39rnz",979,"157.csv","","null","resources/images/fishbone.png","null","",NA,NA,NA,NA,""
"image-keyboard-response",57,86995,"0.0-4.15-0.15","dn41v8te4g39rnz",979,"157.csv","","292","resources/trios/L4T2A2.jpg","39","restless",0.2,0.7,0.8,0.200329281968933,"true"
"image-keyboard-response",58,87407,"0.0-4.15-1.15","dn41v8te4g39rnz",979,"157.csv","","null","resources/maskTrios/BBA2.jpg","null","",NA,NA,NA,NA,""
"image-keyboard-response",59,88713,"0.0-4.15-2.15","dn41v8te4g39rnz",979,"157.csv","","null","resources/images/coin2.png","null","",NA,NA,NA,NA,""
"image-keyboard-response",60,89285,"0.0-4.16-0.16","dn41v8te4g39rnz",979,"157.csv","","573","resources/trios/L4T2A2.jpg","37","restless",0.2,0.7,0.8,0.850218488054724,"false"
"image-keyboard-response",61,89694,"0.0-4.16-1.16","dn41v8te4g39rnz",979,"157.csv","","null","resources/maskTrios/L4BB.jpg","null","",NA,NA,NA,NA,""
"image-keyboard-response",62,90907,"0.0-4.16-2.16","dn41v8te4g39rnz",979,"157.csv","","null","resources/images/fishbone.png","null","",NA,NA,NA,NA,""
"image-keyboard-response",63,90908,"0.0-4.17-0.17","dn41v8te4g39rnz",979,"157.csv","","1","resources/trios/L4T2A2.jpg","37","restless",0.2,0.7,0.7,0.340157439190917,"false"
"image-keyboard-response",64,91322,"0.0-4.17-1.17","dn41v8te4g39rnz",979,"157.csv","","null","resources/maskTrios/L4BB.jpg","null","",NA,NA,NA,NA,""
"image-keyboard-response",65,92537,"0.0-4.17-2.17","dn41v8te4g39rnz",979,"157.csv","","null","resources/images/fishbone.png","null","",NA,NA,NA,NA,""
"image-keyboard-response",66,92890,"0.0-4.18-0.18","dn41v8te4g39rnz",979,"157.csv","","353","resources/trios/L4T2A2.jpg","37","restless",0.1,0.7,0.7,0.962056145494631,"false"
"image-keyboard-response",67,93305,"0.0-4.18-1.18","dn41v8te4g39rnz",979,"157.csv","","null","resources/maskTrios/L4BB.jpg","null","",NA,NA,NA,NA,""
"image-keyboard-response",68,94516,"0.0-4.18-2.18","dn41v8te4g39rnz",979,"157.csv","","null","resources/images/fishbone.png","null","",NA,NA,NA,NA,""
"image-keyboard-response",69,94956,"0.0-4.19-0.19","dn41v8te4g39rnz",979,"157.csv","","439","resources/trios/L4T2A2.jpg","38","restless",0.1,0.6,0.7,0.260934920755942,"true"
"image-keyboard-response",70,95362,"0.0-4.19-1.19","dn41v8te4g39rnz",979,"157.csv","","null","resources/maskTrios/BT2B.jpg","null","",NA,NA,NA,NA,""
"image-keyboard-response",71,96574,"0.0-4.19-2.19","dn41v8te4g39rnz",979,"157.csv","","null","resources/images/coin2.png","null","",NA,NA,NA,NA,""
"image-keyboard-response",72,97200,"0.0-4.20-0.20","dn41v8te4g39rnz",979,"157.csv","","624","resources/trios/L4T2A2.jpg","39","restless",0.1,0.6,0.7,0.242317750843352,"true"
"image-keyboard-response",73,97601,"0.0-4.20-1.20","dn41v8te4g39rnz",979,"157.csv","","null","resources/maskTrios/BBA2.jpg","null","",NA,NA,NA,NA,""
"image-keyboard-response",74,98816,"0.0-4.20-2.20","dn41v8te4g39rnz",979,"157.csv","","null","resources/images/coin2.png","null","",NA,NA,NA,NA,""
"image-keyboard-response",75,99199,"0.0-4.21-0.21","dn41v8te4g39rnz",979,"157.csv","","383","resources/trios/L4T2A2.jpg","39","restless",0.2,0.6,0.7,0.172039343315193,"true"
"image-keyboard-response",76,99600,"0.0-4.21-1.21","dn41v8te4g39rnz",979,"157.csv","","null","resources/maskTrios/BBA2.jpg","null","",NA,NA,NA,NA,""
"image-keyboard-response",77,100814,"0.0-4.21-2.21","dn41v8te4g39rnz",979,"157.csv","","null","resources/images/coin2.png","null","",NA,NA,NA,NA,""
"image-keyboard-response",78,101511,"0.0-4.22-0.22","dn41v8te4g39rnz",979,"157.csv","","696","resources/trios/L4T2A2.jpg","38","restless",0.2,0.6,0.7,0.69969538365039,"false"
"image-keyboard-response",79,101922,"0.0-4.22-1.22","dn41v8te4g39rnz",979,"157.csv","","null","resources/maskTrios/BT2B.jpg","null","",NA,NA,NA,NA,""
"image-keyboard-response",80,103133,"0.0-4.22-2.22","dn41v8te4g39rnz",979,"157.csv","","null","resources/images/fishbone.png","null","",NA,NA,NA,NA,""
"image-keyboard-response",81,103385,"0.0-4.23-0.23","dn41v8te4g39rnz",979,"157.csv","","252","resources/trios/L4T2A2.jpg","37","restless",0.2,0.6,0.7,0.561663893332793,"false"
"image-keyboard-response",82,103822,"0.0-4.23-1.23","dn41v8te4g39rnz",979,"157.csv","","null","resources/maskTrios/L4BB.jpg","null","",NA,NA,NA,NA,""
"image-keyboard-response",83,105037,"0.0-4.23-2.23","dn41v8te4g39rnz",979,"157.csv","","null","resources/images/fishbone.png","null","",NA,NA,NA,NA,""
"image-keyboard-response",84,105255,"0.0-4.24-0.24","dn41v8te4g39rnz",979,"157.csv","","218","resources/trios/L4T2A2.jpg","39","restless",0.2,0.6,0.8,0.0380193008080345,"true"
"image-keyboard-response",85,105666,"0.0-4.24-1.24","dn41v8te4g39rnz",979,"157.csv","","null","resources/maskTrios/BBA2.jpg","null","",NA,NA,NA,NA,""
"image-keyboard-response",86,106880,"0.0-4.24-2.24","dn41v8te4g39rnz",979,"157.csv","","null","resources/images/coin2.png","null","",NA,NA,NA,NA,""
"image-keyboard-response",87,107192,"0.0-4.25-0.25","dn41v8te4g39rnz",979,"157.csv","","310","resources/trios/L4T2A2.jpg","39","restless",0.2,0.6,0.8,0.929288842378641,"false"
"image-keyboard-response",88,107600,"0.0-4.25-1.25","dn41v8te4g39rnz",979,"157.csv","","null","resources/maskTrios/BBA2.jpg","null","",NA,NA,NA,NA,""
"image-keyboard-response",89,108891,"0.0-4.25-2.25","dn41v8te4g39rnz",979,"157.csv","","null","resources/images/fishbone.png","null","",NA,NA,NA,NA,""
"image-keyboard-response",90,109234,"0.0-4.26-0.26","dn41v8te4g39rnz",979,"157.csv","","341","resources/trios/L4T2A2.jpg","38","restless",0.2,0.7,0.8,0.627420922426314,"true"
"image-keyboard-response",91,109645,"0.0-4.26-1.26","dn41v8te4g39rnz",979,"157.csv","","null","resources/maskTrios/BT2B.jpg","null","",NA,NA,NA,NA,""
"image-keyboard-response",92,110905,"0.0-4.26-2.26","dn41v8te4g39rnz",979,"157.csv","","null","resources/images/coin2.png","null","",NA,NA,NA,NA,""
"image-keyboard-response",93,112137,"0.0-4.27-0.27","dn41v8te4g39rnz",979,"157.csv","","1231","resources/trios/L4T2A2.jpg","39","restless",0.2,0.7,0.9,0.191238738815516,"true"
"image-keyboard-response",94,112550,"0.0-4.27-1.27","dn41v8te4g39rnz",979,"157.csv","","null","resources/maskTrios/BBA2.jpg","null","",NA,NA,NA,NA,""
"image-keyboard-response",95,113901,"0.0-4.27-2.27","dn41v8te4g39rnz",979,"157.csv","","null","resources/images/coin2.png","null","",NA,NA,NA,NA,""
"image-keyboard-response",96,114185,"0.0-4.28-0.28","dn41v8te4g39rnz",979,"157.csv","","284","resources/trios/L4T2A2.jpg","37","restless",0.3,0.7,0.9,0.526871874837011,"false"
"image-keyboard-response",97,114591,"0.0-4.28-1.28","dn41v8te4g39rnz",979,"157.csv","","null","resources/maskTrios/L4BB.jpg","null","",NA,NA,NA,NA,""
"image-keyboard-response",98,115909,"0.0-4.28-2.28","dn41v8te4g39rnz",979,"157.csv","","null","resources/images/fishbone.png","null","",NA,NA,NA,NA,""
"image-keyboard-response",99,116284,"0.0-4.29-0.29","dn41v8te4g39rnz",979,"157.csv","","374","resources/trios/L4T2A2.jpg","39","restless",0.3,0.7,0.9,0.394942054787788,"true"
"image-keyboard-response",100,116695,"0.0-4.29-1.29","dn41v8te4g39rnz",979,"157.csv","","null","resources/maskTrios/BBA2.jpg","null","",NA,NA,NA,NA,""
"image-keyboard-response",101,117923,"0.0-4.29-2.29","dn41v8te4g39rnz",979,"157.csv","","null","resources/images/coin2.png","null","",NA,NA,NA,NA,""
"image-keyboard-response",102,118230,"0.0-4.30-0.30","dn41v8te4g39rnz",979,"157.csv","","307","resources/trios/L4T2A2.jpg","38","restless",0.3,0.7,0.9,0.477917067496397,"true"
"image-keyboard-response",103,118643,"0.0-4.30-1.30","dn41v8te4g39rnz",979,"157.csv","","null","resources/maskTrios/BT2B.jpg","null","",NA,NA,NA,NA,""
"image-keyboard-response",104,119932,"0.0-4.30-2.30","dn41v8te4g39rnz",979,"157.csv","","null","resources/images/coin2.png","null","",NA,NA,NA,NA,""
"image-keyboard-response",105,120409,"0.0-4.31-0.31","dn41v8te4g39rnz",979,"157.csv","","477","resources/trios/L4T2A2.jpg","38","restless",0.4,0.7,0.8,0.225179435332407,"true"
"image-keyboard-response",106,120824,"0.0-4.31-1.31","dn41v8te4g39rnz",979,"157.csv","","null","resources/maskTrios/BT2B.jpg","null","",NA,NA,NA,NA,""
"image-keyboard-response",107,122035,"0.0-4.31-2.31","dn41v8te4g39rnz",979,"157.csv","","null","resources/images/coin2.png","null","",NA,NA,NA,NA,""
"image-keyboard-response",108,122307,"0.0-4.32-0.32","dn41v8te4g39rnz",979,"157.csv","","271","resources/trios/L4T2A2.jpg","37","restless",0.4,0.7,0.8,0.0911059680128963,"true"
"image-keyboard-response",109,122710,"0.0-4.32-1.32","dn41v8te4g39rnz",979,"157.csv","","null","resources/maskTrios/L4BB.jpg","null","",NA,NA,NA,NA,""
"image-keyboard-response",110,124047,"0.0-4.32-2.32","dn41v8te4g39rnz",979,"157.csv","","null","resources/images/coin2.png","null","",NA,NA,NA,NA,""
"image-keyboard-response",111,124850,"0.0-4.33-0.33","dn41v8te4g39rnz",979,"157.csv","","802","resources/trios/L4T2A2.jpg","37","restless",0.4,0.7,0.8,0.0538419157986293,"true"
"image-keyboard-response",112,125260,"0.0-4.33-1.33","dn41v8te4g39rnz",979,"157.csv","","null","resources/maskTrios/L4BB.jpg","null","",NA,NA,NA,NA,""
"image-keyboard-response",113,126472,"0.0-4.33-2.33","dn41v8te4g39rnz",979,"157.csv","","null","resources/images/coin2.png","null","",NA,NA,NA,NA,""
"image-keyboard-response",114,126649,"0.0-4.34-0.34","dn41v8te4g39rnz",979,"157.csv","","177","resources/trios/L4T2A2.jpg","39","restless",0.4,0.7,0.8,0.0580398324403112,"true"
"image-keyboard-response",115,127055,"0.0-4.34-1.34","dn41v8te4g39rnz",979,"157.csv","","null","resources/maskTrios/BBA2.jpg","null","",NA,NA,NA,NA,""
"image-keyboard-response",116,128268,"0.0-4.34-2.34","dn41v8te4g39rnz",979,"157.csv","","null","resources/images/coin2.png","null","",NA,NA,NA,NA,""
"image-keyboard-response",117,129174,"0.0-4.35-0.35","dn41v8te4g39rnz",979,"157.csv","","905","resources/trios/L4T2A2.jpg","37","restless",0.4,0.7,0.8,0.739338058203841,"false"
"image-keyboard-response",118,129586,"0.0-4.35-1.35","dn41v8te4g39rnz",979,"157.csv","","null","resources/maskTrios/L4BB.jpg","null","",NA,NA,NA,NA,""
"image-keyboard-response",119,130798,"0.0-4.35-2.35","dn41v8te4g39rnz",979,"157.csv","","null","resources/images/fishbone.png","null","",NA,NA,NA,NA,""
"image-keyboard-response",120,130865,"0.0-4.36-0.36","dn41v8te4g39rnz",979,"157.csv","","68","resources/trios/L4T2A2.jpg","38","restless",0.5,0.7,0.8,0.027953403730774,"true"
"image-keyboard-response",121,131273,"0.0-4.36-1.36","dn41v8te4g39rnz",979,"157.csv","","null","resources/maskTrios/BT2B.jpg","null","",NA,NA,NA,NA,""
"image-keyboard-response",122,132487,"0.0-4.36-2.36","dn41v8te4g39rnz",979,"157.csv","","null","resources/images/coin2.png","null","",NA,NA,NA,NA,""
"image-keyboard-response",123,132984,"0.0-4.37-0.37","dn41v8te4g39rnz",979,"157.csv","","496","resources/trios/L4T2A2.jpg","38","restless",0.5,0.7,0.8,0.471986436765617,"true"
"image-keyboard-response",124,133394,"0.0-4.37-1.37","dn41v8te4g39rnz",979,"157.csv","","null","resources/maskTrios/BT2B.jpg","null","",NA,NA,NA,NA,""
"image-keyboard-response",125,134607,"0.0-4.37-2.37","dn41v8te4g39rnz",979,"157.csv","","null","resources/images/coin2.png","null","",NA,NA,NA,NA,""
"image-keyboard-response",126,134913,"0.0-4.38-0.38","dn41v8te4g39rnz",979,"157.csv","","305","resources/trios/L4T2A2.jpg","38","restless",0.5,0.7,0.8,0.0104067647141142,"true"
"image-keyboard-response",127,135329,"0.0-4.38-1.38","dn41v8te4g39rnz",979,"157.csv","","null","resources/maskTrios/BT2B.jpg","null","",NA,NA,NA,NA,""
"image-keyboard-response",128,136541,"0.0-4.38-2.38","dn41v8te4g39rnz",979,"157.csv","","null","resources/images/coin2.png","null","",NA,NA,NA,NA,""
"image-keyboard-response",129,137047,"0.0-4.39-0.39","dn41v8te4g39rnz",979,"157.csv","","505","resources/trios/L4T2A2.jpg","39","restless",0.5,0.7,0.8,0.2880445833069,"true"
"image-keyboard-response",130,137463,"0.0-4.39-1.39","dn41v8te4g39rnz",979,"157.csv","","null","resources/maskTrios/BBA2.jpg","null","",NA,NA,NA,NA,""
"image-keyboard-response",131,138673,"0.0-4.39-2.39","dn41v8te4g39rnz",979,"157.csv","","null","resources/images/coin2.png","null","",NA,NA,NA,NA,""
"image-keyboard-response",132,139196,"0.0-4.40-0.40","dn41v8te4g39rnz",979,"157.csv","","521","resources/trios/L4T2A2.jpg","37","restless",0.5,0.7,0.8,0.654579078567612,"false"
"image-keyboard-response",133,139608,"0.0-4.40-1.40","dn41v8te4g39rnz",979,"157.csv","","null","resources/maskTrios/L4BB.jpg","null","",NA,NA,NA,NA,""
"image-keyboard-response",134,140821,"0.0-4.40-2.40","dn41v8te4g39rnz",979,"157.csv","","null","resources/images/fishbone.png","null","",NA,NA,NA,NA,""
"image-keyboard-response",135,141102,"0.0-4.41-0.41","dn41v8te4g39rnz",979,"157.csv","","280","resources/trios/L4T2A2.jpg","38","restless",0.5,0.7,0.8,0.246487738848692,"true"
"image-keyboard-response",136,141512,"0.0-4.41-1.41","dn41v8te4g39rnz",979,"157.csv","","null","resources/maskTrios/BT2B.jpg","null","",NA,NA,NA,NA,""
"image-keyboard-response",137,142833,"0.0-4.41-2.41","dn41v8te4g39rnz",979,"157.csv","","null","resources/images/coin2.png","null","",NA,NA,NA,NA,""
"image-keyboard-response",138,143114,"0.0-4.42-0.42","dn41v8te4g39rnz",979,"157.csv","","280","resources/trios/L4T2A2.jpg","38","restless",0.5,0.7,0.8,0.81909358253843,"false"
"image-keyboard-response",139,143524,"0.0-4.42-1.42","dn41v8te4g39rnz",979,"157.csv","","null","resources/maskTrios/BT2B.jpg","null","",NA,NA,NA,NA,""
"image-keyboard-response",140,144842,"0.0-4.42-2.42","dn41v8te4g39rnz",979,"157.csv","","null","resources/images/fishbone.png","null","",NA,NA,NA,NA,""
"image-keyboard-response",141,145126,"0.0-4.43-0.43","dn41v8te4g39rnz",979,"157.csv","","283","resources/trios/L4T2A2.jpg","39","restless",0.5,0.7,0.8,0.769778009535512,"true"
"image-keyboard-response",142,145532,"0.0-4.43-1.43","dn41v8te4g39rnz",979,"157.csv","","null","resources/maskTrios/BBA2.jpg","null","",NA,NA,NA,NA,""
"image-keyboard-response",143,146869,"0.0-4.43-2.43","dn41v8te4g39rnz",979,"157.csv","","null","resources/images/coin2.png","null","",NA,NA,NA,NA,""
"image-keyboard-response",144,147151,"0.0-4.44-0.44","dn41v8te4g39rnz",979,"157.csv","","280","resources/trios/L4T2A2.jpg","39","restless",0.5,0.7,0.8,0.0154462603060245,"true"
"image-keyboard-response",145,147563,"0.0-4.44-1.44","dn41v8te4g39rnz",979,"157.csv","","null","resources/maskTrios/BBA2.jpg","null","",NA,NA,NA,NA,""
"image-keyboard-response",146,148897,"0.0-4.44-2.44","dn41v8te4g39rnz",979,"157.csv","","null","resources/images/coin2.png","null","",NA,NA,NA,NA,""
"image-keyboard-response",147,149044,"0.0-4.45-0.45","dn41v8te4g39rnz",979,"157.csv","","146","resources/trios/L4T2A2.jpg","37","restless",0.5,0.7,0.8,0.444882959785799,"true"
"image-keyboard-response",148,149450,"0.0-4.45-1.45","dn41v8te4g39rnz",979,"157.csv","","null","resources/maskTrios/L4BB.jpg","null","",NA,NA,NA,NA,""
"image-keyboard-response",149,150663,"0.0-4.45-2.45","dn41v8te4g39rnz",979,"157.csv","","null","resources/images/coin2.png","null","",NA,NA,NA,NA,""
"image-keyboard-response",150,151309,"0.0-4.46-0.46","dn41v8te4g39rnz",979,"157.csv","","645","resources/trios/L4T2A2.jpg","39","restless",0.5,0.7,0.8,0.272903782512329,"true"
"image-keyboard-response",151,151722,"0.0-4.46-1.46","dn41v8te4g39rnz",979,"157.csv","","null","resources/maskTrios/BBA2.jpg","null","",NA,NA,NA,NA,""
"image-keyboard-response",152,152932,"0.0-4.46-2.46","dn41v8te4g39rnz",979,"157.csv","","null","resources/images/coin2.png","null","",NA,NA,NA,NA,""
"image-keyboard-response",153,153189,"0.0-4.47-0.47","dn41v8te4g39rnz",979,"157.csv","","256","resources/trios/L4T2A2.jpg","38","restless",0.6,0.6,0.8,0.757441334834763,"false"
"image-keyboard-response",154,153592,"0.0-4.47-1.47","dn41v8te4g39rnz",979,"157.csv","","null","resources/maskTrios/BT2B.jpg","null","",NA,NA,NA,NA,""
"image-keyboard-response",155,154805,"0.0-4.47-2.47","dn41v8te4g39rnz",979,"157.csv","","null","resources/images/fishbone.png","null","",NA,NA,NA,NA,""
"image-keyboard-response",156,154953,"0.0-4.48-0.48","dn41v8te4g39rnz",979,"157.csv","","146","resources/trios/L4T2A2.jpg","39","restless",0.6,0.6,0.8,0.860743051427539,"false"
"image-keyboard-response",157,155357,"0.0-4.48-1.48","dn41v8te4g39rnz",979,"157.csv","","null","resources/maskTrios/BBA2.jpg","null","",NA,NA,NA,NA,""
"image-keyboard-response",158,156569,"0.0-4.48-2.48","dn41v8te4g39rnz",979,"157.csv","","null","resources/images/fishbone.png","null","",NA,NA,NA,NA,""
"image-keyboard-response",159,156622,"0.0-4.49-0.49","dn41v8te4g39rnz",979,"157.csv","","51","resources/trios/L4T2A2.jpg","39","restless",0.6,0.6,0.8,0.0928727588559908,"true"
"image-keyboard-response",160,157030,"0.0-4.49-1.49","dn41v8te4g39rnz",979,"157.csv","","null","resources/maskTrios/BBA2.jpg","null","",NA,NA,NA,NA,""
"image-keyboard-response",161,158244,"0.0-4.49-2.49","dn41v8te4g39rnz",979,"157.csv","","null","resources/images/coin2.png","null","",NA,NA,NA,NA,""
"image-keyboard-response",162,158380,"0.0-4.50-0.50","dn41v8te4g39rnz",979,"157.csv","","136","resources/trios/L4T2A2.jpg","37","restless",0.6,0.6,0.8,0.598345340369255,"true"
"image-keyboard-response",163,158782,"0.0-4.50-1.50","dn41v8te4g39rnz",979,"157.csv","","null","resources/maskTrios/L4BB.jpg","null","",NA,NA,NA,NA,""
"image-keyboard-response",164,159995,"0.0-4.50-2.50","dn41v8te4g39rnz",979,"157.csv","","null","resources/images/coin2.png","null","",NA,NA,NA,NA,""
"image-keyboard-response",165,160474,"0.0-4.51-0.51","dn41v8te4g39rnz",979,"157.csv","","478","resources/trios/L4T2A2.jpg","38","restless",0.6,0.6,0.7,0.170179631260857,"true"
"image-keyboard-response",166,160888,"0.0-4.51-1.51","dn41v8te4g39rnz",979,"157.csv","","null","resources/maskTrios/BT2B.jpg","null","",NA,NA,NA,NA,""
"image-keyboard-response",167,162100,"0.0-4.51-2.51","dn41v8te4g39rnz",979,"157.csv","","null","resources/images/coin2.png","null","",NA,NA,NA,NA,""
"image-keyboard-response",168,162199,"0.0-4.52-0.52","dn41v8te4g39rnz",979,"157.csv","","99","resources/trios/L4T2A2.jpg","39","restless",0.6,0.5,0.7,0.289492471923106,"true"
"image-keyboard-response",169,162606,"0.0-4.52-1.52","dn41v8te4g39rnz",979,"157.csv","","null","resources/maskTrios/BBA2.jpg","null","",NA,NA,NA,NA,""
"image-keyboard-response",170,163819,"0.0-4.52-2.52","dn41v8te4g39rnz",979,"157.csv","","null","resources/images/coin2.png","null","",NA,NA,NA,NA,""
"image-keyboard-response",171,164094,"0.0-4.53-0.53","dn41v8te4g39rnz",979,"157.csv","","276","resources/trios/L4T2A2.jpg","37","restless",0.6,0.5,0.7,0.805030310166884,"false"
"image-keyboard-response",172,164508,"0.0-4.53-1.53","dn41v8te4g39rnz",979,"157.csv","","null","resources/maskTrios/L4BB.jpg","null","",NA,NA,NA,NA,""
"image-keyboard-response",173,165719,"0.0-4.53-2.53","dn41v8te4g39rnz",979,"157.csv","","null","resources/images/fishbone.png","null","",NA,NA,NA,NA,""
"image-keyboard-response",174,165953,"0.0-4.54-0.54","dn41v8te4g39rnz",979,"157.csv","","233","resources/trios/L4T2A2.jpg","38","restless",0.6,0.5,0.7,0.0825306085325986,"true"
"image-keyboard-response",175,166363,"0.0-4.54-1.54","dn41v8te4g39rnz",979,"157.csv","","null","resources/maskTrios/BT2B.jpg","null","",NA,NA,NA,NA,""
"image-keyboard-response",176,167577,"0.0-4.54-2.54","dn41v8te4g39rnz",979,"157.csv","","null","resources/images/coin2.png","null","",NA,NA,NA,NA,""
"image-keyboard-response",177,167853,"0.0-4.55-0.55","dn41v8te4g39rnz",979,"157.csv","","277","resources/trios/L4T2A2.jpg","38","restless",0.5,0.6,0.7,0.160890775167468,"true"
"image-keyboard-response",178,168268,"0.0-4.55-1.55","dn41v8te4g39rnz",979,"157.csv","","null","resources/maskTrios/BT2B.jpg","null","",NA,NA,NA,NA,""
"image-keyboard-response",179,169480,"0.0-4.55-2.55","dn41v8te4g39rnz",979,"157.csv","","null","resources/images/coin2.png","null","",NA,NA,NA,NA,""
"image-keyboard-response",180,169951,"0.0-4.56-0.56","dn41v8te4g39rnz",979,"157.csv","","470","resources/trios/L4T2A2.jpg","38","restless",0.5,0.5,0.7,0.259177221349572,"true"
"image-keyboard-response",181,170354,"0.0-4.56-1.56","dn41v8te4g39rnz",979,"157.csv","","null","resources/maskTrios/BT2B.jpg","null","",NA,NA,NA,NA,""
"image-keyboard-response",182,171567,"0.0-4.56-2.56","dn41v8te4g39rnz",979,"157.csv","","null","resources/images/coin2.png","null","",NA,NA,NA,NA,""
"image-keyboard-response",183,171786,"0.0-4.57-0.57","dn41v8te4g39rnz",979,"157.csv","","218","resources/trios/L4T2A2.jpg","39","restless",0.5,0.5,0.7,0.735404256793053,"false"
"image-keyboard-response",184,172195,"0.0-4.57-1.57","dn41v8te4g39rnz",979,"157.csv","","null","resources/maskTrios/BBA2.jpg","null","",NA,NA,NA,NA,""
"image-keyboard-response",185,173409,"0.0-4.57-2.57","dn41v8te4g39rnz",979,"157.csv","","null","resources/images/fishbone.png","null","",NA,NA,NA,NA,""
"image-keyboard-response",186,173561,"0.0-4.58-0.58","dn41v8te4g39rnz",979,"157.csv","","153","resources/trios/L4T2A2.jpg","39","restless",0.5,0.5,0.8,0.0593971671294556,"true"
"image-keyboard-response",187,173962,"0.0-4.58-1.58","dn41v8te4g39rnz",979,"157.csv","","null","resources/maskTrios/BBA2.jpg","null","",NA,NA,NA,NA,""
"image-keyboard-response",188,175174,"0.0-4.58-2.58","dn41v8te4g39rnz",979,"157.csv","","null","resources/images/coin2.png","null","",NA,NA,NA,NA,""
"image-keyboard-response",189,175469,"0.0-4.59-0.59","dn41v8te4g39rnz",979,"157.csv","","294","resources/trios/L4T2A2.jpg","37","restless",0.5,0.5,0.8,0.192692034102274,"true"
"image-keyboard-response",190,175879,"0.0-4.59-1.59","dn41v8te4g39rnz",979,"157.csv","","null","resources/maskTrios/L4BB.jpg","null","",NA,NA,NA,NA,""
"image-keyboard-response",191,177187,"0.0-4.59-2.59","dn41v8te4g39rnz",979,"157.csv","","null","resources/images/coin2.png","null","",NA,NA,NA,NA,""
"image-keyboard-response",192,177423,"0.0-4.60-0.60","dn41v8te4g39rnz",979,"157.csv","","235","resources/trios/L4T2A2.jpg","39","restless",0.5,0.5,0.8,0.161008281198728,"true"
"image-keyboard-response",193,177833,"0.0-4.60-1.60","dn41v8te4g39rnz",979,"157.csv","","null","resources/maskTrios/BBA2.jpg","null","",NA,NA,NA,NA,""
"image-keyboard-response",194,179045,"0.0-4.60-2.60","dn41v8te4g39rnz",979,"157.csv","","null","resources/images/coin2.png","null","",NA,NA,NA,NA,""
"image-keyboard-response",195,179287,"0.0-4.61-0.61","dn41v8te4g39rnz",979,"157.csv","","240","resources/trios/L4T2A2.jpg","38","restless",0.4,0.5,0.8,0.116320075890062,"true"
"image-keyboard-response",196,179690,"0.0-4.61-1.61","dn41v8te4g39rnz",979,"157.csv","","null","resources/maskTrios/BT2B.jpg","null","",NA,NA,NA,NA,""
"image-keyboard-response",197,180901,"0.0-4.61-2.61","dn41v8te4g39rnz",979,"157.csv","","null","resources/images/coin2.png","null","",NA,NA,NA,NA,""
"image-keyboard-response",198,181277,"0.0-4.62-0.62","dn41v8te4g39rnz",979,"157.csv","","375","resources/trios/L4T2A2.jpg","37","restless",0.4,0.5,0.8,0.524924782273554,"false"
"image-keyboard-response",199,181686,"0.0-4.62-1.62","dn41v8te4g39rnz",979,"157.csv","","null","resources/maskTrios/L4BB.jpg","null","",NA,NA,NA,NA,""
"image-keyboard-response",200,182901,"0.0-4.62-2.62","dn41v8te4g39rnz",979,"157.csv","","null","resources/images/fishbone.png","null","",NA,NA,NA,NA,""
"image-keyboard-response",201,183167,"0.0-4.63-0.63","dn41v8te4g39rnz",979,"157.csv","","265","resources/trios/L4T2A2.jpg","38","restless",0.4,0.5,0.8,0.75685833973877,"false"
"image-keyboard-response",202,183622,"0.0-4.63-1.63","dn41v8te4g39rnz",979,"157.csv","","null","resources/maskTrios/BT2B.jpg","null","",NA,NA,NA,NA,""
"image-keyboard-response",203,184836,"0.0-4.63-2.63","dn41v8te4g39rnz",979,"157.csv","","null","resources/images/fishbone.png","null","",NA,NA,NA,NA,""
"image-keyboard-response",204,185183,"0.0-4.64-0.64","dn41v8te4g39rnz",979,"157.csv","","345","resources/trios/L4T2A2.jpg","38","restless",0.4,0.5,0.8,0.101917008792445,"true"
"image-keyboard-response",205,185634,"0.0-4.64-1.64","dn41v8te4g39rnz",979,"157.csv","","null","resources/maskTrios/BT2B.jpg","null","",NA,NA,NA,NA,""
"image-keyboard-response",206,186848,"0.0-4.64-2.64","dn41v8te4g39rnz",979,"157.csv","","null","resources/images/coin2.png","null","",NA,NA,NA,NA,""
"image-keyboard-response",207,187403,"0.0-4.65-0.65","dn41v8te4g39rnz",979,"157.csv","","555","resources/trios/L4T2A2.jpg","37","restless",0.4,0.5,0.8,0.631628765205911,"false"
"image-keyboard-response",208,187816,"0.0-4.65-1.65","dn41v8te4g39rnz",979,"157.csv","","null","resources/maskTrios/L4BB.jpg","null","",NA,NA,NA,NA,""
"image-keyboard-response",209,189027,"0.0-4.65-2.65","dn41v8te4g39rnz",979,"157.csv","","null","resources/images/fishbone.png","null","",NA,NA,NA,NA,""
"image-keyboard-response",210,189274,"0.0-4.66-0.66","dn41v8te4g39rnz",979,"157.csv","","246","resources/trios/L4T2A2.jpg","39","restless",0.4,0.5,0.8,0.00780159188729679,"true"
"image-keyboard-response",211,189688,"0.0-4.66-1.66","dn41v8te4g39rnz",979,"157.csv","","null","resources/maskTrios/BBA2.jpg","null","",NA,NA,NA,NA,""
"image-keyboard-response",212,190902,"0.0-4.66-2.66","dn41v8te4g39rnz",979,"157.csv","","null","resources/images/coin2.png","null","",NA,NA,NA,NA,""
"image-keyboard-response",213,191188,"0.0-4.67-0.67","dn41v8te4g39rnz",979,"157.csv","","286","resources/trios/L4T2A2.jpg","39","restless",0.4,0.5,0.8,0.630761871793859,"true"
"image-keyboard-response",214,191592,"0.0-4.67-1.67","dn41v8te4g39rnz",979,"157.csv","","null","resources/maskTrios/BBA2.jpg","null","",NA,NA,NA,NA,""
"image-keyboard-response",215,192912,"0.0-4.67-2.67","dn41v8te4g39rnz",979,"157.csv","","null","resources/images/coin2.png","null","",NA,NA,NA,NA,""
"image-keyboard-response",216,193182,"0.0-4.68-0.68","dn41v8te4g39rnz",979,"157.csv","","270","resources/trios/L4T2A2.jpg","39","restless",0.4,0.5,0.8,0.0702974296567697,"true"
"image-keyboard-response",217,193588,"0.0-4.68-1.68","dn41v8te4g39rnz",979,"157.csv","","null","resources/maskTrios/BBA2.jpg","null","",NA,NA,NA,NA,""
"image-keyboard-response",218,194923,"0.0-4.68-2.68","dn41v8te4g39rnz",979,"157.csv","","null","resources/images/coin2.png","null","",NA,NA,NA,NA,""
"image-keyboard-response",219,194989,"0.0-4.69-0.69","dn41v8te4g39rnz",979,"157.csv","","66","resources/trios/L4T2A2.jpg","37","restless",0.4,0.4,0.8,0.43829915215008,"false"
"image-keyboard-response",220,195398,"0.0-4.69-1.69","dn41v8te4g39rnz",979,"157.csv","","null","resources/maskTrios/L4BB.jpg","null","",NA,NA,NA,NA,""
"image-keyboard-response",221,196612,"0.0-4.69-2.69","dn41v8te4g39rnz",979,"157.csv","","null","resources/images/fishbone.png","null","",NA,NA,NA,NA,""
"image-keyboard-response",222,196837,"0.0-4.70-0.70","dn41v8te4g39rnz",979,"157.csv","","226","resources/trios/L4T2A2.jpg","39","restless",0.4,0.4,0.7,0.405919636962084,"true"
"image-keyboard-response",223,197239,"0.0-4.70-1.70","dn41v8te4g39rnz",979,"157.csv","","null","resources/maskTrios/BBA2.jpg","null","",NA,NA,NA,NA,""
"image-keyboard-response",224,198452,"0.0-4.70-2.70","dn41v8te4g39rnz",979,"157.csv","","null","resources/images/coin2.png","null","",NA,NA,NA,NA,""
"image-keyboard-response",225,198671,"0.0-4.71-0.71","dn41v8te4g39rnz",979,"157.csv","","219","resources/trios/L4T2A2.jpg","38","restless",0.4,0.3,0.7,0.593764159276152,"false"
"image-keyboard-response",226,199081,"0.0-4.71-1.71","dn41v8te4g39rnz",979,"157.csv","","null","resources/maskTrios/BT2B.jpg","null","",NA,NA,NA,NA,""
"image-keyboard-response",227,200281,"0.0-4.71-2.71","dn41v8te4g39rnz",979,"157.csv","","null","resources/images/fishbone.png","null","",NA,NA,NA,NA,""
"image-keyboard-response",228,200418,"0.0-4.72-0.72","dn41v8te4g39rnz",979,"157.csv","","137","resources/trios/L4T2A2.jpg","39","restless",0.4,0.3,0.7,0.00549198020773334,"true"
"image-keyboard-response",229,200834,"0.0-4.72-1.72","dn41v8te4g39rnz",979,"157.csv","","null","resources/maskTrios/BBA2.jpg","null","",NA,NA,NA,NA,""
"image-keyboard-response",230,202046,"0.0-4.72-2.72","dn41v8te4g39rnz",979,"157.csv","","null","resources/images/coin2.png","null","",NA,NA,NA,NA,""
"image-keyboard-response",231,202193,"0.0-4.73-0.73","dn41v8te4g39rnz",979,"157.csv","","146","resources/trios/L4T2A2.jpg","37","restless",0.4,0.3,0.7,0.681199464250666,"false"
"image-keyboard-response",232,202598,"0.0-4.73-1.73","dn41v8te4g39rnz",979,"157.csv","","null","resources/maskTrios/L4BB.jpg","null","",NA,NA,NA,NA,""
"image-keyboard-response",233,203808,"0.0-4.73-2.73","dn41v8te4g39rnz",979,"157.csv","","null","resources/images/fishbone.png","null","",NA,NA,NA,NA,""
"image-keyboard-response",234,204096,"0.0-4.74-0.74","dn41v8te4g39rnz",979,"157.csv","","286","resources/trios/L4T2A2.jpg","39","restless",0.4,0.4,0.7,0.886123333678084,"false"
"image-keyboard-response",235,204500,"0.0-4.74-1.74","dn41v8te4g39rnz",979,"157.csv","","null","resources/maskTrios/BBA2.jpg","null","",NA,NA,NA,NA,""
"image-keyboard-response",236,205711,"0.0-4.74-2.74","dn41v8te4g39rnz",979,"157.csv","","null","resources/images/fishbone.png","null","",NA,NA,NA,NA,""
"image-keyboard-response",237,205749,"0.0-4.75-0.75","dn41v8te4g39rnz",979,"157.csv","","37","resources/trios/L4T2A2.jpg","37","restless",0.4,0.4,0.7,0.812586214655343,"false"
"image-keyboard-response",238,206157,"0.0-4.75-1.75","dn41v8te4g39rnz",979,"157.csv","","null","resources/maskTrios/L4BB.jpg","null","",NA,NA,NA,NA,""
"image-keyboard-response",239,207371,"0.0-4.75-2.75","dn41v8te4g39rnz",979,"157.csv","","null","resources/images/fishbone.png","null","",NA,NA,NA,NA,""
"image-keyboard-response",240,207373,"0.0-4.76-0.76","dn41v8te4g39rnz",979,"157.csv","","1","resources/trios/L4T2A2.jpg","38","restless",0.3,0.4,0.8,0.266095974898867,"true"
"image-keyboard-response",241,207785,"0.0-4.76-1.76","dn41v8te4g39rnz",979,"157.csv","","null","resources/maskTrios/BT2B.jpg","null","",NA,NA,NA,NA,""
"image-keyboard-response",242,208998,"0.0-4.76-2.76","dn41v8te4g39rnz",979,"157.csv","","null","resources/images/coin2.png","null","",NA,NA,NA,NA,""
"image-keyboard-response",243,209571,"0.0-4.77-0.77","dn41v8te4g39rnz",979,"157.csv","","572","resources/trios/L4T2A2.jpg","38","restless",0.3,0.4,0.8,0.575057140261463,"false"
"image-keyboard-response",244,209979,"0.0-4.77-1.77","dn41v8te4g39rnz",979,"157.csv","","null","resources/maskTrios/BT2B.jpg","null","",NA,NA,NA,NA,""
"image-keyboard-response",245,211192,"0.0-4.77-2.77","dn41v8te4g39rnz",979,"157.csv","","null","resources/images/fishbone.png","null","",NA,NA,NA,NA,""
"image-keyboard-response",246,211370,"0.0-4.78-0.78","dn41v8te4g39rnz",979,"157.csv","","178","resources/trios/L4T2A2.jpg","37","restless",0.4,0.4,0.8,0.811198820122215,"false"
"image-keyboard-response",247,211775,"0.0-4.78-1.78","dn41v8te4g39rnz",979,"157.csv","","null","resources/maskTrios/L4BB.jpg","null","",NA,NA,NA,NA,""
"image-keyboard-response",248,212987,"0.0-4.78-2.78","dn41v8te4g39rnz",979,"157.csv","","null","resources/images/fishbone.png","null","",NA,NA,NA,NA,""
"image-keyboard-response",249,213344,"0.0-4.79-0.79","dn41v8te4g39rnz",979,"157.csv","","358","resources/trios/L4T2A2.jpg","38","restless",0.4,0.3,0.8,0.241072268845608,"true"
"image-keyboard-response",250,213752,"0.0-4.79-1.79","dn41v8te4g39rnz",979,"157.csv","","null","resources/maskTrios/BT2B.jpg","null","",NA,NA,NA,NA,""
"image-keyboard-response",251,214982,"0.0-4.79-2.79","dn41v8te4g39rnz",979,"157.csv","","null","resources/images/coin2.png","null","",NA,NA,NA,NA,""
"image-keyboard-response",252,215364,"0.0-4.80-0.80","dn41v8te4g39rnz",979,"157.csv","","381","resources/trios/L4T2A2.jpg","38","restless",0.4,0.4,0.8,0.201207831195444,"true"
"image-keyboard-response",253,215764,"0.0-4.80-1.80","dn41v8te4g39rnz",979,"157.csv","","null","resources/maskTrios/BT2B.jpg","null","",NA,NA,NA,NA,""
"image-keyboard-response",254,216975,"0.0-4.80-2.80","dn41v8te4g39rnz",979,"157.csv","","null","resources/images/coin2.png","null","",NA,NA,NA,NA,""
"image-keyboard-response",255,217300,"0.0-4.81-0.81","dn41v8te4g39rnz",979,"157.csv","","323","resources/trios/L4T2A2.jpg","37","restless",0.4,0.4,0.8,0.338410658500892,"true"
"image-keyboard-response",256,217712,"0.0-4.81-1.81","dn41v8te4g39rnz",979,"157.csv","","null","resources/maskTrios/L4BB.jpg","null","",NA,NA,NA,NA,""
"image-keyboard-response",257,218925,"0.0-4.81-2.81","dn41v8te4g39rnz",979,"157.csv","","null","resources/images/coin2.png","null","",NA,NA,NA,NA,""
"image-keyboard-response",258,219208,"0.0-4.82-0.82","dn41v8te4g39rnz",979,"157.csv","","282","resources/trios/L4T2A2.jpg","37","restless",0.4,0.4,0.8,0.34067906440532,"true"
"image-keyboard-response",259,219616,"0.0-4.82-1.82","dn41v8te4g39rnz",979,"157.csv","","null","resources/maskTrios/L4BB.jpg","null","",NA,NA,NA,NA,""
"image-keyboard-response",260,220830,"0.0-4.82-2.82","dn41v8te4g39rnz",979,"157.csv","","null","resources/images/coin2.png","null","",NA,NA,NA,NA,""
"image-keyboard-response",261,221168,"0.0-4.83-0.83","dn41v8te4g39rnz",979,"157.csv","","338","resources/trios/L4T2A2.jpg","39","restless",0.3,0.4,0.8,0.12880008888524,"true"
"image-keyboard-response",262,221628,"0.0-4.83-1.83","dn41v8te4g39rnz",979,"157.csv","","null","resources/maskTrios/BBA2.jpg","null","",NA,NA,NA,NA,""
"image-keyboard-response",263,222841,"0.0-4.83-2.83","dn41v8te4g39rnz",979,"157.csv","","null","resources/images/coin2.png","null","",NA,NA,NA,NA,""
"image-keyboard-response",264,223046,"0.0-4.84-0.84","dn41v8te4g39rnz",979,"157.csv","","204","resources/trios/L4T2A2.jpg","39","restless",0.3,0.4,0.8,0.158745767758572,"true"
"image-keyboard-response",265,223456,"0.0-4.84-1.84","dn41v8te4g39rnz",979,"157.csv","","null","resources/maskTrios/BBA2.jpg","null","",NA,NA,NA,NA,""
"image-keyboard-response",266,224670,"0.0-4.84-2.84","dn41v8te4g39rnz",979,"157.csv","","null","resources/images/coin2.png","null","",NA,NA,NA,NA,""
"image-keyboard-response",267,224981,"0.0-4.85-0.85","dn41v8te4g39rnz",979,"157.csv","","311","resources/trios/L4T2A2.jpg","37","restless",0.3,0.4,0.8,0.640558451458891,"false"
"image-keyboard-response",268,225390,"0.0-4.85-1.85","dn41v8te4g39rnz",979,"157.csv","","null","resources/maskTrios/L4BB.jpg","null","",NA,NA,NA,NA,""
"image-keyboard-response",269,226679,"0.0-4.85-2.85","dn41v8te4g39rnz",979,"157.csv","","null","resources/images/fishbone.png","null","",NA,NA,NA,NA,""
"image-keyboard-response",270,226957,"0.0-4.86-0.86","dn41v8te4g39rnz",979,"157.csv","","278","resources/trios/L4T2A2.jpg","38","restless",0.3,0.4,0.8,0.906738256226251,"false"
"image-keyboard-response",271,227370,"0.0-4.86-1.86","dn41v8te4g39rnz",979,"157.csv","","null","resources/maskTrios/BT2B.jpg","null","",NA,NA,NA,NA,""
"image-keyboard-response",272,228705,"0.0-4.86-2.86","dn41v8te4g39rnz",979,"157.csv","","null","resources/images/fishbone.png","null","",NA,NA,NA,NA,""
"image-keyboard-response",273,228892,"0.0-4.87-0.87","dn41v8te4g39rnz",979,"157.csv","","187","resources/trios/L4T2A2.jpg","38","restless",0.3,0.4,0.8,0.309974002063011,"true"
"image-keyboard-response",274,229304,"0.0-4.87-1.87","dn41v8te4g39rnz",979,"157.csv","","null","resources/maskTrios/BT2B.jpg","null","",NA,NA,NA,NA,""
"image-keyboard-response",275,230517,"0.0-4.87-2.87","dn41v8te4g39rnz",979,"157.csv","","null","resources/images/coin2.png","null","",NA,NA,NA,NA,""
"image-keyboard-response",276,230829,"0.0-4.88-0.88","dn41v8te4g39rnz",979,"157.csv","","310","resources/trios/L4T2A2.jpg","37","restless",0.3,0.4,0.8,0.753128577727182,"false"
"image-keyboard-response",277,231239,"0.0-4.88-1.88","dn41v8te4g39rnz",979,"157.csv","","null","resources/maskTrios/L4BB.jpg","null","",NA,NA,NA,NA,""
"image-keyboard-response",278,232451,"0.0-4.88-2.88","dn41v8te4g39rnz",979,"157.csv","","null","resources/images/fishbone.png","null","",NA,NA,NA,NA,""
"image-keyboard-response",279,232548,"0.0-4.89-0.89","dn41v8te4g39rnz",979,"157.csv","","96","resources/trios/L4T2A2.jpg","37","restless",0.3,0.4,0.8,0.34296684474615,"false"
"image-keyboard-response",280,232957,"0.0-4.89-1.89","dn41v8te4g39rnz",979,"157.csv","","null","resources/maskTrios/L4BB.jpg","null","",NA,NA,NA,NA,""
"image-keyboard-response",281,234169,"0.0-4.89-2.89","dn41v8te4g39rnz",979,"157.csv","","null","resources/images/fishbone.png","null","",NA,NA,NA,NA,""
"image-keyboard-response",282,234311,"0.0-4.90-0.90","dn41v8te4g39rnz",979,"157.csv","","142","resources/trios/L4T2A2.jpg","39","restless",0.3,0.4,0.7,0.00964812516265334,"true"
"image-keyboard-response",283,234722,"0.0-4.90-1.90","dn41v8te4g39rnz",979,"157.csv","","null","resources/maskTrios/BBA2.jpg","null","",NA,NA,NA,NA,""
"image-keyboard-response",284,235933,"0.0-4.90-2.90","dn41v8te4g39rnz",979,"157.csv","","null","resources/images/coin2.png","null","",NA,NA,NA,NA,""
"image-keyboard-response",285,236162,"0.0-4.91-0.91","dn41v8te4g39rnz",979,"157.csv","","229","resources/trios/L4T2A2.jpg","39","restless",0.3,0.4,0.7,0.403901032075598,"true"
"image-keyboard-response",286,236579,"0.0-4.91-1.91","dn41v8te4g39rnz",979,"157.csv","","null","resources/maskTrios/BBA2.jpg","null","",NA,NA,NA,NA,""
"image-keyboard-response",287,237792,"0.0-4.91-2.91","dn41v8te4g39rnz",979,"157.csv","","null","resources/images/coin2.png","null","",NA,NA,NA,NA,""
"image-keyboard-response",288,238041,"0.0-4.92-0.92","dn41v8te4g39rnz",979,"157.csv","","249","resources/trios/L4T2A2.jpg","39","restless",0.3,0.3,0.7,0.252033191729177,"true"
"image-keyboard-response",289,238452,"0.0-4.92-1.92","dn41v8te4g39rnz",979,"157.csv","","null","resources/maskTrios/BBA2.jpg","null","",NA,NA,NA,NA,""
"image-keyboard-response",290,239663,"0.0-4.92-2.92","dn41v8te4g39rnz",979,"157.csv","","null","resources/images/coin2.png","null","",NA,NA,NA,NA,""
"image-keyboard-response",291,240017,"0.0-4.93-0.93","dn41v8te4g39rnz",979,"157.csv","","353","resources/trios/L4T2A2.jpg","39","restless",0.3,0.3,0.7,0.938806357794565,"false"
"image-keyboard-response",292,240432,"0.0-4.93-1.93","dn41v8te4g39rnz",979,"157.csv","","null","resources/maskTrios/BBA2.jpg","null","",NA,NA,NA,NA,""
"image-keyboard-response",293,241645,"0.0-4.93-2.93","dn41v8te4g39rnz",979,"157.csv","","null","resources/images/fishbone.png","null","",NA,NA,NA,NA,""
"image-keyboard-response",294,241696,"0.0-4.94-0.94","dn41v8te4g39rnz",979,"157.csv","","51","resources/trios/L4T2A2.jpg","38","restless",0.3,0.3,0.7,0.0909226455475972,"true"
"image-keyboard-response",295,242104,"0.0-4.94-1.94","dn41v8te4g39rnz",979,"157.csv","","null","resources/maskTrios/BT2B.jpg","null","",NA,NA,NA,NA,""
"image-keyboard-response",296,243317,"0.0-4.94-2.94","dn41v8te4g39rnz",979,"157.csv","","null","resources/images/coin2.png","null","",NA,NA,NA,NA,""
"image-keyboard-response",297,243600,"0.0-4.95-0.95","dn41v8te4g39rnz",979,"157.csv","","282","resources/trios/L4T2A2.jpg","38","restless",0.3,0.3,0.7,0.842687251684911,"false"
"image-keyboard-response",298,244009,"0.0-4.95-1.95","dn41v8te4g39rnz",979,"157.csv","","null","resources/maskTrios/BT2B.jpg","null","",NA,NA,NA,NA,""
"image-keyboard-response",299,245219,"0.0-4.95-2.95","dn41v8te4g39rnz",979,"157.csv","","null","resources/images/fishbone.png","null","",NA,NA,NA,NA,""
"image-keyboard-response",300,245440,"0.0-4.96-0.96","dn41v8te4g39rnz",979,"157.csv","","219","resources/trios/L4T2A2.jpg","39","restless",0.3,0.3,0.7,0.59310268235994,"true"
"image-keyboard-response",301,245848,"0.0-4.96-1.96","dn41v8te4g39rnz",979,"157.csv","","null","resources/maskTrios/BBA2.jpg","null","",NA,NA,NA,NA,""
"image-keyboard-response",302,247060,"0.0-4.96-2.96","dn41v8te4g39rnz",979,"157.csv","","null","resources/images/coin2.png","null","",NA,NA,NA,NA,""
"image-keyboard-response",303,247349,"0.0-4.97-0.97","dn41v8te4g39rnz",979,"157.csv","","289","resources/trios/L4T2A2.jpg","39","restless",0.3,0.2,0.7,0.476605854211691,"true"
"image-keyboard-response",304,247750,"0.0-4.97-1.97","dn41v8te4g39rnz",979,"157.csv","","null","resources/maskTrios/BBA2.jpg","null","",NA,NA,NA,NA,""
"image-keyboard-response",305,248963,"0.0-4.97-2.97","dn41v8te4g39rnz",979,"157.csv","","null","resources/images/coin2.png","null","",NA,NA,NA,NA,""
"image-keyboard-response",306,249182,"0.0-4.98-0.98","dn41v8te4g39rnz",979,"157.csv","","217","resources/trios/L4T2A2.jpg","37","restless",0.3,0.2,0.7,0.603424935737731,"false"
"image-keyboard-response",307,249593,"0.0-4.98-1.98","dn41v8te4g39rnz",979,"157.csv","","null","resources/maskTrios/L4BB.jpg","null","",NA,NA,NA,NA,""
"image-keyboard-response",308,250805,"0.0-4.98-2.98","dn41v8te4g39rnz",979,"157.csv","","null","resources/images/fishbone.png","null","",NA,NA,NA,NA,""
"image-keyboard-response",309,251051,"0.0-4.99-0.99","dn41v8te4g39rnz",979,"157.csv","","246","resources/trios/L4T2A2.jpg","39","restless",0.3,0.2,0.7,0.0621789761501064,"true"
"image-keyboard-response",310,251466,"0.0-4.99-1.99","dn41v8te4g39rnz",979,"157.csv","","null","resources/maskTrios/BBA2.jpg","null","",NA,NA,NA,NA,""
"image-keyboard-response",311,252678,"0.0-4.99-2.99","dn41v8te4g39rnz",979,"157.csv","","null","resources/images/coin2.png","null","",NA,NA,NA,NA,""
"image-keyboard-response",312,252966,"0.0-4.100-0.100","dn41v8te4g39rnz",979,"157.csv","","287","resources/trios/L4T2A2.jpg","38","restless",0.3,0.2,0.7,0.0700410163790693,"true"
"image-keyboard-response",313,253370,"0.0-4.100-1.100","dn41v8te4g39rnz",979,"157.csv","","null","resources/maskTrios/BT2B.jpg","null","",NA,NA,NA,NA,""
"image-keyboard-response",314,254692,"0.0-4.100-2.100","dn41v8te4g39rnz",979,"157.csv","","null","resources/images/coin2.png","null","",NA,NA,NA,NA,""
"image-keyboard-response",315,254919,"0.0-4.101-0.101","dn41v8te4g39rnz",979,"157.csv","","226","resources/trios/L4T2A2.jpg","37","restless",0.3,0.2,0.7,0.623975590801233,"false"
"image-keyboard-response",316,255322,"0.0-4.101-1.101","dn41v8te4g39rnz",979,"157.csv","","null","resources/maskTrios/L4BB.jpg","null","",NA,NA,NA,NA,""
"image-keyboard-response",317,256534,"0.0-4.101-2.101","dn41v8te4g39rnz",979,"157.csv","","null","resources/images/fishbone.png","null","",NA,NA,NA,NA,""
"image-keyboard-response",318,256774,"0.0-4.102-0.102","dn41v8te4g39rnz",979,"157.csv","","239","resources/trios/L4T2A2.jpg","39","restless",0.3,0.2,0.7,0.50791009424699,"true"
"image-keyboard-response",319,257180,"0.0-4.102-1.102","dn41v8te4g39rnz",979,"157.csv","","null","resources/maskTrios/BBA2.jpg","null","",NA,NA,NA,NA,""
"image-keyboard-response",320,258394,"0.0-4.102-2.102","dn41v8te4g39rnz",979,"157.csv","","null","resources/images/coin2.png","null","",NA,NA,NA,NA,""
"image-keyboard-response",321,258790,"0.0-4.103-0.103","dn41v8te4g39rnz",979,"157.csv","","395","resources/trios/L4T2A2.jpg","39","restless",0.3,0.2,0.8,0.897460061206349,"false"
"image-keyboard-response",322,259196,"0.0-4.103-1.103","dn41v8te4g39rnz",979,"157.csv","","null","resources/maskTrios/BBA2.jpg","null","",NA,NA,NA,NA,""
"image-keyboard-response",323,260408,"0.0-4.103-2.103","dn41v8te4g39rnz",979,"157.csv","","null","resources/images/fishbone.png","null","",NA,NA,NA,NA,""
"image-keyboard-response",324,260653,"0.0-4.104-0.104","dn41v8te4g39rnz",979,"157.csv","","244","resources/trios/L4T2A2.jpg","38","restless",0.4,0.2,0.8,0.148679412567975,"true"
"image-keyboard-response",325,261068,"0.0-4.104-1.104","dn41v8te4g39rnz",979,"157.csv","","null","resources/maskTrios/BT2B.jpg","null","",NA,NA,NA,NA,""
"image-keyboard-response",326,262282,"0.0-4.104-2.104","dn41v8te4g39rnz",979,"157.csv","","null","resources/images/coin2.png","null","",NA,NA,NA,NA,""
"image-keyboard-response",327,262544,"0.0-4.105-0.105","dn41v8te4g39rnz",979,"157.csv","","262","resources/trios/L4T2A2.jpg","38","restless",0.4,0.2,0.8,0.201302283980503,"false"
"image-keyboard-response",328,262957,"0.0-4.105-1.105","dn41v8te4g39rnz",979,"157.csv","","null","resources/maskTrios/BT2B.jpg","null","",NA,NA,NA,NA,""
"image-keyboard-response",329,264172,"0.0-4.105-2.105","dn41v8te4g39rnz",979,"157.csv","","null","resources/images/fishbone.png","null","",NA,NA,NA,NA,""
"image-keyboard-response",330,264403,"0.0-4.106-0.106","dn41v8te4g39rnz",979,"157.csv","","230","resources/trios/L4T2A2.jpg","39","restless",0.4,0.2,0.8,0.687802806696282,"true"
"image-keyboard-response",331,264818,"0.0-4.106-1.106","dn41v8te4g39rnz",979,"157.csv","","null","resources/maskTrios/BBA2.jpg","null","",NA,NA,NA,NA,""
"image-keyboard-response",332,266139,"0.0-4.106-2.106","dn41v8te4g39rnz",979,"157.csv","","null","resources/images/coin2.png","null","",NA,NA,NA,NA,""
"image-keyboard-response",333,266398,"0.0-4.107-0.107","dn41v8te4g39rnz",979,"157.csv","","257","resources/trios/L4T2A2.jpg","37","restless",0.4,0.1,0.7,0.0331507465978402,"true"
"image-keyboard-response",334,266800,"0.0-4.107-1.107","dn41v8te4g39rnz",979,"157.csv","","null","resources/maskTrios/L4BB.jpg","null","",NA,NA,NA,NA,""
"image-keyboard-response",335,268150,"0.0-4.107-2.107","dn41v8te4g39rnz",979,"157.csv","","null","resources/images/coin2.png","null","",NA,NA,NA,NA,""
"image-keyboard-response",336,268555,"0.0-4.108-0.108","dn41v8te4g39rnz",979,"157.csv","","404","resources/trios/L4T2A2.jpg","37","restless",0.5,0.1,0.7,0.459485578675479,"true"
"image-keyboard-response",337,268963,"0.0-4.108-1.108","dn41v8te4g39rnz",979,"157.csv","","null","resources/maskTrios/L4BB.jpg","null","",NA,NA,NA,NA,""
"image-keyboard-response",338,270178,"0.0-4.108-2.108","dn41v8te4g39rnz",979,"157.csv","","null","resources/images/coin2.png","null","",NA,NA,NA,NA,""
"image-keyboard-response",339,270635,"0.0-4.109-0.109","dn41v8te4g39rnz",979,"157.csv","","457","resources/trios/L4T2A2.jpg","37","restless",0.6,0.2,0.7,0.187211634038059,"true"
"image-keyboard-response",340,271038,"0.0-4.109-1.109","dn41v8te4g39rnz",979,"157.csv","","null","resources/maskTrios/L4BB.jpg","null","",NA,NA,NA,NA,""
"image-keyboard-response",341,272251,"0.0-4.109-2.109","dn41v8te4g39rnz",979,"157.csv","","null","resources/images/coin2.png","null","",NA,NA,NA,NA,""
"image-keyboard-response",342,272451,"0.0-4.110-0.110","dn41v8te4g39rnz",979,"157.csv","","198","resources/trios/L4T2A2.jpg","39","restless",0.6,0.2,0.7,0.494317084103779,"true"
"image-keyboard-response",343,272864,"0.0-4.110-1.110","dn41v8te4g39rnz",979,"157.csv","","null","resources/maskTrios/BBA2.jpg","null","",NA,NA,NA,NA,""
"image-keyboard-response",344,274076,"0.0-4.110-2.110","dn41v8te4g39rnz",979,"157.csv","","null","resources/images/coin2.png","null","",NA,NA,NA,NA,""
"image-keyboard-response",345,274384,"0.0-4.111-0.111","dn41v8te4g39rnz",979,"157.csv","","307","resources/trios/L4T2A2.jpg","38","restless",0.6,0.2,0.7,0.724333068261309,"false"
"image-keyboard-response",346,274797,"0.0-4.111-1.111","dn41v8te4g39rnz",979,"157.csv","","null","resources/maskTrios/BT2B.jpg","null","",NA,NA,NA,NA,""
"image-keyboard-response",347,276010,"0.0-4.111-2.111","dn41v8te4g39rnz",979,"157.csv","","null","resources/images/fishbone.png","null","",NA,NA,NA,NA,""
"image-keyboard-response",348,276323,"0.0-4.112-0.112","dn41v8te4g39rnz",979,"157.csv","","312","resources/trios/L4T2A2.jpg","39","restless",0.6,0.2,0.7,0.274057261385973,"true"
"image-keyboard-response",349,276731,"0.0-4.112-1.112","dn41v8te4g39rnz",979,"157.csv","","null","resources/maskTrios/BBA2.jpg","null","",NA,NA,NA,NA,""
"image-keyboard-response",350,277942,"0.0-4.112-2.112","dn41v8te4g39rnz",979,"157.csv","","null","resources/images/coin2.png","null","",NA,NA,NA,NA,""
"image-keyboard-response",351,278232,"0.0-4.113-0.113","dn41v8te4g39rnz",979,"157.csv","","290","resources/trios/L4T2A2.jpg","37","restless",0.6,0.2,0.7,0.812574507922972,"false"
"image-keyboard-response",352,278634,"0.0-4.113-1.113","dn41v8te4g39rnz",979,"157.csv","","null","resources/maskTrios/L4BB.jpg","null","",NA,NA,NA,NA,""
"image-keyboard-response",353,279845,"0.0-4.113-2.113","dn41v8te4g39rnz",979,"157.csv","","null","resources/images/fishbone.png","null","",NA,NA,NA,NA,""
"image-keyboard-response",354,280091,"0.0-4.114-0.114","dn41v8te4g39rnz",979,"157.csv","","245","resources/trios/L4T2A2.jpg","39","restless",0.6,0.2,0.6,0.509931989352927,"true"
"image-keyboard-response",355,280507,"0.0-4.114-1.114","dn41v8te4g39rnz",979,"157.csv","","null","resources/maskTrios/BBA2.jpg","null","",NA,NA,NA,NA,""
"image-keyboard-response",356,281722,"0.0-4.114-2.114","dn41v8te4g39rnz",979,"157.csv","","null","resources/images/coin2.png","null","",NA,NA,NA,NA,""
"image-keyboard-response",357,281847,"0.0-4.115-0.115","dn41v8te4g39rnz",979,"157.csv","","125","resources/trios/L4T2A2.jpg","39","restless",0.6,0.2,0.6,0.701537701330368,"false"
"image-keyboard-response",358,282258,"0.0-4.115-1.115","dn41v8te4g39rnz",979,"157.csv","","null","resources/maskTrios/BBA2.jpg","null","",NA,NA,NA,NA,""
"image-keyboard-response",359,283471,"0.0-4.115-2.115","dn41v8te4g39rnz",979,"157.csv","","null","resources/images/fishbone.png","null","",NA,NA,NA,NA,""
"image-keyboard-response",360,283903,"0.0-4.116-0.116","dn41v8te4g39rnz",979,"157.csv","","433","resources/trios/L4T2A2.jpg","37","restless",0.7,0.2,0.6,0.610769750817622,"true"
"image-keyboard-response",361,284313,"0.0-4.116-1.116","dn41v8te4g39rnz",979,"157.csv","","null","resources/maskTrios/L4BB.jpg","null","",NA,NA,NA,NA,""
"image-keyboard-response",362,285573,"0.0-4.116-2.116","dn41v8te4g39rnz",979,"157.csv","","null","resources/images/coin2.png","null","",NA,NA,NA,NA,""
"image-keyboard-response",363,286096,"0.0-4.117-0.117","dn41v8te4g39rnz",979,"157.csv","","523","resources/trios/L4T2A2.jpg","38","restless",0.7,0.2,0.6,0.856464974230966,"false"
"image-keyboard-response",364,286510,"0.0-4.117-1.117","dn41v8te4g39rnz",979,"157.csv","","null","resources/maskTrios/BT2B.jpg","null","",NA,NA,NA,NA,""
"image-keyboard-response",365,287722,"0.0-4.117-2.117","dn41v8te4g39rnz",979,"157.csv","","null","resources/images/fishbone.png","null","",NA,NA,NA,NA,""
"image-keyboard-response",366,288169,"0.0-4.118-0.118","dn41v8te4g39rnz",979,"157.csv","","447","resources/trios/L4T2A2.jpg","39","restless",0.7,0.2,0.6,0.468918453793894,"true"
"image-keyboard-response",367,288581,"0.0-4.118-1.118","dn41v8te4g39rnz",979,"157.csv","","null","resources/maskTrios/BBA2.jpg","null","",NA,NA,NA,NA,""
"image-keyboard-response",368,289792,"0.0-4.118-2.118","dn41v8te4g39rnz",979,"157.csv","","null","resources/images/coin2.png","null","",NA,NA,NA,NA,""
"image-keyboard-response",369,290449,"0.0-4.119-0.119","dn41v8te4g39rnz",979,"157.csv","","657","resources/trios/L4T2A2.jpg","39","restless",0.7,0.2,0.6,0.382212460656481,"true"
"image-keyboard-response",370,290850,"0.0-4.119-1.119","dn41v8te4g39rnz",979,"157.csv","","null","resources/maskTrios/BBA2.jpg","null","",NA,NA,NA,NA,""
"image-keyboard-response",371,292064,"0.0-4.119-2.119","dn41v8te4g39rnz",979,"157.csv","","null","resources/images/coin2.png","null","",NA,NA,NA,NA,""
"image-keyboard-response",372,293120,"0.0-4.120-0.120","dn41v8te4g39rnz",979,"157.csv","","1054","resources/trios/L4T2A2.jpg","39","restless",0.7,0.2,0.6,0.685337015603152,"false"
"image-keyboard-response",373,293521,"0.0-4.120-1.120","dn41v8te4g39rnz",979,"157.csv","","null","resources/maskTrios/BBA2.jpg","null","",NA,NA,NA,NA,""
"image-keyboard-response",374,294734,"0.0-4.120-2.120","dn41v8te4g39rnz",979,"157.csv","","null","resources/images/fishbone.png","null","",NA,NA,NA,NA,""
"image-keyboard-response",375,295653,"0.0-4.121-0.121","dn41v8te4g39rnz",979,"157.csv","","918","resources/trios/L4T2A2.jpg","38","restless",0.7,0.3,0.6,0.353910803060477,"false"
"image-keyboard-response",376,296068,"0.0-4.121-1.121","dn41v8te4g39rnz",979,"157.csv","","null","resources/maskTrios/BT2B.jpg","null","",NA,NA,NA,NA,""
"image-keyboard-response",377,297281,"0.0-4.121-2.121","dn41v8te4g39rnz",979,"157.csv","","null","resources/images/fishbone.png","null","",NA,NA,NA,NA,""
"image-keyboard-response",378,297625,"0.0-4.122-0.122","dn41v8te4g39rnz",979,"157.csv","","342","resources/trios/L4T2A2.jpg","37","restless",0.7,0.3,0.6,0.892447626650548,"false"
"image-keyboard-response",379,298032,"0.0-4.122-1.122","dn41v8te4g39rnz",979,"157.csv","","null","resources/maskTrios/L4BB.jpg","null","",NA,NA,NA,NA,""
"image-keyboard-response",380,299244,"0.0-4.122-2.122","dn41v8te4g39rnz",979,"157.csv","","null","resources/images/fishbone.png","null","",NA,NA,NA,NA,""
"image-keyboard-response",381,299585,"0.0-4.123-0.123","dn41v8te4g39rnz",979,"157.csv","","340","resources/trios/L4T2A2.jpg","37","restless",0.7,0.3,0.5,0.803564886986218,"false"
"image-keyboard-response",382,299995,"0.0-4.123-1.123","dn41v8te4g39rnz",979,"157.csv","","null","resources/maskTrios/L4BB.jpg","null","",NA,NA,NA,NA,""
"image-keyboard-response",383,301208,"0.0-4.123-2.123","dn41v8te4g39rnz",979,"157.csv","","null","resources/images/fishbone.png","null","",NA,NA,NA,NA,""
"image-keyboard-response",384,301429,"0.0-4.124-0.124","dn41v8te4g39rnz",979,"157.csv","","221","resources/trios/L4T2A2.jpg","37","restless",0.7,0.3,0.5,0.54626897787284,"true"
"image-keyboard-response",385,301836,"0.0-4.124-1.124","dn41v8te4g39rnz",979,"157.csv","","null","resources/maskTrios/L4BB.jpg","null","",NA,NA,NA,NA,""
"image-keyboard-response",386,303050,"0.0-4.124-2.124","dn41v8te4g39rnz",979,"157.csv","","null","resources/images/coin2.png","null","",NA,NA,NA,NA,""
"image-keyboard-response",387,303314,"0.0-4.125-0.125","dn41v8te4g39rnz",979,"157.csv","","265","resources/trios/L4T2A2.jpg","39","restless",0.7,0.2,0.5,0.638411894100764,"false"
"image-keyboard-response",388,303724,"0.0-4.125-1.125","dn41v8te4g39rnz",979,"157.csv","","null","resources/maskTrios/BBA2.jpg","null","",NA,NA,NA,NA,""
"image-keyboard-response",389,305062,"0.0-4.125-2.125","dn41v8te4g39rnz",979,"157.csv","","null","resources/images/fishbone.png","null","",NA,NA,NA,NA,""
"image-keyboard-response",390,305349,"0.0-4.126-0.126","dn41v8te4g39rnz",979,"157.csv","","286","resources/trios/L4T2A2.jpg","37","restless",0.7,0.2,0.5,0.893333155794029,"false"
"image-keyboard-response",391,305754,"0.0-4.126-1.126","dn41v8te4g39rnz",979,"157.csv","","null","resources/maskTrios/L4BB.jpg","null","",NA,NA,NA,NA,""
"image-keyboard-response",392,307075,"0.0-4.126-2.126","dn41v8te4g39rnz",979,"157.csv","","null","resources/images/fishbone.png","null","",NA,NA,NA,NA,""
"image-keyboard-response",393,307321,"0.0-4.127-0.127","dn41v8te4g39rnz",979,"157.csv","","245","resources/trios/L4T2A2.jpg","38","restless",0.6,0.3,0.5,0.176986559831638,"true"
"image-keyboard-response",394,307734,"0.0-4.127-1.127","dn41v8te4g39rnz",979,"157.csv","","null","resources/maskTrios/BT2B.jpg","null","",NA,NA,NA,NA,""
"image-keyboard-response",395,309085,"0.0-4.127-2.127","dn41v8te4g39rnz",979,"157.csv","","null","resources/images/coin2.png","null","",NA,NA,NA,NA,""
"image-keyboard-response",396,309605,"0.0-4.128-0.128","dn41v8te4g39rnz",979,"157.csv","","520","resources/trios/L4T2A2.jpg","38","restless",0.5,0.3,0.5,0.695146471259886,"false"
"image-keyboard-response",397,310008,"0.0-4.128-1.128","dn41v8te4g39rnz",979,"157.csv","","null","resources/maskTrios/BT2B.jpg","null","",NA,NA,NA,NA,""
"image-keyboard-response",398,311219,"0.0-4.128-2.128","dn41v8te4g39rnz",979,"157.csv","","null","resources/images/fishbone.png","null","",NA,NA,NA,NA,""
"image-keyboard-response",399,311316,"0.0-4.129-0.129","dn41v8te4g39rnz",979,"157.csv","","96","resources/trios/L4T2A2.jpg","39","restless",0.5,0.3,0.4,0.504224863533798,"false"
"image-keyboard-response",400,311725,"0.0-4.129-1.129","dn41v8te4g39rnz",979,"157.csv","","null","resources/maskTrios/BBA2.jpg","null","",NA,NA,NA,NA,""
"image-keyboard-response",401,312935,"0.0-4.129-2.129","dn41v8te4g39rnz",979,"157.csv","","null","resources/images/fishbone.png","null","",NA,NA,NA,NA,""
"image-keyboard-response",402,312959,"0.0-4.130-0.130","dn41v8te4g39rnz",979,"157.csv","","24","resources/trios/L4T2A2.jpg","39","restless",0.5,0.3,0.4,0.98101572921966,"false"
"image-keyboard-response",403,313368,"0.0-4.130-1.130","dn41v8te4g39rnz",979,"157.csv","","null","resources/maskTrios/BBA2.jpg","null","",NA,NA,NA,NA,""
"image-keyboard-response",404,314580,"0.0-4.130-2.130","dn41v8te4g39rnz",979,"157.csv","","null","resources/images/fishbone.png","null","",NA,NA,NA,NA,""
"image-keyboard-response",405,314976,"0.0-4.131-0.131","dn41v8te4g39rnz",979,"157.csv","","394","resources/trios/L4T2A2.jpg","37","restless",0.5,0.3,0.4,0.93772571229295,"false"
"image-keyboard-response",406,315379,"0.0-4.131-1.131","dn41v8te4g39rnz",979,"157.csv","","null","resources/maskTrios/L4BB.jpg","null","",NA,NA,NA,NA,""
"image-keyboard-response",407,316594,"0.0-4.131-2.131","dn41v8te4g39rnz",979,"157.csv","","null","resources/images/fishbone.png","null","",NA,NA,NA,NA,""
"image-keyboard-response",408,316908,"0.0-4.132-0.132","dn41v8te4g39rnz",979,"157.csv","","313","resources/trios/L4T2A2.jpg","38","restless",0.5,0.3,0.4,0.850025472009985,"false"
"image-keyboard-response",409,317314,"0.0-4.132-1.132","dn41v8te4g39rnz",979,"157.csv","","null","resources/maskTrios/BT2B.jpg","null","",NA,NA,NA,NA,""
"image-keyboard-response",410,318527,"0.0-4.132-2.132","dn41v8te4g39rnz",979,"157.csv","","null","resources/images/fishbone.png","null","",NA,NA,NA,NA,""
"image-keyboard-response",411,318855,"0.0-4.133-0.133","dn41v8te4g39rnz",979,"157.csv","","327","resources/trios/L4T2A2.jpg","38","restless",0.5,0.3,0.4,0.163567530594832,"true"
"image-keyboard-response",412,319262,"0.0-4.133-1.133","dn41v8te4g39rnz",979,"157.csv","","null","resources/maskTrios/BT2B.jpg","null","",NA,NA,NA,NA,""
"image-keyboard-response",413,320474,"0.0-4.133-2.133","dn41v8te4g39rnz",979,"157.csv","","null","resources/images/coin2.png","null","",NA,NA,NA,NA,""
"image-keyboard-response",414,320983,"0.0-4.134-0.134","dn41v8te4g39rnz",979,"157.csv","","509","resources/trios/L4T2A2.jpg","37","restless",0.5,0.4,0.4,0.960294165858306,"false"
"image-keyboard-response",415,321396,"0.0-4.134-1.134","dn41v8te4g39rnz",979,"157.csv","","null","resources/maskTrios/L4BB.jpg","null","",NA,NA,NA,NA,""
"image-keyboard-response",416,322608,"0.0-4.134-2.134","dn41v8te4g39rnz",979,"157.csv","","null","resources/images/fishbone.png","null","",NA,NA,NA,NA,""
"image-keyboard-response",417,322862,"0.0-4.135-0.135","dn41v8te4g39rnz",979,"157.csv","","253","resources/trios/L4T2A2.jpg","38","restless",0.5,0.4,0.4,0.537651209025292,"false"
"image-keyboard-response",418,323268,"0.0-4.135-1.135","dn41v8te4g39rnz",979,"157.csv","","null","resources/maskTrios/BT2B.jpg","null","",NA,NA,NA,NA,""
"image-keyboard-response",419,324480,"0.0-4.135-2.135","dn41v8te4g39rnz",979,"157.csv","","null","resources/images/fishbone.png","null","",NA,NA,NA,NA,""
"image-keyboard-response",420,324727,"0.0-4.136-0.136","dn41v8te4g39rnz",979,"157.csv","","247","resources/trios/L4T2A2.jpg","38","restless",0.5,0.4,0.4,0.687873295586808,"false"
"image-keyboard-response",421,325140,"0.0-4.136-1.136","dn41v8te4g39rnz",979,"157.csv","","null","resources/maskTrios/BT2B.jpg","null","",NA,NA,NA,NA,""
"image-keyboard-response",422,326353,"0.0-4.136-2.136","dn41v8te4g39rnz",979,"157.csv","","null","resources/images/fishbone.png","null","",NA,NA,NA,NA,""
"image-keyboard-response",423,326570,"0.0-4.137-0.137","dn41v8te4g39rnz",979,"157.csv","","218","resources/trios/L4T2A2.jpg","39","restless",0.5,0.4,0.4,0.623327892910053,"false"
"image-keyboard-response",424,326982,"0.0-4.137-1.137","dn41v8te4g39rnz",979,"157.csv","","null","resources/maskTrios/BBA2.jpg","null","",NA,NA,NA,NA,""
"image-keyboard-response",425,328196,"0.0-4.137-2.137","dn41v8te4g39rnz",979,"157.csv","","null","resources/images/fishbone.png","null","",NA,NA,NA,NA,""
"image-keyboard-response",426,328564,"0.0-4.138-0.138","dn41v8te4g39rnz",979,"157.csv","","368","resources/trios/L4T2A2.jpg","37","restless",0.5,0.4,0.4,0.86149528861574,"false"
"image-keyboard-response",427,328979,"0.0-4.138-1.138","dn41v8te4g39rnz",979,"157.csv","","null","resources/maskTrios/L4BB.jpg","null","",NA,NA,NA,NA,""
"image-keyboard-response",428,330191,"0.0-4.138-2.138","dn41v8te4g39rnz",979,"157.csv","","null","resources/images/fishbone.png","null","",NA,NA,NA,NA,""
"image-keyboard-response",429,330882,"0.0-4.139-0.139","dn41v8te4g39rnz",979,"157.csv","","691","resources/trios/L4T2A2.jpg","37","restless",0.6,0.4,0.4,0.64977936186161,"false"
"image-keyboard-response",430,331295,"0.0-4.139-1.139","dn41v8te4g39rnz",979,"157.csv","","null","resources/maskTrios/L4BB.jpg","null","",NA,NA,NA,NA,""
"image-keyboard-response",431,332509,"0.0-4.139-2.139","dn41v8te4g39rnz",979,"157.csv","","null","resources/images/fishbone.png","null","",NA,NA,NA,NA,""
"image-keyboard-response",432,332770,"0.0-4.140-0.140","dn41v8te4g39rnz",979,"157.csv","","261","resources/trios/L4T2A2.jpg","37","restless",0.6,0.4,0.4,0.0769673120254109,"true"
"image-keyboard-response",433,333183,"0.0-4.140-1.140","dn41v8te4g39rnz",979,"157.csv","","null","resources/maskTrios/L4BB.jpg","null","",NA,NA,NA,NA,""
"image-keyboard-response",434,334398,"0.0-4.140-2.140","dn41v8te4g39rnz",979,"157.csv","","null","resources/images/coin2.png","null","",NA,NA,NA,NA,""
"image-keyboard-response",435,334726,"0.0-4.141-0.141","dn41v8te4g39rnz",979,"157.csv","","328","resources/trios/L4T2A2.jpg","37","restless",0.6,0.5,0.4,0.759788931677671,"false"
"image-keyboard-response",436,335134,"0.0-4.141-1.141","dn41v8te4g39rnz",979,"157.csv","","null","resources/maskTrios/L4BB.jpg","null","",NA,NA,NA,NA,""
"image-keyboard-response",437,336362,"0.0-4.141-2.141","dn41v8te4g39rnz",979,"157.csv","","null","resources/images/fishbone.png","null","",NA,NA,NA,NA,""
"image-keyboard-response",438,336645,"0.0-4.142-0.142","dn41v8te4g39rnz",979,"157.csv","","283","resources/trios/L4T2A2.jpg","38","restless",0.6,0.5,0.4,0.946695724705964,"false"
"image-keyboard-response",439,337054,"0.0-4.142-1.142","dn41v8te4g39rnz",979,"157.csv","","null","resources/maskTrios/BT2B.jpg","null","",NA,NA,NA,NA,""
"image-keyboard-response",440,338376,"0.0-4.142-2.142","dn41v8te4g39rnz",979,"157.csv","","null","resources/images/fishbone.png","null","",NA,NA,NA,NA,""
"image-keyboard-response",441,338658,"0.0-4.143-0.143","dn41v8te4g39rnz",979,"157.csv","","283","resources/trios/L4T2A2.jpg","39","restless",0.5,0.5,0.4,0.803420217839291,"false"
"image-keyboard-response",442,339066,"0.0-4.143-1.143","dn41v8te4g39rnz",979,"157.csv","","null","resources/maskTrios/BBA2.jpg","null","",NA,NA,NA,NA,""
"image-keyboard-response",443,340402,"0.0-4.143-2.143","dn41v8te4g39rnz",979,"157.csv","","null","resources/images/fishbone.png","null","",NA,NA,NA,NA,""
"image-keyboard-response",444,340612,"0.0-4.144-0.144","dn41v8te4g39rnz",979,"157.csv","","209","resources/trios/L4T2A2.jpg","39","restless",0.6,0.5,0.4,0.0048162136585288,"true"
"image-keyboard-response",445,341016,"0.0-4.144-1.144","dn41v8te4g39rnz",979,"157.csv","","null","resources/maskTrios/BBA2.jpg","null","",NA,NA,NA,NA,""
"image-keyboard-response",446,342227,"0.0-4.144-2.144","dn41v8te4g39rnz",979,"157.csv","","null","resources/images/coin2.png","null","",NA,NA,NA,NA,""
"image-keyboard-response",447,342889,"0.0-4.145-0.145","dn41v8te4g39rnz",979,"157.csv","","661","resources/trios/L4T2A2.jpg","37","restless",0.7,0.5,0.4,0.762951627032361,"false"
"image-keyboard-response",448,343299,"0.0-4.145-1.145","dn41v8te4g39rnz",979,"157.csv","","null","resources/maskTrios/L4BB.jpg","null","",NA,NA,NA,NA,""
"image-keyboard-response",449,344512,"0.0-4.145-2.145","dn41v8te4g39rnz",979,"157.csv","","null","resources/images/fishbone.png","null","",NA,NA,NA,NA,""
"image-keyboard-response",450,344655,"0.0-4.146-0.146","dn41v8te4g39rnz",979,"157.csv","","143","resources/trios/L4T2A2.jpg","39","restless",0.7,0.5,0.4,0.0591688030382863,"true"
"image-keyboard-response",451,345065,"0.0-4.146-1.146","dn41v8te4g39rnz",979,"157.csv","","null","resources/maskTrios/BBA2.jpg","null","",NA,NA,NA,NA,""
"image-keyboard-response",452,346370,"0.0-4.146-2.146","dn41v8te4g39rnz",979,"157.csv","","null","resources/images/coin2.png","null","",NA,NA,NA,NA,""
"image-keyboard-response",453,346625,"0.0-4.147-0.147","dn41v8te4g39rnz",979,"157.csv","","254","resources/trios/L4T2A2.jpg","37","restless",0.7,0.6,0.4,0.302030199024517,"true"
"image-keyboard-response",454,347077,"0.0-4.147-1.147","dn41v8te4g39rnz",979,"157.csv","","null","resources/maskTrios/L4BB.jpg","null","",NA,NA,NA,NA,""
"image-keyboard-response",455,348289,"0.0-4.147-2.147","dn41v8te4g39rnz",979,"157.csv","","null","resources/images/coin2.png","null","",NA,NA,NA,NA,""
"image-keyboard-response",456,348714,"0.0-4.148-0.148","dn41v8te4g39rnz",979,"157.csv","","425","resources/trios/L4T2A2.jpg","37","restless",0.7,0.6,0.4,0.703321813547164,"false"
"image-keyboard-response",457,349116,"0.0-4.148-1.148","dn41v8te4g39rnz",979,"157.csv","","null","resources/maskTrios/L4BB.jpg","null","",NA,NA,NA,NA,""
"image-keyboard-response",458,350327,"0.0-4.148-2.148","dn41v8te4g39rnz",979,"157.csv","","null","resources/images/fishbone.png","null","",NA,NA,NA,NA,""
"image-keyboard-response",459,350617,"0.0-4.149-0.149","dn41v8te4g39rnz",979,"157.csv","","288","resources/trios/L4T2A2.jpg","39","restless",0.8,0.6,0.4,0.727813959885921,"false"
"image-keyboard-response",460,351018,"0.0-4.149-1.149","dn41v8te4g39rnz",979,"157.csv","","null","resources/maskTrios/BBA2.jpg","null","",NA,NA,NA,NA,""
"image-keyboard-response",461,352232,"0.0-4.149-2.149","dn41v8te4g39rnz",979,"157.csv","","null","resources/images/fishbone.png","null","",NA,NA,NA,NA,""
"image-keyboard-response",462,352471,"0.0-4.150-0.150","dn41v8te4g39rnz",979,"157.csv","","239","resources/trios/L4T2A2.jpg","38","restless",0.8,0.5,0.4,0.605392270853727,"false"
"image-keyboard-response",463,352877,"0.0-4.150-1.150","dn41v8te4g39rnz",979,"157.csv","","null","resources/maskTrios/BT2B.jpg","null","",NA,NA,NA,NA,""
"image-keyboard-response",464,354092,"0.0-4.150-2.150","dn41v8te4g39rnz",979,"157.csv","","null","resources/images/fishbone.png","null","",NA,NA,NA,NA,""
"image-keyboard-response",465,354181,"0.0-4.151-0.151","dn41v8te4g39rnz",979,"157.csv","","89","resources/trios/L4T2A2.jpg","38","restless",0.8,0.5,0.4,0.230843268036753,"true"
"image-keyboard-response",466,354582,"0.0-4.151-1.151","dn41v8te4g39rnz",979,"157.csv","","null","resources/maskTrios/BT2B.jpg","null","",NA,NA,NA,NA,""
"image-keyboard-response",467,355794,"0.0-4.151-2.151","dn41v8te4g39rnz",979,"157.csv","","null","resources/images/coin2.png","null","",NA,NA,NA,NA,""
"image-keyboard-response",468,356059,"0.0-4.152-0.152","dn41v8te4g39rnz",979,"157.csv","","265","resources/trios/L4T2A2.jpg","37","restless",0.8,0.5,0.4,0.0862316635121442,"true"
"image-keyboard-response",469,356470,"0.0-4.152-1.152","dn41v8te4g39rnz",979,"157.csv","","null","resources/maskTrios/L4BB.jpg","null","",NA,NA,NA,NA,""
"image-keyboard-response",470,357682,"0.0-4.152-2.152","dn41v8te4g39rnz",979,"157.csv","","null","resources/images/coin2.png","null","",NA,NA,NA,NA,""
"image-keyboard-response",471,359201,"0.0-4.153-0.153","dn41v8te4g39rnz",979,"157.csv","","1518","resources/trios/L4T2A2.jpg","37","restless",0.8,0.5,0.4,0.194648908211118,"true"
"image-keyboard-response",472,359617,"0.0-4.153-1.153","dn41v8te4g39rnz",979,"157.csv","","null","resources/maskTrios/L4BB.jpg","null","",NA,NA,NA,NA,""
"image-keyboard-response",473,360831,"0.0-4.153-2.153","dn41v8te4g39rnz",979,"157.csv","","null","resources/images/coin2.png","null","",NA,NA,NA,NA,""
"image-keyboard-response",474,361096,"0.0-4.154-0.154","dn41v8te4g39rnz",979,"157.csv","","265","resources/trios/L4T2A2.jpg","39","restless",0.8,0.5,0.4,0.198002977919312,"true"
"image-keyboard-response",475,361506,"0.0-4.154-1.154","dn41v8te4g39rnz",979,"157.csv","","null","resources/maskTrios/BBA2.jpg","null","",NA,NA,NA,NA,""
"image-keyboard-response",476,362717,"0.0-4.154-2.154","dn41v8te4g39rnz",979,"157.csv","","null","resources/images/coin2.png","null","",NA,NA,NA,NA,""
"image-keyboard-response",477,364095,"0.0-4.155-0.155","dn41v8te4g39rnz",979,"157.csv","","1378","resources/trios/L4T2A2.jpg","38","restless",0.8,0.6,0.4,0.658468148069853,"false"
"image-keyboard-response",478,364498,"0.0-4.155-1.155","dn41v8te4g39rnz",979,"157.csv","","null","resources/maskTrios/BT2B.jpg","null","",NA,NA,NA,NA,""
"image-keyboard-response",479,365711,"0.0-4.155-2.155","dn41v8te4g39rnz",979,"157.csv","","null","resources/images/fishbone.png","null","",NA,NA,NA,NA,""
"image-keyboard-response",480,366080,"0.0-4.156-0.156","dn41v8te4g39rnz",979,"157.csv","","367","resources/trios/L4T2A2.jpg","39","restless",0.8,0.7,0.4,0.175598557460497,"true"
"image-keyboard-response",481,366509,"0.0-4.156-1.156","dn41v8te4g39rnz",979,"157.csv","","null","resources/maskTrios/BBA2.jpg","null","",NA,NA,NA,NA,""
"image-keyboard-response",482,367720,"0.0-4.156-2.156","dn41v8te4g39rnz",979,"157.csv","","null","resources/images/coin2.png","null","",NA,NA,NA,NA,""
"image-keyboard-response",483,368187,"0.0-4.157-0.157","dn41v8te4g39rnz",979,"157.csv","","468","resources/trios/L4T2A2.jpg","37","restless",0.8,0.7,0.4,0.113196639861379,"true"
"image-keyboard-response",484,368595,"0.0-4.157-1.157","dn41v8te4g39rnz",979,"157.csv","","null","resources/maskTrios/L4BB.jpg","null","",NA,NA,NA,NA,""
"image-keyboard-response",485,369809,"0.0-4.157-2.157","dn41v8te4g39rnz",979,"157.csv","","null","resources/images/coin2.png","null","",NA,NA,NA,NA,""
"image-keyboard-response",486,370223,"0.0-4.158-0.158","dn41v8te4g39rnz",979,"157.csv","","413","resources/trios/L4T2A2.jpg","38","restless",0.8,0.7,0.4,0.121103846736731,"true"
"image-keyboard-response",487,370639,"0.0-4.158-1.158","dn41v8te4g39rnz",979,"157.csv","","null","resources/maskTrios/BT2B.jpg","null","",NA,NA,NA,NA,""
"image-keyboard-response",488,371851,"0.0-4.158-2.158","dn41v8te4g39rnz",979,"157.csv","","null","resources/images/coin2.png","null","",NA,NA,NA,NA,""
"image-keyboard-response",489,372266,"0.0-4.159-0.159","dn41v8te4g39rnz",979,"157.csv","","414","resources/trios/L4T2A2.jpg","37","restless",0.8,0.7,0.4,0.315236961707622,"true"
"image-keyboard-response",490,372678,"0.0-4.159-1.159","dn41v8te4g39rnz",979,"157.csv","","null","resources/maskTrios/L4BB.jpg","null","",NA,NA,NA,NA,""
"image-keyboard-response",491,373893,"0.0-4.159-2.159","dn41v8te4g39rnz",979,"157.csv","","null","resources/images/coin2.png","null","",NA,NA,NA,NA,""
"image-keyboard-response",492,374966,"0.0-4.160-0.160","dn41v8te4g39rnz",979,"157.csv","","1071","resources/trios/L4T2A2.jpg","38","restless",0.8,0.7,0.3,0.139720229026779,"true"
"image-keyboard-response",493,375367,"0.0-4.160-1.160","dn41v8te4g39rnz",979,"157.csv","","null","resources/maskTrios/BT2B.jpg","null","",NA,NA,NA,NA,""
"image-keyboard-response",494,376581,"0.0-4.160-2.160","dn41v8te4g39rnz",979,"157.csv","","null","resources/images/coin2.png","null","",NA,NA,NA,NA,""
"image-keyboard-response",495,376785,"0.0-4.161-0.161","dn41v8te4g39rnz",979,"157.csv","","204","resources/trios/L4T2A2.jpg","39","restless",0.8,0.7,0.2,0.618771763454346,"false"
"image-keyboard-response",496,377196,"0.0-4.161-1.161","dn41v8te4g39rnz",979,"157.csv","","null","resources/maskTrios/BBA2.jpg","null","",NA,NA,NA,NA,""
"image-keyboard-response",497,378408,"0.0-4.161-2.161","dn41v8te4g39rnz",979,"157.csv","","null","resources/images/fishbone.png","null","",NA,NA,NA,NA,""
"image-keyboard-response",498,378562,"0.0-4.162-0.162","dn41v8te4g39rnz",979,"157.csv","","155","resources/trios/L4T2A2.jpg","38","restless",0.8,0.7,0.2,0.402745897965057,"true"
"image-keyboard-response",499,378975,"0.0-4.162-1.162","dn41v8te4g39rnz",979,"157.csv","","null","resources/maskTrios/BT2B.jpg","null","",NA,NA,NA,NA,""
"image-keyboard-response",500,380186,"0.0-4.162-2.162","dn41v8te4g39rnz",979,"157.csv","","null","resources/images/coin2.png","null","",NA,NA,NA,NA,""
"image-keyboard-response",501,380449,"0.0-4.163-0.163","dn41v8te4g39rnz",979,"157.csv","","263","resources/trios/L4T2A2.jpg","37","restless",0.8,0.7,0.1,0.0416904143757851,"true"
"image-keyboard-response",502,380862,"0.0-4.163-1.163","dn41v8te4g39rnz",979,"157.csv","","null","resources/maskTrios/L4BB.jpg","null","",NA,NA,NA,NA,""
"image-keyboard-response",503,382198,"0.0-4.163-2.163","dn41v8te4g39rnz",979,"157.csv","","null","resources/images/coin2.png","null","",NA,NA,NA,NA,""
"image-keyboard-response",504,382376,"0.0-4.164-0.164","dn41v8te4g39rnz",979,"157.csv","","177","resources/trios/L4T2A2.jpg","39","restless",0.7,0.7,0.1,0.00515065558470906,"true"
"image-keyboard-response",505,382781,"0.0-4.164-1.164","dn41v8te4g39rnz",979,"157.csv","","null","resources/maskTrios/BBA2.jpg","null","",NA,NA,NA,NA,""
"image-keyboard-response",506,383994,"0.0-4.164-2.164","dn41v8te4g39rnz",979,"157.csv","","null","resources/images/coin2.png","null","",NA,NA,NA,NA,""
"image-keyboard-response",507,384168,"0.0-4.165-0.165","dn41v8te4g39rnz",979,"157.csv","","174","resources/trios/L4T2A2.jpg","38","restless",0.7,0.7,0.1,0.344531651039674,"true"
"image-keyboard-response",508,384578,"0.0-4.165-1.165","dn41v8te4g39rnz",979,"157.csv","","null","resources/maskTrios/BT2B.jpg","null","",NA,NA,NA,NA,""
"image-keyboard-response",509,385789,"0.0-4.165-2.165","dn41v8te4g39rnz",979,"157.csv","","null","resources/images/coin2.png","null","",NA,NA,NA,NA,""
"image-keyboard-response",510,386113,"0.0-4.166-0.166","dn41v8te4g39rnz",979,"157.csv","","323","resources/trios/L4T2A2.jpg","39","restless",0.7,0.7,0.1,0.713994080170819,"false"
"image-keyboard-response",511,386526,"0.0-4.166-1.166","dn41v8te4g39rnz",979,"157.csv","","null","resources/maskTrios/BBA2.jpg","null","",NA,NA,NA,NA,""
"image-keyboard-response",512,387740,"0.0-4.166-2.166","dn41v8te4g39rnz",979,"157.csv","","null","resources/images/fishbone.png","null","",NA,NA,NA,NA,""
"image-keyboard-response",513,387957,"0.0-4.167-0.167","dn41v8te4g39rnz",979,"157.csv","","216","resources/trios/L4T2A2.jpg","37","restless",0.7,0.8,0.1,0.543205454733799,"true"
"image-keyboard-response",514,388369,"0.0-4.167-1.167","dn41v8te4g39rnz",979,"157.csv","","null","resources/maskTrios/L4BB.jpg","null","",NA,NA,NA,NA,""
"image-keyboard-response",515,389583,"0.0-4.167-2.167","dn41v8te4g39rnz",979,"157.csv","","null","resources/images/coin2.png","null","",NA,NA,NA,NA,""
"image-keyboard-response",516,389855,"0.0-4.168-0.168","dn41v8te4g39rnz",979,"157.csv","","273","resources/trios/L4T2A2.jpg","38","restless",0.7,0.7,0.2,0.633936146438883,"true"
"image-keyboard-response",517,390259,"0.0-4.168-1.168","dn41v8te4g39rnz",979,"157.csv","","null","resources/maskTrios/BT2B.jpg","null","",NA,NA,NA,NA,""
"image-keyboard-response",518,391593,"0.0-4.168-2.168","dn41v8te4g39rnz",979,"157.csv","","null","resources/images/coin2.png","null","",NA,NA,NA,NA,""
"image-keyboard-response",519,391850,"0.0-4.169-0.169","dn41v8te4g39rnz",979,"157.csv","","256","resources/trios/L4T2A2.jpg","37","restless",0.7,0.7,0.2,0.216582429298204,"true"
"image-keyboard-response",520,392253,"0.0-4.169-1.169","dn41v8te4g39rnz",979,"157.csv","","null","resources/maskTrios/L4BB.jpg","null","",NA,NA,NA,NA,""
"image-keyboard-response",521,393467,"0.0-4.169-2.169","dn41v8te4g39rnz",979,"157.csv","","null","resources/images/coin2.png","null","",NA,NA,NA,NA,""
"image-keyboard-response",522,393785,"0.0-4.170-0.170","dn41v8te4g39rnz",979,"157.csv","","318","resources/trios/L4T2A2.jpg","38","restless",0.7,0.7,0.2,0.552105358934862,"true"
"image-keyboard-response",523,394188,"0.0-4.170-1.170","dn41v8te4g39rnz",979,"157.csv","","null","resources/maskTrios/BT2B.jpg","null","",NA,NA,NA,NA,""
"image-keyboard-response",524,395401,"0.0-4.170-2.170","dn41v8te4g39rnz",979,"157.csv","","null","resources/images/coin2.png","null","",NA,NA,NA,NA,""
"image-keyboard-response",525,395753,"0.0-4.171-0.171","dn41v8te4g39rnz",979,"157.csv","","350","resources/trios/L4T2A2.jpg","39","restless",0.7,0.8,0.2,0.15136892949157,"true"
"image-keyboard-response",526,396154,"0.0-4.171-1.171","dn41v8te4g39rnz",979,"157.csv","","null","resources/maskTrios/BBA2.jpg","null","",NA,NA,NA,NA,""
"image-keyboard-response",527,397365,"0.0-4.171-2.171","dn41v8te4g39rnz",979,"157.csv","","null","resources/images/coin2.png","null","",NA,NA,NA,NA,""
"image-keyboard-response",528,398245,"0.0-4.172-0.172","dn41v8te4g39rnz",979,"157.csv","","878","resources/trios/L4T2A2.jpg","37","restless",0.7,0.8,0.2,0.484913773900747,"true"
"image-keyboard-response",529,398652,"0.0-4.172-1.172","dn41v8te4g39rnz",979,"157.csv","","null","resources/maskTrios/L4BB.jpg","null","",NA,NA,NA,NA,""
"image-keyboard-response",530,399865,"0.0-4.172-2.172","dn41v8te4g39rnz",979,"157.csv","","null","resources/images/coin2.png","null","",NA,NA,NA,NA,""
"image-keyboard-response",531,400655,"0.0-4.173-0.173","dn41v8te4g39rnz",979,"157.csv","","790","resources/trios/L4T2A2.jpg","38","restless",0.7,0.8,0.2,0.76638622477064,"true"
"image-keyboard-response",532,401064,"0.0-4.173-1.173","dn41v8te4g39rnz",979,"157.csv","","null","resources/maskTrios/BT2B.jpg","null","",NA,NA,NA,NA,""
"image-keyboard-response",533,402277,"0.0-4.173-2.173","dn41v8te4g39rnz",979,"157.csv","","null","resources/images/coin2.png","null","",NA,NA,NA,NA,""
"image-keyboard-response",534,402540,"0.0-4.174-0.174","dn41v8te4g39rnz",979,"157.csv","","264","resources/trios/L4T2A2.jpg","39","restless",0.7,0.8,0.2,0.584276569873971,"false"
"image-keyboard-response",535,402952,"0.0-4.174-1.174","dn41v8te4g39rnz",979,"157.csv","","null","resources/maskTrios/BBA2.jpg","null","",NA,NA,NA,NA,""
"image-keyboard-response",536,404164,"0.0-4.174-2.174","dn41v8te4g39rnz",979,"157.csv","","null","resources/images/fishbone.png","null","",NA,NA,NA,NA,""
"image-keyboard-response",537,404433,"0.0-4.175-0.175","dn41v8te4g39rnz",979,"157.csv","","268","resources/trios/L4T2A2.jpg","39","restless",0.7,0.8,0.2,0.24219663211547,"false"
"image-keyboard-response",538,404841,"0.0-4.175-1.175","dn41v8te4g39rnz",979,"157.csv","","null","resources/maskTrios/BBA2.jpg","null","",NA,NA,NA,NA,""
"image-keyboard-response",539,406054,"0.0-4.175-2.175","dn41v8te4g39rnz",979,"157.csv","","null","resources/images/fishbone.png","null","",NA,NA,NA,NA,""
"image-keyboard-response",540,406321,"0.0-4.176-0.176","dn41v8te4g39rnz",979,"157.csv","","266","resources/trios/L4T2A2.jpg","39","restless",0.7,0.8,0.2,0.236528278227289,"false"
"image-keyboard-response",541,406729,"0.0-4.176-1.176","dn41v8te4g39rnz",979,"157.csv","","null","resources/maskTrios/BBA2.jpg","null","",NA,NA,NA,NA,""
"image-keyboard-response",542,407958,"0.0-4.176-2.176","dn41v8te4g39rnz",979,"157.csv","","null","resources/images/fishbone.png","null","",NA,NA,NA,NA,""
"image-keyboard-response",543,408104,"0.0-4.177-0.177","dn41v8te4g39rnz",979,"157.csv","","145","resources/trios/L4T2A2.jpg","38","restless",0.7,0.8,0.2,0.688160577348754,"true"
"image-keyboard-response",544,408510,"0.0-4.177-1.177","dn41v8te4g39rnz",979,"157.csv","","null","resources/maskTrios/BT2B.jpg","null","",NA,NA,NA,NA,""
"image-keyboard-response",545,409725,"0.0-4.177-2.177","dn41v8te4g39rnz",979,"157.csv","","null","resources/images/coin2.png","null","",NA,NA,NA,NA,""
"image-keyboard-response",546,409980,"0.0-4.178-0.178","dn41v8te4g39rnz",979,"157.csv","","256","resources/trios/L4T2A2.jpg","37","restless",0.7,0.7,0.2,0.109606372230405,"true"
"image-keyboard-response",547,410385,"0.0-4.178-1.178","dn41v8te4g39rnz",979,"157.csv","","null","resources/maskTrios/L4BB.jpg","null","",NA,NA,NA,NA,""
"image-keyboard-response",548,411599,"0.0-4.178-2.178","dn41v8te4g39rnz",979,"157.csv","","null","resources/images/coin2.png","null","",NA,NA,NA,NA,""
"image-keyboard-response",549,411845,"0.0-4.179-0.179","dn41v8te4g39rnz",979,"157.csv","","246","resources/trios/L4T2A2.jpg","39","restless",0.7,0.7,0.2,0.272340553196862,"false"
"image-keyboard-response",550,412259,"0.0-4.179-1.179","dn41v8te4g39rnz",979,"157.csv","","null","resources/maskTrios/BBA2.jpg","null","",NA,NA,NA,NA,""
"image-keyboard-response",551,413476,"0.0-4.179-2.179","dn41v8te4g39rnz",979,"157.csv","","null","resources/images/fishbone.png","null","",NA,NA,NA,NA,""
"image-keyboard-response",552,413729,"0.0-4.180-0.180","dn41v8te4g39rnz",979,"157.csv","","254","resources/trios/L4T2A2.jpg","37","restless",0.7,0.7,0.2,0.780750341593566,"false"
"image-keyboard-response",553,414134,"0.0-4.180-1.180","dn41v8te4g39rnz",979,"157.csv","","null","resources/maskTrios/L4BB.jpg","null","",NA,NA,NA,NA,""
"image-keyboard-response",554,415347,"0.0-4.180-2.180","dn41v8te4g39rnz",979,"157.csv","","null","resources/images/fishbone.png","null","",NA,NA,NA,NA,""
"image-keyboard-response",555,415799,"0.0-4.181-0.181","dn41v8te4g39rnz",979,"157.csv","","453","resources/trios/L4T2A2.jpg","39","restless",0.7,0.6,0.2,0.264169504025615,"false"
"image-keyboard-response",556,416206,"0.0-4.181-1.181","dn41v8te4g39rnz",979,"157.csv","","null","resources/maskTrios/BBA2.jpg","null","",NA,NA,NA,NA,""
"image-keyboard-response",557,417418,"0.0-4.181-2.181","dn41v8te4g39rnz",979,"157.csv","","null","resources/images/fishbone.png","null","",NA,NA,NA,NA,""
"image-keyboard-response",558,417585,"0.0-4.182-0.182","dn41v8te4g39rnz",979,"157.csv","","165","resources/trios/L4T2A2.jpg","38","restless",0.7,0.6,0.2,0.35698137155906,"true"
"image-keyboard-response",559,417986,"0.0-4.182-1.182","dn41v8te4g39rnz",979,"157.csv","","null","resources/maskTrios/BT2B.jpg","null","",NA,NA,NA,NA,""
"image-keyboard-response",560,419196,"0.0-4.182-2.182","dn41v8te4g39rnz",979,"157.csv","","null","resources/images/coin2.png","null","",NA,NA,NA,NA,""
"image-keyboard-response",561,420120,"0.0-4.183-0.183","dn41v8te4g39rnz",979,"157.csv","","924","resources/trios/L4T2A2.jpg","38","restless",0.7,0.6,0.2,0.748056348870288,"false"
"image-keyboard-response",562,420533,"0.0-4.183-1.183","dn41v8te4g39rnz",979,"157.csv","","null","resources/maskTrios/BT2B.jpg","null","",NA,NA,NA,NA,""
"image-keyboard-response",563,421747,"0.0-4.183-2.183","dn41v8te4g39rnz",979,"157.csv","","null","resources/images/fishbone.png","null","",NA,NA,NA,NA,""
"image-keyboard-response",564,422089,"0.0-4.184-0.184","dn41v8te4g39rnz",979,"157.csv","","341","resources/trios/L4T2A2.jpg","37","restless",0.7,0.6,0.2,0.487689049260962,"true"
"image-keyboard-response",565,422500,"0.0-4.184-1.184","dn41v8te4g39rnz",979,"157.csv","","null","resources/maskTrios/L4BB.jpg","null","",NA,NA,NA,NA,""
"image-keyboard-response",566,423760,"0.0-4.184-2.184","dn41v8te4g39rnz",979,"157.csv","","null","resources/images/coin2.png","null","",NA,NA,NA,NA,""
"image-keyboard-response",567,424117,"0.0-4.185-0.185","dn41v8te4g39rnz",979,"157.csv","","357","resources/trios/L4T2A2.jpg","38","restless",0.7,0.6,0.2,0.123282341978227,"true"
"image-keyboard-response",568,424526,"0.0-4.185-1.185","dn41v8te4g39rnz",979,"157.csv","","null","resources/maskTrios/BT2B.jpg","null","",NA,NA,NA,NA,""
"image-keyboard-response",569,425784,"0.0-4.185-2.185","dn41v8te4g39rnz",979,"157.csv","","null","resources/images/coin2.png","null","",NA,NA,NA,NA,""
"image-keyboard-response",570,426023,"0.0-4.186-0.186","dn41v8te4g39rnz",979,"157.csv","","239","resources/trios/L4T2A2.jpg","37","restless",0.7,0.6,0.2,0.0906112249711973,"true"
"image-keyboard-response",571,426427,"0.0-4.186-1.186","dn41v8te4g39rnz",979,"157.csv","","null","resources/maskTrios/L4BB.jpg","null","",NA,NA,NA,NA,""
"image-keyboard-response",572,427638,"0.0-4.186-2.186","dn41v8te4g39rnz",979,"157.csv","","null","resources/images/coin2.png","null","",NA,NA,NA,NA,""
"image-keyboard-response",573,427954,"0.0-4.187-0.187","dn41v8te4g39rnz",979,"157.csv","","316","resources/trios/L4T2A2.jpg","39","restless",0.7,0.6,0.2,0.49719055253522,"false"
"image-keyboard-response",574,428358,"0.0-4.187-1.187","dn41v8te4g39rnz",979,"157.csv","","null","resources/maskTrios/BBA2.jpg","null","",NA,NA,NA,NA,""
"image-keyboard-response",575,429568,"0.0-4.187-2.187","dn41v8te4g39rnz",979,"157.csv","","null","resources/images/fishbone.png","null","",NA,NA,NA,NA,""
"image-keyboard-response",576,429773,"0.0-4.188-0.188","dn41v8te4g39rnz",979,"157.csv","","205","resources/trios/L4T2A2.jpg","38","restless",0.7,0.6,0.2,0.394460714506951,"true"
"image-keyboard-response",577,430183,"0.0-4.188-1.188","dn41v8te4g39rnz",979,"157.csv","","null","resources/maskTrios/BT2B.jpg","null","",NA,NA,NA,NA,""
"image-keyboard-response",578,431397,"0.0-4.188-2.188","dn41v8te4g39rnz",979,"157.csv","","null","resources/images/coin2.png","null","",NA,NA,NA,NA,""
"image-keyboard-response",579,431645,"0.0-4.189-0.189","dn41v8te4g39rnz",979,"157.csv","","247","resources/trios/L4T2A2.jpg","37","restless",0.7,0.6,0.2,0.859201611660884,"false"
"image-keyboard-response",580,432056,"0.0-4.189-1.189","dn41v8te4g39rnz",979,"157.csv","","null","resources/maskTrios/L4BB.jpg","null","",NA,NA,NA,NA,""
"image-keyboard-response",581,433268,"0.0-4.189-2.189","dn41v8te4g39rnz",979,"157.csv","","null","resources/images/fishbone.png","null","",NA,NA,NA,NA,""
"image-keyboard-response",582,433570,"0.0-4.190-0.190","dn41v8te4g39rnz",979,"157.csv","","301","resources/trios/L4T2A2.jpg","39","restless",0.7,0.6,0.2,0.427315087479544,"false"
"image-keyboard-response",583,433974,"0.0-4.190-1.190","dn41v8te4g39rnz",979,"157.csv","","null","resources/maskTrios/BBA2.jpg","null","",NA,NA,NA,NA,""
"image-keyboard-response",584,435275,"0.0-4.190-2.190","dn41v8te4g39rnz",979,"157.csv","","null","resources/images/fishbone.png","null","",NA,NA,NA,NA,""
"image-keyboard-response",585,435920,"0.0-4.191-0.191","dn41v8te4g39rnz",979,"157.csv","","644","resources/trios/L4T2A2.jpg","38","restless",0.7,0.6,0.2,0.197669057590828,"true"
"image-keyboard-response",586,436334,"0.0-4.191-1.191","dn41v8te4g39rnz",979,"157.csv","","null","resources/maskTrios/BT2B.jpg","null","",NA,NA,NA,NA,""
"image-keyboard-response",587,437549,"0.0-4.191-2.191","dn41v8te4g39rnz",979,"157.csv","","null","resources/images/coin2.png","null","",NA,NA,NA,NA,""
"image-keyboard-response",588,437955,"0.0-4.192-0.192","dn41v8te4g39rnz",979,"157.csv","","406","resources/trios/L4T2A2.jpg","38","restless",0.7,0.6,0.2,0.279791662215352,"true"
"image-keyboard-response",589,438363,"0.0-4.192-1.192","dn41v8te4g39rnz",979,"157.csv","","null","resources/maskTrios/BT2B.jpg","null","",NA,NA,NA,NA,""
"image-keyboard-response",590,439574,"0.0-4.192-2.192","dn41v8te4g39rnz",979,"157.csv","","null","resources/images/coin2.png","null","",NA,NA,NA,NA,""
"image-keyboard-response",591,440359,"0.0-4.193-0.193","dn41v8te4g39rnz",979,"157.csv","","785","resources/trios/L4T2A2.jpg","38","restless",0.7,0.6,0.2,0.118192788113858,"true"
"image-keyboard-response",592,440769,"0.0-4.193-1.193","dn41v8te4g39rnz",979,"157.csv","","null","resources/maskTrios/BT2B.jpg","null","",NA,NA,NA,NA,""
"image-keyboard-response",593,441981,"0.0-4.193-2.193","dn41v8te4g39rnz",979,"157.csv","","null","resources/images/coin2.png","null","",NA,NA,NA,NA,""
"image-keyboard-response",594,442427,"0.0-4.194-0.194","dn41v8te4g39rnz",979,"157.csv","","446","resources/trios/L4T2A2.jpg","38","restless",0.7,0.5,0.2,0.0883248598832242,"true"
"image-keyboard-response",595,442842,"0.0-4.194-1.194","dn41v8te4g39rnz",979,"157.csv","","null","resources/maskTrios/BT2B.jpg","null","",NA,NA,NA,NA,""
"image-keyboard-response",596,444054,"0.0-4.194-2.194","dn41v8te4g39rnz",979,"157.csv","","null","resources/images/coin2.png","null","",NA,NA,NA,NA,""
"image-keyboard-response",597,444397,"0.0-4.195-0.195","dn41v8te4g39rnz",979,"157.csv","","343","resources/trios/L4T2A2.jpg","37","restless",0.7,0.5,0.2,0.298727736557878,"true"
"image-keyboard-response",598,444806,"0.0-4.195-1.195","dn41v8te4g39rnz",979,"157.csv","","null","resources/maskTrios/L4BB.jpg","null","",NA,NA,NA,NA,""
"image-keyboard-response",599,446065,"0.0-4.195-2.195","dn41v8te4g39rnz",979,"157.csv","","null","resources/images/coin2.png","null","",NA,NA,NA,NA,""
"image-keyboard-response",600,446849,"0.0-4.196-0.196","dn41v8te4g39rnz",979,"157.csv","","782","resources/trios/L4T2A2.jpg","37","restless",0.6,0.5,0.2,0.112634086819751,"true"
"image-keyboard-response",601,447263,"0.0-4.196-1.196","dn41v8te4g39rnz",979,"157.csv","","null","resources/maskTrios/L4BB.jpg","null","",NA,NA,NA,NA,""
"image-keyboard-response",602,448463,"0.0-4.196-2.196","dn41v8te4g39rnz",979,"157.csv","","null","resources/images/coin2.png","null","",NA,NA,NA,NA,""
"image-keyboard-response",603,448937,"0.0-4.197-0.197","dn41v8te4g39rnz",979,"157.csv","","473","resources/trios/L4T2A2.jpg","39","restless",0.6,0.5,0.2,0.20111204921268,"false"
"image-keyboard-response",604,449340,"0.0-4.197-1.197","dn41v8te4g39rnz",979,"157.csv","","null","resources/maskTrios/BBA2.jpg","null","",NA,NA,NA,NA,""
"image-keyboard-response",605,450550,"0.0-4.197-2.197","dn41v8te4g39rnz",979,"157.csv","","null","resources/images/fishbone.png","null","",NA,NA,NA,NA,""
"image-keyboard-response",606,450962,"0.0-4.198-0.198","dn41v8te4g39rnz",979,"157.csv","","412","resources/trios/L4T2A2.jpg","37","restless",0.6,0.5,0.2,0.508510229648495,"true"
"image-keyboard-response",607,451377,"0.0-4.198-1.198","dn41v8te4g39rnz",979,"157.csv","","null","resources/maskTrios/L4BB.jpg","null","",NA,NA,NA,NA,""
"image-keyboard-response",608,452592,"0.0-4.198-2.198","dn41v8te4g39rnz",979,"157.csv","","null","resources/images/coin2.png","null","",NA,NA,NA,NA,""
"image-keyboard-response",609,453069,"0.0-4.199-0.199","dn41v8te4g39rnz",979,"157.csv","","477","resources/trios/L4T2A2.jpg","37","restless",0.6,0.5,0.2,0.285677567210879,"true"
"image-keyboard-response",610,453469,"0.0-4.199-1.199","dn41v8te4g39rnz",979,"157.csv","","null","resources/maskTrios/L4BB.jpg","null","",NA,NA,NA,NA,""
"image-keyboard-response",611,454683,"0.0-4.199-2.199","dn41v8te4g39rnz",979,"157.csv","","null","resources/images/coin2.png","null","",NA,NA,NA,NA,""
"survey-text",612,639172,"0.0-5.0","dn41v8te4g39rnz",979,"157.csv","","184483","","","",NA,NA,NA,NA,""
