"trial_type","trial_index","time_elapsed","internal_node_id","subject","participantCode","walkNumber","success","rt","stimulus","key_press","test_part","leftProb","midProb","rightProb","generatedNum","correct"
"pavlovia",0,1022,"0.0-0.0","uwxv6k3egpqexz3",258,"118.csv","","","","","",NA,NA,NA,NA,""
"fullscreen",1,4911,"0.0-1.0","uwxv6k3egpqexz3",258,"118.csv","true","","","","",NA,NA,NA,NA,""
"survey-html-form",2,19175,"0.0-2.0","uwxv6k3egpqexz3",258,"118.csv","","14262.199999928474","","","",NA,NA,NA,NA,""
"image-keyboard-response",3,43472,"0.0-3.0-0.0","uwxv6k3egpqexz3",258,"118.csv","","24296.399999976158","resources/images/parrot_nobg.png","13","",NA,NA,NA,NA,""
"image-keyboard-response",4,46475,"0.0-3.0-1.0","uwxv6k3egpqexz3",258,"118.csv","","null","resources/image_sets/111.png","null","",NA,NA,NA,NA,""
"image-keyboard-response",5,50416,"0.0-3.0-2.0","uwxv6k3egpqexz3",258,"118.csv","","3940.7000000476837","resources/image_sets/left_highlight.png","37","",NA,NA,NA,NA,""
"image-keyboard-response",6,52296,"0.0-3.0-3.0","uwxv6k3egpqexz3",258,"118.csv","","1879.3000000715256","resources/image_sets/mid_highlight.png","38","",NA,NA,NA,NA,""
"image-keyboard-response",7,53591,"0.0-3.0-4.0","uwxv6k3egpqexz3",258,"118.csv","","1294.6000000238419","resources/image_sets/right_highlight.png","39","",NA,NA,NA,NA,""
"image-keyboard-response",8,56744,"0.0-3.0-5.0","uwxv6k3egpqexz3",258,"118.csv","","3152","resources/image_sets/111.png","13","",NA,NA,NA,NA,""
"image-keyboard-response",9,59335,"0.0-3.0-6.0","uwxv6k3egpqexz3",258,"118.csv","","2591.399999976158","resources/images/coin2.png","13","",NA,NA,NA,NA,""
"image-keyboard-response",10,61704,"0.0-3.0-7.0","uwxv6k3egpqexz3",258,"118.csv","","2367.8000000715256","resources/images/fishbone.png","13","",NA,NA,NA,NA,""
"html-keyboard-response",11,65647,"0.0-3.0-8.0","uwxv6k3egpqexz3",258,"118.csv","","3942.6999999284744","<p>You can track your coin total on the top right of your screen. </p><p>At the end of your journey you will be directed to a survey, so please click on the link before exiting the task</p><p>Press Enter to begin</p>","13","",NA,NA,NA,NA,""
"image-keyboard-response",12,69767,"0.0-4.0-0.0","uwxv6k3egpqexz3",258,"118.csv","","4118.600000023842","resources/trios/L4T2A2.jpg","38","restless",0.3,0.9,0.7,0.531382427570955,"true"
"image-keyboard-response",13,70173,"0.0-4.0-1.0","uwxv6k3egpqexz3",258,"118.csv","","null","resources/maskTrios/BT2B.jpg","null","",NA,NA,NA,NA,""
"image-keyboard-response",14,71377,"0.0-4.0-2.0","uwxv6k3egpqexz3",258,"118.csv","","null","resources/images/coin2.png","null","",NA,NA,NA,NA,""
"image-keyboard-response",15,74559,"0.0-4.1-0.1","uwxv6k3egpqexz3",258,"118.csv","","3180.600000023842","resources/trios/L4T2A2.jpg","37","restless",0.2,0.9,0.7,0.0753893280292826,"true"
"image-keyboard-response",16,74972,"0.0-4.1-1.1","uwxv6k3egpqexz3",258,"118.csv","","null","resources/maskTrios/L4BB.jpg","null","",NA,NA,NA,NA,""
"image-keyboard-response",17,76178,"0.0-4.1-2.1","uwxv6k3egpqexz3",258,"118.csv","","null","resources/images/coin2.png","null","",NA,NA,NA,NA,""
"image-keyboard-response",18,77470,"0.0-4.2-0.2","uwxv6k3egpqexz3",258,"118.csv","","1291.7999999523163","resources/trios/L4T2A2.jpg","39","restless",0.2,0.9,0.7,0.21917924321965,"true"
"image-keyboard-response",19,77875,"0.0-4.2-1.2","uwxv6k3egpqexz3",258,"118.csv","","null","resources/maskTrios/BBA2.jpg","null","",NA,NA,NA,NA,""
"image-keyboard-response",20,79085,"0.0-4.2-2.2","uwxv6k3egpqexz3",258,"118.csv","","null","resources/images/coin2.png","null","",NA,NA,NA,NA,""
"image-keyboard-response",21,79726,"0.0-4.3-0.3","uwxv6k3egpqexz3",258,"118.csv","","641.2000000476837","resources/trios/L4T2A2.jpg","38","restless",0.2,0.9,0.7,0.82516145907795,"true"
"image-keyboard-response",22,80142,"0.0-4.3-1.3","uwxv6k3egpqexz3",258,"118.csv","","null","resources/maskTrios/BT2B.jpg","null","",NA,NA,NA,NA,""
"image-keyboard-response",23,81352,"0.0-4.3-2.3","uwxv6k3egpqexz3",258,"118.csv","","null","resources/images/coin2.png","null","",NA,NA,NA,NA,""
"image-keyboard-response",24,86223,"0.0-4.4-0.4","uwxv6k3egpqexz3",258,"118.csv","","4870","resources/trios/L4T2A2.jpg","37","restless",0.2,0.9,0.7,0.0383411230405408,"true"
"image-keyboard-response",25,86638,"0.0-4.4-1.4","uwxv6k3egpqexz3",258,"118.csv","","null","resources/maskTrios/L4BB.jpg","null","",NA,NA,NA,NA,""
"image-keyboard-response",26,87845,"0.0-4.4-2.4","uwxv6k3egpqexz3",258,"118.csv","","null","resources/images/coin2.png","null","",NA,NA,NA,NA,""
"image-keyboard-response",27,88406,"0.0-4.5-0.5","uwxv6k3egpqexz3",258,"118.csv","","560.8999999761581","resources/trios/L4T2A2.jpg","39","restless",0.2,0.9,0.7,0.614695534921373,"true"
"image-keyboard-response",28,88819,"0.0-4.5-1.5","uwxv6k3egpqexz3",258,"118.csv","","null","resources/maskTrios/BBA2.jpg","null","",NA,NA,NA,NA,""
"image-keyboard-response",29,90032,"0.0-4.5-2.5","uwxv6k3egpqexz3",258,"118.csv","","null","resources/images/coin2.png","null","",NA,NA,NA,NA,""
"image-keyboard-response",30,90550,"0.0-4.6-0.6","uwxv6k3egpqexz3",258,"118.csv","","518","resources/trios/L4T2A2.jpg","38","restless",0.2,0.9,0.7,0.0009567514705906,"true"
"image-keyboard-response",31,90961,"0.0-4.6-1.6","uwxv6k3egpqexz3",258,"118.csv","","null","resources/maskTrios/BT2B.jpg","null","",NA,NA,NA,NA,""
"image-keyboard-response",32,92178,"0.0-4.6-2.6","uwxv6k3egpqexz3",258,"118.csv","","null","resources/images/coin2.png","null","",NA,NA,NA,NA,""
"image-keyboard-response",33,92958,"0.0-4.7-0.7","uwxv6k3egpqexz3",258,"118.csv","","780","resources/trios/L4T2A2.jpg","37","restless",0.2,0.9,0.7,0.00966598991332757,"true"
"image-keyboard-response",34,93373,"0.0-4.7-1.7","uwxv6k3egpqexz3",258,"118.csv","","null","resources/maskTrios/L4BB.jpg","null","",NA,NA,NA,NA,""
"image-keyboard-response",35,94584,"0.0-4.7-2.7","uwxv6k3egpqexz3",258,"118.csv","","null","resources/images/coin2.png","null","",NA,NA,NA,NA,""
"image-keyboard-response",36,96150,"0.0-4.8-0.8","uwxv6k3egpqexz3",258,"118.csv","","1565.1999999284744","resources/trios/L4T2A2.jpg","37","restless",0.2,0.9,0.7,0.795214313309212,"false"
"image-keyboard-response",37,96556,"0.0-4.8-1.8","uwxv6k3egpqexz3",258,"118.csv","","null","resources/maskTrios/L4BB.jpg","null","",NA,NA,NA,NA,""
"image-keyboard-response",38,97767,"0.0-4.8-2.8","uwxv6k3egpqexz3",258,"118.csv","","null","resources/images/fishbone.png","null","",NA,NA,NA,NA,""
"image-keyboard-response",39,99142,"0.0-4.9-0.9","uwxv6k3egpqexz3",258,"118.csv","","1374.6999999284744","resources/trios/L4T2A2.jpg","38","restless",0.2,0.9,0.7,0.220889546812169,"true"
"image-keyboard-response",40,99555,"0.0-4.9-1.9","uwxv6k3egpqexz3",258,"118.csv","","null","resources/maskTrios/BT2B.jpg","null","",NA,NA,NA,NA,""
"image-keyboard-response",41,100770,"0.0-4.9-2.9","uwxv6k3egpqexz3",258,"118.csv","","null","resources/images/coin2.png","null","",NA,NA,NA,NA,""
"image-keyboard-response",42,101526,"0.0-4.10-0.10","uwxv6k3egpqexz3",258,"118.csv","","755.6000000238419","resources/trios/L4T2A2.jpg","37","restless",0.2,0.9,0.7,0.175496095990566,"true"
"image-keyboard-response",43,101935,"0.0-4.10-1.10","uwxv6k3egpqexz3",258,"118.csv","","null","resources/maskTrios/L4BB.jpg","null","",NA,NA,NA,NA,""
"image-keyboard-response",44,103149,"0.0-4.10-2.10","uwxv6k3egpqexz3",258,"118.csv","","null","resources/images/coin2.png","null","",NA,NA,NA,NA,""
"image-keyboard-response",45,103822,"0.0-4.11-0.11","uwxv6k3egpqexz3",258,"118.csv","","672.7999999523163","resources/trios/L4T2A2.jpg","39","restless",0.2,0.8,0.7,0.703261879950992,"false"
"image-keyboard-response",46,104234,"0.0-4.11-1.11","uwxv6k3egpqexz3",258,"118.csv","","null","resources/maskTrios/BBA2.jpg","null","",NA,NA,NA,NA,""
"image-keyboard-response",47,105449,"0.0-4.11-2.11","uwxv6k3egpqexz3",258,"118.csv","","null","resources/images/fishbone.png","null","",NA,NA,NA,NA,""
"image-keyboard-response",48,107342,"0.0-4.12-0.12","uwxv6k3egpqexz3",258,"118.csv","","1892.6000000238419","resources/trios/L4T2A2.jpg","38","restless",0.3,0.8,0.7,0.332390888628695,"true"
"image-keyboard-response",49,107745,"0.0-4.12-1.12","uwxv6k3egpqexz3",258,"118.csv","","null","resources/maskTrios/BT2B.jpg","null","",NA,NA,NA,NA,""
"image-keyboard-response",50,108961,"0.0-4.12-2.12","uwxv6k3egpqexz3",258,"118.csv","","null","resources/images/coin2.png","null","",NA,NA,NA,NA,""
"image-keyboard-response",51,137935,"0.0-4.13-0.13","uwxv6k3egpqexz3",258,"118.csv","","28972.599999904633","resources/trios/L4T2A2.jpg","37","restless",0.3,0.8,0.7,0.194033306607238,"true"
"image-keyboard-response",52,138342,"0.0-4.13-1.13","uwxv6k3egpqexz3",258,"118.csv","","null","resources/maskTrios/L4BB.jpg","null","",NA,NA,NA,NA,""
"image-keyboard-response",53,139544,"0.0-4.13-2.13","uwxv6k3egpqexz3",258,"118.csv","","null","resources/images/coin2.png","null","",NA,NA,NA,NA,""
"image-keyboard-response",54,139975,"0.0-4.14-0.14","uwxv6k3egpqexz3",258,"118.csv","","429.89999997615814","resources/trios/L4T2A2.jpg","39","restless",0.3,0.8,0.6,0.525021091293516,"true"
"image-keyboard-response",55,140381,"0.0-4.14-1.14","uwxv6k3egpqexz3",258,"118.csv","","null","resources/maskTrios/BBA2.jpg","null","",NA,NA,NA,NA,""
"image-keyboard-response",56,141584,"0.0-4.14-2.14","uwxv6k3egpqexz3",258,"118.csv","","null","resources/images/coin2.png","null","",NA,NA,NA,NA,""
"image-keyboard-response",57,142087,"0.0-4.15-0.15","uwxv6k3egpqexz3",258,"118.csv","","501.6999999284744","resources/trios/L4T2A2.jpg","38","restless",0.3,0.8,0.5,0.90291420292779,"false"
"image-keyboard-response",58,142492,"0.0-4.15-1.15","uwxv6k3egpqexz3",258,"118.csv","","null","resources/maskTrios/BT2B.jpg","null","",NA,NA,NA,NA,""
"image-keyboard-response",59,143697,"0.0-4.15-2.15","uwxv6k3egpqexz3",258,"118.csv","","null","resources/images/fishbone.png","null","",NA,NA,NA,NA,""
"image-keyboard-response",60,145870,"0.0-4.16-0.16","uwxv6k3egpqexz3",258,"118.csv","","2172.600000023842","resources/trios/L4T2A2.jpg","37","restless",0.4,0.8,0.5,0.998726522015073,"false"
"image-keyboard-response",61,146280,"0.0-4.16-1.16","uwxv6k3egpqexz3",258,"118.csv","","null","resources/maskTrios/L4BB.jpg","null","",NA,NA,NA,NA,""
"image-keyboard-response",62,147482,"0.0-4.16-2.16","uwxv6k3egpqexz3",258,"118.csv","","null","resources/images/fishbone.png","null","",NA,NA,NA,NA,""
"image-keyboard-response",63,149591,"0.0-4.17-0.17","uwxv6k3egpqexz3",258,"118.csv","","2108.600000023842","resources/trios/L4T2A2.jpg","39","restless",0.4,0.8,0.5,0.302342794255248,"true"
"image-keyboard-response",64,150007,"0.0-4.17-1.17","uwxv6k3egpqexz3",258,"118.csv","","null","resources/maskTrios/BBA2.jpg","null","",NA,NA,NA,NA,""
"image-keyboard-response",65,151212,"0.0-4.17-2.17","uwxv6k3egpqexz3",258,"118.csv","","null","resources/images/coin2.png","null","",NA,NA,NA,NA,""
"image-keyboard-response",66,151879,"0.0-4.18-0.18","uwxv6k3egpqexz3",258,"118.csv","","666.1000000238419","resources/trios/L4T2A2.jpg","39","restless",0.4,0.8,0.5,0.620254322987329,"false"
"image-keyboard-response",67,152292,"0.0-4.18-1.18","uwxv6k3egpqexz3",258,"118.csv","","null","resources/maskTrios/BBA2.jpg","null","",NA,NA,NA,NA,""
"image-keyboard-response",68,153505,"0.0-4.18-2.18","uwxv6k3egpqexz3",258,"118.csv","","null","resources/images/fishbone.png","null","",NA,NA,NA,NA,""
"image-keyboard-response",69,154215,"0.0-4.19-0.19","uwxv6k3egpqexz3",258,"118.csv","","709.0999999046326","resources/trios/L4T2A2.jpg","38","restless",0.5,0.8,0.5,0.421512444489284,"true"
"image-keyboard-response",70,154625,"0.0-4.19-1.19","uwxv6k3egpqexz3",258,"118.csv","","null","resources/maskTrios/BT2B.jpg","null","",NA,NA,NA,NA,""
"image-keyboard-response",71,155834,"0.0-4.19-2.19","uwxv6k3egpqexz3",258,"118.csv","","null","resources/images/coin2.png","null","",NA,NA,NA,NA,""
"image-keyboard-response",72,158158,"0.0-4.20-0.20","uwxv6k3egpqexz3",258,"118.csv","","2323.600000023842","resources/trios/L4T2A2.jpg","37","restless",0.5,0.8,0.5,0.625745842683513,"false"
"image-keyboard-response",73,158572,"0.0-4.20-1.20","uwxv6k3egpqexz3",258,"118.csv","","null","resources/maskTrios/L4BB.jpg","null","",NA,NA,NA,NA,""
"image-keyboard-response",74,159777,"0.0-4.20-2.20","uwxv6k3egpqexz3",258,"118.csv","","null","resources/images/fishbone.png","null","",NA,NA,NA,NA,""
"image-keyboard-response",75,161759,"0.0-4.21-0.21","uwxv6k3egpqexz3",258,"118.csv","","1980.6000000238419","resources/trios/L4T2A2.jpg","38","restless",0.5,0.8,0.5,0.709160305402408,"true"
"image-keyboard-response",76,162172,"0.0-4.21-1.21","uwxv6k3egpqexz3",258,"118.csv","","null","resources/maskTrios/BT2B.jpg","null","",NA,NA,NA,NA,""
"image-keyboard-response",77,163386,"0.0-4.21-2.21","uwxv6k3egpqexz3",258,"118.csv","","null","resources/images/coin2.png","null","",NA,NA,NA,NA,""
"image-keyboard-response",78,164047,"0.0-4.22-0.22","uwxv6k3egpqexz3",258,"118.csv","","660.3999999761581","resources/trios/L4T2A2.jpg","39","restless",0.5,0.8,0.5,0.884185537455646,"false"
"image-keyboard-response",79,164457,"0.0-4.22-1.22","uwxv6k3egpqexz3",258,"118.csv","","null","resources/maskTrios/BBA2.jpg","null","",NA,NA,NA,NA,""
"image-keyboard-response",80,165671,"0.0-4.22-2.22","uwxv6k3egpqexz3",258,"118.csv","","null","resources/images/fishbone.png","null","",NA,NA,NA,NA,""
"image-keyboard-response",81,172598,"0.0-4.23-0.23","uwxv6k3egpqexz3",258,"118.csv","","6926.299999952316","resources/trios/L4T2A2.jpg","39","restless",0.5,0.8,0.5,0.826065290383277,"false"
"image-keyboard-response",82,173001,"0.0-4.23-1.23","uwxv6k3egpqexz3",258,"118.csv","","null","resources/maskTrios/BBA2.jpg","null","",NA,NA,NA,NA,""
"image-keyboard-response",83,174207,"0.0-4.23-2.23","uwxv6k3egpqexz3",258,"118.csv","","null","resources/images/fishbone.png","null","",NA,NA,NA,NA,""
"image-keyboard-response",84,174766,"0.0-4.24-0.24","uwxv6k3egpqexz3",258,"118.csv","","558.5","resources/trios/L4T2A2.jpg","38","restless",0.5,0.8,0.5,0.697144559963983,"true"
"image-keyboard-response",85,175176,"0.0-4.24-1.24","uwxv6k3egpqexz3",258,"118.csv","","null","resources/maskTrios/BT2B.jpg","null","",NA,NA,NA,NA,""
"image-keyboard-response",86,176383,"0.0-4.24-2.24","uwxv6k3egpqexz3",258,"118.csv","","null","resources/images/coin2.png","null","",NA,NA,NA,NA,""
"image-keyboard-response",87,177798,"0.0-4.25-0.25","uwxv6k3egpqexz3",258,"118.csv","","1415","resources/trios/L4T2A2.jpg","37","restless",0.5,0.8,0.5,0.241939014731107,"true"
"image-keyboard-response",88,178204,"0.0-4.25-1.25","uwxv6k3egpqexz3",258,"118.csv","","null","resources/maskTrios/L4BB.jpg","null","",NA,NA,NA,NA,""
"image-keyboard-response",89,179409,"0.0-4.25-2.25","uwxv6k3egpqexz3",258,"118.csv","","null","resources/images/coin2.png","null","",NA,NA,NA,NA,""
"image-keyboard-response",90,190871,"0.0-4.26-0.26","uwxv6k3egpqexz3",258,"118.csv","","11460.699999928474","resources/trios/L4T2A2.jpg","38","restless",0.6,0.8,0.5,0.33575055222459,"true"
"image-keyboard-response",91,191285,"0.0-4.26-1.26","uwxv6k3egpqexz3",258,"118.csv","","null","resources/maskTrios/BT2B.jpg","null","",NA,NA,NA,NA,""
"image-keyboard-response",92,192489,"0.0-4.26-2.26","uwxv6k3egpqexz3",258,"118.csv","","null","resources/images/coin2.png","null","",NA,NA,NA,NA,""
"image-keyboard-response",93,194823,"0.0-4.27-0.27","uwxv6k3egpqexz3",258,"118.csv","","2332.399999976158","resources/trios/L4T2A2.jpg","38","restless",0.6,0.8,0.6,0.757001719930729,"true"
"image-keyboard-response",94,195231,"0.0-4.27-1.27","uwxv6k3egpqexz3",258,"118.csv","","null","resources/maskTrios/BT2B.jpg","null","",NA,NA,NA,NA,""
"image-keyboard-response",95,196440,"0.0-4.27-2.27","uwxv6k3egpqexz3",258,"118.csv","","null","resources/images/coin2.png","null","",NA,NA,NA,NA,""
"image-keyboard-response",96,197463,"0.0-4.28-0.28","uwxv6k3egpqexz3",258,"118.csv","","1022.2999999523163","resources/trios/L4T2A2.jpg","37","restless",0.6,0.8,0.6,0.104254061344602,"true"
"image-keyboard-response",97,197869,"0.0-4.28-1.28","uwxv6k3egpqexz3",258,"118.csv","","null","resources/maskTrios/L4BB.jpg","null","",NA,NA,NA,NA,""
"image-keyboard-response",98,199077,"0.0-4.28-2.28","uwxv6k3egpqexz3",258,"118.csv","","null","resources/images/coin2.png","null","",NA,NA,NA,NA,""
"image-keyboard-response",99,199734,"0.0-4.29-0.29","uwxv6k3egpqexz3",258,"118.csv","","656.8999999761581","resources/trios/L4T2A2.jpg","37","restless",0.6,0.8,0.6,0.46240149918557,"true"
"image-keyboard-response",100,200143,"0.0-4.29-1.29","uwxv6k3egpqexz3",258,"118.csv","","null","resources/maskTrios/L4BB.jpg","null","",NA,NA,NA,NA,""
"image-keyboard-response",101,201347,"0.0-4.29-2.29","uwxv6k3egpqexz3",258,"118.csv","","null","resources/images/coin2.png","null","",NA,NA,NA,NA,""
"image-keyboard-response",102,202638,"0.0-4.30-0.30","uwxv6k3egpqexz3",258,"118.csv","","1290.6000000238419","resources/trios/L4T2A2.jpg","39","restless",0.6,0.8,0.6,0.445455413882681,"true"
"image-keyboard-response",103,203048,"0.0-4.30-1.30","uwxv6k3egpqexz3",258,"118.csv","","null","resources/maskTrios/BBA2.jpg","null","",NA,NA,NA,NA,""
"image-keyboard-response",104,204260,"0.0-4.30-2.30","uwxv6k3egpqexz3",258,"118.csv","","null","resources/images/coin2.png","null","",NA,NA,NA,NA,""
"image-keyboard-response",105,204678,"0.0-4.31-0.31","uwxv6k3egpqexz3",258,"118.csv","","417.2999999523163","resources/trios/L4T2A2.jpg","39","restless",0.6,0.7,0.6,0.130807617816508,"true"
"image-keyboard-response",106,205081,"0.0-4.31-1.31","uwxv6k3egpqexz3",258,"118.csv","","null","resources/maskTrios/BBA2.jpg","null","",NA,NA,NA,NA,""
"image-keyboard-response",107,206289,"0.0-4.31-2.31","uwxv6k3egpqexz3",258,"118.csv","","null","resources/images/coin2.png","null","",NA,NA,NA,NA,""
"image-keyboard-response",108,206854,"0.0-4.32-0.32","uwxv6k3egpqexz3",258,"118.csv","","564.2999999523163","resources/trios/L4T2A2.jpg","38","restless",0.6,0.7,0.6,0.482430034628797,"true"
"image-keyboard-response",109,207264,"0.0-4.32-1.32","uwxv6k3egpqexz3",258,"118.csv","","null","resources/maskTrios/BT2B.jpg","null","",NA,NA,NA,NA,""
"image-keyboard-response",110,208471,"0.0-4.32-2.32","uwxv6k3egpqexz3",258,"118.csv","","null","resources/images/coin2.png","null","",NA,NA,NA,NA,""
"image-keyboard-response",111,208895,"0.0-4.33-0.33","uwxv6k3egpqexz3",258,"118.csv","","423.2000000476837","resources/trios/L4T2A2.jpg","38","restless",0.6,0.7,0.6,0.0854125885705974,"true"
"image-keyboard-response",112,209300,"0.0-4.33-1.33","uwxv6k3egpqexz3",258,"118.csv","","null","resources/maskTrios/BT2B.jpg","null","",NA,NA,NA,NA,""
"image-keyboard-response",113,210506,"0.0-4.33-2.33","uwxv6k3egpqexz3",258,"118.csv","","null","resources/images/coin2.png","null","",NA,NA,NA,NA,""
"image-keyboard-response",114,211038,"0.0-4.34-0.34","uwxv6k3egpqexz3",258,"118.csv","","531.6000000238419","resources/trios/L4T2A2.jpg","37","restless",0.6,0.6,0.6,0.558732499046421,"true"
"image-keyboard-response",115,211444,"0.0-4.34-1.34","uwxv6k3egpqexz3",258,"118.csv","","null","resources/maskTrios/L4BB.jpg","null","",NA,NA,NA,NA,""
"image-keyboard-response",116,212650,"0.0-4.34-2.34","uwxv6k3egpqexz3",258,"118.csv","","null","resources/images/coin2.png","null","",NA,NA,NA,NA,""
"image-keyboard-response",117,213102,"0.0-4.35-0.35","uwxv6k3egpqexz3",258,"118.csv","","451.7000000476837","resources/trios/L4T2A2.jpg","37","restless",0.6,0.6,0.6,0.544578183197715,"true"
"image-keyboard-response",118,213507,"0.0-4.35-1.35","uwxv6k3egpqexz3",258,"118.csv","","null","resources/maskTrios/L4BB.jpg","null","",NA,NA,NA,NA,""
"image-keyboard-response",119,214715,"0.0-4.35-2.35","uwxv6k3egpqexz3",258,"118.csv","","null","resources/images/coin2.png","null","",NA,NA,NA,NA,""
"image-keyboard-response",120,215278,"0.0-4.36-0.36","uwxv6k3egpqexz3",258,"118.csv","","561.9000000953674","resources/trios/L4T2A2.jpg","39","restless",0.6,0.6,0.6,0.335353349396878,"true"
"image-keyboard-response",121,215689,"0.0-4.36-1.36","uwxv6k3egpqexz3",258,"118.csv","","null","resources/maskTrios/BBA2.jpg","null","",NA,NA,NA,NA,""
"image-keyboard-response",122,216892,"0.0-4.36-2.36","uwxv6k3egpqexz3",258,"118.csv","","null","resources/images/coin2.png","null","",NA,NA,NA,NA,""
"image-keyboard-response",123,217334,"0.0-4.37-0.37","uwxv6k3egpqexz3",258,"118.csv","","441.8000000715256","resources/trios/L4T2A2.jpg","39","restless",0.6,0.6,0.6,0.922371610771021,"false"
"image-keyboard-response",124,217738,"0.0-4.37-1.37","uwxv6k3egpqexz3",258,"118.csv","","null","resources/maskTrios/BBA2.jpg","null","",NA,NA,NA,NA,""
"image-keyboard-response",125,218948,"0.0-4.37-2.37","uwxv6k3egpqexz3",258,"118.csv","","null","resources/images/fishbone.png","null","",NA,NA,NA,NA,""
"image-keyboard-response",126,221231,"0.0-4.38-0.38","uwxv6k3egpqexz3",258,"118.csv","","2281.2999999523163","resources/trios/L4T2A2.jpg","38","restless",0.6,0.7,0.6,0.00460163253530155,"true"
"image-keyboard-response",127,221647,"0.0-4.38-1.38","uwxv6k3egpqexz3",258,"118.csv","","null","resources/maskTrios/BT2B.jpg","null","",NA,NA,NA,NA,""
"image-keyboard-response",128,222855,"0.0-4.38-2.38","uwxv6k3egpqexz3",258,"118.csv","","null","resources/images/coin2.png","null","",NA,NA,NA,NA,""
"image-keyboard-response",129,223239,"0.0-4.39-0.39","uwxv6k3egpqexz3",258,"118.csv","","383.39999997615814","resources/trios/L4T2A2.jpg","38","restless",0.6,0.7,0.6,0.0669583531221978,"true"
"image-keyboard-response",130,223649,"0.0-4.39-1.39","uwxv6k3egpqexz3",258,"118.csv","","null","resources/maskTrios/BT2B.jpg","null","",NA,NA,NA,NA,""
"image-keyboard-response",131,224851,"0.0-4.39-2.39","uwxv6k3egpqexz3",258,"118.csv","","null","resources/images/coin2.png","null","",NA,NA,NA,NA,""
"image-keyboard-response",132,225214,"0.0-4.40-0.40","uwxv6k3egpqexz3",258,"118.csv","","362.3000000715256","resources/trios/L4T2A2.jpg","38","restless",0.6,0.7,0.6,0.141932820469463,"true"
"image-keyboard-response",133,225631,"0.0-4.40-1.40","uwxv6k3egpqexz3",258,"118.csv","","null","resources/maskTrios/BT2B.jpg","null","",NA,NA,NA,NA,""
"image-keyboard-response",134,226838,"0.0-4.40-2.40","uwxv6k3egpqexz3",258,"118.csv","","null","resources/images/coin2.png","null","",NA,NA,NA,NA,""
"image-keyboard-response",135,227279,"0.0-4.41-0.41","uwxv6k3egpqexz3",258,"118.csv","","440.10000002384186","resources/trios/L4T2A2.jpg","38","restless",0.6,0.7,0.6,0.0417147527840718,"true"
"image-keyboard-response",136,227682,"0.0-4.41-1.41","uwxv6k3egpqexz3",258,"118.csv","","null","resources/maskTrios/BT2B.jpg","null","",NA,NA,NA,NA,""
"image-keyboard-response",137,228898,"0.0-4.41-2.41","uwxv6k3egpqexz3",258,"118.csv","","null","resources/images/coin2.png","null","",NA,NA,NA,NA,""
"image-keyboard-response",138,229422,"0.0-4.42-0.42","uwxv6k3egpqexz3",258,"118.csv","","524.2000000476837","resources/trios/L4T2A2.jpg","38","restless",0.6,0.6,0.5,0.68806436913057,"false"
"image-keyboard-response",139,229839,"0.0-4.42-1.42","uwxv6k3egpqexz3",258,"118.csv","","null","resources/maskTrios/BT2B.jpg","null","",NA,NA,NA,NA,""
"image-keyboard-response",140,231045,"0.0-4.42-2.42","uwxv6k3egpqexz3",258,"118.csv","","null","resources/images/fishbone.png","null","",NA,NA,NA,NA,""
"image-keyboard-response",141,231614,"0.0-4.43-0.43","uwxv6k3egpqexz3",258,"118.csv","","568.6000000238419","resources/trios/L4T2A2.jpg","37","restless",0.6,0.6,0.4,0.151557298785052,"true"
"image-keyboard-response",142,232016,"0.0-4.43-1.43","uwxv6k3egpqexz3",258,"118.csv","","null","resources/maskTrios/L4BB.jpg","null","",NA,NA,NA,NA,""
"image-keyboard-response",143,233229,"0.0-4.43-2.43","uwxv6k3egpqexz3",258,"118.csv","","null","resources/images/coin2.png","null","",NA,NA,NA,NA,""
"image-keyboard-response",144,233654,"0.0-4.44-0.44","uwxv6k3egpqexz3",258,"118.csv","","424.2999999523163","resources/trios/L4T2A2.jpg","37","restless",0.6,0.6,0.4,0.966781366858308,"false"
"image-keyboard-response",145,234056,"0.0-4.44-1.44","uwxv6k3egpqexz3",258,"118.csv","","null","resources/maskTrios/L4BB.jpg","null","",NA,NA,NA,NA,""
"image-keyboard-response",146,235270,"0.0-4.44-2.44","uwxv6k3egpqexz3",258,"118.csv","","null","resources/images/fishbone.png","null","",NA,NA,NA,NA,""
"image-keyboard-response",147,236798,"0.0-4.45-0.45","uwxv6k3egpqexz3",258,"118.csv","","1528","resources/trios/L4T2A2.jpg","39","restless",0.6,0.6,0.4,0.424199410088927,"false"
"image-keyboard-response",148,237206,"0.0-4.45-1.45","uwxv6k3egpqexz3",258,"118.csv","","null","resources/maskTrios/BBA2.jpg","null","",NA,NA,NA,NA,""
"image-keyboard-response",149,238411,"0.0-4.45-2.45","uwxv6k3egpqexz3",258,"118.csv","","null","resources/images/fishbone.png","null","",NA,NA,NA,NA,""
"image-keyboard-response",150,238974,"0.0-4.46-0.46","uwxv6k3egpqexz3",258,"118.csv","","562.3999999761581","resources/trios/L4T2A2.jpg","38","restless",0.6,0.6,0.4,0.209700462552906,"true"
"image-keyboard-response",151,239378,"0.0-4.46-1.46","uwxv6k3egpqexz3",258,"118.csv","","null","resources/maskTrios/BT2B.jpg","null","",NA,NA,NA,NA,""
"image-keyboard-response",152,240586,"0.0-4.46-2.46","uwxv6k3egpqexz3",258,"118.csv","","null","resources/images/coin2.png","null","",NA,NA,NA,NA,""
"image-keyboard-response",153,241271,"0.0-4.47-0.47","uwxv6k3egpqexz3",258,"118.csv","","684.1000000238419","resources/trios/L4T2A2.jpg","38","restless",0.6,0.5,0.4,0.913587133699202,"false"
"image-keyboard-response",154,241677,"0.0-4.47-1.47","uwxv6k3egpqexz3",258,"118.csv","","null","resources/maskTrios/BT2B.jpg","null","",NA,NA,NA,NA,""
"image-keyboard-response",155,242880,"0.0-4.47-2.47","uwxv6k3egpqexz3",258,"118.csv","","null","resources/images/fishbone.png","null","",NA,NA,NA,NA,""
"image-keyboard-response",156,243342,"0.0-4.48-0.48","uwxv6k3egpqexz3",258,"118.csv","","461.5","resources/trios/L4T2A2.jpg","37","restless",0.6,0.5,0.4,0.686692906563658,"false"
"image-keyboard-response",157,243751,"0.0-4.48-1.48","uwxv6k3egpqexz3",258,"118.csv","","null","resources/maskTrios/L4BB.jpg","null","",NA,NA,NA,NA,""
"image-keyboard-response",158,244956,"0.0-4.48-2.48","uwxv6k3egpqexz3",258,"118.csv","","null","resources/images/fishbone.png","null","",NA,NA,NA,NA,""
"image-keyboard-response",159,245550,"0.0-4.49-0.49","uwxv6k3egpqexz3",258,"118.csv","","593.2000000476837","resources/trios/L4T2A2.jpg","39","restless",0.6,0.5,0.5,0.327753103075318,"true"
"image-keyboard-response",160,245962,"0.0-4.49-1.49","uwxv6k3egpqexz3",258,"118.csv","","null","resources/maskTrios/BBA2.jpg","null","",NA,NA,NA,NA,""
"image-keyboard-response",161,247176,"0.0-4.49-2.49","uwxv6k3egpqexz3",258,"118.csv","","null","resources/images/coin2.png","null","",NA,NA,NA,NA,""
"image-keyboard-response",162,247774,"0.0-4.50-0.50","uwxv6k3egpqexz3",258,"118.csv","","597.6999999284744","resources/trios/L4T2A2.jpg","39","restless",0.6,0.5,0.5,0.713836031428284,"false"
"image-keyboard-response",163,248176,"0.0-4.50-1.50","uwxv6k3egpqexz3",258,"118.csv","","null","resources/maskTrios/BBA2.jpg","null","",NA,NA,NA,NA,""
"image-keyboard-response",164,249379,"0.0-4.50-2.50","uwxv6k3egpqexz3",258,"118.csv","","null","resources/images/fishbone.png","null","",NA,NA,NA,NA,""
"image-keyboard-response",165,250086,"0.0-4.51-0.51","uwxv6k3egpqexz3",258,"118.csv","","705.8999999761581","resources/trios/L4T2A2.jpg","38","restless",0.6,0.5,0.5,0.850944393288417,"false"
"image-keyboard-response",166,250490,"0.0-4.51-1.51","uwxv6k3egpqexz3",258,"118.csv","","null","resources/maskTrios/BT2B.jpg","null","",NA,NA,NA,NA,""
"image-keyboard-response",167,251702,"0.0-4.51-2.51","uwxv6k3egpqexz3",258,"118.csv","","null","resources/images/fishbone.png","null","",NA,NA,NA,NA,""
"image-keyboard-response",168,252742,"0.0-4.52-0.52","uwxv6k3egpqexz3",258,"118.csv","","1038.5","resources/trios/L4T2A2.jpg","37","restless",0.6,0.5,0.5,0.0289785488990009,"true"
"image-keyboard-response",169,253147,"0.0-4.52-1.52","uwxv6k3egpqexz3",258,"118.csv","","null","resources/maskTrios/L4BB.jpg","null","",NA,NA,NA,NA,""
"image-keyboard-response",170,254355,"0.0-4.52-2.52","uwxv6k3egpqexz3",258,"118.csv","","null","resources/images/coin2.png","null","",NA,NA,NA,NA,""
"image-keyboard-response",171,254830,"0.0-4.53-0.53","uwxv6k3egpqexz3",258,"118.csv","","473.90000009536743","resources/trios/L4T2A2.jpg","39","restless",0.6,0.5,0.5,0.695181086480071,"false"
"image-keyboard-response",172,255235,"0.0-4.53-1.53","uwxv6k3egpqexz3",258,"118.csv","","null","resources/maskTrios/BBA2.jpg","null","",NA,NA,NA,NA,""
"image-keyboard-response",173,256446,"0.0-4.53-2.53","uwxv6k3egpqexz3",258,"118.csv","","null","resources/images/fishbone.png","null","",NA,NA,NA,NA,""
"image-keyboard-response",174,256782,"0.0-4.54-0.54","uwxv6k3egpqexz3",258,"118.csv","","335.7000000476837","resources/trios/L4T2A2.jpg","38","restless",0.6,0.5,0.4,0.746243071332509,"false"
"image-keyboard-response",175,257197,"0.0-4.54-1.54","uwxv6k3egpqexz3",258,"118.csv","","null","resources/maskTrios/BT2B.jpg","null","",NA,NA,NA,NA,""
"image-keyboard-response",176,258401,"0.0-4.54-2.54","uwxv6k3egpqexz3",258,"118.csv","","null","resources/images/fishbone.png","null","",NA,NA,NA,NA,""
"image-keyboard-response",177,258838,"0.0-4.55-0.55","uwxv6k3egpqexz3",258,"118.csv","","436.59999990463257","resources/trios/L4T2A2.jpg","37","restless",0.6,0.5,0.4,0.149994888627874,"true"
"image-keyboard-response",178,259246,"0.0-4.55-1.55","uwxv6k3egpqexz3",258,"118.csv","","null","resources/maskTrios/L4BB.jpg","null","",NA,NA,NA,NA,""
"image-keyboard-response",179,260455,"0.0-4.55-2.55","uwxv6k3egpqexz3",258,"118.csv","","null","resources/images/coin2.png","null","",NA,NA,NA,NA,""
"image-keyboard-response",180,260934,"0.0-4.56-0.56","uwxv6k3egpqexz3",258,"118.csv","","478","resources/trios/L4T2A2.jpg","37","restless",0.6,0.5,0.4,0.903275207248213,"false"
"image-keyboard-response",181,261344,"0.0-4.56-1.56","uwxv6k3egpqexz3",258,"118.csv","","null","resources/maskTrios/L4BB.jpg","null","",NA,NA,NA,NA,""
"image-keyboard-response",182,262553,"0.0-4.56-2.56","uwxv6k3egpqexz3",258,"118.csv","","null","resources/images/fishbone.png","null","",NA,NA,NA,NA,""
"image-keyboard-response",183,262982,"0.0-4.57-0.57","uwxv6k3egpqexz3",258,"118.csv","","427.40000009536743","resources/trios/L4T2A2.jpg","39","restless",0.6,0.5,0.4,0.565992501534056,"false"
"image-keyboard-response",184,263394,"0.0-4.57-1.57","uwxv6k3egpqexz3",258,"118.csv","","null","resources/maskTrios/BBA2.jpg","null","",NA,NA,NA,NA,""
"image-keyboard-response",185,264600,"0.0-4.57-2.57","uwxv6k3egpqexz3",258,"118.csv","","null","resources/images/fishbone.png","null","",NA,NA,NA,NA,""
"image-keyboard-response",186,265197,"0.0-4.58-0.58","uwxv6k3egpqexz3",258,"118.csv","","597.2000000476837","resources/trios/L4T2A2.jpg","38","restless",0.6,0.5,0.4,0.156842903919348,"true"
"image-keyboard-response",187,265611,"0.0-4.58-1.58","uwxv6k3egpqexz3",258,"118.csv","","null","resources/maskTrios/BT2B.jpg","null","",NA,NA,NA,NA,""
"image-keyboard-response",188,266826,"0.0-4.58-2.58","uwxv6k3egpqexz3",258,"118.csv","","null","resources/images/coin2.png","null","",NA,NA,NA,NA,""
"image-keyboard-response",189,267229,"0.0-4.59-0.59","uwxv6k3egpqexz3",258,"118.csv","","402.7999999523163","resources/trios/L4T2A2.jpg","38","restless",0.6,0.5,0.4,0.547090498136336,"false"
"image-keyboard-response",190,267638,"0.0-4.59-1.59","uwxv6k3egpqexz3",258,"118.csv","","null","resources/maskTrios/BT2B.jpg","null","",NA,NA,NA,NA,""
"image-keyboard-response",191,268852,"0.0-4.59-2.59","uwxv6k3egpqexz3",258,"118.csv","","null","resources/images/fishbone.png","null","",NA,NA,NA,NA,""
"image-keyboard-response",192,270477,"0.0-4.60-0.60","uwxv6k3egpqexz3",258,"118.csv","","1624.2999999523163","resources/trios/L4T2A2.jpg","39","restless",0.6,0.6,0.3,0.660146968289025,"false"
"image-keyboard-response",193,270888,"0.0-4.60-1.60","uwxv6k3egpqexz3",258,"118.csv","","null","resources/maskTrios/BBA2.jpg","null","",NA,NA,NA,NA,""
"image-keyboard-response",194,272100,"0.0-4.60-2.60","uwxv6k3egpqexz3",258,"118.csv","","null","resources/images/fishbone.png","null","",NA,NA,NA,NA,""
"image-keyboard-response",195,272717,"0.0-4.61-0.61","uwxv6k3egpqexz3",258,"118.csv","","616.3999999761581","resources/trios/L4T2A2.jpg","37","restless",0.6,0.7,0.3,0.865725437102403,"false"
"image-keyboard-response",196,273118,"0.0-4.61-1.61","uwxv6k3egpqexz3",258,"118.csv","","null","resources/maskTrios/L4BB.jpg","null","",NA,NA,NA,NA,""
"image-keyboard-response",197,274327,"0.0-4.61-2.61","uwxv6k3egpqexz3",258,"118.csv","","null","resources/images/fishbone.png","null","",NA,NA,NA,NA,""
"image-keyboard-response",198,274741,"0.0-4.62-0.62","uwxv6k3egpqexz3",258,"118.csv","","413.8000000715256","resources/trios/L4T2A2.jpg","38","restless",0.6,0.7,0.3,0.301283815816497,"true"
"image-keyboard-response",199,275152,"0.0-4.62-1.62","uwxv6k3egpqexz3",258,"118.csv","","null","resources/maskTrios/BT2B.jpg","null","",NA,NA,NA,NA,""
"image-keyboard-response",200,276364,"0.0-4.62-2.62","uwxv6k3egpqexz3",258,"118.csv","","null","resources/images/coin2.png","null","",NA,NA,NA,NA,""
"image-keyboard-response",201,277149,"0.0-4.63-0.63","uwxv6k3egpqexz3",258,"118.csv","","784.7999999523163","resources/trios/L4T2A2.jpg","38","restless",0.6,0.7,0.3,0.582550242528679,"true"
"image-keyboard-response",202,277561,"0.0-4.63-1.63","uwxv6k3egpqexz3",258,"118.csv","","null","resources/maskTrios/BT2B.jpg","null","",NA,NA,NA,NA,""
"image-keyboard-response",203,278777,"0.0-4.63-2.63","uwxv6k3egpqexz3",258,"118.csv","","null","resources/images/coin2.png","null","",NA,NA,NA,NA,""
"image-keyboard-response",204,279389,"0.0-4.64-0.64","uwxv6k3egpqexz3",258,"118.csv","","612","resources/trios/L4T2A2.jpg","38","restless",0.6,0.7,0.3,0.929863613633401,"false"
"image-keyboard-response",205,279804,"0.0-4.64-1.64","uwxv6k3egpqexz3",258,"118.csv","","null","resources/maskTrios/BT2B.jpg","null","",NA,NA,NA,NA,""
"image-keyboard-response",206,281007,"0.0-4.64-2.64","uwxv6k3egpqexz3",258,"118.csv","","null","resources/images/fishbone.png","null","",NA,NA,NA,NA,""
"image-keyboard-response",207,281525,"0.0-4.65-0.65","uwxv6k3egpqexz3",258,"118.csv","","517.6000000238419","resources/trios/L4T2A2.jpg","37","restless",0.6,0.7,0.4,0.306031880649831,"true"
"image-keyboard-response",208,281933,"0.0-4.65-1.65","uwxv6k3egpqexz3",258,"118.csv","","null","resources/maskTrios/L4BB.jpg","null","",NA,NA,NA,NA,""
"image-keyboard-response",209,283137,"0.0-4.65-2.65","uwxv6k3egpqexz3",258,"118.csv","","null","resources/images/coin2.png","null","",NA,NA,NA,NA,""
"image-keyboard-response",210,283973,"0.0-4.66-0.66","uwxv6k3egpqexz3",258,"118.csv","","835.9000000953674","resources/trios/L4T2A2.jpg","37","restless",0.6,0.7,0.4,0.319419908926184,"true"
"image-keyboard-response",211,284385,"0.0-4.66-1.66","uwxv6k3egpqexz3",258,"118.csv","","null","resources/maskTrios/L4BB.jpg","null","",NA,NA,NA,NA,""
"image-keyboard-response",212,285599,"0.0-4.66-2.66","uwxv6k3egpqexz3",258,"118.csv","","null","resources/images/coin2.png","null","",NA,NA,NA,NA,""
"image-keyboard-response",213,286350,"0.0-4.67-0.67","uwxv6k3egpqexz3",258,"118.csv","","750.1000000238419","resources/trios/L4T2A2.jpg","37","restless",0.6,0.7,0.4,0.437781545734378,"true"
"image-keyboard-response",214,286758,"0.0-4.67-1.67","uwxv6k3egpqexz3",258,"118.csv","","null","resources/maskTrios/L4BB.jpg","null","",NA,NA,NA,NA,""
"image-keyboard-response",215,287966,"0.0-4.67-2.67","uwxv6k3egpqexz3",258,"118.csv","","null","resources/images/coin2.png","null","",NA,NA,NA,NA,""
"image-keyboard-response",216,289741,"0.0-4.68-0.68","uwxv6k3egpqexz3",258,"118.csv","","1774","resources/trios/L4T2A2.jpg","39","restless",0.6,0.7,0.4,0.289161884531329,"true"
"image-keyboard-response",217,290147,"0.0-4.68-1.68","uwxv6k3egpqexz3",258,"118.csv","","null","resources/maskTrios/BBA2.jpg","null","",NA,NA,NA,NA,""
"image-keyboard-response",218,291363,"0.0-4.68-2.68","uwxv6k3egpqexz3",258,"118.csv","","null","resources/images/coin2.png","null","",NA,NA,NA,NA,""
"image-keyboard-response",219,292333,"0.0-4.69-0.69","uwxv6k3egpqexz3",258,"118.csv","","969.0999999046326","resources/trios/L4T2A2.jpg","39","restless",0.6,0.7,0.4,0.960481228610129,"false"
"image-keyboard-response",220,292736,"0.0-4.69-1.69","uwxv6k3egpqexz3",258,"118.csv","","null","resources/maskTrios/BBA2.jpg","null","",NA,NA,NA,NA,""
"image-keyboard-response",221,293944,"0.0-4.69-2.69","uwxv6k3egpqexz3",258,"118.csv","","null","resources/images/fishbone.png","null","",NA,NA,NA,NA,""
"image-keyboard-response",222,294453,"0.0-4.70-0.70","uwxv6k3egpqexz3",258,"118.csv","","508.60000002384186","resources/trios/L4T2A2.jpg","38","restless",0.6,0.7,0.4,0.615065504788888,"true"
"image-keyboard-response",223,294862,"0.0-4.70-1.70","uwxv6k3egpqexz3",258,"118.csv","","null","resources/maskTrios/BT2B.jpg","null","",NA,NA,NA,NA,""
"image-keyboard-response",224,296078,"0.0-4.70-2.70","uwxv6k3egpqexz3",258,"118.csv","","null","resources/images/coin2.png","null","",NA,NA,NA,NA,""
"image-keyboard-response",225,296709,"0.0-4.71-0.71","uwxv6k3egpqexz3",258,"118.csv","","631.1000000238419","resources/trios/L4T2A2.jpg","38","restless",0.6,0.7,0.4,0.458622195403365,"true"
"image-keyboard-response",226,297118,"0.0-4.71-1.71","uwxv6k3egpqexz3",258,"118.csv","","null","resources/maskTrios/BT2B.jpg","null","",NA,NA,NA,NA,""
"image-keyboard-response",227,298321,"0.0-4.71-2.71","uwxv6k3egpqexz3",258,"118.csv","","null","resources/images/coin2.png","null","",NA,NA,NA,NA,""
"image-keyboard-response",228,299182,"0.0-4.72-0.72","uwxv6k3egpqexz3",258,"118.csv","","859.5999999046326","resources/trios/L4T2A2.jpg","38","restless",0.6,0.7,0.4,0.0868320866880323,"true"
"image-keyboard-response",229,299590,"0.0-4.72-1.72","uwxv6k3egpqexz3",258,"118.csv","","null","resources/maskTrios/BT2B.jpg","null","",NA,NA,NA,NA,""
"image-keyboard-response",230,300792,"0.0-4.72-2.72","uwxv6k3egpqexz3",258,"118.csv","","null","resources/images/coin2.png","null","",NA,NA,NA,NA,""
"image-keyboard-response",231,301461,"0.0-4.73-0.73","uwxv6k3egpqexz3",258,"118.csv","","668.7000000476837","resources/trios/L4T2A2.jpg","38","restless",0.6,0.7,0.4,0.979714353137032,"false"
"image-keyboard-response",232,301869,"0.0-4.73-1.73","uwxv6k3egpqexz3",258,"118.csv","","null","resources/maskTrios/BT2B.jpg","null","",NA,NA,NA,NA,""
"image-keyboard-response",233,303071,"0.0-4.73-2.73","uwxv6k3egpqexz3",258,"118.csv","","null","resources/images/fishbone.png","null","",NA,NA,NA,NA,""
"image-keyboard-response",234,303486,"0.0-4.74-0.74","uwxv6k3egpqexz3",258,"118.csv","","413.5","resources/trios/L4T2A2.jpg","37","restless",0.6,0.7,0.4,0.729916610769655,"false"
"image-keyboard-response",235,303889,"0.0-4.74-1.74","uwxv6k3egpqexz3",258,"118.csv","","null","resources/maskTrios/L4BB.jpg","null","",NA,NA,NA,NA,""
"image-keyboard-response",236,305105,"0.0-4.74-2.74","uwxv6k3egpqexz3",258,"118.csv","","null","resources/images/fishbone.png","null","",NA,NA,NA,NA,""
"image-keyboard-response",237,306229,"0.0-4.75-0.75","uwxv6k3egpqexz3",258,"118.csv","","1122.8999999761581","resources/trios/L4T2A2.jpg","39","restless",0.6,0.7,0.4,0.78195329630513,"false"
"image-keyboard-response",238,306633,"0.0-4.75-1.75","uwxv6k3egpqexz3",258,"118.csv","","null","resources/maskTrios/BBA2.jpg","null","",NA,NA,NA,NA,""
"image-keyboard-response",239,307849,"0.0-4.75-2.75","uwxv6k3egpqexz3",258,"118.csv","","null","resources/images/fishbone.png","null","",NA,NA,NA,NA,""
"image-keyboard-response",240,308454,"0.0-4.76-0.76","uwxv6k3egpqexz3",258,"118.csv","","604","resources/trios/L4T2A2.jpg","38","restless",0.6,0.7,0.4,0.325412006721125,"true"
"image-keyboard-response",241,308862,"0.0-4.76-1.76","uwxv6k3egpqexz3",258,"118.csv","","null","resources/maskTrios/BT2B.jpg","null","",NA,NA,NA,NA,""
"image-keyboard-response",242,310074,"0.0-4.76-2.76","uwxv6k3egpqexz3",258,"118.csv","","null","resources/images/coin2.png","null","",NA,NA,NA,NA,""
"image-keyboard-response",243,311190,"0.0-4.77-0.77","uwxv6k3egpqexz3",258,"118.csv","","1114.8000000715256","resources/trios/L4T2A2.jpg","38","restless",0.6,0.7,0.4,0.264155717007207,"true"
"image-keyboard-response",244,311597,"0.0-4.77-1.77","uwxv6k3egpqexz3",258,"118.csv","","null","resources/maskTrios/BT2B.jpg","null","",NA,NA,NA,NA,""
"image-keyboard-response",245,312807,"0.0-4.77-2.77","uwxv6k3egpqexz3",258,"118.csv","","null","resources/images/coin2.png","null","",NA,NA,NA,NA,""
"image-keyboard-response",246,313334,"0.0-4.78-0.78","uwxv6k3egpqexz3",258,"118.csv","","525.8000000715256","resources/trios/L4T2A2.jpg","39","restless",0.6,0.7,0.4,0.0453559418540432,"true"
"image-keyboard-response",247,313740,"0.0-4.78-1.78","uwxv6k3egpqexz3",258,"118.csv","","null","resources/maskTrios/BBA2.jpg","null","",NA,NA,NA,NA,""
"image-keyboard-response",248,314950,"0.0-4.78-2.78","uwxv6k3egpqexz3",258,"118.csv","","null","resources/images/coin2.png","null","",NA,NA,NA,NA,""
"image-keyboard-response",249,315534,"0.0-4.79-0.79","uwxv6k3egpqexz3",258,"118.csv","","582.6000000238419","resources/trios/L4T2A2.jpg","39","restless",0.5,0.7,0.4,0.760604920673888,"false"
"image-keyboard-response",250,315942,"0.0-4.79-1.79","uwxv6k3egpqexz3",258,"118.csv","","null","resources/maskTrios/BBA2.jpg","null","",NA,NA,NA,NA,""
"image-keyboard-response",251,317148,"0.0-4.79-2.79","uwxv6k3egpqexz3",258,"118.csv","","null","resources/images/fishbone.png","null","",NA,NA,NA,NA,""
"image-keyboard-response",252,317678,"0.0-4.80-0.80","uwxv6k3egpqexz3",258,"118.csv","","528.8999999761581","resources/trios/L4T2A2.jpg","37","restless",0.5,0.7,0.4,0.978353075696015,"false"
"image-keyboard-response",253,318086,"0.0-4.80-1.80","uwxv6k3egpqexz3",258,"118.csv","","null","resources/maskTrios/L4BB.jpg","null","",NA,NA,NA,NA,""
"image-keyboard-response",254,319293,"0.0-4.80-2.80","uwxv6k3egpqexz3",258,"118.csv","","null","resources/images/fishbone.png","null","",NA,NA,NA,NA,""
"image-keyboard-response",255,319669,"0.0-4.81-0.81","uwxv6k3egpqexz3",258,"118.csv","","375","resources/trios/L4T2A2.jpg","38","restless",0.5,0.6,0.4,0.0534838330883416,"true"
"image-keyboard-response",256,320074,"0.0-4.81-1.81","uwxv6k3egpqexz3",258,"118.csv","","null","resources/maskTrios/BT2B.jpg","null","",NA,NA,NA,NA,""
"image-keyboard-response",257,321277,"0.0-4.81-2.81","uwxv6k3egpqexz3",258,"118.csv","","null","resources/images/coin2.png","null","",NA,NA,NA,NA,""
"image-keyboard-response",258,323893,"0.0-4.82-0.82","uwxv6k3egpqexz3",258,"118.csv","","2615.7000000476837","resources/trios/L4T2A2.jpg","38","restless",0.5,0.6,0.4,0.797898718563823,"false"
"image-keyboard-response",259,324301,"0.0-4.82-1.82","uwxv6k3egpqexz3",258,"118.csv","","null","resources/maskTrios/BT2B.jpg","null","",NA,NA,NA,NA,""
"image-keyboard-response",260,325503,"0.0-4.82-2.82","uwxv6k3egpqexz3",258,"118.csv","","null","resources/images/fishbone.png","null","",NA,NA,NA,NA,""
"image-keyboard-response",261,326189,"0.0-4.83-0.83","uwxv6k3egpqexz3",258,"118.csv","","684.5","resources/trios/L4T2A2.jpg","37","restless",0.5,0.6,0.4,0.638976459730261,"false"
"image-keyboard-response",262,326598,"0.0-4.83-1.83","uwxv6k3egpqexz3",258,"118.csv","","null","resources/maskTrios/L4BB.jpg","null","",NA,NA,NA,NA,""
"image-keyboard-response",263,327800,"0.0-4.83-2.83","uwxv6k3egpqexz3",258,"118.csv","","null","resources/images/fishbone.png","null","",NA,NA,NA,NA,""
"image-keyboard-response",264,328237,"0.0-4.84-0.84","uwxv6k3egpqexz3",258,"118.csv","","436.10000002384186","resources/trios/L4T2A2.jpg","39","restless",0.5,0.6,0.4,0.347413147776947,"true"
"image-keyboard-response",265,328647,"0.0-4.84-1.84","uwxv6k3egpqexz3",258,"118.csv","","null","resources/maskTrios/BBA2.jpg","null","",NA,NA,NA,NA,""
"image-keyboard-response",266,329851,"0.0-4.84-2.84","uwxv6k3egpqexz3",258,"118.csv","","null","resources/images/coin2.png","null","",NA,NA,NA,NA,""
"image-keyboard-response",267,330525,"0.0-4.85-0.85","uwxv6k3egpqexz3",258,"118.csv","","673.8999999761581","resources/trios/L4T2A2.jpg","39","restless",0.5,0.6,0.4,0.0225888832541561,"true"
"image-keyboard-response",268,330934,"0.0-4.85-1.85","uwxv6k3egpqexz3",258,"118.csv","","null","resources/maskTrios/BBA2.jpg","null","",NA,NA,NA,NA,""
"image-keyboard-response",269,332136,"0.0-4.85-2.85","uwxv6k3egpqexz3",258,"118.csv","","null","resources/images/coin2.png","null","",NA,NA,NA,NA,""
"image-keyboard-response",270,333269,"0.0-4.86-0.86","uwxv6k3egpqexz3",258,"118.csv","","1132.2000000476837","resources/trios/L4T2A2.jpg","39","restless",0.5,0.6,0.4,0.766272906889538,"false"
"image-keyboard-response",271,333674,"0.0-4.86-1.86","uwxv6k3egpqexz3",258,"118.csv","","null","resources/maskTrios/BBA2.jpg","null","",NA,NA,NA,NA,""
"image-keyboard-response",272,334880,"0.0-4.86-2.86","uwxv6k3egpqexz3",258,"118.csv","","null","resources/images/fishbone.png","null","",NA,NA,NA,NA,""
"image-keyboard-response",273,335805,"0.0-4.87-0.87","uwxv6k3egpqexz3",258,"118.csv","","924.7999999523163","resources/trios/L4T2A2.jpg","38","restless",0.6,0.6,0.4,0.0559022319552596,"true"
"image-keyboard-response",274,336208,"0.0-4.87-1.87","uwxv6k3egpqexz3",258,"118.csv","","null","resources/maskTrios/BT2B.jpg","null","",NA,NA,NA,NA,""
"image-keyboard-response",275,337419,"0.0-4.87-2.87","uwxv6k3egpqexz3",258,"118.csv","","null","resources/images/coin2.png","null","",NA,NA,NA,NA,""
"image-keyboard-response",276,338100,"0.0-4.88-0.88","uwxv6k3egpqexz3",258,"118.csv","","680.5","resources/trios/L4T2A2.jpg","38","restless",0.6,0.6,0.4,0.856455723857499,"false"
"image-keyboard-response",277,338507,"0.0-4.88-1.88","uwxv6k3egpqexz3",258,"118.csv","","null","resources/maskTrios/BT2B.jpg","null","",NA,NA,NA,NA,""
"image-keyboard-response",278,339723,"0.0-4.88-2.88","uwxv6k3egpqexz3",258,"118.csv","","null","resources/images/fishbone.png","null","",NA,NA,NA,NA,""
"image-keyboard-response",279,340333,"0.0-4.89-0.89","uwxv6k3egpqexz3",258,"118.csv","","609.1000000238419","resources/trios/L4T2A2.jpg","37","restless",0.6,0.6,0.4,0.270490292393379,"true"
"image-keyboard-response",280,340749,"0.0-4.89-1.89","uwxv6k3egpqexz3",258,"118.csv","","null","resources/maskTrios/L4BB.jpg","null","",NA,NA,NA,NA,""
"image-keyboard-response",281,341957,"0.0-4.89-2.89","uwxv6k3egpqexz3",258,"118.csv","","null","resources/images/coin2.png","null","",NA,NA,NA,NA,""
"image-keyboard-response",282,342653,"0.0-4.90-0.90","uwxv6k3egpqexz3",258,"118.csv","","695.2999999523163","resources/trios/L4T2A2.jpg","37","restless",0.6,0.6,0.4,0.726842695807353,"false"
"image-keyboard-response",283,343064,"0.0-4.90-1.90","uwxv6k3egpqexz3",258,"118.csv","","null","resources/maskTrios/L4BB.jpg","null","",NA,NA,NA,NA,""
"image-keyboard-response",284,344278,"0.0-4.90-2.90","uwxv6k3egpqexz3",258,"118.csv","","null","resources/images/fishbone.png","null","",NA,NA,NA,NA,""
"image-keyboard-response",285,344765,"0.0-4.91-0.91","uwxv6k3egpqexz3",258,"118.csv","","486.10000002384186","resources/trios/L4T2A2.jpg","38","restless",0.6,0.5,0.4,0.254034641848878,"true"
"image-keyboard-response",286,345174,"0.0-4.91-1.91","uwxv6k3egpqexz3",258,"118.csv","","null","resources/maskTrios/BT2B.jpg","null","",NA,NA,NA,NA,""
"image-keyboard-response",287,346376,"0.0-4.91-2.91","uwxv6k3egpqexz3",258,"118.csv","","null","resources/images/coin2.png","null","",NA,NA,NA,NA,""
"image-keyboard-response",288,346917,"0.0-4.92-0.92","uwxv6k3egpqexz3",258,"118.csv","","540.3999999761581","resources/trios/L4T2A2.jpg","38","restless",0.6,0.5,0.4,0.117130118980445,"true"
"image-keyboard-response",289,347333,"0.0-4.92-1.92","uwxv6k3egpqexz3",258,"118.csv","","null","resources/maskTrios/BT2B.jpg","null","",NA,NA,NA,NA,""
"image-keyboard-response",290,348539,"0.0-4.92-2.92","uwxv6k3egpqexz3",258,"118.csv","","null","resources/images/coin2.png","null","",NA,NA,NA,NA,""
"image-keyboard-response",291,349668,"0.0-4.93-0.93","uwxv6k3egpqexz3",258,"118.csv","","1129","resources/trios/L4T2A2.jpg","38","restless",0.6,0.5,0.4,0.300782650323591,"true"
"image-keyboard-response",292,350073,"0.0-4.93-1.93","uwxv6k3egpqexz3",258,"118.csv","","null","resources/maskTrios/BT2B.jpg","null","",NA,NA,NA,NA,""
"image-keyboard-response",293,351283,"0.0-4.93-2.93","uwxv6k3egpqexz3",258,"118.csv","","null","resources/images/coin2.png","null","",NA,NA,NA,NA,""
"image-keyboard-response",294,354269,"0.0-4.94-0.94","uwxv6k3egpqexz3",258,"118.csv","","2985.0999999046326","resources/trios/L4T2A2.jpg","38","restless",0.6,0.5,0.4,0.972966350751404,"false"
"image-keyboard-response",295,354670,"0.0-4.94-1.94","uwxv6k3egpqexz3",258,"118.csv","","null","resources/maskTrios/BT2B.jpg","null","",NA,NA,NA,NA,""
"image-keyboard-response",296,355882,"0.0-4.94-2.94","uwxv6k3egpqexz3",258,"118.csv","","null","resources/images/fishbone.png","null","",NA,NA,NA,NA,""
"image-keyboard-response",297,357653,"0.0-4.95-0.95","uwxv6k3egpqexz3",258,"118.csv","","1770.6999999284744","resources/trios/L4T2A2.jpg","37","restless",0.7,0.5,0.5,0.398445434316257,"true"
"image-keyboard-response",298,358055,"0.0-4.95-1.95","uwxv6k3egpqexz3",258,"118.csv","","null","resources/maskTrios/L4BB.jpg","null","",NA,NA,NA,NA,""
"image-keyboard-response",299,359260,"0.0-4.95-2.95","uwxv6k3egpqexz3",258,"118.csv","","null","resources/images/coin2.png","null","",NA,NA,NA,NA,""
"image-keyboard-response",300,359757,"0.0-4.96-0.96","uwxv6k3egpqexz3",258,"118.csv","","496.59999990463257","resources/trios/L4T2A2.jpg","37","restless",0.7,0.5,0.5,0.484021435567678,"true"
"image-keyboard-response",301,360167,"0.0-4.96-1.96","uwxv6k3egpqexz3",258,"118.csv","","null","resources/maskTrios/L4BB.jpg","null","",NA,NA,NA,NA,""
"image-keyboard-response",302,361370,"0.0-4.96-2.96","uwxv6k3egpqexz3",258,"118.csv","","null","resources/images/coin2.png","null","",NA,NA,NA,NA,""
"image-keyboard-response",303,361956,"0.0-4.97-0.97","uwxv6k3egpqexz3",258,"118.csv","","585.0999999046326","resources/trios/L4T2A2.jpg","37","restless",0.7,0.5,0.5,0.615532626799866,"true"
"image-keyboard-response",304,362371,"0.0-4.97-1.97","uwxv6k3egpqexz3",258,"118.csv","","null","resources/maskTrios/L4BB.jpg","null","",NA,NA,NA,NA,""
"image-keyboard-response",305,363581,"0.0-4.97-2.97","uwxv6k3egpqexz3",258,"118.csv","","null","resources/images/coin2.png","null","",NA,NA,NA,NA,""
"image-keyboard-response",306,364429,"0.0-4.98-0.98","uwxv6k3egpqexz3",258,"118.csv","","847.2000000476837","resources/trios/L4T2A2.jpg","37","restless",0.7,0.5,0.5,0.0306926977953832,"true"
"image-keyboard-response",307,364833,"0.0-4.98-1.98","uwxv6k3egpqexz3",258,"118.csv","","null","resources/maskTrios/L4BB.jpg","null","",NA,NA,NA,NA,""
"image-keyboard-response",308,366037,"0.0-4.98-2.98","uwxv6k3egpqexz3",258,"118.csv","","null","resources/images/coin2.png","null","",NA,NA,NA,NA,""
"image-keyboard-response",309,366596,"0.0-4.99-0.99","uwxv6k3egpqexz3",258,"118.csv","","558.2999999523163","resources/trios/L4T2A2.jpg","37","restless",0.7,0.5,0.5,0.871110990024052,"false"
"image-keyboard-response",310,367003,"0.0-4.99-1.99","uwxv6k3egpqexz3",258,"118.csv","","null","resources/maskTrios/L4BB.jpg","null","",NA,NA,NA,NA,""
"image-keyboard-response",311,368217,"0.0-4.99-2.99","uwxv6k3egpqexz3",258,"118.csv","","null","resources/images/fishbone.png","null","",NA,NA,NA,NA,""
"image-keyboard-response",312,369156,"0.0-4.100-0.100","uwxv6k3egpqexz3",258,"118.csv","","938.2000000476837","resources/trios/L4T2A2.jpg","39","restless",0.7,0.5,0.6,0.102070385103259,"true"
"image-keyboard-response",313,369569,"0.0-4.100-1.100","uwxv6k3egpqexz3",258,"118.csv","","null","resources/maskTrios/BBA2.jpg","null","",NA,NA,NA,NA,""
"image-keyboard-response",314,370774,"0.0-4.100-2.100","uwxv6k3egpqexz3",258,"118.csv","","null","resources/images/coin2.png","null","",NA,NA,NA,NA,""
"image-keyboard-response",315,371316,"0.0-4.101-0.101","uwxv6k3egpqexz3",258,"118.csv","","541.2000000476837","resources/trios/L4T2A2.jpg","39","restless",0.7,0.5,0.6,0.409291048095708,"true"
"image-keyboard-response",316,371729,"0.0-4.101-1.101","uwxv6k3egpqexz3",258,"118.csv","","null","resources/maskTrios/BBA2.jpg","null","",NA,NA,NA,NA,""
"image-keyboard-response",317,372934,"0.0-4.101-2.101","uwxv6k3egpqexz3",258,"118.csv","","null","resources/images/coin2.png","null","",NA,NA,NA,NA,""
"image-keyboard-response",318,373444,"0.0-4.102-0.102","uwxv6k3egpqexz3",258,"118.csv","","510.2000000476837","resources/trios/L4T2A2.jpg","39","restless",0.7,0.5,0.6,0.773765233686128,"false"
"image-keyboard-response",319,373850,"0.0-4.102-1.102","uwxv6k3egpqexz3",258,"118.csv","","null","resources/maskTrios/BBA2.jpg","null","",NA,NA,NA,NA,""
"image-keyboard-response",320,375053,"0.0-4.102-2.102","uwxv6k3egpqexz3",258,"118.csv","","null","resources/images/fishbone.png","null","",NA,NA,NA,NA,""
"image-keyboard-response",321,375693,"0.0-4.103-0.103","uwxv6k3egpqexz3",258,"118.csv","","639.2000000476837","resources/trios/L4T2A2.jpg","38","restless",0.7,0.5,0.6,0.321578951440153,"true"
"image-keyboard-response",322,376099,"0.0-4.103-1.103","uwxv6k3egpqexz3",258,"118.csv","","null","resources/maskTrios/BT2B.jpg","null","",NA,NA,NA,NA,""
"image-keyboard-response",323,377300,"0.0-4.103-2.103","uwxv6k3egpqexz3",258,"118.csv","","null","resources/images/coin2.png","null","",NA,NA,NA,NA,""
"image-keyboard-response",324,377748,"0.0-4.104-0.104","uwxv6k3egpqexz3",258,"118.csv","","447.2999999523163","resources/trios/L4T2A2.jpg","38","restless",0.7,0.5,0.6,0.781881600246643,"false"
"image-keyboard-response",325,378162,"0.0-4.104-1.104","uwxv6k3egpqexz3",258,"118.csv","","null","resources/maskTrios/BT2B.jpg","null","",NA,NA,NA,NA,""
"image-keyboard-response",326,379363,"0.0-4.104-2.104","uwxv6k3egpqexz3",258,"118.csv","","null","resources/images/fishbone.png","null","",NA,NA,NA,NA,""
"image-keyboard-response",327,379917,"0.0-4.105-0.105","uwxv6k3egpqexz3",258,"118.csv","","552.3999999761581","resources/trios/L4T2A2.jpg","37","restless",0.7,0.5,0.6,0.93760703507872,"false"
"image-keyboard-response",328,380333,"0.0-4.105-1.105","uwxv6k3egpqexz3",258,"118.csv","","null","resources/maskTrios/L4BB.jpg","null","",NA,NA,NA,NA,""
"image-keyboard-response",329,381550,"0.0-4.105-2.105","uwxv6k3egpqexz3",258,"118.csv","","null","resources/images/fishbone.png","null","",NA,NA,NA,NA,""
"image-keyboard-response",330,382900,"0.0-4.106-0.106","uwxv6k3egpqexz3",258,"118.csv","","1349.3999999761581","resources/trios/L4T2A2.jpg","39","restless",0.7,0.5,0.6,0.791840611952653,"false"
"image-keyboard-response",331,383306,"0.0-4.106-1.106","uwxv6k3egpqexz3",258,"118.csv","","null","resources/maskTrios/BBA2.jpg","null","",NA,NA,NA,NA,""
"image-keyboard-response",332,384510,"0.0-4.106-2.106","uwxv6k3egpqexz3",258,"118.csv","","null","resources/images/fishbone.png","null","",NA,NA,NA,NA,""
"image-keyboard-response",333,385116,"0.0-4.107-0.107","uwxv6k3egpqexz3",258,"118.csv","","605.6000000238419","resources/trios/L4T2A2.jpg","38","restless",0.6,0.5,0.6,0.95068282812656,"false"
"image-keyboard-response",334,385518,"0.0-4.107-1.107","uwxv6k3egpqexz3",258,"118.csv","","null","resources/maskTrios/BT2B.jpg","null","",NA,NA,NA,NA,""
"image-keyboard-response",335,386723,"0.0-4.107-2.107","uwxv6k3egpqexz3",258,"118.csv","","null","resources/images/fishbone.png","null","",NA,NA,NA,NA,""
"image-keyboard-response",336,389084,"0.0-4.108-0.108","uwxv6k3egpqexz3",258,"118.csv","","2360.6999999284744","resources/trios/L4T2A2.jpg","37","restless",0.6,0.5,0.6,0.868587198715828,"false"
"image-keyboard-response",337,389486,"0.0-4.108-1.108","uwxv6k3egpqexz3",258,"118.csv","","null","resources/maskTrios/L4BB.jpg","null","",NA,NA,NA,NA,""
"image-keyboard-response",338,390700,"0.0-4.108-2.108","uwxv6k3egpqexz3",258,"118.csv","","null","resources/images/fishbone.png","null","",NA,NA,NA,NA,""
"image-keyboard-response",339,393917,"0.0-4.109-0.109","uwxv6k3egpqexz3",258,"118.csv","","3215.399999976158","resources/trios/L4T2A2.jpg","39","restless",0.6,0.5,0.6,0.5366537497393,"true"
"image-keyboard-response",340,394333,"0.0-4.109-1.109","uwxv6k3egpqexz3",258,"118.csv","","null","resources/maskTrios/BBA2.jpg","null","",NA,NA,NA,NA,""
"image-keyboard-response",341,395537,"0.0-4.109-2.109","uwxv6k3egpqexz3",258,"118.csv","","null","resources/images/coin2.png","null","",NA,NA,NA,NA,""
"image-keyboard-response",342,396029,"0.0-4.110-0.110","uwxv6k3egpqexz3",258,"118.csv","","490.7999999523163","resources/trios/L4T2A2.jpg","38","restless",0.6,0.5,0.6,0.280483743859017,"true"
"image-keyboard-response",343,396437,"0.0-4.110-1.110","uwxv6k3egpqexz3",258,"118.csv","","null","resources/maskTrios/BT2B.jpg","null","",NA,NA,NA,NA,""
"image-keyboard-response",344,397648,"0.0-4.110-2.110","uwxv6k3egpqexz3",258,"118.csv","","null","resources/images/coin2.png","null","",NA,NA,NA,NA,""
"image-keyboard-response",345,398148,"0.0-4.111-0.111","uwxv6k3egpqexz3",258,"118.csv","","499.2999999523163","resources/trios/L4T2A2.jpg","37","restless",0.6,0.6,0.6,0.759917958424136,"false"
"image-keyboard-response",346,398558,"0.0-4.111-1.111","uwxv6k3egpqexz3",258,"118.csv","","null","resources/maskTrios/L4BB.jpg","null","",NA,NA,NA,NA,""
"image-keyboard-response",347,399761,"0.0-4.111-2.111","uwxv6k3egpqexz3",258,"118.csv","","null","resources/images/fishbone.png","null","",NA,NA,NA,NA,""
"image-keyboard-response",348,400308,"0.0-4.112-0.112","uwxv6k3egpqexz3",258,"118.csv","","546.9000000953674","resources/trios/L4T2A2.jpg","38","restless",0.6,0.6,0.5,0.860580712563038,"false"
"image-keyboard-response",349,400714,"0.0-4.112-1.112","uwxv6k3egpqexz3",258,"118.csv","","null","resources/maskTrios/BT2B.jpg","null","",NA,NA,NA,NA,""
"image-keyboard-response",350,401927,"0.0-4.112-2.112","uwxv6k3egpqexz3",258,"118.csv","","null","resources/images/fishbone.png","null","",NA,NA,NA,NA,""
"image-keyboard-response",351,402252,"0.0-4.113-0.113","uwxv6k3egpqexz3",258,"118.csv","","324","resources/trios/L4T2A2.jpg","39","restless",0.6,0.5,0.5,0.76940604009031,"false"
"image-keyboard-response",352,402665,"0.0-4.113-1.113","uwxv6k3egpqexz3",258,"118.csv","","null","resources/maskTrios/BBA2.jpg","null","",NA,NA,NA,NA,""
"image-keyboard-response",353,403870,"0.0-4.113-2.113","uwxv6k3egpqexz3",258,"118.csv","","null","resources/images/fishbone.png","null","",NA,NA,NA,NA,""
"image-keyboard-response",354,405941,"0.0-4.114-0.114","uwxv6k3egpqexz3",258,"118.csv","","2069.7999999523163","resources/trios/L4T2A2.jpg","39","restless",0.6,0.5,0.5,0.0901266807726211,"true"
"image-keyboard-response",355,406351,"0.0-4.114-1.114","uwxv6k3egpqexz3",258,"118.csv","","null","resources/maskTrios/BBA2.jpg","null","",NA,NA,NA,NA,""
"image-keyboard-response",356,407561,"0.0-4.114-2.114","uwxv6k3egpqexz3",258,"118.csv","","null","resources/images/coin2.png","null","",NA,NA,NA,NA,""
"image-keyboard-response",357,407924,"0.0-4.115-0.115","uwxv6k3egpqexz3",258,"118.csv","","361.6999999284744","resources/trios/L4T2A2.jpg","39","restless",0.5,0.5,0.5,0.555033322455398,"false"
"image-keyboard-response",358,408338,"0.0-4.115-1.115","uwxv6k3egpqexz3",258,"118.csv","","null","resources/maskTrios/BBA2.jpg","null","",NA,NA,NA,NA,""
"image-keyboard-response",359,409545,"0.0-4.115-2.115","uwxv6k3egpqexz3",258,"118.csv","","null","resources/images/fishbone.png","null","",NA,NA,NA,NA,""
"image-keyboard-response",360,409932,"0.0-4.116-0.116","uwxv6k3egpqexz3",258,"118.csv","","386","resources/trios/L4T2A2.jpg","38","restless",0.5,0.5,0.5,0.794629163365354,"false"
"image-keyboard-response",361,410340,"0.0-4.116-1.116","uwxv6k3egpqexz3",258,"118.csv","","null","resources/maskTrios/BT2B.jpg","null","",NA,NA,NA,NA,""
"image-keyboard-response",362,411555,"0.0-4.116-2.116","uwxv6k3egpqexz3",258,"118.csv","","null","resources/images/fishbone.png","null","",NA,NA,NA,NA,""
"image-keyboard-response",363,413484,"0.0-4.117-0.117","uwxv6k3egpqexz3",258,"118.csv","","1928.0999999046326","resources/trios/L4T2A2.jpg","39","restless",0.5,0.5,0.5,0.633398737497275,"false"
"image-keyboard-response",364,413887,"0.0-4.117-1.117","uwxv6k3egpqexz3",258,"118.csv","","null","resources/maskTrios/BBA2.jpg","null","",NA,NA,NA,NA,""
"image-keyboard-response",365,415099,"0.0-4.117-2.117","uwxv6k3egpqexz3",258,"118.csv","","null","resources/images/fishbone.png","null","",NA,NA,NA,NA,""
"image-keyboard-response",366,415771,"0.0-4.118-0.118","uwxv6k3egpqexz3",258,"118.csv","","671.8000000715256","resources/trios/L4T2A2.jpg","37","restless",0.5,0.5,0.5,0.488297131750162,"true"
"image-keyboard-response",367,416173,"0.0-4.118-1.118","uwxv6k3egpqexz3",258,"118.csv","","null","resources/maskTrios/L4BB.jpg","null","",NA,NA,NA,NA,""
"image-keyboard-response",368,417384,"0.0-4.118-2.118","uwxv6k3egpqexz3",258,"118.csv","","null","resources/images/coin2.png","null","",NA,NA,NA,NA,""
"image-keyboard-response",369,417852,"0.0-4.119-0.119","uwxv6k3egpqexz3",258,"118.csv","","467.2000000476837","resources/trios/L4T2A2.jpg","37","restless",0.5,0.5,0.5,0.0959355678086555,"true"
"image-keyboard-response",370,418267,"0.0-4.119-1.119","uwxv6k3egpqexz3",258,"118.csv","","null","resources/maskTrios/L4BB.jpg","null","",NA,NA,NA,NA,""
"image-keyboard-response",371,419484,"0.0-4.119-2.119","uwxv6k3egpqexz3",258,"118.csv","","null","resources/images/coin2.png","null","",NA,NA,NA,NA,""
"image-keyboard-response",372,419956,"0.0-4.120-0.120","uwxv6k3egpqexz3",258,"118.csv","","471.1999999284744","resources/trios/L4T2A2.jpg","37","restless",0.4,0.5,0.6,0.0229334106557388,"true"
"image-keyboard-response",373,420364,"0.0-4.120-1.120","uwxv6k3egpqexz3",258,"118.csv","","null","resources/maskTrios/L4BB.jpg","null","",NA,NA,NA,NA,""
"image-keyboard-response",374,421566,"0.0-4.120-2.120","uwxv6k3egpqexz3",258,"118.csv","","null","resources/images/coin2.png","null","",NA,NA,NA,NA,""
"image-keyboard-response",375,422155,"0.0-4.121-0.121","uwxv6k3egpqexz3",258,"118.csv","","589","resources/trios/L4T2A2.jpg","38","restless",0.4,0.5,0.6,0.254401264504437,"true"
"image-keyboard-response",376,422564,"0.0-4.121-1.121","uwxv6k3egpqexz3",258,"118.csv","","null","resources/maskTrios/BT2B.jpg","null","",NA,NA,NA,NA,""
"image-keyboard-response",377,423779,"0.0-4.121-2.121","uwxv6k3egpqexz3",258,"118.csv","","null","resources/images/coin2.png","null","",NA,NA,NA,NA,""
"image-keyboard-response",378,424235,"0.0-4.122-0.122","uwxv6k3egpqexz3",258,"118.csv","","456.10000002384186","resources/trios/L4T2A2.jpg","38","restless",0.4,0.5,0.6,0.342017386298564,"true"
"image-keyboard-response",379,424642,"0.0-4.122-1.122","uwxv6k3egpqexz3",258,"118.csv","","null","resources/maskTrios/BT2B.jpg","null","",NA,NA,NA,NA,""
"image-keyboard-response",380,425859,"0.0-4.122-2.122","uwxv6k3egpqexz3",258,"118.csv","","null","resources/images/coin2.png","null","",NA,NA,NA,NA,""
"image-keyboard-response",381,426212,"0.0-4.123-0.123","uwxv6k3egpqexz3",258,"118.csv","","351.60000002384186","resources/trios/L4T2A2.jpg","38","restless",0.4,0.5,0.6,0.081632996178288,"true"
"image-keyboard-response",382,426628,"0.0-4.123-1.123","uwxv6k3egpqexz3",258,"118.csv","","null","resources/maskTrios/BT2B.jpg","null","",NA,NA,NA,NA,""
"image-keyboard-response",383,427832,"0.0-4.123-2.123","uwxv6k3egpqexz3",258,"118.csv","","null","resources/images/coin2.png","null","",NA,NA,NA,NA,""
"image-keyboard-response",384,428269,"0.0-4.124-0.124","uwxv6k3egpqexz3",258,"118.csv","","435.89999997615814","resources/trios/L4T2A2.jpg","38","restless",0.4,0.5,0.7,0.636855040241705,"false"
"image-keyboard-response",385,428674,"0.0-4.124-1.124","uwxv6k3egpqexz3",258,"118.csv","","null","resources/maskTrios/BT2B.jpg","null","",NA,NA,NA,NA,""
"image-keyboard-response",386,429888,"0.0-4.124-2.124","uwxv6k3egpqexz3",258,"118.csv","","null","resources/images/fishbone.png","null","",NA,NA,NA,NA,""
"image-keyboard-response",387,430308,"0.0-4.125-0.125","uwxv6k3egpqexz3",258,"118.csv","","419.60000002384186","resources/trios/L4T2A2.jpg","39","restless",0.3,0.5,0.7,0.426255151239648,"true"
"image-keyboard-response",388,430716,"0.0-4.125-1.125","uwxv6k3egpqexz3",258,"118.csv","","null","resources/maskTrios/BBA2.jpg","null","",NA,NA,NA,NA,""
"image-keyboard-response",389,431920,"0.0-4.125-2.125","uwxv6k3egpqexz3",258,"118.csv","","null","resources/images/coin2.png","null","",NA,NA,NA,NA,""
"image-keyboard-response",390,432268,"0.0-4.126-0.126","uwxv6k3egpqexz3",258,"118.csv","","347.39999997615814","resources/trios/L4T2A2.jpg","39","restless",0.3,0.5,0.7,0.0193750109323392,"true"
"image-keyboard-response",391,432671,"0.0-4.126-1.126","uwxv6k3egpqexz3",258,"118.csv","","null","resources/maskTrios/BBA2.jpg","null","",NA,NA,NA,NA,""
"image-keyboard-response",392,433878,"0.0-4.126-2.126","uwxv6k3egpqexz3",258,"118.csv","","null","resources/images/coin2.png","null","",NA,NA,NA,NA,""
"image-keyboard-response",393,434236,"0.0-4.127-0.127","uwxv6k3egpqexz3",258,"118.csv","","356.89999997615814","resources/trios/L4T2A2.jpg","39","restless",0.3,0.5,0.7,0.290891892143276,"true"
"image-keyboard-response",394,434646,"0.0-4.127-1.127","uwxv6k3egpqexz3",258,"118.csv","","null","resources/maskTrios/BBA2.jpg","null","",NA,NA,NA,NA,""
"image-keyboard-response",395,435862,"0.0-4.127-2.127","uwxv6k3egpqexz3",258,"118.csv","","null","resources/images/coin2.png","null","",NA,NA,NA,NA,""
"image-keyboard-response",396,436228,"0.0-4.128-0.128","uwxv6k3egpqexz3",258,"118.csv","","365.09999990463257","resources/trios/L4T2A2.jpg","39","restless",0.3,0.5,0.7,0.904990580288304,"false"
"image-keyboard-response",397,436643,"0.0-4.128-1.128","uwxv6k3egpqexz3",258,"118.csv","","null","resources/maskTrios/BBA2.jpg","null","",NA,NA,NA,NA,""
"image-keyboard-response",398,437856,"0.0-4.128-2.128","uwxv6k3egpqexz3",258,"118.csv","","null","resources/images/fishbone.png","null","",NA,NA,NA,NA,""
"image-keyboard-response",399,438275,"0.0-4.129-0.129","uwxv6k3egpqexz3",258,"118.csv","","418.7000000476837","resources/trios/L4T2A2.jpg","38","restless",0.3,0.5,0.7,0.0299907234926771,"true"
"image-keyboard-response",400,438682,"0.0-4.129-1.129","uwxv6k3egpqexz3",258,"118.csv","","null","resources/maskTrios/BT2B.jpg","null","",NA,NA,NA,NA,""
"image-keyboard-response",401,439892,"0.0-4.129-2.129","uwxv6k3egpqexz3",258,"118.csv","","null","resources/images/coin2.png","null","",NA,NA,NA,NA,""
"image-keyboard-response",402,440268,"0.0-4.130-0.130","uwxv6k3egpqexz3",258,"118.csv","","374.5","resources/trios/L4T2A2.jpg","38","restless",0.3,0.5,0.7,0.892859911334863,"false"
"image-keyboard-response",403,440672,"0.0-4.130-1.130","uwxv6k3egpqexz3",258,"118.csv","","null","resources/maskTrios/BT2B.jpg","null","",NA,NA,NA,NA,""
"image-keyboard-response",404,441880,"0.0-4.130-2.130","uwxv6k3egpqexz3",258,"118.csv","","null","resources/images/fishbone.png","null","",NA,NA,NA,NA,""
"image-keyboard-response",405,442275,"0.0-4.131-0.131","uwxv6k3egpqexz3",258,"118.csv","","394.39999997615814","resources/trios/L4T2A2.jpg","37","restless",0.3,0.5,0.7,0.733258355137856,"false"
"image-keyboard-response",406,442693,"0.0-4.131-1.131","uwxv6k3egpqexz3",258,"118.csv","","null","resources/maskTrios/L4BB.jpg","null","",NA,NA,NA,NA,""
"image-keyboard-response",407,443905,"0.0-4.131-2.131","uwxv6k3egpqexz3",258,"118.csv","","null","resources/images/fishbone.png","null","",NA,NA,NA,NA,""
"image-keyboard-response",408,447084,"0.0-4.132-0.132","uwxv6k3egpqexz3",258,"118.csv","","3177.9000000953674","resources/trios/L4T2A2.jpg","39","restless",0.3,0.4,0.7,0.158510930880756,"true"
"image-keyboard-response",409,447491,"0.0-4.132-1.132","uwxv6k3egpqexz3",258,"118.csv","","null","resources/maskTrios/BBA2.jpg","null","",NA,NA,NA,NA,""
"image-keyboard-response",410,448696,"0.0-4.132-2.132","uwxv6k3egpqexz3",258,"118.csv","","null","resources/images/coin2.png","null","",NA,NA,NA,NA,""
"image-keyboard-response",411,449020,"0.0-4.133-0.133","uwxv6k3egpqexz3",258,"118.csv","","322.7999999523163","resources/trios/L4T2A2.jpg","39","restless",0.3,0.4,0.7,0.498003290134189,"true"
"image-keyboard-response",412,449429,"0.0-4.133-1.133","uwxv6k3egpqexz3",258,"118.csv","","null","resources/maskTrios/BBA2.jpg","null","",NA,NA,NA,NA,""
"image-keyboard-response",413,450634,"0.0-4.133-2.133","uwxv6k3egpqexz3",258,"118.csv","","null","resources/images/coin2.png","null","",NA,NA,NA,NA,""
"image-keyboard-response",414,451244,"0.0-4.134-0.134","uwxv6k3egpqexz3",258,"118.csv","","608.7999999523163","resources/trios/L4T2A2.jpg","39","restless",0.3,0.4,0.7,0.501941350042579,"true"
"image-keyboard-response",415,451657,"0.0-4.134-1.134","uwxv6k3egpqexz3",258,"118.csv","","null","resources/maskTrios/BBA2.jpg","null","",NA,NA,NA,NA,""
"image-keyboard-response",416,452870,"0.0-4.134-2.134","uwxv6k3egpqexz3",258,"118.csv","","null","resources/images/coin2.png","null","",NA,NA,NA,NA,""
"image-keyboard-response",417,453347,"0.0-4.135-0.135","uwxv6k3egpqexz3",258,"118.csv","","476.39999997615814","resources/trios/L4T2A2.jpg","39","restless",0.2,0.4,0.7,0.22927905017492,"true"
"image-keyboard-response",418,453760,"0.0-4.135-1.135","uwxv6k3egpqexz3",258,"118.csv","","null","resources/maskTrios/BBA2.jpg","null","",NA,NA,NA,NA,""
"image-keyboard-response",419,454963,"0.0-4.135-2.135","uwxv6k3egpqexz3",258,"118.csv","","null","resources/images/coin2.png","null","",NA,NA,NA,NA,""
"image-keyboard-response",420,458819,"0.0-4.136-0.136","uwxv6k3egpqexz3",258,"118.csv","","3855.399999976158","resources/trios/L4T2A2.jpg","38","restless",0.2,0.4,0.7,0.583849874465001,"false"
"image-keyboard-response",421,459229,"0.0-4.136-1.136","uwxv6k3egpqexz3",258,"118.csv","","null","resources/maskTrios/BT2B.jpg","null","",NA,NA,NA,NA,""
"image-keyboard-response",422,460440,"0.0-4.136-2.136","uwxv6k3egpqexz3",258,"118.csv","","null","resources/images/fishbone.png","null","",NA,NA,NA,NA,""
"image-keyboard-response",423,460972,"0.0-4.137-0.137","uwxv6k3egpqexz3",258,"118.csv","","531.6999999284744","resources/trios/L4T2A2.jpg","39","restless",0.2,0.4,0.8,0.201875321485126,"true"
"image-keyboard-response",424,461379,"0.0-4.137-1.137","uwxv6k3egpqexz3",258,"118.csv","","null","resources/maskTrios/BBA2.jpg","null","",NA,NA,NA,NA,""
"image-keyboard-response",425,462580,"0.0-4.137-2.137","uwxv6k3egpqexz3",258,"118.csv","","null","resources/images/coin2.png","null","",NA,NA,NA,NA,""
"image-keyboard-response",426,463060,"0.0-4.138-0.138","uwxv6k3egpqexz3",258,"118.csv","","478.7000000476837","resources/trios/L4T2A2.jpg","39","restless",0.2,0.3,0.8,0.722676513228264,"true"
"image-keyboard-response",427,463473,"0.0-4.138-1.138","uwxv6k3egpqexz3",258,"118.csv","","null","resources/maskTrios/BBA2.jpg","null","",NA,NA,NA,NA,""
"image-keyboard-response",428,464681,"0.0-4.138-2.138","uwxv6k3egpqexz3",258,"118.csv","","null","resources/images/coin2.png","null","",NA,NA,NA,NA,""
"image-keyboard-response",429,465836,"0.0-4.139-0.139","uwxv6k3egpqexz3",258,"118.csv","","1153.5","resources/trios/L4T2A2.jpg","39","restless",0.2,0.3,0.8,0.35870836576459,"true"
"image-keyboard-response",430,466240,"0.0-4.139-1.139","uwxv6k3egpqexz3",258,"118.csv","","null","resources/maskTrios/BBA2.jpg","null","",NA,NA,NA,NA,""
"image-keyboard-response",431,467442,"0.0-4.139-2.139","uwxv6k3egpqexz3",258,"118.csv","","null","resources/images/coin2.png","null","",NA,NA,NA,NA,""
"image-keyboard-response",432,467924,"0.0-4.140-0.140","uwxv6k3egpqexz3",258,"118.csv","","481","resources/trios/L4T2A2.jpg","39","restless",0.2,0.3,0.8,0.148832662352795,"true"
"image-keyboard-response",433,468331,"0.0-4.140-1.140","uwxv6k3egpqexz3",258,"118.csv","","null","resources/maskTrios/BBA2.jpg","null","",NA,NA,NA,NA,""
"image-keyboard-response",434,469540,"0.0-4.140-2.140","uwxv6k3egpqexz3",258,"118.csv","","null","resources/images/coin2.png","null","",NA,NA,NA,NA,""
"image-keyboard-response",435,470132,"0.0-4.141-0.141","uwxv6k3egpqexz3",258,"118.csv","","590.8999999761581","resources/trios/L4T2A2.jpg","39","restless",0.2,0.3,0.9,0.0530342640658246,"true"
"image-keyboard-response",436,470541,"0.0-4.141-1.141","uwxv6k3egpqexz3",258,"118.csv","","null","resources/maskTrios/BBA2.jpg","null","",NA,NA,NA,NA,""
"image-keyboard-response",437,471748,"0.0-4.141-2.141","uwxv6k3egpqexz3",258,"118.csv","","null","resources/images/coin2.png","null","",NA,NA,NA,NA,""
"image-keyboard-response",438,472179,"0.0-4.142-0.142","uwxv6k3egpqexz3",258,"118.csv","","430.39999997615814","resources/trios/L4T2A2.jpg","39","restless",0.2,0.3,0.9,0.813401321931543,"true"
"image-keyboard-response",439,472581,"0.0-4.142-1.142","uwxv6k3egpqexz3",258,"118.csv","","null","resources/maskTrios/BBA2.jpg","null","",NA,NA,NA,NA,""
"image-keyboard-response",440,473797,"0.0-4.142-2.142","uwxv6k3egpqexz3",258,"118.csv","","null","resources/images/coin2.png","null","",NA,NA,NA,NA,""
"image-keyboard-response",441,474300,"0.0-4.143-0.143","uwxv6k3egpqexz3",258,"118.csv","","501.89999997615814","resources/trios/L4T2A2.jpg","39","restless",0.2,0.3,0.9,0.998465542207441,"false"
"image-keyboard-response",442,474705,"0.0-4.143-1.143","uwxv6k3egpqexz3",258,"118.csv","","null","resources/maskTrios/BBA2.jpg","null","",NA,NA,NA,NA,""
"image-keyboard-response",443,475906,"0.0-4.143-2.143","uwxv6k3egpqexz3",258,"118.csv","","null","resources/images/fishbone.png","null","",NA,NA,NA,NA,""
"image-keyboard-response",444,477244,"0.0-4.144-0.144","uwxv6k3egpqexz3",258,"118.csv","","1336.6000000238419","resources/trios/L4T2A2.jpg","37","restless",0.2,0.3,0.9,0.768355420366455,"false"
"image-keyboard-response",445,477646,"0.0-4.144-1.144","uwxv6k3egpqexz3",258,"118.csv","","null","resources/maskTrios/L4BB.jpg","null","",NA,NA,NA,NA,""
"image-keyboard-response",446,478851,"0.0-4.144-2.144","uwxv6k3egpqexz3",258,"118.csv","","null","resources/images/fishbone.png","null","",NA,NA,NA,NA,""
"image-keyboard-response",447,479460,"0.0-4.145-0.145","uwxv6k3egpqexz3",258,"118.csv","","607.7999999523163","resources/trios/L4T2A2.jpg","37","restless",0.2,0.3,0.9,0.785253176167805,"false"
"image-keyboard-response",448,479863,"0.0-4.145-1.145","uwxv6k3egpqexz3",258,"118.csv","","null","resources/maskTrios/L4BB.jpg","null","",NA,NA,NA,NA,""
"image-keyboard-response",449,481073,"0.0-4.145-2.145","uwxv6k3egpqexz3",258,"118.csv","","null","resources/images/fishbone.png","null","",NA,NA,NA,NA,""
"image-keyboard-response",450,482531,"0.0-4.146-0.146","uwxv6k3egpqexz3",258,"118.csv","","1457.5999999046326","resources/trios/L4T2A2.jpg","38","restless",0.2,0.2,0.9,0.250933095478211,"false"
"image-keyboard-response",451,482939,"0.0-4.146-1.146","uwxv6k3egpqexz3",258,"118.csv","","null","resources/maskTrios/BT2B.jpg","null","",NA,NA,NA,NA,""
"image-keyboard-response",452,484150,"0.0-4.146-2.146","uwxv6k3egpqexz3",258,"118.csv","","null","resources/images/fishbone.png","null","",NA,NA,NA,NA,""
"image-keyboard-response",453,484540,"0.0-4.147-0.147","uwxv6k3egpqexz3",258,"118.csv","","388.90000009536743","resources/trios/L4T2A2.jpg","39","restless",0.2,0.2,0.9,0.625368771814406,"true"
"image-keyboard-response",454,484952,"0.0-4.147-1.147","uwxv6k3egpqexz3",258,"118.csv","","null","resources/maskTrios/BBA2.jpg","null","",NA,NA,NA,NA,""
"image-keyboard-response",455,486162,"0.0-4.147-2.147","uwxv6k3egpqexz3",258,"118.csv","","null","resources/images/coin2.png","null","",NA,NA,NA,NA,""
"image-keyboard-response",456,486579,"0.0-4.148-0.148","uwxv6k3egpqexz3",258,"118.csv","","416.2999999523163","resources/trios/L4T2A2.jpg","39","restless",0.2,0.2,0.9,0.225316639408721,"true"
"image-keyboard-response",457,486984,"0.0-4.148-1.148","uwxv6k3egpqexz3",258,"118.csv","","null","resources/maskTrios/BBA2.jpg","null","",NA,NA,NA,NA,""
"image-keyboard-response",458,488191,"0.0-4.148-2.148","uwxv6k3egpqexz3",258,"118.csv","","null","resources/images/coin2.png","null","",NA,NA,NA,NA,""
"image-keyboard-response",459,488595,"0.0-4.149-0.149","uwxv6k3egpqexz3",258,"118.csv","","403.10000002384186","resources/trios/L4T2A2.jpg","39","restless",0.2,0.2,0.9,0.121587062931481,"true"
"image-keyboard-response",460,489005,"0.0-4.149-1.149","uwxv6k3egpqexz3",258,"118.csv","","null","resources/maskTrios/BBA2.jpg","null","",NA,NA,NA,NA,""
"image-keyboard-response",461,490210,"0.0-4.149-2.149","uwxv6k3egpqexz3",258,"118.csv","","null","resources/images/coin2.png","null","",NA,NA,NA,NA,""
"image-keyboard-response",462,490628,"0.0-4.150-0.150","uwxv6k3egpqexz3",258,"118.csv","","416.8000000715256","resources/trios/L4T2A2.jpg","39","restless",0.2,0.3,0.9,0.607552239907683,"true"
"image-keyboard-response",463,491038,"0.0-4.150-1.150","uwxv6k3egpqexz3",258,"118.csv","","null","resources/maskTrios/BBA2.jpg","null","",NA,NA,NA,NA,""
"image-keyboard-response",464,492241,"0.0-4.150-2.150","uwxv6k3egpqexz3",258,"118.csv","","null","resources/images/coin2.png","null","",NA,NA,NA,NA,""
"image-keyboard-response",465,492651,"0.0-4.151-0.151","uwxv6k3egpqexz3",258,"118.csv","","409.3000000715256","resources/trios/L4T2A2.jpg","39","restless",0.2,0.3,0.9,0.040017459497661,"true"
"image-keyboard-response",466,493065,"0.0-4.151-1.151","uwxv6k3egpqexz3",258,"118.csv","","null","resources/maskTrios/BBA2.jpg","null","",NA,NA,NA,NA,""
"image-keyboard-response",467,494279,"0.0-4.151-2.151","uwxv6k3egpqexz3",258,"118.csv","","null","resources/images/coin2.png","null","",NA,NA,NA,NA,""
"image-keyboard-response",468,494667,"0.0-4.152-0.152","uwxv6k3egpqexz3",258,"118.csv","","387.5","resources/trios/L4T2A2.jpg","39","restless",0.2,0.3,0.9,0.95987421412418,"false"
"image-keyboard-response",469,495072,"0.0-4.152-1.152","uwxv6k3egpqexz3",258,"118.csv","","null","resources/maskTrios/BBA2.jpg","null","",NA,NA,NA,NA,""
"image-keyboard-response",470,496289,"0.0-4.152-2.152","uwxv6k3egpqexz3",258,"118.csv","","null","resources/images/fishbone.png","null","",NA,NA,NA,NA,""
"image-keyboard-response",471,496875,"0.0-4.153-0.153","uwxv6k3egpqexz3",258,"118.csv","","585","resources/trios/L4T2A2.jpg","38","restless",0.2,0.3,0.9,0.0384080057122207,"true"
"image-keyboard-response",472,497284,"0.0-4.153-1.153","uwxv6k3egpqexz3",258,"118.csv","","null","resources/maskTrios/BT2B.jpg","null","",NA,NA,NA,NA,""
"image-keyboard-response",473,498499,"0.0-4.153-2.153","uwxv6k3egpqexz3",258,"118.csv","","null","resources/images/coin2.png","null","",NA,NA,NA,NA,""
"image-keyboard-response",474,498875,"0.0-4.154-0.154","uwxv6k3egpqexz3",258,"118.csv","","374.7999999523163","resources/trios/L4T2A2.jpg","38","restless",0.3,0.3,0.9,0.962043234145695,"false"
"image-keyboard-response",475,499282,"0.0-4.154-1.154","uwxv6k3egpqexz3",258,"118.csv","","null","resources/maskTrios/BT2B.jpg","null","",NA,NA,NA,NA,""
"image-keyboard-response",476,500497,"0.0-4.154-2.154","uwxv6k3egpqexz3",258,"118.csv","","null","resources/images/fishbone.png","null","",NA,NA,NA,NA,""
"image-keyboard-response",477,501547,"0.0-4.155-0.155","uwxv6k3egpqexz3",258,"118.csv","","1049.6000000238419","resources/trios/L4T2A2.jpg","37","restless",0.3,0.3,0.9,0.806108262398604,"false"
"image-keyboard-response",478,501953,"0.0-4.155-1.155","uwxv6k3egpqexz3",258,"118.csv","","null","resources/maskTrios/L4BB.jpg","null","",NA,NA,NA,NA,""
"image-keyboard-response",479,503169,"0.0-4.155-2.155","uwxv6k3egpqexz3",258,"118.csv","","null","resources/images/fishbone.png","null","",NA,NA,NA,NA,""
"image-keyboard-response",480,503739,"0.0-4.156-0.156","uwxv6k3egpqexz3",258,"118.csv","","569.4000000953674","resources/trios/L4T2A2.jpg","39","restless",0.3,0.3,0.9,0.789106967445181,"true"
"image-keyboard-response",481,504141,"0.0-4.156-1.156","uwxv6k3egpqexz3",258,"118.csv","","null","resources/maskTrios/BBA2.jpg","null","",NA,NA,NA,NA,""
"image-keyboard-response",482,505356,"0.0-4.156-2.156","uwxv6k3egpqexz3",258,"118.csv","","null","resources/images/coin2.png","null","",NA,NA,NA,NA,""
"image-keyboard-response",483,505795,"0.0-4.157-0.157","uwxv6k3egpqexz3",258,"118.csv","","438.5","resources/trios/L4T2A2.jpg","39","restless",0.3,0.3,0.9,0.968768391686268,"false"
"image-keyboard-response",484,506205,"0.0-4.157-1.157","uwxv6k3egpqexz3",258,"118.csv","","null","resources/maskTrios/BBA2.jpg","null","",NA,NA,NA,NA,""
"image-keyboard-response",485,507421,"0.0-4.157-2.157","uwxv6k3egpqexz3",258,"118.csv","","null","resources/images/fishbone.png","null","",NA,NA,NA,NA,""
"image-keyboard-response",486,508979,"0.0-4.158-0.158","uwxv6k3egpqexz3",258,"118.csv","","1556.7999999523163","resources/trios/L4T2A2.jpg","37","restless",0.3,0.3,0.9,0.667224470022866,"false"
"image-keyboard-response",487,509393,"0.0-4.158-1.158","uwxv6k3egpqexz3",258,"118.csv","","null","resources/maskTrios/L4BB.jpg","null","",NA,NA,NA,NA,""
"image-keyboard-response",488,510599,"0.0-4.158-2.158","uwxv6k3egpqexz3",258,"118.csv","","null","resources/images/fishbone.png","null","",NA,NA,NA,NA,""
"image-keyboard-response",489,511011,"0.0-4.159-0.159","uwxv6k3egpqexz3",258,"118.csv","","411.10000002384186","resources/trios/L4T2A2.jpg","38","restless",0.4,0.3,0.9,0.156470467552239,"true"
"image-keyboard-response",490,511423,"0.0-4.159-1.159","uwxv6k3egpqexz3",258,"118.csv","","null","resources/maskTrios/BT2B.jpg","null","",NA,NA,NA,NA,""
"image-keyboard-response",491,512633,"0.0-4.159-2.159","uwxv6k3egpqexz3",258,"118.csv","","null","resources/images/coin2.png","null","",NA,NA,NA,NA,""
"image-keyboard-response",492,512971,"0.0-4.160-0.160","uwxv6k3egpqexz3",258,"118.csv","","336.60000002384186","resources/trios/L4T2A2.jpg","38","restless",0.5,0.3,0.9,0.0662457690663951,"true"
"image-keyboard-response",493,513382,"0.0-4.160-1.160","uwxv6k3egpqexz3",258,"118.csv","","null","resources/maskTrios/BT2B.jpg","null","",NA,NA,NA,NA,""
"image-keyboard-response",494,514597,"0.0-4.160-2.160","uwxv6k3egpqexz3",258,"118.csv","","null","resources/images/coin2.png","null","",NA,NA,NA,NA,""
"image-keyboard-response",495,515003,"0.0-4.161-0.161","uwxv6k3egpqexz3",258,"118.csv","","404.6999999284744","resources/trios/L4T2A2.jpg","38","restless",0.5,0.3,0.9,0.156641440516339,"true"
"image-keyboard-response",496,515419,"0.0-4.161-1.161","uwxv6k3egpqexz3",258,"118.csv","","null","resources/maskTrios/BT2B.jpg","null","",NA,NA,NA,NA,""
"image-keyboard-response",497,516622,"0.0-4.161-2.161","uwxv6k3egpqexz3",258,"118.csv","","null","resources/images/coin2.png","null","",NA,NA,NA,NA,""
"image-keyboard-response",498,517123,"0.0-4.162-0.162","uwxv6k3egpqexz3",258,"118.csv","","500.5","resources/trios/L4T2A2.jpg","38","restless",0.5,0.3,0.9,0.921143050938382,"false"
"image-keyboard-response",499,517536,"0.0-4.162-1.162","uwxv6k3egpqexz3",258,"118.csv","","null","resources/maskTrios/BT2B.jpg","null","",NA,NA,NA,NA,""
"image-keyboard-response",500,518744,"0.0-4.162-2.162","uwxv6k3egpqexz3",258,"118.csv","","null","resources/images/fishbone.png","null","",NA,NA,NA,NA,""
"image-keyboard-response",501,519387,"0.0-4.163-0.163","uwxv6k3egpqexz3",258,"118.csv","","642.5","resources/trios/L4T2A2.jpg","37","restless",0.5,0.3,0.8,0.973366758037051,"false"
"image-keyboard-response",502,519796,"0.0-4.163-1.163","uwxv6k3egpqexz3",258,"118.csv","","null","resources/maskTrios/L4BB.jpg","null","",NA,NA,NA,NA,""
"image-keyboard-response",503,521009,"0.0-4.163-2.163","uwxv6k3egpqexz3",258,"118.csv","","null","resources/images/fishbone.png","null","",NA,NA,NA,NA,""
"image-keyboard-response",504,521699,"0.0-4.164-0.164","uwxv6k3egpqexz3",258,"118.csv","","689.3000000715256","resources/trios/L4T2A2.jpg","39","restless",0.5,0.3,0.8,0.20344744634379,"true"
"image-keyboard-response",505,522114,"0.0-4.164-1.164","uwxv6k3egpqexz3",258,"118.csv","","null","resources/maskTrios/BBA2.jpg","null","",NA,NA,NA,NA,""
"image-keyboard-response",506,523320,"0.0-4.164-2.164","uwxv6k3egpqexz3",258,"118.csv","","null","resources/images/coin2.png","null","",NA,NA,NA,NA,""
"image-keyboard-response",507,523779,"0.0-4.165-0.165","uwxv6k3egpqexz3",258,"118.csv","","458.89999997615814","resources/trios/L4T2A2.jpg","39","restless",0.5,0.3,0.8,0.109892900650807,"true"
"image-keyboard-response",508,524189,"0.0-4.165-1.165","uwxv6k3egpqexz3",258,"118.csv","","null","resources/maskTrios/BBA2.jpg","null","",NA,NA,NA,NA,""
"image-keyboard-response",509,525395,"0.0-4.165-2.165","uwxv6k3egpqexz3",258,"118.csv","","null","resources/images/coin2.png","null","",NA,NA,NA,NA,""
"image-keyboard-response",510,525883,"0.0-4.166-0.166","uwxv6k3egpqexz3",258,"118.csv","","487.7000000476837","resources/trios/L4T2A2.jpg","39","restless",0.5,0.3,0.7,0.568331604952745,"true"
"image-keyboard-response",511,526299,"0.0-4.166-1.166","uwxv6k3egpqexz3",258,"118.csv","","null","resources/maskTrios/BBA2.jpg","null","",NA,NA,NA,NA,""
"image-keyboard-response",512,527507,"0.0-4.166-2.166","uwxv6k3egpqexz3",258,"118.csv","","null","resources/images/coin2.png","null","",NA,NA,NA,NA,""
"image-keyboard-response",513,527923,"0.0-4.167-0.167","uwxv6k3egpqexz3",258,"118.csv","","415.2000000476837","resources/trios/L4T2A2.jpg","39","restless",0.5,0.4,0.7,0.117867601526707,"true"
"image-keyboard-response",514,528330,"0.0-4.167-1.167","uwxv6k3egpqexz3",258,"118.csv","","null","resources/maskTrios/BBA2.jpg","null","",NA,NA,NA,NA,""
"image-keyboard-response",515,529537,"0.0-4.167-2.167","uwxv6k3egpqexz3",258,"118.csv","","null","resources/images/coin2.png","null","",NA,NA,NA,NA,""
"image-keyboard-response",516,529883,"0.0-4.168-0.168","uwxv6k3egpqexz3",258,"118.csv","","344.7999999523163","resources/trios/L4T2A2.jpg","39","restless",0.5,0.4,0.7,0.778377134177979,"false"
"image-keyboard-response",517,530297,"0.0-4.168-1.168","uwxv6k3egpqexz3",258,"118.csv","","null","resources/maskTrios/BBA2.jpg","null","",NA,NA,NA,NA,""
"image-keyboard-response",518,531506,"0.0-4.168-2.168","uwxv6k3egpqexz3",258,"118.csv","","null","resources/images/fishbone.png","null","",NA,NA,NA,NA,""
"image-keyboard-response",519,531531,"0.0-4.169-0.169","uwxv6k3egpqexz3",258,"118.csv","","23.800000071525574","resources/trios/L4T2A2.jpg","38","restless",0.5,0.4,0.7,0.689949656903746,"false"
"image-keyboard-response",520,531941,"0.0-4.169-1.169","uwxv6k3egpqexz3",258,"118.csv","","null","resources/maskTrios/BT2B.jpg","null","",NA,NA,NA,NA,""
"image-keyboard-response",521,533150,"0.0-4.169-2.169","uwxv6k3egpqexz3",258,"118.csv","","null","resources/images/fishbone.png","null","",NA,NA,NA,NA,""
"image-keyboard-response",522,533563,"0.0-4.170-0.170","uwxv6k3egpqexz3",258,"118.csv","","411.59999990463257","resources/trios/L4T2A2.jpg","37","restless",0.6,0.4,0.7,0.203427571883386,"true"
"image-keyboard-response",523,533977,"0.0-4.170-1.170","uwxv6k3egpqexz3",258,"118.csv","","null","resources/maskTrios/L4BB.jpg","null","",NA,NA,NA,NA,""
"image-keyboard-response",524,535192,"0.0-4.170-2.170","uwxv6k3egpqexz3",258,"118.csv","","null","resources/images/coin2.png","null","",NA,NA,NA,NA,""
"image-keyboard-response",525,535627,"0.0-4.171-0.171","uwxv6k3egpqexz3",258,"118.csv","","433.89999997615814","resources/trios/L4T2A2.jpg","37","restless",0.6,0.4,0.7,0.574630941349957,"true"
"image-keyboard-response",526,536032,"0.0-4.171-1.171","uwxv6k3egpqexz3",258,"118.csv","","null","resources/maskTrios/L4BB.jpg","null","",NA,NA,NA,NA,""
"image-keyboard-response",527,537237,"0.0-4.171-2.171","uwxv6k3egpqexz3",258,"118.csv","","null","resources/images/coin2.png","null","",NA,NA,NA,NA,""
"image-keyboard-response",528,538659,"0.0-4.172-0.172","uwxv6k3egpqexz3",258,"118.csv","","1421.6000000238419","resources/trios/L4T2A2.jpg","38","restless",0.6,0.4,0.6,0.227626628557681,"true"
"image-keyboard-response",529,539074,"0.0-4.172-1.172","uwxv6k3egpqexz3",258,"118.csv","","null","resources/maskTrios/BT2B.jpg","null","",NA,NA,NA,NA,""
"image-keyboard-response",530,540277,"0.0-4.172-2.172","uwxv6k3egpqexz3",258,"118.csv","","null","resources/images/coin2.png","null","",NA,NA,NA,NA,""
"image-keyboard-response",531,540803,"0.0-4.173-0.173","uwxv6k3egpqexz3",258,"118.csv","","524.5","resources/trios/L4T2A2.jpg","38","restless",0.6,0.4,0.6,0.675383786125252,"false"
"image-keyboard-response",532,541209,"0.0-4.173-1.173","uwxv6k3egpqexz3",258,"118.csv","","null","resources/maskTrios/BT2B.jpg","null","",NA,NA,NA,NA,""
"image-keyboard-response",533,542423,"0.0-4.173-2.173","uwxv6k3egpqexz3",258,"118.csv","","null","resources/images/fishbone.png","null","",NA,NA,NA,NA,""
"image-keyboard-response",534,543019,"0.0-4.174-0.174","uwxv6k3egpqexz3",258,"118.csv","","595.2000000476837","resources/trios/L4T2A2.jpg","39","restless",0.6,0.5,0.6,0.225774866121933,"true"
"image-keyboard-response",535,543424,"0.0-4.174-1.174","uwxv6k3egpqexz3",258,"118.csv","","null","resources/maskTrios/BBA2.jpg","null","",NA,NA,NA,NA,""
"image-keyboard-response",536,544637,"0.0-4.174-2.174","uwxv6k3egpqexz3",258,"118.csv","","null","resources/images/coin2.png","null","",NA,NA,NA,NA,""
"image-keyboard-response",537,545123,"0.0-4.175-0.175","uwxv6k3egpqexz3",258,"118.csv","","484.8000000715256","resources/trios/L4T2A2.jpg","39","restless",0.6,0.5,0.6,0.716478060386298,"false"
"image-keyboard-response",538,545530,"0.0-4.175-1.175","uwxv6k3egpqexz3",258,"118.csv","","null","resources/maskTrios/BBA2.jpg","null","",NA,NA,NA,NA,""
"image-keyboard-response",539,546741,"0.0-4.175-2.175","uwxv6k3egpqexz3",258,"118.csv","","null","resources/images/fishbone.png","null","",NA,NA,NA,NA,""
"image-keyboard-response",540,547523,"0.0-4.176-0.176","uwxv6k3egpqexz3",258,"118.csv","","780.5","resources/trios/L4T2A2.jpg","38","restless",0.5,0.5,0.6,0.952587807859242,"false"
"image-keyboard-response",541,547928,"0.0-4.176-1.176","uwxv6k3egpqexz3",258,"118.csv","","null","resources/maskTrios/BT2B.jpg","null","",NA,NA,NA,NA,""
"image-keyboard-response",542,549137,"0.0-4.176-2.176","uwxv6k3egpqexz3",258,"118.csv","","null","resources/images/fishbone.png","null","",NA,NA,NA,NA,""
"image-keyboard-response",543,549747,"0.0-4.177-0.177","uwxv6k3egpqexz3",258,"118.csv","","609.1999999284744","resources/trios/L4T2A2.jpg","39","restless",0.6,0.4,0.6,0.269978596750892,"true"
"image-keyboard-response",544,550155,"0.0-4.177-1.177","uwxv6k3egpqexz3",258,"118.csv","","null","resources/maskTrios/BBA2.jpg","null","",NA,NA,NA,NA,""
"image-keyboard-response",545,551363,"0.0-4.177-2.177","uwxv6k3egpqexz3",258,"118.csv","","null","resources/images/coin2.png","null","",NA,NA,NA,NA,""
"image-keyboard-response",546,551755,"0.0-4.178-0.178","uwxv6k3egpqexz3",258,"118.csv","","390.89999997615814","resources/trios/L4T2A2.jpg","39","restless",0.6,0.4,0.6,0.493534275092075,"true"
"image-keyboard-response",547,552162,"0.0-4.178-1.178","uwxv6k3egpqexz3",258,"118.csv","","null","resources/maskTrios/BBA2.jpg","null","",NA,NA,NA,NA,""
"image-keyboard-response",548,553366,"0.0-4.178-2.178","uwxv6k3egpqexz3",258,"118.csv","","null","resources/images/coin2.png","null","",NA,NA,NA,NA,""
"image-keyboard-response",549,553842,"0.0-4.179-0.179","uwxv6k3egpqexz3",258,"118.csv","","475.60000002384186","resources/trios/L4T2A2.jpg","39","restless",0.6,0.4,0.6,0.0178912327308951,"true"
"image-keyboard-response",550,554256,"0.0-4.179-1.179","uwxv6k3egpqexz3",258,"118.csv","","null","resources/maskTrios/BBA2.jpg","null","",NA,NA,NA,NA,""
"image-keyboard-response",551,555465,"0.0-4.179-2.179","uwxv6k3egpqexz3",258,"118.csv","","null","resources/images/coin2.png","null","",NA,NA,NA,NA,""
"image-keyboard-response",552,555923,"0.0-4.180-0.180","uwxv6k3egpqexz3",258,"118.csv","","457.10000002384186","resources/trios/L4T2A2.jpg","39","restless",0.6,0.4,0.6,0.675986859761594,"false"
"image-keyboard-response",553,556326,"0.0-4.180-1.180","uwxv6k3egpqexz3",258,"118.csv","","null","resources/maskTrios/BBA2.jpg","null","",NA,NA,NA,NA,""
"image-keyboard-response",554,557537,"0.0-4.180-2.180","uwxv6k3egpqexz3",258,"118.csv","","null","resources/images/fishbone.png","null","",NA,NA,NA,NA,""
"image-keyboard-response",555,558026,"0.0-4.181-0.181","uwxv6k3egpqexz3",258,"118.csv","","488.7000000476837","resources/trios/L4T2A2.jpg","37","restless",0.5,0.4,0.6,0.864337177096691,"false"
"image-keyboard-response",556,558442,"0.0-4.181-1.181","uwxv6k3egpqexz3",258,"118.csv","","null","resources/maskTrios/L4BB.jpg","null","",NA,NA,NA,NA,""
"image-keyboard-response",557,559646,"0.0-4.181-2.181","uwxv6k3egpqexz3",258,"118.csv","","null","resources/images/fishbone.png","null","",NA,NA,NA,NA,""
"image-keyboard-response",558,560226,"0.0-4.182-0.182","uwxv6k3egpqexz3",258,"118.csv","","578.8999999761581","resources/trios/L4T2A2.jpg","38","restless",0.5,0.5,0.6,0.225695462377935,"true"
"image-keyboard-response",559,560632,"0.0-4.182-1.182","uwxv6k3egpqexz3",258,"118.csv","","null","resources/maskTrios/BT2B.jpg","null","",NA,NA,NA,NA,""
"image-keyboard-response",560,561847,"0.0-4.182-2.182","uwxv6k3egpqexz3",258,"118.csv","","null","resources/images/coin2.png","null","",NA,NA,NA,NA,""
"image-keyboard-response",561,562346,"0.0-4.183-0.183","uwxv6k3egpqexz3",258,"118.csv","","498.10000002384186","resources/trios/L4T2A2.jpg","38","restless",0.5,0.5,0.6,0.719361803558183,"false"
"image-keyboard-response",562,562754,"0.0-4.183-1.183","uwxv6k3egpqexz3",258,"118.csv","","null","resources/maskTrios/BT2B.jpg","null","",NA,NA,NA,NA,""
"image-keyboard-response",563,563960,"0.0-4.183-2.183","uwxv6k3egpqexz3",258,"118.csv","","null","resources/images/fishbone.png","null","",NA,NA,NA,NA,""
"image-keyboard-response",564,567330,"0.0-4.184-0.184","uwxv6k3egpqexz3",258,"118.csv","","3369.399999976158","resources/trios/L4T2A2.jpg","37","restless",0.5,0.5,0.6,0.36198735831037,"true"
"image-keyboard-response",565,567733,"0.0-4.184-1.184","uwxv6k3egpqexz3",258,"118.csv","","null","resources/maskTrios/L4BB.jpg","null","",NA,NA,NA,NA,""
"image-keyboard-response",566,568943,"0.0-4.184-2.184","uwxv6k3egpqexz3",258,"118.csv","","null","resources/images/coin2.png","null","",NA,NA,NA,NA,""
"image-keyboard-response",567,569490,"0.0-4.185-0.185","uwxv6k3egpqexz3",258,"118.csv","","546","resources/trios/L4T2A2.jpg","37","restless",0.5,0.5,0.6,0.487123955762127,"true"
"image-keyboard-response",568,569903,"0.0-4.185-1.185","uwxv6k3egpqexz3",258,"118.csv","","null","resources/maskTrios/L4BB.jpg","null","",NA,NA,NA,NA,""
"image-keyboard-response",569,571115,"0.0-4.185-2.185","uwxv6k3egpqexz3",258,"118.csv","","null","resources/images/coin2.png","null","",NA,NA,NA,NA,""
"image-keyboard-response",570,571618,"0.0-4.186-0.186","uwxv6k3egpqexz3",258,"118.csv","","502","resources/trios/L4T2A2.jpg","37","restless",0.5,0.5,0.6,0.234682860418393,"true"
"image-keyboard-response",571,572027,"0.0-4.186-1.186","uwxv6k3egpqexz3",258,"118.csv","","null","resources/maskTrios/L4BB.jpg","null","",NA,NA,NA,NA,""
"image-keyboard-response",572,573239,"0.0-4.186-2.186","uwxv6k3egpqexz3",258,"118.csv","","null","resources/images/coin2.png","null","",NA,NA,NA,NA,""
"image-keyboard-response",573,573754,"0.0-4.187-0.187","uwxv6k3egpqexz3",258,"118.csv","","514.3999999761581","resources/trios/L4T2A2.jpg","37","restless",0.5,0.5,0.6,0.433578450436366,"true"
"image-keyboard-response",574,574160,"0.0-4.187-1.187","uwxv6k3egpqexz3",258,"118.csv","","null","resources/maskTrios/L4BB.jpg","null","",NA,NA,NA,NA,""
"image-keyboard-response",575,575366,"0.0-4.187-2.187","uwxv6k3egpqexz3",258,"118.csv","","null","resources/images/coin2.png","null","",NA,NA,NA,NA,""
"image-keyboard-response",576,575826,"0.0-4.188-0.188","uwxv6k3egpqexz3",258,"118.csv","","459.10000002384186","resources/trios/L4T2A2.jpg","37","restless",0.5,0.5,0.6,0.889680058817913,"false"
"image-keyboard-response",577,576239,"0.0-4.188-1.188","uwxv6k3egpqexz3",258,"118.csv","","null","resources/maskTrios/L4BB.jpg","null","",NA,NA,NA,NA,""
"image-keyboard-response",578,577450,"0.0-4.188-2.188","uwxv6k3egpqexz3",258,"118.csv","","null","resources/images/fishbone.png","null","",NA,NA,NA,NA,""
"image-keyboard-response",579,578058,"0.0-4.189-0.189","uwxv6k3egpqexz3",258,"118.csv","","606.8000000715256","resources/trios/L4T2A2.jpg","39","restless",0.5,0.4,0.6,0.356869122231416,"true"
"image-keyboard-response",580,578466,"0.0-4.189-1.189","uwxv6k3egpqexz3",258,"118.csv","","null","resources/maskTrios/BBA2.jpg","null","",NA,NA,NA,NA,""
"image-keyboard-response",581,579674,"0.0-4.189-2.189","uwxv6k3egpqexz3",258,"118.csv","","null","resources/images/coin2.png","null","",NA,NA,NA,NA,""
"image-keyboard-response",582,580202,"0.0-4.190-0.190","uwxv6k3egpqexz3",258,"118.csv","","526.7000000476837","resources/trios/L4T2A2.jpg","39","restless",0.5,0.3,0.6,0.513320457060474,"true"
"image-keyboard-response",583,580607,"0.0-4.190-1.190","uwxv6k3egpqexz3",258,"118.csv","","null","resources/maskTrios/BBA2.jpg","null","",NA,NA,NA,NA,""
"image-keyboard-response",584,581823,"0.0-4.190-2.190","uwxv6k3egpqexz3",258,"118.csv","","null","resources/images/coin2.png","null","",NA,NA,NA,NA,""
"image-keyboard-response",585,582330,"0.0-4.191-0.191","uwxv6k3egpqexz3",258,"118.csv","","506.5","resources/trios/L4T2A2.jpg","39","restless",0.5,0.4,0.6,0.897488978484718,"false"
"image-keyboard-response",586,582738,"0.0-4.191-1.191","uwxv6k3egpqexz3",258,"118.csv","","null","resources/maskTrios/BBA2.jpg","null","",NA,NA,NA,NA,""
"image-keyboard-response",587,583941,"0.0-4.191-2.191","uwxv6k3egpqexz3",258,"118.csv","","null","resources/images/fishbone.png","null","",NA,NA,NA,NA,""
"image-keyboard-response",588,584450,"0.0-4.192-0.192","uwxv6k3egpqexz3",258,"118.csv","","507.6999999284744","resources/trios/L4T2A2.jpg","38","restless",0.5,0.4,0.6,0.969855494908708,"false"
"image-keyboard-response",589,584859,"0.0-4.192-1.192","uwxv6k3egpqexz3",258,"118.csv","","null","resources/maskTrios/BT2B.jpg","null","",NA,NA,NA,NA,""
"image-keyboard-response",590,586075,"0.0-4.192-2.192","uwxv6k3egpqexz3",258,"118.csv","","null","resources/images/fishbone.png","null","",NA,NA,NA,NA,""
"image-keyboard-response",591,587067,"0.0-4.193-0.193","uwxv6k3egpqexz3",258,"118.csv","","990.8999999761581","resources/trios/L4T2A2.jpg","37","restless",0.5,0.4,0.6,0.911831667230166,"false"
"image-keyboard-response",592,587480,"0.0-4.193-1.193","uwxv6k3egpqexz3",258,"118.csv","","null","resources/maskTrios/L4BB.jpg","null","",NA,NA,NA,NA,""
"image-keyboard-response",593,588685,"0.0-4.193-2.193","uwxv6k3egpqexz3",258,"118.csv","","null","resources/images/fishbone.png","null","",NA,NA,NA,NA,""
"image-keyboard-response",594,589306,"0.0-4.194-0.194","uwxv6k3egpqexz3",258,"118.csv","","620.3000000715256","resources/trios/L4T2A2.jpg","39","restless",0.5,0.4,0.6,0.0370461831856002,"true"
"image-keyboard-response",595,589710,"0.0-4.194-1.194","uwxv6k3egpqexz3",258,"118.csv","","null","resources/maskTrios/BBA2.jpg","null","",NA,NA,NA,NA,""
"image-keyboard-response",596,590914,"0.0-4.194-2.194","uwxv6k3egpqexz3",258,"118.csv","","null","resources/images/coin2.png","null","",NA,NA,NA,NA,""
"image-keyboard-response",597,591290,"0.0-4.195-0.195","uwxv6k3egpqexz3",258,"118.csv","","374.60000002384186","resources/trios/L4T2A2.jpg","39","restless",0.5,0.4,0.6,0.478236211761386,"true"
"image-keyboard-response",598,591705,"0.0-4.195-1.195","uwxv6k3egpqexz3",258,"118.csv","","null","resources/maskTrios/BBA2.jpg","null","",NA,NA,NA,NA,""
"image-keyboard-response",599,592912,"0.0-4.195-2.195","uwxv6k3egpqexz3",258,"118.csv","","null","resources/images/coin2.png","null","",NA,NA,NA,NA,""
"image-keyboard-response",600,593354,"0.0-4.196-0.196","uwxv6k3egpqexz3",258,"118.csv","","441","resources/trios/L4T2A2.jpg","39","restless",0.5,0.4,0.6,0.419794874995115,"true"
"image-keyboard-response",601,593763,"0.0-4.196-1.196","uwxv6k3egpqexz3",258,"118.csv","","null","resources/maskTrios/BBA2.jpg","null","",NA,NA,NA,NA,""
"image-keyboard-response",602,594978,"0.0-4.196-2.196","uwxv6k3egpqexz3",258,"118.csv","","null","resources/images/coin2.png","null","",NA,NA,NA,NA,""
"image-keyboard-response",603,595442,"0.0-4.197-0.197","uwxv6k3egpqexz3",258,"118.csv","","463.10000002384186","resources/trios/L4T2A2.jpg","39","restless",0.5,0.4,0.6,0.472788370003588,"true"
"image-keyboard-response",604,595854,"0.0-4.197-1.197","uwxv6k3egpqexz3",258,"118.csv","","null","resources/maskTrios/BBA2.jpg","null","",NA,NA,NA,NA,""
"image-keyboard-response",605,597068,"0.0-4.197-2.197","uwxv6k3egpqexz3",258,"118.csv","","null","resources/images/coin2.png","null","",NA,NA,NA,NA,""
"image-keyboard-response",606,597562,"0.0-4.198-0.198","uwxv6k3egpqexz3",258,"118.csv","","493.40000009536743","resources/trios/L4T2A2.jpg","39","restless",0.5,0.4,0.5,0.858345668176107,"false"
"image-keyboard-response",607,597970,"0.0-4.198-1.198","uwxv6k3egpqexz3",258,"118.csv","","null","resources/maskTrios/BBA2.jpg","null","",NA,NA,NA,NA,""
