"trial_type","trial_index","time_elapsed","internal_node_id","subject","participantCode","walkNumber","success","rt","stimulus","key_press","test_part","leftProb","midProb","rightProb","generatedNum","correct"
"pavlovia",0,830,"0.0-0.0","uonx6mb19c91v51",136,"132.csv","","","","","",NA,NA,NA,NA,""
"fullscreen",1,5332,"0.0-1.0","uonx6mb19c91v51",136,"132.csv","true","","","","",NA,NA,NA,NA,""
"survey-html-form",2,16363,"0.0-2.0","uonx6mb19c91v51",136,"132.csv","","11028.5","","","",NA,NA,NA,NA,""
"image-keyboard-response",3,19617,"0.0-3.0-0.0","uonx6mb19c91v51",136,"132.csv","","3252.5","resources/images/parrot_nobg.png","13","",NA,NA,NA,NA,""
"image-keyboard-response",4,22624,"0.0-3.0-1.0","uonx6mb19c91v51",136,"132.csv","","null","resources/image_sets/111.png","null","",NA,NA,NA,NA,""
"image-keyboard-response",5,32205,"0.0-3.0-2.0","uonx6mb19c91v51",136,"132.csv","","9580.5","resources/image_sets/left_highlight.png","37","",NA,NA,NA,NA,""
"image-keyboard-response",6,35297,"0.0-3.0-3.0","uonx6mb19c91v51",136,"132.csv","","3091","resources/image_sets/mid_highlight.png","38","",NA,NA,NA,NA,""
"image-keyboard-response",7,35906,"0.0-3.0-4.0","uonx6mb19c91v51",136,"132.csv","","608.1000000238419","resources/image_sets/right_highlight.png","39","",NA,NA,NA,NA,""
"image-keyboard-response",8,40835,"0.0-3.0-5.0","uonx6mb19c91v51",136,"132.csv","","4928.200000047684","resources/image_sets/111.png","13","",NA,NA,NA,NA,""
"image-keyboard-response",9,41818,"0.0-3.0-6.0","uonx6mb19c91v51",136,"132.csv","","981.3999999761581","resources/images/coin2.png","13","",NA,NA,NA,NA,""
"image-keyboard-response",10,42559,"0.0-3.0-7.0","uonx6mb19c91v51",136,"132.csv","","740.7999999523163","resources/images/fishbone.png","13","",NA,NA,NA,NA,""
"html-keyboard-response",11,43729,"0.0-3.0-8.0","uonx6mb19c91v51",136,"132.csv","","1168.8000000715256","<p>You can track your coin total on the top right of your screen. </p><p>At the end of your journey you will be directed to a survey, so please click on the link before exiting the task</p><p>Press Enter to begin</p>","13","",NA,NA,NA,NA,""
"image-keyboard-response",12,47206,"0.0-4.0-0.0","uonx6mb19c91v51",136,"132.csv","","3475.4000000953674","resources/trios/L1T2A3.jpg","38","restless",0.9,0.3,0.7,0.493415314017126,"false"
"image-keyboard-response",13,47610,"0.0-4.0-1.0","uonx6mb19c91v51",136,"132.csv","","null","resources/maskTrios/BT2B.jpg","null","",NA,NA,NA,NA,""
"image-keyboard-response",14,48814,"0.0-4.0-2.0","uonx6mb19c91v51",136,"132.csv","","null","resources/images/fishbone.png","null","",NA,NA,NA,NA,""
"image-keyboard-response",15,50272,"0.0-4.1-0.1","uonx6mb19c91v51",136,"132.csv","","1456.3999999761581","resources/trios/L1T2A3.jpg","37","restless",0.9,0.3,0.7,0.493974140739472,"true"
"image-keyboard-response",16,50680,"0.0-4.1-1.1","uonx6mb19c91v51",136,"132.csv","","null","resources/maskTrios/L1BB.jpg","null","",NA,NA,NA,NA,""
"image-keyboard-response",17,51889,"0.0-4.1-2.1","uonx6mb19c91v51",136,"132.csv","","null","resources/images/coin2.png","null","",NA,NA,NA,NA,""
"image-keyboard-response",18,52776,"0.0-4.2-0.2","uonx6mb19c91v51",136,"132.csv","","884.5","resources/trios/L1T2A3.jpg","39","restless",0.9,0.3,0.7,0.745983427642801,"false"
"image-keyboard-response",19,53189,"0.0-4.2-1.2","uonx6mb19c91v51",136,"132.csv","","null","resources/maskTrios/BBA3.jpg","null","",NA,NA,NA,NA,""
"image-keyboard-response",20,54396,"0.0-4.2-2.2","uonx6mb19c91v51",136,"132.csv","","null","resources/images/fishbone.png","null","",NA,NA,NA,NA,""
"image-keyboard-response",21,55213,"0.0-4.3-0.3","uonx6mb19c91v51",136,"132.csv","","814.6000000238419","resources/trios/L1T2A3.jpg","38","restless",0.9,0.3,0.7,0.286485253377642,"true"
"image-keyboard-response",22,55624,"0.0-4.3-1.3","uonx6mb19c91v51",136,"132.csv","","null","resources/maskTrios/BT2B.jpg","null","",NA,NA,NA,NA,""
"image-keyboard-response",23,56838,"0.0-4.3-2.3","uonx6mb19c91v51",136,"132.csv","","null","resources/images/coin2.png","null","",NA,NA,NA,NA,""
"image-keyboard-response",24,57874,"0.0-4.4-0.4","uonx6mb19c91v51",136,"132.csv","","1033","resources/trios/L1T2A3.jpg","39","restless",0.9,0.3,0.7,0.954121619904444,"false"
"image-keyboard-response",25,58281,"0.0-4.4-1.4","uonx6mb19c91v51",136,"132.csv","","null","resources/maskTrios/BBA3.jpg","null","",NA,NA,NA,NA,""
"image-keyboard-response",26,59498,"0.0-4.4-2.4","uonx6mb19c91v51",136,"132.csv","","null","resources/images/fishbone.png","null","",NA,NA,NA,NA,""
"image-keyboard-response",27,59765,"0.0-4.5-0.5","uonx6mb19c91v51",136,"132.csv","","264.39999997615814","resources/trios/L1T2A3.jpg","38","restless",0.8,0.3,0.7,0.303951030272789,"false"
"image-keyboard-response",28,60184,"0.0-4.5-1.5","uonx6mb19c91v51",136,"132.csv","","null","resources/maskTrios/BT2B.jpg","null","",NA,NA,NA,NA,""
"image-keyboard-response",29,61393,"0.0-4.5-2.5","uonx6mb19c91v51",136,"132.csv","","null","resources/images/fishbone.png","null","",NA,NA,NA,NA,""
"image-keyboard-response",30,61661,"0.0-4.6-0.6","uonx6mb19c91v51",136,"132.csv","","265","resources/trios/L1T2A3.jpg","37","restless",0.8,0.3,0.7,0.194289849979456,"true"
"image-keyboard-response",31,62069,"0.0-4.6-1.6","uonx6mb19c91v51",136,"132.csv","","null","resources/maskTrios/L1BB.jpg","null","",NA,NA,NA,NA,""
"image-keyboard-response",32,63283,"0.0-4.6-2.6","uonx6mb19c91v51",136,"132.csv","","null","resources/images/coin2.png","null","",NA,NA,NA,NA,""
"image-keyboard-response",33,63631,"0.0-4.7-0.7","uonx6mb19c91v51",136,"132.csv","","345.40000009536743","resources/trios/L1T2A3.jpg","38","restless",0.8,0.3,0.7,0.975982510632625,"false"
"image-keyboard-response",34,64042,"0.0-4.7-1.7","uonx6mb19c91v51",136,"132.csv","","null","resources/maskTrios/BT2B.jpg","null","",NA,NA,NA,NA,""
"image-keyboard-response",35,65256,"0.0-4.7-2.7","uonx6mb19c91v51",136,"132.csv","","null","resources/images/fishbone.png","null","",NA,NA,NA,NA,""
"image-keyboard-response",36,65433,"0.0-4.8-0.8","uonx6mb19c91v51",136,"132.csv","","175.10000002384186","resources/trios/L1T2A3.jpg","39","restless",0.8,0.3,0.7,0.588648384259514,"true"
"image-keyboard-response",37,65837,"0.0-4.8-1.8","uonx6mb19c91v51",136,"132.csv","","null","resources/maskTrios/BBA3.jpg","null","",NA,NA,NA,NA,""
"image-keyboard-response",38,67041,"0.0-4.8-2.8","uonx6mb19c91v51",136,"132.csv","","null","resources/images/coin2.png","null","",NA,NA,NA,NA,""
"image-keyboard-response",39,67436,"0.0-4.9-0.9","uonx6mb19c91v51",136,"132.csv","","393","resources/trios/L1T2A3.jpg","38","restless",0.8,0.4,0.7,0.790022889115574,"false"
"image-keyboard-response",40,67844,"0.0-4.9-1.9","uonx6mb19c91v51",136,"132.csv","","null","resources/maskTrios/BT2B.jpg","null","",NA,NA,NA,NA,""
"image-keyboard-response",41,69049,"0.0-4.9-2.9","uonx6mb19c91v51",136,"132.csv","","null","resources/images/fishbone.png","null","",NA,NA,NA,NA,""
"image-keyboard-response",42,69315,"0.0-4.10-0.10","uonx6mb19c91v51",136,"132.csv","","263.59999990463257","resources/trios/L1T2A3.jpg","37","restless",0.8,0.4,0.7,0.796756525129867,"true"
"image-keyboard-response",43,69728,"0.0-4.10-1.10","uonx6mb19c91v51",136,"132.csv","","null","resources/maskTrios/L1BB.jpg","null","",NA,NA,NA,NA,""
"image-keyboard-response",44,70932,"0.0-4.10-2.10","uonx6mb19c91v51",136,"132.csv","","null","resources/images/coin2.png","null","",NA,NA,NA,NA,""
"image-keyboard-response",45,71190,"0.0-4.11-0.11","uonx6mb19c91v51",136,"132.csv","","255.5","resources/trios/L1T2A3.jpg","38","restless",0.8,0.4,0.7,0.549779438227258,"false"
"image-keyboard-response",46,71591,"0.0-4.11-1.11","uonx6mb19c91v51",136,"132.csv","","null","resources/maskTrios/BT2B.jpg","null","",NA,NA,NA,NA,""
"image-keyboard-response",47,72803,"0.0-4.11-2.11","uonx6mb19c91v51",136,"132.csv","","null","resources/images/fishbone.png","null","",NA,NA,NA,NA,""
"image-keyboard-response",48,73018,"0.0-4.12-0.12","uonx6mb19c91v51",136,"132.csv","","211.60000002384186","resources/trios/L1T2A3.jpg","39","restless",0.8,0.4,0.7,0.596331645798293,"true"
"image-keyboard-response",49,73428,"0.0-4.12-1.12","uonx6mb19c91v51",136,"132.csv","","null","resources/maskTrios/BBA3.jpg","null","",NA,NA,NA,NA,""
"image-keyboard-response",50,74647,"0.0-4.12-2.12","uonx6mb19c91v51",136,"132.csv","","null","resources/images/coin2.png","null","",NA,NA,NA,NA,""
"image-keyboard-response",51,74879,"0.0-4.13-0.13","uonx6mb19c91v51",136,"132.csv","","230.29999995231628","resources/trios/L1T2A3.jpg","39","restless",0.8,0.4,0.7,0.888107491953364,"false"
"image-keyboard-response",52,75283,"0.0-4.13-1.13","uonx6mb19c91v51",136,"132.csv","","null","resources/maskTrios/BBA3.jpg","null","",NA,NA,NA,NA,""
"image-keyboard-response",53,76493,"0.0-4.13-2.13","uonx6mb19c91v51",136,"132.csv","","null","resources/images/fishbone.png","null","",NA,NA,NA,NA,""
"image-keyboard-response",54,76647,"0.0-4.14-0.14","uonx6mb19c91v51",136,"132.csv","","151.30000007152557","resources/trios/L1T2A3.jpg","37","restless",0.8,0.4,0.6,0.52973525365247,"true"
"image-keyboard-response",55,77050,"0.0-4.14-1.14","uonx6mb19c91v51",136,"132.csv","","null","resources/maskTrios/L1BB.jpg","null","",NA,NA,NA,NA,""
"image-keyboard-response",56,78266,"0.0-4.14-2.14","uonx6mb19c91v51",136,"132.csv","","null","resources/images/coin2.png","null","",NA,NA,NA,NA,""
"image-keyboard-response",57,78819,"0.0-4.15-0.15","uonx6mb19c91v51",136,"132.csv","","549.8999999761581","resources/trios/L1T2A3.jpg","38","restless",0.8,0.4,0.6,0.433116143016691,"false"
"image-keyboard-response",58,79223,"0.0-4.15-1.15","uonx6mb19c91v51",136,"132.csv","","null","resources/maskTrios/BT2B.jpg","null","",NA,NA,NA,NA,""
"image-keyboard-response",59,80430,"0.0-4.15-2.15","uonx6mb19c91v51",136,"132.csv","","null","resources/images/fishbone.png","null","",NA,NA,NA,NA,""
"image-keyboard-response",60,80688,"0.0-4.16-0.16","uonx6mb19c91v51",136,"132.csv","","255.29999995231628","resources/trios/L1T2A3.jpg","37","restless",0.8,0.4,0.6,0.310950318903523,"true"
"image-keyboard-response",61,81095,"0.0-4.16-1.16","uonx6mb19c91v51",136,"132.csv","","null","resources/maskTrios/L1BB.jpg","null","",NA,NA,NA,NA,""
"image-keyboard-response",62,82308,"0.0-4.16-2.16","uonx6mb19c91v51",136,"132.csv","","null","resources/images/coin2.png","null","",NA,NA,NA,NA,""
"image-keyboard-response",63,82528,"0.0-4.17-0.17","uonx6mb19c91v51",136,"132.csv","","217.70000004768372","resources/trios/L1T2A3.jpg","39","restless",0.8,0.5,0.6,0.360885887134632,"true"
"image-keyboard-response",64,82936,"0.0-4.17-1.17","uonx6mb19c91v51",136,"132.csv","","null","resources/maskTrios/BBA3.jpg","null","",NA,NA,NA,NA,""
"image-keyboard-response",65,84145,"0.0-4.17-2.17","uonx6mb19c91v51",136,"132.csv","","null","resources/images/coin2.png","null","",NA,NA,NA,NA,""
"image-keyboard-response",66,84441,"0.0-4.18-0.18","uonx6mb19c91v51",136,"132.csv","","293.10000002384186","resources/trios/L1T2A3.jpg","38","restless",0.7,0.6,0.6,0.740089340784987,"false"
"image-keyboard-response",67,84844,"0.0-4.18-1.18","uonx6mb19c91v51",136,"132.csv","","null","resources/maskTrios/BT2B.jpg","null","",NA,NA,NA,NA,""
"image-keyboard-response",68,86054,"0.0-4.18-2.18","uonx6mb19c91v51",136,"132.csv","","null","resources/images/fishbone.png","null","",NA,NA,NA,NA,""
"image-keyboard-response",69,86259,"0.0-4.19-0.19","uonx6mb19c91v51",136,"132.csv","","202","resources/trios/L1T2A3.jpg","39","restless",0.7,0.6,0.6,0.0295115772340955,"true"
"image-keyboard-response",70,86669,"0.0-4.19-1.19","uonx6mb19c91v51",136,"132.csv","","null","resources/maskTrios/BBA3.jpg","null","",NA,NA,NA,NA,""
"image-keyboard-response",71,87873,"0.0-4.19-2.19","uonx6mb19c91v51",136,"132.csv","","null","resources/images/coin2.png","null","",NA,NA,NA,NA,""
"image-keyboard-response",72,87920,"0.0-4.20-0.20","uonx6mb19c91v51",136,"132.csv","","44.39999997615814","resources/trios/L1T2A3.jpg","38","restless",0.7,0.6,0.6,0.928159534592603,"false"
"image-keyboard-response",73,88324,"0.0-4.20-1.20","uonx6mb19c91v51",136,"132.csv","","null","resources/maskTrios/BT2B.jpg","null","",NA,NA,NA,NA,""
"image-keyboard-response",74,89539,"0.0-4.20-2.20","uonx6mb19c91v51",136,"132.csv","","null","resources/images/fishbone.png","null","",NA,NA,NA,NA,""
"image-keyboard-response",75,89690,"0.0-4.21-0.21","uonx6mb19c91v51",136,"132.csv","","150.09999990463257","resources/trios/L1T2A3.jpg","39","restless",0.7,0.6,0.7,0.00713143283684192,"true"
"image-keyboard-response",76,90105,"0.0-4.21-1.21","uonx6mb19c91v51",136,"132.csv","","null","resources/maskTrios/BBA3.jpg","null","",NA,NA,NA,NA,""
"image-keyboard-response",77,91322,"0.0-4.21-2.21","uonx6mb19c91v51",136,"132.csv","","null","resources/images/coin2.png","null","",NA,NA,NA,NA,""
"image-keyboard-response",78,91543,"0.0-4.22-0.22","uonx6mb19c91v51",136,"132.csv","","218.39999997615814","resources/trios/L1T2A3.jpg","39","restless",0.7,0.6,0.7,0.625476690736891,"true"
"image-keyboard-response",79,91946,"0.0-4.22-1.22","uonx6mb19c91v51",136,"132.csv","","null","resources/maskTrios/BBA3.jpg","null","",NA,NA,NA,NA,""
"image-keyboard-response",80,93158,"0.0-4.22-2.22","uonx6mb19c91v51",136,"132.csv","","null","resources/images/coin2.png","null","",NA,NA,NA,NA,""
"image-keyboard-response",81,93400,"0.0-4.23-0.23","uonx6mb19c91v51",136,"132.csv","","240.80000007152557","resources/trios/L1T2A3.jpg","39","restless",0.7,0.6,0.7,0.262927103306333,"true"
"image-keyboard-response",82,93817,"0.0-4.23-1.23","uonx6mb19c91v51",136,"132.csv","","null","resources/maskTrios/BBA3.jpg","null","",NA,NA,NA,NA,""
"image-keyboard-response",83,95022,"0.0-4.23-2.23","uonx6mb19c91v51",136,"132.csv","","null","resources/images/coin2.png","null","",NA,NA,NA,NA,""
"image-keyboard-response",84,95253,"0.0-4.24-0.24","uonx6mb19c91v51",136,"132.csv","","229","resources/trios/L1T2A3.jpg","39","restless",0.7,0.6,0.7,0.837908123126931,"false"
"image-keyboard-response",85,95659,"0.0-4.24-1.24","uonx6mb19c91v51",136,"132.csv","","null","resources/maskTrios/BBA3.jpg","null","",NA,NA,NA,NA,""
"image-keyboard-response",86,96861,"0.0-4.24-2.24","uonx6mb19c91v51",136,"132.csv","","null","resources/images/fishbone.png","null","",NA,NA,NA,NA,""
"image-keyboard-response",87,97128,"0.0-4.25-0.25","uonx6mb19c91v51",136,"132.csv","","264","resources/trios/L1T2A3.jpg","38","restless",0.7,0.6,0.7,0.530715355351521,"true"
"image-keyboard-response",88,97544,"0.0-4.25-1.25","uonx6mb19c91v51",136,"132.csv","","null","resources/maskTrios/BT2B.jpg","null","",NA,NA,NA,NA,""
"image-keyboard-response",89,98758,"0.0-4.25-2.25","uonx6mb19c91v51",136,"132.csv","","null","resources/images/coin2.png","null","",NA,NA,NA,NA,""
"image-keyboard-response",90,99006,"0.0-4.26-0.26","uonx6mb19c91v51",136,"132.csv","","244.89999997615814","resources/trios/L1T2A3.jpg","37","restless",0.7,0.6,0.7,0.395751473111889,"true"
"image-keyboard-response",91,99423,"0.0-4.26-1.26","uonx6mb19c91v51",136,"132.csv","","null","resources/maskTrios/L1BB.jpg","null","",NA,NA,NA,NA,""
"image-keyboard-response",92,100626,"0.0-4.26-2.26","uonx6mb19c91v51",136,"132.csv","","null","resources/images/coin2.png","null","",NA,NA,NA,NA,""
"image-keyboard-response",93,100914,"0.0-4.27-0.27","uonx6mb19c91v51",136,"132.csv","","285.5","resources/trios/L1T2A3.jpg","37","restless",0.7,0.6,0.7,0.969753216082474,"false"
"image-keyboard-response",94,101330,"0.0-4.27-1.27","uonx6mb19c91v51",136,"132.csv","","null","resources/maskTrios/L1BB.jpg","null","",NA,NA,NA,NA,""
"image-keyboard-response",95,102537,"0.0-4.27-2.27","uonx6mb19c91v51",136,"132.csv","","null","resources/images/fishbone.png","null","",NA,NA,NA,NA,""
"image-keyboard-response",96,102732,"0.0-4.28-0.28","uonx6mb19c91v51",136,"132.csv","","192.69999992847443","resources/trios/L1T2A3.jpg","39","restless",0.7,0.5,0.7,0.15880874515725,"true"
"image-keyboard-response",97,103149,"0.0-4.28-1.28","uonx6mb19c91v51",136,"132.csv","","null","resources/maskTrios/BBA3.jpg","null","",NA,NA,NA,NA,""
"image-keyboard-response",98,104367,"0.0-4.28-2.28","uonx6mb19c91v51",136,"132.csv","","null","resources/images/coin2.png","null","",NA,NA,NA,NA,""
"image-keyboard-response",99,104702,"0.0-4.29-0.29","uonx6mb19c91v51",136,"132.csv","","332.59999990463257","resources/trios/L1T2A3.jpg","37","restless",0.7,0.5,0.7,0.330115756557816,"true"
"image-keyboard-response",100,105106,"0.0-4.29-1.29","uonx6mb19c91v51",136,"132.csv","","null","resources/maskTrios/L1BB.jpg","null","",NA,NA,NA,NA,""
"image-keyboard-response",101,106311,"0.0-4.29-2.29","uonx6mb19c91v51",136,"132.csv","","null","resources/images/coin2.png","null","",NA,NA,NA,NA,""
"image-keyboard-response",102,106455,"0.0-4.30-0.30","uonx6mb19c91v51",136,"132.csv","","140.89999997615814","resources/trios/L1T2A3.jpg","38","restless",0.7,0.5,0.7,0.842065071540356,"false"
"image-keyboard-response",103,106862,"0.0-4.30-1.30","uonx6mb19c91v51",136,"132.csv","","null","resources/maskTrios/BT2B.jpg","null","",NA,NA,NA,NA,""
"image-keyboard-response",104,108064,"0.0-4.30-2.30","uonx6mb19c91v51",136,"132.csv","","null","resources/images/fishbone.png","null","",NA,NA,NA,NA,""
"image-keyboard-response",105,108328,"0.0-4.31-0.31","uonx6mb19c91v51",136,"132.csv","","260.8000000715256","resources/trios/L1T2A3.jpg","37","restless",0.7,0.5,0.7,0.979388395260886,"false"
"image-keyboard-response",106,108732,"0.0-4.31-1.31","uonx6mb19c91v51",136,"132.csv","","null","resources/maskTrios/L1BB.jpg","null","",NA,NA,NA,NA,""
"image-keyboard-response",107,109937,"0.0-4.31-2.31","uonx6mb19c91v51",136,"132.csv","","null","resources/images/fishbone.png","null","",NA,NA,NA,NA,""
"image-keyboard-response",108,110056,"0.0-4.32-0.32","uonx6mb19c91v51",136,"132.csv","","116.20000004768372","resources/trios/L1T2A3.jpg","39","restless",0.7,0.5,0.7,0.649592254348762,"true"
"image-keyboard-response",109,110469,"0.0-4.32-1.32","uonx6mb19c91v51",136,"132.csv","","null","resources/maskTrios/BBA3.jpg","null","",NA,NA,NA,NA,""
"image-keyboard-response",110,111683,"0.0-4.32-2.32","uonx6mb19c91v51",136,"132.csv","","null","resources/images/coin2.png","null","",NA,NA,NA,NA,""
"image-keyboard-response",111,111900,"0.0-4.33-0.33","uonx6mb19c91v51",136,"132.csv","","215","resources/trios/L1T2A3.jpg","39","restless",0.7,0.5,0.7,0.631800641419119,"true"
"image-keyboard-response",112,112305,"0.0-4.33-1.33","uonx6mb19c91v51",136,"132.csv","","null","resources/maskTrios/BBA3.jpg","null","",NA,NA,NA,NA,""
"image-keyboard-response",113,113510,"0.0-4.33-2.33","uonx6mb19c91v51",136,"132.csv","","null","resources/images/coin2.png","null","",NA,NA,NA,NA,""
"image-keyboard-response",114,113806,"0.0-4.34-0.34","uonx6mb19c91v51",136,"132.csv","","293.89999997615814","resources/trios/L1T2A3.jpg","38","restless",0.7,0.5,0.7,0.362842059066925,"true"
"image-keyboard-response",115,114211,"0.0-4.34-1.34","uonx6mb19c91v51",136,"132.csv","","null","resources/maskTrios/BT2B.jpg","null","",NA,NA,NA,NA,""
"image-keyboard-response",116,115427,"0.0-4.34-2.34","uonx6mb19c91v51",136,"132.csv","","null","resources/images/coin2.png","null","",NA,NA,NA,NA,""
"image-keyboard-response",117,115798,"0.0-4.35-0.35","uonx6mb19c91v51",136,"132.csv","","368.6999999284744","resources/trios/L1T2A3.jpg","39","restless",0.7,0.5,0.7,0.100603656367656,"true"
"image-keyboard-response",118,116203,"0.0-4.35-1.35","uonx6mb19c91v51",136,"132.csv","","null","resources/maskTrios/BBA3.jpg","null","",NA,NA,NA,NA,""
"image-keyboard-response",119,117405,"0.0-4.35-2.35","uonx6mb19c91v51",136,"132.csv","","null","resources/images/coin2.png","null","",NA,NA,NA,NA,""
"image-keyboard-response",120,117700,"0.0-4.36-0.36","uonx6mb19c91v51",136,"132.csv","","292.7000000476837","resources/trios/L1T2A3.jpg","38","restless",0.7,0.5,0.7,0.273326815130316,"true"
"image-keyboard-response",121,118106,"0.0-4.36-1.36","uonx6mb19c91v51",136,"132.csv","","null","resources/maskTrios/BT2B.jpg","null","",NA,NA,NA,NA,""
"image-keyboard-response",122,119320,"0.0-4.36-2.36","uonx6mb19c91v51",136,"132.csv","","null","resources/images/coin2.png","null","",NA,NA,NA,NA,""
"image-keyboard-response",123,119600,"0.0-4.37-0.37","uonx6mb19c91v51",136,"132.csv","","277.2000000476837","resources/trios/L1T2A3.jpg","38","restless",0.6,0.5,0.7,0.119234489219424,"true"
"image-keyboard-response",124,120006,"0.0-4.37-1.37","uonx6mb19c91v51",136,"132.csv","","null","resources/maskTrios/BT2B.jpg","null","",NA,NA,NA,NA,""
"image-keyboard-response",125,121214,"0.0-4.37-2.37","uonx6mb19c91v51",136,"132.csv","","null","resources/images/coin2.png","null","",NA,NA,NA,NA,""
"image-keyboard-response",126,121464,"0.0-4.38-0.38","uonx6mb19c91v51",136,"132.csv","","247.39999997615814","resources/trios/L1T2A3.jpg","38","restless",0.6,0.5,0.7,0.659949784891313,"false"
"image-keyboard-response",127,121870,"0.0-4.38-1.38","uonx6mb19c91v51",136,"132.csv","","null","resources/maskTrios/BT2B.jpg","null","",NA,NA,NA,NA,""
"image-keyboard-response",128,123088,"0.0-4.38-2.38","uonx6mb19c91v51",136,"132.csv","","null","resources/images/fishbone.png","null","",NA,NA,NA,NA,""
"image-keyboard-response",129,123483,"0.0-4.39-0.39","uonx6mb19c91v51",136,"132.csv","","393.09999990463257","resources/trios/L1T2A3.jpg","37","restless",0.5,0.5,0.7,0.543183004566628,"false"
"image-keyboard-response",130,123897,"0.0-4.39-1.39","uonx6mb19c91v51",136,"132.csv","","null","resources/maskTrios/L1BB.jpg","null","",NA,NA,NA,NA,""
"image-keyboard-response",131,125108,"0.0-4.39-2.39","uonx6mb19c91v51",136,"132.csv","","null","resources/images/fishbone.png","null","",NA,NA,NA,NA,""
"image-keyboard-response",132,125341,"0.0-4.40-0.40","uonx6mb19c91v51",136,"132.csv","","230.39999997615814","resources/trios/L1T2A3.jpg","39","restless",0.5,0.5,0.7,0.0112456719011322,"true"
"image-keyboard-response",133,125752,"0.0-4.40-1.40","uonx6mb19c91v51",136,"132.csv","","null","resources/maskTrios/BBA3.jpg","null","",NA,NA,NA,NA,""
"image-keyboard-response",134,126956,"0.0-4.40-2.40","uonx6mb19c91v51",136,"132.csv","","null","resources/images/coin2.png","null","",NA,NA,NA,NA,""
"image-keyboard-response",135,127383,"0.0-4.41-0.41","uonx6mb19c91v51",136,"132.csv","","424.3000000715256","resources/trios/L1T2A3.jpg","38","restless",0.5,0.5,0.7,0.150820121598658,"true"
"image-keyboard-response",136,127787,"0.0-4.41-1.41","uonx6mb19c91v51",136,"132.csv","","null","resources/maskTrios/BT2B.jpg","null","",NA,NA,NA,NA,""
"image-keyboard-response",137,128990,"0.0-4.41-2.41","uonx6mb19c91v51",136,"132.csv","","null","resources/images/coin2.png","null","",NA,NA,NA,NA,""
"image-keyboard-response",138,129237,"0.0-4.42-0.42","uonx6mb19c91v51",136,"132.csv","","245.10000002384186","resources/trios/L1T2A3.jpg","38","restless",0.5,0.5,0.7,0.468743105145407,"true"
"image-keyboard-response",139,129655,"0.0-4.42-1.42","uonx6mb19c91v51",136,"132.csv","","null","resources/maskTrios/BT2B.jpg","null","",NA,NA,NA,NA,""
"image-keyboard-response",140,130864,"0.0-4.42-2.42","uonx6mb19c91v51",136,"132.csv","","null","resources/images/coin2.png","null","",NA,NA,NA,NA,""
"image-keyboard-response",141,131128,"0.0-4.43-0.43","uonx6mb19c91v51",136,"132.csv","","261.7999999523163","resources/trios/L1T2A3.jpg","38","restless",0.5,0.5,0.6,0.220524458140525,"true"
"image-keyboard-response",142,131533,"0.0-4.43-1.43","uonx6mb19c91v51",136,"132.csv","","null","resources/maskTrios/BT2B.jpg","null","",NA,NA,NA,NA,""
"image-keyboard-response",143,132736,"0.0-4.43-2.43","uonx6mb19c91v51",136,"132.csv","","null","resources/images/coin2.png","null","",NA,NA,NA,NA,""
"image-keyboard-response",144,132854,"0.0-4.44-0.44","uonx6mb19c91v51",136,"132.csv","","116.09999990463257","resources/trios/L1T2A3.jpg","39","restless",0.5,0.5,0.6,0.110995697139677,"true"
"image-keyboard-response",145,133267,"0.0-4.44-1.44","uonx6mb19c91v51",136,"132.csv","","null","resources/maskTrios/BBA3.jpg","null","",NA,NA,NA,NA,""
"image-keyboard-response",146,134470,"0.0-4.44-2.44","uonx6mb19c91v51",136,"132.csv","","null","resources/images/coin2.png","null","",NA,NA,NA,NA,""
"image-keyboard-response",147,134491,"0.0-4.45-0.45","uonx6mb19c91v51",136,"132.csv","","18.899999976158142","resources/trios/L1T2A3.jpg","37","restless",0.5,0.5,0.5,0.251579642452915,"true"
"image-keyboard-response",148,134895,"0.0-4.45-1.45","uonx6mb19c91v51",136,"132.csv","","null","resources/maskTrios/L1BB.jpg","null","",NA,NA,NA,NA,""
"image-keyboard-response",149,136110,"0.0-4.45-2.45","uonx6mb19c91v51",136,"132.csv","","null","resources/images/coin2.png","null","",NA,NA,NA,NA,""
"image-keyboard-response",150,136298,"0.0-4.46-0.46","uonx6mb19c91v51",136,"132.csv","","185.39999997615814","resources/trios/L1T2A3.jpg","37","restless",0.5,0.5,0.5,0.0915883631378667,"true"
"image-keyboard-response",151,136707,"0.0-4.46-1.46","uonx6mb19c91v51",136,"132.csv","","null","resources/maskTrios/L1BB.jpg","null","",NA,NA,NA,NA,""
"image-keyboard-response",152,137909,"0.0-4.46-2.46","uonx6mb19c91v51",136,"132.csv","","null","resources/images/coin2.png","null","",NA,NA,NA,NA,""
"image-keyboard-response",153,138115,"0.0-4.47-0.47","uonx6mb19c91v51",136,"132.csv","","202.69999992847443","resources/trios/L1T2A3.jpg","38","restless",0.5,0.5,0.4,0.153862269025496,"true"
"image-keyboard-response",154,138521,"0.0-4.47-1.47","uonx6mb19c91v51",136,"132.csv","","null","resources/maskTrios/BT2B.jpg","null","",NA,NA,NA,NA,""
"image-keyboard-response",155,139725,"0.0-4.47-2.47","uonx6mb19c91v51",136,"132.csv","","null","resources/images/coin2.png","null","",NA,NA,NA,NA,""
"image-keyboard-response",156,139978,"0.0-4.48-0.48","uonx6mb19c91v51",136,"132.csv","","249.70000004768372","resources/trios/L1T2A3.jpg","39","restless",0.5,0.5,0.4,0.852729902856181,"false"
"image-keyboard-response",157,140384,"0.0-4.48-1.48","uonx6mb19c91v51",136,"132.csv","","null","resources/maskTrios/BBA3.jpg","null","",NA,NA,NA,NA,""
"image-keyboard-response",158,141587,"0.0-4.48-2.48","uonx6mb19c91v51",136,"132.csv","","null","resources/images/fishbone.png","null","",NA,NA,NA,NA,""
"image-keyboard-response",159,141802,"0.0-4.49-0.49","uonx6mb19c91v51",136,"132.csv","","212.79999995231628","resources/trios/L1T2A3.jpg","38","restless",0.5,0.5,0.4,0.0731073380903526,"true"
"image-keyboard-response",160,142219,"0.0-4.49-1.49","uonx6mb19c91v51",136,"132.csv","","null","resources/maskTrios/BT2B.jpg","null","",NA,NA,NA,NA,""
"image-keyboard-response",161,143437,"0.0-4.49-2.49","uonx6mb19c91v51",136,"132.csv","","null","resources/images/coin2.png","null","",NA,NA,NA,NA,""
"image-keyboard-response",162,143667,"0.0-4.50-0.50","uonx6mb19c91v51",136,"132.csv","","227.10000002384186","resources/trios/L1T2A3.jpg","37","restless",0.5,0.5,0.4,0.328282304491135,"true"
"image-keyboard-response",163,144077,"0.0-4.50-1.50","uonx6mb19c91v51",136,"132.csv","","null","resources/maskTrios/L1BB.jpg","null","",NA,NA,NA,NA,""
"image-keyboard-response",164,145298,"0.0-4.50-2.50","uonx6mb19c91v51",136,"132.csv","","null","resources/images/coin2.png","null","",NA,NA,NA,NA,""
"image-keyboard-response",165,145507,"0.0-4.51-0.51","uonx6mb19c91v51",136,"132.csv","","207.69999992847443","resources/trios/L1T2A3.jpg","38","restless",0.5,0.5,0.4,0.216338869191655,"true"
"image-keyboard-response",166,145925,"0.0-4.51-1.51","uonx6mb19c91v51",136,"132.csv","","null","resources/maskTrios/BT2B.jpg","null","",NA,NA,NA,NA,""
"image-keyboard-response",167,147139,"0.0-4.51-2.51","uonx6mb19c91v51",136,"132.csv","","null","resources/images/coin2.png","null","",NA,NA,NA,NA,""
"image-keyboard-response",168,147360,"0.0-4.52-0.52","uonx6mb19c91v51",136,"132.csv","","220.29999995231628","resources/trios/L1T2A3.jpg","37","restless",0.5,0.5,0.4,0.50043864054974,"false"
"image-keyboard-response",169,147762,"0.0-4.52-1.52","uonx6mb19c91v51",136,"132.csv","","null","resources/maskTrios/L1BB.jpg","null","",NA,NA,NA,NA,""
"image-keyboard-response",170,148977,"0.0-4.52-2.52","uonx6mb19c91v51",136,"132.csv","","null","resources/images/fishbone.png","null","",NA,NA,NA,NA,""
"image-keyboard-response",171,149194,"0.0-4.53-0.53","uonx6mb19c91v51",136,"132.csv","","215.10000002384186","resources/trios/L1T2A3.jpg","39","restless",0.5,0.5,0.4,0.423289212150295,"false"
"image-keyboard-response",172,149608,"0.0-4.53-1.53","uonx6mb19c91v51",136,"132.csv","","null","resources/maskTrios/BBA3.jpg","null","",NA,NA,NA,NA,""
"image-keyboard-response",173,150812,"0.0-4.53-2.53","uonx6mb19c91v51",136,"132.csv","","null","resources/images/fishbone.png","null","",NA,NA,NA,NA,""
"image-keyboard-response",174,151141,"0.0-4.54-0.54","uonx6mb19c91v51",136,"132.csv","","326.60000002384186","resources/trios/L1T2A3.jpg","38","restless",0.5,0.5,0.4,0.438305318078552,"true"
"image-keyboard-response",175,151547,"0.0-4.54-1.54","uonx6mb19c91v51",136,"132.csv","","null","resources/maskTrios/BT2B.jpg","null","",NA,NA,NA,NA,""
"image-keyboard-response",176,152765,"0.0-4.54-2.54","uonx6mb19c91v51",136,"132.csv","","null","resources/images/coin2.png","null","",NA,NA,NA,NA,""
"image-keyboard-response",177,153513,"0.0-4.55-0.55","uonx6mb19c91v51",136,"132.csv","","745.6000000238419","resources/trios/L1T2A3.jpg","38","restless",0.5,0.5,0.4,0.92308865670178,"false"
"image-keyboard-response",178,153916,"0.0-4.55-1.55","uonx6mb19c91v51",136,"132.csv","","null","resources/maskTrios/BT2B.jpg","null","",NA,NA,NA,NA,""
"image-keyboard-response",179,155133,"0.0-4.55-2.55","uonx6mb19c91v51",136,"132.csv","","null","resources/images/fishbone.png","null","",NA,NA,NA,NA,""
"image-keyboard-response",180,155307,"0.0-4.56-0.56","uonx6mb19c91v51",136,"132.csv","","173.09999990463257","resources/trios/L1T2A3.jpg","37","restless",0.5,0.5,0.4,0.24767072369703,"true"
"image-keyboard-response",181,155723,"0.0-4.56-1.56","uonx6mb19c91v51",136,"132.csv","","null","resources/maskTrios/L1BB.jpg","null","",NA,NA,NA,NA,""
"image-keyboard-response",182,156938,"0.0-4.56-2.56","uonx6mb19c91v51",136,"132.csv","","null","resources/images/coin2.png","null","",NA,NA,NA,NA,""
"image-keyboard-response",183,157174,"0.0-4.57-0.57","uonx6mb19c91v51",136,"132.csv","","234.80000007152557","resources/trios/L1T2A3.jpg","37","restless",0.5,0.5,0.4,0.245552167412232,"true"
"image-keyboard-response",184,157587,"0.0-4.57-1.57","uonx6mb19c91v51",136,"132.csv","","null","resources/maskTrios/L1BB.jpg","null","",NA,NA,NA,NA,""
"image-keyboard-response",185,158796,"0.0-4.57-2.57","uonx6mb19c91v51",136,"132.csv","","null","resources/images/coin2.png","null","",NA,NA,NA,NA,""
"image-keyboard-response",186,159121,"0.0-4.58-0.58","uonx6mb19c91v51",136,"132.csv","","323.8000000715256","resources/trios/L1T2A3.jpg","37","restless",0.5,0.5,0.4,0.290104940227267,"true"
"image-keyboard-response",187,159526,"0.0-4.58-1.58","uonx6mb19c91v51",136,"132.csv","","null","resources/maskTrios/L1BB.jpg","null","",NA,NA,NA,NA,""
"image-keyboard-response",188,160739,"0.0-4.58-2.58","uonx6mb19c91v51",136,"132.csv","","null","resources/images/coin2.png","null","",NA,NA,NA,NA,""
"image-keyboard-response",189,160979,"0.0-4.59-0.59","uonx6mb19c91v51",136,"132.csv","","237.10000002384186","resources/trios/L1T2A3.jpg","37","restless",0.5,0.5,0.5,0.276436318532986,"true"
"image-keyboard-response",190,161395,"0.0-4.59-1.59","uonx6mb19c91v51",136,"132.csv","","null","resources/maskTrios/L1BB.jpg","null","",NA,NA,NA,NA,""
"image-keyboard-response",191,162599,"0.0-4.59-2.59","uonx6mb19c91v51",136,"132.csv","","null","resources/images/coin2.png","null","",NA,NA,NA,NA,""
"image-keyboard-response",192,162980,"0.0-4.60-0.60","uonx6mb19c91v51",136,"132.csv","","378.3000000715256","resources/trios/L1T2A3.jpg","37","restless",0.5,0.5,0.5,0.155770371385296,"true"
"image-keyboard-response",193,163390,"0.0-4.60-1.60","uonx6mb19c91v51",136,"132.csv","","null","resources/maskTrios/L1BB.jpg","null","",NA,NA,NA,NA,""
"image-keyboard-response",194,164596,"0.0-4.60-2.60","uonx6mb19c91v51",136,"132.csv","","null","resources/images/coin2.png","null","",NA,NA,NA,NA,""
"image-keyboard-response",195,164827,"0.0-4.61-0.61","uonx6mb19c91v51",136,"132.csv","","228.70000004768372","resources/trios/L1T2A3.jpg","37","restless",0.5,0.5,0.5,0.544969953756564,"false"
"image-keyboard-response",196,165239,"0.0-4.61-1.61","uonx6mb19c91v51",136,"132.csv","","null","resources/maskTrios/L1BB.jpg","null","",NA,NA,NA,NA,""
"image-keyboard-response",197,166447,"0.0-4.61-2.61","uonx6mb19c91v51",136,"132.csv","","null","resources/images/fishbone.png","null","",NA,NA,NA,NA,""
"image-keyboard-response",198,166831,"0.0-4.62-0.62","uonx6mb19c91v51",136,"132.csv","","381","resources/trios/L1T2A3.jpg","39","restless",0.5,0.5,0.5,0.156333552275616,"true"
"image-keyboard-response",199,167237,"0.0-4.62-1.62","uonx6mb19c91v51",136,"132.csv","","null","resources/maskTrios/BBA3.jpg","null","",NA,NA,NA,NA,""
"image-keyboard-response",200,168443,"0.0-4.62-2.62","uonx6mb19c91v51",136,"132.csv","","null","resources/images/coin2.png","null","",NA,NA,NA,NA,""
"image-keyboard-response",201,168702,"0.0-4.63-0.63","uonx6mb19c91v51",136,"132.csv","","256.2999999523163","resources/trios/L1T2A3.jpg","39","restless",0.5,0.5,0.6,0.363736707206941,"true"
"image-keyboard-response",202,169108,"0.0-4.63-1.63","uonx6mb19c91v51",136,"132.csv","","null","resources/maskTrios/BBA3.jpg","null","",NA,NA,NA,NA,""
"image-keyboard-response",203,170315,"0.0-4.63-2.63","uonx6mb19c91v51",136,"132.csv","","null","resources/images/coin2.png","null","",NA,NA,NA,NA,""
"image-keyboard-response",204,170567,"0.0-4.64-0.64","uonx6mb19c91v51",136,"132.csv","","249.89999997615814","resources/trios/L1T2A3.jpg","39","restless",0.5,0.5,0.6,0.701050836536423,"false"
"image-keyboard-response",205,170981,"0.0-4.64-1.64","uonx6mb19c91v51",136,"132.csv","","null","resources/maskTrios/BBA3.jpg","null","",NA,NA,NA,NA,""
"image-keyboard-response",206,172197,"0.0-4.64-2.64","uonx6mb19c91v51",136,"132.csv","","null","resources/images/fishbone.png","null","",NA,NA,NA,NA,""
"image-keyboard-response",207,172541,"0.0-4.65-0.65","uonx6mb19c91v51",136,"132.csv","","341.2999999523163","resources/trios/L1T2A3.jpg","38","restless",0.5,0.5,0.6,0.558846945200892,"false"
"image-keyboard-response",208,172955,"0.0-4.65-1.65","uonx6mb19c91v51",136,"132.csv","","null","resources/maskTrios/BT2B.jpg","null","",NA,NA,NA,NA,""
"image-keyboard-response",209,174161,"0.0-4.65-2.65","uonx6mb19c91v51",136,"132.csv","","null","resources/images/fishbone.png","null","",NA,NA,NA,NA,""
"image-keyboard-response",210,174330,"0.0-4.66-0.66","uonx6mb19c91v51",136,"132.csv","","165.70000004768372","resources/trios/L1T2A3.jpg","37","restless",0.5,0.5,0.6,0.577475896989288,"false"
"image-keyboard-response",211,174743,"0.0-4.66-1.66","uonx6mb19c91v51",136,"132.csv","","null","resources/maskTrios/L1BB.jpg","null","",NA,NA,NA,NA,""
"image-keyboard-response",212,175946,"0.0-4.66-2.66","uonx6mb19c91v51",136,"132.csv","","null","resources/images/fishbone.png","null","",NA,NA,NA,NA,""
"image-keyboard-response",213,176131,"0.0-4.67-0.67","uonx6mb19c91v51",136,"132.csv","","183.10000002384186","resources/trios/L1T2A3.jpg","39","restless",0.5,0.5,0.7,0.979527976754318,"false"
"image-keyboard-response",214,176545,"0.0-4.67-1.67","uonx6mb19c91v51",136,"132.csv","","null","resources/maskTrios/BBA3.jpg","null","",NA,NA,NA,NA,""
"image-keyboard-response",215,177753,"0.0-4.67-2.67","uonx6mb19c91v51",136,"132.csv","","null","resources/images/fishbone.png","null","",NA,NA,NA,NA,""
"image-keyboard-response",216,177790,"0.0-4.68-0.68","uonx6mb19c91v51",136,"132.csv","","34.40000009536743","resources/trios/L1T2A3.jpg","38","restless",0.5,0.5,0.7,0.133290364411639,"true"
"image-keyboard-response",217,178205,"0.0-4.68-1.68","uonx6mb19c91v51",136,"132.csv","","null","resources/maskTrios/BT2B.jpg","null","",NA,NA,NA,NA,""
"image-keyboard-response",218,179411,"0.0-4.68-2.68","uonx6mb19c91v51",136,"132.csv","","null","resources/images/coin2.png","null","",NA,NA,NA,NA,""
"image-keyboard-response",219,179692,"0.0-4.69-0.69","uonx6mb19c91v51",136,"132.csv","","278.5","resources/trios/L1T2A3.jpg","39","restless",0.5,0.5,0.7,0.806484854430662,"false"
"image-keyboard-response",220,180111,"0.0-4.69-1.69","uonx6mb19c91v51",136,"132.csv","","null","resources/maskTrios/BBA3.jpg","null","",NA,NA,NA,NA,""
"image-keyboard-response",221,181322,"0.0-4.69-2.69","uonx6mb19c91v51",136,"132.csv","","null","resources/images/fishbone.png","null","",NA,NA,NA,NA,""
"image-keyboard-response",222,181606,"0.0-4.70-0.70","uonx6mb19c91v51",136,"132.csv","","281.2000000476837","resources/trios/L1T2A3.jpg","37","restless",0.5,0.5,0.7,0.995869478104187,"false"
"image-keyboard-response",223,182016,"0.0-4.70-1.70","uonx6mb19c91v51",136,"132.csv","","null","resources/maskTrios/L1BB.jpg","null","",NA,NA,NA,NA,""
"image-keyboard-response",224,183231,"0.0-4.70-2.70","uonx6mb19c91v51",136,"132.csv","","null","resources/images/fishbone.png","null","",NA,NA,NA,NA,""
"image-keyboard-response",225,183459,"0.0-4.71-0.71","uonx6mb19c91v51",136,"132.csv","","225.10000002384186","resources/trios/L1T2A3.jpg","38","restless",0.5,0.4,0.8,0.949709700926977,"false"
"image-keyboard-response",226,183873,"0.0-4.71-1.71","uonx6mb19c91v51",136,"132.csv","","null","resources/maskTrios/BT2B.jpg","null","",NA,NA,NA,NA,""
"image-keyboard-response",227,185075,"0.0-4.71-2.71","uonx6mb19c91v51",136,"132.csv","","null","resources/images/fishbone.png","null","",NA,NA,NA,NA,""
"image-keyboard-response",228,185374,"0.0-4.72-0.72","uonx6mb19c91v51",136,"132.csv","","296.2999999523163","resources/trios/L1T2A3.jpg","39","restless",0.5,0.4,0.8,0.195485059857886,"true"
"image-keyboard-response",229,185787,"0.0-4.72-1.72","uonx6mb19c91v51",136,"132.csv","","null","resources/maskTrios/BBA3.jpg","null","",NA,NA,NA,NA,""
"image-keyboard-response",230,187000,"0.0-4.72-2.72","uonx6mb19c91v51",136,"132.csv","","null","resources/images/coin2.png","null","",NA,NA,NA,NA,""
"image-keyboard-response",231,187275,"0.0-4.73-0.73","uonx6mb19c91v51",136,"132.csv","","272.8000000715256","resources/trios/L1T2A3.jpg","39","restless",0.5,0.5,0.8,0.859053094038769,"false"
"image-keyboard-response",232,187692,"0.0-4.73-1.73","uonx6mb19c91v51",136,"132.csv","","null","resources/maskTrios/BBA3.jpg","null","",NA,NA,NA,NA,""
"image-keyboard-response",233,188908,"0.0-4.73-2.73","uonx6mb19c91v51",136,"132.csv","","null","resources/images/fishbone.png","null","",NA,NA,NA,NA,""
"image-keyboard-response",234,189160,"0.0-4.74-0.74","uonx6mb19c91v51",136,"132.csv","","249.89999997615814","resources/trios/L1T2A3.jpg","37","restless",0.5,0.5,0.8,0.489835111855881,"true"
"image-keyboard-response",235,189576,"0.0-4.74-1.74","uonx6mb19c91v51",136,"132.csv","","null","resources/maskTrios/L1BB.jpg","null","",NA,NA,NA,NA,""
"image-keyboard-response",236,190790,"0.0-4.74-2.74","uonx6mb19c91v51",136,"132.csv","","null","resources/images/coin2.png","null","",NA,NA,NA,NA,""
"image-keyboard-response",237,190975,"0.0-4.75-0.75","uonx6mb19c91v51",136,"132.csv","","181.60000002384186","resources/trios/L1T2A3.jpg","37","restless",0.5,0.6,0.8,0.378424772439236,"true"
"image-keyboard-response",238,191389,"0.0-4.75-1.75","uonx6mb19c91v51",136,"132.csv","","null","resources/maskTrios/L1BB.jpg","null","",NA,NA,NA,NA,""
"image-keyboard-response",239,192597,"0.0-4.75-2.75","uonx6mb19c91v51",136,"132.csv","","null","resources/images/coin2.png","null","",NA,NA,NA,NA,""
"image-keyboard-response",240,192817,"0.0-4.76-0.76","uonx6mb19c91v51",136,"132.csv","","217.90000009536743","resources/trios/L1T2A3.jpg","38","restless",0.5,0.6,0.8,0.172265087539764,"true"
"image-keyboard-response",241,193224,"0.0-4.76-1.76","uonx6mb19c91v51",136,"132.csv","","null","resources/maskTrios/BT2B.jpg","null","",NA,NA,NA,NA,""
"image-keyboard-response",242,194431,"0.0-4.76-2.76","uonx6mb19c91v51",136,"132.csv","","null","resources/images/coin2.png","null","",NA,NA,NA,NA,""
"image-keyboard-response",243,194654,"0.0-4.77-0.77","uonx6mb19c91v51",136,"132.csv","","219.39999997615814","resources/trios/L1T2A3.jpg","39","restless",0.5,0.6,0.8,0.520067234454997,"true"
"image-keyboard-response",244,195064,"0.0-4.77-1.77","uonx6mb19c91v51",136,"132.csv","","null","resources/maskTrios/BBA3.jpg","null","",NA,NA,NA,NA,""
"image-keyboard-response",245,196273,"0.0-4.77-2.77","uonx6mb19c91v51",136,"132.csv","","null","resources/images/coin2.png","null","",NA,NA,NA,NA,""
"image-keyboard-response",246,196497,"0.0-4.78-0.78","uonx6mb19c91v51",136,"132.csv","","221.30000007152557","resources/trios/L1T2A3.jpg","39","restless",0.5,0.6,0.8,0.793904495096923,"true"
"image-keyboard-response",247,196910,"0.0-4.78-1.78","uonx6mb19c91v51",136,"132.csv","","null","resources/maskTrios/BBA3.jpg","null","",NA,NA,NA,NA,""
"image-keyboard-response",248,198119,"0.0-4.78-2.78","uonx6mb19c91v51",136,"132.csv","","null","resources/images/coin2.png","null","",NA,NA,NA,NA,""
"image-keyboard-response",249,198353,"0.0-4.79-0.79","uonx6mb19c91v51",136,"132.csv","","231.39999997615814","resources/trios/L1T2A3.jpg","37","restless",0.5,0.6,0.8,0.730618108221196,"false"
"image-keyboard-response",250,198757,"0.0-4.79-1.79","uonx6mb19c91v51",136,"132.csv","","null","resources/maskTrios/L1BB.jpg","null","",NA,NA,NA,NA,""
"image-keyboard-response",251,199962,"0.0-4.79-2.79","uonx6mb19c91v51",136,"132.csv","","null","resources/images/fishbone.png","null","",NA,NA,NA,NA,""
"image-keyboard-response",252,200242,"0.0-4.80-0.80","uonx6mb19c91v51",136,"132.csv","","276.5","resources/trios/L1T2A3.jpg","38","restless",0.5,0.6,0.7,0.0938010510355505,"true"
"image-keyboard-response",253,200658,"0.0-4.80-1.80","uonx6mb19c91v51",136,"132.csv","","null","resources/maskTrios/BT2B.jpg","null","",NA,NA,NA,NA,""
"image-keyboard-response",254,201872,"0.0-4.80-2.80","uonx6mb19c91v51",136,"132.csv","","null","resources/images/coin2.png","null","",NA,NA,NA,NA,""
"image-keyboard-response",255,202165,"0.0-4.81-0.81","uonx6mb19c91v51",136,"132.csv","","290.6999999284744","resources/trios/L1T2A3.jpg","39","restless",0.5,0.6,0.7,0.0779631531565939,"true"
"image-keyboard-response",256,202572,"0.0-4.81-1.81","uonx6mb19c91v51",136,"132.csv","","null","resources/maskTrios/BBA3.jpg","null","",NA,NA,NA,NA,""
"image-keyboard-response",257,203784,"0.0-4.81-2.81","uonx6mb19c91v51",136,"132.csv","","null","resources/images/coin2.png","null","",NA,NA,NA,NA,""
"image-keyboard-response",258,203985,"0.0-4.82-0.82","uonx6mb19c91v51",136,"132.csv","","198.20000004768372","resources/trios/L1T2A3.jpg","38","restless",0.5,0.6,0.7,0.393453417182509,"true"
"image-keyboard-response",259,204396,"0.0-4.82-1.82","uonx6mb19c91v51",136,"132.csv","","null","resources/maskTrios/BT2B.jpg","null","",NA,NA,NA,NA,""
"image-keyboard-response",260,205604,"0.0-4.82-2.82","uonx6mb19c91v51",136,"132.csv","","null","resources/images/coin2.png","null","",NA,NA,NA,NA,""
"image-keyboard-response",261,205825,"0.0-4.83-0.83","uonx6mb19c91v51",136,"132.csv","","218.19999992847443","resources/trios/L1T2A3.jpg","39","restless",0.5,0.6,0.7,0.670404783863624,"true"
"image-keyboard-response",262,206238,"0.0-4.83-1.83","uonx6mb19c91v51",136,"132.csv","","null","resources/maskTrios/BBA3.jpg","null","",NA,NA,NA,NA,""
"image-keyboard-response",263,207447,"0.0-4.83-2.83","uonx6mb19c91v51",136,"132.csv","","null","resources/images/coin2.png","null","",NA,NA,NA,NA,""
"image-keyboard-response",264,207676,"0.0-4.84-0.84","uonx6mb19c91v51",136,"132.csv","","227.10000002384186","resources/trios/L1T2A3.jpg","37","restless",0.5,0.6,0.7,0.052501814940378,"true"
"image-keyboard-response",265,208086,"0.0-4.84-1.84","uonx6mb19c91v51",136,"132.csv","","null","resources/maskTrios/L1BB.jpg","null","",NA,NA,NA,NA,""
"image-keyboard-response",266,209297,"0.0-4.84-2.84","uonx6mb19c91v51",136,"132.csv","","null","resources/images/coin2.png","null","",NA,NA,NA,NA,""
"image-keyboard-response",267,209534,"0.0-4.85-0.85","uonx6mb19c91v51",136,"132.csv","","235.5","resources/trios/L1T2A3.jpg","38","restless",0.5,0.6,0.7,0.867238574643575,"false"
"image-keyboard-response",268,209937,"0.0-4.85-1.85","uonx6mb19c91v51",136,"132.csv","","null","resources/maskTrios/BT2B.jpg","null","",NA,NA,NA,NA,""
"image-keyboard-response",269,211147,"0.0-4.85-2.85","uonx6mb19c91v51",136,"132.csv","","null","resources/images/fishbone.png","null","",NA,NA,NA,NA,""
"image-keyboard-response",270,211618,"0.0-4.86-0.86","uonx6mb19c91v51",136,"132.csv","","468.40000009536743","resources/trios/L1T2A3.jpg","37","restless",0.5,0.6,0.7,0.125200869899854,"true"
"image-keyboard-response",271,212022,"0.0-4.86-1.86","uonx6mb19c91v51",136,"132.csv","","null","resources/maskTrios/L1BB.jpg","null","",NA,NA,NA,NA,""
"image-keyboard-response",272,213234,"0.0-4.86-2.86","uonx6mb19c91v51",136,"132.csv","","null","resources/images/coin2.png","null","",NA,NA,NA,NA,""
"image-keyboard-response",273,213514,"0.0-4.87-0.87","uonx6mb19c91v51",136,"132.csv","","276.8000000715256","resources/trios/L1T2A3.jpg","38","restless",0.5,0.6,0.7,0.875673680623628,"false"
"image-keyboard-response",274,213928,"0.0-4.87-1.87","uonx6mb19c91v51",136,"132.csv","","null","resources/maskTrios/BT2B.jpg","null","",NA,NA,NA,NA,""
"image-keyboard-response",275,215139,"0.0-4.87-2.87","uonx6mb19c91v51",136,"132.csv","","null","resources/images/fishbone.png","null","",NA,NA,NA,NA,""
"image-keyboard-response",276,215198,"0.0-4.88-0.88","uonx6mb19c91v51",136,"132.csv","","56.200000047683716","resources/trios/L1T2A3.jpg","39","restless",0.5,0.6,0.7,0.324395449342759,"true"
"image-keyboard-response",277,215606,"0.0-4.88-1.88","uonx6mb19c91v51",136,"132.csv","","null","resources/maskTrios/BBA3.jpg","null","",NA,NA,NA,NA,""
"image-keyboard-response",278,216813,"0.0-4.88-2.88","uonx6mb19c91v51",136,"132.csv","","null","resources/images/coin2.png","null","",NA,NA,NA,NA,""
"image-keyboard-response",279,216845,"0.0-4.89-0.89","uonx6mb19c91v51",136,"132.csv","","29.40000009536743","resources/trios/L1T2A3.jpg","39","restless",0.5,0.6,0.7,0.967560647588242,"false"
"image-keyboard-response",280,217260,"0.0-4.89-1.89","uonx6mb19c91v51",136,"132.csv","","null","resources/maskTrios/BBA3.jpg","null","",NA,NA,NA,NA,""
"image-keyboard-response",281,218477,"0.0-4.89-2.89","uonx6mb19c91v51",136,"132.csv","","null","resources/images/fishbone.png","null","",NA,NA,NA,NA,""
"image-keyboard-response",282,218712,"0.0-4.90-0.90","uonx6mb19c91v51",136,"132.csv","","232.59999990463257","resources/trios/L1T2A3.jpg","37","restless",0.4,0.6,0.7,0.769541384678236,"false"
"image-keyboard-response",283,219123,"0.0-4.90-1.90","uonx6mb19c91v51",136,"132.csv","","null","resources/maskTrios/L1BB.jpg","null","",NA,NA,NA,NA,""
"image-keyboard-response",284,220334,"0.0-4.90-2.90","uonx6mb19c91v51",136,"132.csv","","null","resources/images/fishbone.png","null","",NA,NA,NA,NA,""
"image-keyboard-response",285,220631,"0.0-4.91-0.91","uonx6mb19c91v51",136,"132.csv","","294.7000000476837","resources/trios/L1T2A3.jpg","38","restless",0.4,0.5,0.7,0.500056337902528,"false"
"image-keyboard-response",286,221043,"0.0-4.91-1.91","uonx6mb19c91v51",136,"132.csv","","null","resources/maskTrios/BT2B.jpg","null","",NA,NA,NA,NA,""
"image-keyboard-response",287,222249,"0.0-4.91-2.91","uonx6mb19c91v51",136,"132.csv","","null","resources/images/fishbone.png","null","",NA,NA,NA,NA,""
"image-keyboard-response",288,222565,"0.0-4.92-0.92","uonx6mb19c91v51",136,"132.csv","","313.60000002384186","resources/trios/L1T2A3.jpg","39","restless",0.4,0.5,0.7,0.522017293264553,"true"
"image-keyboard-response",289,222978,"0.0-4.92-1.92","uonx6mb19c91v51",136,"132.csv","","null","resources/maskTrios/BBA3.jpg","null","",NA,NA,NA,NA,""
"image-keyboard-response",290,224191,"0.0-4.92-2.92","uonx6mb19c91v51",136,"132.csv","","null","resources/images/coin2.png","null","",NA,NA,NA,NA,""
"image-keyboard-response",291,224629,"0.0-4.93-0.93","uonx6mb19c91v51",136,"132.csv","","435.89999997615814","resources/trios/L1T2A3.jpg","37","restless",0.4,0.5,0.7,0.693760655907423,"false"
"image-keyboard-response",292,225031,"0.0-4.93-1.93","uonx6mb19c91v51",136,"132.csv","","null","resources/maskTrios/L1BB.jpg","null","",NA,NA,NA,NA,""
"image-keyboard-response",293,226247,"0.0-4.93-2.93","uonx6mb19c91v51",136,"132.csv","","null","resources/images/fishbone.png","null","",NA,NA,NA,NA,""
"image-keyboard-response",294,226789,"0.0-4.94-0.94","uonx6mb19c91v51",136,"132.csv","","539","resources/trios/L1T2A3.jpg","39","restless",0.4,0.5,0.7,0.905458168020861,"false"
"image-keyboard-response",295,227193,"0.0-4.94-1.94","uonx6mb19c91v51",136,"132.csv","","null","resources/maskTrios/BBA3.jpg","null","",NA,NA,NA,NA,""
"image-keyboard-response",296,228408,"0.0-4.94-2.94","uonx6mb19c91v51",136,"132.csv","","null","resources/images/fishbone.png","null","",NA,NA,NA,NA,""
"image-keyboard-response",297,228640,"0.0-4.95-0.95","uonx6mb19c91v51",136,"132.csv","","229.69999992847443","resources/trios/L1T2A3.jpg","38","restless",0.4,0.5,0.7,0.880576225072971,"false"
"image-keyboard-response",298,229047,"0.0-4.95-1.95","uonx6mb19c91v51",136,"132.csv","","null","resources/maskTrios/BT2B.jpg","null","",NA,NA,NA,NA,""
"image-keyboard-response",299,230254,"0.0-4.95-2.95","uonx6mb19c91v51",136,"132.csv","","null","resources/images/fishbone.png","null","",NA,NA,NA,NA,""
"image-keyboard-response",300,230686,"0.0-4.96-0.96","uonx6mb19c91v51",136,"132.csv","","428.5","resources/trios/L1T2A3.jpg","39","restless",0.4,0.5,0.7,0.0947550639708161,"true"
"image-keyboard-response",301,231104,"0.0-4.96-1.96","uonx6mb19c91v51",136,"132.csv","","null","resources/maskTrios/BBA3.jpg","null","",NA,NA,NA,NA,""
"image-keyboard-response",302,232309,"0.0-4.96-2.96","uonx6mb19c91v51",136,"132.csv","","null","resources/images/coin2.png","null","",NA,NA,NA,NA,""
"image-keyboard-response",303,232749,"0.0-4.97-0.97","uonx6mb19c91v51",136,"132.csv","","437.2000000476837","resources/trios/L1T2A3.jpg","39","restless",0.4,0.5,0.7,0.171754269208421,"true"
"image-keyboard-response",304,233157,"0.0-4.97-1.97","uonx6mb19c91v51",136,"132.csv","","null","resources/maskTrios/BBA3.jpg","null","",NA,NA,NA,NA,""
"image-keyboard-response",305,234368,"0.0-4.97-2.97","uonx6mb19c91v51",136,"132.csv","","null","resources/images/coin2.png","null","",NA,NA,NA,NA,""
"image-keyboard-response",306,234592,"0.0-4.98-0.98","uonx6mb19c91v51",136,"132.csv","","221.5","resources/trios/L1T2A3.jpg","37","restless",0.4,0.5,0.7,0.290402861736919,"true"
"image-keyboard-response",307,235004,"0.0-4.98-1.98","uonx6mb19c91v51",136,"132.csv","","null","resources/maskTrios/L1BB.jpg","null","",NA,NA,NA,NA,""
"image-keyboard-response",308,236221,"0.0-4.98-2.98","uonx6mb19c91v51",136,"132.csv","","null","resources/images/coin2.png","null","",NA,NA,NA,NA,""
"image-keyboard-response",309,236514,"0.0-4.99-0.99","uonx6mb19c91v51",136,"132.csv","","290.39999997615814","resources/trios/L1T2A3.jpg","38","restless",0.4,0.5,0.7,0.955788613225392,"false"
"image-keyboard-response",310,236924,"0.0-4.99-1.99","uonx6mb19c91v51",136,"132.csv","","null","resources/maskTrios/BT2B.jpg","null","",NA,NA,NA,NA,""
"image-keyboard-response",311,238143,"0.0-4.99-2.99","uonx6mb19c91v51",136,"132.csv","","null","resources/images/fishbone.png","null","",NA,NA,NA,NA,""
"image-keyboard-response",312,238380,"0.0-4.100-0.100","uonx6mb19c91v51",136,"132.csv","","234.79999995231628","resources/trios/L1T2A3.jpg","39","restless",0.4,0.4,0.6,0.476477177459379,"true"
"image-keyboard-response",313,238789,"0.0-4.100-1.100","uonx6mb19c91v51",136,"132.csv","","null","resources/maskTrios/BBA3.jpg","null","",NA,NA,NA,NA,""
"image-keyboard-response",314,240005,"0.0-4.100-2.100","uonx6mb19c91v51",136,"132.csv","","null","resources/images/coin2.png","null","",NA,NA,NA,NA,""
"image-keyboard-response",315,240262,"0.0-4.101-0.101","uonx6mb19c91v51",136,"132.csv","","255","resources/trios/L1T2A3.jpg","39","restless",0.5,0.4,0.6,0.143398440636874,"true"
"image-keyboard-response",316,240675,"0.0-4.101-1.101","uonx6mb19c91v51",136,"132.csv","","null","resources/maskTrios/BBA3.jpg","null","",NA,NA,NA,NA,""
"image-keyboard-response",317,241880,"0.0-4.101-2.101","uonx6mb19c91v51",136,"132.csv","","null","resources/images/coin2.png","null","",NA,NA,NA,NA,""
"image-keyboard-response",318,242149,"0.0-4.102-0.102","uonx6mb19c91v51",136,"132.csv","","268","resources/trios/L1T2A3.jpg","39","restless",0.6,0.4,0.6,0.420830168541325,"true"
"image-keyboard-response",319,242567,"0.0-4.102-1.102","uonx6mb19c91v51",136,"132.csv","","null","resources/maskTrios/BBA3.jpg","null","",NA,NA,NA,NA,""
"image-keyboard-response",320,243780,"0.0-4.102-2.102","uonx6mb19c91v51",136,"132.csv","","null","resources/images/coin2.png","null","",NA,NA,NA,NA,""
"image-keyboard-response",321,244045,"0.0-4.103-0.103","uonx6mb19c91v51",136,"132.csv","","262.6999999284744","resources/trios/L1T2A3.jpg","39","restless",0.6,0.4,0.5,0.986671505854754,"false"
"image-keyboard-response",322,244453,"0.0-4.103-1.103","uonx6mb19c91v51",136,"132.csv","","null","resources/maskTrios/BBA3.jpg","null","",NA,NA,NA,NA,""
"image-keyboard-response",323,245671,"0.0-4.103-2.103","uonx6mb19c91v51",136,"132.csv","","null","resources/images/fishbone.png","null","",NA,NA,NA,NA,""
"image-keyboard-response",324,245957,"0.0-4.104-0.104","uonx6mb19c91v51",136,"132.csv","","284","resources/trios/L1T2A3.jpg","37","restless",0.5,0.3,0.5,0.894304717325048,"false"
"image-keyboard-response",325,246374,"0.0-4.104-1.104","uonx6mb19c91v51",136,"132.csv","","null","resources/maskTrios/L1BB.jpg","null","",NA,NA,NA,NA,""
"image-keyboard-response",326,247580,"0.0-4.104-2.104","uonx6mb19c91v51",136,"132.csv","","null","resources/images/fishbone.png","null","",NA,NA,NA,NA,""
"image-keyboard-response",327,247813,"0.0-4.105-0.105","uonx6mb19c91v51",136,"132.csv","","230.29999995231628","resources/trios/L1T2A3.jpg","38","restless",0.5,0.2,0.5,0.669988574403159,"false"
"image-keyboard-response",328,248216,"0.0-4.105-1.105","uonx6mb19c91v51",136,"132.csv","","null","resources/maskTrios/BT2B.jpg","null","",NA,NA,NA,NA,""
"image-keyboard-response",329,249419,"0.0-4.105-2.105","uonx6mb19c91v51",136,"132.csv","","null","resources/images/fishbone.png","null","",NA,NA,NA,NA,""
"image-keyboard-response",330,249609,"0.0-4.106-0.106","uonx6mb19c91v51",136,"132.csv","","186.89999997615814","resources/trios/L1T2A3.jpg","39","restless",0.4,0.2,0.5,0.00649956832514076,"true"
"image-keyboard-response",331,250019,"0.0-4.106-1.106","uonx6mb19c91v51",136,"132.csv","","null","resources/maskTrios/BBA3.jpg","null","",NA,NA,NA,NA,""
"image-keyboard-response",332,251224,"0.0-4.106-2.106","uonx6mb19c91v51",136,"132.csv","","null","resources/images/coin2.png","null","",NA,NA,NA,NA,""
"image-keyboard-response",333,251485,"0.0-4.107-0.107","uonx6mb19c91v51",136,"132.csv","","258.90000009536743","resources/trios/L1T2A3.jpg","39","restless",0.4,0.2,0.5,0.284677333625659,"true"
"image-keyboard-response",334,251904,"0.0-4.107-1.107","uonx6mb19c91v51",136,"132.csv","","null","resources/maskTrios/BBA3.jpg","null","",NA,NA,NA,NA,""
"image-keyboard-response",335,253107,"0.0-4.107-2.107","uonx6mb19c91v51",136,"132.csv","","null","resources/images/coin2.png","null","",NA,NA,NA,NA,""
"image-keyboard-response",336,253310,"0.0-4.108-0.108","uonx6mb19c91v51",136,"132.csv","","201.5","resources/trios/L1T2A3.jpg","39","restless",0.4,0.2,0.5,0.81196381063644,"false"
"image-keyboard-response",337,253719,"0.0-4.108-1.108","uonx6mb19c91v51",136,"132.csv","","null","resources/maskTrios/BBA3.jpg","null","",NA,NA,NA,NA,""
"image-keyboard-response",338,254932,"0.0-4.108-2.108","uonx6mb19c91v51",136,"132.csv","","null","resources/images/fishbone.png","null","",NA,NA,NA,NA,""
"image-keyboard-response",339,255267,"0.0-4.109-0.109","uonx6mb19c91v51",136,"132.csv","","332.89999997615814","resources/trios/L1T2A3.jpg","37","restless",0.5,0.2,0.5,0.705324583162879,"false"
"image-keyboard-response",340,255680,"0.0-4.109-1.109","uonx6mb19c91v51",136,"132.csv","","null","resources/maskTrios/L1BB.jpg","null","",NA,NA,NA,NA,""
"image-keyboard-response",341,256894,"0.0-4.109-2.109","uonx6mb19c91v51",136,"132.csv","","null","resources/images/fishbone.png","null","",NA,NA,NA,NA,""
"image-keyboard-response",342,257114,"0.0-4.110-0.110","uonx6mb19c91v51",136,"132.csv","","218.29999995231628","resources/trios/L1T2A3.jpg","38","restless",0.5,0.3,0.5,0.110559899643481,"true"
"image-keyboard-response",343,257522,"0.0-4.110-1.110","uonx6mb19c91v51",136,"132.csv","","null","resources/maskTrios/BT2B.jpg","null","",NA,NA,NA,NA,""
"image-keyboard-response",344,258738,"0.0-4.110-2.110","uonx6mb19c91v51",136,"132.csv","","null","resources/images/coin2.png","null","",NA,NA,NA,NA,""
"image-keyboard-response",345,258964,"0.0-4.111-0.111","uonx6mb19c91v51",136,"132.csv","","223.59999990463257","resources/trios/L1T2A3.jpg","38","restless",0.5,0.3,0.5,0.504154604017394,"false"
"image-keyboard-response",346,259373,"0.0-4.111-1.111","uonx6mb19c91v51",136,"132.csv","","null","resources/maskTrios/BT2B.jpg","null","",NA,NA,NA,NA,""
"image-keyboard-response",347,260578,"0.0-4.111-2.111","uonx6mb19c91v51",136,"132.csv","","null","resources/images/fishbone.png","null","",NA,NA,NA,NA,""
"image-keyboard-response",348,260831,"0.0-4.112-0.112","uonx6mb19c91v51",136,"132.csv","","251","resources/trios/L1T2A3.jpg","39","restless",0.5,0.2,0.5,0.562299678929968,"false"
"image-keyboard-response",349,261248,"0.0-4.112-1.112","uonx6mb19c91v51",136,"132.csv","","null","resources/maskTrios/BBA3.jpg","null","",NA,NA,NA,NA,""
"image-keyboard-response",350,262453,"0.0-4.112-2.112","uonx6mb19c91v51",136,"132.csv","","null","resources/images/fishbone.png","null","",NA,NA,NA,NA,""
"image-keyboard-response",351,262714,"0.0-4.113-0.113","uonx6mb19c91v51",136,"132.csv","","257.8000000715256","resources/trios/L1T2A3.jpg","37","restless",0.5,0.3,0.4,0.600759855895806,"false"
"image-keyboard-response",352,263122,"0.0-4.113-1.113","uonx6mb19c91v51",136,"132.csv","","null","resources/maskTrios/L1BB.jpg","null","",NA,NA,NA,NA,""
"image-keyboard-response",353,264324,"0.0-4.113-2.113","uonx6mb19c91v51",136,"132.csv","","null","resources/images/fishbone.png","null","",NA,NA,NA,NA,""
"image-keyboard-response",354,264328,"0.0-4.114-0.114","uonx6mb19c91v51",136,"132.csv","","1.2999999523162842","resources/trios/L1T2A3.jpg","38","restless",0.5,0.3,0.4,0.946994308957674,"false"
"image-keyboard-response",355,264743,"0.0-4.114-1.114","uonx6mb19c91v51",136,"132.csv","","null","resources/maskTrios/BT2B.jpg","null","",NA,NA,NA,NA,""
"image-keyboard-response",356,265948,"0.0-4.114-2.114","uonx6mb19c91v51",136,"132.csv","","null","resources/images/fishbone.png","null","",NA,NA,NA,NA,""
"image-keyboard-response",357,266008,"0.0-4.115-0.115","uonx6mb19c91v51",136,"132.csv","","56.60000002384186","resources/trios/L1T2A3.jpg","38","restless",0.5,0.3,0.4,0.649773154606638,"false"
"image-keyboard-response",358,266411,"0.0-4.115-1.115","uonx6mb19c91v51",136,"132.csv","","null","resources/maskTrios/BT2B.jpg","null","",NA,NA,NA,NA,""
"image-keyboard-response",359,267614,"0.0-4.115-2.115","uonx6mb19c91v51",136,"132.csv","","null","resources/images/fishbone.png","null","",NA,NA,NA,NA,""
"image-keyboard-response",360,267854,"0.0-4.116-0.116","uonx6mb19c91v51",136,"132.csv","","237.19999992847443","resources/trios/L1T2A3.jpg","39","restless",0.5,0.3,0.4,0.607042277661195,"false"
"image-keyboard-response",361,268267,"0.0-4.116-1.116","uonx6mb19c91v51",136,"132.csv","","null","resources/maskTrios/BBA3.jpg","null","",NA,NA,NA,NA,""
"image-keyboard-response",362,269470,"0.0-4.116-2.116","uonx6mb19c91v51",136,"132.csv","","null","resources/images/fishbone.png","null","",NA,NA,NA,NA,""
"image-keyboard-response",363,269737,"0.0-4.117-0.117","uonx6mb19c91v51",136,"132.csv","","264","resources/trios/L1T2A3.jpg","37","restless",0.4,0.3,0.4,0.876631180116804,"false"
"image-keyboard-response",364,270154,"0.0-4.117-1.117","uonx6mb19c91v51",136,"132.csv","","null","resources/maskTrios/L1BB.jpg","null","",NA,NA,NA,NA,""
"image-keyboard-response",365,271357,"0.0-4.117-2.117","uonx6mb19c91v51",136,"132.csv","","null","resources/images/fishbone.png","null","",NA,NA,NA,NA,""
"image-keyboard-response",366,271601,"0.0-4.118-0.118","uonx6mb19c91v51",136,"132.csv","","240.69999992847443","resources/trios/L1T2A3.jpg","38","restless",0.4,0.3,0.4,0.671918077469327,"false"
"image-keyboard-response",367,272019,"0.0-4.118-1.118","uonx6mb19c91v51",136,"132.csv","","null","resources/maskTrios/BT2B.jpg","null","",NA,NA,NA,NA,""
"image-keyboard-response",368,273236,"0.0-4.118-2.118","uonx6mb19c91v51",136,"132.csv","","null","resources/images/fishbone.png","null","",NA,NA,NA,NA,""
"image-keyboard-response",369,273498,"0.0-4.119-0.119","uonx6mb19c91v51",136,"132.csv","","259.10000002384186","resources/trios/L1T2A3.jpg","38","restless",0.4,0.3,0.4,0.72789714174161,"false"
"image-keyboard-response",370,273906,"0.0-4.119-1.119","uonx6mb19c91v51",136,"132.csv","","null","resources/maskTrios/BT2B.jpg","null","",NA,NA,NA,NA,""
"image-keyboard-response",371,275116,"0.0-4.119-2.119","uonx6mb19c91v51",136,"132.csv","","null","resources/images/fishbone.png","null","",NA,NA,NA,NA,""
"image-keyboard-response",372,275325,"0.0-4.120-0.120","uonx6mb19c91v51",136,"132.csv","","205.80000007152557","resources/trios/L1T2A3.jpg","38","restless",0.5,0.3,0.4,0.945375681118839,"false"
"image-keyboard-response",373,275737,"0.0-4.120-1.120","uonx6mb19c91v51",136,"132.csv","","null","resources/maskTrios/BT2B.jpg","null","",NA,NA,NA,NA,""
"image-keyboard-response",374,276947,"0.0-4.120-2.120","uonx6mb19c91v51",136,"132.csv","","null","resources/images/fishbone.png","null","",NA,NA,NA,NA,""
"image-keyboard-response",375,277148,"0.0-4.121-0.121","uonx6mb19c91v51",136,"132.csv","","199","resources/trios/L1T2A3.jpg","39","restless",0.5,0.3,0.4,0.0678906463806204,"true"
"image-keyboard-response",376,277553,"0.0-4.121-1.121","uonx6mb19c91v51",136,"132.csv","","null","resources/maskTrios/BBA3.jpg","null","",NA,NA,NA,NA,""
"image-keyboard-response",377,278771,"0.0-4.121-2.121","uonx6mb19c91v51",136,"132.csv","","null","resources/images/coin2.png","null","",NA,NA,NA,NA,""
"image-keyboard-response",378,279202,"0.0-4.122-0.122","uonx6mb19c91v51",136,"132.csv","","428.39999997615814","resources/trios/L1T2A3.jpg","39","restless",0.5,0.3,0.4,0.957548071630003,"false"
"image-keyboard-response",379,279613,"0.0-4.122-1.122","uonx6mb19c91v51",136,"132.csv","","null","resources/maskTrios/BBA3.jpg","null","",NA,NA,NA,NA,""
"image-keyboard-response",380,280818,"0.0-4.122-2.122","uonx6mb19c91v51",136,"132.csv","","null","resources/images/fishbone.png","null","",NA,NA,NA,NA,""
"image-keyboard-response",381,281070,"0.0-4.123-0.123","uonx6mb19c91v51",136,"132.csv","","249.80000007152557","resources/trios/L1T2A3.jpg","37","restless",0.5,0.3,0.4,0.0817108268139148,"true"
"image-keyboard-response",382,281484,"0.0-4.123-1.123","uonx6mb19c91v51",136,"132.csv","","null","resources/maskTrios/L1BB.jpg","null","",NA,NA,NA,NA,""
"image-keyboard-response",383,282699,"0.0-4.123-2.123","uonx6mb19c91v51",136,"132.csv","","null","resources/images/coin2.png","null","",NA,NA,NA,NA,""
"image-keyboard-response",384,282894,"0.0-4.124-0.124","uonx6mb19c91v51",136,"132.csv","","192.70000004768372","resources/trios/L1T2A3.jpg","37","restless",0.5,0.2,0.4,0.311494213273421,"true"
"image-keyboard-response",385,283305,"0.0-4.124-1.124","uonx6mb19c91v51",136,"132.csv","","null","resources/maskTrios/L1BB.jpg","null","",NA,NA,NA,NA,""
"image-keyboard-response",386,284521,"0.0-4.124-2.124","uonx6mb19c91v51",136,"132.csv","","null","resources/images/coin2.png","null","",NA,NA,NA,NA,""
"image-keyboard-response",387,284743,"0.0-4.125-0.125","uonx6mb19c91v51",136,"132.csv","","219.60000002384186","resources/trios/L1T2A3.jpg","38","restless",0.5,0.2,0.4,0.756318700662767,"false"
"image-keyboard-response",388,285147,"0.0-4.125-1.125","uonx6mb19c91v51",136,"132.csv","","null","resources/maskTrios/BT2B.jpg","null","",NA,NA,NA,NA,""
"image-keyboard-response",389,286361,"0.0-4.125-2.125","uonx6mb19c91v51",136,"132.csv","","null","resources/images/fishbone.png","null","",NA,NA,NA,NA,""
"image-keyboard-response",390,286368,"0.0-4.126-0.126","uonx6mb19c91v51",136,"132.csv","","3.600000023841858","resources/trios/L1T2A3.jpg","37","restless",0.6,0.2,0.4,0.35230137786694,"true"
"image-keyboard-response",391,286776,"0.0-4.126-1.126","uonx6mb19c91v51",136,"132.csv","","null","resources/maskTrios/L1BB.jpg","null","",NA,NA,NA,NA,""
"image-keyboard-response",392,287984,"0.0-4.126-2.126","uonx6mb19c91v51",136,"132.csv","","null","resources/images/coin2.png","null","",NA,NA,NA,NA,""
"image-keyboard-response",393,288222,"0.0-4.127-0.127","uonx6mb19c91v51",136,"132.csv","","236","resources/trios/L1T2A3.jpg","37","restless",0.6,0.2,0.4,0.10108409108437,"true"
"image-keyboard-response",394,288635,"0.0-4.127-1.127","uonx6mb19c91v51",136,"132.csv","","null","resources/maskTrios/L1BB.jpg","null","",NA,NA,NA,NA,""
"image-keyboard-response",395,289845,"0.0-4.127-2.127","uonx6mb19c91v51",136,"132.csv","","null","resources/images/coin2.png","null","",NA,NA,NA,NA,""
"image-keyboard-response",396,290088,"0.0-4.128-0.128","uonx6mb19c91v51",136,"132.csv","","240.79999995231628","resources/trios/L1T2A3.jpg","37","restless",0.6,0.2,0.4,0.482577344825073,"true"
"image-keyboard-response",397,290506,"0.0-4.128-1.128","uonx6mb19c91v51",136,"132.csv","","null","resources/maskTrios/L1BB.jpg","null","",NA,NA,NA,NA,""
"image-keyboard-response",398,291718,"0.0-4.128-2.128","uonx6mb19c91v51",136,"132.csv","","null","resources/images/coin2.png","null","",NA,NA,NA,NA,""
"image-keyboard-response",399,291985,"0.0-4.129-0.129","uonx6mb19c91v51",136,"132.csv","","264.59999990463257","resources/trios/L1T2A3.jpg","39","restless",0.5,0.2,0.4,0.448304752343184,"false"
"image-keyboard-response",400,292397,"0.0-4.129-1.129","uonx6mb19c91v51",136,"132.csv","","null","resources/maskTrios/BBA3.jpg","null","",NA,NA,NA,NA,""
"image-keyboard-response",401,293602,"0.0-4.129-2.129","uonx6mb19c91v51",136,"132.csv","","null","resources/images/fishbone.png","null","",NA,NA,NA,NA,""
"image-keyboard-response",402,293853,"0.0-4.130-0.130","uonx6mb19c91v51",136,"132.csv","","247.60000002384186","resources/trios/L1T2A3.jpg","38","restless",0.5,0.2,0.4,0.448116609027214,"false"
"image-keyboard-response",403,294256,"0.0-4.130-1.130","uonx6mb19c91v51",136,"132.csv","","null","resources/maskTrios/BT2B.jpg","null","",NA,NA,NA,NA,""
"image-keyboard-response",404,295465,"0.0-4.130-2.130","uonx6mb19c91v51",136,"132.csv","","null","resources/images/fishbone.png","null","",NA,NA,NA,NA,""
"image-keyboard-response",405,295758,"0.0-4.131-0.131","uonx6mb19c91v51",136,"132.csv","","290.2000000476837","resources/trios/L1T2A3.jpg","38","restless",0.5,0.2,0.4,0.0347590878865986,"true"
"image-keyboard-response",406,296171,"0.0-4.131-1.131","uonx6mb19c91v51",136,"132.csv","","null","resources/maskTrios/BT2B.jpg","null","",NA,NA,NA,NA,""
"image-keyboard-response",407,297385,"0.0-4.131-2.131","uonx6mb19c91v51",136,"132.csv","","null","resources/images/coin2.png","null","",NA,NA,NA,NA,""
"image-keyboard-response",408,297650,"0.0-4.132-0.132","uonx6mb19c91v51",136,"132.csv","","263","resources/trios/L1T2A3.jpg","38","restless",0.5,0.2,0.4,0.753264198123937,"false"
"image-keyboard-response",409,298062,"0.0-4.132-1.132","uonx6mb19c91v51",136,"132.csv","","null","resources/maskTrios/BT2B.jpg","null","",NA,NA,NA,NA,""
"image-keyboard-response",410,299269,"0.0-4.132-2.132","uonx6mb19c91v51",136,"132.csv","","null","resources/images/fishbone.png","null","",NA,NA,NA,NA,""
"image-keyboard-response",411,299555,"0.0-4.133-0.133","uonx6mb19c91v51",136,"132.csv","","282.39999997615814","resources/trios/L1T2A3.jpg","39","restless",0.6,0.2,0.4,0.238571501828324,"true"
"image-keyboard-response",412,299978,"0.0-4.133-1.133","uonx6mb19c91v51",136,"132.csv","","null","resources/maskTrios/BBA3.jpg","null","",NA,NA,NA,NA,""
"image-keyboard-response",413,301186,"0.0-4.133-2.133","uonx6mb19c91v51",136,"132.csv","","null","resources/images/coin2.png","null","",NA,NA,NA,NA,""
"image-keyboard-response",414,301501,"0.0-4.134-0.134","uonx6mb19c91v51",136,"132.csv","","312.2999999523163","resources/trios/L1T2A3.jpg","37","restless",0.6,0.2,0.4,0.700462496641221,"false"
"image-keyboard-response",415,301913,"0.0-4.134-1.134","uonx6mb19c91v51",136,"132.csv","","null","resources/maskTrios/L1BB.jpg","null","",NA,NA,NA,NA,""
"image-keyboard-response",416,303119,"0.0-4.134-2.134","uonx6mb19c91v51",136,"132.csv","","null","resources/images/fishbone.png","null","",NA,NA,NA,NA,""
"image-keyboard-response",417,303406,"0.0-4.135-0.135","uonx6mb19c91v51",136,"132.csv","","284.39999997615814","resources/trios/L1T2A3.jpg","37","restless",0.6,0.2,0.4,0.10035854894392,"true"
"image-keyboard-response",418,303818,"0.0-4.135-1.135","uonx6mb19c91v51",136,"132.csv","","null","resources/maskTrios/L1BB.jpg","null","",NA,NA,NA,NA,""
"image-keyboard-response",419,305035,"0.0-4.135-2.135","uonx6mb19c91v51",136,"132.csv","","null","resources/images/coin2.png","null","",NA,NA,NA,NA,""
"image-keyboard-response",420,305313,"0.0-4.136-0.136","uonx6mb19c91v51",136,"132.csv","","275.5","resources/trios/L1T2A3.jpg","37","restless",0.6,0.2,0.5,0.756066751430046,"false"
"image-keyboard-response",421,305728,"0.0-4.136-1.136","uonx6mb19c91v51",136,"132.csv","","null","resources/maskTrios/L1BB.jpg","null","",NA,NA,NA,NA,""
"image-keyboard-response",422,306934,"0.0-4.136-2.136","uonx6mb19c91v51",136,"132.csv","","null","resources/images/fishbone.png","null","",NA,NA,NA,NA,""
"image-keyboard-response",423,307165,"0.0-4.137-0.137","uonx6mb19c91v51",136,"132.csv","","229.10000002384186","resources/trios/L1T2A3.jpg","37","restless",0.6,0.2,0.5,0.906364334431357,"false"
"image-keyboard-response",424,307568,"0.0-4.137-1.137","uonx6mb19c91v51",136,"132.csv","","null","resources/maskTrios/L1BB.jpg","null","",NA,NA,NA,NA,""
"image-keyboard-response",425,308771,"0.0-4.137-2.137","uonx6mb19c91v51",136,"132.csv","","null","resources/images/fishbone.png","null","",NA,NA,NA,NA,""
"image-keyboard-response",426,309067,"0.0-4.138-0.138","uonx6mb19c91v51",136,"132.csv","","293.2000000476837","resources/trios/L1T2A3.jpg","38","restless",0.6,0.2,0.5,0.374348158953439,"false"
"image-keyboard-response",427,309483,"0.0-4.138-1.138","uonx6mb19c91v51",136,"132.csv","","null","resources/maskTrios/BT2B.jpg","null","",NA,NA,NA,NA,""
"image-keyboard-response",428,310691,"0.0-4.138-2.138","uonx6mb19c91v51",136,"132.csv","","null","resources/images/fishbone.png","null","",NA,NA,NA,NA,""
"image-keyboard-response",429,310912,"0.0-4.139-0.139","uonx6mb19c91v51",136,"132.csv","","217.90000009536743","resources/trios/L1T2A3.jpg","37","restless",0.6,0.2,0.5,0.241431068256804,"true"
"image-keyboard-response",430,311316,"0.0-4.139-1.139","uonx6mb19c91v51",136,"132.csv","","null","resources/maskTrios/L1BB.jpg","null","",NA,NA,NA,NA,""
"image-keyboard-response",431,312520,"0.0-4.139-2.139","uonx6mb19c91v51",136,"132.csv","","null","resources/images/coin2.png","null","",NA,NA,NA,NA,""
"image-keyboard-response",432,312808,"0.0-4.140-0.140","uonx6mb19c91v51",136,"132.csv","","285.2999999523163","resources/trios/L1T2A3.jpg","38","restless",0.6,0.2,0.5,0.633976867256857,"false"
"image-keyboard-response",433,313223,"0.0-4.140-1.140","uonx6mb19c91v51",136,"132.csv","","null","resources/maskTrios/BT2B.jpg","null","",NA,NA,NA,NA,""
"image-keyboard-response",434,314427,"0.0-4.140-2.140","uonx6mb19c91v51",136,"132.csv","","null","resources/images/fishbone.png","null","",NA,NA,NA,NA,""
"image-keyboard-response",435,314691,"0.0-4.141-0.141","uonx6mb19c91v51",136,"132.csv","","261.89999997615814","resources/trios/L1T2A3.jpg","37","restless",0.6,0.1,0.5,0.196189321055691,"true"
"image-keyboard-response",436,315095,"0.0-4.141-1.141","uonx6mb19c91v51",136,"132.csv","","null","resources/maskTrios/L1BB.jpg","null","",NA,NA,NA,NA,""
"image-keyboard-response",437,316311,"0.0-4.141-2.141","uonx6mb19c91v51",136,"132.csv","","null","resources/images/coin2.png","null","",NA,NA,NA,NA,""
"image-keyboard-response",438,316566,"0.0-4.142-0.142","uonx6mb19c91v51",136,"132.csv","","251.70000004768372","resources/trios/L1T2A3.jpg","39","restless",0.6,0.1,0.5,0.872603009345183,"false"
"image-keyboard-response",439,316973,"0.0-4.142-1.142","uonx6mb19c91v51",136,"132.csv","","null","resources/maskTrios/BBA3.jpg","null","",NA,NA,NA,NA,""
"image-keyboard-response",440,318186,"0.0-4.142-2.142","uonx6mb19c91v51",136,"132.csv","","null","resources/images/fishbone.png","null","",NA,NA,NA,NA,""
"image-keyboard-response",441,318469,"0.0-4.143-0.143","uonx6mb19c91v51",136,"132.csv","","280.10000002384186","resources/trios/L1T2A3.jpg","38","restless",0.7,0.1,0.5,0.705766916802435,"false"
"image-keyboard-response",442,318884,"0.0-4.143-1.143","uonx6mb19c91v51",136,"132.csv","","null","resources/maskTrios/BT2B.jpg","null","",NA,NA,NA,NA,""
"image-keyboard-response",443,320094,"0.0-4.143-2.143","uonx6mb19c91v51",136,"132.csv","","null","resources/images/fishbone.png","null","",NA,NA,NA,NA,""
"image-keyboard-response",444,320330,"0.0-4.144-0.144","uonx6mb19c91v51",136,"132.csv","","234.79999995231628","resources/trios/L1T2A3.jpg","39","restless",0.7,0.1,0.5,0.96610117844542,"false"
"image-keyboard-response",445,320741,"0.0-4.144-1.144","uonx6mb19c91v51",136,"132.csv","","null","resources/maskTrios/BBA3.jpg","null","",NA,NA,NA,NA,""
"image-keyboard-response",446,321958,"0.0-4.144-2.144","uonx6mb19c91v51",136,"132.csv","","null","resources/images/fishbone.png","null","",NA,NA,NA,NA,""
"image-keyboard-response",447,322171,"0.0-4.145-0.145","uonx6mb19c91v51",136,"132.csv","","210.5","resources/trios/L1T2A3.jpg","38","restless",0.7,0.1,0.5,0.470470774594375,"false"
"image-keyboard-response",448,322578,"0.0-4.145-1.145","uonx6mb19c91v51",136,"132.csv","","null","resources/maskTrios/BT2B.jpg","null","",NA,NA,NA,NA,""
"image-keyboard-response",449,323786,"0.0-4.145-2.145","uonx6mb19c91v51",136,"132.csv","","null","resources/images/fishbone.png","null","",NA,NA,NA,NA,""
"image-keyboard-response",450,324009,"0.0-4.146-0.146","uonx6mb19c91v51",136,"132.csv","","221.39999997615814","resources/trios/L1T2A3.jpg","37","restless",0.7,0.1,0.6,0.0247240459529081,"true"
"image-keyboard-response",451,324422,"0.0-4.146-1.146","uonx6mb19c91v51",136,"132.csv","","null","resources/maskTrios/L1BB.jpg","null","",NA,NA,NA,NA,""
"image-keyboard-response",452,325633,"0.0-4.146-2.146","uonx6mb19c91v51",136,"132.csv","","null","resources/images/coin2.png","null","",NA,NA,NA,NA,""
"image-keyboard-response",453,325859,"0.0-4.147-0.147","uonx6mb19c91v51",136,"132.csv","","223.39999997615814","resources/trios/L1T2A3.jpg","37","restless",0.7,0.1,0.6,0.51305868786286,"true"
"image-keyboard-response",454,326267,"0.0-4.147-1.147","uonx6mb19c91v51",136,"132.csv","","null","resources/maskTrios/L1BB.jpg","null","",NA,NA,NA,NA,""
"image-keyboard-response",455,327470,"0.0-4.147-2.147","uonx6mb19c91v51",136,"132.csv","","null","resources/images/coin2.png","null","",NA,NA,NA,NA,""
"image-keyboard-response",456,327680,"0.0-4.148-0.148","uonx6mb19c91v51",136,"132.csv","","206.89999997615814","resources/trios/L1T2A3.jpg","37","restless",0.8,0.1,0.6,0.175434719193603,"true"
"image-keyboard-response",457,328094,"0.0-4.148-1.148","uonx6mb19c91v51",136,"132.csv","","null","resources/maskTrios/L1BB.jpg","null","",NA,NA,NA,NA,""
"image-keyboard-response",458,329312,"0.0-4.148-2.148","uonx6mb19c91v51",136,"132.csv","","null","resources/images/coin2.png","null","",NA,NA,NA,NA,""
"image-keyboard-response",459,329578,"0.0-4.149-0.149","uonx6mb19c91v51",136,"132.csv","","262.7999999523163","resources/trios/L1T2A3.jpg","37","restless",0.8,0.1,0.5,0.268529166439285,"true"
"image-keyboard-response",460,329990,"0.0-4.149-1.149","uonx6mb19c91v51",136,"132.csv","","null","resources/maskTrios/L1BB.jpg","null","",NA,NA,NA,NA,""
"image-keyboard-response",461,331201,"0.0-4.149-2.149","uonx6mb19c91v51",136,"132.csv","","null","resources/images/coin2.png","null","",NA,NA,NA,NA,""
"image-keyboard-response",462,331521,"0.0-4.150-0.150","uonx6mb19c91v51",136,"132.csv","","317.10000002384186","resources/trios/L1T2A3.jpg","37","restless",0.8,0.1,0.5,0.226536684514617,"true"
"image-keyboard-response",463,331924,"0.0-4.150-1.150","uonx6mb19c91v51",136,"132.csv","","null","resources/maskTrios/L1BB.jpg","null","",NA,NA,NA,NA,""
"image-keyboard-response",464,333133,"0.0-4.150-2.150","uonx6mb19c91v51",136,"132.csv","","null","resources/images/coin2.png","null","",NA,NA,NA,NA,""
"image-keyboard-response",465,333327,"0.0-4.151-0.151","uonx6mb19c91v51",136,"132.csv","","191.60000002384186","resources/trios/L1T2A3.jpg","37","restless",0.8,0.2,0.5,0.536505932335224,"true"
"image-keyboard-response",466,333734,"0.0-4.151-1.151","uonx6mb19c91v51",136,"132.csv","","null","resources/maskTrios/L1BB.jpg","null","",NA,NA,NA,NA,""
"image-keyboard-response",467,334944,"0.0-4.151-2.151","uonx6mb19c91v51",136,"132.csv","","null","resources/images/coin2.png","null","",NA,NA,NA,NA,""
"image-keyboard-response",468,335171,"0.0-4.152-0.152","uonx6mb19c91v51",136,"132.csv","","224.10000002384186","resources/trios/L1T2A3.jpg","37","restless",0.8,0.3,0.5,0.550938256695192,"true"
"image-keyboard-response",469,335577,"0.0-4.152-1.152","uonx6mb19c91v51",136,"132.csv","","null","resources/maskTrios/L1BB.jpg","null","",NA,NA,NA,NA,""
"image-keyboard-response",470,336795,"0.0-4.152-2.152","uonx6mb19c91v51",136,"132.csv","","null","resources/images/coin2.png","null","",NA,NA,NA,NA,""
"image-keyboard-response",471,337022,"0.0-4.153-0.153","uonx6mb19c91v51",136,"132.csv","","223.5","resources/trios/L1T2A3.jpg","37","restless",0.8,0.3,0.5,0.869615296616886,"false"
"image-keyboard-response",472,337434,"0.0-4.153-1.153","uonx6mb19c91v51",136,"132.csv","","null","resources/maskTrios/L1BB.jpg","null","",NA,NA,NA,NA,""
"image-keyboard-response",473,338644,"0.0-4.153-2.153","uonx6mb19c91v51",136,"132.csv","","null","resources/images/fishbone.png","null","",NA,NA,NA,NA,""
"image-keyboard-response",474,338907,"0.0-4.154-0.154","uonx6mb19c91v51",136,"132.csv","","260","resources/trios/L1T2A3.jpg","39","restless",0.7,0.3,0.5,0.605333533749945,"false"
"image-keyboard-response",475,339310,"0.0-4.154-1.154","uonx6mb19c91v51",136,"132.csv","","null","resources/maskTrios/BBA3.jpg","null","",NA,NA,NA,NA,""
"image-keyboard-response",476,340524,"0.0-4.154-2.154","uonx6mb19c91v51",136,"132.csv","","null","resources/images/fishbone.png","null","",NA,NA,NA,NA,""
"image-keyboard-response",477,340623,"0.0-4.155-0.155","uonx6mb19c91v51",136,"132.csv","","95.39999997615814","resources/trios/L1T2A3.jpg","38","restless",0.7,0.3,0.5,0.189374858848643,"true"
"image-keyboard-response",478,341037,"0.0-4.155-1.155","uonx6mb19c91v51",136,"132.csv","","null","resources/maskTrios/BT2B.jpg","null","",NA,NA,NA,NA,""
"image-keyboard-response",479,342254,"0.0-4.155-2.155","uonx6mb19c91v51",136,"132.csv","","null","resources/images/coin2.png","null","",NA,NA,NA,NA,""
"image-keyboard-response",480,342267,"0.0-4.156-0.156","uonx6mb19c91v51",136,"132.csv","","9.600000023841858","resources/trios/L1T2A3.jpg","38","restless",0.7,0.3,0.4,0.906883088343036,"false"
"image-keyboard-response",481,342675,"0.0-4.156-1.156","uonx6mb19c91v51",136,"132.csv","","null","resources/maskTrios/BT2B.jpg","null","",NA,NA,NA,NA,""
"image-keyboard-response",482,343890,"0.0-4.156-2.156","uonx6mb19c91v51",136,"132.csv","","null","resources/images/fishbone.png","null","",NA,NA,NA,NA,""
"image-keyboard-response",483,344170,"0.0-4.157-0.157","uonx6mb19c91v51",136,"132.csv","","276.89999997615814","resources/trios/L1T2A3.jpg","39","restless",0.7,0.3,0.4,0.237236569585629,"true"
"image-keyboard-response",484,344574,"0.0-4.157-1.157","uonx6mb19c91v51",136,"132.csv","","null","resources/maskTrios/BBA3.jpg","null","",NA,NA,NA,NA,""
"image-keyboard-response",485,345792,"0.0-4.157-2.157","uonx6mb19c91v51",136,"132.csv","","null","resources/images/coin2.png","null","",NA,NA,NA,NA,""
"image-keyboard-response",486,346046,"0.0-4.158-0.158","uonx6mb19c91v51",136,"132.csv","","251.09999990463257","resources/trios/L1T2A3.jpg","39","restless",0.7,0.3,0.4,0.548753167524194,"false"
"image-keyboard-response",487,346462,"0.0-4.158-1.158","uonx6mb19c91v51",136,"132.csv","","null","resources/maskTrios/BBA3.jpg","null","",NA,NA,NA,NA,""
"image-keyboard-response",488,347677,"0.0-4.158-2.158","uonx6mb19c91v51",136,"132.csv","","null","resources/images/fishbone.png","null","",NA,NA,NA,NA,""
"image-keyboard-response",489,347948,"0.0-4.159-0.159","uonx6mb19c91v51",136,"132.csv","","268.39999997615814","resources/trios/L1T2A3.jpg","37","restless",0.7,0.3,0.3,0.246606056539196,"true"
"image-keyboard-response",490,348363,"0.0-4.159-1.159","uonx6mb19c91v51",136,"132.csv","","null","resources/maskTrios/L1BB.jpg","null","",NA,NA,NA,NA,""
"image-keyboard-response",491,349566,"0.0-4.159-2.159","uonx6mb19c91v51",136,"132.csv","","null","resources/images/coin2.png","null","",NA,NA,NA,NA,""
"image-keyboard-response",492,349823,"0.0-4.160-0.160","uonx6mb19c91v51",136,"132.csv","","254.5","resources/trios/L1T2A3.jpg","37","restless",0.6,0.3,0.3,0.963433480010806,"false"
"image-keyboard-response",493,350232,"0.0-4.160-1.160","uonx6mb19c91v51",136,"132.csv","","null","resources/maskTrios/L1BB.jpg","null","",NA,NA,NA,NA,""
"image-keyboard-response",494,351442,"0.0-4.160-2.160","uonx6mb19c91v51",136,"132.csv","","null","resources/images/fishbone.png","null","",NA,NA,NA,NA,""
"image-keyboard-response",495,351536,"0.0-4.161-0.161","uonx6mb19c91v51",136,"132.csv","","90.70000004768372","resources/trios/L1T2A3.jpg","38","restless",0.6,0.3,0.3,0.57309854485488,"false"
"image-keyboard-response",496,351941,"0.0-4.161-1.161","uonx6mb19c91v51",136,"132.csv","","null","resources/maskTrios/BT2B.jpg","null","",NA,NA,NA,NA,""
"image-keyboard-response",497,353151,"0.0-4.161-2.161","uonx6mb19c91v51",136,"132.csv","","null","resources/images/fishbone.png","null","",NA,NA,NA,NA,""
"image-keyboard-response",498,353425,"0.0-4.162-0.162","uonx6mb19c91v51",136,"132.csv","","271.10000002384186","resources/trios/L1T2A3.jpg","39","restless",0.6,0.3,0.3,0.594813577524834,"false"
"image-keyboard-response",499,353835,"0.0-4.162-1.162","uonx6mb19c91v51",136,"132.csv","","null","resources/maskTrios/BBA3.jpg","null","",NA,NA,NA,NA,""
"image-keyboard-response",500,355044,"0.0-4.162-2.162","uonx6mb19c91v51",136,"132.csv","","null","resources/images/fishbone.png","null","",NA,NA,NA,NA,""
"image-keyboard-response",501,355272,"0.0-4.163-0.163","uonx6mb19c91v51",136,"132.csv","","225.19999992847443","resources/trios/L1T2A3.jpg","38","restless",0.6,0.3,0.3,0.308834176996424,"false"
"image-keyboard-response",502,355691,"0.0-4.163-1.163","uonx6mb19c91v51",136,"132.csv","","null","resources/maskTrios/BT2B.jpg","null","",NA,NA,NA,NA,""
"image-keyboard-response",503,356899,"0.0-4.163-2.163","uonx6mb19c91v51",136,"132.csv","","null","resources/images/fishbone.png","null","",NA,NA,NA,NA,""
"image-keyboard-response",504,356911,"0.0-4.164-0.164","uonx6mb19c91v51",136,"132.csv","","9","resources/trios/L1T2A3.jpg","38","restless",0.6,0.3,0.3,0.917472612850616,"false"
"image-keyboard-response",505,357321,"0.0-4.164-1.164","uonx6mb19c91v51",136,"132.csv","","null","resources/maskTrios/BT2B.jpg","null","",NA,NA,NA,NA,""
"image-keyboard-response",506,358526,"0.0-4.164-2.164","uonx6mb19c91v51",136,"132.csv","","null","resources/images/fishbone.png","null","",NA,NA,NA,NA,""
"image-keyboard-response",507,358769,"0.0-4.165-0.165","uonx6mb19c91v51",136,"132.csv","","240.70000004768372","resources/trios/L1T2A3.jpg","37","restless",0.6,0.3,0.3,0.677688081939306,"false"
"image-keyboard-response",508,359185,"0.0-4.165-1.165","uonx6mb19c91v51",136,"132.csv","","null","resources/maskTrios/L1BB.jpg","null","",NA,NA,NA,NA,""
"image-keyboard-response",509,360391,"0.0-4.165-2.165","uonx6mb19c91v51",136,"132.csv","","null","resources/images/fishbone.png","null","",NA,NA,NA,NA,""
"image-keyboard-response",510,360659,"0.0-4.166-0.166","uonx6mb19c91v51",136,"132.csv","","265.60000002384186","resources/trios/L1T2A3.jpg","39","restless",0.6,0.3,0.3,0.250049426381261,"true"
"image-keyboard-response",511,361075,"0.0-4.166-1.166","uonx6mb19c91v51",136,"132.csv","","null","resources/maskTrios/BBA3.jpg","null","",NA,NA,NA,NA,""
"image-keyboard-response",512,362282,"0.0-4.166-2.166","uonx6mb19c91v51",136,"132.csv","","null","resources/images/coin2.png","null","",NA,NA,NA,NA,""
"image-keyboard-response",513,362599,"0.0-4.167-0.167","uonx6mb19c91v51",136,"132.csv","","314.59999990463257","resources/trios/L1T2A3.jpg","39","restless",0.6,0.3,0.3,0.544492959901665,"false"
"image-keyboard-response",514,363003,"0.0-4.167-1.167","uonx6mb19c91v51",136,"132.csv","","null","resources/maskTrios/BBA3.jpg","null","",NA,NA,NA,NA,""
"image-keyboard-response",515,364209,"0.0-4.167-2.167","uonx6mb19c91v51",136,"132.csv","","null","resources/images/fishbone.png","null","",NA,NA,NA,NA,""
"image-keyboard-response",516,364490,"0.0-4.168-0.168","uonx6mb19c91v51",136,"132.csv","","278","resources/trios/L1T2A3.jpg","38","restless",0.6,0.3,0.3,0.789918536509226,"false"
"image-keyboard-response",517,364905,"0.0-4.168-1.168","uonx6mb19c91v51",136,"132.csv","","null","resources/maskTrios/BT2B.jpg","null","",NA,NA,NA,NA,""
"image-keyboard-response",518,366114,"0.0-4.168-2.168","uonx6mb19c91v51",136,"132.csv","","null","resources/images/fishbone.png","null","",NA,NA,NA,NA,""
"image-keyboard-response",519,366248,"0.0-4.169-0.169","uonx6mb19c91v51",136,"132.csv","","131.39999997615814","resources/trios/L1T2A3.jpg","37","restless",0.6,0.3,0.3,0.972460247982975,"false"
"image-keyboard-response",520,366664,"0.0-4.169-1.169","uonx6mb19c91v51",136,"132.csv","","null","resources/maskTrios/L1BB.jpg","null","",NA,NA,NA,NA,""
"image-keyboard-response",521,367874,"0.0-4.169-2.169","uonx6mb19c91v51",136,"132.csv","","null","resources/images/fishbone.png","null","",NA,NA,NA,NA,""
"image-keyboard-response",522,368085,"0.0-4.170-0.170","uonx6mb19c91v51",136,"132.csv","","208.80000007152557","resources/trios/L1T2A3.jpg","39","restless",0.6,0.3,0.3,0.024075350670995,"true"
"image-keyboard-response",523,368500,"0.0-4.170-1.170","uonx6mb19c91v51",136,"132.csv","","null","resources/maskTrios/BBA3.jpg","null","",NA,NA,NA,NA,""
"image-keyboard-response",524,369708,"0.0-4.170-2.170","uonx6mb19c91v51",136,"132.csv","","null","resources/images/coin2.png","null","",NA,NA,NA,NA,""
"image-keyboard-response",525,369987,"0.0-4.171-0.171","uonx6mb19c91v51",136,"132.csv","","276","resources/trios/L1T2A3.jpg","39","restless",0.6,0.3,0.2,0.150623475158967,"true"
"image-keyboard-response",526,370391,"0.0-4.171-1.171","uonx6mb19c91v51",136,"132.csv","","null","resources/maskTrios/BBA3.jpg","null","",NA,NA,NA,NA,""
"image-keyboard-response",527,371604,"0.0-4.171-2.171","uonx6mb19c91v51",136,"132.csv","","null","resources/images/coin2.png","null","",NA,NA,NA,NA,""
"image-keyboard-response",528,371830,"0.0-4.172-0.172","uonx6mb19c91v51",136,"132.csv","","222.60000002384186","resources/trios/L1T2A3.jpg","38","restless",0.6,0.3,0.2,0.420588428282112,"false"
"image-keyboard-response",529,372235,"0.0-4.172-1.172","uonx6mb19c91v51",136,"132.csv","","null","resources/maskTrios/BT2B.jpg","null","",NA,NA,NA,NA,""
"image-keyboard-response",530,373438,"0.0-4.172-2.172","uonx6mb19c91v51",136,"132.csv","","null","resources/images/fishbone.png","null","",NA,NA,NA,NA,""
"image-keyboard-response",531,373706,"0.0-4.173-0.173","uonx6mb19c91v51",136,"132.csv","","265.89999997615814","resources/trios/L1T2A3.jpg","39","restless",0.6,0.4,0.2,0.204077771399514,"false"
"image-keyboard-response",532,374111,"0.0-4.173-1.173","uonx6mb19c91v51",136,"132.csv","","null","resources/maskTrios/BBA3.jpg","null","",NA,NA,NA,NA,""
"image-keyboard-response",533,375317,"0.0-4.173-2.173","uonx6mb19c91v51",136,"132.csv","","null","resources/images/fishbone.png","null","",NA,NA,NA,NA,""
"image-keyboard-response",534,375594,"0.0-4.174-0.174","uonx6mb19c91v51",136,"132.csv","","273.89999997615814","resources/trios/L1T2A3.jpg","37","restless",0.6,0.4,0.2,0.541186535743228,"true"
"image-keyboard-response",535,376013,"0.0-4.174-1.174","uonx6mb19c91v51",136,"132.csv","","null","resources/maskTrios/L1BB.jpg","null","",NA,NA,NA,NA,""
"image-keyboard-response",536,377231,"0.0-4.174-2.174","uonx6mb19c91v51",136,"132.csv","","null","resources/images/coin2.png","null","",NA,NA,NA,NA,""
"image-keyboard-response",537,377665,"0.0-4.175-0.175","uonx6mb19c91v51",136,"132.csv","","431.1999999284744","resources/trios/L1T2A3.jpg","37","restless",0.5,0.5,0.2,0.925023492142155,"false"
"image-keyboard-response",538,378073,"0.0-4.175-1.175","uonx6mb19c91v51",136,"132.csv","","null","resources/maskTrios/L1BB.jpg","null","",NA,NA,NA,NA,""
"image-keyboard-response",539,379281,"0.0-4.175-2.175","uonx6mb19c91v51",136,"132.csv","","null","resources/images/fishbone.png","null","",NA,NA,NA,NA,""
"image-keyboard-response",540,379538,"0.0-4.176-0.176","uonx6mb19c91v51",136,"132.csv","","254.29999995231628","resources/trios/L1T2A3.jpg","38","restless",0.5,0.4,0.2,0.891324831377269,"false"
"image-keyboard-response",541,379942,"0.0-4.176-1.176","uonx6mb19c91v51",136,"132.csv","","null","resources/maskTrios/BT2B.jpg","null","",NA,NA,NA,NA,""
"image-keyboard-response",542,381145,"0.0-4.176-2.176","uonx6mb19c91v51",136,"132.csv","","null","resources/images/fishbone.png","null","",NA,NA,NA,NA,""
"image-keyboard-response",543,381393,"0.0-4.177-0.177","uonx6mb19c91v51",136,"132.csv","","245.20000004768372","resources/trios/L1T2A3.jpg","39","restless",0.5,0.4,0.2,0.729819396619648,"false"
"image-keyboard-response",544,381805,"0.0-4.177-1.177","uonx6mb19c91v51",136,"132.csv","","null","resources/maskTrios/BBA3.jpg","null","",NA,NA,NA,NA,""
"image-keyboard-response",545,383020,"0.0-4.177-2.177","uonx6mb19c91v51",136,"132.csv","","null","resources/images/fishbone.png","null","",NA,NA,NA,NA,""
"image-keyboard-response",546,383131,"0.0-4.178-0.178","uonx6mb19c91v51",136,"132.csv","","107.59999990463257","resources/trios/L1T2A3.jpg","38","restless",0.5,0.4,0.2,0.0369807067895322,"true"
"image-keyboard-response",547,383549,"0.0-4.178-1.178","uonx6mb19c91v51",136,"132.csv","","null","resources/maskTrios/BT2B.jpg","null","",NA,NA,NA,NA,""
"image-keyboard-response",548,384767,"0.0-4.178-2.178","uonx6mb19c91v51",136,"132.csv","","null","resources/images/coin2.png","null","",NA,NA,NA,NA,""
"image-keyboard-response",549,385005,"0.0-4.179-0.179","uonx6mb19c91v51",136,"132.csv","","235.60000002384186","resources/trios/L1T2A3.jpg","38","restless",0.5,0.4,0.2,0.346935328203015,"true"
"image-keyboard-response",550,385413,"0.0-4.179-1.179","uonx6mb19c91v51",136,"132.csv","","null","resources/maskTrios/BT2B.jpg","null","",NA,NA,NA,NA,""
"image-keyboard-response",551,386617,"0.0-4.179-2.179","uonx6mb19c91v51",136,"132.csv","","null","resources/images/coin2.png","null","",NA,NA,NA,NA,""
"image-keyboard-response",552,386868,"0.0-4.180-0.180","uonx6mb19c91v51",136,"132.csv","","248.19999992847443","resources/trios/L1T2A3.jpg","38","restless",0.5,0.4,0.2,0.848845741121387,"false"
"image-keyboard-response",553,387282,"0.0-4.180-1.180","uonx6mb19c91v51",136,"132.csv","","null","resources/maskTrios/BT2B.jpg","null","",NA,NA,NA,NA,""
"image-keyboard-response",554,388487,"0.0-4.180-2.180","uonx6mb19c91v51",136,"132.csv","","null","resources/images/fishbone.png","null","",NA,NA,NA,NA,""
"image-keyboard-response",555,389066,"0.0-4.181-0.181","uonx6mb19c91v51",136,"132.csv","","576.4000000953674","resources/trios/L1T2A3.jpg","39","restless",0.5,0.4,0.2,0.943437928305543,"false"
"image-keyboard-response",556,389473,"0.0-4.181-1.181","uonx6mb19c91v51",136,"132.csv","","null","resources/maskTrios/BBA3.jpg","null","",NA,NA,NA,NA,""
"image-keyboard-response",557,390689,"0.0-4.181-2.181","uonx6mb19c91v51",136,"132.csv","","null","resources/images/fishbone.png","null","",NA,NA,NA,NA,""
"image-keyboard-response",558,390922,"0.0-4.182-0.182","uonx6mb19c91v51",136,"132.csv","","229.29999995231628","resources/trios/L1T2A3.jpg","37","restless",0.5,0.4,0.2,0.890239459965001,"false"
"image-keyboard-response",559,391333,"0.0-4.182-1.182","uonx6mb19c91v51",136,"132.csv","","null","resources/maskTrios/L1BB.jpg","null","",NA,NA,NA,NA,""
"image-keyboard-response",560,392549,"0.0-4.182-2.182","uonx6mb19c91v51",136,"132.csv","","null","resources/images/fishbone.png","null","",NA,NA,NA,NA,""
"image-keyboard-response",561,392783,"0.0-4.183-0.183","uonx6mb19c91v51",136,"132.csv","","231","resources/trios/L1T2A3.jpg","39","restless",0.5,0.4,0.1,0.603995718171691,"false"
"image-keyboard-response",562,393198,"0.0-4.183-1.183","uonx6mb19c91v51",136,"132.csv","","null","resources/maskTrios/BBA3.jpg","null","",NA,NA,NA,NA,""
"image-keyboard-response",563,394404,"0.0-4.183-2.183","uonx6mb19c91v51",136,"132.csv","","null","resources/images/fishbone.png","null","",NA,NA,NA,NA,""
"image-keyboard-response",564,394519,"0.0-4.184-0.184","uonx6mb19c91v51",136,"132.csv","","111.59999990463257","resources/trios/L1T2A3.jpg","37","restless",0.5,0.4,0.1,0.683065711806773,"false"
"image-keyboard-response",565,394933,"0.0-4.184-1.184","uonx6mb19c91v51",136,"132.csv","","null","resources/maskTrios/L1BB.jpg","null","",NA,NA,NA,NA,""
"image-keyboard-response",566,396151,"0.0-4.184-2.184","uonx6mb19c91v51",136,"132.csv","","null","resources/images/fishbone.png","null","",NA,NA,NA,NA,""
"image-keyboard-response",567,396465,"0.0-4.185-0.185","uonx6mb19c91v51",136,"132.csv","","311.6999999284744","resources/trios/L1T2A3.jpg","38","restless",0.5,0.4,0.1,0.674081806899577,"false"
"image-keyboard-response",568,396873,"0.0-4.185-1.185","uonx6mb19c91v51",136,"132.csv","","null","resources/maskTrios/BT2B.jpg","null","",NA,NA,NA,NA,""
"image-keyboard-response",569,398090,"0.0-4.185-2.185","uonx6mb19c91v51",136,"132.csv","","null","resources/images/fishbone.png","null","",NA,NA,NA,NA,""
"image-keyboard-response",570,398292,"0.0-4.186-0.186","uonx6mb19c91v51",136,"132.csv","","199.89999997615814","resources/trios/L1T2A3.jpg","39","restless",0.5,0.4,0.1,0.585469547925411,"false"
"image-keyboard-response",571,398696,"0.0-4.186-1.186","uonx6mb19c91v51",136,"132.csv","","null","resources/maskTrios/BBA3.jpg","null","",NA,NA,NA,NA,""
"image-keyboard-response",572,399913,"0.0-4.186-2.186","uonx6mb19c91v51",136,"132.csv","","null","resources/images/fishbone.png","null","",NA,NA,NA,NA,""
"image-keyboard-response",573,400141,"0.0-4.187-0.187","uonx6mb19c91v51",136,"132.csv","","224.5","resources/trios/L1T2A3.jpg","37","restless",0.5,0.4,0.1,0.594963439686904,"false"
"image-keyboard-response",574,400555,"0.0-4.187-1.187","uonx6mb19c91v51",136,"132.csv","","null","resources/maskTrios/L1BB.jpg","null","",NA,NA,NA,NA,""
"image-keyboard-response",575,401757,"0.0-4.187-2.187","uonx6mb19c91v51",136,"132.csv","","null","resources/images/fishbone.png","null","",NA,NA,NA,NA,""
"image-keyboard-response",576,401915,"0.0-4.188-0.188","uonx6mb19c91v51",136,"132.csv","","154.60000002384186","resources/trios/L1T2A3.jpg","38","restless",0.5,0.4,0.1,0.137147253409948,"true"
"image-keyboard-response",577,402319,"0.0-4.188-1.188","uonx6mb19c91v51",136,"132.csv","","null","resources/maskTrios/BT2B.jpg","null","",NA,NA,NA,NA,""
"image-keyboard-response",578,403538,"0.0-4.188-2.188","uonx6mb19c91v51",136,"132.csv","","null","resources/images/coin2.png","null","",NA,NA,NA,NA,""
"image-keyboard-response",579,404704,"0.0-4.189-0.189","uonx6mb19c91v51",136,"132.csv","","1163.2000000476837","resources/trios/L1T2A3.jpg","38","restless",0.5,0.4,0.1,0.890177244684645,"false"
"image-keyboard-response",580,405116,"0.0-4.189-1.189","uonx6mb19c91v51",136,"132.csv","","null","resources/maskTrios/BT2B.jpg","null","",NA,NA,NA,NA,""
"image-keyboard-response",581,406326,"0.0-4.189-2.189","uonx6mb19c91v51",136,"132.csv","","null","resources/images/fishbone.png","null","",NA,NA,NA,NA,""
"image-keyboard-response",582,406643,"0.0-4.190-0.190","uonx6mb19c91v51",136,"132.csv","","314.60000002384186","resources/trios/L1T2A3.jpg","39","restless",0.5,0.4,0.2,0.423121088137248,"false"
"image-keyboard-response",583,407046,"0.0-4.190-1.190","uonx6mb19c91v51",136,"132.csv","","null","resources/maskTrios/BBA3.jpg","null","",NA,NA,NA,NA,""
"image-keyboard-response",584,408261,"0.0-4.190-2.190","uonx6mb19c91v51",136,"132.csv","","null","resources/images/fishbone.png","null","",NA,NA,NA,NA,""
"image-keyboard-response",585,408503,"0.0-4.191-0.191","uonx6mb19c91v51",136,"132.csv","","239","resources/trios/L1T2A3.jpg","37","restless",0.5,0.4,0.2,0.171046667677319,"true"
"image-keyboard-response",586,408914,"0.0-4.191-1.191","uonx6mb19c91v51",136,"132.csv","","null","resources/maskTrios/L1BB.jpg","null","",NA,NA,NA,NA,""
"image-keyboard-response",587,410123,"0.0-4.191-2.191","uonx6mb19c91v51",136,"132.csv","","null","resources/images/coin2.png","null","",NA,NA,NA,NA,""
"image-keyboard-response",588,410442,"0.0-4.192-0.192","uonx6mb19c91v51",136,"132.csv","","316","resources/trios/L1T2A3.jpg","37","restless",0.5,0.4,0.2,0.961529310404968,"false"
"image-keyboard-response",589,410859,"0.0-4.192-1.192","uonx6mb19c91v51",136,"132.csv","","null","resources/maskTrios/L1BB.jpg","null","",NA,NA,NA,NA,""
"image-keyboard-response",590,412064,"0.0-4.192-2.192","uonx6mb19c91v51",136,"132.csv","","null","resources/images/fishbone.png","null","",NA,NA,NA,NA,""
"image-keyboard-response",591,412315,"0.0-4.193-0.193","uonx6mb19c91v51",136,"132.csv","","248.59999990463257","resources/trios/L1T2A3.jpg","38","restless",0.4,0.4,0.3,0.0495069270258588,"true"
"image-keyboard-response",592,412722,"0.0-4.193-1.193","uonx6mb19c91v51",136,"132.csv","","null","resources/maskTrios/BT2B.jpg","null","",NA,NA,NA,NA,""
"image-keyboard-response",593,413935,"0.0-4.193-2.193","uonx6mb19c91v51",136,"132.csv","","null","resources/images/coin2.png","null","",NA,NA,NA,NA,""
"image-keyboard-response",594,414258,"0.0-4.194-0.194","uonx6mb19c91v51",136,"132.csv","","320.8000000715256","resources/trios/L1T2A3.jpg","38","restless",0.4,0.4,0.3,0.362750825689873,"true"
"image-keyboard-response",595,414675,"0.0-4.194-1.194","uonx6mb19c91v51",136,"132.csv","","null","resources/maskTrios/BT2B.jpg","null","",NA,NA,NA,NA,""
"image-keyboard-response",596,415879,"0.0-4.194-2.194","uonx6mb19c91v51",136,"132.csv","","null","resources/images/coin2.png","null","",NA,NA,NA,NA,""
"image-keyboard-response",597,416213,"0.0-4.195-0.195","uonx6mb19c91v51",136,"132.csv","","331.7000000476837","resources/trios/L1T2A3.jpg","38","restless",0.4,0.4,0.3,0.195266005091002,"true"
"image-keyboard-response",598,416623,"0.0-4.195-1.195","uonx6mb19c91v51",136,"132.csv","","null","resources/maskTrios/BT2B.jpg","null","",NA,NA,NA,NA,""
"image-keyboard-response",599,417832,"0.0-4.195-2.195","uonx6mb19c91v51",136,"132.csv","","null","resources/images/coin2.png","null","",NA,NA,NA,NA,""
"image-keyboard-response",600,418191,"0.0-4.196-0.196","uonx6mb19c91v51",136,"132.csv","","355.8000000715256","resources/trios/L1T2A3.jpg","38","restless",0.4,0.4,0.3,0.408715083343832,"false"
"image-keyboard-response",601,418608,"0.0-4.196-1.196","uonx6mb19c91v51",136,"132.csv","","null","resources/maskTrios/BT2B.jpg","null","",NA,NA,NA,NA,""
"image-keyboard-response",602,419810,"0.0-4.196-2.196","uonx6mb19c91v51",136,"132.csv","","null","resources/images/fishbone.png","null","",NA,NA,NA,NA,""
"image-keyboard-response",603,420154,"0.0-4.197-0.197","uonx6mb19c91v51",136,"132.csv","","340.89999997615814","resources/trios/L1T2A3.jpg","37","restless",0.4,0.5,0.4,0.456802698287848,"false"
"image-keyboard-response",604,420566,"0.0-4.197-1.197","uonx6mb19c91v51",136,"132.csv","","null","resources/maskTrios/L1BB.jpg","null","",NA,NA,NA,NA,""
"image-keyboard-response",605,421776,"0.0-4.197-2.197","uonx6mb19c91v51",136,"132.csv","","null","resources/images/fishbone.png","null","",NA,NA,NA,NA,""
"image-keyboard-response",606,422016,"0.0-4.198-0.198","uonx6mb19c91v51",136,"132.csv","","236.70000004768372","resources/trios/L1T2A3.jpg","39","restless",0.4,0.5,0.4,0.629894304040313,"false"
"image-keyboard-response",607,422421,"0.0-4.198-1.198","uonx6mb19c91v51",136,"132.csv","","null","resources/maskTrios/BBA3.jpg","null","",NA,NA,NA,NA,""
"image-keyboard-response",608,423633,"0.0-4.198-2.198","uonx6mb19c91v51",136,"132.csv","","null","resources/images/fishbone.png","null","",NA,NA,NA,NA,""
