"trial_type","trial_index","time_elapsed","internal_node_id","subject","participantCode","walkNumber","success","rt","stimulus","key_press","test_part","leftProb","midProb","rightProb","generatedNum","correct"
"pavlovia",0,861,"0.0-0.0","6uko8l4u3esu4ne",134,"82.csv","","","","","",NA,NA,NA,NA,""
"fullscreen",1,4108,"0.0-1.0","6uko8l4u3esu4ne",134,"82.csv","true","","","","",NA,NA,NA,NA,""
"survey-html-form",2,12098,"0.0-2.0","6uko8l4u3esu4ne",134,"82.csv","","7985.300000011921","","","",NA,NA,NA,NA,""
"image-keyboard-response",3,19509,"0.0-3.0-0.0","6uko8l4u3esu4ne",134,"82.csv","","7408","resources/images/parrot_nobg.png","13","",NA,NA,NA,NA,""
"image-keyboard-response",4,22516,"0.0-3.0-1.0","6uko8l4u3esu4ne",134,"82.csv","","null","resources/image_sets/111.png","null","",NA,NA,NA,NA,""
"image-keyboard-response",5,27863,"0.0-3.0-2.0","6uko8l4u3esu4ne",134,"82.csv","","5344.599999964237","resources/image_sets/left_highlight.png","37","",NA,NA,NA,NA,""
"image-keyboard-response",6,29682,"0.0-3.0-3.0","6uko8l4u3esu4ne",134,"82.csv","","1817.3999999761581","resources/image_sets/mid_highlight.png","38","",NA,NA,NA,NA,""
"image-keyboard-response",7,30292,"0.0-3.0-4.0","6uko8l4u3esu4ne",134,"82.csv","","608.1999999880791","resources/image_sets/right_highlight.png","39","",NA,NA,NA,NA,""
"image-keyboard-response",8,33094,"0.0-3.0-5.0","6uko8l4u3esu4ne",134,"82.csv","","2800.5","resources/image_sets/111.png","13","",NA,NA,NA,NA,""
"image-keyboard-response",9,35651,"0.0-3.0-6.0","6uko8l4u3esu4ne",134,"82.csv","","2556.899999976158","resources/images/coin2.png","13","",NA,NA,NA,NA,""
"image-keyboard-response",10,37331,"0.0-3.0-7.0","6uko8l4u3esu4ne",134,"82.csv","","1678.3999999761581","resources/images/fishbone.png","13","",NA,NA,NA,NA,""
"html-keyboard-response",11,41813,"0.0-3.0-8.0","6uko8l4u3esu4ne",134,"82.csv","","4481.599999964237","<p>You can track your coin total on the top right of your screen. </p><p>At the end of your journey you will be directed to a survey, so please click on the link before exiting the task</p><p>Press Enter to begin</p>","13","",NA,NA,NA,NA,""
"image-keyboard-response",12,44218,"0.0-4.0-0.0","6uko8l4u3esu4ne",134,"82.csv","","2403.699999988079","resources/trios/L4T2A3.jpg","38","restless",0.3,0.7,0.9,0.241077526842772,"true"
"image-keyboard-response",13,44623,"0.0-4.0-1.0","6uko8l4u3esu4ne",134,"82.csv","","null","resources/maskTrios/BT2B.jpg","null","",NA,NA,NA,NA,""
"image-keyboard-response",14,45829,"0.0-4.0-2.0","6uko8l4u3esu4ne",134,"82.csv","","null","resources/images/coin2.png","null","",NA,NA,NA,NA,""
"image-keyboard-response",15,47326,"0.0-4.1-0.1","6uko8l4u3esu4ne",134,"82.csv","","1494","resources/trios/L4T2A3.jpg","37","restless",0.3,0.7,0.9,0.969271316574976,"false"
"image-keyboard-response",16,47729,"0.0-4.1-1.1","6uko8l4u3esu4ne",134,"82.csv","","null","resources/maskTrios/L4BB.jpg","null","",NA,NA,NA,NA,""
"image-keyboard-response",17,48932,"0.0-4.1-2.1","6uko8l4u3esu4ne",134,"82.csv","","null","resources/images/fishbone.png","null","",NA,NA,NA,NA,""
"image-keyboard-response",18,50464,"0.0-4.2-0.2","6uko8l4u3esu4ne",134,"82.csv","","1529.300000011921","resources/trios/L4T2A3.jpg","38","restless",0.3,0.8,0.9,0.45635033378523,"true"
"image-keyboard-response",19,50867,"0.0-4.2-1.2","6uko8l4u3esu4ne",134,"82.csv","","null","resources/maskTrios/BT2B.jpg","null","",NA,NA,NA,NA,""
"image-keyboard-response",20,52071,"0.0-4.2-2.2","6uko8l4u3esu4ne",134,"82.csv","","null","resources/images/coin2.png","null","",NA,NA,NA,NA,""
"image-keyboard-response",21,52475,"0.0-4.3-0.3","6uko8l4u3esu4ne",134,"82.csv","","401.5","resources/trios/L4T2A3.jpg","38","restless",0.3,0.8,0.9,0.457916226785726,"true"
"image-keyboard-response",22,52878,"0.0-4.3-1.3","6uko8l4u3esu4ne",134,"82.csv","","null","resources/maskTrios/BT2B.jpg","null","",NA,NA,NA,NA,""
"image-keyboard-response",23,54081,"0.0-4.3-2.3","6uko8l4u3esu4ne",134,"82.csv","","null","resources/images/coin2.png","null","",NA,NA,NA,NA,""
"image-keyboard-response",24,54427,"0.0-4.4-0.4","6uko8l4u3esu4ne",134,"82.csv","","343.19999998807907","resources/trios/L4T2A3.jpg","38","restless",0.3,0.8,0.8,0.748858603834916,"true"
"image-keyboard-response",25,54829,"0.0-4.4-1.4","6uko8l4u3esu4ne",134,"82.csv","","null","resources/maskTrios/BT2B.jpg","null","",NA,NA,NA,NA,""
"image-keyboard-response",26,56033,"0.0-4.4-2.4","6uko8l4u3esu4ne",134,"82.csv","","null","resources/images/coin2.png","null","",NA,NA,NA,NA,""
"image-keyboard-response",27,56341,"0.0-4.5-0.5","6uko8l4u3esu4ne",134,"82.csv","","305.5","resources/trios/L4T2A3.jpg","38","restless",0.3,0.9,0.8,0.605254199729286,"true"
"image-keyboard-response",28,56744,"0.0-4.5-1.5","6uko8l4u3esu4ne",134,"82.csv","","null","resources/maskTrios/BT2B.jpg","null","",NA,NA,NA,NA,""
"image-keyboard-response",29,57948,"0.0-4.5-2.5","6uko8l4u3esu4ne",134,"82.csv","","null","resources/images/coin2.png","null","",NA,NA,NA,NA,""
"image-keyboard-response",30,58319,"0.0-4.6-0.6","6uko8l4u3esu4ne",134,"82.csv","","367.5","resources/trios/L4T2A3.jpg","38","restless",0.3,0.9,0.8,0.638884961843208,"true"
"image-keyboard-response",31,58721,"0.0-4.6-1.6","6uko8l4u3esu4ne",134,"82.csv","","null","resources/maskTrios/BT2B.jpg","null","",NA,NA,NA,NA,""
"image-keyboard-response",32,59937,"0.0-4.6-2.6","6uko8l4u3esu4ne",134,"82.csv","","null","resources/images/coin2.png","null","",NA,NA,NA,NA,""
"image-keyboard-response",33,60704,"0.0-4.7-0.7","6uko8l4u3esu4ne",134,"82.csv","","765.6000000238419","resources/trios/L4T2A3.jpg","38","restless",0.3,0.9,0.7,0.677433286226644,"true"
"image-keyboard-response",34,61107,"0.0-4.7-1.7","6uko8l4u3esu4ne",134,"82.csv","","null","resources/maskTrios/BT2B.jpg","null","",NA,NA,NA,NA,""
"image-keyboard-response",35,62310,"0.0-4.7-2.7","6uko8l4u3esu4ne",134,"82.csv","","null","resources/images/coin2.png","null","",NA,NA,NA,NA,""
"image-keyboard-response",36,62766,"0.0-4.8-0.8","6uko8l4u3esu4ne",134,"82.csv","","453.30000001192093","resources/trios/L4T2A3.jpg","38","restless",0.3,0.9,0.7,0.70591400640552,"true"
"image-keyboard-response",37,63169,"0.0-4.8-1.8","6uko8l4u3esu4ne",134,"82.csv","","null","resources/maskTrios/BT2B.jpg","null","",NA,NA,NA,NA,""
"image-keyboard-response",38,64373,"0.0-4.8-2.8","6uko8l4u3esu4ne",134,"82.csv","","null","resources/images/coin2.png","null","",NA,NA,NA,NA,""
"image-keyboard-response",39,64761,"0.0-4.9-0.9","6uko8l4u3esu4ne",134,"82.csv","","385.39999997615814","resources/trios/L4T2A3.jpg","38","restless",0.3,0.9,0.7,0.239999643138947,"true"
"image-keyboard-response",40,65164,"0.0-4.9-1.9","6uko8l4u3esu4ne",134,"82.csv","","null","resources/maskTrios/BT2B.jpg","null","",NA,NA,NA,NA,""
"image-keyboard-response",41,66368,"0.0-4.9-2.9","6uko8l4u3esu4ne",134,"82.csv","","null","resources/images/coin2.png","null","",NA,NA,NA,NA,""
"image-keyboard-response",42,66948,"0.0-4.10-0.10","6uko8l4u3esu4ne",134,"82.csv","","577.3000000119209","resources/trios/L4T2A3.jpg","39","restless",0.3,0.9,0.6,0.388783554166641,"true"
"image-keyboard-response",43,67351,"0.0-4.10-1.10","6uko8l4u3esu4ne",134,"82.csv","","null","resources/maskTrios/BBA3.jpg","null","",NA,NA,NA,NA,""
"image-keyboard-response",44,68553,"0.0-4.10-2.10","6uko8l4u3esu4ne",134,"82.csv","","null","resources/images/coin2.png","null","",NA,NA,NA,NA,""
"image-keyboard-response",45,69101,"0.0-4.11-0.11","6uko8l4u3esu4ne",134,"82.csv","","545.6999999880791","resources/trios/L4T2A3.jpg","39","restless",0.4,0.9,0.6,0.371485328198505,"true"
"image-keyboard-response",46,69504,"0.0-4.11-1.11","6uko8l4u3esu4ne",134,"82.csv","","null","resources/maskTrios/BBA3.jpg","null","",NA,NA,NA,NA,""
"image-keyboard-response",47,70706,"0.0-4.11-2.11","6uko8l4u3esu4ne",134,"82.csv","","null","resources/images/coin2.png","null","",NA,NA,NA,NA,""
"image-keyboard-response",48,71270,"0.0-4.12-0.12","6uko8l4u3esu4ne",134,"82.csv","","561.2000000476837","resources/trios/L4T2A3.jpg","39","restless",0.4,0.9,0.6,0.0107864474269848,"true"
"image-keyboard-response",49,71672,"0.0-4.12-1.12","6uko8l4u3esu4ne",134,"82.csv","","null","resources/maskTrios/BBA3.jpg","null","",NA,NA,NA,NA,""
"image-keyboard-response",50,72876,"0.0-4.12-2.12","6uko8l4u3esu4ne",134,"82.csv","","null","resources/images/coin2.png","null","",NA,NA,NA,NA,""
"image-keyboard-response",51,73210,"0.0-4.13-0.13","6uko8l4u3esu4ne",134,"82.csv","","332.19999998807907","resources/trios/L4T2A3.jpg","39","restless",0.4,0.9,0.6,0.899152307715288,"false"
"image-keyboard-response",52,73614,"0.0-4.13-1.13","6uko8l4u3esu4ne",134,"82.csv","","null","resources/maskTrios/BBA3.jpg","null","",NA,NA,NA,NA,""
"image-keyboard-response",53,74817,"0.0-4.13-2.13","6uko8l4u3esu4ne",134,"82.csv","","null","resources/images/fishbone.png","null","",NA,NA,NA,NA,""
"image-keyboard-response",54,75738,"0.0-4.14-0.14","6uko8l4u3esu4ne",134,"82.csv","","918.4000000357628","resources/trios/L4T2A3.jpg","38","restless",0.4,0.9,0.7,0.590877377117279,"true"
"image-keyboard-response",55,76140,"0.0-4.14-1.14","6uko8l4u3esu4ne",134,"82.csv","","null","resources/maskTrios/BT2B.jpg","null","",NA,NA,NA,NA,""
"image-keyboard-response",56,77349,"0.0-4.14-2.14","6uko8l4u3esu4ne",134,"82.csv","","null","resources/images/coin2.png","null","",NA,NA,NA,NA,""
"image-keyboard-response",57,77705,"0.0-4.15-0.15","6uko8l4u3esu4ne",134,"82.csv","","353.80000001192093","resources/trios/L4T2A3.jpg","38","restless",0.4,0.9,0.6,0.442652379558538,"true"
"image-keyboard-response",58,78108,"0.0-4.15-1.15","6uko8l4u3esu4ne",134,"82.csv","","null","resources/maskTrios/BT2B.jpg","null","",NA,NA,NA,NA,""
"image-keyboard-response",59,79310,"0.0-4.15-2.15","6uko8l4u3esu4ne",134,"82.csv","","null","resources/images/coin2.png","null","",NA,NA,NA,NA,""
"image-keyboard-response",60,79672,"0.0-4.16-0.16","6uko8l4u3esu4ne",134,"82.csv","","360","resources/trios/L4T2A3.jpg","38","restless",0.4,0.9,0.5,0.183514242277367,"true"
"image-keyboard-response",61,80075,"0.0-4.16-1.16","6uko8l4u3esu4ne",134,"82.csv","","null","resources/maskTrios/BT2B.jpg","null","",NA,NA,NA,NA,""
"image-keyboard-response",62,81278,"0.0-4.16-2.16","6uko8l4u3esu4ne",134,"82.csv","","null","resources/images/coin2.png","null","",NA,NA,NA,NA,""
"image-keyboard-response",63,81565,"0.0-4.17-0.17","6uko8l4u3esu4ne",134,"82.csv","","283.5999999642372","resources/trios/L4T2A3.jpg","38","restless",0.4,0.9,0.5,0.580282814145851,"true"
"image-keyboard-response",64,81969,"0.0-4.17-1.17","6uko8l4u3esu4ne",134,"82.csv","","null","resources/maskTrios/BT2B.jpg","null","",NA,NA,NA,NA,""
"image-keyboard-response",65,83172,"0.0-4.17-2.17","6uko8l4u3esu4ne",134,"82.csv","","null","resources/images/coin2.png","null","",NA,NA,NA,NA,""
"image-keyboard-response",66,83455,"0.0-4.18-0.18","6uko8l4u3esu4ne",134,"82.csv","","278.89999997615814","resources/trios/L4T2A3.jpg","38","restless",0.4,0.9,0.5,0.633569897980897,"true"
"image-keyboard-response",67,83858,"0.0-4.18-1.18","6uko8l4u3esu4ne",134,"82.csv","","null","resources/maskTrios/BT2B.jpg","null","",NA,NA,NA,NA,""
"image-keyboard-response",68,85060,"0.0-4.18-2.18","6uko8l4u3esu4ne",134,"82.csv","","null","resources/images/coin2.png","null","",NA,NA,NA,NA,""
"image-keyboard-response",69,85317,"0.0-4.19-0.19","6uko8l4u3esu4ne",134,"82.csv","","254","resources/trios/L4T2A3.jpg","38","restless",0.4,0.9,0.5,0.618794307853751,"true"
"image-keyboard-response",70,85720,"0.0-4.19-1.19","6uko8l4u3esu4ne",134,"82.csv","","null","resources/maskTrios/BT2B.jpg","null","",NA,NA,NA,NA,""
"image-keyboard-response",71,86923,"0.0-4.19-2.19","6uko8l4u3esu4ne",134,"82.csv","","null","resources/images/coin2.png","null","",NA,NA,NA,NA,""
"image-keyboard-response",72,87193,"0.0-4.20-0.20","6uko8l4u3esu4ne",134,"82.csv","","267.39999997615814","resources/trios/L4T2A3.jpg","38","restless",0.4,0.9,0.5,0.592523713923137,"true"
"image-keyboard-response",73,87596,"0.0-4.20-1.20","6uko8l4u3esu4ne",134,"82.csv","","null","resources/maskTrios/BT2B.jpg","null","",NA,NA,NA,NA,""
"image-keyboard-response",74,88799,"0.0-4.20-2.20","6uko8l4u3esu4ne",134,"82.csv","","null","resources/images/coin2.png","null","",NA,NA,NA,NA,""
"image-keyboard-response",75,89085,"0.0-4.21-0.21","6uko8l4u3esu4ne",134,"82.csv","","284.30000001192093","resources/trios/L4T2A3.jpg","38","restless",0.4,0.9,0.4,0.442440684521493,"true"
"image-keyboard-response",76,89488,"0.0-4.21-1.21","6uko8l4u3esu4ne",134,"82.csv","","null","resources/maskTrios/BT2B.jpg","null","",NA,NA,NA,NA,""
"image-keyboard-response",77,90691,"0.0-4.21-2.21","6uko8l4u3esu4ne",134,"82.csv","","null","resources/images/coin2.png","null","",NA,NA,NA,NA,""
"image-keyboard-response",78,90985,"0.0-4.22-0.22","6uko8l4u3esu4ne",134,"82.csv","","291.0999999642372","resources/trios/L4T2A3.jpg","38","restless",0.4,0.9,0.4,0.34587533215963,"true"
"image-keyboard-response",79,91388,"0.0-4.22-1.22","6uko8l4u3esu4ne",134,"82.csv","","null","resources/maskTrios/BT2B.jpg","null","",NA,NA,NA,NA,""
"image-keyboard-response",80,92591,"0.0-4.22-2.22","6uko8l4u3esu4ne",134,"82.csv","","null","resources/images/coin2.png","null","",NA,NA,NA,NA,""
"image-keyboard-response",81,92729,"0.0-4.23-0.23","6uko8l4u3esu4ne",134,"82.csv","","135.30000001192093","resources/trios/L4T2A3.jpg","38","restless",0.4,0.9,0.3,0.225461486444497,"true"
"image-keyboard-response",82,93132,"0.0-4.23-1.23","6uko8l4u3esu4ne",134,"82.csv","","null","resources/maskTrios/BT2B.jpg","null","",NA,NA,NA,NA,""
"image-keyboard-response",83,94335,"0.0-4.23-2.23","6uko8l4u3esu4ne",134,"82.csv","","null","resources/images/coin2.png","null","",NA,NA,NA,NA,""
"image-keyboard-response",84,94552,"0.0-4.24-0.24","6uko8l4u3esu4ne",134,"82.csv","","214.10000002384186","resources/trios/L4T2A3.jpg","38","restless",0.4,0.9,0.2,0.71001598094366,"true"
"image-keyboard-response",85,94956,"0.0-4.24-1.24","6uko8l4u3esu4ne",134,"82.csv","","null","resources/maskTrios/BT2B.jpg","null","",NA,NA,NA,NA,""
"image-keyboard-response",86,96159,"0.0-4.24-2.24","6uko8l4u3esu4ne",134,"82.csv","","null","resources/images/coin2.png","null","",NA,NA,NA,NA,""
"image-keyboard-response",87,96274,"0.0-4.25-0.25","6uko8l4u3esu4ne",134,"82.csv","","112.90000003576279","resources/trios/L4T2A3.jpg","38","restless",0.4,0.9,0.3,0.466512865750738,"true"
"image-keyboard-response",88,96677,"0.0-4.25-1.25","6uko8l4u3esu4ne",134,"82.csv","","null","resources/maskTrios/BT2B.jpg","null","",NA,NA,NA,NA,""
"image-keyboard-response",89,97880,"0.0-4.25-2.25","6uko8l4u3esu4ne",134,"82.csv","","null","resources/images/coin2.png","null","",NA,NA,NA,NA,""
"image-keyboard-response",90,98416,"0.0-4.26-0.26","6uko8l4u3esu4ne",134,"82.csv","","533.1000000238419","resources/trios/L4T2A3.jpg","38","restless",0.4,0.9,0.3,0.266851966678661,"true"
"image-keyboard-response",91,98819,"0.0-4.26-1.26","6uko8l4u3esu4ne",134,"82.csv","","null","resources/maskTrios/BT2B.jpg","null","",NA,NA,NA,NA,""
"image-keyboard-response",92,100022,"0.0-4.26-2.26","6uko8l4u3esu4ne",134,"82.csv","","null","resources/images/coin2.png","null","",NA,NA,NA,NA,""
"image-keyboard-response",93,100314,"0.0-4.27-0.27","6uko8l4u3esu4ne",134,"82.csv","","290.39999997615814","resources/trios/L4T2A3.jpg","38","restless",0.4,0.9,0.3,0.107984131223288,"true"
"image-keyboard-response",94,100718,"0.0-4.27-1.27","6uko8l4u3esu4ne",134,"82.csv","","null","resources/maskTrios/BT2B.jpg","null","",NA,NA,NA,NA,""
"image-keyboard-response",95,101921,"0.0-4.27-2.27","6uko8l4u3esu4ne",134,"82.csv","","null","resources/images/coin2.png","null","",NA,NA,NA,NA,""
"image-keyboard-response",96,102220,"0.0-4.28-0.28","6uko8l4u3esu4ne",134,"82.csv","","296.19999998807907","resources/trios/L4T2A3.jpg","38","restless",0.4,0.9,0.3,0.0424880491091288,"true"
"image-keyboard-response",97,102623,"0.0-4.28-1.28","6uko8l4u3esu4ne",134,"82.csv","","null","resources/maskTrios/BT2B.jpg","null","",NA,NA,NA,NA,""
"image-keyboard-response",98,103826,"0.0-4.28-2.28","6uko8l4u3esu4ne",134,"82.csv","","null","resources/images/coin2.png","null","",NA,NA,NA,NA,""
"image-keyboard-response",99,104221,"0.0-4.29-0.29","6uko8l4u3esu4ne",134,"82.csv","","392.80000001192093","resources/trios/L4T2A3.jpg","38","restless",0.4,0.9,0.3,0.934494239777435,"false"
"image-keyboard-response",100,104624,"0.0-4.29-1.29","6uko8l4u3esu4ne",134,"82.csv","","null","resources/maskTrios/BT2B.jpg","null","",NA,NA,NA,NA,""
"image-keyboard-response",101,105826,"0.0-4.29-2.29","6uko8l4u3esu4ne",134,"82.csv","","null","resources/images/fishbone.png","null","",NA,NA,NA,NA,""
"image-keyboard-response",102,106122,"0.0-4.30-0.30","6uko8l4u3esu4ne",134,"82.csv","","293.7999999523163","resources/trios/L4T2A3.jpg","37","restless",0.4,0.9,0.3,0.766525443766997,"false"
"image-keyboard-response",103,106525,"0.0-4.30-1.30","6uko8l4u3esu4ne",134,"82.csv","","null","resources/maskTrios/L4BB.jpg","null","",NA,NA,NA,NA,""
"image-keyboard-response",104,107728,"0.0-4.30-2.30","6uko8l4u3esu4ne",134,"82.csv","","null","resources/images/fishbone.png","null","",NA,NA,NA,NA,""
"image-keyboard-response",105,107997,"0.0-4.31-0.31","6uko8l4u3esu4ne",134,"82.csv","","266.5999999642372","resources/trios/L4T2A3.jpg","39","restless",0.4,0.9,0.3,0.629513537699521,"false"
"image-keyboard-response",106,108399,"0.0-4.31-1.31","6uko8l4u3esu4ne",134,"82.csv","","null","resources/maskTrios/BBA3.jpg","null","",NA,NA,NA,NA,""
"image-keyboard-response",107,109602,"0.0-4.31-2.31","6uko8l4u3esu4ne",134,"82.csv","","null","resources/images/fishbone.png","null","",NA,NA,NA,NA,""
"image-keyboard-response",108,109902,"0.0-4.32-0.32","6uko8l4u3esu4ne",134,"82.csv","","297.60000002384186","resources/trios/L4T2A3.jpg","38","restless",0.4,0.9,0.3,0.0877038248216104,"true"
"image-keyboard-response",109,110305,"0.0-4.32-1.32","6uko8l4u3esu4ne",134,"82.csv","","null","resources/maskTrios/BT2B.jpg","null","",NA,NA,NA,NA,""
"image-keyboard-response",110,111508,"0.0-4.32-2.32","6uko8l4u3esu4ne",134,"82.csv","","null","resources/images/coin2.png","null","",NA,NA,NA,NA,""
"image-keyboard-response",111,111705,"0.0-4.33-0.33","6uko8l4u3esu4ne",134,"82.csv","","195","resources/trios/L4T2A3.jpg","38","restless",0.4,0.9,0.3,0.777644234661135,"true"
"image-keyboard-response",112,112107,"0.0-4.33-1.33","6uko8l4u3esu4ne",134,"82.csv","","null","resources/maskTrios/BT2B.jpg","null","",NA,NA,NA,NA,""
"image-keyboard-response",113,113310,"0.0-4.33-2.33","6uko8l4u3esu4ne",134,"82.csv","","null","resources/images/coin2.png","null","",NA,NA,NA,NA,""
"image-keyboard-response",114,113423,"0.0-4.34-0.34","6uko8l4u3esu4ne",134,"82.csv","","110.80000001192093","resources/trios/L4T2A3.jpg","38","restless",0.4,0.9,0.3,0.982628010491324,"false"
"image-keyboard-response",115,113826,"0.0-4.34-1.34","6uko8l4u3esu4ne",134,"82.csv","","null","resources/maskTrios/BT2B.jpg","null","",NA,NA,NA,NA,""
"image-keyboard-response",116,115029,"0.0-4.34-2.34","6uko8l4u3esu4ne",134,"82.csv","","null","resources/images/fishbone.png","null","",NA,NA,NA,NA,""
"image-keyboard-response",117,115327,"0.0-4.35-0.35","6uko8l4u3esu4ne",134,"82.csv","","295.2999999523163","resources/trios/L4T2A3.jpg","37","restless",0.4,0.9,0.3,0.366746597050963,"true"
"image-keyboard-response",118,115739,"0.0-4.35-1.35","6uko8l4u3esu4ne",134,"82.csv","","null","resources/maskTrios/L4BB.jpg","null","",NA,NA,NA,NA,""
"image-keyboard-response",119,116942,"0.0-4.35-2.35","6uko8l4u3esu4ne",134,"82.csv","","null","resources/images/coin2.png","null","",NA,NA,NA,NA,""
"image-keyboard-response",120,117187,"0.0-4.36-0.36","6uko8l4u3esu4ne",134,"82.csv","","242.5999999642372","resources/trios/L4T2A3.jpg","37","restless",0.3,0.9,0.3,0.244899616673417,"true"
"image-keyboard-response",121,117590,"0.0-4.36-1.36","6uko8l4u3esu4ne",134,"82.csv","","null","resources/maskTrios/L4BB.jpg","null","",NA,NA,NA,NA,""
"image-keyboard-response",122,118792,"0.0-4.36-2.36","6uko8l4u3esu4ne",134,"82.csv","","null","resources/images/coin2.png","null","",NA,NA,NA,NA,""
"image-keyboard-response",123,119049,"0.0-4.37-0.37","6uko8l4u3esu4ne",134,"82.csv","","254.80000001192093","resources/trios/L4T2A3.jpg","37","restless",0.3,0.9,0.4,0.083845009226204,"true"
"image-keyboard-response",124,119452,"0.0-4.37-1.37","6uko8l4u3esu4ne",134,"82.csv","","null","resources/maskTrios/L4BB.jpg","null","",NA,NA,NA,NA,""
"image-keyboard-response",125,120654,"0.0-4.37-2.37","6uko8l4u3esu4ne",134,"82.csv","","null","resources/images/coin2.png","null","",NA,NA,NA,NA,""
"image-keyboard-response",126,120920,"0.0-4.38-0.38","6uko8l4u3esu4ne",134,"82.csv","","263.5","resources/trios/L4T2A3.jpg","37","restless",0.3,0.8,0.4,0.397009115678972,"false"
"image-keyboard-response",127,121323,"0.0-4.38-1.38","6uko8l4u3esu4ne",134,"82.csv","","null","resources/maskTrios/L4BB.jpg","null","",NA,NA,NA,NA,""
"image-keyboard-response",128,122525,"0.0-4.38-2.38","6uko8l4u3esu4ne",134,"82.csv","","null","resources/images/fishbone.png","null","",NA,NA,NA,NA,""
"image-keyboard-response",129,122804,"0.0-4.39-0.39","6uko8l4u3esu4ne",134,"82.csv","","276","resources/trios/L4T2A3.jpg","37","restless",0.3,0.8,0.4,0.768623649113961,"false"
"image-keyboard-response",130,123207,"0.0-4.39-1.39","6uko8l4u3esu4ne",134,"82.csv","","null","resources/maskTrios/L4BB.jpg","null","",NA,NA,NA,NA,""
"image-keyboard-response",131,124408,"0.0-4.39-2.39","6uko8l4u3esu4ne",134,"82.csv","","null","resources/images/fishbone.png","null","",NA,NA,NA,NA,""
"image-keyboard-response",132,124960,"0.0-4.40-0.40","6uko8l4u3esu4ne",134,"82.csv","","549.3999999761581","resources/trios/L4T2A3.jpg","38","restless",0.3,0.8,0.4,0.47109896667594,"true"
"image-keyboard-response",133,125362,"0.0-4.40-1.40","6uko8l4u3esu4ne",134,"82.csv","","null","resources/maskTrios/BT2B.jpg","null","",NA,NA,NA,NA,""
"image-keyboard-response",134,126566,"0.0-4.40-2.40","6uko8l4u3esu4ne",134,"82.csv","","null","resources/images/coin2.png","null","",NA,NA,NA,NA,""
"image-keyboard-response",135,126679,"0.0-4.41-0.41","6uko8l4u3esu4ne",134,"82.csv","","111.19999998807907","resources/trios/L4T2A3.jpg","38","restless",0.3,0.8,0.4,0.92501008868903,"false"
"image-keyboard-response",136,127082,"0.0-4.41-1.41","6uko8l4u3esu4ne",134,"82.csv","","null","resources/maskTrios/BT2B.jpg","null","",NA,NA,NA,NA,""
"image-keyboard-response",137,128285,"0.0-4.41-2.41","6uko8l4u3esu4ne",134,"82.csv","","null","resources/images/fishbone.png","null","",NA,NA,NA,NA,""
"image-keyboard-response",138,128537,"0.0-4.42-0.42","6uko8l4u3esu4ne",134,"82.csv","","249.9000000357628","resources/trios/L4T2A3.jpg","38","restless",0.3,0.8,0.4,0.27907832339305,"true"
"image-keyboard-response",139,128940,"0.0-4.42-1.42","6uko8l4u3esu4ne",134,"82.csv","","null","resources/maskTrios/BT2B.jpg","null","",NA,NA,NA,NA,""
"image-keyboard-response",140,130143,"0.0-4.42-2.42","6uko8l4u3esu4ne",134,"82.csv","","null","resources/images/coin2.png","null","",NA,NA,NA,NA,""
"image-keyboard-response",141,130409,"0.0-4.43-0.43","6uko8l4u3esu4ne",134,"82.csv","","263.10000002384186","resources/trios/L4T2A3.jpg","38","restless",0.4,0.8,0.4,0.847143725476361,"false"
"image-keyboard-response",142,130811,"0.0-4.43-1.43","6uko8l4u3esu4ne",134,"82.csv","","null","resources/maskTrios/BT2B.jpg","null","",NA,NA,NA,NA,""
"image-keyboard-response",143,132014,"0.0-4.43-2.43","6uko8l4u3esu4ne",134,"82.csv","","null","resources/images/fishbone.png","null","",NA,NA,NA,NA,""
"image-keyboard-response",144,132292,"0.0-4.44-0.44","6uko8l4u3esu4ne",134,"82.csv","","276.10000002384186","resources/trios/L4T2A3.jpg","38","restless",0.3,0.8,0.4,0.0103389135881407,"true"
"image-keyboard-response",145,132693,"0.0-4.44-1.44","6uko8l4u3esu4ne",134,"82.csv","","null","resources/maskTrios/BT2B.jpg","null","",NA,NA,NA,NA,""
"image-keyboard-response",146,133897,"0.0-4.44-2.44","6uko8l4u3esu4ne",134,"82.csv","","null","resources/images/coin2.png","null","",NA,NA,NA,NA,""
"image-keyboard-response",147,134209,"0.0-4.45-0.45","6uko8l4u3esu4ne",134,"82.csv","","310.2999999523163","resources/trios/L4T2A3.jpg","38","restless",0.2,0.8,0.4,0.95249477800128,"false"
"image-keyboard-response",148,134613,"0.0-4.45-1.45","6uko8l4u3esu4ne",134,"82.csv","","null","resources/maskTrios/BT2B.jpg","null","",NA,NA,NA,NA,""
"image-keyboard-response",149,135816,"0.0-4.45-2.45","6uko8l4u3esu4ne",134,"82.csv","","null","resources/images/fishbone.png","null","",NA,NA,NA,NA,""
"image-keyboard-response",150,135932,"0.0-4.46-0.46","6uko8l4u3esu4ne",134,"82.csv","","113.69999998807907","resources/trios/L4T2A3.jpg","39","restless",0.1,0.8,0.4,0.858193381274001,"false"
"image-keyboard-response",151,136335,"0.0-4.46-1.46","6uko8l4u3esu4ne",134,"82.csv","","null","resources/maskTrios/BBA3.jpg","null","",NA,NA,NA,NA,""
"image-keyboard-response",152,137537,"0.0-4.46-2.46","6uko8l4u3esu4ne",134,"82.csv","","null","resources/images/fishbone.png","null","",NA,NA,NA,NA,""
"image-keyboard-response",153,137790,"0.0-4.47-0.47","6uko8l4u3esu4ne",134,"82.csv","","251","resources/trios/L4T2A3.jpg","39","restless",0.1,0.7,0.5,0.643028553052916,"false"
"image-keyboard-response",154,138193,"0.0-4.47-1.47","6uko8l4u3esu4ne",134,"82.csv","","null","resources/maskTrios/BBA3.jpg","null","",NA,NA,NA,NA,""
"image-keyboard-response",155,139395,"0.0-4.47-2.47","6uko8l4u3esu4ne",134,"82.csv","","null","resources/images/fishbone.png","null","",NA,NA,NA,NA,""
"image-keyboard-response",156,139638,"0.0-4.48-0.48","6uko8l4u3esu4ne",134,"82.csv","","241.4000000357628","resources/trios/L4T2A3.jpg","39","restless",0.1,0.7,0.5,0.0745894723307241,"true"
"image-keyboard-response",157,140043,"0.0-4.48-1.48","6uko8l4u3esu4ne",134,"82.csv","","null","resources/maskTrios/BBA3.jpg","null","",NA,NA,NA,NA,""
"image-keyboard-response",158,141246,"0.0-4.48-2.48","6uko8l4u3esu4ne",134,"82.csv","","null","resources/images/coin2.png","null","",NA,NA,NA,NA,""
"image-keyboard-response",159,141513,"0.0-4.49-0.49","6uko8l4u3esu4ne",134,"82.csv","","264.5999999642372","resources/trios/L4T2A3.jpg","39","restless",0.1,0.7,0.5,0.766057715299485,"false"
"image-keyboard-response",160,141916,"0.0-4.49-1.49","6uko8l4u3esu4ne",134,"82.csv","","null","resources/maskTrios/BBA3.jpg","null","",NA,NA,NA,NA,""
"image-keyboard-response",161,143119,"0.0-4.49-2.49","6uko8l4u3esu4ne",134,"82.csv","","null","resources/images/fishbone.png","null","",NA,NA,NA,NA,""
"image-keyboard-response",162,143422,"0.0-4.50-0.50","6uko8l4u3esu4ne",134,"82.csv","","301.10000002384186","resources/trios/L4T2A3.jpg","38","restless",0.1,0.7,0.5,0.159638396489943,"true"
"image-keyboard-response",163,143825,"0.0-4.50-1.50","6uko8l4u3esu4ne",134,"82.csv","","null","resources/maskTrios/BT2B.jpg","null","",NA,NA,NA,NA,""
"image-keyboard-response",164,145029,"0.0-4.50-2.50","6uko8l4u3esu4ne",134,"82.csv","","null","resources/images/coin2.png","null","",NA,NA,NA,NA,""
"image-keyboard-response",165,145303,"0.0-4.51-0.51","6uko8l4u3esu4ne",134,"82.csv","","272.0999999642372","resources/trios/L4T2A3.jpg","38","restless",0.1,0.7,0.5,0.141883861944912,"true"
"image-keyboard-response",166,145706,"0.0-4.51-1.51","6uko8l4u3esu4ne",134,"82.csv","","null","resources/maskTrios/BT2B.jpg","null","",NA,NA,NA,NA,""
"image-keyboard-response",167,146909,"0.0-4.51-2.51","6uko8l4u3esu4ne",134,"82.csv","","null","resources/images/coin2.png","null","",NA,NA,NA,NA,""
"image-keyboard-response",168,147304,"0.0-4.52-0.52","6uko8l4u3esu4ne",134,"82.csv","","391.5","resources/trios/L4T2A3.jpg","38","restless",0.1,0.7,0.5,0.910843769182722,"false"
"image-keyboard-response",169,147706,"0.0-4.52-1.52","6uko8l4u3esu4ne",134,"82.csv","","null","resources/maskTrios/BT2B.jpg","null","",NA,NA,NA,NA,""
"image-keyboard-response",170,148909,"0.0-4.52-2.52","6uko8l4u3esu4ne",134,"82.csv","","null","resources/images/fishbone.png","null","",NA,NA,NA,NA,""
"image-keyboard-response",171,149098,"0.0-4.53-0.53","6uko8l4u3esu4ne",134,"82.csv","","186.5999999642372","resources/trios/L4T2A3.jpg","38","restless",0.1,0.7,0.5,0.0683470566926352,"true"
"image-keyboard-response",172,149500,"0.0-4.53-1.53","6uko8l4u3esu4ne",134,"82.csv","","null","resources/maskTrios/BT2B.jpg","null","",NA,NA,NA,NA,""
"image-keyboard-response",173,150704,"0.0-4.53-2.53","6uko8l4u3esu4ne",134,"82.csv","","null","resources/images/coin2.png","null","",NA,NA,NA,NA,""
"image-keyboard-response",174,151057,"0.0-4.54-0.54","6uko8l4u3esu4ne",134,"82.csv","","350.39999997615814","resources/trios/L4T2A3.jpg","38","restless",0.1,0.7,0.5,0.784590314163716,"false"
"image-keyboard-response",175,151459,"0.0-4.54-1.54","6uko8l4u3esu4ne",134,"82.csv","","null","resources/maskTrios/BT2B.jpg","null","",NA,NA,NA,NA,""
"image-keyboard-response",176,152662,"0.0-4.54-2.54","6uko8l4u3esu4ne",134,"82.csv","","null","resources/images/fishbone.png","null","",NA,NA,NA,NA,""
"image-keyboard-response",177,152929,"0.0-4.55-0.55","6uko8l4u3esu4ne",134,"82.csv","","264.89999997615814","resources/trios/L4T2A3.jpg","37","restless",0.1,0.6,0.5,0.80926696782225,"false"
"image-keyboard-response",178,153333,"0.0-4.55-1.55","6uko8l4u3esu4ne",134,"82.csv","","null","resources/maskTrios/L4BB.jpg","null","",NA,NA,NA,NA,""
"image-keyboard-response",179,154536,"0.0-4.55-2.55","6uko8l4u3esu4ne",134,"82.csv","","null","resources/images/fishbone.png","null","",NA,NA,NA,NA,""
"image-keyboard-response",180,155139,"0.0-4.56-0.56","6uko8l4u3esu4ne",134,"82.csv","","601.1000000238419","resources/trios/L4T2A3.jpg","38","restless",0.1,0.6,0.6,0.726561096408428,"false"
"image-keyboard-response",181,155542,"0.0-4.56-1.56","6uko8l4u3esu4ne",134,"82.csv","","null","resources/maskTrios/BT2B.jpg","null","",NA,NA,NA,NA,""
"image-keyboard-response",182,156744,"0.0-4.56-2.56","6uko8l4u3esu4ne",134,"82.csv","","null","resources/images/fishbone.png","null","",NA,NA,NA,NA,""
"image-keyboard-response",183,157128,"0.0-4.57-0.57","6uko8l4u3esu4ne",134,"82.csv","","382","resources/trios/L4T2A3.jpg","39","restless",0.1,0.6,0.6,0.463037166092108,"true"
"image-keyboard-response",184,157531,"0.0-4.57-1.57","6uko8l4u3esu4ne",134,"82.csv","","null","resources/maskTrios/BBA3.jpg","null","",NA,NA,NA,NA,""
"image-keyboard-response",185,158734,"0.0-4.57-2.57","6uko8l4u3esu4ne",134,"82.csv","","null","resources/images/coin2.png","null","",NA,NA,NA,NA,""
"image-keyboard-response",186,159119,"0.0-4.58-0.58","6uko8l4u3esu4ne",134,"82.csv","","382.39999997615814","resources/trios/L4T2A3.jpg","39","restless",0.1,0.6,0.6,0.860031191323672,"false"
"image-keyboard-response",187,159523,"0.0-4.58-1.58","6uko8l4u3esu4ne",134,"82.csv","","null","resources/maskTrios/BBA3.jpg","null","",NA,NA,NA,NA,""
"image-keyboard-response",188,160725,"0.0-4.58-2.58","6uko8l4u3esu4ne",134,"82.csv","","null","resources/images/fishbone.png","null","",NA,NA,NA,NA,""
"image-keyboard-response",189,160987,"0.0-4.59-0.59","6uko8l4u3esu4ne",134,"82.csv","","259","resources/trios/L4T2A3.jpg","38","restless",0.1,0.6,0.6,0.0400293788674311,"true"
"image-keyboard-response",190,161390,"0.0-4.59-1.59","6uko8l4u3esu4ne",134,"82.csv","","null","resources/maskTrios/BT2B.jpg","null","",NA,NA,NA,NA,""
"image-keyboard-response",191,162594,"0.0-4.59-2.59","6uko8l4u3esu4ne",134,"82.csv","","null","resources/images/coin2.png","null","",NA,NA,NA,NA,""
"image-keyboard-response",192,162991,"0.0-4.60-0.60","6uko8l4u3esu4ne",134,"82.csv","","395.19999998807907","resources/trios/L4T2A3.jpg","38","restless",0.1,0.6,0.6,0.790539878109098,"false"
"image-keyboard-response",193,163393,"0.0-4.60-1.60","6uko8l4u3esu4ne",134,"82.csv","","null","resources/maskTrios/BT2B.jpg","null","",NA,NA,NA,NA,""
"image-keyboard-response",194,164595,"0.0-4.60-2.60","6uko8l4u3esu4ne",134,"82.csv","","null","resources/images/fishbone.png","null","",NA,NA,NA,NA,""
"image-keyboard-response",195,164965,"0.0-4.61-0.61","6uko8l4u3esu4ne",134,"82.csv","","367.4000000357628","resources/trios/L4T2A3.jpg","38","restless",0.1,0.6,0.6,0.204966670217343,"true"
"image-keyboard-response",196,165367,"0.0-4.61-1.61","6uko8l4u3esu4ne",134,"82.csv","","null","resources/maskTrios/BT2B.jpg","null","",NA,NA,NA,NA,""
"image-keyboard-response",197,166571,"0.0-4.61-2.61","6uko8l4u3esu4ne",134,"82.csv","","null","resources/images/coin2.png","null","",NA,NA,NA,NA,""
"image-keyboard-response",198,166886,"0.0-4.62-0.62","6uko8l4u3esu4ne",134,"82.csv","","313","resources/trios/L4T2A3.jpg","38","restless",0.1,0.6,0.6,0.934332537938886,"false"
"image-keyboard-response",199,167289,"0.0-4.62-1.62","6uko8l4u3esu4ne",134,"82.csv","","null","resources/maskTrios/BT2B.jpg","null","",NA,NA,NA,NA,""
"image-keyboard-response",200,168492,"0.0-4.62-2.62","6uko8l4u3esu4ne",134,"82.csv","","null","resources/images/fishbone.png","null","",NA,NA,NA,NA,""
"image-keyboard-response",201,168820,"0.0-4.63-0.63","6uko8l4u3esu4ne",134,"82.csv","","325.89999997615814","resources/trios/L4T2A3.jpg","38","restless",0.1,0.7,0.6,0.136566895860521,"true"
"image-keyboard-response",202,169223,"0.0-4.63-1.63","6uko8l4u3esu4ne",134,"82.csv","","null","resources/maskTrios/BT2B.jpg","null","",NA,NA,NA,NA,""
"image-keyboard-response",203,170426,"0.0-4.63-2.63","6uko8l4u3esu4ne",134,"82.csv","","null","resources/images/coin2.png","null","",NA,NA,NA,NA,""
"image-keyboard-response",204,170705,"0.0-4.64-0.64","6uko8l4u3esu4ne",134,"82.csv","","276","resources/trios/L4T2A3.jpg","38","restless",0.1,0.7,0.6,0.155401426388516,"true"
"image-keyboard-response",205,171111,"0.0-4.64-1.64","6uko8l4u3esu4ne",134,"82.csv","","null","resources/maskTrios/BT2B.jpg","null","",NA,NA,NA,NA,""
"image-keyboard-response",206,172321,"0.0-4.64-2.64","6uko8l4u3esu4ne",134,"82.csv","","null","resources/images/coin2.png","null","",NA,NA,NA,NA,""
"image-keyboard-response",207,172607,"0.0-4.65-0.65","6uko8l4u3esu4ne",134,"82.csv","","283.5","resources/trios/L4T2A3.jpg","38","restless",0.1,0.7,0.6,0.0530095973905218,"true"
"image-keyboard-response",208,173009,"0.0-4.65-1.65","6uko8l4u3esu4ne",134,"82.csv","","null","resources/maskTrios/BT2B.jpg","null","",NA,NA,NA,NA,""
"image-keyboard-response",209,174212,"0.0-4.65-2.65","6uko8l4u3esu4ne",134,"82.csv","","null","resources/images/coin2.png","null","",NA,NA,NA,NA,""
"image-keyboard-response",210,174488,"0.0-4.66-0.66","6uko8l4u3esu4ne",134,"82.csv","","274.5999999642372","resources/trios/L4T2A3.jpg","38","restless",0.1,0.7,0.6,0.18765650710232,"true"
"image-keyboard-response",211,174890,"0.0-4.66-1.66","6uko8l4u3esu4ne",134,"82.csv","","null","resources/maskTrios/BT2B.jpg","null","",NA,NA,NA,NA,""
"image-keyboard-response",212,176093,"0.0-4.66-2.66","6uko8l4u3esu4ne",134,"82.csv","","null","resources/images/coin2.png","null","",NA,NA,NA,NA,""
"image-keyboard-response",213,176230,"0.0-4.67-0.67","6uko8l4u3esu4ne",134,"82.csv","","134.30000001192093","resources/trios/L4T2A3.jpg","38","restless",0.1,0.7,0.6,0.685114332286448,"true"
"image-keyboard-response",214,176632,"0.0-4.67-1.67","6uko8l4u3esu4ne",134,"82.csv","","null","resources/maskTrios/BT2B.jpg","null","",NA,NA,NA,NA,""
"image-keyboard-response",215,177835,"0.0-4.67-2.67","6uko8l4u3esu4ne",134,"82.csv","","null","resources/images/coin2.png","null","",NA,NA,NA,NA,""
"image-keyboard-response",216,178063,"0.0-4.68-0.68","6uko8l4u3esu4ne",134,"82.csv","","225","resources/trios/L4T2A3.jpg","38","restless",0.2,0.7,0.5,0.615868693959741,"true"
"image-keyboard-response",217,178466,"0.0-4.68-1.68","6uko8l4u3esu4ne",134,"82.csv","","null","resources/maskTrios/BT2B.jpg","null","",NA,NA,NA,NA,""
"image-keyboard-response",218,179669,"0.0-4.68-2.68","6uko8l4u3esu4ne",134,"82.csv","","null","resources/images/coin2.png","null","",NA,NA,NA,NA,""
"image-keyboard-response",219,179951,"0.0-4.69-0.69","6uko8l4u3esu4ne",134,"82.csv","","280.0999999642372","resources/trios/L4T2A3.jpg","38","restless",0.2,0.7,0.5,0.232338421463878,"true"
"image-keyboard-response",220,180369,"0.0-4.69-1.69","6uko8l4u3esu4ne",134,"82.csv","","null","resources/maskTrios/BT2B.jpg","null","",NA,NA,NA,NA,""
"image-keyboard-response",221,181572,"0.0-4.69-2.69","6uko8l4u3esu4ne",134,"82.csv","","null","resources/images/coin2.png","null","",NA,NA,NA,NA,""
"image-keyboard-response",222,181776,"0.0-4.70-0.70","6uko8l4u3esu4ne",134,"82.csv","","201.19999998807907","resources/trios/L4T2A3.jpg","38","restless",0.2,0.7,0.5,0.491410756027383,"true"
"image-keyboard-response",223,182179,"0.0-4.70-1.70","6uko8l4u3esu4ne",134,"82.csv","","null","resources/maskTrios/BT2B.jpg","null","",NA,NA,NA,NA,""
"image-keyboard-response",224,183382,"0.0-4.70-2.70","6uko8l4u3esu4ne",134,"82.csv","","null","resources/images/coin2.png","null","",NA,NA,NA,NA,""
"image-keyboard-response",225,183610,"0.0-4.71-0.71","6uko8l4u3esu4ne",134,"82.csv","","225.0999999642372","resources/trios/L4T2A3.jpg","38","restless",0.2,0.7,0.5,0.222130443489299,"true"
"image-keyboard-response",226,184012,"0.0-4.71-1.71","6uko8l4u3esu4ne",134,"82.csv","","null","resources/maskTrios/BT2B.jpg","null","",NA,NA,NA,NA,""
"image-keyboard-response",227,185215,"0.0-4.71-2.71","6uko8l4u3esu4ne",134,"82.csv","","null","resources/images/coin2.png","null","",NA,NA,NA,NA,""
"image-keyboard-response",228,185263,"0.0-4.72-0.72","6uko8l4u3esu4ne",134,"82.csv","","45.5","resources/trios/L4T2A3.jpg","38","restless",0.2,0.7,0.5,0.756636943802078,"false"
"image-keyboard-response",229,185667,"0.0-4.72-1.72","6uko8l4u3esu4ne",134,"82.csv","","null","resources/maskTrios/BT2B.jpg","null","",NA,NA,NA,NA,""
"image-keyboard-response",230,186869,"0.0-4.72-2.72","6uko8l4u3esu4ne",134,"82.csv","","null","resources/images/fishbone.png","null","",NA,NA,NA,NA,""
"image-keyboard-response",231,187162,"0.0-4.73-0.73","6uko8l4u3esu4ne",134,"82.csv","","290.2000000476837","resources/trios/L4T2A3.jpg","38","restless",0.2,0.7,0.5,0.347299620794269,"true"
"image-keyboard-response",232,187564,"0.0-4.73-1.73","6uko8l4u3esu4ne",134,"82.csv","","null","resources/maskTrios/BT2B.jpg","null","",NA,NA,NA,NA,""
"image-keyboard-response",233,188767,"0.0-4.73-2.73","6uko8l4u3esu4ne",134,"82.csv","","null","resources/images/coin2.png","null","",NA,NA,NA,NA,""
"image-keyboard-response",234,189029,"0.0-4.74-0.74","6uko8l4u3esu4ne",134,"82.csv","","260.19999998807907","resources/trios/L4T2A3.jpg","38","restless",0.2,0.7,0.5,0.454502444718072,"true"
"image-keyboard-response",235,189433,"0.0-4.74-1.74","6uko8l4u3esu4ne",134,"82.csv","","null","resources/maskTrios/BT2B.jpg","null","",NA,NA,NA,NA,""
"image-keyboard-response",236,190637,"0.0-4.74-2.74","6uko8l4u3esu4ne",134,"82.csv","","null","resources/images/coin2.png","null","",NA,NA,NA,NA,""
"image-keyboard-response",237,190924,"0.0-4.75-0.75","6uko8l4u3esu4ne",134,"82.csv","","284.60000002384186","resources/trios/L4T2A3.jpg","38","restless",0.2,0.7,0.5,0.954761671198482,"false"
"image-keyboard-response",238,191326,"0.0-4.75-1.75","6uko8l4u3esu4ne",134,"82.csv","","null","resources/maskTrios/BT2B.jpg","null","",NA,NA,NA,NA,""
"image-keyboard-response",239,192529,"0.0-4.75-2.75","6uko8l4u3esu4ne",134,"82.csv","","null","resources/images/fishbone.png","null","",NA,NA,NA,NA,""
"image-keyboard-response",240,192854,"0.0-4.76-0.76","6uko8l4u3esu4ne",134,"82.csv","","321.89999997615814","resources/trios/L4T2A3.jpg","38","restless",0.2,0.7,0.5,0.333827204823598,"true"
"image-keyboard-response",241,193257,"0.0-4.76-1.76","6uko8l4u3esu4ne",134,"82.csv","","null","resources/maskTrios/BT2B.jpg","null","",NA,NA,NA,NA,""
"image-keyboard-response",242,194461,"0.0-4.76-2.76","6uko8l4u3esu4ne",134,"82.csv","","null","resources/images/coin2.png","null","",NA,NA,NA,NA,""
"image-keyboard-response",243,194735,"0.0-4.77-0.77","6uko8l4u3esu4ne",134,"82.csv","","270.30000001192093","resources/trios/L4T2A3.jpg","38","restless",0.2,0.7,0.6,0.593772296813507,"true"
"image-keyboard-response",244,195138,"0.0-4.77-1.77","6uko8l4u3esu4ne",134,"82.csv","","null","resources/maskTrios/BT2B.jpg","null","",NA,NA,NA,NA,""
"image-keyboard-response",245,196340,"0.0-4.77-2.77","6uko8l4u3esu4ne",134,"82.csv","","null","resources/images/coin2.png","null","",NA,NA,NA,NA,""
"image-keyboard-response",246,196487,"0.0-4.78-0.78","6uko8l4u3esu4ne",134,"82.csv","","145.10000002384186","resources/trios/L4T2A3.jpg","38","restless",0.2,0.7,0.6,0.984829057706058,"false"
"image-keyboard-response",247,196901,"0.0-4.78-1.78","6uko8l4u3esu4ne",134,"82.csv","","null","resources/maskTrios/BT2B.jpg","null","",NA,NA,NA,NA,""
"image-keyboard-response",248,198104,"0.0-4.78-2.78","6uko8l4u3esu4ne",134,"82.csv","","null","resources/images/fishbone.png","null","",NA,NA,NA,NA,""
"image-keyboard-response",249,198357,"0.0-4.79-0.79","6uko8l4u3esu4ne",134,"82.csv","","250.0999999642372","resources/trios/L4T2A3.jpg","38","restless",0.2,0.7,0.6,0.755073568762292,"false"
"image-keyboard-response",250,198760,"0.0-4.79-1.79","6uko8l4u3esu4ne",134,"82.csv","","null","resources/maskTrios/BT2B.jpg","null","",NA,NA,NA,NA,""
"image-keyboard-response",251,199962,"0.0-4.79-2.79","6uko8l4u3esu4ne",134,"82.csv","","null","resources/images/fishbone.png","null","",NA,NA,NA,NA,""
"image-keyboard-response",252,200209,"0.0-4.80-0.80","6uko8l4u3esu4ne",134,"82.csv","","245.19999998807907","resources/trios/L4T2A3.jpg","38","restless",0.2,0.7,0.6,0.203660489748341,"true"
"image-keyboard-response",253,200611,"0.0-4.80-1.80","6uko8l4u3esu4ne",134,"82.csv","","null","resources/maskTrios/BT2B.jpg","null","",NA,NA,NA,NA,""
"image-keyboard-response",254,201814,"0.0-4.80-2.80","6uko8l4u3esu4ne",134,"82.csv","","null","resources/images/coin2.png","null","",NA,NA,NA,NA,""
"image-keyboard-response",255,202114,"0.0-4.81-0.81","6uko8l4u3esu4ne",134,"82.csv","","298.0999999642372","resources/trios/L4T2A3.jpg","38","restless",0.2,0.7,0.6,0.515481768034057,"true"
"image-keyboard-response",256,202517,"0.0-4.81-1.81","6uko8l4u3esu4ne",134,"82.csv","","null","resources/maskTrios/BT2B.jpg","null","",NA,NA,NA,NA,""
"image-keyboard-response",257,203720,"0.0-4.81-2.81","6uko8l4u3esu4ne",134,"82.csv","","null","resources/images/coin2.png","null","",NA,NA,NA,NA,""
"image-keyboard-response",258,203953,"0.0-4.82-0.82","6uko8l4u3esu4ne",134,"82.csv","","230.4000000357628","resources/trios/L4T2A3.jpg","38","restless",0.2,0.7,0.6,0.639596783663441,"true"
"image-keyboard-response",259,204355,"0.0-4.82-1.82","6uko8l4u3esu4ne",134,"82.csv","","null","resources/maskTrios/BT2B.jpg","null","",NA,NA,NA,NA,""
"image-keyboard-response",260,205558,"0.0-4.82-2.82","6uko8l4u3esu4ne",134,"82.csv","","null","resources/images/coin2.png","null","",NA,NA,NA,NA,""
"image-keyboard-response",261,205822,"0.0-4.83-0.83","6uko8l4u3esu4ne",134,"82.csv","","262.4000000357628","resources/trios/L4T2A3.jpg","38","restless",0.2,0.7,0.6,0.936396321260784,"false"
"image-keyboard-response",262,206225,"0.0-4.83-1.83","6uko8l4u3esu4ne",134,"82.csv","","null","resources/maskTrios/BT2B.jpg","null","",NA,NA,NA,NA,""
"image-keyboard-response",263,207427,"0.0-4.83-2.83","6uko8l4u3esu4ne",134,"82.csv","","null","resources/images/fishbone.png","null","",NA,NA,NA,NA,""
"image-keyboard-response",264,207708,"0.0-4.84-0.84","6uko8l4u3esu4ne",134,"82.csv","","278.60000002384186","resources/trios/L4T2A3.jpg","37","restless",0.2,0.7,0.6,0.543797070750081,"false"
"image-keyboard-response",265,208110,"0.0-4.84-1.84","6uko8l4u3esu4ne",134,"82.csv","","null","resources/maskTrios/L4BB.jpg","null","",NA,NA,NA,NA,""
"image-keyboard-response",266,209313,"0.0-4.84-2.84","6uko8l4u3esu4ne",134,"82.csv","","null","resources/images/fishbone.png","null","",NA,NA,NA,NA,""
"image-keyboard-response",267,209571,"0.0-4.85-0.85","6uko8l4u3esu4ne",134,"82.csv","","256.0999999642372","resources/trios/L4T2A3.jpg","39","restless",0.2,0.7,0.6,0.269798490317939,"true"
"image-keyboard-response",268,209975,"0.0-4.85-1.85","6uko8l4u3esu4ne",134,"82.csv","","null","resources/maskTrios/BBA3.jpg","null","",NA,NA,NA,NA,""
"image-keyboard-response",269,211178,"0.0-4.85-2.85","6uko8l4u3esu4ne",134,"82.csv","","null","resources/images/coin2.png","null","",NA,NA,NA,NA,""
"image-keyboard-response",270,211424,"0.0-4.86-0.86","6uko8l4u3esu4ne",134,"82.csv","","243.4000000357628","resources/trios/L4T2A3.jpg","38","restless",0.2,0.7,0.6,0.0500528536681319,"true"
"image-keyboard-response",271,211827,"0.0-4.86-1.86","6uko8l4u3esu4ne",134,"82.csv","","null","resources/maskTrios/BT2B.jpg","null","",NA,NA,NA,NA,""
"image-keyboard-response",272,213030,"0.0-4.86-2.86","6uko8l4u3esu4ne",134,"82.csv","","null","resources/images/coin2.png","null","",NA,NA,NA,NA,""
"image-keyboard-response",273,213385,"0.0-4.87-0.87","6uko8l4u3esu4ne",134,"82.csv","","353","resources/trios/L4T2A3.jpg","37","restless",0.3,0.7,0.6,0.275319182930095,"true"
"image-keyboard-response",274,213788,"0.0-4.87-1.87","6uko8l4u3esu4ne",134,"82.csv","","null","resources/maskTrios/L4BB.jpg","null","",NA,NA,NA,NA,""
"image-keyboard-response",275,214992,"0.0-4.87-2.87","6uko8l4u3esu4ne",134,"82.csv","","null","resources/images/coin2.png","null","",NA,NA,NA,NA,""
"image-keyboard-response",276,215245,"0.0-4.88-0.88","6uko8l4u3esu4ne",134,"82.csv","","251.0999999642372","resources/trios/L4T2A3.jpg","39","restless",0.3,0.7,0.6,0.944843016084839,"false"
"image-keyboard-response",277,215649,"0.0-4.88-1.88","6uko8l4u3esu4ne",134,"82.csv","","null","resources/maskTrios/BBA3.jpg","null","",NA,NA,NA,NA,""
"image-keyboard-response",278,216851,"0.0-4.88-2.88","6uko8l4u3esu4ne",134,"82.csv","","null","resources/images/fishbone.png","null","",NA,NA,NA,NA,""
"image-keyboard-response",279,217097,"0.0-4.89-0.89","6uko8l4u3esu4ne",134,"82.csv","","242.89999997615814","resources/trios/L4T2A3.jpg","38","restless",0.3,0.6,0.6,0.466317973422899,"true"
"image-keyboard-response",280,217499,"0.0-4.89-1.89","6uko8l4u3esu4ne",134,"82.csv","","null","resources/maskTrios/BT2B.jpg","null","",NA,NA,NA,NA,""
"image-keyboard-response",281,218701,"0.0-4.89-2.89","6uko8l4u3esu4ne",134,"82.csv","","null","resources/images/coin2.png","null","",NA,NA,NA,NA,""
"image-keyboard-response",282,219006,"0.0-4.90-0.90","6uko8l4u3esu4ne",134,"82.csv","","302","resources/trios/L4T2A3.jpg","39","restless",0.3,0.6,0.6,0.432545106394848,"true"
"image-keyboard-response",283,219409,"0.0-4.90-1.90","6uko8l4u3esu4ne",134,"82.csv","","null","resources/maskTrios/BBA3.jpg","null","",NA,NA,NA,NA,""
"image-keyboard-response",284,220612,"0.0-4.90-2.90","6uko8l4u3esu4ne",134,"82.csv","","null","resources/images/coin2.png","null","",NA,NA,NA,NA,""
"image-keyboard-response",285,220750,"0.0-4.91-0.91","6uko8l4u3esu4ne",134,"82.csv","","135.69999998807907","resources/trios/L4T2A3.jpg","37","restless",0.3,0.6,0.6,0.580400348762099,"false"
"image-keyboard-response",286,221153,"0.0-4.91-1.91","6uko8l4u3esu4ne",134,"82.csv","","null","resources/maskTrios/L4BB.jpg","null","",NA,NA,NA,NA,""
"image-keyboard-response",287,222356,"0.0-4.91-2.91","6uko8l4u3esu4ne",134,"82.csv","","null","resources/images/fishbone.png","null","",NA,NA,NA,NA,""
"image-keyboard-response",288,222600,"0.0-4.92-0.92","6uko8l4u3esu4ne",134,"82.csv","","242","resources/trios/L4T2A3.jpg","38","restless",0.3,0.6,0.6,0.902233604997561,"false"
"image-keyboard-response",289,223003,"0.0-4.92-1.92","6uko8l4u3esu4ne",134,"82.csv","","null","resources/maskTrios/BT2B.jpg","null","",NA,NA,NA,NA,""
"image-keyboard-response",290,224217,"0.0-4.92-2.92","6uko8l4u3esu4ne",134,"82.csv","","null","resources/images/fishbone.png","null","",NA,NA,NA,NA,""
"image-keyboard-response",291,224460,"0.0-4.93-0.93","6uko8l4u3esu4ne",134,"82.csv","","241.4000000357628","resources/trios/L4T2A3.jpg","39","restless",0.3,0.6,0.6,0.50519446684266,"true"
"image-keyboard-response",292,224864,"0.0-4.93-1.93","6uko8l4u3esu4ne",134,"82.csv","","null","resources/maskTrios/BBA3.jpg","null","",NA,NA,NA,NA,""
"image-keyboard-response",293,226068,"0.0-4.93-2.93","6uko8l4u3esu4ne",134,"82.csv","","null","resources/images/coin2.png","null","",NA,NA,NA,NA,""
"image-keyboard-response",294,226331,"0.0-4.94-0.94","6uko8l4u3esu4ne",134,"82.csv","","260.89999997615814","resources/trios/L4T2A3.jpg","38","restless",0.3,0.6,0.6,0.86632427485316,"false"
"image-keyboard-response",295,226734,"0.0-4.94-1.94","6uko8l4u3esu4ne",134,"82.csv","","null","resources/maskTrios/BT2B.jpg","null","",NA,NA,NA,NA,""
"image-keyboard-response",296,227937,"0.0-4.94-2.94","6uko8l4u3esu4ne",134,"82.csv","","null","resources/images/fishbone.png","null","",NA,NA,NA,NA,""
"image-keyboard-response",297,228201,"0.0-4.95-0.95","6uko8l4u3esu4ne",134,"82.csv","","262.10000002384186","resources/trios/L4T2A3.jpg","38","restless",0.3,0.6,0.6,0.927167694394971,"false"
"image-keyboard-response",298,228603,"0.0-4.95-1.95","6uko8l4u3esu4ne",134,"82.csv","","null","resources/maskTrios/BT2B.jpg","null","",NA,NA,NA,NA,""
"image-keyboard-response",299,229806,"0.0-4.95-2.95","6uko8l4u3esu4ne",134,"82.csv","","null","resources/images/fishbone.png","null","",NA,NA,NA,NA,""
"image-keyboard-response",300,229946,"0.0-4.96-0.96","6uko8l4u3esu4ne",134,"82.csv","","137.39999997615814","resources/trios/L4T2A3.jpg","37","restless",0.3,0.6,0.6,0.975831976007147,"false"
"image-keyboard-response",301,230348,"0.0-4.96-1.96","6uko8l4u3esu4ne",134,"82.csv","","null","resources/maskTrios/L4BB.jpg","null","",NA,NA,NA,NA,""
"image-keyboard-response",302,231550,"0.0-4.96-2.96","6uko8l4u3esu4ne",134,"82.csv","","null","resources/images/fishbone.png","null","",NA,NA,NA,NA,""
"image-keyboard-response",303,231690,"0.0-4.97-0.97","6uko8l4u3esu4ne",134,"82.csv","","137","resources/trios/L4T2A3.jpg","37","restless",0.3,0.7,0.6,0.466471745398549,"false"
"image-keyboard-response",304,232093,"0.0-4.97-1.97","6uko8l4u3esu4ne",134,"82.csv","","null","resources/maskTrios/L4BB.jpg","null","",NA,NA,NA,NA,""
"image-keyboard-response",305,233296,"0.0-4.97-2.97","6uko8l4u3esu4ne",134,"82.csv","","null","resources/images/fishbone.png","null","",NA,NA,NA,NA,""
"image-keyboard-response",306,233478,"0.0-4.98-0.98","6uko8l4u3esu4ne",134,"82.csv","","179.80000001192093","resources/trios/L4T2A3.jpg","37","restless",0.3,0.7,0.6,0.796897644730791,"false"
"image-keyboard-response",307,233881,"0.0-4.98-1.98","6uko8l4u3esu4ne",134,"82.csv","","null","resources/maskTrios/L4BB.jpg","null","",NA,NA,NA,NA,""
"image-keyboard-response",308,235083,"0.0-4.98-2.98","6uko8l4u3esu4ne",134,"82.csv","","null","resources/images/fishbone.png","null","",NA,NA,NA,NA,""
"image-keyboard-response",309,235142,"0.0-4.99-0.99","6uko8l4u3esu4ne",134,"82.csv","","56.299999952316284","resources/trios/L4T2A3.jpg","37","restless",0.3,0.8,0.6,0.988854753289575,"false"
"image-keyboard-response",310,235545,"0.0-4.99-1.99","6uko8l4u3esu4ne",134,"82.csv","","null","resources/maskTrios/L4BB.jpg","null","",NA,NA,NA,NA,""
"image-keyboard-response",311,236747,"0.0-4.99-2.99","6uko8l4u3esu4ne",134,"82.csv","","null","resources/images/fishbone.png","null","",NA,NA,NA,NA,""
"image-keyboard-response",312,236768,"0.0-4.100-0.100","6uko8l4u3esu4ne",134,"82.csv","","18.5","resources/trios/L4T2A3.jpg","38","restless",0.3,0.9,0.6,0.273593266551081,"true"
"image-keyboard-response",313,237171,"0.0-4.100-1.100","6uko8l4u3esu4ne",134,"82.csv","","null","resources/maskTrios/BT2B.jpg","null","",NA,NA,NA,NA,""
"image-keyboard-response",314,238373,"0.0-4.100-2.100","6uko8l4u3esu4ne",134,"82.csv","","null","resources/images/coin2.png","null","",NA,NA,NA,NA,""
"image-keyboard-response",315,238639,"0.0-4.101-0.101","6uko8l4u3esu4ne",134,"82.csv","","263.5","resources/trios/L4T2A3.jpg","38","restless",0.3,0.9,0.6,0.502325312334471,"true"
"image-keyboard-response",316,239041,"0.0-4.101-1.101","6uko8l4u3esu4ne",134,"82.csv","","null","resources/maskTrios/BT2B.jpg","null","",NA,NA,NA,NA,""
"image-keyboard-response",317,240245,"0.0-4.101-2.101","6uko8l4u3esu4ne",134,"82.csv","","null","resources/images/coin2.png","null","",NA,NA,NA,NA,""
"image-keyboard-response",318,240582,"0.0-4.102-0.102","6uko8l4u3esu4ne",134,"82.csv","","334.30000001192093","resources/trios/L4T2A3.jpg","38","restless",0.3,0.9,0.6,0.146398040234527,"true"
"image-keyboard-response",319,240984,"0.0-4.102-1.102","6uko8l4u3esu4ne",134,"82.csv","","null","resources/maskTrios/BT2B.jpg","null","",NA,NA,NA,NA,""
"image-keyboard-response",320,242187,"0.0-4.102-2.102","6uko8l4u3esu4ne",134,"82.csv","","null","resources/images/coin2.png","null","",NA,NA,NA,NA,""
"image-keyboard-response",321,242467,"0.0-4.103-0.103","6uko8l4u3esu4ne",134,"82.csv","","277.7999999523163","resources/trios/L4T2A3.jpg","38","restless",0.3,0.9,0.6,0.0697324299563817,"true"
"image-keyboard-response",322,242869,"0.0-4.103-1.103","6uko8l4u3esu4ne",134,"82.csv","","null","resources/maskTrios/BT2B.jpg","null","",NA,NA,NA,NA,""
"image-keyboard-response",323,244072,"0.0-4.103-2.103","6uko8l4u3esu4ne",134,"82.csv","","null","resources/images/coin2.png","null","",NA,NA,NA,NA,""
"image-keyboard-response",324,244370,"0.0-4.104-0.104","6uko8l4u3esu4ne",134,"82.csv","","296.5","resources/trios/L4T2A3.jpg","38","restless",0.3,0.9,0.6,0.0499254127056157,"true"
"image-keyboard-response",325,244773,"0.0-4.104-1.104","6uko8l4u3esu4ne",134,"82.csv","","null","resources/maskTrios/BT2B.jpg","null","",NA,NA,NA,NA,""
"image-keyboard-response",326,245976,"0.0-4.104-2.104","6uko8l4u3esu4ne",134,"82.csv","","null","resources/images/coin2.png","null","",NA,NA,NA,NA,""
"image-keyboard-response",327,246284,"0.0-4.105-0.105","6uko8l4u3esu4ne",134,"82.csv","","305.10000002384186","resources/trios/L4T2A3.jpg","39","restless",0.3,0.9,0.5,0.838597954175826,"false"
"image-keyboard-response",328,246687,"0.0-4.105-1.105","6uko8l4u3esu4ne",134,"82.csv","","null","resources/maskTrios/BBA3.jpg","null","",NA,NA,NA,NA,""
"image-keyboard-response",329,247889,"0.0-4.105-2.105","6uko8l4u3esu4ne",134,"82.csv","","null","resources/images/fishbone.png","null","",NA,NA,NA,NA,""
"image-keyboard-response",330,248223,"0.0-4.106-0.106","6uko8l4u3esu4ne",134,"82.csv","","332.2999999523163","resources/trios/L4T2A3.jpg","37","restless",0.3,0.9,0.5,0.250462343199404,"true"
"image-keyboard-response",331,248626,"0.0-4.106-1.106","6uko8l4u3esu4ne",134,"82.csv","","null","resources/maskTrios/L4BB.jpg","null","",NA,NA,NA,NA,""
"image-keyboard-response",332,249830,"0.0-4.106-2.106","6uko8l4u3esu4ne",134,"82.csv","","null","resources/images/coin2.png","null","",NA,NA,NA,NA,""
"image-keyboard-response",333,250134,"0.0-4.107-0.107","6uko8l4u3esu4ne",134,"82.csv","","302.10000002384186","resources/trios/L4T2A3.jpg","37","restless",0.3,0.9,0.5,0.561154067732003,"false"
"image-keyboard-response",334,250537,"0.0-4.107-1.107","6uko8l4u3esu4ne",134,"82.csv","","null","resources/maskTrios/L4BB.jpg","null","",NA,NA,NA,NA,""
"image-keyboard-response",335,251739,"0.0-4.107-2.107","6uko8l4u3esu4ne",134,"82.csv","","null","resources/images/fishbone.png","null","",NA,NA,NA,NA,""
"image-keyboard-response",336,252003,"0.0-4.108-0.108","6uko8l4u3esu4ne",134,"82.csv","","262.30000001192093","resources/trios/L4T2A3.jpg","38","restless",0.3,0.9,0.5,0.453839294453279,"true"
"image-keyboard-response",337,252405,"0.0-4.108-1.108","6uko8l4u3esu4ne",134,"82.csv","","null","resources/maskTrios/BT2B.jpg","null","",NA,NA,NA,NA,""
"image-keyboard-response",338,253609,"0.0-4.108-2.108","6uko8l4u3esu4ne",134,"82.csv","","null","resources/images/coin2.png","null","",NA,NA,NA,NA,""
"image-keyboard-response",339,253928,"0.0-4.109-0.109","6uko8l4u3esu4ne",134,"82.csv","","316.2999999523163","resources/trios/L4T2A3.jpg","38","restless",0.3,0.9,0.5,0.431078903136292,"true"
"image-keyboard-response",340,254330,"0.0-4.109-1.109","6uko8l4u3esu4ne",134,"82.csv","","null","resources/maskTrios/BT2B.jpg","null","",NA,NA,NA,NA,""
"image-keyboard-response",341,255535,"0.0-4.109-2.109","6uko8l4u3esu4ne",134,"82.csv","","null","resources/images/coin2.png","null","",NA,NA,NA,NA,""
"image-keyboard-response",342,255790,"0.0-4.110-0.110","6uko8l4u3esu4ne",134,"82.csv","","252.80000001192093","resources/trios/L4T2A3.jpg","38","restless",0.3,0.9,0.5,0.388040194198387,"true"
"image-keyboard-response",343,256192,"0.0-4.110-1.110","6uko8l4u3esu4ne",134,"82.csv","","null","resources/maskTrios/BT2B.jpg","null","",NA,NA,NA,NA,""
"image-keyboard-response",344,257395,"0.0-4.110-2.110","6uko8l4u3esu4ne",134,"82.csv","","null","resources/images/coin2.png","null","",NA,NA,NA,NA,""
"image-keyboard-response",345,257637,"0.0-4.111-0.111","6uko8l4u3esu4ne",134,"82.csv","","240","resources/trios/L4T2A3.jpg","38","restless",0.3,0.9,0.4,0.447325419786293,"true"
"image-keyboard-response",346,258040,"0.0-4.111-1.111","6uko8l4u3esu4ne",134,"82.csv","","null","resources/maskTrios/BT2B.jpg","null","",NA,NA,NA,NA,""
"image-keyboard-response",347,259244,"0.0-4.111-2.111","6uko8l4u3esu4ne",134,"82.csv","","null","resources/images/coin2.png","null","",NA,NA,NA,NA,""
"image-keyboard-response",348,259462,"0.0-4.112-0.112","6uko8l4u3esu4ne",134,"82.csv","","216","resources/trios/L4T2A3.jpg","38","restless",0.3,0.9,0.4,0.561291827309664,"true"
"image-keyboard-response",349,259869,"0.0-4.112-1.112","6uko8l4u3esu4ne",134,"82.csv","","null","resources/maskTrios/BT2B.jpg","null","",NA,NA,NA,NA,""
"image-keyboard-response",350,261072,"0.0-4.112-2.112","6uko8l4u3esu4ne",134,"82.csv","","null","resources/images/coin2.png","null","",NA,NA,NA,NA,""
"image-keyboard-response",351,261174,"0.0-4.113-0.113","6uko8l4u3esu4ne",134,"82.csv","","99.59999996423721","resources/trios/L4T2A3.jpg","38","restless",0.3,0.9,0.4,0.947697988566771,"false"
"image-keyboard-response",352,261576,"0.0-4.113-1.113","6uko8l4u3esu4ne",134,"82.csv","","null","resources/maskTrios/BT2B.jpg","null","",NA,NA,NA,NA,""
"image-keyboard-response",353,262779,"0.0-4.113-2.113","6uko8l4u3esu4ne",134,"82.csv","","null","resources/images/fishbone.png","null","",NA,NA,NA,NA,""
"image-keyboard-response",354,263025,"0.0-4.114-0.114","6uko8l4u3esu4ne",134,"82.csv","","243.69999998807907","resources/trios/L4T2A3.jpg","38","restless",0.3,0.9,0.3,0.817192133097239,"true"
"image-keyboard-response",355,263428,"0.0-4.114-1.114","6uko8l4u3esu4ne",134,"82.csv","","null","resources/maskTrios/BT2B.jpg","null","",NA,NA,NA,NA,""
"image-keyboard-response",356,264631,"0.0-4.114-2.114","6uko8l4u3esu4ne",134,"82.csv","","null","resources/images/coin2.png","null","",NA,NA,NA,NA,""
"image-keyboard-response",357,265780,"0.0-4.115-0.115","6uko8l4u3esu4ne",134,"82.csv","","1147","resources/trios/L4T2A3.jpg","38","restless",0.3,0.9,0.3,0.368393907607268,"true"
"image-keyboard-response",358,266183,"0.0-4.115-1.115","6uko8l4u3esu4ne",134,"82.csv","","null","resources/maskTrios/BT2B.jpg","null","",NA,NA,NA,NA,""
"image-keyboard-response",359,267387,"0.0-4.115-2.115","6uko8l4u3esu4ne",134,"82.csv","","null","resources/images/coin2.png","null","",NA,NA,NA,NA,""
"image-keyboard-response",360,267562,"0.0-4.116-0.116","6uko8l4u3esu4ne",134,"82.csv","","172.60000002384186","resources/trios/L4T2A3.jpg","38","restless",0.3,0.9,0.3,0.919426469439665,"false"
"image-keyboard-response",361,267965,"0.0-4.116-1.116","6uko8l4u3esu4ne",134,"82.csv","","null","resources/maskTrios/BT2B.jpg","null","",NA,NA,NA,NA,""
"image-keyboard-response",362,269168,"0.0-4.116-2.116","6uko8l4u3esu4ne",134,"82.csv","","null","resources/images/fishbone.png","null","",NA,NA,NA,NA,""
"image-keyboard-response",363,269178,"0.0-4.117-0.117","6uko8l4u3esu4ne",134,"82.csv","","7.300000011920929","resources/trios/L4T2A3.jpg","38","restless",0.3,0.9,0.3,0.34532880566984,"true"
"image-keyboard-response",364,269582,"0.0-4.117-1.117","6uko8l4u3esu4ne",134,"82.csv","","null","resources/maskTrios/BT2B.jpg","null","",NA,NA,NA,NA,""
"image-keyboard-response",365,270784,"0.0-4.117-2.117","6uko8l4u3esu4ne",134,"82.csv","","null","resources/images/coin2.png","null","",NA,NA,NA,NA,""
"image-keyboard-response",366,270800,"0.0-4.118-0.118","6uko8l4u3esu4ne",134,"82.csv","","14.599999964237213","resources/trios/L4T2A3.jpg","38","restless",0.3,0.9,0.3,0.0799866357027621,"true"
"image-keyboard-response",367,271202,"0.0-4.118-1.118","6uko8l4u3esu4ne",134,"82.csv","","null","resources/maskTrios/BT2B.jpg","null","",NA,NA,NA,NA,""
"image-keyboard-response",368,272405,"0.0-4.118-2.118","6uko8l4u3esu4ne",134,"82.csv","","null","resources/images/coin2.png","null","",NA,NA,NA,NA,""
"image-keyboard-response",369,273379,"0.0-4.119-0.119","6uko8l4u3esu4ne",134,"82.csv","","972","resources/trios/L4T2A3.jpg","38","restless",0.3,0.9,0.3,0.46840812461458,"true"
"image-keyboard-response",370,273781,"0.0-4.119-1.119","6uko8l4u3esu4ne",134,"82.csv","","null","resources/maskTrios/BT2B.jpg","null","",NA,NA,NA,NA,""
"image-keyboard-response",371,274995,"0.0-4.119-2.119","6uko8l4u3esu4ne",134,"82.csv","","null","resources/images/coin2.png","null","",NA,NA,NA,NA,""
"image-keyboard-response",372,275440,"0.0-4.120-0.120","6uko8l4u3esu4ne",134,"82.csv","","442.39999997615814","resources/trios/L4T2A3.jpg","38","restless",0.3,0.9,0.3,0.582518845328864,"true"
"image-keyboard-response",373,275842,"0.0-4.120-1.120","6uko8l4u3esu4ne",134,"82.csv","","null","resources/maskTrios/BT2B.jpg","null","",NA,NA,NA,NA,""
"image-keyboard-response",374,277046,"0.0-4.120-2.120","6uko8l4u3esu4ne",134,"82.csv","","null","resources/images/coin2.png","null","",NA,NA,NA,NA,""
"image-keyboard-response",375,277455,"0.0-4.121-0.121","6uko8l4u3esu4ne",134,"82.csv","","406.7999999523163","resources/trios/L4T2A3.jpg","38","restless",0.3,0.9,0.4,0.682851740619829,"true"
"image-keyboard-response",376,277858,"0.0-4.121-1.121","6uko8l4u3esu4ne",134,"82.csv","","null","resources/maskTrios/BT2B.jpg","null","",NA,NA,NA,NA,""
"image-keyboard-response",377,279061,"0.0-4.121-2.121","6uko8l4u3esu4ne",134,"82.csv","","null","resources/images/coin2.png","null","",NA,NA,NA,NA,""
"image-keyboard-response",378,279245,"0.0-4.122-0.122","6uko8l4u3esu4ne",134,"82.csv","","181.10000002384186","resources/trios/L4T2A3.jpg","38","restless",0.3,0.8,0.4,0.730282502214078,"true"
"image-keyboard-response",379,279648,"0.0-4.122-1.122","6uko8l4u3esu4ne",134,"82.csv","","null","resources/maskTrios/BT2B.jpg","null","",NA,NA,NA,NA,""
"image-keyboard-response",380,280851,"0.0-4.122-2.122","6uko8l4u3esu4ne",134,"82.csv","","null","resources/images/coin2.png","null","",NA,NA,NA,NA,""
"image-keyboard-response",381,281717,"0.0-4.123-0.123","6uko8l4u3esu4ne",134,"82.csv","","863.5999999642372","resources/trios/L4T2A3.jpg","38","restless",0.3,0.8,0.4,0.183901850065482,"true"
"image-keyboard-response",382,282120,"0.0-4.123-1.123","6uko8l4u3esu4ne",134,"82.csv","","null","resources/maskTrios/BT2B.jpg","null","",NA,NA,NA,NA,""
"image-keyboard-response",383,283322,"0.0-4.123-2.123","6uko8l4u3esu4ne",134,"82.csv","","null","resources/images/coin2.png","null","",NA,NA,NA,NA,""
"image-keyboard-response",384,283575,"0.0-4.124-0.124","6uko8l4u3esu4ne",134,"82.csv","","250.89999997615814","resources/trios/L4T2A3.jpg","38","restless",0.3,0.8,0.4,0.563117836438158,"true"
"image-keyboard-response",385,283978,"0.0-4.124-1.124","6uko8l4u3esu4ne",134,"82.csv","","null","resources/maskTrios/BT2B.jpg","null","",NA,NA,NA,NA,""
"image-keyboard-response",386,285181,"0.0-4.124-2.124","6uko8l4u3esu4ne",134,"82.csv","","null","resources/images/coin2.png","null","",NA,NA,NA,NA,""
"image-keyboard-response",387,285262,"0.0-4.125-0.125","6uko8l4u3esu4ne",134,"82.csv","","78.60000002384186","resources/trios/L4T2A3.jpg","38","restless",0.3,0.8,0.4,0.855549171585504,"false"
"image-keyboard-response",388,285666,"0.0-4.125-1.125","6uko8l4u3esu4ne",134,"82.csv","","null","resources/maskTrios/BT2B.jpg","null","",NA,NA,NA,NA,""
"image-keyboard-response",389,286868,"0.0-4.125-2.125","6uko8l4u3esu4ne",134,"82.csv","","null","resources/images/fishbone.png","null","",NA,NA,NA,NA,""
"image-keyboard-response",390,286996,"0.0-4.126-0.126","6uko8l4u3esu4ne",134,"82.csv","","125.70000004768372","resources/trios/L4T2A3.jpg","38","restless",0.3,0.8,0.4,0.370981729245115,"true"
"image-keyboard-response",391,287398,"0.0-4.126-1.126","6uko8l4u3esu4ne",134,"82.csv","","null","resources/maskTrios/BT2B.jpg","null","",NA,NA,NA,NA,""
"image-keyboard-response",392,288600,"0.0-4.126-2.126","6uko8l4u3esu4ne",134,"82.csv","","null","resources/images/coin2.png","null","",NA,NA,NA,NA,""
"image-keyboard-response",393,288620,"0.0-4.127-0.127","6uko8l4u3esu4ne",134,"82.csv","","17.600000023841858","resources/trios/L4T2A3.jpg","38","restless",0.3,0.7,0.4,0.79346978415211,"false"
"image-keyboard-response",394,289023,"0.0-4.127-1.127","6uko8l4u3esu4ne",134,"82.csv","","null","resources/maskTrios/BT2B.jpg","null","",NA,NA,NA,NA,""
"image-keyboard-response",395,290226,"0.0-4.127-2.127","6uko8l4u3esu4ne",134,"82.csv","","null","resources/images/fishbone.png","null","",NA,NA,NA,NA,""
"image-keyboard-response",396,291235,"0.0-4.128-0.128","6uko8l4u3esu4ne",134,"82.csv","","1005.6999999880791","resources/trios/L4T2A3.jpg","38","restless",0.3,0.6,0.4,0.131204333737878,"true"
"image-keyboard-response",397,291638,"0.0-4.128-1.128","6uko8l4u3esu4ne",134,"82.csv","","null","resources/maskTrios/BT2B.jpg","null","",NA,NA,NA,NA,""
"image-keyboard-response",398,292841,"0.0-4.128-2.128","6uko8l4u3esu4ne",134,"82.csv","","null","resources/images/coin2.png","null","",NA,NA,NA,NA,""
"image-keyboard-response",399,293171,"0.0-4.129-0.129","6uko8l4u3esu4ne",134,"82.csv","","328.0999999642372","resources/trios/L4T2A3.jpg","38","restless",0.3,0.6,0.4,0.158016342945842,"true"
"image-keyboard-response",400,293573,"0.0-4.129-1.129","6uko8l4u3esu4ne",134,"82.csv","","null","resources/maskTrios/BT2B.jpg","null","",NA,NA,NA,NA,""
"image-keyboard-response",401,294776,"0.0-4.129-2.129","6uko8l4u3esu4ne",134,"82.csv","","null","resources/images/coin2.png","null","",NA,NA,NA,NA,""
"image-keyboard-response",402,294982,"0.0-4.130-0.130","6uko8l4u3esu4ne",134,"82.csv","","202","resources/trios/L4T2A3.jpg","38","restless",0.3,0.6,0.4,0.209374997083357,"true"
"image-keyboard-response",403,295385,"0.0-4.130-1.130","6uko8l4u3esu4ne",134,"82.csv","","null","resources/maskTrios/BT2B.jpg","null","",NA,NA,NA,NA,""
"image-keyboard-response",404,296587,"0.0-4.130-2.130","6uko8l4u3esu4ne",134,"82.csv","","null","resources/images/coin2.png","null","",NA,NA,NA,NA,""
"image-keyboard-response",405,296744,"0.0-4.131-0.131","6uko8l4u3esu4ne",134,"82.csv","","153.80000001192093","resources/trios/L4T2A3.jpg","38","restless",0.3,0.5,0.4,0.642160234821735,"false"
"image-keyboard-response",406,297158,"0.0-4.131-1.131","6uko8l4u3esu4ne",134,"82.csv","","null","resources/maskTrios/BT2B.jpg","null","",NA,NA,NA,NA,""
"image-keyboard-response",407,298360,"0.0-4.131-2.131","6uko8l4u3esu4ne",134,"82.csv","","null","resources/images/fishbone.png","null","",NA,NA,NA,NA,""
"image-keyboard-response",408,298602,"0.0-4.132-0.132","6uko8l4u3esu4ne",134,"82.csv","","239.60000002384186","resources/trios/L4T2A3.jpg","38","restless",0.3,0.5,0.4,0.763968624106003,"false"
"image-keyboard-response",409,299005,"0.0-4.132-1.132","6uko8l4u3esu4ne",134,"82.csv","","null","resources/maskTrios/BT2B.jpg","null","",NA,NA,NA,NA,""
"image-keyboard-response",410,300208,"0.0-4.132-2.132","6uko8l4u3esu4ne",134,"82.csv","","null","resources/images/fishbone.png","null","",NA,NA,NA,NA,""
"image-keyboard-response",411,300308,"0.0-4.133-0.133","6uko8l4u3esu4ne",134,"82.csv","","97.59999996423721","resources/trios/L4T2A3.jpg","38","restless",0.3,0.5,0.4,0.384699222734811,"true"
"image-keyboard-response",412,300710,"0.0-4.133-1.133","6uko8l4u3esu4ne",134,"82.csv","","null","resources/maskTrios/BT2B.jpg","null","",NA,NA,NA,NA,""
"image-keyboard-response",413,301913,"0.0-4.133-2.133","6uko8l4u3esu4ne",134,"82.csv","","null","resources/images/coin2.png","null","",NA,NA,NA,NA,""
"image-keyboard-response",414,302200,"0.0-4.134-0.134","6uko8l4u3esu4ne",134,"82.csv","","284.5999999642372","resources/trios/L4T2A3.jpg","38","restless",0.3,0.5,0.4,0.055313993682931,"true"
"image-keyboard-response",415,302603,"0.0-4.134-1.134","6uko8l4u3esu4ne",134,"82.csv","","null","resources/maskTrios/BT2B.jpg","null","",NA,NA,NA,NA,""
"image-keyboard-response",416,303805,"0.0-4.134-2.134","6uko8l4u3esu4ne",134,"82.csv","","null","resources/images/coin2.png","null","",NA,NA,NA,NA,""
"image-keyboard-response",417,304056,"0.0-4.135-0.135","6uko8l4u3esu4ne",134,"82.csv","","248.30000001192093","resources/trios/L4T2A3.jpg","38","restless",0.3,0.5,0.4,0.424377056743129,"true"
"image-keyboard-response",418,304459,"0.0-4.135-1.135","6uko8l4u3esu4ne",134,"82.csv","","null","resources/maskTrios/BT2B.jpg","null","",NA,NA,NA,NA,""
"image-keyboard-response",419,305661,"0.0-4.135-2.135","6uko8l4u3esu4ne",134,"82.csv","","null","resources/images/coin2.png","null","",NA,NA,NA,NA,""
"image-keyboard-response",420,305804,"0.0-4.136-0.136","6uko8l4u3esu4ne",134,"82.csv","","139.4000000357628","resources/trios/L4T2A3.jpg","38","restless",0.3,0.5,0.4,0.420494940924293,"true"
"image-keyboard-response",421,306207,"0.0-4.136-1.136","6uko8l4u3esu4ne",134,"82.csv","","null","resources/maskTrios/BT2B.jpg","null","",NA,NA,NA,NA,""
"image-keyboard-response",422,307410,"0.0-4.136-2.136","6uko8l4u3esu4ne",134,"82.csv","","null","resources/images/coin2.png","null","",NA,NA,NA,NA,""
"image-keyboard-response",423,307652,"0.0-4.137-0.137","6uko8l4u3esu4ne",134,"82.csv","","239.10000002384186","resources/trios/L4T2A3.jpg","38","restless",0.3,0.5,0.4,0.487533525360721,"true"
"image-keyboard-response",424,308054,"0.0-4.137-1.137","6uko8l4u3esu4ne",134,"82.csv","","null","resources/maskTrios/BT2B.jpg","null","",NA,NA,NA,NA,""
"image-keyboard-response",425,309257,"0.0-4.137-2.137","6uko8l4u3esu4ne",134,"82.csv","","null","resources/images/coin2.png","null","",NA,NA,NA,NA,""
"image-keyboard-response",426,309507,"0.0-4.138-0.138","6uko8l4u3esu4ne",134,"82.csv","","247.19999998807907","resources/trios/L4T2A3.jpg","38","restless",0.3,0.5,0.4,0.0370140014322529,"true"
"image-keyboard-response",427,309910,"0.0-4.138-1.138","6uko8l4u3esu4ne",134,"82.csv","","null","resources/maskTrios/BT2B.jpg","null","",NA,NA,NA,NA,""
"image-keyboard-response",428,311114,"0.0-4.138-2.138","6uko8l4u3esu4ne",134,"82.csv","","null","resources/images/coin2.png","null","",NA,NA,NA,NA,""
"image-keyboard-response",429,311372,"0.0-4.139-0.139","6uko8l4u3esu4ne",134,"82.csv","","255.80000001192093","resources/trios/L4T2A3.jpg","38","restless",0.3,0.5,0.4,0.518227428574816,"false"
"image-keyboard-response",430,311774,"0.0-4.139-1.139","6uko8l4u3esu4ne",134,"82.csv","","null","resources/maskTrios/BT2B.jpg","null","",NA,NA,NA,NA,""
"image-keyboard-response",431,312976,"0.0-4.139-2.139","6uko8l4u3esu4ne",134,"82.csv","","null","resources/images/fishbone.png","null","",NA,NA,NA,NA,""
"image-keyboard-response",432,313224,"0.0-4.140-0.140","6uko8l4u3esu4ne",134,"82.csv","","245.29999995231628","resources/trios/L4T2A3.jpg","38","restless",0.3,0.5,0.4,0.262488369416152,"true"
"image-keyboard-response",433,313633,"0.0-4.140-1.140","6uko8l4u3esu4ne",134,"82.csv","","null","resources/maskTrios/BT2B.jpg","null","",NA,NA,NA,NA,""
"image-keyboard-response",434,314836,"0.0-4.140-2.140","6uko8l4u3esu4ne",134,"82.csv","","null","resources/images/coin2.png","null","",NA,NA,NA,NA,""
"image-keyboard-response",435,315077,"0.0-4.141-0.141","6uko8l4u3esu4ne",134,"82.csv","","238.60000002384186","resources/trios/L4T2A3.jpg","38","restless",0.4,0.4,0.4,0.320369262237817,"true"
"image-keyboard-response",436,315480,"0.0-4.141-1.141","6uko8l4u3esu4ne",134,"82.csv","","null","resources/maskTrios/BT2B.jpg","null","",NA,NA,NA,NA,""
"image-keyboard-response",437,316682,"0.0-4.141-2.141","6uko8l4u3esu4ne",134,"82.csv","","null","resources/images/coin2.png","null","",NA,NA,NA,NA,""
"image-keyboard-response",438,317969,"0.0-4.142-0.142","6uko8l4u3esu4ne",134,"82.csv","","1285","resources/trios/L4T2A3.jpg","38","restless",0.4,0.4,0.4,0.529880952685376,"false"
"image-keyboard-response",439,318373,"0.0-4.142-1.142","6uko8l4u3esu4ne",134,"82.csv","","null","resources/maskTrios/BT2B.jpg","null","",NA,NA,NA,NA,""
"image-keyboard-response",440,319576,"0.0-4.142-2.142","6uko8l4u3esu4ne",134,"82.csv","","null","resources/images/fishbone.png","null","",NA,NA,NA,NA,""
"image-keyboard-response",441,319851,"0.0-4.143-0.143","6uko8l4u3esu4ne",134,"82.csv","","272.5","resources/trios/L4T2A3.jpg","38","restless",0.4,0.3,0.5,0.597061553813071,"false"
"image-keyboard-response",442,320255,"0.0-4.143-1.143","6uko8l4u3esu4ne",134,"82.csv","","null","resources/maskTrios/BT2B.jpg","null","",NA,NA,NA,NA,""
"image-keyboard-response",443,321457,"0.0-4.143-2.143","6uko8l4u3esu4ne",134,"82.csv","","null","resources/images/fishbone.png","null","",NA,NA,NA,NA,""
"image-keyboard-response",444,321641,"0.0-4.144-0.144","6uko8l4u3esu4ne",134,"82.csv","","181.69999998807907","resources/trios/L4T2A3.jpg","38","restless",0.4,0.4,0.5,0.89292518722306,"false"
"image-keyboard-response",445,322044,"0.0-4.144-1.144","6uko8l4u3esu4ne",134,"82.csv","","null","resources/maskTrios/BT2B.jpg","null","",NA,NA,NA,NA,""
"image-keyboard-response",446,323248,"0.0-4.144-2.144","6uko8l4u3esu4ne",134,"82.csv","","null","resources/images/fishbone.png","null","",NA,NA,NA,NA,""
"image-keyboard-response",447,323479,"0.0-4.145-0.145","6uko8l4u3esu4ne",134,"82.csv","","228.9000000357628","resources/trios/L4T2A3.jpg","38","restless",0.4,0.4,0.5,0.898373223740649,"false"
"image-keyboard-response",448,323882,"0.0-4.145-1.145","6uko8l4u3esu4ne",134,"82.csv","","null","resources/maskTrios/BT2B.jpg","null","",NA,NA,NA,NA,""
"image-keyboard-response",449,325085,"0.0-4.145-2.145","6uko8l4u3esu4ne",134,"82.csv","","null","resources/images/fishbone.png","null","",NA,NA,NA,NA,""
"image-keyboard-response",450,325774,"0.0-4.146-0.146","6uko8l4u3esu4ne",134,"82.csv","","687.5999999642372","resources/trios/L4T2A3.jpg","38","restless",0.4,0.4,0.5,0.509793757232562,"false"
"image-keyboard-response",451,326177,"0.0-4.146-1.146","6uko8l4u3esu4ne",134,"82.csv","","null","resources/maskTrios/BT2B.jpg","null","",NA,NA,NA,NA,""
"image-keyboard-response",452,327379,"0.0-4.146-2.146","6uko8l4u3esu4ne",134,"82.csv","","null","resources/images/fishbone.png","null","",NA,NA,NA,NA,""
"image-keyboard-response",453,327620,"0.0-4.147-0.147","6uko8l4u3esu4ne",134,"82.csv","","239.0999999642372","resources/trios/L4T2A3.jpg","38","restless",0.4,0.4,0.5,0.00879392596435391,"true"
"image-keyboard-response",454,328024,"0.0-4.147-1.147","6uko8l4u3esu4ne",134,"82.csv","","null","resources/maskTrios/BT2B.jpg","null","",NA,NA,NA,NA,""
"image-keyboard-response",455,329226,"0.0-4.147-2.147","6uko8l4u3esu4ne",134,"82.csv","","null","resources/images/coin2.png","null","",NA,NA,NA,NA,""
"image-keyboard-response",456,329486,"0.0-4.148-0.148","6uko8l4u3esu4ne",134,"82.csv","","257","resources/trios/L4T2A3.jpg","38","restless",0.4,0.4,0.5,0.293328906769561,"true"
"image-keyboard-response",457,329888,"0.0-4.148-1.148","6uko8l4u3esu4ne",134,"82.csv","","null","resources/maskTrios/BT2B.jpg","null","",NA,NA,NA,NA,""
"image-keyboard-response",458,331090,"0.0-4.148-2.148","6uko8l4u3esu4ne",134,"82.csv","","null","resources/images/coin2.png","null","",NA,NA,NA,NA,""
"image-keyboard-response",459,331244,"0.0-4.149-0.149","6uko8l4u3esu4ne",134,"82.csv","","151.10000002384186","resources/trios/L4T2A3.jpg","38","restless",0.4,0.4,0.5,0.964227055323494,"false"
"image-keyboard-response",460,331647,"0.0-4.149-1.149","6uko8l4u3esu4ne",134,"82.csv","","null","resources/maskTrios/BT2B.jpg","null","",NA,NA,NA,NA,""
"image-keyboard-response",461,332850,"0.0-4.149-2.149","6uko8l4u3esu4ne",134,"82.csv","","null","resources/images/fishbone.png","null","",NA,NA,NA,NA,""
"image-keyboard-response",462,333133,"0.0-4.150-0.150","6uko8l4u3esu4ne",134,"82.csv","","280.5","resources/trios/L4T2A3.jpg","39","restless",0.5,0.4,0.5,0.639125685547516,"false"
"image-keyboard-response",463,333536,"0.0-4.150-1.150","6uko8l4u3esu4ne",134,"82.csv","","null","resources/maskTrios/BBA3.jpg","null","",NA,NA,NA,NA,""
"image-keyboard-response",464,334738,"0.0-4.150-2.150","6uko8l4u3esu4ne",134,"82.csv","","null","resources/images/fishbone.png","null","",NA,NA,NA,NA,""
"image-keyboard-response",465,334810,"0.0-4.151-0.151","6uko8l4u3esu4ne",134,"82.csv","","69.60000002384186","resources/trios/L4T2A3.jpg","37","restless",0.5,0.4,0.5,0.876185597070789,"false"
"image-keyboard-response",466,335213,"0.0-4.151-1.151","6uko8l4u3esu4ne",134,"82.csv","","null","resources/maskTrios/L4BB.jpg","null","",NA,NA,NA,NA,""
"image-keyboard-response",467,336416,"0.0-4.151-2.151","6uko8l4u3esu4ne",134,"82.csv","","null","resources/images/fishbone.png","null","",NA,NA,NA,NA,""
"image-keyboard-response",468,336519,"0.0-4.152-0.152","6uko8l4u3esu4ne",134,"82.csv","","101","resources/trios/L4T2A3.jpg","37","restless",0.6,0.4,0.5,0.37841660539914,"true"
"image-keyboard-response",469,336922,"0.0-4.152-1.152","6uko8l4u3esu4ne",134,"82.csv","","null","resources/maskTrios/L4BB.jpg","null","",NA,NA,NA,NA,""
"image-keyboard-response",470,338126,"0.0-4.152-2.152","6uko8l4u3esu4ne",134,"82.csv","","null","resources/images/coin2.png","null","",NA,NA,NA,NA,""
"image-keyboard-response",471,338306,"0.0-4.153-0.153","6uko8l4u3esu4ne",134,"82.csv","","178.19999998807907","resources/trios/L4T2A3.jpg","38","restless",0.6,0.4,0.5,0.374638122069675,"true"
"image-keyboard-response",472,338709,"0.0-4.153-1.153","6uko8l4u3esu4ne",134,"82.csv","","null","resources/maskTrios/BT2B.jpg","null","",NA,NA,NA,NA,""
"image-keyboard-response",473,339913,"0.0-4.153-2.153","6uko8l4u3esu4ne",134,"82.csv","","null","resources/images/coin2.png","null","",NA,NA,NA,NA,""
"image-keyboard-response",474,339944,"0.0-4.154-0.154","6uko8l4u3esu4ne",134,"82.csv","","29.599999964237213","resources/trios/L4T2A3.jpg","38","restless",0.6,0.4,0.5,0.542060459890841,"false"
"image-keyboard-response",475,340347,"0.0-4.154-1.154","6uko8l4u3esu4ne",134,"82.csv","","null","resources/maskTrios/BT2B.jpg","null","",NA,NA,NA,NA,""
"image-keyboard-response",476,341550,"0.0-4.154-2.154","6uko8l4u3esu4ne",134,"82.csv","","null","resources/images/fishbone.png","null","",NA,NA,NA,NA,""
"image-keyboard-response",477,341610,"0.0-4.155-0.155","6uko8l4u3esu4ne",134,"82.csv","","57.59999996423721","resources/trios/L4T2A3.jpg","38","restless",0.6,0.4,0.5,0.0363774367084917,"true"
"image-keyboard-response",478,342013,"0.0-4.155-1.155","6uko8l4u3esu4ne",134,"82.csv","","null","resources/maskTrios/BT2B.jpg","null","",NA,NA,NA,NA,""
"image-keyboard-response",479,343216,"0.0-4.155-2.155","6uko8l4u3esu4ne",134,"82.csv","","null","resources/images/coin2.png","null","",NA,NA,NA,NA,""
"image-keyboard-response",480,343505,"0.0-4.156-0.156","6uko8l4u3esu4ne",134,"82.csv","","286.60000002384186","resources/trios/L4T2A3.jpg","38","restless",0.6,0.4,0.5,0.122762311252676,"true"
"image-keyboard-response",481,343907,"0.0-4.156-1.156","6uko8l4u3esu4ne",134,"82.csv","","null","resources/maskTrios/BT2B.jpg","null","",NA,NA,NA,NA,""
"image-keyboard-response",482,345110,"0.0-4.156-2.156","6uko8l4u3esu4ne",134,"82.csv","","null","resources/images/coin2.png","null","",NA,NA,NA,NA,""
"image-keyboard-response",483,345616,"0.0-4.157-0.157","6uko8l4u3esu4ne",134,"82.csv","","503.80000001192093","resources/trios/L4T2A3.jpg","38","restless",0.6,0.4,0.5,0.82477538137316,"false"
"image-keyboard-response",484,346020,"0.0-4.157-1.157","6uko8l4u3esu4ne",134,"82.csv","","null","resources/maskTrios/BT2B.jpg","null","",NA,NA,NA,NA,""
"image-keyboard-response",485,347223,"0.0-4.157-2.157","6uko8l4u3esu4ne",134,"82.csv","","null","resources/images/fishbone.png","null","",NA,NA,NA,NA,""
"image-keyboard-response",486,347527,"0.0-4.158-0.158","6uko8l4u3esu4ne",134,"82.csv","","302.10000002384186","resources/trios/L4T2A3.jpg","38","restless",0.7,0.4,0.5,0.224438794454158,"true"
"image-keyboard-response",487,347930,"0.0-4.158-1.158","6uko8l4u3esu4ne",134,"82.csv","","null","resources/maskTrios/BT2B.jpg","null","",NA,NA,NA,NA,""
"image-keyboard-response",488,349133,"0.0-4.158-2.158","6uko8l4u3esu4ne",134,"82.csv","","null","resources/images/coin2.png","null","",NA,NA,NA,NA,""
"image-keyboard-response",489,349523,"0.0-4.159-0.159","6uko8l4u3esu4ne",134,"82.csv","","387.7000000476837","resources/trios/L4T2A3.jpg","38","restless",0.7,0.4,0.5,0.286182255739878,"true"
"image-keyboard-response",490,349926,"0.0-4.159-1.159","6uko8l4u3esu4ne",134,"82.csv","","null","resources/maskTrios/BT2B.jpg","null","",NA,NA,NA,NA,""
"image-keyboard-response",491,351129,"0.0-4.159-2.159","6uko8l4u3esu4ne",134,"82.csv","","null","resources/images/coin2.png","null","",NA,NA,NA,NA,""
"image-keyboard-response",492,351411,"0.0-4.160-0.160","6uko8l4u3esu4ne",134,"82.csv","","279.7000000476837","resources/trios/L4T2A3.jpg","38","restless",0.7,0.4,0.5,0.438768628696064,"false"
"image-keyboard-response",493,351815,"0.0-4.160-1.160","6uko8l4u3esu4ne",134,"82.csv","","null","resources/maskTrios/BT2B.jpg","null","",NA,NA,NA,NA,""
"image-keyboard-response",494,353017,"0.0-4.160-2.160","6uko8l4u3esu4ne",134,"82.csv","","null","resources/images/fishbone.png","null","",NA,NA,NA,NA,""
"image-keyboard-response",495,353460,"0.0-4.161-0.161","6uko8l4u3esu4ne",134,"82.csv","","440.4000000357628","resources/trios/L4T2A3.jpg","39","restless",0.7,0.4,0.5,0.236261644731026,"true"
"image-keyboard-response",496,353862,"0.0-4.161-1.161","6uko8l4u3esu4ne",134,"82.csv","","null","resources/maskTrios/BBA3.jpg","null","",NA,NA,NA,NA,""
"image-keyboard-response",497,355065,"0.0-4.161-2.161","6uko8l4u3esu4ne",134,"82.csv","","null","resources/images/coin2.png","null","",NA,NA,NA,NA,""
"image-keyboard-response",498,355315,"0.0-4.162-0.162","6uko8l4u3esu4ne",134,"82.csv","","247.0999999642372","resources/trios/L4T2A3.jpg","39","restless",0.7,0.4,0.5,0.507411331054778,"false"
"image-keyboard-response",499,355718,"0.0-4.162-1.162","6uko8l4u3esu4ne",134,"82.csv","","null","resources/maskTrios/BBA3.jpg","null","",NA,NA,NA,NA,""
"image-keyboard-response",500,356920,"0.0-4.162-2.162","6uko8l4u3esu4ne",134,"82.csv","","null","resources/images/fishbone.png","null","",NA,NA,NA,NA,""
"image-keyboard-response",501,357117,"0.0-4.163-0.163","6uko8l4u3esu4ne",134,"82.csv","","195.80000001192093","resources/trios/L4T2A3.jpg","38","restless",0.7,0.4,0.5,0.584458004401065,"false"
"image-keyboard-response",502,357520,"0.0-4.163-1.163","6uko8l4u3esu4ne",134,"82.csv","","null","resources/maskTrios/BT2B.jpg","null","",NA,NA,NA,NA,""
"image-keyboard-response",503,358721,"0.0-4.163-2.163","6uko8l4u3esu4ne",134,"82.csv","","null","resources/images/fishbone.png","null","",NA,NA,NA,NA,""
"image-keyboard-response",504,358851,"0.0-4.164-0.164","6uko8l4u3esu4ne",134,"82.csv","","127.40000003576279","resources/trios/L4T2A3.jpg","38","restless",0.7,0.4,0.5,0.655841364597162,"false"
"image-keyboard-response",505,359254,"0.0-4.164-1.164","6uko8l4u3esu4ne",134,"82.csv","","null","resources/maskTrios/BT2B.jpg","null","",NA,NA,NA,NA,""
"image-keyboard-response",506,360456,"0.0-4.164-2.164","6uko8l4u3esu4ne",134,"82.csv","","null","resources/images/fishbone.png","null","",NA,NA,NA,NA,""
"image-keyboard-response",507,360752,"0.0-4.165-0.165","6uko8l4u3esu4ne",134,"82.csv","","292.9000000357628","resources/trios/L4T2A3.jpg","38","restless",0.7,0.5,0.5,0.935475670115596,"false"
"image-keyboard-response",508,361154,"0.0-4.165-1.165","6uko8l4u3esu4ne",134,"82.csv","","null","resources/maskTrios/BT2B.jpg","null","",NA,NA,NA,NA,""
"image-keyboard-response",509,362357,"0.0-4.165-2.165","6uko8l4u3esu4ne",134,"82.csv","","null","resources/images/fishbone.png","null","",NA,NA,NA,NA,""
"image-keyboard-response",510,362669,"0.0-4.166-0.166","6uko8l4u3esu4ne",134,"82.csv","","309.30000001192093","resources/trios/L4T2A3.jpg","38","restless",0.8,0.5,0.5,0.419333933395801,"true"
"image-keyboard-response",511,363081,"0.0-4.166-1.166","6uko8l4u3esu4ne",134,"82.csv","","null","resources/maskTrios/BT2B.jpg","null","",NA,NA,NA,NA,""
"image-keyboard-response",512,364284,"0.0-4.166-2.166","6uko8l4u3esu4ne",134,"82.csv","","null","resources/images/coin2.png","null","",NA,NA,NA,NA,""
"image-keyboard-response",513,365086,"0.0-4.167-0.167","6uko8l4u3esu4ne",134,"82.csv","","801.1999999880791","resources/trios/L4T2A3.jpg","38","restless",0.8,0.5,0.5,0.151833715130054,"true"
"image-keyboard-response",514,365488,"0.0-4.167-1.167","6uko8l4u3esu4ne",134,"82.csv","","null","resources/maskTrios/BT2B.jpg","null","",NA,NA,NA,NA,""
"image-keyboard-response",515,366691,"0.0-4.167-2.167","6uko8l4u3esu4ne",134,"82.csv","","null","resources/images/coin2.png","null","",NA,NA,NA,NA,""
"image-keyboard-response",516,367080,"0.0-4.168-0.168","6uko8l4u3esu4ne",134,"82.csv","","386","resources/trios/L4T2A3.jpg","38","restless",0.8,0.5,0.5,0.905706207892913,"false"
"image-keyboard-response",517,367483,"0.0-4.168-1.168","6uko8l4u3esu4ne",134,"82.csv","","null","resources/maskTrios/BT2B.jpg","null","",NA,NA,NA,NA,""
"image-keyboard-response",518,368685,"0.0-4.168-2.168","6uko8l4u3esu4ne",134,"82.csv","","null","resources/images/fishbone.png","null","",NA,NA,NA,NA,""
"image-keyboard-response",519,368956,"0.0-4.169-0.169","6uko8l4u3esu4ne",134,"82.csv","","267.89999997615814","resources/trios/L4T2A3.jpg","38","restless",0.8,0.5,0.5,0.424361609164758,"true"
"image-keyboard-response",520,369359,"0.0-4.169-1.169","6uko8l4u3esu4ne",134,"82.csv","","null","resources/maskTrios/BT2B.jpg","null","",NA,NA,NA,NA,""
"image-keyboard-response",521,370562,"0.0-4.169-2.169","6uko8l4u3esu4ne",134,"82.csv","","null","resources/images/coin2.png","null","",NA,NA,NA,NA,""
"image-keyboard-response",522,370989,"0.0-4.170-0.170","6uko8l4u3esu4ne",134,"82.csv","","424.5999999642372","resources/trios/L4T2A3.jpg","38","restless",0.8,0.5,0.5,0.678517007639981,"false"
"image-keyboard-response",523,371392,"0.0-4.170-1.170","6uko8l4u3esu4ne",134,"82.csv","","null","resources/maskTrios/BT2B.jpg","null","",NA,NA,NA,NA,""
"image-keyboard-response",524,372596,"0.0-4.170-2.170","6uko8l4u3esu4ne",134,"82.csv","","null","resources/images/fishbone.png","null","",NA,NA,NA,NA,""
"image-keyboard-response",525,373171,"0.0-4.171-0.171","6uko8l4u3esu4ne",134,"82.csv","","572.6999999880791","resources/trios/L4T2A3.jpg","38","restless",0.8,0.5,0.5,0.419336578781115,"true"
"image-keyboard-response",526,373574,"0.0-4.171-1.171","6uko8l4u3esu4ne",134,"82.csv","","null","resources/maskTrios/BT2B.jpg","null","",NA,NA,NA,NA,""
"image-keyboard-response",527,374776,"0.0-4.171-2.171","6uko8l4u3esu4ne",134,"82.csv","","null","resources/images/coin2.png","null","",NA,NA,NA,NA,""
"image-keyboard-response",528,375178,"0.0-4.172-0.172","6uko8l4u3esu4ne",134,"82.csv","","399.19999998807907","resources/trios/L4T2A3.jpg","38","restless",0.8,0.5,0.5,0.612939448761974,"false"
"image-keyboard-response",529,375581,"0.0-4.172-1.172","6uko8l4u3esu4ne",134,"82.csv","","null","resources/maskTrios/BT2B.jpg","null","",NA,NA,NA,NA,""
"image-keyboard-response",530,376784,"0.0-4.172-2.172","6uko8l4u3esu4ne",134,"82.csv","","null","resources/images/fishbone.png","null","",NA,NA,NA,NA,""
"image-keyboard-response",531,377460,"0.0-4.173-0.173","6uko8l4u3esu4ne",134,"82.csv","","673","resources/trios/L4T2A3.jpg","38","restless",0.8,0.5,0.5,0.127194529479083,"true"
"image-keyboard-response",532,377863,"0.0-4.173-1.173","6uko8l4u3esu4ne",134,"82.csv","","null","resources/maskTrios/BT2B.jpg","null","",NA,NA,NA,NA,""
"image-keyboard-response",533,379066,"0.0-4.173-2.173","6uko8l4u3esu4ne",134,"82.csv","","null","resources/images/coin2.png","null","",NA,NA,NA,NA,""
"image-keyboard-response",534,379417,"0.0-4.174-0.174","6uko8l4u3esu4ne",134,"82.csv","","348.10000002384186","resources/trios/L4T2A3.jpg","38","restless",0.8,0.5,0.5,0.084751135176006,"true"
"image-keyboard-response",535,379821,"0.0-4.174-1.174","6uko8l4u3esu4ne",134,"82.csv","","null","resources/maskTrios/BT2B.jpg","null","",NA,NA,NA,NA,""
"image-keyboard-response",536,381024,"0.0-4.174-2.174","6uko8l4u3esu4ne",134,"82.csv","","null","resources/images/coin2.png","null","",NA,NA,NA,NA,""
"image-keyboard-response",537,381501,"0.0-4.175-0.175","6uko8l4u3esu4ne",134,"82.csv","","475.39999997615814","resources/trios/L4T2A3.jpg","38","restless",0.8,0.5,0.5,0.0783921202695288,"true"
"image-keyboard-response",538,381904,"0.0-4.175-1.175","6uko8l4u3esu4ne",134,"82.csv","","null","resources/maskTrios/BT2B.jpg","null","",NA,NA,NA,NA,""
"image-keyboard-response",539,383108,"0.0-4.175-2.175","6uko8l4u3esu4ne",134,"82.csv","","null","resources/images/coin2.png","null","",NA,NA,NA,NA,""
"image-keyboard-response",540,384568,"0.0-4.176-0.176","6uko8l4u3esu4ne",134,"82.csv","","1457.5","resources/trios/L4T2A3.jpg","38","restless",0.8,0.5,0.5,0.340011211126232,"true"
"image-keyboard-response",541,384971,"0.0-4.176-1.176","6uko8l4u3esu4ne",134,"82.csv","","null","resources/maskTrios/BT2B.jpg","null","",NA,NA,NA,NA,""
"image-keyboard-response",542,386174,"0.0-4.176-2.176","6uko8l4u3esu4ne",134,"82.csv","","null","resources/images/coin2.png","null","",NA,NA,NA,NA,""
"image-keyboard-response",543,387072,"0.0-4.177-0.177","6uko8l4u3esu4ne",134,"82.csv","","896.1999999880791","resources/trios/L4T2A3.jpg","38","restless",0.8,0.5,0.6,0.870766371128552,"false"
"image-keyboard-response",544,387475,"0.0-4.177-1.177","6uko8l4u3esu4ne",134,"82.csv","","null","resources/maskTrios/BT2B.jpg","null","",NA,NA,NA,NA,""
"image-keyboard-response",545,388678,"0.0-4.177-2.177","6uko8l4u3esu4ne",134,"82.csv","","null","resources/images/fishbone.png","null","",NA,NA,NA,NA,""
"image-keyboard-response",546,390097,"0.0-4.178-0.178","6uko8l4u3esu4ne",134,"82.csv","","1415.5","resources/trios/L4T2A3.jpg","38","restless",0.9,0.5,0.6,0.854407072902284,"false"
"image-keyboard-response",547,390500,"0.0-4.178-1.178","6uko8l4u3esu4ne",134,"82.csv","","null","resources/maskTrios/BT2B.jpg","null","",NA,NA,NA,NA,""
"image-keyboard-response",548,391702,"0.0-4.178-2.178","6uko8l4u3esu4ne",134,"82.csv","","null","resources/images/fishbone.png","null","",NA,NA,NA,NA,""
"image-keyboard-response",549,392257,"0.0-4.179-0.179","6uko8l4u3esu4ne",134,"82.csv","","553","resources/trios/L4T2A3.jpg","38","restless",0.8,0.6,0.6,0.309420978835839,"true"
"image-keyboard-response",550,392660,"0.0-4.179-1.179","6uko8l4u3esu4ne",134,"82.csv","","null","resources/maskTrios/BT2B.jpg","null","",NA,NA,NA,NA,""
"image-keyboard-response",551,393862,"0.0-4.179-2.179","6uko8l4u3esu4ne",134,"82.csv","","null","resources/images/coin2.png","null","",NA,NA,NA,NA,""
"image-keyboard-response",552,394541,"0.0-4.180-0.180","6uko8l4u3esu4ne",134,"82.csv","","676.8000000119209","resources/trios/L4T2A3.jpg","38","restless",0.8,0.6,0.6,0.569063823712316,"true"
"image-keyboard-response",553,394945,"0.0-4.180-1.180","6uko8l4u3esu4ne",134,"82.csv","","null","resources/maskTrios/BT2B.jpg","null","",NA,NA,NA,NA,""
"image-keyboard-response",554,396147,"0.0-4.180-2.180","6uko8l4u3esu4ne",134,"82.csv","","null","resources/images/coin2.png","null","",NA,NA,NA,NA,""
"image-keyboard-response",555,396683,"0.0-4.181-0.181","6uko8l4u3esu4ne",134,"82.csv","","533.9000000357628","resources/trios/L4T2A3.jpg","38","restless",0.8,0.6,0.6,0.341538258793251,"true"
"image-keyboard-response",556,397086,"0.0-4.181-1.181","6uko8l4u3esu4ne",134,"82.csv","","null","resources/maskTrios/BT2B.jpg","null","",NA,NA,NA,NA,""
"image-keyboard-response",557,398289,"0.0-4.181-2.181","6uko8l4u3esu4ne",134,"82.csv","","null","resources/images/coin2.png","null","",NA,NA,NA,NA,""
"image-keyboard-response",558,398826,"0.0-4.182-0.182","6uko8l4u3esu4ne",134,"82.csv","","535","resources/trios/L4T2A3.jpg","38","restless",0.8,0.6,0.6,0.279412169521438,"true"
"image-keyboard-response",559,399229,"0.0-4.182-1.182","6uko8l4u3esu4ne",134,"82.csv","","null","resources/maskTrios/BT2B.jpg","null","",NA,NA,NA,NA,""
"image-keyboard-response",560,400432,"0.0-4.182-2.182","6uko8l4u3esu4ne",134,"82.csv","","null","resources/images/coin2.png","null","",NA,NA,NA,NA,""
"image-keyboard-response",561,400632,"0.0-4.183-0.183","6uko8l4u3esu4ne",134,"82.csv","","197.60000002384186","resources/trios/L4T2A3.jpg","38","restless",0.8,0.6,0.6,0.318748535921374,"true"
"image-keyboard-response",562,401035,"0.0-4.183-1.183","6uko8l4u3esu4ne",134,"82.csv","","null","resources/maskTrios/BT2B.jpg","null","",NA,NA,NA,NA,""
"image-keyboard-response",563,402238,"0.0-4.183-2.183","6uko8l4u3esu4ne",134,"82.csv","","null","resources/images/coin2.png","null","",NA,NA,NA,NA,""
"image-keyboard-response",564,402676,"0.0-4.184-0.184","6uko8l4u3esu4ne",134,"82.csv","","436.89999997615814","resources/trios/L4T2A3.jpg","38","restless",0.8,0.5,0.7,0.100389702230424,"true"
"image-keyboard-response",565,403077,"0.0-4.184-1.184","6uko8l4u3esu4ne",134,"82.csv","","null","resources/maskTrios/BT2B.jpg","null","",NA,NA,NA,NA,""
"image-keyboard-response",566,404280,"0.0-4.184-2.184","6uko8l4u3esu4ne",134,"82.csv","","null","resources/images/coin2.png","null","",NA,NA,NA,NA,""
"image-keyboard-response",567,405058,"0.0-4.185-0.185","6uko8l4u3esu4ne",134,"82.csv","","776.0999999642372","resources/trios/L4T2A3.jpg","38","restless",0.8,0.4,0.7,0.597872463833361,"false"
"image-keyboard-response",568,405462,"0.0-4.185-1.185","6uko8l4u3esu4ne",134,"82.csv","","null","resources/maskTrios/BT2B.jpg","null","",NA,NA,NA,NA,""
"image-keyboard-response",569,406665,"0.0-4.185-2.185","6uko8l4u3esu4ne",134,"82.csv","","null","resources/images/fishbone.png","null","",NA,NA,NA,NA,""
"image-keyboard-response",570,407748,"0.0-4.186-0.186","6uko8l4u3esu4ne",134,"82.csv","","1080","resources/trios/L4T2A3.jpg","38","restless",0.8,0.4,0.6,0.210703737927889,"true"
"image-keyboard-response",571,408150,"0.0-4.186-1.186","6uko8l4u3esu4ne",134,"82.csv","","null","resources/maskTrios/BT2B.jpg","null","",NA,NA,NA,NA,""
"image-keyboard-response",572,409366,"0.0-4.186-2.186","6uko8l4u3esu4ne",134,"82.csv","","null","resources/images/coin2.png","null","",NA,NA,NA,NA,""
"image-keyboard-response",573,410166,"0.0-4.187-0.187","6uko8l4u3esu4ne",134,"82.csv","","797.3000000119209","resources/trios/L4T2A3.jpg","38","restless",0.8,0.4,0.6,0.418078726404037,"false"
"image-keyboard-response",574,410569,"0.0-4.187-1.187","6uko8l4u3esu4ne",134,"82.csv","","null","resources/maskTrios/BT2B.jpg","null","",NA,NA,NA,NA,""
"image-keyboard-response",575,411771,"0.0-4.187-2.187","6uko8l4u3esu4ne",134,"82.csv","","null","resources/images/fishbone.png","null","",NA,NA,NA,NA,""
"image-keyboard-response",576,412649,"0.0-4.188-0.188","6uko8l4u3esu4ne",134,"82.csv","","875.3000000119209","resources/trios/L4T2A3.jpg","38","restless",0.8,0.4,0.6,0.894351614176732,"false"
"image-keyboard-response",577,413065,"0.0-4.188-1.188","6uko8l4u3esu4ne",134,"82.csv","","null","resources/maskTrios/BT2B.jpg","null","",NA,NA,NA,NA,""
"image-keyboard-response",578,414268,"0.0-4.188-2.188","6uko8l4u3esu4ne",134,"82.csv","","null","resources/images/fishbone.png","null","",NA,NA,NA,NA,""
"image-keyboard-response",579,415154,"0.0-4.189-0.189","6uko8l4u3esu4ne",134,"82.csv","","882.8999999761581","resources/trios/L4T2A3.jpg","38","restless",0.8,0.4,0.6,0.055811777448594,"true"
"image-keyboard-response",580,415558,"0.0-4.189-1.189","6uko8l4u3esu4ne",134,"82.csv","","null","resources/maskTrios/BT2B.jpg","null","",NA,NA,NA,NA,""
"image-keyboard-response",581,416761,"0.0-4.189-2.189","6uko8l4u3esu4ne",134,"82.csv","","null","resources/images/coin2.png","null","",NA,NA,NA,NA,""
"image-keyboard-response",582,417346,"0.0-4.190-0.190","6uko8l4u3esu4ne",134,"82.csv","","581.8999999761581","resources/trios/L4T2A3.jpg","38","restless",0.9,0.4,0.6,0.0758443348249229,"true"
"image-keyboard-response",583,417748,"0.0-4.190-1.190","6uko8l4u3esu4ne",134,"82.csv","","null","resources/maskTrios/BT2B.jpg","null","",NA,NA,NA,NA,""
"image-keyboard-response",584,418951,"0.0-4.190-2.190","6uko8l4u3esu4ne",134,"82.csv","","null","resources/images/coin2.png","null","",NA,NA,NA,NA,""
"image-keyboard-response",585,419960,"0.0-4.191-0.191","6uko8l4u3esu4ne",134,"82.csv","","1005.8999999761581","resources/trios/L4T2A3.jpg","38","restless",0.8,0.4,0.6,0.355066881740292,"true"
"image-keyboard-response",586,420363,"0.0-4.191-1.191","6uko8l4u3esu4ne",134,"82.csv","","null","resources/maskTrios/BT2B.jpg","null","",NA,NA,NA,NA,""
"image-keyboard-response",587,421566,"0.0-4.191-2.191","6uko8l4u3esu4ne",134,"82.csv","","null","resources/images/coin2.png","null","",NA,NA,NA,NA,""
"image-keyboard-response",588,422296,"0.0-4.192-0.192","6uko8l4u3esu4ne",134,"82.csv","","728.0999999642372","resources/trios/L4T2A3.jpg","38","restless",0.8,0.4,0.6,0.0335361517393997,"true"
"image-keyboard-response",589,422700,"0.0-4.192-1.192","6uko8l4u3esu4ne",134,"82.csv","","null","resources/maskTrios/BT2B.jpg","null","",NA,NA,NA,NA,""
"image-keyboard-response",590,423903,"0.0-4.192-2.192","6uko8l4u3esu4ne",134,"82.csv","","null","resources/images/coin2.png","null","",NA,NA,NA,NA,""
"image-keyboard-response",591,424641,"0.0-4.193-0.193","6uko8l4u3esu4ne",134,"82.csv","","735.6999999880791","resources/trios/L4T2A3.jpg","38","restless",0.9,0.4,0.6,0.177683056852131,"true"
"image-keyboard-response",592,425044,"0.0-4.193-1.193","6uko8l4u3esu4ne",134,"82.csv","","null","resources/maskTrios/BT2B.jpg","null","",NA,NA,NA,NA,""
"image-keyboard-response",593,426247,"0.0-4.193-2.193","6uko8l4u3esu4ne",134,"82.csv","","null","resources/images/coin2.png","null","",NA,NA,NA,NA,""
"image-keyboard-response",594,426966,"0.0-4.194-0.194","6uko8l4u3esu4ne",134,"82.csv","","717.3999999761581","resources/trios/L4T2A3.jpg","38","restless",0.9,0.4,0.6,0.358179379382385,"true"
"image-keyboard-response",595,427369,"0.0-4.194-1.194","6uko8l4u3esu4ne",134,"82.csv","","null","resources/maskTrios/BT2B.jpg","null","",NA,NA,NA,NA,""
"image-keyboard-response",596,428571,"0.0-4.194-2.194","6uko8l4u3esu4ne",134,"82.csv","","null","resources/images/coin2.png","null","",NA,NA,NA,NA,""
"image-keyboard-response",597,429208,"0.0-4.195-0.195","6uko8l4u3esu4ne",134,"82.csv","","633.8999999761581","resources/trios/L4T2A3.jpg","38","restless",0.9,0.4,0.5,0.737107795842766,"false"
"image-keyboard-response",598,429611,"0.0-4.195-1.195","6uko8l4u3esu4ne",134,"82.csv","","null","resources/maskTrios/BT2B.jpg","null","",NA,NA,NA,NA,""
"image-keyboard-response",599,430814,"0.0-4.195-2.195","6uko8l4u3esu4ne",134,"82.csv","","null","resources/images/fishbone.png","null","",NA,NA,NA,NA,""
"image-keyboard-response",600,431342,"0.0-4.196-0.196","6uko8l4u3esu4ne",134,"82.csv","","526.2999999523163","resources/trios/L4T2A3.jpg","38","restless",0.8,0.4,0.5,0.488920211007983,"false"
"image-keyboard-response",601,431746,"0.0-4.196-1.196","6uko8l4u3esu4ne",134,"82.csv","","null","resources/maskTrios/BT2B.jpg","null","",NA,NA,NA,NA,""
"image-keyboard-response",602,432949,"0.0-4.196-2.196","6uko8l4u3esu4ne",134,"82.csv","","null","resources/images/fishbone.png","null","",NA,NA,NA,NA,""
"image-keyboard-response",603,433441,"0.0-4.197-0.197","6uko8l4u3esu4ne",134,"82.csv","","489.39999997615814","resources/trios/L4T2A3.jpg","38","restless",0.8,0.4,0.5,0.237031096679442,"true"
"image-keyboard-response",604,433843,"0.0-4.197-1.197","6uko8l4u3esu4ne",134,"82.csv","","null","resources/maskTrios/BT2B.jpg","null","",NA,NA,NA,NA,""
"image-keyboard-response",605,435046,"0.0-4.197-2.197","6uko8l4u3esu4ne",134,"82.csv","","null","resources/images/coin2.png","null","",NA,NA,NA,NA,""
"image-keyboard-response",606,435743,"0.0-4.198-0.198","6uko8l4u3esu4ne",134,"82.csv","","694.1999999880791","resources/trios/L4T2A3.jpg","38","restless",0.9,0.4,0.5,0.739162120520879,"false"
"image-keyboard-response",607,436146,"0.0-4.198-1.198","6uko8l4u3esu4ne",134,"82.csv","","null","resources/maskTrios/BT2B.jpg","null","",NA,NA,NA,NA,""
"image-keyboard-response",608,437349,"0.0-4.198-2.198","6uko8l4u3esu4ne",134,"82.csv","","null","resources/images/fishbone.png","null","",NA,NA,NA,NA,""
"image-keyboard-response",609,437793,"0.0-4.199-0.199","6uko8l4u3esu4ne",134,"82.csv","","441.89999997615814","resources/trios/L4T2A3.jpg","38","restless",0.9,0.3,0.5,0.588904607320517,"false"
"image-keyboard-response",610,438196,"0.0-4.199-1.199","6uko8l4u3esu4ne",134,"82.csv","","null","resources/maskTrios/BT2B.jpg","null","",NA,NA,NA,NA,""
"image-keyboard-response",611,439399,"0.0-4.199-2.199","6uko8l4u3esu4ne",134,"82.csv","","null","resources/images/fishbone.png","null","",NA,NA,NA,NA,""
"survey-text",612,497770,"0.0-5.0","6uko8l4u3esu4ne",134,"82.csv","","58361.30000001192","","","",NA,NA,NA,NA,""
