"trial_type","trial_index","time_elapsed","internal_node_id","subject","participantCode","walkNumber","success","rt","stimulus","key_press","test_part","leftProb","midProb","rightProb","generatedNum","correct"
"pavlovia",0,2152,"0.0-0.0","0v9s70j9ahfy7a7",543,"164.csv","","","","","",NA,NA,NA,NA,""
"fullscreen",1,21476400,"0.0-1.0","0v9s70j9ahfy7a7",543,"164.csv","true","","","","",NA,NA,NA,NA,""
"survey-html-form",2,21485750,"0.0-2.0","0v9s70j9ahfy7a7",543,"164.csv","","9112","","","",NA,NA,NA,NA,""
"image-keyboard-response",3,21497881,"0.0-3.0-0.0","0v9s70j9ahfy7a7",543,"164.csv","","12119","resources/images/parrot_nobg.png","13","",NA,NA,NA,NA,""
"image-keyboard-response",4,21500891,"0.0-3.0-1.0","0v9s70j9ahfy7a7",543,"164.csv","","null","resources/image_sets/111.png","null","",NA,NA,NA,NA,""
"image-keyboard-response",5,21504236,"0.0-3.0-2.0","0v9s70j9ahfy7a7",543,"164.csv","","3344","resources/image_sets/left_highlight.png","37","",NA,NA,NA,NA,""
"image-keyboard-response",6,21505670,"0.0-3.0-3.0","0v9s70j9ahfy7a7",543,"164.csv","","1430","resources/image_sets/mid_highlight.png","38","",NA,NA,NA,NA,""
"image-keyboard-response",7,21507052,"0.0-3.0-4.0","0v9s70j9ahfy7a7",543,"164.csv","","1379","resources/image_sets/right_highlight.png","39","",NA,NA,NA,NA,""
"image-keyboard-response",8,21510544,"0.0-3.0-5.0","0v9s70j9ahfy7a7",543,"164.csv","","3488","resources/image_sets/111.png","13","",NA,NA,NA,NA,""
"image-keyboard-response",9,21513916,"0.0-3.0-6.0","0v9s70j9ahfy7a7",543,"164.csv","","3370","resources/images/coin2.png","13","",NA,NA,NA,NA,""
"image-keyboard-response",10,21515589,"0.0-3.0-7.0","0v9s70j9ahfy7a7",543,"164.csv","","1671","resources/images/fishbone.png","13","",NA,NA,NA,NA,""
"html-keyboard-response",11,21521497,"0.0-3.0-8.0","0v9s70j9ahfy7a7",543,"164.csv","","5907","<p>You can track your coin total on the top right of your screen. </p><p>At the end of your journey you will be directed to a survey, so please click on the link before exiting the task</p><p>Press Enter to begin</p>","13","",NA,NA,NA,NA,""
"image-keyboard-response",12,21525876,"0.0-4.0-0.0","0v9s70j9ahfy7a7",543,"164.csv","","4375","resources/trios/L4T2A3.jpg","38","restless",0.9,0.3,0.7,0.494760753765551,"false"
"image-keyboard-response",13,21526288,"0.0-4.0-1.0","0v9s70j9ahfy7a7",543,"164.csv","","null","resources/maskTrios/BT2B.jpg","null","",NA,NA,NA,NA,""
"image-keyboard-response",14,21527502,"0.0-4.0-2.0","0v9s70j9ahfy7a7",543,"164.csv","","null","resources/images/fishbone.png","null","",NA,NA,NA,NA,""
"image-keyboard-response",15,21529043,"0.0-4.1-0.1","0v9s70j9ahfy7a7",543,"164.csv","","1541","resources/trios/L4T2A3.jpg","37","restless",0.9,0.3,0.7,0.930571347961856,"false"
"image-keyboard-response",16,21529462,"0.0-4.1-1.1","0v9s70j9ahfy7a7",543,"164.csv","","null","resources/maskTrios/L4BB.jpg","null","",NA,NA,NA,NA,""
"image-keyboard-response",17,21530673,"0.0-4.1-2.1","0v9s70j9ahfy7a7",543,"164.csv","","null","resources/images/fishbone.png","null","",NA,NA,NA,NA,""
"image-keyboard-response",18,21532101,"0.0-4.2-0.2","0v9s70j9ahfy7a7",543,"164.csv","","1426","resources/trios/L4T2A3.jpg","39","restless",0.9,0.3,0.7,0.560280596381719,"true"
"image-keyboard-response",19,21532515,"0.0-4.2-1.2","0v9s70j9ahfy7a7",543,"164.csv","","null","resources/maskTrios/BBA3.jpg","null","",NA,NA,NA,NA,""
"image-keyboard-response",20,21533727,"0.0-4.2-2.2","0v9s70j9ahfy7a7",543,"164.csv","","null","resources/images/coin2.png","null","",NA,NA,NA,NA,""
"image-keyboard-response",21,21534292,"0.0-4.3-0.3","0v9s70j9ahfy7a7",543,"164.csv","","563","resources/trios/L4T2A3.jpg","39","restless",0.8,0.3,0.7,0.467175546783154,"true"
"image-keyboard-response",22,21534703,"0.0-4.3-1.3","0v9s70j9ahfy7a7",543,"164.csv","","null","resources/maskTrios/BBA3.jpg","null","",NA,NA,NA,NA,""
"image-keyboard-response",23,21535911,"0.0-4.3-2.3","0v9s70j9ahfy7a7",543,"164.csv","","null","resources/images/coin2.png","null","",NA,NA,NA,NA,""
"image-keyboard-response",24,21536391,"0.0-4.4-0.4","0v9s70j9ahfy7a7",543,"164.csv","","478","resources/trios/L4T2A3.jpg","39","restless",0.8,0.3,0.7,0.422038578283127,"true"
"image-keyboard-response",25,21536798,"0.0-4.4-1.4","0v9s70j9ahfy7a7",543,"164.csv","","null","resources/maskTrios/BBA3.jpg","null","",NA,NA,NA,NA,""
"image-keyboard-response",26,21538012,"0.0-4.4-2.4","0v9s70j9ahfy7a7",543,"164.csv","","null","resources/images/coin2.png","null","",NA,NA,NA,NA,""
"image-keyboard-response",27,21538452,"0.0-4.5-0.5","0v9s70j9ahfy7a7",543,"164.csv","","440","resources/trios/L4T2A3.jpg","39","restless",0.8,0.2,0.7,0.05037087856749,"true"
"image-keyboard-response",28,21538857,"0.0-4.5-1.5","0v9s70j9ahfy7a7",543,"164.csv","","null","resources/maskTrios/BBA3.jpg","null","",NA,NA,NA,NA,""
"image-keyboard-response",29,21540070,"0.0-4.5-2.5","0v9s70j9ahfy7a7",543,"164.csv","","null","resources/images/coin2.png","null","",NA,NA,NA,NA,""
"image-keyboard-response",30,21540436,"0.0-4.6-0.6","0v9s70j9ahfy7a7",543,"164.csv","","366","resources/trios/L4T2A3.jpg","39","restless",0.8,0.2,0.7,0.558073353235728,"true"
"image-keyboard-response",31,21540854,"0.0-4.6-1.6","0v9s70j9ahfy7a7",543,"164.csv","","null","resources/maskTrios/BBA3.jpg","null","",NA,NA,NA,NA,""
"image-keyboard-response",32,21542072,"0.0-4.6-2.6","0v9s70j9ahfy7a7",543,"164.csv","","null","resources/images/coin2.png","null","",NA,NA,NA,NA,""
"image-keyboard-response",33,21542487,"0.0-4.7-0.7","0v9s70j9ahfy7a7",543,"164.csv","","412","resources/trios/L4T2A3.jpg","39","restless",0.8,0.2,0.7,0.715051615418863,"false"
"image-keyboard-response",34,21542892,"0.0-4.7-1.7","0v9s70j9ahfy7a7",543,"164.csv","","null","resources/maskTrios/BBA3.jpg","null","",NA,NA,NA,NA,""
"image-keyboard-response",35,21544100,"0.0-4.7-2.7","0v9s70j9ahfy7a7",543,"164.csv","","null","resources/images/fishbone.png","null","",NA,NA,NA,NA,""
"image-keyboard-response",36,21544395,"0.0-4.8-0.8","0v9s70j9ahfy7a7",543,"164.csv","","294","resources/trios/L4T2A3.jpg","38","restless",0.8,0.2,0.7,0.979558910395043,"false"
"image-keyboard-response",37,21544806,"0.0-4.8-1.8","0v9s70j9ahfy7a7",543,"164.csv","","null","resources/maskTrios/BT2B.jpg","null","",NA,NA,NA,NA,""
"image-keyboard-response",38,21546033,"0.0-4.8-2.8","0v9s70j9ahfy7a7",543,"164.csv","","null","resources/images/fishbone.png","null","",NA,NA,NA,NA,""
"image-keyboard-response",39,21546357,"0.0-4.9-0.9","0v9s70j9ahfy7a7",543,"164.csv","","324","resources/trios/L4T2A3.jpg","37","restless",0.8,0.2,0.7,0.0567587080206475,"true"
"image-keyboard-response",40,21546763,"0.0-4.9-1.9","0v9s70j9ahfy7a7",543,"164.csv","","null","resources/maskTrios/L4BB.jpg","null","",NA,NA,NA,NA,""
"image-keyboard-response",41,21548033,"0.0-4.9-2.9","0v9s70j9ahfy7a7",543,"164.csv","","null","resources/images/coin2.png","null","",NA,NA,NA,NA,""
"image-keyboard-response",42,21548331,"0.0-4.10-0.10","0v9s70j9ahfy7a7",543,"164.csv","","296","resources/trios/L4T2A3.jpg","37","restless",0.8,0.2,0.7,0.528126535301031,"true"
"image-keyboard-response",43,21548773,"0.0-4.10-1.10","0v9s70j9ahfy7a7",543,"164.csv","","null","resources/maskTrios/L4BB.jpg","null","",NA,NA,NA,NA,""
"image-keyboard-response",44,21549984,"0.0-4.10-2.10","0v9s70j9ahfy7a7",543,"164.csv","","null","resources/images/coin2.png","null","",NA,NA,NA,NA,""
"image-keyboard-response",45,21550313,"0.0-4.11-0.11","0v9s70j9ahfy7a7",543,"164.csv","","327","resources/trios/L4T2A3.jpg","37","restless",0.8,0.2,0.7,0.350749760175209,"true"
"image-keyboard-response",46,21550729,"0.0-4.11-1.11","0v9s70j9ahfy7a7",543,"164.csv","","null","resources/maskTrios/L4BB.jpg","null","",NA,NA,NA,NA,""
"image-keyboard-response",47,21551937,"0.0-4.11-2.11","0v9s70j9ahfy7a7",543,"164.csv","","null","resources/images/coin2.png","null","",NA,NA,NA,NA,""
"image-keyboard-response",48,21552217,"0.0-4.12-0.12","0v9s70j9ahfy7a7",543,"164.csv","","277","resources/trios/L4T2A3.jpg","37","restless",0.8,0.2,0.7,0.475822532969512,"true"
"image-keyboard-response",49,21552626,"0.0-4.12-1.12","0v9s70j9ahfy7a7",543,"164.csv","","null","resources/maskTrios/L4BB.jpg","null","",NA,NA,NA,NA,""
"image-keyboard-response",50,21553962,"0.0-4.12-2.12","0v9s70j9ahfy7a7",543,"164.csv","","null","resources/images/coin2.png","null","",NA,NA,NA,NA,""
"image-keyboard-response",51,21554269,"0.0-4.13-0.13","0v9s70j9ahfy7a7",543,"164.csv","","306","resources/trios/L4T2A3.jpg","37","restless",0.8,0.2,0.7,0.709129654847754,"true"
"image-keyboard-response",52,21554675,"0.0-4.13-1.13","0v9s70j9ahfy7a7",543,"164.csv","","null","resources/maskTrios/L4BB.jpg","null","",NA,NA,NA,NA,""
"image-keyboard-response",53,21555980,"0.0-4.13-2.13","0v9s70j9ahfy7a7",543,"164.csv","","null","resources/images/coin2.png","null","",NA,NA,NA,NA,""
"image-keyboard-response",54,21556230,"0.0-4.14-0.14","0v9s70j9ahfy7a7",543,"164.csv","","249","resources/trios/L4T2A3.jpg","37","restless",0.7,0.2,0.8,0.698307532136161,"true"
"image-keyboard-response",55,21556644,"0.0-4.14-1.14","0v9s70j9ahfy7a7",543,"164.csv","","null","resources/maskTrios/L4BB.jpg","null","",NA,NA,NA,NA,""
"image-keyboard-response",56,21558001,"0.0-4.14-2.14","0v9s70j9ahfy7a7",543,"164.csv","","null","resources/images/coin2.png","null","",NA,NA,NA,NA,""
"image-keyboard-response",57,21558353,"0.0-4.15-0.15","0v9s70j9ahfy7a7",543,"164.csv","","350","resources/trios/L4T2A3.jpg","37","restless",0.7,0.2,0.7,0.612994309083662,"true"
"image-keyboard-response",58,21558767,"0.0-4.15-1.15","0v9s70j9ahfy7a7",543,"164.csv","","null","resources/maskTrios/L4BB.jpg","null","",NA,NA,NA,NA,""
"image-keyboard-response",59,21560025,"0.0-4.15-2.15","0v9s70j9ahfy7a7",543,"164.csv","","null","resources/images/coin2.png","null","",NA,NA,NA,NA,""
"image-keyboard-response",60,21560359,"0.0-4.16-0.16","0v9s70j9ahfy7a7",543,"164.csv","","331","resources/trios/L4T2A3.jpg","37","restless",0.6,0.2,0.7,0.628872954724303,"false"
"image-keyboard-response",61,21560767,"0.0-4.16-1.16","0v9s70j9ahfy7a7",543,"164.csv","","null","resources/maskTrios/L4BB.jpg","null","",NA,NA,NA,NA,""
"image-keyboard-response",62,21562046,"0.0-4.16-2.16","0v9s70j9ahfy7a7",543,"164.csv","","null","resources/images/fishbone.png","null","",NA,NA,NA,NA,""
"image-keyboard-response",63,21562344,"0.0-4.17-0.17","0v9s70j9ahfy7a7",543,"164.csv","","297","resources/trios/L4T2A3.jpg","38","restless",0.6,0.2,0.7,0.449311780567117,"false"
"image-keyboard-response",64,21562750,"0.0-4.17-1.17","0v9s70j9ahfy7a7",543,"164.csv","","null","resources/maskTrios/BT2B.jpg","null","",NA,NA,NA,NA,""
"image-keyboard-response",65,21564074,"0.0-4.17-2.17","0v9s70j9ahfy7a7",543,"164.csv","","null","resources/images/fishbone.png","null","",NA,NA,NA,NA,""
"image-keyboard-response",66,21564402,"0.0-4.18-0.18","0v9s70j9ahfy7a7",543,"164.csv","","326","resources/trios/L4T2A3.jpg","39","restless",0.6,0.2,0.7,0.985452745683768,"false"
"image-keyboard-response",67,21564815,"0.0-4.18-1.18","0v9s70j9ahfy7a7",543,"164.csv","","null","resources/maskTrios/BBA3.jpg","null","",NA,NA,NA,NA,""
"image-keyboard-response",68,21566096,"0.0-4.18-2.18","0v9s70j9ahfy7a7",543,"164.csv","","null","resources/images/fishbone.png","null","",NA,NA,NA,NA,""
"image-keyboard-response",69,21566535,"0.0-4.19-0.19","0v9s70j9ahfy7a7",543,"164.csv","","437","resources/trios/L4T2A3.jpg","37","restless",0.6,0.3,0.7,0.598993827289937,"true"
"image-keyboard-response",70,21566962,"0.0-4.19-1.19","0v9s70j9ahfy7a7",543,"164.csv","","null","resources/maskTrios/L4BB.jpg","null","",NA,NA,NA,NA,""
"image-keyboard-response",71,21568176,"0.0-4.19-2.19","0v9s70j9ahfy7a7",543,"164.csv","","null","resources/images/coin2.png","null","",NA,NA,NA,NA,""
"image-keyboard-response",72,21568471,"0.0-4.20-0.20","0v9s70j9ahfy7a7",543,"164.csv","","293","resources/trios/L4T2A3.jpg","37","restless",0.6,0.3,0.7,0.0733512161585379,"true"
"image-keyboard-response",73,21568877,"0.0-4.20-1.20","0v9s70j9ahfy7a7",543,"164.csv","","null","resources/maskTrios/L4BB.jpg","null","",NA,NA,NA,NA,""
"image-keyboard-response",74,21570191,"0.0-4.20-2.20","0v9s70j9ahfy7a7",543,"164.csv","","null","resources/images/coin2.png","null","",NA,NA,NA,NA,""
"image-keyboard-response",75,21570494,"0.0-4.21-0.21","0v9s70j9ahfy7a7",543,"164.csv","","301","resources/trios/L4T2A3.jpg","37","restless",0.7,0.3,0.8,0.346945291291939,"true"
"image-keyboard-response",76,21570900,"0.0-4.21-1.21","0v9s70j9ahfy7a7",543,"164.csv","","null","resources/maskTrios/L4BB.jpg","null","",NA,NA,NA,NA,""
"image-keyboard-response",77,21572217,"0.0-4.21-2.21","0v9s70j9ahfy7a7",543,"164.csv","","null","resources/images/coin2.png","null","",NA,NA,NA,NA,""
"image-keyboard-response",78,21572505,"0.0-4.22-0.22","0v9s70j9ahfy7a7",543,"164.csv","","287","resources/trios/L4T2A3.jpg","37","restless",0.7,0.3,0.8,0.31090918680648,"true"
"image-keyboard-response",79,21572921,"0.0-4.22-1.22","0v9s70j9ahfy7a7",543,"164.csv","","null","resources/maskTrios/L4BB.jpg","null","",NA,NA,NA,NA,""
"image-keyboard-response",80,21574237,"0.0-4.22-2.22","0v9s70j9ahfy7a7",543,"164.csv","","null","resources/images/coin2.png","null","",NA,NA,NA,NA,""
"image-keyboard-response",81,21574543,"0.0-4.23-0.23","0v9s70j9ahfy7a7",543,"164.csv","","304","resources/trios/L4T2A3.jpg","37","restless",0.7,0.3,0.8,0.407713928353862,"true"
"image-keyboard-response",82,21574954,"0.0-4.23-1.23","0v9s70j9ahfy7a7",543,"164.csv","","null","resources/maskTrios/L4BB.jpg","null","",NA,NA,NA,NA,""
"image-keyboard-response",83,21576259,"0.0-4.23-2.23","0v9s70j9ahfy7a7",543,"164.csv","","null","resources/images/coin2.png","null","",NA,NA,NA,NA,""
"image-keyboard-response",84,21576584,"0.0-4.24-0.24","0v9s70j9ahfy7a7",543,"164.csv","","323","resources/trios/L4T2A3.jpg","37","restless",0.7,0.3,0.8,0.928114496755047,"false"
"image-keyboard-response",85,21577000,"0.0-4.24-1.24","0v9s70j9ahfy7a7",543,"164.csv","","null","resources/maskTrios/L4BB.jpg","null","",NA,NA,NA,NA,""
"image-keyboard-response",86,21578225,"0.0-4.24-2.24","0v9s70j9ahfy7a7",543,"164.csv","","null","resources/images/fishbone.png","null","",NA,NA,NA,NA,""
"image-keyboard-response",87,21578703,"0.0-4.25-0.25","0v9s70j9ahfy7a7",543,"164.csv","","473","resources/trios/L4T2A3.jpg","38","restless",0.7,0.3,0.7,0.734996910619697,"false"
"image-keyboard-response",88,21579109,"0.0-4.25-1.25","0v9s70j9ahfy7a7",543,"164.csv","","null","resources/maskTrios/BT2B.jpg","null","",NA,NA,NA,NA,""
"image-keyboard-response",89,21580326,"0.0-4.25-2.25","0v9s70j9ahfy7a7",543,"164.csv","","null","resources/images/fishbone.png","null","",NA,NA,NA,NA,""
"image-keyboard-response",90,21580558,"0.0-4.26-0.26","0v9s70j9ahfy7a7",543,"164.csv","","230","resources/trios/L4T2A3.jpg","39","restless",0.8,0.3,0.7,0.794205737342985,"false"
"image-keyboard-response",91,21580969,"0.0-4.26-1.26","0v9s70j9ahfy7a7",543,"164.csv","","null","resources/maskTrios/BBA3.jpg","null","",NA,NA,NA,NA,""
"image-keyboard-response",92,21582341,"0.0-4.26-2.26","0v9s70j9ahfy7a7",543,"164.csv","","null","resources/images/fishbone.png","null","",NA,NA,NA,NA,""
"image-keyboard-response",93,21582574,"0.0-4.27-0.27","0v9s70j9ahfy7a7",543,"164.csv","","226","resources/trios/L4T2A3.jpg","37","restless",0.8,0.3,0.7,0.117050941178369,"true"
"image-keyboard-response",94,21582996,"0.0-4.27-1.27","0v9s70j9ahfy7a7",543,"164.csv","","null","resources/maskTrios/L4BB.jpg","null","",NA,NA,NA,NA,""
"image-keyboard-response",95,21584208,"0.0-4.27-2.27","0v9s70j9ahfy7a7",543,"164.csv","","null","resources/images/coin2.png","null","",NA,NA,NA,NA,""
"image-keyboard-response",96,21584509,"0.0-4.28-0.28","0v9s70j9ahfy7a7",543,"164.csv","","298","resources/trios/L4T2A3.jpg","37","restless",0.7,0.3,0.7,0.0465563635568229,"true"
"image-keyboard-response",97,21584936,"0.0-4.28-1.28","0v9s70j9ahfy7a7",543,"164.csv","","null","resources/maskTrios/L4BB.jpg","null","",NA,NA,NA,NA,""
"image-keyboard-response",98,21586169,"0.0-4.28-2.28","0v9s70j9ahfy7a7",543,"164.csv","","null","resources/images/coin2.png","null","",NA,NA,NA,NA,""
"image-keyboard-response",99,21586405,"0.0-4.29-0.29","0v9s70j9ahfy7a7",543,"164.csv","","229","resources/trios/L4T2A3.jpg","37","restless",0.7,0.3,0.7,0.915534617251602,"false"
"image-keyboard-response",100,21586811,"0.0-4.29-1.29","0v9s70j9ahfy7a7",543,"164.csv","","null","resources/maskTrios/L4BB.jpg","null","",NA,NA,NA,NA,""
"image-keyboard-response",101,21588018,"0.0-4.29-2.29","0v9s70j9ahfy7a7",543,"164.csv","","null","resources/images/fishbone.png","null","",NA,NA,NA,NA,""
"image-keyboard-response",102,21588338,"0.0-4.30-0.30","0v9s70j9ahfy7a7",543,"164.csv","","317","resources/trios/L4T2A3.jpg","37","restless",0.7,0.3,0.7,0.743269194280909,"false"
"image-keyboard-response",103,21588746,"0.0-4.30-1.30","0v9s70j9ahfy7a7",543,"164.csv","","null","resources/maskTrios/L4BB.jpg","null","",NA,NA,NA,NA,""
"image-keyboard-response",104,21589956,"0.0-4.30-2.30","0v9s70j9ahfy7a7",543,"164.csv","","null","resources/images/fishbone.png","null","",NA,NA,NA,NA,""
"image-keyboard-response",105,21590094,"0.0-4.31-0.31","0v9s70j9ahfy7a7",543,"164.csv","","136","resources/trios/L4T2A3.jpg","38","restless",0.7,0.3,0.7,0.892786328047232,"false"
"image-keyboard-response",106,21590508,"0.0-4.31-1.31","0v9s70j9ahfy7a7",543,"164.csv","","null","resources/maskTrios/BT2B.jpg","null","",NA,NA,NA,NA,""
"image-keyboard-response",107,21591727,"0.0-4.31-2.31","0v9s70j9ahfy7a7",543,"164.csv","","null","resources/images/fishbone.png","null","",NA,NA,NA,NA,""
"image-keyboard-response",108,21592024,"0.0-4.32-0.32","0v9s70j9ahfy7a7",543,"164.csv","","295","resources/trios/L4T2A3.jpg","39","restless",0.7,0.3,0.7,0.016196333925495,"true"
"image-keyboard-response",109,21592427,"0.0-4.32-1.32","0v9s70j9ahfy7a7",543,"164.csv","","null","resources/maskTrios/BBA3.jpg","null","",NA,NA,NA,NA,""
"image-keyboard-response",110,21593746,"0.0-4.32-2.32","0v9s70j9ahfy7a7",543,"164.csv","","null","resources/images/coin2.png","null","",NA,NA,NA,NA,""
"image-keyboard-response",111,21593982,"0.0-4.33-0.33","0v9s70j9ahfy7a7",543,"164.csv","","232","resources/trios/L4T2A3.jpg","39","restless",0.7,0.3,0.7,0.901459874723342,"false"
"image-keyboard-response",112,21594392,"0.0-4.33-1.33","0v9s70j9ahfy7a7",543,"164.csv","","null","resources/maskTrios/BBA3.jpg","null","",NA,NA,NA,NA,""
"image-keyboard-response",113,21595608,"0.0-4.33-2.33","0v9s70j9ahfy7a7",543,"164.csv","","null","resources/images/fishbone.png","null","",NA,NA,NA,NA,""
"image-keyboard-response",114,21595792,"0.0-4.34-0.34","0v9s70j9ahfy7a7",543,"164.csv","","183","resources/trios/L4T2A3.jpg","37","restless",0.8,0.3,0.6,0.517332584859155,"true"
"image-keyboard-response",115,21596199,"0.0-4.34-1.34","0v9s70j9ahfy7a7",543,"164.csv","","null","resources/maskTrios/L4BB.jpg","null","",NA,NA,NA,NA,""
"image-keyboard-response",116,21597402,"0.0-4.34-2.34","0v9s70j9ahfy7a7",543,"164.csv","","null","resources/images/coin2.png","null","",NA,NA,NA,NA,""
"image-keyboard-response",117,21597673,"0.0-4.35-0.35","0v9s70j9ahfy7a7",543,"164.csv","","271","resources/trios/L4T2A3.jpg","37","restless",0.8,0.4,0.5,0.707761288977378,"true"
"image-keyboard-response",118,21598079,"0.0-4.35-1.35","0v9s70j9ahfy7a7",543,"164.csv","","null","resources/maskTrios/L4BB.jpg","null","",NA,NA,NA,NA,""
"image-keyboard-response",119,21599284,"0.0-4.35-2.35","0v9s70j9ahfy7a7",543,"164.csv","","null","resources/images/coin2.png","null","",NA,NA,NA,NA,""
"image-keyboard-response",120,21599633,"0.0-4.36-0.36","0v9s70j9ahfy7a7",543,"164.csv","","345","resources/trios/L4T2A3.jpg","37","restless",0.8,0.4,0.5,0.992137331997002,"false"
"image-keyboard-response",121,21600067,"0.0-4.36-1.36","0v9s70j9ahfy7a7",543,"164.csv","","null","resources/maskTrios/L4BB.jpg","null","",NA,NA,NA,NA,""
"image-keyboard-response",122,21601281,"0.0-4.36-2.36","0v9s70j9ahfy7a7",543,"164.csv","","null","resources/images/fishbone.png","null","",NA,NA,NA,NA,""
"image-keyboard-response",123,21601481,"0.0-4.37-0.37","0v9s70j9ahfy7a7",543,"164.csv","","199","resources/trios/L4T2A3.jpg","39","restless",0.8,0.4,0.5,0.068697817231078,"true"
"image-keyboard-response",124,21601896,"0.0-4.37-1.37","0v9s70j9ahfy7a7",543,"164.csv","","null","resources/maskTrios/BBA3.jpg","null","",NA,NA,NA,NA,""
"image-keyboard-response",125,21603116,"0.0-4.37-2.37","0v9s70j9ahfy7a7",543,"164.csv","","null","resources/images/coin2.png","null","",NA,NA,NA,NA,""
"image-keyboard-response",126,21603376,"0.0-4.38-0.38","0v9s70j9ahfy7a7",543,"164.csv","","256","resources/trios/L4T2A3.jpg","37","restless",0.8,0.4,0.4,0.139287170730262,"true"
"image-keyboard-response",127,21603782,"0.0-4.38-1.38","0v9s70j9ahfy7a7",543,"164.csv","","null","resources/maskTrios/L4BB.jpg","null","",NA,NA,NA,NA,""
"image-keyboard-response",128,21605127,"0.0-4.38-2.38","0v9s70j9ahfy7a7",543,"164.csv","","null","resources/images/coin2.png","null","",NA,NA,NA,NA,""
"image-keyboard-response",129,21605394,"0.0-4.39-0.39","0v9s70j9ahfy7a7",543,"164.csv","","263","resources/trios/L4T2A3.jpg","37","restless",0.8,0.4,0.4,0.919033939196791,"false"
"image-keyboard-response",130,21605810,"0.0-4.39-1.39","0v9s70j9ahfy7a7",543,"164.csv","","null","resources/maskTrios/L4BB.jpg","null","",NA,NA,NA,NA,""
"image-keyboard-response",131,21607153,"0.0-4.39-2.39","0v9s70j9ahfy7a7",543,"164.csv","","null","resources/images/fishbone.png","null","",NA,NA,NA,NA,""
"image-keyboard-response",132,21607376,"0.0-4.40-0.40","0v9s70j9ahfy7a7",543,"164.csv","","219","resources/trios/L4T2A3.jpg","39","restless",0.8,0.5,0.4,0.147840736338139,"true"
"image-keyboard-response",133,21607784,"0.0-4.40-1.40","0v9s70j9ahfy7a7",543,"164.csv","","null","resources/maskTrios/BBA3.jpg","null","",NA,NA,NA,NA,""
"image-keyboard-response",134,21608991,"0.0-4.40-2.40","0v9s70j9ahfy7a7",543,"164.csv","","null","resources/images/coin2.png","null","",NA,NA,NA,NA,""
"image-keyboard-response",135,21609274,"0.0-4.41-0.41","0v9s70j9ahfy7a7",543,"164.csv","","281","resources/trios/L4T2A3.jpg","37","restless",0.8,0.5,0.4,0.496428498622854,"true"
"image-keyboard-response",136,21609683,"0.0-4.41-1.41","0v9s70j9ahfy7a7",543,"164.csv","","null","resources/maskTrios/L4BB.jpg","null","",NA,NA,NA,NA,""
"image-keyboard-response",137,21610888,"0.0-4.41-2.41","0v9s70j9ahfy7a7",543,"164.csv","","null","resources/images/coin2.png","null","",NA,NA,NA,NA,""
"image-keyboard-response",138,21611249,"0.0-4.42-0.42","0v9s70j9ahfy7a7",543,"164.csv","","356","resources/trios/L4T2A3.jpg","37","restless",0.8,0.5,0.4,0.778035209041966,"true"
"image-keyboard-response",139,21611656,"0.0-4.42-1.42","0v9s70j9ahfy7a7",543,"164.csv","","null","resources/maskTrios/L4BB.jpg","null","",NA,NA,NA,NA,""
"image-keyboard-response",140,21612873,"0.0-4.42-2.42","0v9s70j9ahfy7a7",543,"164.csv","","null","resources/images/coin2.png","null","",NA,NA,NA,NA,""
"image-keyboard-response",141,21613169,"0.0-4.43-0.43","0v9s70j9ahfy7a7",543,"164.csv","","294","resources/trios/L4T2A3.jpg","39","restless",0.8,0.5,0.4,0.85671207969218,"false"
"image-keyboard-response",142,21613581,"0.0-4.43-1.43","0v9s70j9ahfy7a7",543,"164.csv","","null","resources/maskTrios/BBA3.jpg","null","",NA,NA,NA,NA,""
"image-keyboard-response",143,21614786,"0.0-4.43-2.43","0v9s70j9ahfy7a7",543,"164.csv","","null","resources/images/fishbone.png","null","",NA,NA,NA,NA,""
"image-keyboard-response",144,21614958,"0.0-4.44-0.44","0v9s70j9ahfy7a7",543,"164.csv","","167","resources/trios/L4T2A3.jpg","37","restless",0.7,0.5,0.4,0.865453035542979,"false"
"image-keyboard-response",145,21615363,"0.0-4.44-1.44","0v9s70j9ahfy7a7",543,"164.csv","","null","resources/maskTrios/L4BB.jpg","null","",NA,NA,NA,NA,""
"image-keyboard-response",146,21616584,"0.0-4.44-2.44","0v9s70j9ahfy7a7",543,"164.csv","","null","resources/images/fishbone.png","null","",NA,NA,NA,NA,""
"image-keyboard-response",147,21616826,"0.0-4.45-0.45","0v9s70j9ahfy7a7",543,"164.csv","","241","resources/trios/L4T2A3.jpg","39","restless",0.7,0.5,0.4,0.584344223582028,"false"
"image-keyboard-response",148,21617235,"0.0-4.45-1.45","0v9s70j9ahfy7a7",543,"164.csv","","null","resources/maskTrios/BBA3.jpg","null","",NA,NA,NA,NA,""
"image-keyboard-response",149,21618441,"0.0-4.45-2.45","0v9s70j9ahfy7a7",543,"164.csv","","null","resources/images/fishbone.png","null","",NA,NA,NA,NA,""
"image-keyboard-response",150,21618587,"0.0-4.46-0.46","0v9s70j9ahfy7a7",543,"164.csv","","145","resources/trios/L4T2A3.jpg","37","restless",0.7,0.5,0.4,0.0815912241447629,"true"
"image-keyboard-response",151,21619009,"0.0-4.46-1.46","0v9s70j9ahfy7a7",543,"164.csv","","null","resources/maskTrios/L4BB.jpg","null","",NA,NA,NA,NA,""
"image-keyboard-response",152,21620217,"0.0-4.46-2.46","0v9s70j9ahfy7a7",543,"164.csv","","null","resources/images/coin2.png","null","",NA,NA,NA,NA,""
"image-keyboard-response",153,21620401,"0.0-4.47-0.47","0v9s70j9ahfy7a7",543,"164.csv","","182","resources/trios/L4T2A3.jpg","37","restless",0.7,0.6,0.4,0.377379550321494,"true"
"image-keyboard-response",154,21620810,"0.0-4.47-1.47","0v9s70j9ahfy7a7",543,"164.csv","","null","resources/maskTrios/L4BB.jpg","null","",NA,NA,NA,NA,""
"image-keyboard-response",155,21622028,"0.0-4.47-2.47","0v9s70j9ahfy7a7",543,"164.csv","","null","resources/images/coin2.png","null","",NA,NA,NA,NA,""
"image-keyboard-response",156,21622113,"0.0-4.48-0.48","0v9s70j9ahfy7a7",543,"164.csv","","83","resources/trios/L4T2A3.jpg","37","restless",0.7,0.6,0.4,0.639863565365694,"true"
"image-keyboard-response",157,21622527,"0.0-4.48-1.48","0v9s70j9ahfy7a7",543,"164.csv","","null","resources/maskTrios/L4BB.jpg","null","",NA,NA,NA,NA,""
"image-keyboard-response",158,21623733,"0.0-4.48-2.48","0v9s70j9ahfy7a7",543,"164.csv","","null","resources/images/coin2.png","null","",NA,NA,NA,NA,""
"image-keyboard-response",159,21624051,"0.0-4.49-0.49","0v9s70j9ahfy7a7",543,"164.csv","","313","resources/trios/L4T2A3.jpg","37","restless",0.7,0.6,0.4,0.500889156177564,"true"
"image-keyboard-response",160,21624459,"0.0-4.49-1.49","0v9s70j9ahfy7a7",543,"164.csv","","null","resources/maskTrios/L4BB.jpg","null","",NA,NA,NA,NA,""
"image-keyboard-response",161,21625662,"0.0-4.49-2.49","0v9s70j9ahfy7a7",543,"164.csv","","null","resources/images/coin2.png","null","",NA,NA,NA,NA,""
"image-keyboard-response",162,21625963,"0.0-4.50-0.50","0v9s70j9ahfy7a7",543,"164.csv","","301","resources/trios/L4T2A3.jpg","37","restless",0.7,0.6,0.4,0.199876288968486,"true"
"image-keyboard-response",163,21626384,"0.0-4.50-1.50","0v9s70j9ahfy7a7",543,"164.csv","","null","resources/maskTrios/L4BB.jpg","null","",NA,NA,NA,NA,""
"image-keyboard-response",164,21627674,"0.0-4.50-2.50","0v9s70j9ahfy7a7",543,"164.csv","","null","resources/images/coin2.png","null","",NA,NA,NA,NA,""
"image-keyboard-response",165,21627995,"0.0-4.51-0.51","0v9s70j9ahfy7a7",543,"164.csv","","320","resources/trios/L4T2A3.jpg","37","restless",0.8,0.6,0.4,0.402850276726499,"true"
"image-keyboard-response",166,21628412,"0.0-4.51-1.51","0v9s70j9ahfy7a7",543,"164.csv","","null","resources/maskTrios/L4BB.jpg","null","",NA,NA,NA,NA,""
"image-keyboard-response",167,21629713,"0.0-4.51-2.51","0v9s70j9ahfy7a7",543,"164.csv","","null","resources/images/coin2.png","null","",NA,NA,NA,NA,""
"image-keyboard-response",168,21630124,"0.0-4.52-0.52","0v9s70j9ahfy7a7",543,"164.csv","","409","resources/trios/L4T2A3.jpg","37","restless",0.8,0.6,0.5,0.328669868854205,"true"
"image-keyboard-response",169,21630559,"0.0-4.52-1.52","0v9s70j9ahfy7a7",543,"164.csv","","null","resources/maskTrios/L4BB.jpg","null","",NA,NA,NA,NA,""
"image-keyboard-response",170,21631780,"0.0-4.52-2.52","0v9s70j9ahfy7a7",543,"164.csv","","null","resources/images/coin2.png","null","",NA,NA,NA,NA,""
"image-keyboard-response",171,21632028,"0.0-4.53-0.53","0v9s70j9ahfy7a7",543,"164.csv","","246","resources/trios/L4T2A3.jpg","37","restless",0.8,0.6,0.4,0.601906879117806,"true"
"image-keyboard-response",172,21632446,"0.0-4.53-1.53","0v9s70j9ahfy7a7",543,"164.csv","","null","resources/maskTrios/L4BB.jpg","null","",NA,NA,NA,NA,""
"image-keyboard-response",173,21633787,"0.0-4.53-2.53","0v9s70j9ahfy7a7",543,"164.csv","","null","resources/images/coin2.png","null","",NA,NA,NA,NA,""
"image-keyboard-response",174,21634011,"0.0-4.54-0.54","0v9s70j9ahfy7a7",543,"164.csv","","222","resources/trios/L4T2A3.jpg","37","restless",0.8,0.6,0.4,0.530388001473592,"true"
"image-keyboard-response",175,21634430,"0.0-4.54-1.54","0v9s70j9ahfy7a7",543,"164.csv","","null","resources/maskTrios/L4BB.jpg","null","",NA,NA,NA,NA,""
"image-keyboard-response",176,21635641,"0.0-4.54-2.54","0v9s70j9ahfy7a7",543,"164.csv","","null","resources/images/coin2.png","null","",NA,NA,NA,NA,""
"image-keyboard-response",177,21635862,"0.0-4.55-0.55","0v9s70j9ahfy7a7",543,"164.csv","","219","resources/trios/L4T2A3.jpg","37","restless",0.7,0.6,0.4,0.182764359214437,"true"
"image-keyboard-response",178,21636283,"0.0-4.55-1.55","0v9s70j9ahfy7a7",543,"164.csv","","null","resources/maskTrios/L4BB.jpg","null","",NA,NA,NA,NA,""
"image-keyboard-response",179,21637498,"0.0-4.55-2.55","0v9s70j9ahfy7a7",543,"164.csv","","null","resources/images/coin2.png","null","",NA,NA,NA,NA,""
"image-keyboard-response",180,21637727,"0.0-4.56-0.56","0v9s70j9ahfy7a7",543,"164.csv","","227","resources/trios/L4T2A3.jpg","37","restless",0.7,0.6,0.4,0.78921860588562,"false"
"image-keyboard-response",181,21638141,"0.0-4.56-1.56","0v9s70j9ahfy7a7",543,"164.csv","","null","resources/maskTrios/L4BB.jpg","null","",NA,NA,NA,NA,""
"image-keyboard-response",182,21639351,"0.0-4.56-2.56","0v9s70j9ahfy7a7",543,"164.csv","","null","resources/images/fishbone.png","null","",NA,NA,NA,NA,""
"image-keyboard-response",183,21639377,"0.0-4.57-0.57","0v9s70j9ahfy7a7",543,"164.csv","","25","resources/trios/L4T2A3.jpg","39","restless",0.6,0.6,0.4,0.827026815641129,"false"
"image-keyboard-response",184,21639793,"0.0-4.57-1.57","0v9s70j9ahfy7a7",543,"164.csv","","null","resources/maskTrios/BBA3.jpg","null","",NA,NA,NA,NA,""
"image-keyboard-response",185,21641009,"0.0-4.57-2.57","0v9s70j9ahfy7a7",543,"164.csv","","null","resources/images/fishbone.png","null","",NA,NA,NA,NA,""
"image-keyboard-response",186,21641404,"0.0-4.58-0.58","0v9s70j9ahfy7a7",543,"164.csv","","395","resources/trios/L4T2A3.jpg","37","restless",0.6,0.6,0.4,0.885165130334022,"false"
"image-keyboard-response",187,21641815,"0.0-4.58-1.58","0v9s70j9ahfy7a7",543,"164.csv","","null","resources/maskTrios/L4BB.jpg","null","",NA,NA,NA,NA,""
"image-keyboard-response",188,21643032,"0.0-4.58-2.58","0v9s70j9ahfy7a7",543,"164.csv","","null","resources/images/fishbone.png","null","",NA,NA,NA,NA,""
"image-keyboard-response",189,21643188,"0.0-4.59-0.59","0v9s70j9ahfy7a7",543,"164.csv","","154","resources/trios/L4T2A3.jpg","38","restless",0.6,0.6,0.4,0.411607342091892,"true"
"image-keyboard-response",190,21643605,"0.0-4.59-1.59","0v9s70j9ahfy7a7",543,"164.csv","","null","resources/maskTrios/BT2B.jpg","null","",NA,NA,NA,NA,""
"image-keyboard-response",191,21644812,"0.0-4.59-2.59","0v9s70j9ahfy7a7",543,"164.csv","","null","resources/images/coin2.png","null","",NA,NA,NA,NA,""
"image-keyboard-response",192,21644977,"0.0-4.60-0.60","0v9s70j9ahfy7a7",543,"164.csv","","163","resources/trios/L4T2A3.jpg","38","restless",0.6,0.6,0.4,0.952849530805948,"false"
"image-keyboard-response",193,21645390,"0.0-4.60-1.60","0v9s70j9ahfy7a7",543,"164.csv","","null","resources/maskTrios/BT2B.jpg","null","",NA,NA,NA,NA,""
"image-keyboard-response",194,21646599,"0.0-4.60-2.60","0v9s70j9ahfy7a7",543,"164.csv","","null","resources/images/fishbone.png","null","",NA,NA,NA,NA,""
"image-keyboard-response",195,21646812,"0.0-4.61-0.61","0v9s70j9ahfy7a7",543,"164.csv","","212","resources/trios/L4T2A3.jpg","37","restless",0.6,0.6,0.4,0.701181586466589,"false"
"image-keyboard-response",196,21647230,"0.0-4.61-1.61","0v9s70j9ahfy7a7",543,"164.csv","","null","resources/maskTrios/L4BB.jpg","null","",NA,NA,NA,NA,""
"image-keyboard-response",197,21648432,"0.0-4.61-2.61","0v9s70j9ahfy7a7",543,"164.csv","","null","resources/images/fishbone.png","null","",NA,NA,NA,NA,""
"image-keyboard-response",198,21648545,"0.0-4.62-0.62","0v9s70j9ahfy7a7",543,"164.csv","","111","resources/trios/L4T2A3.jpg","39","restless",0.6,0.6,0.4,0.632847753349756,"false"
"image-keyboard-response",199,21648966,"0.0-4.62-1.62","0v9s70j9ahfy7a7",543,"164.csv","","null","resources/maskTrios/BBA3.jpg","null","",NA,NA,NA,NA,""
"image-keyboard-response",200,21650174,"0.0-4.62-2.62","0v9s70j9ahfy7a7",543,"164.csv","","null","resources/images/fishbone.png","null","",NA,NA,NA,NA,""
"image-keyboard-response",201,21650220,"0.0-4.63-0.63","0v9s70j9ahfy7a7",543,"164.csv","","45","resources/trios/L4T2A3.jpg","38","restless",0.6,0.6,0.4,0.624888050157835,"false"
"image-keyboard-response",202,21650627,"0.0-4.63-1.63","0v9s70j9ahfy7a7",543,"164.csv","","null","resources/maskTrios/BT2B.jpg","null","",NA,NA,NA,NA,""
"image-keyboard-response",203,21651844,"0.0-4.63-2.63","0v9s70j9ahfy7a7",543,"164.csv","","null","resources/images/fishbone.png","null","",NA,NA,NA,NA,""
"image-keyboard-response",204,21652258,"0.0-4.64-0.64","0v9s70j9ahfy7a7",543,"164.csv","","412","resources/trios/L4T2A3.jpg","37","restless",0.6,0.6,0.4,0.770701856892512,"false"
"image-keyboard-response",205,21652672,"0.0-4.64-1.64","0v9s70j9ahfy7a7",543,"164.csv","","null","resources/maskTrios/L4BB.jpg","null","",NA,NA,NA,NA,""
"image-keyboard-response",206,21653874,"0.0-4.64-2.64","0v9s70j9ahfy7a7",543,"164.csv","","null","resources/images/fishbone.png","null","",NA,NA,NA,NA,""
"image-keyboard-response",207,21654125,"0.0-4.65-0.65","0v9s70j9ahfy7a7",543,"164.csv","","250","resources/trios/L4T2A3.jpg","39","restless",0.6,0.6,0.4,0.251895101590419,"true"
"image-keyboard-response",208,21654533,"0.0-4.65-1.65","0v9s70j9ahfy7a7",543,"164.csv","","null","resources/maskTrios/BBA3.jpg","null","",NA,NA,NA,NA,""
"image-keyboard-response",209,21655744,"0.0-4.65-2.65","0v9s70j9ahfy7a7",543,"164.csv","","null","resources/images/coin2.png","null","",NA,NA,NA,NA,""
"image-keyboard-response",210,21655901,"0.0-4.66-0.66","0v9s70j9ahfy7a7",543,"164.csv","","155","resources/trios/L4T2A3.jpg","39","restless",0.6,0.6,0.4,0.566697079968901,"false"
"image-keyboard-response",211,21656320,"0.0-4.66-1.66","0v9s70j9ahfy7a7",543,"164.csv","","null","resources/maskTrios/BBA3.jpg","null","",NA,NA,NA,NA,""
"image-keyboard-response",212,21657525,"0.0-4.66-2.66","0v9s70j9ahfy7a7",543,"164.csv","","null","resources/images/fishbone.png","null","",NA,NA,NA,NA,""
"image-keyboard-response",213,21657672,"0.0-4.67-0.67","0v9s70j9ahfy7a7",543,"164.csv","","146","resources/trios/L4T2A3.jpg","37","restless",0.6,0.6,0.4,0.301852721564663,"true"
"image-keyboard-response",214,21658091,"0.0-4.67-1.67","0v9s70j9ahfy7a7",543,"164.csv","","null","resources/maskTrios/L4BB.jpg","null","",NA,NA,NA,NA,""
"image-keyboard-response",215,21659303,"0.0-4.67-2.67","0v9s70j9ahfy7a7",543,"164.csv","","null","resources/images/coin2.png","null","",NA,NA,NA,NA,""
"image-keyboard-response",216,21659414,"0.0-4.68-0.68","0v9s70j9ahfy7a7",543,"164.csv","","107","resources/trios/L4T2A3.jpg","37","restless",0.6,0.6,0.5,0.358814282477891,"true"
"image-keyboard-response",217,21659821,"0.0-4.68-1.68","0v9s70j9ahfy7a7",543,"164.csv","","null","resources/maskTrios/L4BB.jpg","null","",NA,NA,NA,NA,""
"image-keyboard-response",218,21661028,"0.0-4.68-2.68","0v9s70j9ahfy7a7",543,"164.csv","","null","resources/images/coin2.png","null","",NA,NA,NA,NA,""
"image-keyboard-response",219,21661405,"0.0-4.69-0.69","0v9s70j9ahfy7a7",543,"164.csv","","376","resources/trios/L4T2A3.jpg","37","restless",0.6,0.6,0.5,0.701848624711513,"false"
"image-keyboard-response",220,21661812,"0.0-4.69-1.69","0v9s70j9ahfy7a7",543,"164.csv","","null","resources/maskTrios/L4BB.jpg","null","",NA,NA,NA,NA,""
"image-keyboard-response",221,21663027,"0.0-4.69-2.69","0v9s70j9ahfy7a7",543,"164.csv","","null","resources/images/fishbone.png","null","",NA,NA,NA,NA,""
"image-keyboard-response",222,21663142,"0.0-4.70-0.70","0v9s70j9ahfy7a7",543,"164.csv","","113","resources/trios/L4T2A3.jpg","38","restless",0.6,0.6,0.5,0.418170526080972,"true"
"image-keyboard-response",223,21663560,"0.0-4.70-1.70","0v9s70j9ahfy7a7",543,"164.csv","","null","resources/maskTrios/BT2B.jpg","null","",NA,NA,NA,NA,""
"image-keyboard-response",224,21664767,"0.0-4.70-2.70","0v9s70j9ahfy7a7",543,"164.csv","","null","resources/images/coin2.png","null","",NA,NA,NA,NA,""
"image-keyboard-response",225,21665127,"0.0-4.71-0.71","0v9s70j9ahfy7a7",543,"164.csv","","358","resources/trios/L4T2A3.jpg","39","restless",0.6,0.6,0.5,0.760877909085416,"false"
"image-keyboard-response",226,21665546,"0.0-4.71-1.71","0v9s70j9ahfy7a7",543,"164.csv","","null","resources/maskTrios/BBA3.jpg","null","",NA,NA,NA,NA,""
"image-keyboard-response",227,21666773,"0.0-4.71-2.71","0v9s70j9ahfy7a7",543,"164.csv","","null","resources/images/fishbone.png","null","",NA,NA,NA,NA,""
"image-keyboard-response",228,21666862,"0.0-4.72-0.72","0v9s70j9ahfy7a7",543,"164.csv","","88","resources/trios/L4T2A3.jpg","38","restless",0.6,0.6,0.5,0.385084154815898,"true"
"image-keyboard-response",229,21667281,"0.0-4.72-1.72","0v9s70j9ahfy7a7",543,"164.csv","","null","resources/maskTrios/BT2B.jpg","null","",NA,NA,NA,NA,""
"image-keyboard-response",230,21668516,"0.0-4.72-2.72","0v9s70j9ahfy7a7",543,"164.csv","","null","resources/images/coin2.png","null","",NA,NA,NA,NA,""
"image-keyboard-response",231,21668606,"0.0-4.73-0.73","0v9s70j9ahfy7a7",543,"164.csv","","88","resources/trios/L4T2A3.jpg","38","restless",0.6,0.6,0.4,0.84100631343646,"false"
"image-keyboard-response",232,21669018,"0.0-4.73-1.73","0v9s70j9ahfy7a7",543,"164.csv","","null","resources/maskTrios/BT2B.jpg","null","",NA,NA,NA,NA,""
"image-keyboard-response",233,21670233,"0.0-4.73-2.73","0v9s70j9ahfy7a7",543,"164.csv","","null","resources/images/fishbone.png","null","",NA,NA,NA,NA,""
"image-keyboard-response",234,21670350,"0.0-4.74-0.74","0v9s70j9ahfy7a7",543,"164.csv","","117","resources/trios/L4T2A3.jpg","37","restless",0.5,0.6,0.4,0.1123386192583,"true"
"image-keyboard-response",235,21670813,"0.0-4.74-1.74","0v9s70j9ahfy7a7",543,"164.csv","","null","resources/maskTrios/L4BB.jpg","null","",NA,NA,NA,NA,""
"image-keyboard-response",236,21672033,"0.0-4.74-2.74","0v9s70j9ahfy7a7",543,"164.csv","","null","resources/images/coin2.png","null","",NA,NA,NA,NA,""
"image-keyboard-response",237,21672175,"0.0-4.75-0.75","0v9s70j9ahfy7a7",543,"164.csv","","141","resources/trios/L4T2A3.jpg","37","restless",0.5,0.6,0.4,0.789279095211612,"false"
"image-keyboard-response",238,21672587,"0.0-4.75-1.75","0v9s70j9ahfy7a7",543,"164.csv","","null","resources/maskTrios/L4BB.jpg","null","",NA,NA,NA,NA,""
"image-keyboard-response",239,21673800,"0.0-4.75-2.75","0v9s70j9ahfy7a7",543,"164.csv","","null","resources/images/fishbone.png","null","",NA,NA,NA,NA,""
"image-keyboard-response",240,21673985,"0.0-4.76-0.76","0v9s70j9ahfy7a7",543,"164.csv","","186","resources/trios/L4T2A3.jpg","38","restless",0.5,0.6,0.4,0.724956088018157,"false"
"image-keyboard-response",241,21674394,"0.0-4.76-1.76","0v9s70j9ahfy7a7",543,"164.csv","","null","resources/maskTrios/BT2B.jpg","null","",NA,NA,NA,NA,""
"image-keyboard-response",242,21675610,"0.0-4.76-2.76","0v9s70j9ahfy7a7",543,"164.csv","","null","resources/images/fishbone.png","null","",NA,NA,NA,NA,""
"image-keyboard-response",243,21676116,"0.0-4.77-0.77","0v9s70j9ahfy7a7",543,"164.csv","","505","resources/trios/L4T2A3.jpg","39","restless",0.5,0.6,0.4,0.126785130891388,"true"
"image-keyboard-response",244,21676530,"0.0-4.77-1.77","0v9s70j9ahfy7a7",543,"164.csv","","null","resources/maskTrios/BBA3.jpg","null","",NA,NA,NA,NA,""
"image-keyboard-response",245,21677738,"0.0-4.77-2.77","0v9s70j9ahfy7a7",543,"164.csv","","null","resources/images/coin2.png","null","",NA,NA,NA,NA,""
"image-keyboard-response",246,21677957,"0.0-4.78-0.78","0v9s70j9ahfy7a7",543,"164.csv","","215","resources/trios/L4T2A3.jpg","39","restless",0.5,0.6,0.4,0.240968241108697,"true"
"image-keyboard-response",247,21678367,"0.0-4.78-1.78","0v9s70j9ahfy7a7",543,"164.csv","","null","resources/maskTrios/BBA3.jpg","null","",NA,NA,NA,NA,""
"image-keyboard-response",248,21679580,"0.0-4.78-2.78","0v9s70j9ahfy7a7",543,"164.csv","","null","resources/images/coin2.png","null","",NA,NA,NA,NA,""
"image-keyboard-response",249,21679920,"0.0-4.79-0.79","0v9s70j9ahfy7a7",543,"164.csv","","336","resources/trios/L4T2A3.jpg","39","restless",0.5,0.6,0.4,0.393520889877651,"true"
"image-keyboard-response",250,21680325,"0.0-4.79-1.79","0v9s70j9ahfy7a7",543,"164.csv","","null","resources/maskTrios/BBA3.jpg","null","",NA,NA,NA,NA,""
"image-keyboard-response",251,21681535,"0.0-4.79-2.79","0v9s70j9ahfy7a7",543,"164.csv","","null","resources/images/coin2.png","null","",NA,NA,NA,NA,""
"image-keyboard-response",252,21681797,"0.0-4.80-0.80","0v9s70j9ahfy7a7",543,"164.csv","","258","resources/trios/L4T2A3.jpg","39","restless",0.5,0.6,0.4,0.787559146376528,"false"
"image-keyboard-response",253,21682207,"0.0-4.80-1.80","0v9s70j9ahfy7a7",543,"164.csv","","null","resources/maskTrios/BBA3.jpg","null","",NA,NA,NA,NA,""
"image-keyboard-response",254,21683418,"0.0-4.80-2.80","0v9s70j9ahfy7a7",543,"164.csv","","null","resources/images/fishbone.png","null","",NA,NA,NA,NA,""
"image-keyboard-response",255,21683792,"0.0-4.81-0.81","0v9s70j9ahfy7a7",543,"164.csv","","371","resources/trios/L4T2A3.jpg","37","restless",0.5,0.6,0.4,0.106541859295721,"true"
"image-keyboard-response",256,21684201,"0.0-4.81-1.81","0v9s70j9ahfy7a7",543,"164.csv","","null","resources/maskTrios/L4BB.jpg","null","",NA,NA,NA,NA,""
"image-keyboard-response",257,21685412,"0.0-4.81-2.81","0v9s70j9ahfy7a7",543,"164.csv","","null","resources/images/coin2.png","null","",NA,NA,NA,NA,""
"image-keyboard-response",258,21685688,"0.0-4.82-0.82","0v9s70j9ahfy7a7",543,"164.csv","","274","resources/trios/L4T2A3.jpg","37","restless",0.4,0.6,0.4,0.365383117003769,"true"
"image-keyboard-response",259,21686112,"0.0-4.82-1.82","0v9s70j9ahfy7a7",543,"164.csv","","null","resources/maskTrios/L4BB.jpg","null","",NA,NA,NA,NA,""
"image-keyboard-response",260,21687427,"0.0-4.82-2.82","0v9s70j9ahfy7a7",543,"164.csv","","null","resources/images/coin2.png","null","",NA,NA,NA,NA,""
"image-keyboard-response",261,21687556,"0.0-4.83-0.83","0v9s70j9ahfy7a7",543,"164.csv","","126","resources/trios/L4T2A3.jpg","37","restless",0.4,0.6,0.4,0.906439360593653,"false"
"image-keyboard-response",262,21687977,"0.0-4.83-1.83","0v9s70j9ahfy7a7",543,"164.csv","","null","resources/maskTrios/L4BB.jpg","null","",NA,NA,NA,NA,""
"image-keyboard-response",263,21689188,"0.0-4.83-2.83","0v9s70j9ahfy7a7",543,"164.csv","","null","resources/images/fishbone.png","null","",NA,NA,NA,NA,""
"image-keyboard-response",264,21689521,"0.0-4.84-0.84","0v9s70j9ahfy7a7",543,"164.csv","","329","resources/trios/L4T2A3.jpg","39","restless",0.4,0.7,0.4,0.421243909381659,"false"
"image-keyboard-response",265,21689933,"0.0-4.84-1.84","0v9s70j9ahfy7a7",543,"164.csv","","null","resources/maskTrios/BBA3.jpg","null","",NA,NA,NA,NA,""
"image-keyboard-response",266,21691152,"0.0-4.84-2.84","0v9s70j9ahfy7a7",543,"164.csv","","null","resources/images/fishbone.png","null","",NA,NA,NA,NA,""
"image-keyboard-response",267,21691232,"0.0-4.85-0.85","0v9s70j9ahfy7a7",543,"164.csv","","78","resources/trios/L4T2A3.jpg","38","restless",0.4,0.7,0.4,0.186906832848674,"true"
"image-keyboard-response",268,21691652,"0.0-4.85-1.85","0v9s70j9ahfy7a7",543,"164.csv","","null","resources/maskTrios/BT2B.jpg","null","",NA,NA,NA,NA,""
"image-keyboard-response",269,21692857,"0.0-4.85-2.85","0v9s70j9ahfy7a7",543,"164.csv","","null","resources/images/coin2.png","null","",NA,NA,NA,NA,""
"image-keyboard-response",270,21693210,"0.0-4.86-0.86","0v9s70j9ahfy7a7",543,"164.csv","","350","resources/trios/L4T2A3.jpg","38","restless",0.4,0.7,0.4,0.369135286168274,"true"
"image-keyboard-response",271,21693626,"0.0-4.86-1.86","0v9s70j9ahfy7a7",543,"164.csv","","null","resources/maskTrios/BT2B.jpg","null","",NA,NA,NA,NA,""
"image-keyboard-response",272,21694832,"0.0-4.86-2.86","0v9s70j9ahfy7a7",543,"164.csv","","null","resources/images/coin2.png","null","",NA,NA,NA,NA,""
"image-keyboard-response",273,21694991,"0.0-4.87-0.87","0v9s70j9ahfy7a7",543,"164.csv","","160","resources/trios/L4T2A3.jpg","38","restless",0.4,0.7,0.4,0.38356134315852,"true"
"image-keyboard-response",274,21695441,"0.0-4.87-1.87","0v9s70j9ahfy7a7",543,"164.csv","","null","resources/maskTrios/BT2B.jpg","null","",NA,NA,NA,NA,""
"image-keyboard-response",275,21696655,"0.0-4.87-2.87","0v9s70j9ahfy7a7",543,"164.csv","","null","resources/images/coin2.png","null","",NA,NA,NA,NA,""
"image-keyboard-response",276,21696960,"0.0-4.88-0.88","0v9s70j9ahfy7a7",543,"164.csv","","304","resources/trios/L4T2A3.jpg","38","restless",0.3,0.8,0.4,0.780090613198544,"true"
"image-keyboard-response",277,21697364,"0.0-4.88-1.88","0v9s70j9ahfy7a7",543,"164.csv","","null","resources/maskTrios/BT2B.jpg","null","",NA,NA,NA,NA,""
"image-keyboard-response",278,21698672,"0.0-4.88-2.88","0v9s70j9ahfy7a7",543,"164.csv","","null","resources/images/coin2.png","null","",NA,NA,NA,NA,""
"image-keyboard-response",279,21698891,"0.0-4.89-0.89","0v9s70j9ahfy7a7",543,"164.csv","","217","resources/trios/L4T2A3.jpg","38","restless",0.3,0.8,0.3,0.381983540600285,"true"
"image-keyboard-response",280,21699296,"0.0-4.89-1.89","0v9s70j9ahfy7a7",543,"164.csv","","null","resources/maskTrios/BT2B.jpg","null","",NA,NA,NA,NA,""
"image-keyboard-response",281,21700516,"0.0-4.89-2.89","0v9s70j9ahfy7a7",543,"164.csv","","null","resources/images/coin2.png","null","",NA,NA,NA,NA,""
"image-keyboard-response",282,21700768,"0.0-4.90-0.90","0v9s70j9ahfy7a7",543,"164.csv","","251","resources/trios/L4T2A3.jpg","38","restless",0.3,0.8,0.3,0.16905377068296,"true"
"image-keyboard-response",283,21701171,"0.0-4.90-1.90","0v9s70j9ahfy7a7",543,"164.csv","","null","resources/maskTrios/BT2B.jpg","null","",NA,NA,NA,NA,""
"image-keyboard-response",284,21702375,"0.0-4.90-2.90","0v9s70j9ahfy7a7",543,"164.csv","","null","resources/images/coin2.png","null","",NA,NA,NA,NA,""
"image-keyboard-response",285,21702666,"0.0-4.91-0.91","0v9s70j9ahfy7a7",543,"164.csv","","290","resources/trios/L4T2A3.jpg","38","restless",0.3,0.8,0.3,0.298251140371627,"true"
"image-keyboard-response",286,21703082,"0.0-4.91-1.91","0v9s70j9ahfy7a7",543,"164.csv","","null","resources/maskTrios/BT2B.jpg","null","",NA,NA,NA,NA,""
"image-keyboard-response",287,21704286,"0.0-4.91-2.91","0v9s70j9ahfy7a7",543,"164.csv","","null","resources/images/coin2.png","null","",NA,NA,NA,NA,""
"image-keyboard-response",288,21704569,"0.0-4.92-0.92","0v9s70j9ahfy7a7",543,"164.csv","","279","resources/trios/L4T2A3.jpg","38","restless",0.3,0.8,0.3,0.660582981001965,"true"
"image-keyboard-response",289,21704974,"0.0-4.92-1.92","0v9s70j9ahfy7a7",543,"164.csv","","null","resources/maskTrios/BT2B.jpg","null","",NA,NA,NA,NA,""
"image-keyboard-response",290,21706187,"0.0-4.92-2.92","0v9s70j9ahfy7a7",543,"164.csv","","null","resources/images/coin2.png","null","",NA,NA,NA,NA,""
"image-keyboard-response",291,21706448,"0.0-4.93-0.93","0v9s70j9ahfy7a7",543,"164.csv","","260","resources/trios/L4T2A3.jpg","38","restless",0.3,0.7,0.3,0.836750214971841,"false"
"image-keyboard-response",292,21706862,"0.0-4.93-1.93","0v9s70j9ahfy7a7",543,"164.csv","","null","resources/maskTrios/BT2B.jpg","null","",NA,NA,NA,NA,""
"image-keyboard-response",293,21708070,"0.0-4.93-2.93","0v9s70j9ahfy7a7",543,"164.csv","","null","resources/images/fishbone.png","null","",NA,NA,NA,NA,""
"image-keyboard-response",294,21708328,"0.0-4.94-0.94","0v9s70j9ahfy7a7",543,"164.csv","","257","resources/trios/L4T2A3.jpg","37","restless",0.3,0.7,0.3,0.869242832960917,"false"
"image-keyboard-response",295,21708737,"0.0-4.94-1.94","0v9s70j9ahfy7a7",543,"164.csv","","null","resources/maskTrios/L4BB.jpg","null","",NA,NA,NA,NA,""
"image-keyboard-response",296,21709951,"0.0-4.94-2.94","0v9s70j9ahfy7a7",543,"164.csv","","null","resources/images/fishbone.png","null","",NA,NA,NA,NA,""
"image-keyboard-response",297,21710130,"0.0-4.95-0.95","0v9s70j9ahfy7a7",543,"164.csv","","176","resources/trios/L4T2A3.jpg","39","restless",0.3,0.7,0.3,0.465567697861258,"false"
"image-keyboard-response",298,21710540,"0.0-4.95-1.95","0v9s70j9ahfy7a7",543,"164.csv","","null","resources/maskTrios/BBA3.jpg","null","",NA,NA,NA,NA,""
"image-keyboard-response",299,21711754,"0.0-4.95-2.95","0v9s70j9ahfy7a7",543,"164.csv","","null","resources/images/fishbone.png","null","",NA,NA,NA,NA,""
"image-keyboard-response",300,21712038,"0.0-4.96-0.96","0v9s70j9ahfy7a7",543,"164.csv","","278","resources/trios/L4T2A3.jpg","37","restless",0.3,0.7,0.3,0.361026589832238,"false"
"image-keyboard-response",301,21712451,"0.0-4.96-1.96","0v9s70j9ahfy7a7",543,"164.csv","","null","resources/maskTrios/L4BB.jpg","null","",NA,NA,NA,NA,""
"image-keyboard-response",302,21713768,"0.0-4.96-2.96","0v9s70j9ahfy7a7",543,"164.csv","","null","resources/images/fishbone.png","null","",NA,NA,NA,NA,""
"image-keyboard-response",303,21713898,"0.0-4.97-0.97","0v9s70j9ahfy7a7",543,"164.csv","","128","resources/trios/L4T2A3.jpg","38","restless",0.3,0.7,0.3,0.527536105706124,"true"
"image-keyboard-response",304,21714319,"0.0-4.97-1.97","0v9s70j9ahfy7a7",543,"164.csv","","null","resources/maskTrios/BT2B.jpg","null","",NA,NA,NA,NA,""
"image-keyboard-response",305,21715547,"0.0-4.97-2.97","0v9s70j9ahfy7a7",543,"164.csv","","null","resources/images/coin2.png","null","",NA,NA,NA,NA,""
"image-keyboard-response",306,21715777,"0.0-4.98-0.98","0v9s70j9ahfy7a7",543,"164.csv","","230","resources/trios/L4T2A3.jpg","38","restless",0.3,0.7,0.3,0.68241792215021,"true"
"image-keyboard-response",307,21716186,"0.0-4.98-1.98","0v9s70j9ahfy7a7",543,"164.csv","","null","resources/maskTrios/BT2B.jpg","null","",NA,NA,NA,NA,""
"image-keyboard-response",308,21717530,"0.0-4.98-2.98","0v9s70j9ahfy7a7",543,"164.csv","","null","resources/images/coin2.png","null","",NA,NA,NA,NA,""
"image-keyboard-response",309,21717833,"0.0-4.99-0.99","0v9s70j9ahfy7a7",543,"164.csv","","302","resources/trios/L4T2A3.jpg","38","restless",0.3,0.7,0.3,0.458134882612071,"true"
"image-keyboard-response",310,21718254,"0.0-4.99-1.99","0v9s70j9ahfy7a7",543,"164.csv","","null","resources/maskTrios/BT2B.jpg","null","",NA,NA,NA,NA,""
"image-keyboard-response",311,21719466,"0.0-4.99-2.99","0v9s70j9ahfy7a7",543,"164.csv","","null","resources/images/coin2.png","null","",NA,NA,NA,NA,""
"image-keyboard-response",312,21719778,"0.0-4.100-0.100","0v9s70j9ahfy7a7",543,"164.csv","","310","resources/trios/L4T2A3.jpg","38","restless",0.3,0.7,0.3,0.877229439936905,"false"
"image-keyboard-response",313,21720182,"0.0-4.100-1.100","0v9s70j9ahfy7a7",543,"164.csv","","null","resources/maskTrios/BT2B.jpg","null","",NA,NA,NA,NA,""
"image-keyboard-response",314,21721399,"0.0-4.100-2.100","0v9s70j9ahfy7a7",543,"164.csv","","null","resources/images/fishbone.png","null","",NA,NA,NA,NA,""
"image-keyboard-response",315,21721890,"0.0-4.101-0.101","0v9s70j9ahfy7a7",543,"164.csv","","488","resources/trios/L4T2A3.jpg","37","restless",0.4,0.7,0.2,0.342316509785022,"true"
"image-keyboard-response",316,21722307,"0.0-4.101-1.101","0v9s70j9ahfy7a7",543,"164.csv","","null","resources/maskTrios/L4BB.jpg","null","",NA,NA,NA,NA,""
"image-keyboard-response",317,21723523,"0.0-4.101-2.101","0v9s70j9ahfy7a7",543,"164.csv","","null","resources/images/coin2.png","null","",NA,NA,NA,NA,""
"image-keyboard-response",318,21723688,"0.0-4.102-0.102","0v9s70j9ahfy7a7",543,"164.csv","","162","resources/trios/L4T2A3.jpg","37","restless",0.3,0.7,0.2,0.0284092702856366,"true"
"image-keyboard-response",319,21724106,"0.0-4.102-1.102","0v9s70j9ahfy7a7",543,"164.csv","","null","resources/maskTrios/L4BB.jpg","null","",NA,NA,NA,NA,""
"image-keyboard-response",320,21725320,"0.0-4.102-2.102","0v9s70j9ahfy7a7",543,"164.csv","","null","resources/images/coin2.png","null","",NA,NA,NA,NA,""
"image-keyboard-response",321,21725579,"0.0-4.103-0.103","0v9s70j9ahfy7a7",543,"164.csv","","256","resources/trios/L4T2A3.jpg","37","restless",0.3,0.6,0.2,0.758041745439826,"false"
"image-keyboard-response",322,21725996,"0.0-4.103-1.103","0v9s70j9ahfy7a7",543,"164.csv","","null","resources/maskTrios/L4BB.jpg","null","",NA,NA,NA,NA,""
"image-keyboard-response",323,21727269,"0.0-4.103-2.103","0v9s70j9ahfy7a7",543,"164.csv","","null","resources/images/fishbone.png","null","",NA,NA,NA,NA,""
"image-keyboard-response",324,21727525,"0.0-4.104-0.104","0v9s70j9ahfy7a7",543,"164.csv","","253","resources/trios/L4T2A3.jpg","38","restless",0.3,0.6,0.2,0.373795031092532,"true"
"image-keyboard-response",325,21727937,"0.0-4.104-1.104","0v9s70j9ahfy7a7",543,"164.csv","","null","resources/maskTrios/BT2B.jpg","null","",NA,NA,NA,NA,""
"image-keyboard-response",326,21729155,"0.0-4.104-2.104","0v9s70j9ahfy7a7",543,"164.csv","","null","resources/images/coin2.png","null","",NA,NA,NA,NA,""
"image-keyboard-response",327,21729464,"0.0-4.105-0.105","0v9s70j9ahfy7a7",543,"164.csv","","308","resources/trios/L4T2A3.jpg","38","restless",0.3,0.6,0.2,0.515131558315586,"true"
"image-keyboard-response",328,21729880,"0.0-4.105-1.105","0v9s70j9ahfy7a7",543,"164.csv","","null","resources/maskTrios/BT2B.jpg","null","",NA,NA,NA,NA,""
"image-keyboard-response",329,21731094,"0.0-4.105-2.105","0v9s70j9ahfy7a7",543,"164.csv","","null","resources/images/coin2.png","null","",NA,NA,NA,NA,""
"image-keyboard-response",330,21731218,"0.0-4.106-0.106","0v9s70j9ahfy7a7",543,"164.csv","","123","resources/trios/L4T2A3.jpg","38","restless",0.3,0.6,0.2,0.912902222320077,"false"
"image-keyboard-response",331,21731629,"0.0-4.106-1.106","0v9s70j9ahfy7a7",543,"164.csv","","null","resources/maskTrios/BT2B.jpg","null","",NA,NA,NA,NA,""
"image-keyboard-response",332,21732833,"0.0-4.106-2.106","0v9s70j9ahfy7a7",543,"164.csv","","null","resources/images/fishbone.png","null","",NA,NA,NA,NA,""
"image-keyboard-response",333,21733032,"0.0-4.107-0.107","0v9s70j9ahfy7a7",543,"164.csv","","197","resources/trios/L4T2A3.jpg","37","restless",0.3,0.6,0.2,0.175524045632806,"true"
"image-keyboard-response",334,21733439,"0.0-4.107-1.107","0v9s70j9ahfy7a7",543,"164.csv","","null","resources/maskTrios/L4BB.jpg","null","",NA,NA,NA,NA,""
"image-keyboard-response",335,21734656,"0.0-4.107-2.107","0v9s70j9ahfy7a7",543,"164.csv","","null","resources/images/coin2.png","null","",NA,NA,NA,NA,""
"image-keyboard-response",336,21734898,"0.0-4.108-0.108","0v9s70j9ahfy7a7",543,"164.csv","","242","resources/trios/L4T2A3.jpg","37","restless",0.3,0.6,0.2,0.91936589342229,"false"
"image-keyboard-response",337,21735313,"0.0-4.108-1.108","0v9s70j9ahfy7a7",543,"164.csv","","null","resources/maskTrios/L4BB.jpg","null","",NA,NA,NA,NA,""
"image-keyboard-response",338,21736526,"0.0-4.108-2.108","0v9s70j9ahfy7a7",543,"164.csv","","null","resources/images/fishbone.png","null","",NA,NA,NA,NA,""
"image-keyboard-response",339,21736749,"0.0-4.109-0.109","0v9s70j9ahfy7a7",543,"164.csv","","221","resources/trios/L4T2A3.jpg","39","restless",0.3,0.6,0.2,0.109594717757351,"true"
"image-keyboard-response",340,21737164,"0.0-4.109-1.109","0v9s70j9ahfy7a7",543,"164.csv","","null","resources/maskTrios/BBA3.jpg","null","",NA,NA,NA,NA,""
"image-keyboard-response",341,21738375,"0.0-4.109-2.109","0v9s70j9ahfy7a7",543,"164.csv","","null","resources/images/coin2.png","null","",NA,NA,NA,NA,""
"image-keyboard-response",342,21738514,"0.0-4.110-0.110","0v9s70j9ahfy7a7",543,"164.csv","","138","resources/trios/L4T2A3.jpg","39","restless",0.2,0.6,0.2,0.814497110450134,"false"
"image-keyboard-response",343,21738921,"0.0-4.110-1.110","0v9s70j9ahfy7a7",543,"164.csv","","null","resources/maskTrios/BBA3.jpg","null","",NA,NA,NA,NA,""
"image-keyboard-response",344,21740138,"0.0-4.110-2.110","0v9s70j9ahfy7a7",543,"164.csv","","null","resources/images/fishbone.png","null","",NA,NA,NA,NA,""
"image-keyboard-response",345,21740355,"0.0-4.111-0.111","0v9s70j9ahfy7a7",543,"164.csv","","213","resources/trios/L4T2A3.jpg","38","restless",0.2,0.6,0.2,0.170019171464098,"true"
"image-keyboard-response",346,21740766,"0.0-4.111-1.111","0v9s70j9ahfy7a7",543,"164.csv","","null","resources/maskTrios/BT2B.jpg","null","",NA,NA,NA,NA,""
"image-keyboard-response",347,21741972,"0.0-4.111-2.111","0v9s70j9ahfy7a7",543,"164.csv","","null","resources/images/coin2.png","null","",NA,NA,NA,NA,""
"image-keyboard-response",348,21742019,"0.0-4.112-0.112","0v9s70j9ahfy7a7",543,"164.csv","","46","resources/trios/L4T2A3.jpg","38","restless",0.3,0.6,0.2,0.205242075510602,"true"
"image-keyboard-response",349,21742427,"0.0-4.112-1.112","0v9s70j9ahfy7a7",543,"164.csv","","null","resources/maskTrios/BT2B.jpg","null","",NA,NA,NA,NA,""
"image-keyboard-response",350,21743640,"0.0-4.112-2.112","0v9s70j9ahfy7a7",543,"164.csv","","null","resources/images/coin2.png","null","",NA,NA,NA,NA,""
"image-keyboard-response",351,21743716,"0.0-4.113-0.113","0v9s70j9ahfy7a7",543,"164.csv","","74","resources/trios/L4T2A3.jpg","38","restless",0.3,0.6,0.1,0.289241135627598,"true"
"image-keyboard-response",352,21744128,"0.0-4.113-1.113","0v9s70j9ahfy7a7",543,"164.csv","","null","resources/maskTrios/BT2B.jpg","null","",NA,NA,NA,NA,""
"image-keyboard-response",353,21745340,"0.0-4.113-2.113","0v9s70j9ahfy7a7",543,"164.csv","","null","resources/images/coin2.png","null","",NA,NA,NA,NA,""
"image-keyboard-response",354,21745427,"0.0-4.114-0.114","0v9s70j9ahfy7a7",543,"164.csv","","85","resources/trios/L4T2A3.jpg","38","restless",0.3,0.6,0.1,0.349611309298579,"true"
"image-keyboard-response",355,21745839,"0.0-4.114-1.114","0v9s70j9ahfy7a7",543,"164.csv","","null","resources/maskTrios/BT2B.jpg","null","",NA,NA,NA,NA,""
"image-keyboard-response",356,21747049,"0.0-4.114-2.114","0v9s70j9ahfy7a7",543,"164.csv","","null","resources/images/coin2.png","null","",NA,NA,NA,NA,""
"image-keyboard-response",357,21747284,"0.0-4.115-0.115","0v9s70j9ahfy7a7",543,"164.csv","","234","resources/trios/L4T2A3.jpg","38","restless",0.4,0.6,0.1,0.23647469297755,"true"
"image-keyboard-response",358,21747687,"0.0-4.115-1.115","0v9s70j9ahfy7a7",543,"164.csv","","null","resources/maskTrios/BT2B.jpg","null","",NA,NA,NA,NA,""
"image-keyboard-response",359,21748904,"0.0-4.115-2.115","0v9s70j9ahfy7a7",543,"164.csv","","null","resources/images/coin2.png","null","",NA,NA,NA,NA,""
"image-keyboard-response",360,21749155,"0.0-4.116-0.116","0v9s70j9ahfy7a7",543,"164.csv","","250","resources/trios/L4T2A3.jpg","38","restless",0.4,0.6,0.1,0.140935501201142,"true"
"image-keyboard-response",361,21749560,"0.0-4.116-1.116","0v9s70j9ahfy7a7",543,"164.csv","","null","resources/maskTrios/BT2B.jpg","null","",NA,NA,NA,NA,""
"image-keyboard-response",362,21750770,"0.0-4.116-2.116","0v9s70j9ahfy7a7",543,"164.csv","","null","resources/images/coin2.png","null","",NA,NA,NA,NA,""
"image-keyboard-response",363,21751034,"0.0-4.117-0.117","0v9s70j9ahfy7a7",543,"164.csv","","261","resources/trios/L4T2A3.jpg","38","restless",0.4,0.6,0.1,0.404708715682462,"true"
"image-keyboard-response",364,21751442,"0.0-4.117-1.117","0v9s70j9ahfy7a7",543,"164.csv","","null","resources/maskTrios/BT2B.jpg","null","",NA,NA,NA,NA,""
"image-keyboard-response",365,21752660,"0.0-4.117-2.117","0v9s70j9ahfy7a7",543,"164.csv","","null","resources/images/coin2.png","null","",NA,NA,NA,NA,""
"image-keyboard-response",366,21752859,"0.0-4.118-0.118","0v9s70j9ahfy7a7",543,"164.csv","","195","resources/trios/L4T2A3.jpg","38","restless",0.4,0.6,0.2,0.658262743665211,"false"
"image-keyboard-response",367,21753271,"0.0-4.118-1.118","0v9s70j9ahfy7a7",543,"164.csv","","null","resources/maskTrios/BT2B.jpg","null","",NA,NA,NA,NA,""
"image-keyboard-response",368,21754488,"0.0-4.118-2.118","0v9s70j9ahfy7a7",543,"164.csv","","null","resources/images/fishbone.png","null","",NA,NA,NA,NA,""
"image-keyboard-response",369,21754739,"0.0-4.119-0.119","0v9s70j9ahfy7a7",543,"164.csv","","251","resources/trios/L4T2A3.jpg","37","restless",0.4,0.6,0.2,0.453236807941446,"false"
"image-keyboard-response",370,21755152,"0.0-4.119-1.119","0v9s70j9ahfy7a7",543,"164.csv","","null","resources/maskTrios/L4BB.jpg","null","",NA,NA,NA,NA,""
"image-keyboard-response",371,21756503,"0.0-4.119-2.119","0v9s70j9ahfy7a7",543,"164.csv","","null","resources/images/fishbone.png","null","",NA,NA,NA,NA,""
"image-keyboard-response",372,21756773,"0.0-4.120-0.120","0v9s70j9ahfy7a7",543,"164.csv","","268","resources/trios/L4T2A3.jpg","39","restless",0.4,0.6,0.2,0.837682571874544,"false"
"image-keyboard-response",373,21757192,"0.0-4.120-1.120","0v9s70j9ahfy7a7",543,"164.csv","","null","resources/maskTrios/BBA3.jpg","null","",NA,NA,NA,NA,""
"image-keyboard-response",374,21758530,"0.0-4.120-2.120","0v9s70j9ahfy7a7",543,"164.csv","","null","resources/images/fishbone.png","null","",NA,NA,NA,NA,""
"image-keyboard-response",375,21758744,"0.0-4.121-0.121","0v9s70j9ahfy7a7",543,"164.csv","","203","resources/trios/L4T2A3.jpg","38","restless",0.4,0.6,0.2,0.65016036210497,"false"
"image-keyboard-response",376,21759156,"0.0-4.121-1.121","0v9s70j9ahfy7a7",543,"164.csv","","null","resources/maskTrios/BT2B.jpg","null","",NA,NA,NA,NA,""
"image-keyboard-response",377,21760381,"0.0-4.121-2.121","0v9s70j9ahfy7a7",543,"164.csv","","null","resources/images/fishbone.png","null","",NA,NA,NA,NA,""
"image-keyboard-response",378,21760627,"0.0-4.122-0.122","0v9s70j9ahfy7a7",543,"164.csv","","244","resources/trios/L4T2A3.jpg","37","restless",0.4,0.6,0.2,0.212059405173983,"true"
"image-keyboard-response",379,21761047,"0.0-4.122-1.122","0v9s70j9ahfy7a7",543,"164.csv","","null","resources/maskTrios/L4BB.jpg","null","",NA,NA,NA,NA,""
"image-keyboard-response",380,21762250,"0.0-4.122-2.122","0v9s70j9ahfy7a7",543,"164.csv","","null","resources/images/coin2.png","null","",NA,NA,NA,NA,""
"image-keyboard-response",381,21762520,"0.0-4.123-0.123","0v9s70j9ahfy7a7",543,"164.csv","","269","resources/trios/L4T2A3.jpg","37","restless",0.4,0.6,0.3,0.426180141230271,"false"
"image-keyboard-response",382,21762924,"0.0-4.123-1.123","0v9s70j9ahfy7a7",543,"164.csv","","null","resources/maskTrios/L4BB.jpg","null","",NA,NA,NA,NA,""
"image-keyboard-response",383,21764141,"0.0-4.123-2.123","0v9s70j9ahfy7a7",543,"164.csv","","null","resources/images/fishbone.png","null","",NA,NA,NA,NA,""
"image-keyboard-response",384,21764422,"0.0-4.124-0.124","0v9s70j9ahfy7a7",543,"164.csv","","280","resources/trios/L4T2A3.jpg","39","restless",0.4,0.6,0.3,0.244758987240109,"true"
"image-keyboard-response",385,21764838,"0.0-4.124-1.124","0v9s70j9ahfy7a7",543,"164.csv","","null","resources/maskTrios/BBA3.jpg","null","",NA,NA,NA,NA,""
"image-keyboard-response",386,21766050,"0.0-4.124-2.124","0v9s70j9ahfy7a7",543,"164.csv","","null","resources/images/coin2.png","null","",NA,NA,NA,NA,""
"image-keyboard-response",387,21766325,"0.0-4.125-0.125","0v9s70j9ahfy7a7",543,"164.csv","","273","resources/trios/L4T2A3.jpg","39","restless",0.3,0.6,0.3,0.398966879427551,"false"
"image-keyboard-response",388,21766738,"0.0-4.125-1.125","0v9s70j9ahfy7a7",543,"164.csv","","null","resources/maskTrios/BBA3.jpg","null","",NA,NA,NA,NA,""
"image-keyboard-response",389,21767955,"0.0-4.125-2.125","0v9s70j9ahfy7a7",543,"164.csv","","null","resources/images/fishbone.png","null","",NA,NA,NA,NA,""
"image-keyboard-response",390,21768197,"0.0-4.126-0.126","0v9s70j9ahfy7a7",543,"164.csv","","240","resources/trios/L4T2A3.jpg","38","restless",0.3,0.6,0.3,0.0270588993416039,"true"
"image-keyboard-response",391,21768602,"0.0-4.126-1.126","0v9s70j9ahfy7a7",543,"164.csv","","null","resources/maskTrios/BT2B.jpg","null","",NA,NA,NA,NA,""
"image-keyboard-response",392,21769813,"0.0-4.126-2.126","0v9s70j9ahfy7a7",543,"164.csv","","null","resources/images/coin2.png","null","",NA,NA,NA,NA,""
"image-keyboard-response",393,21770046,"0.0-4.127-0.127","0v9s70j9ahfy7a7",543,"164.csv","","232","resources/trios/L4T2A3.jpg","38","restless",0.3,0.6,0.3,0.543785795796951,"true"
"image-keyboard-response",394,21770454,"0.0-4.127-1.127","0v9s70j9ahfy7a7",543,"164.csv","","null","resources/maskTrios/BT2B.jpg","null","",NA,NA,NA,NA,""
"image-keyboard-response",395,21771670,"0.0-4.127-2.127","0v9s70j9ahfy7a7",543,"164.csv","","null","resources/images/coin2.png","null","",NA,NA,NA,NA,""
"image-keyboard-response",396,21771901,"0.0-4.128-0.128","0v9s70j9ahfy7a7",543,"164.csv","","230","resources/trios/L4T2A3.jpg","38","restless",0.3,0.6,0.3,0.540076337168171,"true"
"image-keyboard-response",397,21772316,"0.0-4.128-1.128","0v9s70j9ahfy7a7",543,"164.csv","","null","resources/maskTrios/BT2B.jpg","null","",NA,NA,NA,NA,""
"image-keyboard-response",398,21773520,"0.0-4.128-2.128","0v9s70j9ahfy7a7",543,"164.csv","","null","resources/images/coin2.png","null","",NA,NA,NA,NA,""
"image-keyboard-response",399,21773611,"0.0-4.129-0.129","0v9s70j9ahfy7a7",543,"164.csv","","87","resources/trios/L4T2A3.jpg","38","restless",0.3,0.6,0.3,0.475514624053419,"true"
"image-keyboard-response",400,21774022,"0.0-4.129-1.129","0v9s70j9ahfy7a7",543,"164.csv","","null","resources/maskTrios/BT2B.jpg","null","",NA,NA,NA,NA,""
"image-keyboard-response",401,21775237,"0.0-4.129-2.129","0v9s70j9ahfy7a7",543,"164.csv","","null","resources/images/coin2.png","null","",NA,NA,NA,NA,""
"image-keyboard-response",402,21775365,"0.0-4.130-0.130","0v9s70j9ahfy7a7",543,"164.csv","","129","resources/trios/L4T2A3.jpg","38","restless",0.3,0.6,0.3,0.640632348862339,"false"
"image-keyboard-response",403,21775781,"0.0-4.130-1.130","0v9s70j9ahfy7a7",543,"164.csv","","null","resources/maskTrios/BT2B.jpg","null","",NA,NA,NA,NA,""
"image-keyboard-response",404,21776982,"0.0-4.130-2.130","0v9s70j9ahfy7a7",543,"164.csv","","null","resources/images/fishbone.png","null","",NA,NA,NA,NA,""
"image-keyboard-response",405,21777166,"0.0-4.131-0.131","0v9s70j9ahfy7a7",543,"164.csv","","182","resources/trios/L4T2A3.jpg","37","restless",0.3,0.6,0.3,0.778479283383825,"false"
"image-keyboard-response",406,21777579,"0.0-4.131-1.131","0v9s70j9ahfy7a7",543,"164.csv","","null","resources/maskTrios/L4BB.jpg","null","",NA,NA,NA,NA,""
"image-keyboard-response",407,21778785,"0.0-4.131-2.131","0v9s70j9ahfy7a7",543,"164.csv","","null","resources/images/fishbone.png","null","",NA,NA,NA,NA,""
"image-keyboard-response",408,21779045,"0.0-4.132-0.132","0v9s70j9ahfy7a7",543,"164.csv","","255","resources/trios/L4T2A3.jpg","39","restless",0.3,0.6,0.3,0.306321715215633,"false"
"image-keyboard-response",409,21779462,"0.0-4.132-1.132","0v9s70j9ahfy7a7",543,"164.csv","","null","resources/maskTrios/BBA3.jpg","null","",NA,NA,NA,NA,""
"image-keyboard-response",410,21780677,"0.0-4.132-2.132","0v9s70j9ahfy7a7",543,"164.csv","","null","resources/images/fishbone.png","null","",NA,NA,NA,NA,""
"image-keyboard-response",411,21780824,"0.0-4.133-0.133","0v9s70j9ahfy7a7",543,"164.csv","","145","resources/trios/L4T2A3.jpg","38","restless",0.3,0.6,0.3,0.455199452882473,"true"
"image-keyboard-response",412,21781228,"0.0-4.133-1.133","0v9s70j9ahfy7a7",543,"164.csv","","null","resources/maskTrios/BT2B.jpg","null","",NA,NA,NA,NA,""
"image-keyboard-response",413,21782552,"0.0-4.133-2.133","0v9s70j9ahfy7a7",543,"164.csv","","null","resources/images/coin2.png","null","",NA,NA,NA,NA,""
"image-keyboard-response",414,21782764,"0.0-4.134-0.134","0v9s70j9ahfy7a7",543,"164.csv","","207","resources/trios/L4T2A3.jpg","38","restless",0.3,0.6,0.3,0.3507827218982,"true"
"image-keyboard-response",415,21783178,"0.0-4.134-1.134","0v9s70j9ahfy7a7",543,"164.csv","","null","resources/maskTrios/BT2B.jpg","null","",NA,NA,NA,NA,""
"image-keyboard-response",416,21784391,"0.0-4.134-2.134","0v9s70j9ahfy7a7",543,"164.csv","","null","resources/images/coin2.png","null","",NA,NA,NA,NA,""
"image-keyboard-response",417,21784646,"0.0-4.135-0.135","0v9s70j9ahfy7a7",543,"164.csv","","254","resources/trios/L4T2A3.jpg","38","restless",0.4,0.7,0.3,0.876561387117219,"false"
"image-keyboard-response",418,21785061,"0.0-4.135-1.135","0v9s70j9ahfy7a7",543,"164.csv","","null","resources/maskTrios/BT2B.jpg","null","",NA,NA,NA,NA,""
"image-keyboard-response",419,21786409,"0.0-4.135-2.135","0v9s70j9ahfy7a7",543,"164.csv","","null","resources/images/fishbone.png","null","",NA,NA,NA,NA,""
"image-keyboard-response",420,21786582,"0.0-4.136-0.136","0v9s70j9ahfy7a7",543,"164.csv","","172","resources/trios/L4T2A3.jpg","37","restless",0.5,0.7,0.3,0.420813960254857,"true"
"image-keyboard-response",421,21787000,"0.0-4.136-1.136","0v9s70j9ahfy7a7",543,"164.csv","","null","resources/maskTrios/L4BB.jpg","null","",NA,NA,NA,NA,""
"image-keyboard-response",422,21788218,"0.0-4.136-2.136","0v9s70j9ahfy7a7",543,"164.csv","","null","resources/images/coin2.png","null","",NA,NA,NA,NA,""
"image-keyboard-response",423,21788454,"0.0-4.137-0.137","0v9s70j9ahfy7a7",543,"164.csv","","235","resources/trios/L4T2A3.jpg","37","restless",0.5,0.7,0.3,0.483909244972318,"true"
"image-keyboard-response",424,21788856,"0.0-4.137-1.137","0v9s70j9ahfy7a7",543,"164.csv","","null","resources/maskTrios/L4BB.jpg","null","",NA,NA,NA,NA,""
"image-keyboard-response",425,21790063,"0.0-4.137-2.137","0v9s70j9ahfy7a7",543,"164.csv","","null","resources/images/coin2.png","null","",NA,NA,NA,NA,""
"image-keyboard-response",426,21790349,"0.0-4.138-0.138","0v9s70j9ahfy7a7",543,"164.csv","","281","resources/trios/L4T2A3.jpg","37","restless",0.5,0.7,0.3,0.40784073240257,"true"
"image-keyboard-response",427,21790756,"0.0-4.138-1.138","0v9s70j9ahfy7a7",543,"164.csv","","null","resources/maskTrios/L4BB.jpg","null","",NA,NA,NA,NA,""
"image-keyboard-response",428,21791965,"0.0-4.138-2.138","0v9s70j9ahfy7a7",543,"164.csv","","null","resources/images/coin2.png","null","",NA,NA,NA,NA,""
"image-keyboard-response",429,21792218,"0.0-4.139-0.139","0v9s70j9ahfy7a7",543,"164.csv","","249","resources/trios/L4T2A3.jpg","37","restless",0.5,0.7,0.3,0.270771685698068,"true"
"image-keyboard-response",430,21792620,"0.0-4.139-1.139","0v9s70j9ahfy7a7",543,"164.csv","","null","resources/maskTrios/L4BB.jpg","null","",NA,NA,NA,NA,""
"image-keyboard-response",431,21793839,"0.0-4.139-2.139","0v9s70j9ahfy7a7",543,"164.csv","","null","resources/images/coin2.png","null","",NA,NA,NA,NA,""
"image-keyboard-response",432,21794078,"0.0-4.140-0.140","0v9s70j9ahfy7a7",543,"164.csv","","234","resources/trios/L4T2A3.jpg","37","restless",0.5,0.7,0.3,0.688057416202401,"false"
"image-keyboard-response",433,21794489,"0.0-4.140-1.140","0v9s70j9ahfy7a7",543,"164.csv","","null","resources/maskTrios/L4BB.jpg","null","",NA,NA,NA,NA,""
"image-keyboard-response",434,21795696,"0.0-4.140-2.140","0v9s70j9ahfy7a7",543,"164.csv","","null","resources/images/fishbone.png","null","",NA,NA,NA,NA,""
"image-keyboard-response",435,21795751,"0.0-4.141-0.141","0v9s70j9ahfy7a7",543,"164.csv","","53","resources/trios/L4T2A3.jpg","39","restless",0.5,0.7,0.3,0.567568708683438,"false"
"image-keyboard-response",436,21796168,"0.0-4.141-1.141","0v9s70j9ahfy7a7",543,"164.csv","","null","resources/maskTrios/BBA3.jpg","null","",NA,NA,NA,NA,""
"image-keyboard-response",437,21797373,"0.0-4.141-2.141","0v9s70j9ahfy7a7",543,"164.csv","","null","resources/images/fishbone.png","null","",NA,NA,NA,NA,""
"image-keyboard-response",438,21797596,"0.0-4.142-0.142","0v9s70j9ahfy7a7",543,"164.csv","","222","resources/trios/L4T2A3.jpg","38","restless",0.5,0.7,0.3,0.336148965556992,"true"
"image-keyboard-response",439,21798010,"0.0-4.142-1.142","0v9s70j9ahfy7a7",543,"164.csv","","null","resources/maskTrios/BT2B.jpg","null","",NA,NA,NA,NA,""
"image-keyboard-response",440,21799221,"0.0-4.142-2.142","0v9s70j9ahfy7a7",543,"164.csv","","null","resources/images/coin2.png","null","",NA,NA,NA,NA,""
"image-keyboard-response",441,21799318,"0.0-4.143-0.143","0v9s70j9ahfy7a7",543,"164.csv","","93","resources/trios/L4T2A3.jpg","38","restless",0.5,0.7,0.3,0.862092249835521,"false"
"image-keyboard-response",442,21799721,"0.0-4.143-1.143","0v9s70j9ahfy7a7",543,"164.csv","","null","resources/maskTrios/BT2B.jpg","null","",NA,NA,NA,NA,""
"image-keyboard-response",443,21800939,"0.0-4.143-2.143","0v9s70j9ahfy7a7",543,"164.csv","","null","resources/images/fishbone.png","null","",NA,NA,NA,NA,""
"image-keyboard-response",444,21801111,"0.0-4.144-0.144","0v9s70j9ahfy7a7",543,"164.csv","","171","resources/trios/L4T2A3.jpg","37","restless",0.5,0.7,0.3,0.761558926062506,"false"
"image-keyboard-response",445,21801519,"0.0-4.144-1.144","0v9s70j9ahfy7a7",543,"164.csv","","null","resources/maskTrios/L4BB.jpg","null","",NA,NA,NA,NA,""
"image-keyboard-response",446,21802733,"0.0-4.144-2.144","0v9s70j9ahfy7a7",543,"164.csv","","null","resources/images/fishbone.png","null","",NA,NA,NA,NA,""
"image-keyboard-response",447,21802958,"0.0-4.145-0.145","0v9s70j9ahfy7a7",543,"164.csv","","223","resources/trios/L4T2A3.jpg","39","restless",0.5,0.7,0.3,0.0553781119980573,"true"
"image-keyboard-response",448,21803361,"0.0-4.145-1.145","0v9s70j9ahfy7a7",543,"164.csv","","null","resources/maskTrios/BBA3.jpg","null","",NA,NA,NA,NA,""
"image-keyboard-response",449,21804562,"0.0-4.145-2.145","0v9s70j9ahfy7a7",543,"164.csv","","null","resources/images/coin2.png","null","",NA,NA,NA,NA,""
"image-keyboard-response",450,21804827,"0.0-4.146-0.146","0v9s70j9ahfy7a7",543,"164.csv","","264","resources/trios/L4T2A3.jpg","39","restless",0.5,0.7,0.3,0.797853632220583,"false"
"image-keyboard-response",451,21805237,"0.0-4.146-1.146","0v9s70j9ahfy7a7",543,"164.csv","","null","resources/maskTrios/BBA3.jpg","null","",NA,NA,NA,NA,""
"image-keyboard-response",452,21806440,"0.0-4.146-2.146","0v9s70j9ahfy7a7",543,"164.csv","","null","resources/images/fishbone.png","null","",NA,NA,NA,NA,""
"image-keyboard-response",453,21806577,"0.0-4.147-0.147","0v9s70j9ahfy7a7",543,"164.csv","","136","resources/trios/L4T2A3.jpg","38","restless",0.5,0.7,0.4,0.200565046706354,"true"
"image-keyboard-response",454,21806986,"0.0-4.147-1.147","0v9s70j9ahfy7a7",543,"164.csv","","null","resources/maskTrios/BT2B.jpg","null","",NA,NA,NA,NA,""
"image-keyboard-response",455,21808204,"0.0-4.147-2.147","0v9s70j9ahfy7a7",543,"164.csv","","null","resources/images/coin2.png","null","",NA,NA,NA,NA,""
"image-keyboard-response",456,21808409,"0.0-4.148-0.148","0v9s70j9ahfy7a7",543,"164.csv","","202","resources/trios/L4T2A3.jpg","38","restless",0.5,0.7,0.4,0.557421829225076,"true"
"image-keyboard-response",457,21808812,"0.0-4.148-1.148","0v9s70j9ahfy7a7",543,"164.csv","","null","resources/maskTrios/BT2B.jpg","null","",NA,NA,NA,NA,""
"image-keyboard-response",458,21810021,"0.0-4.148-2.148","0v9s70j9ahfy7a7",543,"164.csv","","null","resources/images/coin2.png","null","",NA,NA,NA,NA,""
"image-keyboard-response",459,21810033,"0.0-4.149-0.149","0v9s70j9ahfy7a7",543,"164.csv","","5","resources/trios/L4T2A3.jpg","38","restless",0.6,0.7,0.4,0.742886624032381,"false"
"image-keyboard-response",460,21810443,"0.0-4.149-1.149","0v9s70j9ahfy7a7",543,"164.csv","","null","resources/maskTrios/BT2B.jpg","null","",NA,NA,NA,NA,""
"image-keyboard-response",461,21811657,"0.0-4.149-2.149","0v9s70j9ahfy7a7",543,"164.csv","","null","resources/images/fishbone.png","null","",NA,NA,NA,NA,""
"image-keyboard-response",462,21811784,"0.0-4.150-0.150","0v9s70j9ahfy7a7",543,"164.csv","","125","resources/trios/L4T2A3.jpg","37","restless",0.6,0.7,0.4,0.424581588047814,"true"
"image-keyboard-response",463,21812187,"0.0-4.150-1.150","0v9s70j9ahfy7a7",543,"164.csv","","null","resources/maskTrios/L4BB.jpg","null","",NA,NA,NA,NA,""
"image-keyboard-response",464,21813401,"0.0-4.150-2.150","0v9s70j9ahfy7a7",543,"164.csv","","null","resources/images/coin2.png","null","",NA,NA,NA,NA,""
"image-keyboard-response",465,21813677,"0.0-4.151-0.151","0v9s70j9ahfy7a7",543,"164.csv","","275","resources/trios/L4T2A3.jpg","37","restless",0.6,0.6,0.4,0.67795753511637,"false"
"image-keyboard-response",466,21814092,"0.0-4.151-1.151","0v9s70j9ahfy7a7",543,"164.csv","","null","resources/maskTrios/L4BB.jpg","null","",NA,NA,NA,NA,""
"image-keyboard-response",467,21815408,"0.0-4.151-2.151","0v9s70j9ahfy7a7",543,"164.csv","","null","resources/images/fishbone.png","null","",NA,NA,NA,NA,""
"image-keyboard-response",468,21815897,"0.0-4.152-0.152","0v9s70j9ahfy7a7",543,"164.csv","","488","resources/trios/L4T2A3.jpg","39","restless",0.6,0.6,0.4,0.703592991496816,"false"
"image-keyboard-response",469,21816313,"0.0-4.152-1.152","0v9s70j9ahfy7a7",543,"164.csv","","null","resources/maskTrios/BBA3.jpg","null","",NA,NA,NA,NA,""
"image-keyboard-response",470,21817525,"0.0-4.152-2.152","0v9s70j9ahfy7a7",543,"164.csv","","null","resources/images/fishbone.png","null","",NA,NA,NA,NA,""
"image-keyboard-response",471,21817768,"0.0-4.153-0.153","0v9s70j9ahfy7a7",543,"164.csv","","241","resources/trios/L4T2A3.jpg","38","restless",0.6,0.6,0.4,0.187407956477523,"true"
"image-keyboard-response",472,21818181,"0.0-4.153-1.153","0v9s70j9ahfy7a7",543,"164.csv","","null","resources/maskTrios/BT2B.jpg","null","",NA,NA,NA,NA,""
"image-keyboard-response",473,21819540,"0.0-4.153-2.153","0v9s70j9ahfy7a7",543,"164.csv","","null","resources/images/coin2.png","null","",NA,NA,NA,NA,""
"image-keyboard-response",474,21819791,"0.0-4.154-0.154","0v9s70j9ahfy7a7",543,"164.csv","","246","resources/trios/L4T2A3.jpg","38","restless",0.6,0.6,0.4,0.181669412481683,"true"
"image-keyboard-response",475,21820199,"0.0-4.154-1.154","0v9s70j9ahfy7a7",543,"164.csv","","null","resources/maskTrios/BT2B.jpg","null","",NA,NA,NA,NA,""
"image-keyboard-response",476,21821420,"0.0-4.154-2.154","0v9s70j9ahfy7a7",543,"164.csv","","null","resources/images/coin2.png","null","",NA,NA,NA,NA,""
"image-keyboard-response",477,21821696,"0.0-4.155-0.155","0v9s70j9ahfy7a7",543,"164.csv","","273","resources/trios/L4T2A3.jpg","38","restless",0.6,0.6,0.4,0.573062883539899,"true"
"image-keyboard-response",478,21822105,"0.0-4.155-1.155","0v9s70j9ahfy7a7",543,"164.csv","","null","resources/maskTrios/BT2B.jpg","null","",NA,NA,NA,NA,""
"image-keyboard-response",479,21823446,"0.0-4.155-2.155","0v9s70j9ahfy7a7",543,"164.csv","","null","resources/images/coin2.png","null","",NA,NA,NA,NA,""
"image-keyboard-response",480,21823689,"0.0-4.156-0.156","0v9s70j9ahfy7a7",543,"164.csv","","240","resources/trios/L4T2A3.jpg","38","restless",0.7,0.6,0.4,0.234390415830487,"true"
"image-keyboard-response",481,21824099,"0.0-4.156-1.156","0v9s70j9ahfy7a7",543,"164.csv","","null","resources/maskTrios/BT2B.jpg","null","",NA,NA,NA,NA,""
"image-keyboard-response",482,21825308,"0.0-4.156-2.156","0v9s70j9ahfy7a7",543,"164.csv","","null","resources/images/coin2.png","null","",NA,NA,NA,NA,""
"image-keyboard-response",483,21825512,"0.0-4.157-0.157","0v9s70j9ahfy7a7",543,"164.csv","","205","resources/trios/L4T2A3.jpg","38","restless",0.7,0.6,0.4,0.485357212086995,"true"
"image-keyboard-response",484,21825919,"0.0-4.157-1.157","0v9s70j9ahfy7a7",543,"164.csv","","null","resources/maskTrios/BT2B.jpg","null","",NA,NA,NA,NA,""
"image-keyboard-response",485,21827129,"0.0-4.157-2.157","0v9s70j9ahfy7a7",543,"164.csv","","null","resources/images/coin2.png","null","",NA,NA,NA,NA,""
"image-keyboard-response",486,21827386,"0.0-4.158-0.158","0v9s70j9ahfy7a7",543,"164.csv","","256","resources/trios/L4T2A3.jpg","38","restless",0.7,0.5,0.4,0.975501894523612,"false"
"image-keyboard-response",487,21827803,"0.0-4.158-1.158","0v9s70j9ahfy7a7",543,"164.csv","","null","resources/maskTrios/BT2B.jpg","null","",NA,NA,NA,NA,""
"image-keyboard-response",488,21829017,"0.0-4.158-2.158","0v9s70j9ahfy7a7",543,"164.csv","","null","resources/images/fishbone.png","null","",NA,NA,NA,NA,""
"image-keyboard-response",489,21829183,"0.0-4.159-0.159","0v9s70j9ahfy7a7",543,"164.csv","","162","resources/trios/L4T2A3.jpg","37","restless",0.7,0.5,0.4,0.952404580804182,"false"
"image-keyboard-response",490,21829593,"0.0-4.159-1.159","0v9s70j9ahfy7a7",543,"164.csv","","null","resources/maskTrios/L4BB.jpg","null","",NA,NA,NA,NA,""
"image-keyboard-response",491,21830809,"0.0-4.159-2.159","0v9s70j9ahfy7a7",543,"164.csv","","null","resources/images/fishbone.png","null","",NA,NA,NA,NA,""
"image-keyboard-response",492,21831132,"0.0-4.160-0.160","0v9s70j9ahfy7a7",543,"164.csv","","319","resources/trios/L4T2A3.jpg","39","restless",0.7,0.5,0.4,0.386712412641314,"true"
"image-keyboard-response",493,21831534,"0.0-4.160-1.160","0v9s70j9ahfy7a7",543,"164.csv","","null","resources/maskTrios/BBA3.jpg","null","",NA,NA,NA,NA,""
"image-keyboard-response",494,21832749,"0.0-4.160-2.160","0v9s70j9ahfy7a7",543,"164.csv","","null","resources/images/coin2.png","null","",NA,NA,NA,NA,""
"image-keyboard-response",495,21832993,"0.0-4.161-0.161","0v9s70j9ahfy7a7",543,"164.csv","","239","resources/trios/L4T2A3.jpg","39","restless",0.7,0.5,0.4,0.483793046004077,"false"
"image-keyboard-response",496,21833407,"0.0-4.161-1.161","0v9s70j9ahfy7a7",543,"164.csv","","null","resources/maskTrios/BBA3.jpg","null","",NA,NA,NA,NA,""
"image-keyboard-response",497,21834612,"0.0-4.161-2.161","0v9s70j9ahfy7a7",543,"164.csv","","null","resources/images/fishbone.png","null","",NA,NA,NA,NA,""
"image-keyboard-response",498,21834896,"0.0-4.162-0.162","0v9s70j9ahfy7a7",543,"164.csv","","281","resources/trios/L4T2A3.jpg","38","restless",0.7,0.5,0.4,0.624672512610419,"false"
"image-keyboard-response",499,21835302,"0.0-4.162-1.162","0v9s70j9ahfy7a7",543,"164.csv","","null","resources/maskTrios/BT2B.jpg","null","",NA,NA,NA,NA,""
"image-keyboard-response",500,21836519,"0.0-4.162-2.162","0v9s70j9ahfy7a7",543,"164.csv","","null","resources/images/fishbone.png","null","",NA,NA,NA,NA,""
"image-keyboard-response",501,21836762,"0.0-4.163-0.163","0v9s70j9ahfy7a7",543,"164.csv","","242","resources/trios/L4T2A3.jpg","37","restless",0.7,0.4,0.4,0.0317376691479312,"true"
"image-keyboard-response",502,21837195,"0.0-4.163-1.163","0v9s70j9ahfy7a7",543,"164.csv","","null","resources/maskTrios/L4BB.jpg","null","",NA,NA,NA,NA,""
"image-keyboard-response",503,21838422,"0.0-4.163-2.163","0v9s70j9ahfy7a7",543,"164.csv","","null","resources/images/coin2.png","null","",NA,NA,NA,NA,""
"image-keyboard-response",504,21838542,"0.0-4.164-0.164","0v9s70j9ahfy7a7",543,"164.csv","","117","resources/trios/L4T2A3.jpg","37","restless",0.7,0.4,0.4,0.134533258053321,"true"
"image-keyboard-response",505,21838964,"0.0-4.164-1.164","0v9s70j9ahfy7a7",543,"164.csv","","null","resources/maskTrios/L4BB.jpg","null","",NA,NA,NA,NA,""
"image-keyboard-response",506,21840172,"0.0-4.164-2.164","0v9s70j9ahfy7a7",543,"164.csv","","null","resources/images/coin2.png","null","",NA,NA,NA,NA,""
"image-keyboard-response",507,21840434,"0.0-4.165-0.165","0v9s70j9ahfy7a7",543,"164.csv","","260","resources/trios/L4T2A3.jpg","37","restless",0.6,0.4,0.4,0.965991244736835,"false"
"image-keyboard-response",508,21840845,"0.0-4.165-1.165","0v9s70j9ahfy7a7",543,"164.csv","","null","resources/maskTrios/L4BB.jpg","null","",NA,NA,NA,NA,""
"image-keyboard-response",509,21842058,"0.0-4.165-2.165","0v9s70j9ahfy7a7",543,"164.csv","","null","resources/images/fishbone.png","null","",NA,NA,NA,NA,""
"image-keyboard-response",510,21842108,"0.0-4.166-0.166","0v9s70j9ahfy7a7",543,"164.csv","","48","resources/trios/L4T2A3.jpg","39","restless",0.6,0.4,0.4,0.656912906351271,"false"
"image-keyboard-response",511,21842524,"0.0-4.166-1.166","0v9s70j9ahfy7a7",543,"164.csv","","null","resources/maskTrios/BBA3.jpg","null","",NA,NA,NA,NA,""
"image-keyboard-response",512,21843737,"0.0-4.166-2.166","0v9s70j9ahfy7a7",543,"164.csv","","null","resources/images/fishbone.png","null","",NA,NA,NA,NA,""
"image-keyboard-response",513,21844108,"0.0-4.167-0.167","0v9s70j9ahfy7a7",543,"164.csv","","367","resources/trios/L4T2A3.jpg","38","restless",0.6,0.4,0.4,0.286266385257446,"true"
"image-keyboard-response",514,21844536,"0.0-4.167-1.167","0v9s70j9ahfy7a7",543,"164.csv","","null","resources/maskTrios/BT2B.jpg","null","",NA,NA,NA,NA,""
"image-keyboard-response",515,21845747,"0.0-4.167-2.167","0v9s70j9ahfy7a7",543,"164.csv","","null","resources/images/coin2.png","null","",NA,NA,NA,NA,""
"image-keyboard-response",516,21845810,"0.0-4.168-0.168","0v9s70j9ahfy7a7",543,"164.csv","","61","resources/trios/L4T2A3.jpg","38","restless",0.6,0.4,0.4,0.534130403159531,"false"
"image-keyboard-response",517,21846216,"0.0-4.168-1.168","0v9s70j9ahfy7a7",543,"164.csv","","null","resources/maskTrios/BT2B.jpg","null","",NA,NA,NA,NA,""
"image-keyboard-response",518,21847426,"0.0-4.168-2.168","0v9s70j9ahfy7a7",543,"164.csv","","null","resources/images/fishbone.png","null","",NA,NA,NA,NA,""
"image-keyboard-response",519,21847986,"0.0-4.169-0.169","0v9s70j9ahfy7a7",543,"164.csv","","554","resources/trios/L4T2A3.jpg","37","restless",0.6,0.4,0.4,0.85527433527212,"false"
"image-keyboard-response",520,21848391,"0.0-4.169-1.169","0v9s70j9ahfy7a7",543,"164.csv","","null","resources/maskTrios/L4BB.jpg","null","",NA,NA,NA,NA,""
"image-keyboard-response",521,21849609,"0.0-4.169-2.169","0v9s70j9ahfy7a7",543,"164.csv","","null","resources/images/fishbone.png","null","",NA,NA,NA,NA,""
"image-keyboard-response",522,21850187,"0.0-4.170-0.170","0v9s70j9ahfy7a7",543,"164.csv","","575","resources/trios/L4T2A3.jpg","39","restless",0.6,0.4,0.4,0.540442216607409,"false"
"image-keyboard-response",523,21850607,"0.0-4.170-1.170","0v9s70j9ahfy7a7",543,"164.csv","","null","resources/maskTrios/BBA3.jpg","null","",NA,NA,NA,NA,""
"image-keyboard-response",524,21851814,"0.0-4.170-2.170","0v9s70j9ahfy7a7",543,"164.csv","","null","resources/images/fishbone.png","null","",NA,NA,NA,NA,""
"image-keyboard-response",525,21852075,"0.0-4.171-0.171","0v9s70j9ahfy7a7",543,"164.csv","","260","resources/trios/L4T2A3.jpg","38","restless",0.6,0.4,0.5,0.03195086374825,"true"
"image-keyboard-response",526,21852486,"0.0-4.171-1.171","0v9s70j9ahfy7a7",543,"164.csv","","null","resources/maskTrios/BT2B.jpg","null","",NA,NA,NA,NA,""
"image-keyboard-response",527,21853834,"0.0-4.171-2.171","0v9s70j9ahfy7a7",543,"164.csv","","null","resources/images/coin2.png","null","",NA,NA,NA,NA,""
"image-keyboard-response",528,21854066,"0.0-4.172-0.172","0v9s70j9ahfy7a7",543,"164.csv","","229","resources/trios/L4T2A3.jpg","38","restless",0.6,0.4,0.5,0.0435071224031854,"true"
"image-keyboard-response",529,21854470,"0.0-4.172-1.172","0v9s70j9ahfy7a7",543,"164.csv","","null","resources/maskTrios/BT2B.jpg","null","",NA,NA,NA,NA,""
"image-keyboard-response",530,21855692,"0.0-4.172-2.172","0v9s70j9ahfy7a7",543,"164.csv","","null","resources/images/coin2.png","null","",NA,NA,NA,NA,""
"image-keyboard-response",531,21855947,"0.0-4.173-0.173","0v9s70j9ahfy7a7",543,"164.csv","","252","resources/trios/L4T2A3.jpg","38","restless",0.6,0.5,0.5,0.857840971855614,"false"
"image-keyboard-response",532,21856366,"0.0-4.173-1.173","0v9s70j9ahfy7a7",543,"164.csv","","null","resources/maskTrios/BT2B.jpg","null","",NA,NA,NA,NA,""
"image-keyboard-response",533,21857587,"0.0-4.173-2.173","0v9s70j9ahfy7a7",543,"164.csv","","null","resources/images/fishbone.png","null","",NA,NA,NA,NA,""
"image-keyboard-response",534,21857762,"0.0-4.174-0.174","0v9s70j9ahfy7a7",543,"164.csv","","170","resources/trios/L4T2A3.jpg","37","restless",0.6,0.5,0.5,0.856428082294513,"false"
"image-keyboard-response",535,21858170,"0.0-4.174-1.174","0v9s70j9ahfy7a7",543,"164.csv","","null","resources/maskTrios/L4BB.jpg","null","",NA,NA,NA,NA,""
"image-keyboard-response",536,21859445,"0.0-4.174-2.174","0v9s70j9ahfy7a7",543,"164.csv","","null","resources/images/fishbone.png","null","",NA,NA,NA,NA,""
"image-keyboard-response",537,21859466,"0.0-4.175-0.175","0v9s70j9ahfy7a7",543,"164.csv","","20","resources/trios/L4T2A3.jpg","39","restless",0.6,0.5,0.6,0.413010711392594,"true"
"image-keyboard-response",538,21859875,"0.0-4.175-1.175","0v9s70j9ahfy7a7",543,"164.csv","","null","resources/maskTrios/BBA3.jpg","null","",NA,NA,NA,NA,""
"image-keyboard-response",539,21861081,"0.0-4.175-2.175","0v9s70j9ahfy7a7",543,"164.csv","","null","resources/images/coin2.png","null","",NA,NA,NA,NA,""
"image-keyboard-response",540,21861258,"0.0-4.176-0.176","0v9s70j9ahfy7a7",543,"164.csv","","175","resources/trios/L4T2A3.jpg","39","restless",0.6,0.5,0.6,0.998900334665113,"false"
"image-keyboard-response",541,21861668,"0.0-4.176-1.176","0v9s70j9ahfy7a7",543,"164.csv","","null","resources/maskTrios/BBA3.jpg","null","",NA,NA,NA,NA,""
"image-keyboard-response",542,21862882,"0.0-4.176-2.176","0v9s70j9ahfy7a7",543,"164.csv","","null","resources/images/fishbone.png","null","",NA,NA,NA,NA,""
"image-keyboard-response",543,21862915,"0.0-4.177-0.177","0v9s70j9ahfy7a7",543,"164.csv","","32","resources/trios/L4T2A3.jpg","38","restless",0.6,0.5,0.6,0.560814043425074,"false"
"image-keyboard-response",544,21863340,"0.0-4.177-1.177","0v9s70j9ahfy7a7",543,"164.csv","","null","resources/maskTrios/BT2B.jpg","null","",NA,NA,NA,NA,""
"image-keyboard-response",545,21864549,"0.0-4.177-2.177","0v9s70j9ahfy7a7",543,"164.csv","","null","resources/images/fishbone.png","null","",NA,NA,NA,NA,""
"image-keyboard-response",546,21864987,"0.0-4.178-0.178","0v9s70j9ahfy7a7",543,"164.csv","","437","resources/trios/L4T2A3.jpg","39","restless",0.6,0.6,0.6,0.0896773564977946,"true"
"image-keyboard-response",547,21865399,"0.0-4.178-1.178","0v9s70j9ahfy7a7",543,"164.csv","","null","resources/maskTrios/BBA3.jpg","null","",NA,NA,NA,NA,""
"image-keyboard-response",548,21866619,"0.0-4.178-2.178","0v9s70j9ahfy7a7",543,"164.csv","","null","resources/images/coin2.png","null","",NA,NA,NA,NA,""
"image-keyboard-response",549,21866907,"0.0-4.179-0.179","0v9s70j9ahfy7a7",543,"164.csv","","288","resources/trios/L4T2A3.jpg","39","restless",0.6,0.6,0.7,0.357508904039211,"true"
"image-keyboard-response",550,21867320,"0.0-4.179-1.179","0v9s70j9ahfy7a7",543,"164.csv","","null","resources/maskTrios/BBA3.jpg","null","",NA,NA,NA,NA,""
"image-keyboard-response",551,21868533,"0.0-4.179-2.179","0v9s70j9ahfy7a7",543,"164.csv","","null","resources/images/coin2.png","null","",NA,NA,NA,NA,""
"image-keyboard-response",552,21868815,"0.0-4.180-0.180","0v9s70j9ahfy7a7",543,"164.csv","","280","resources/trios/L4T2A3.jpg","39","restless",0.6,0.5,0.8,0.484435960243465,"true"
"image-keyboard-response",553,21869224,"0.0-4.180-1.180","0v9s70j9ahfy7a7",543,"164.csv","","null","resources/maskTrios/BBA3.jpg","null","",NA,NA,NA,NA,""
"image-keyboard-response",554,21870558,"0.0-4.180-2.180","0v9s70j9ahfy7a7",543,"164.csv","","null","resources/images/coin2.png","null","",NA,NA,NA,NA,""
"image-keyboard-response",555,21870718,"0.0-4.181-0.181","0v9s70j9ahfy7a7",543,"164.csv","","159","resources/trios/L4T2A3.jpg","39","restless",0.6,0.6,0.8,0.992800310551947,"false"
"image-keyboard-response",556,21871130,"0.0-4.181-1.181","0v9s70j9ahfy7a7",543,"164.csv","","null","resources/maskTrios/BBA3.jpg","null","",NA,NA,NA,NA,""
"image-keyboard-response",557,21872344,"0.0-4.181-2.181","0v9s70j9ahfy7a7",543,"164.csv","","null","resources/images/fishbone.png","null","",NA,NA,NA,NA,""
"image-keyboard-response",558,21872383,"0.0-4.182-0.182","0v9s70j9ahfy7a7",543,"164.csv","","36","resources/trios/L4T2A3.jpg","37","restless",0.5,0.6,0.8,0.239990861737674,"true"
"image-keyboard-response",559,21872789,"0.0-4.182-1.182","0v9s70j9ahfy7a7",543,"164.csv","","null","resources/maskTrios/L4BB.jpg","null","",NA,NA,NA,NA,""
"image-keyboard-response",560,21874001,"0.0-4.182-2.182","0v9s70j9ahfy7a7",543,"164.csv","","null","resources/images/coin2.png","null","",NA,NA,NA,NA,""
"image-keyboard-response",561,21874131,"0.0-4.183-0.183","0v9s70j9ahfy7a7",543,"164.csv","","126","resources/trios/L4T2A3.jpg","37","restless",0.5,0.6,0.8,0.428392724432945,"true"
"image-keyboard-response",562,21874535,"0.0-4.183-1.183","0v9s70j9ahfy7a7",543,"164.csv","","null","resources/maskTrios/L4BB.jpg","null","",NA,NA,NA,NA,""
"image-keyboard-response",563,21875742,"0.0-4.183-2.183","0v9s70j9ahfy7a7",543,"164.csv","","null","resources/images/coin2.png","null","",NA,NA,NA,NA,""
"image-keyboard-response",564,21876044,"0.0-4.184-0.184","0v9s70j9ahfy7a7",543,"164.csv","","299","resources/trios/L4T2A3.jpg","37","restless",0.5,0.6,0.8,0.511282909928651,"false"
"image-keyboard-response",565,21876463,"0.0-4.184-1.184","0v9s70j9ahfy7a7",543,"164.csv","","null","resources/maskTrios/L4BB.jpg","null","",NA,NA,NA,NA,""
"image-keyboard-response",566,21877708,"0.0-4.184-2.184","0v9s70j9ahfy7a7",543,"164.csv","","null","resources/images/fishbone.png","null","",NA,NA,NA,NA,""
"image-keyboard-response",567,21878060,"0.0-4.185-0.185","0v9s70j9ahfy7a7",543,"164.csv","","350","resources/trios/L4T2A3.jpg","38","restless",0.5,0.6,0.8,0.605886181313352,"false"
"image-keyboard-response",568,21878465,"0.0-4.185-1.185","0v9s70j9ahfy7a7",543,"164.csv","","null","resources/maskTrios/BT2B.jpg","null","",NA,NA,NA,NA,""
"image-keyboard-response",569,21879671,"0.0-4.185-2.185","0v9s70j9ahfy7a7",543,"164.csv","","null","resources/images/fishbone.png","null","",NA,NA,NA,NA,""
"image-keyboard-response",570,21879937,"0.0-4.186-0.186","0v9s70j9ahfy7a7",543,"164.csv","","261","resources/trios/L4T2A3.jpg","37","restless",0.5,0.6,0.8,0.651780929966375,"false"
"image-keyboard-response",571,21880355,"0.0-4.186-1.186","0v9s70j9ahfy7a7",543,"164.csv","","null","resources/maskTrios/L4BB.jpg","null","",NA,NA,NA,NA,""
"image-keyboard-response",572,21881574,"0.0-4.186-2.186","0v9s70j9ahfy7a7",543,"164.csv","","null","resources/images/fishbone.png","null","",NA,NA,NA,NA,""
"image-keyboard-response",573,21881734,"0.0-4.187-0.187","0v9s70j9ahfy7a7",543,"164.csv","","157","resources/trios/L4T2A3.jpg","39","restless",0.5,0.6,0.8,0.0451302065746276,"true"
"image-keyboard-response",574,21882148,"0.0-4.187-1.187","0v9s70j9ahfy7a7",543,"164.csv","","null","resources/maskTrios/BBA3.jpg","null","",NA,NA,NA,NA,""
"image-keyboard-response",575,21883363,"0.0-4.187-2.187","0v9s70j9ahfy7a7",543,"164.csv","","null","resources/images/coin2.png","null","",NA,NA,NA,NA,""
"image-keyboard-response",576,21883667,"0.0-4.188-0.188","0v9s70j9ahfy7a7",543,"164.csv","","298","resources/trios/L4T2A3.jpg","39","restless",0.5,0.6,0.8,0.162819130388937,"true"
"image-keyboard-response",577,21884080,"0.0-4.188-1.188","0v9s70j9ahfy7a7",543,"164.csv","","null","resources/maskTrios/BBA3.jpg","null","",NA,NA,NA,NA,""
"image-keyboard-response",578,21885291,"0.0-4.188-2.188","0v9s70j9ahfy7a7",543,"164.csv","","null","resources/images/coin2.png","null","",NA,NA,NA,NA,""
"image-keyboard-response",579,21885628,"0.0-4.189-0.189","0v9s70j9ahfy7a7",543,"164.csv","","330","resources/trios/L4T2A3.jpg","39","restless",0.5,0.6,0.8,0.0319001984423974,"true"
"image-keyboard-response",580,21886048,"0.0-4.189-1.189","0v9s70j9ahfy7a7",543,"164.csv","","null","resources/maskTrios/BBA3.jpg","null","",NA,NA,NA,NA,""
"image-keyboard-response",581,21887317,"0.0-4.189-2.189","0v9s70j9ahfy7a7",543,"164.csv","","null","resources/images/coin2.png","null","",NA,NA,NA,NA,""
"image-keyboard-response",582,21887645,"0.0-4.190-0.190","0v9s70j9ahfy7a7",543,"164.csv","","326","resources/trios/L4T2A3.jpg","39","restless",0.5,0.6,0.9,0.811790370092456,"true"
"image-keyboard-response",583,21888049,"0.0-4.190-1.190","0v9s70j9ahfy7a7",543,"164.csv","","null","resources/maskTrios/BBA3.jpg","null","",NA,NA,NA,NA,""
"image-keyboard-response",584,21889331,"0.0-4.190-2.190","0v9s70j9ahfy7a7",543,"164.csv","","null","resources/images/coin2.png","null","",NA,NA,NA,NA,""
"image-keyboard-response",585,21889650,"0.0-4.191-0.191","0v9s70j9ahfy7a7",543,"164.csv","","316","resources/trios/L4T2A3.jpg","39","restless",0.5,0.6,0.9,0.468238193269718,"true"
"image-keyboard-response",586,21890062,"0.0-4.191-1.191","0v9s70j9ahfy7a7",543,"164.csv","","null","resources/maskTrios/BBA3.jpg","null","",NA,NA,NA,NA,""
"image-keyboard-response",587,21891363,"0.0-4.191-2.191","0v9s70j9ahfy7a7",543,"164.csv","","null","resources/images/coin2.png","null","",NA,NA,NA,NA,""
"image-keyboard-response",588,21891602,"0.0-4.192-0.192","0v9s70j9ahfy7a7",543,"164.csv","","238","resources/trios/L4T2A3.jpg","39","restless",0.5,0.6,0.9,0.547094914659656,"true"
"image-keyboard-response",589,21892009,"0.0-4.192-1.192","0v9s70j9ahfy7a7",543,"164.csv","","null","resources/maskTrios/BBA3.jpg","null","",NA,NA,NA,NA,""
"image-keyboard-response",590,21893218,"0.0-4.192-2.192","0v9s70j9ahfy7a7",543,"164.csv","","null","resources/images/coin2.png","null","",NA,NA,NA,NA,""
"image-keyboard-response",591,21893492,"0.0-4.193-0.193","0v9s70j9ahfy7a7",543,"164.csv","","271","resources/trios/L4T2A3.jpg","39","restless",0.5,0.6,0.9,0.667333278425256,"true"
"image-keyboard-response",592,21893907,"0.0-4.193-1.193","0v9s70j9ahfy7a7",543,"164.csv","","null","resources/maskTrios/BBA3.jpg","null","",NA,NA,NA,NA,""
"image-keyboard-response",593,21895115,"0.0-4.193-2.193","0v9s70j9ahfy7a7",543,"164.csv","","null","resources/images/coin2.png","null","",NA,NA,NA,NA,""
"image-keyboard-response",594,21895395,"0.0-4.194-0.194","0v9s70j9ahfy7a7",543,"164.csv","","277","resources/trios/L4T2A3.jpg","39","restless",0.5,0.6,0.9,0.655132074917783,"true"
"image-keyboard-response",595,21895804,"0.0-4.194-1.194","0v9s70j9ahfy7a7",543,"164.csv","","null","resources/maskTrios/BBA3.jpg","null","",NA,NA,NA,NA,""
"image-keyboard-response",596,21897010,"0.0-4.194-2.194","0v9s70j9ahfy7a7",543,"164.csv","","null","resources/images/coin2.png","null","",NA,NA,NA,NA,""
"image-keyboard-response",597,21897326,"0.0-4.195-0.195","0v9s70j9ahfy7a7",543,"164.csv","","312","resources/trios/L4T2A3.jpg","39","restless",0.5,0.6,0.9,0.112960776415296,"true"
"image-keyboard-response",598,21897734,"0.0-4.195-1.195","0v9s70j9ahfy7a7",543,"164.csv","","null","resources/maskTrios/BBA3.jpg","null","",NA,NA,NA,NA,""
"image-keyboard-response",599,21898941,"0.0-4.195-2.195","0v9s70j9ahfy7a7",543,"164.csv","","null","resources/images/coin2.png","null","",NA,NA,NA,NA,""
"image-keyboard-response",600,21899045,"0.0-4.196-0.196","0v9s70j9ahfy7a7",543,"164.csv","","102","resources/trios/L4T2A3.jpg","39","restless",0.5,0.6,0.9,0.277400666693357,"true"
"image-keyboard-response",601,21899451,"0.0-4.196-1.196","0v9s70j9ahfy7a7",543,"164.csv","","null","resources/maskTrios/BBA3.jpg","null","",NA,NA,NA,NA,""
"image-keyboard-response",602,21900654,"0.0-4.196-2.196","0v9s70j9ahfy7a7",543,"164.csv","","null","resources/images/coin2.png","null","",NA,NA,NA,NA,""
"image-keyboard-response",603,21901007,"0.0-4.197-0.197","0v9s70j9ahfy7a7",543,"164.csv","","352","resources/trios/L4T2A3.jpg","39","restless",0.5,0.6,0.9,0.602081576880661,"true"
"image-keyboard-response",604,21901420,"0.0-4.197-1.197","0v9s70j9ahfy7a7",543,"164.csv","","null","resources/maskTrios/BBA3.jpg","null","",NA,NA,NA,NA,""
"image-keyboard-response",605,21902641,"0.0-4.197-2.197","0v9s70j9ahfy7a7",543,"164.csv","","null","resources/images/coin2.png","null","",NA,NA,NA,NA,""
"image-keyboard-response",606,21902775,"0.0-4.198-0.198","0v9s70j9ahfy7a7",543,"164.csv","","131","resources/trios/L4T2A3.jpg","39","restless",0.5,0.6,0.9,0.211424058325815,"true"
"image-keyboard-response",607,21903186,"0.0-4.198-1.198","0v9s70j9ahfy7a7",543,"164.csv","","null","resources/maskTrios/BBA3.jpg","null","",NA,NA,NA,NA,""
"image-keyboard-response",608,21904391,"0.0-4.198-2.198","0v9s70j9ahfy7a7",543,"164.csv","","null","resources/images/coin2.png","null","",NA,NA,NA,NA,""
"image-keyboard-response",609,21904654,"0.0-4.199-0.199","0v9s70j9ahfy7a7",543,"164.csv","","259","resources/trios/L4T2A3.jpg","39","restless",0.5,0.6,0.9,0.752748351083655,"true"
"image-keyboard-response",610,21905075,"0.0-4.199-1.199","0v9s70j9ahfy7a7",543,"164.csv","","null","resources/maskTrios/BBA3.jpg","null","",NA,NA,NA,NA,""
"image-keyboard-response",611,21906298,"0.0-4.199-2.199","0v9s70j9ahfy7a7",543,"164.csv","","null","resources/images/coin2.png","null","",NA,NA,NA,NA,""
"survey-text",612,21994816,"0.0-5.0","0v9s70j9ahfy7a7",543,"164.csv","","88503","","","",NA,NA,NA,NA,""
