"trial_type","trial_index","time_elapsed","internal_node_id","subject","participantCode","walkNumber","success","rt","stimulus","key_press","test_part","leftProb","midProb","rightProb","generatedNum","correct"
"pavlovia",0,808,"0.0-0.0","25sybe6b9tou51f",382,"67.csv","","","","","",NA,NA,NA,NA,""
"fullscreen",1,3979,"0.0-1.0","25sybe6b9tou51f",382,"67.csv","true","","","","",NA,NA,NA,NA,""
"survey-html-form",2,12433,"0.0-2.0","25sybe6b9tou51f",382,"67.csv","","8450","","","",NA,NA,NA,NA,""
"image-keyboard-response",3,17134,"0.0-3.0-0.0","25sybe6b9tou51f",382,"67.csv","","4699.70000000298","resources/images/parrot_nobg.png","13","",NA,NA,NA,NA,""
"image-keyboard-response",4,20136,"0.0-3.0-1.0","25sybe6b9tou51f",382,"67.csv","","null","resources/image_sets/111.png","null","",NA,NA,NA,NA,""
"image-keyboard-response",5,24445,"0.0-3.0-2.0","25sybe6b9tou51f",382,"67.csv","","4308","resources/image_sets/left_highlight.png","37","",NA,NA,NA,NA,""
"image-keyboard-response",6,26437,"0.0-3.0-3.0","25sybe6b9tou51f",382,"67.csv","","1992.199999988079","resources/image_sets/mid_highlight.png","38","",NA,NA,NA,NA,""
"image-keyboard-response",7,27605,"0.0-3.0-4.0","25sybe6b9tou51f",382,"67.csv","","1166.699999988079","resources/image_sets/right_highlight.png","39","",NA,NA,NA,NA,""
"image-keyboard-response",8,29508,"0.0-3.0-5.0","25sybe6b9tou51f",382,"67.csv","","1902.5","resources/image_sets/111.png","13","",NA,NA,NA,NA,""
"image-keyboard-response",9,30501,"0.0-3.0-6.0","25sybe6b9tou51f",382,"67.csv","","991.7999999970198","resources/images/coin2.png","13","",NA,NA,NA,NA,""
"image-keyboard-response",10,31396,"0.0-3.0-7.0","25sybe6b9tou51f",382,"67.csv","","893.9000000059605","resources/images/fishbone.png","13","",NA,NA,NA,NA,""
"html-keyboard-response",11,32461,"0.0-3.0-8.0","25sybe6b9tou51f",382,"67.csv","","1064.0999999940395","<p>You can track your coin total on the top right of your screen. </p><p>At the end of your journey you will be directed to a survey, so please click on the link before exiting the task</p><p>Press Enter to begin</p>","13","",NA,NA,NA,NA,""
"image-keyboard-response",12,34123,"0.0-4.0-0.0","25sybe6b9tou51f",382,"67.csv","","1661.5","resources/trios/L4T2A2.jpg","38","restless",0.9,0.7,0.3,0.354274656077542,"true"
"image-keyboard-response",13,34526,"0.0-4.0-1.0","25sybe6b9tou51f",382,"67.csv","","null","resources/maskTrios/BT2B.jpg","null","",NA,NA,NA,NA,""
"image-keyboard-response",14,35728,"0.0-4.0-2.0","25sybe6b9tou51f",382,"67.csv","","null","resources/images/coin2.png","null","",NA,NA,NA,NA,""
"image-keyboard-response",15,36940,"0.0-4.1-0.1","25sybe6b9tou51f",382,"67.csv","","1211.4000000059605","resources/trios/L4T2A2.jpg","38","restless",0.9,0.7,0.3,0.691837679302924,"true"
"image-keyboard-response",16,37343,"0.0-4.1-1.1","25sybe6b9tou51f",382,"67.csv","","null","resources/maskTrios/BT2B.jpg","null","",NA,NA,NA,NA,""
"image-keyboard-response",17,38545,"0.0-4.1-2.1","25sybe6b9tou51f",382,"67.csv","","null","resources/images/coin2.png","null","",NA,NA,NA,NA,""
"image-keyboard-response",18,39637,"0.0-4.2-0.2","25sybe6b9tou51f",382,"67.csv","","1090.5999999940395","resources/trios/L4T2A2.jpg","38","restless",0.9,0.7,0.3,0.88089901364827,"false"
"image-keyboard-response",19,40039,"0.0-4.2-1.2","25sybe6b9tou51f",382,"67.csv","","null","resources/maskTrios/BT2B.jpg","null","",NA,NA,NA,NA,""
"image-keyboard-response",20,41241,"0.0-4.2-2.2","25sybe6b9tou51f",382,"67.csv","","null","resources/images/fishbone.png","null","",NA,NA,NA,NA,""
"image-keyboard-response",21,42508,"0.0-4.3-0.3","25sybe6b9tou51f",382,"67.csv","","1265.3999999910593","resources/trios/L4T2A2.jpg","37","restless",0.9,0.7,0.3,0.990700595619765,"false"
"image-keyboard-response",22,42909,"0.0-4.3-1.3","25sybe6b9tou51f",382,"67.csv","","null","resources/maskTrios/L4BB.jpg","null","",NA,NA,NA,NA,""
"image-keyboard-response",23,44111,"0.0-4.3-2.3","25sybe6b9tou51f",382,"67.csv","","null","resources/images/fishbone.png","null","",NA,NA,NA,NA,""
"image-keyboard-response",24,44620,"0.0-4.4-0.4","25sybe6b9tou51f",382,"67.csv","","507.5","resources/trios/L4T2A2.jpg","39","restless",0.9,0.7,0.3,0.0043755977662614,"true"
"image-keyboard-response",25,45022,"0.0-4.4-1.4","25sybe6b9tou51f",382,"67.csv","","null","resources/maskTrios/BBA2.jpg","null","",NA,NA,NA,NA,""
"image-keyboard-response",26,46224,"0.0-4.4-2.4","25sybe6b9tou51f",382,"67.csv","","null","resources/images/coin2.png","null","",NA,NA,NA,NA,""
"image-keyboard-response",27,46724,"0.0-4.5-0.5","25sybe6b9tou51f",382,"67.csv","","498.59999999403954","resources/trios/L4T2A2.jpg","37","restless",0.9,0.7,0.3,0.545026414222626,"true"
"image-keyboard-response",28,47127,"0.0-4.5-1.5","25sybe6b9tou51f",382,"67.csv","","null","resources/maskTrios/L4BB.jpg","null","",NA,NA,NA,NA,""
"image-keyboard-response",29,48329,"0.0-4.5-2.5","25sybe6b9tou51f",382,"67.csv","","null","resources/images/coin2.png","null","",NA,NA,NA,NA,""
"image-keyboard-response",30,48644,"0.0-4.6-0.6","25sybe6b9tou51f",382,"67.csv","","313.5","resources/trios/L4T2A2.jpg","38","restless",0.9,0.7,0.3,0.619046083256291,"true"
"image-keyboard-response",31,49046,"0.0-4.6-1.6","25sybe6b9tou51f",382,"67.csv","","null","resources/maskTrios/BT2B.jpg","null","",NA,NA,NA,NA,""
"image-keyboard-response",32,50247,"0.0-4.6-2.6","25sybe6b9tou51f",382,"67.csv","","null","resources/images/coin2.png","null","",NA,NA,NA,NA,""
"image-keyboard-response",33,50900,"0.0-4.7-0.7","25sybe6b9tou51f",382,"67.csv","","651.4000000059605","resources/trios/L4T2A2.jpg","37","restless",0.9,0.7,0.3,0.116086416939353,"true"
"image-keyboard-response",34,51303,"0.0-4.7-1.7","25sybe6b9tou51f",382,"67.csv","","null","resources/maskTrios/L4BB.jpg","null","",NA,NA,NA,NA,""
"image-keyboard-response",35,52504,"0.0-4.7-2.7","25sybe6b9tou51f",382,"67.csv","","null","resources/images/coin2.png","null","",NA,NA,NA,NA,""
"image-keyboard-response",36,53228,"0.0-4.8-0.8","25sybe6b9tou51f",382,"67.csv","","722.1000000089407","resources/trios/L4T2A2.jpg","38","restless",0.9,0.7,0.3,0.353846340227052,"true"
"image-keyboard-response",37,53630,"0.0-4.8-1.8","25sybe6b9tou51f",382,"67.csv","","null","resources/maskTrios/BT2B.jpg","null","",NA,NA,NA,NA,""
"image-keyboard-response",38,54833,"0.0-4.8-2.8","25sybe6b9tou51f",382,"67.csv","","null","resources/images/coin2.png","null","",NA,NA,NA,NA,""
"image-keyboard-response",39,55187,"0.0-4.9-0.9","25sybe6b9tou51f",382,"67.csv","","353.30000001192093","resources/trios/L4T2A2.jpg","39","restless",0.9,0.7,0.3,0.109170156577807,"true"
"image-keyboard-response",40,55588,"0.0-4.9-1.9","25sybe6b9tou51f",382,"67.csv","","null","resources/maskTrios/BBA2.jpg","null","",NA,NA,NA,NA,""
"image-keyboard-response",41,56790,"0.0-4.9-2.9","25sybe6b9tou51f",382,"67.csv","","null","resources/images/coin2.png","null","",NA,NA,NA,NA,""
"image-keyboard-response",42,57171,"0.0-4.10-0.10","25sybe6b9tou51f",382,"67.csv","","379.70000000298023","resources/trios/L4T2A2.jpg","37","restless",0.9,0.6,0.3,0.703627257982935,"true"
"image-keyboard-response",43,57572,"0.0-4.10-1.10","25sybe6b9tou51f",382,"67.csv","","null","resources/maskTrios/L4BB.jpg","null","",NA,NA,NA,NA,""
"image-keyboard-response",44,58774,"0.0-4.10-2.10","25sybe6b9tou51f",382,"67.csv","","null","resources/images/coin2.png","null","",NA,NA,NA,NA,""
"image-keyboard-response",45,59076,"0.0-4.11-0.11","25sybe6b9tou51f",382,"67.csv","","300.29999999701977","resources/trios/L4T2A2.jpg","38","restless",0.8,0.6,0.3,0.0764080164995253,"true"
"image-keyboard-response",46,59477,"0.0-4.11-1.11","25sybe6b9tou51f",382,"67.csv","","null","resources/maskTrios/BT2B.jpg","null","",NA,NA,NA,NA,""
"image-keyboard-response",47,60680,"0.0-4.11-2.11","25sybe6b9tou51f",382,"67.csv","","null","resources/images/coin2.png","null","",NA,NA,NA,NA,""
"image-keyboard-response",48,60963,"0.0-4.12-0.12","25sybe6b9tou51f",382,"67.csv","","281.69999998807907","resources/trios/L4T2A2.jpg","39","restless",0.8,0.6,0.2,0.877546025372021,"false"
"image-keyboard-response",49,61366,"0.0-4.12-1.12","25sybe6b9tou51f",382,"67.csv","","null","resources/maskTrios/BBA2.jpg","null","",NA,NA,NA,NA,""
"image-keyboard-response",50,62568,"0.0-4.12-2.12","25sybe6b9tou51f",382,"67.csv","","null","resources/images/fishbone.png","null","",NA,NA,NA,NA,""
"image-keyboard-response",51,62915,"0.0-4.13-0.13","25sybe6b9tou51f",382,"67.csv","","346.5","resources/trios/L4T2A2.jpg","38","restless",0.7,0.6,0.2,0.44991370735224,"true"
"image-keyboard-response",52,63317,"0.0-4.13-1.13","25sybe6b9tou51f",382,"67.csv","","null","resources/maskTrios/BT2B.jpg","null","",NA,NA,NA,NA,""
"image-keyboard-response",53,64519,"0.0-4.13-2.13","25sybe6b9tou51f",382,"67.csv","","null","resources/images/coin2.png","null","",NA,NA,NA,NA,""
"image-keyboard-response",54,64843,"0.0-4.14-0.14","25sybe6b9tou51f",382,"67.csv","","323.69999998807907","resources/trios/L4T2A2.jpg","38","restless",0.7,0.6,0.2,0.0423426799789164,"true"
"image-keyboard-response",55,65246,"0.0-4.14-1.14","25sybe6b9tou51f",382,"67.csv","","null","resources/maskTrios/BT2B.jpg","null","",NA,NA,NA,NA,""
"image-keyboard-response",56,66447,"0.0-4.14-2.14","25sybe6b9tou51f",382,"67.csv","","null","resources/images/coin2.png","null","",NA,NA,NA,NA,""
"image-keyboard-response",57,66883,"0.0-4.15-0.15","25sybe6b9tou51f",382,"67.csv","","434.70000000298023","resources/trios/L4T2A2.jpg","38","restless",0.7,0.6,0.2,0.3801907858772,"true"
"image-keyboard-response",58,67284,"0.0-4.15-1.15","25sybe6b9tou51f",382,"67.csv","","null","resources/maskTrios/BT2B.jpg","null","",NA,NA,NA,NA,""
"image-keyboard-response",59,68486,"0.0-4.15-2.15","25sybe6b9tou51f",382,"67.csv","","null","resources/images/coin2.png","null","",NA,NA,NA,NA,""
"image-keyboard-response",60,68819,"0.0-4.16-0.16","25sybe6b9tou51f",382,"67.csv","","331.5","resources/trios/L4T2A2.jpg","38","restless",0.7,0.6,0.2,0.568316928463205,"true"
"image-keyboard-response",61,69222,"0.0-4.16-1.16","25sybe6b9tou51f",382,"67.csv","","null","resources/maskTrios/BT2B.jpg","null","",NA,NA,NA,NA,""
"image-keyboard-response",62,70424,"0.0-4.16-2.16","25sybe6b9tou51f",382,"67.csv","","null","resources/images/coin2.png","null","",NA,NA,NA,NA,""
"image-keyboard-response",63,70763,"0.0-4.17-0.17","25sybe6b9tou51f",382,"67.csv","","338.6000000089407","resources/trios/L4T2A2.jpg","38","restless",0.6,0.6,0.2,0.216394032681289,"true"
"image-keyboard-response",64,71166,"0.0-4.17-1.17","25sybe6b9tou51f",382,"67.csv","","null","resources/maskTrios/BT2B.jpg","null","",NA,NA,NA,NA,""
"image-keyboard-response",65,72368,"0.0-4.17-2.17","25sybe6b9tou51f",382,"67.csv","","null","resources/images/coin2.png","null","",NA,NA,NA,NA,""
"image-keyboard-response",66,72683,"0.0-4.18-0.18","25sybe6b9tou51f",382,"67.csv","","313.79999999701977","resources/trios/L4T2A2.jpg","37","restless",0.6,0.6,0.2,0.664925094886919,"false"
"image-keyboard-response",67,73086,"0.0-4.18-1.18","25sybe6b9tou51f",382,"67.csv","","null","resources/maskTrios/L4BB.jpg","null","",NA,NA,NA,NA,""
"image-keyboard-response",68,74288,"0.0-4.18-2.18","25sybe6b9tou51f",382,"67.csv","","null","resources/images/fishbone.png","null","",NA,NA,NA,NA,""
"image-keyboard-response",69,74378,"0.0-4.19-0.19","25sybe6b9tou51f",382,"67.csv","","89.40000000596046","resources/trios/L4T2A2.jpg","38","restless",0.6,0.6,0.2,0.382415423354452,"true"
"image-keyboard-response",70,74780,"0.0-4.19-1.19","25sybe6b9tou51f",382,"67.csv","","null","resources/maskTrios/BT2B.jpg","null","",NA,NA,NA,NA,""
"image-keyboard-response",71,75982,"0.0-4.19-2.19","25sybe6b9tou51f",382,"67.csv","","null","resources/images/coin2.png","null","",NA,NA,NA,NA,""
"image-keyboard-response",72,76243,"0.0-4.20-0.20","25sybe6b9tou51f",382,"67.csv","","259.70000000298023","resources/trios/L4T2A2.jpg","38","restless",0.6,0.7,0.2,0.0141028586804821,"true"
"image-keyboard-response",73,76645,"0.0-4.20-1.20","25sybe6b9tou51f",382,"67.csv","","null","resources/maskTrios/BT2B.jpg","null","",NA,NA,NA,NA,""
"image-keyboard-response",74,77847,"0.0-4.20-2.20","25sybe6b9tou51f",382,"67.csv","","null","resources/images/coin2.png","null","",NA,NA,NA,NA,""
"image-keyboard-response",75,78171,"0.0-4.21-0.21","25sybe6b9tou51f",382,"67.csv","","323.29999999701977","resources/trios/L4T2A2.jpg","38","restless",0.6,0.7,0.2,0.391562193555553,"true"
"image-keyboard-response",76,78574,"0.0-4.21-1.21","25sybe6b9tou51f",382,"67.csv","","null","resources/maskTrios/BT2B.jpg","null","",NA,NA,NA,NA,""
"image-keyboard-response",77,79776,"0.0-4.21-2.21","25sybe6b9tou51f",382,"67.csv","","null","resources/images/coin2.png","null","",NA,NA,NA,NA,""
"image-keyboard-response",78,80019,"0.0-4.22-0.22","25sybe6b9tou51f",382,"67.csv","","241.90000000596046","resources/trios/L4T2A2.jpg","38","restless",0.6,0.7,0.2,0.472373828544748,"true"
"image-keyboard-response",79,80422,"0.0-4.22-1.22","25sybe6b9tou51f",382,"67.csv","","null","resources/maskTrios/BT2B.jpg","null","",NA,NA,NA,NA,""
"image-keyboard-response",80,81624,"0.0-4.22-2.22","25sybe6b9tou51f",382,"67.csv","","null","resources/images/coin2.png","null","",NA,NA,NA,NA,""
"image-keyboard-response",81,81938,"0.0-4.23-0.23","25sybe6b9tou51f",382,"67.csv","","313.20000000298023","resources/trios/L4T2A2.jpg","38","restless",0.6,0.6,0.2,0.820249161564133,"false"
"image-keyboard-response",82,82340,"0.0-4.23-1.23","25sybe6b9tou51f",382,"67.csv","","null","resources/maskTrios/BT2B.jpg","null","",NA,NA,NA,NA,""
"image-keyboard-response",83,83542,"0.0-4.23-2.23","25sybe6b9tou51f",382,"67.csv","","null","resources/images/fishbone.png","null","",NA,NA,NA,NA,""
"image-keyboard-response",84,83834,"0.0-4.24-0.24","25sybe6b9tou51f",382,"67.csv","","291.70000000298023","resources/trios/L4T2A2.jpg","37","restless",0.6,0.6,0.2,0.634909667667088,"false"
"image-keyboard-response",85,84237,"0.0-4.24-1.24","25sybe6b9tou51f",382,"67.csv","","null","resources/maskTrios/L4BB.jpg","null","",NA,NA,NA,NA,""
"image-keyboard-response",86,85439,"0.0-4.24-2.24","25sybe6b9tou51f",382,"67.csv","","null","resources/images/fishbone.png","null","",NA,NA,NA,NA,""
"image-keyboard-response",87,85739,"0.0-4.25-0.25","25sybe6b9tou51f",382,"67.csv","","298.5","resources/trios/L4T2A2.jpg","39","restless",0.6,0.6,0.2,0.367569921474304,"false"
"image-keyboard-response",88,86141,"0.0-4.25-1.25","25sybe6b9tou51f",382,"67.csv","","null","resources/maskTrios/BBA2.jpg","null","",NA,NA,NA,NA,""
"image-keyboard-response",89,87344,"0.0-4.25-2.25","25sybe6b9tou51f",382,"67.csv","","null","resources/images/fishbone.png","null","",NA,NA,NA,NA,""
"image-keyboard-response",90,87482,"0.0-4.26-0.26","25sybe6b9tou51f",382,"67.csv","","137.5","resources/trios/L4T2A2.jpg","38","restless",0.6,0.6,0.2,0.170107015324366,"true"
"image-keyboard-response",91,87884,"0.0-4.26-1.26","25sybe6b9tou51f",382,"67.csv","","null","resources/maskTrios/BT2B.jpg","null","",NA,NA,NA,NA,""
"image-keyboard-response",92,89086,"0.0-4.26-2.26","25sybe6b9tou51f",382,"67.csv","","null","resources/images/coin2.png","null","",NA,NA,NA,NA,""
"image-keyboard-response",93,89394,"0.0-4.27-0.27","25sybe6b9tou51f",382,"67.csv","","307.6000000089407","resources/trios/L4T2A2.jpg","39","restless",0.6,0.6,0.3,0.27209370557663,"true"
"image-keyboard-response",94,89796,"0.0-4.27-1.27","25sybe6b9tou51f",382,"67.csv","","null","resources/maskTrios/BBA2.jpg","null","",NA,NA,NA,NA,""
"image-keyboard-response",95,90998,"0.0-4.27-2.27","25sybe6b9tou51f",382,"67.csv","","null","resources/images/coin2.png","null","",NA,NA,NA,NA,""
"image-keyboard-response",96,91338,"0.0-4.28-0.28","25sybe6b9tou51f",382,"67.csv","","339.5","resources/trios/L4T2A2.jpg","37","restless",0.6,0.6,0.3,0.302331210364085,"true"
"image-keyboard-response",97,91741,"0.0-4.28-1.28","25sybe6b9tou51f",382,"67.csv","","null","resources/maskTrios/L4BB.jpg","null","",NA,NA,NA,NA,""
"image-keyboard-response",98,92943,"0.0-4.28-2.28","25sybe6b9tou51f",382,"67.csv","","null","resources/images/coin2.png","null","",NA,NA,NA,NA,""
"image-keyboard-response",99,93266,"0.0-4.29-0.29","25sybe6b9tou51f",382,"67.csv","","321.90000000596046","resources/trios/L4T2A2.jpg","39","restless",0.6,0.6,0.3,0.128395546235013,"true"
"image-keyboard-response",100,93669,"0.0-4.29-1.29","25sybe6b9tou51f",382,"67.csv","","null","resources/maskTrios/BBA2.jpg","null","",NA,NA,NA,NA,""
"image-keyboard-response",101,94871,"0.0-4.29-2.29","25sybe6b9tou51f",382,"67.csv","","null","resources/images/coin2.png","null","",NA,NA,NA,NA,""
"image-keyboard-response",102,95138,"0.0-4.30-0.30","25sybe6b9tou51f",382,"67.csv","","265.40000000596046","resources/trios/L4T2A2.jpg","37","restless",0.5,0.6,0.3,0.473353629977571,"true"
"image-keyboard-response",103,95541,"0.0-4.30-1.30","25sybe6b9tou51f",382,"67.csv","","null","resources/maskTrios/L4BB.jpg","null","",NA,NA,NA,NA,""
"image-keyboard-response",104,96742,"0.0-4.30-2.30","25sybe6b9tou51f",382,"67.csv","","null","resources/images/coin2.png","null","",NA,NA,NA,NA,""
"image-keyboard-response",105,97105,"0.0-4.31-0.31","25sybe6b9tou51f",382,"67.csv","","361.90000000596046","resources/trios/L4T2A2.jpg","38","restless",0.5,0.6,0.3,0.541704071709949,"true"
"image-keyboard-response",106,97508,"0.0-4.31-1.31","25sybe6b9tou51f",382,"67.csv","","null","resources/maskTrios/BT2B.jpg","null","",NA,NA,NA,NA,""
"image-keyboard-response",107,98711,"0.0-4.31-2.31","25sybe6b9tou51f",382,"67.csv","","null","resources/images/coin2.png","null","",NA,NA,NA,NA,""
"image-keyboard-response",108,99066,"0.0-4.32-0.32","25sybe6b9tou51f",382,"67.csv","","354.59999999403954","resources/trios/L4T2A2.jpg","38","restless",0.5,0.6,0.3,0.802220902010734,"false"
"image-keyboard-response",109,99469,"0.0-4.32-1.32","25sybe6b9tou51f",382,"67.csv","","null","resources/maskTrios/BT2B.jpg","null","",NA,NA,NA,NA,""
"image-keyboard-response",110,100671,"0.0-4.32-2.32","25sybe6b9tou51f",382,"67.csv","","null","resources/images/fishbone.png","null","",NA,NA,NA,NA,""
"image-keyboard-response",111,100874,"0.0-4.33-0.33","25sybe6b9tou51f",382,"67.csv","","202","resources/trios/L4T2A2.jpg","39","restless",0.5,0.6,0.3,0.371591053159922,"false"
"image-keyboard-response",112,101277,"0.0-4.33-1.33","25sybe6b9tou51f",382,"67.csv","","null","resources/maskTrios/BBA2.jpg","null","",NA,NA,NA,NA,""
"image-keyboard-response",113,102478,"0.0-4.33-2.33","25sybe6b9tou51f",382,"67.csv","","null","resources/images/fishbone.png","null","",NA,NA,NA,NA,""
"image-keyboard-response",114,102825,"0.0-4.34-0.34","25sybe6b9tou51f",382,"67.csv","","346.40000000596046","resources/trios/L4T2A2.jpg","39","restless",0.5,0.6,0.3,0.061420757849634,"true"
"image-keyboard-response",115,103229,"0.0-4.34-1.34","25sybe6b9tou51f",382,"67.csv","","null","resources/maskTrios/BBA2.jpg","null","",NA,NA,NA,NA,""
"image-keyboard-response",116,104430,"0.0-4.34-2.34","25sybe6b9tou51f",382,"67.csv","","null","resources/images/coin2.png","null","",NA,NA,NA,NA,""
"image-keyboard-response",117,104722,"0.0-4.35-0.35","25sybe6b9tou51f",382,"67.csv","","290.80000001192093","resources/trios/L4T2A2.jpg","38","restless",0.6,0.5,0.3,0.714502563467302,"false"
"image-keyboard-response",118,105125,"0.0-4.35-1.35","25sybe6b9tou51f",382,"67.csv","","null","resources/maskTrios/BT2B.jpg","null","",NA,NA,NA,NA,""
"image-keyboard-response",119,106327,"0.0-4.35-2.35","25sybe6b9tou51f",382,"67.csv","","null","resources/images/fishbone.png","null","",NA,NA,NA,NA,""
"image-keyboard-response",120,106361,"0.0-4.36-0.36","25sybe6b9tou51f",382,"67.csv","","33","resources/trios/L4T2A2.jpg","37","restless",0.6,0.5,0.3,0.984034844592171,"false"
"image-keyboard-response",121,106762,"0.0-4.36-1.36","25sybe6b9tou51f",382,"67.csv","","null","resources/maskTrios/L4BB.jpg","null","",NA,NA,NA,NA,""
"image-keyboard-response",122,107964,"0.0-4.36-2.36","25sybe6b9tou51f",382,"67.csv","","null","resources/images/fishbone.png","null","",NA,NA,NA,NA,""
"image-keyboard-response",123,108106,"0.0-4.37-0.37","25sybe6b9tou51f",382,"67.csv","","140.80000001192093","resources/trios/L4T2A2.jpg","37","restless",0.6,0.5,0.3,0.904808349411935,"false"
"image-keyboard-response",124,108509,"0.0-4.37-1.37","25sybe6b9tou51f",382,"67.csv","","null","resources/maskTrios/L4BB.jpg","null","",NA,NA,NA,NA,""
"image-keyboard-response",125,109711,"0.0-4.37-2.37","25sybe6b9tou51f",382,"67.csv","","null","resources/images/fishbone.png","null","",NA,NA,NA,NA,""
"image-keyboard-response",126,109978,"0.0-4.38-0.38","25sybe6b9tou51f",382,"67.csv","","266.69999998807907","resources/trios/L4T2A2.jpg","37","restless",0.6,0.5,0.3,0.171325703796882,"true"
"image-keyboard-response",127,110379,"0.0-4.38-1.38","25sybe6b9tou51f",382,"67.csv","","null","resources/maskTrios/L4BB.jpg","null","",NA,NA,NA,NA,""
"image-keyboard-response",128,111581,"0.0-4.38-2.38","25sybe6b9tou51f",382,"67.csv","","null","resources/images/coin2.png","null","",NA,NA,NA,NA,""
"image-keyboard-response",129,111849,"0.0-4.39-0.39","25sybe6b9tou51f",382,"67.csv","","267.29999999701977","resources/trios/L4T2A2.jpg","37","restless",0.6,0.5,0.3,0.866085224444934,"false"
"image-keyboard-response",130,112252,"0.0-4.39-1.39","25sybe6b9tou51f",382,"67.csv","","null","resources/maskTrios/L4BB.jpg","null","",NA,NA,NA,NA,""
"image-keyboard-response",131,113454,"0.0-4.39-2.39","25sybe6b9tou51f",382,"67.csv","","null","resources/images/fishbone.png","null","",NA,NA,NA,NA,""
"image-keyboard-response",132,113697,"0.0-4.40-0.40","25sybe6b9tou51f",382,"67.csv","","242.20000000298023","resources/trios/L4T2A2.jpg","38","restless",0.6,0.5,0.4,0.150121705230996,"true"
"image-keyboard-response",133,114099,"0.0-4.40-1.40","25sybe6b9tou51f",382,"67.csv","","null","resources/maskTrios/BT2B.jpg","null","",NA,NA,NA,NA,""
"image-keyboard-response",134,115302,"0.0-4.40-2.40","25sybe6b9tou51f",382,"67.csv","","null","resources/images/coin2.png","null","",NA,NA,NA,NA,""
"image-keyboard-response",135,115434,"0.0-4.41-0.41","25sybe6b9tou51f",382,"67.csv","","131","resources/trios/L4T2A2.jpg","38","restless",0.6,0.5,0.4,0.75797683172677,"false"
"image-keyboard-response",136,115835,"0.0-4.41-1.41","25sybe6b9tou51f",382,"67.csv","","null","resources/maskTrios/BT2B.jpg","null","",NA,NA,NA,NA,""
"image-keyboard-response",137,117036,"0.0-4.41-2.41","25sybe6b9tou51f",382,"67.csv","","null","resources/images/fishbone.png","null","",NA,NA,NA,NA,""
"image-keyboard-response",138,117297,"0.0-4.42-0.42","25sybe6b9tou51f",382,"67.csv","","259.1000000089407","resources/trios/L4T2A2.jpg","38","restless",0.6,0.5,0.4,0.372540437568206,"true"
"image-keyboard-response",139,117698,"0.0-4.42-1.42","25sybe6b9tou51f",382,"67.csv","","null","resources/maskTrios/BT2B.jpg","null","",NA,NA,NA,NA,""
"image-keyboard-response",140,118899,"0.0-4.42-2.42","25sybe6b9tou51f",382,"67.csv","","null","resources/images/coin2.png","null","",NA,NA,NA,NA,""
"image-keyboard-response",141,119177,"0.0-4.43-0.43","25sybe6b9tou51f",382,"67.csv","","276.8999999910593","resources/trios/L4T2A2.jpg","38","restless",0.6,0.5,0.4,0.83164918523694,"false"
"image-keyboard-response",142,119579,"0.0-4.43-1.43","25sybe6b9tou51f",382,"67.csv","","null","resources/maskTrios/BT2B.jpg","null","",NA,NA,NA,NA,""
"image-keyboard-response",143,120780,"0.0-4.43-2.43","25sybe6b9tou51f",382,"67.csv","","null","resources/images/fishbone.png","null","",NA,NA,NA,NA,""
"image-keyboard-response",144,120849,"0.0-4.44-0.44","25sybe6b9tou51f",382,"67.csv","","68.1000000089407","resources/trios/L4T2A2.jpg","39","restless",0.6,0.5,0.4,0.456529506638962,"false"
"image-keyboard-response",145,121250,"0.0-4.44-1.44","25sybe6b9tou51f",382,"67.csv","","null","resources/maskTrios/BBA2.jpg","null","",NA,NA,NA,NA,""
"image-keyboard-response",146,122452,"0.0-4.44-2.44","25sybe6b9tou51f",382,"67.csv","","null","resources/images/fishbone.png","null","",NA,NA,NA,NA,""
"image-keyboard-response",147,122457,"0.0-4.45-0.45","25sybe6b9tou51f",382,"67.csv","","4.0999999940395355","resources/trios/L4T2A2.jpg","39","restless",0.6,0.5,0.4,0.107526773129898,"true"
"image-keyboard-response",148,122860,"0.0-4.45-1.45","25sybe6b9tou51f",382,"67.csv","","null","resources/maskTrios/BBA2.jpg","null","",NA,NA,NA,NA,""
"image-keyboard-response",149,124062,"0.0-4.45-2.45","25sybe6b9tou51f",382,"67.csv","","null","resources/images/coin2.png","null","",NA,NA,NA,NA,""
"image-keyboard-response",150,124368,"0.0-4.46-0.46","25sybe6b9tou51f",382,"67.csv","","304.79999999701977","resources/trios/L4T2A2.jpg","39","restless",0.6,0.5,0.4,0.226781435967803,"true"
"image-keyboard-response",151,124770,"0.0-4.46-1.46","25sybe6b9tou51f",382,"67.csv","","null","resources/maskTrios/BBA2.jpg","null","",NA,NA,NA,NA,""
"image-keyboard-response",152,125972,"0.0-4.46-2.46","25sybe6b9tou51f",382,"67.csv","","null","resources/images/coin2.png","null","",NA,NA,NA,NA,""
"image-keyboard-response",153,126544,"0.0-4.47-0.47","25sybe6b9tou51f",382,"67.csv","","571.4000000059605","resources/trios/L4T2A2.jpg","39","restless",0.6,0.5,0.4,0.821292594698239,"false"
"image-keyboard-response",154,126946,"0.0-4.47-1.47","25sybe6b9tou51f",382,"67.csv","","null","resources/maskTrios/BBA2.jpg","null","",NA,NA,NA,NA,""
"image-keyboard-response",155,128147,"0.0-4.47-2.47","25sybe6b9tou51f",382,"67.csv","","null","resources/images/fishbone.png","null","",NA,NA,NA,NA,""
"image-keyboard-response",156,128488,"0.0-4.48-0.48","25sybe6b9tou51f",382,"67.csv","","340.3999999910593","resources/trios/L4T2A2.jpg","37","restless",0.6,0.5,0.4,0.758050772996987,"false"
"image-keyboard-response",157,128891,"0.0-4.48-1.48","25sybe6b9tou51f",382,"67.csv","","null","resources/maskTrios/L4BB.jpg","null","",NA,NA,NA,NA,""
"image-keyboard-response",158,130093,"0.0-4.48-2.48","25sybe6b9tou51f",382,"67.csv","","null","resources/images/fishbone.png","null","",NA,NA,NA,NA,""
"image-keyboard-response",159,130265,"0.0-4.49-0.49","25sybe6b9tou51f",382,"67.csv","","170.70000000298023","resources/trios/L4T2A2.jpg","37","restless",0.6,0.5,0.4,0.197396210984099,"true"
"image-keyboard-response",160,130666,"0.0-4.49-1.49","25sybe6b9tou51f",382,"67.csv","","null","resources/maskTrios/L4BB.jpg","null","",NA,NA,NA,NA,""
"image-keyboard-response",161,131868,"0.0-4.49-2.49","25sybe6b9tou51f",382,"67.csv","","null","resources/images/coin2.png","null","",NA,NA,NA,NA,""
"image-keyboard-response",162,132313,"0.0-4.50-0.50","25sybe6b9tou51f",382,"67.csv","","444","resources/trios/L4T2A2.jpg","37","restless",0.6,0.5,0.4,0.226871709696779,"true"
"image-keyboard-response",163,132715,"0.0-4.50-1.50","25sybe6b9tou51f",382,"67.csv","","null","resources/maskTrios/L4BB.jpg","null","",NA,NA,NA,NA,""
"image-keyboard-response",164,133916,"0.0-4.50-2.50","25sybe6b9tou51f",382,"67.csv","","null","resources/images/coin2.png","null","",NA,NA,NA,NA,""
"image-keyboard-response",165,134353,"0.0-4.51-0.51","25sybe6b9tou51f",382,"67.csv","","435.5","resources/trios/L4T2A2.jpg","38","restless",0.7,0.5,0.4,0.953363405400354,"false"
"image-keyboard-response",166,134754,"0.0-4.51-1.51","25sybe6b9tou51f",382,"67.csv","","null","resources/maskTrios/BT2B.jpg","null","",NA,NA,NA,NA,""
"image-keyboard-response",167,135957,"0.0-4.51-2.51","25sybe6b9tou51f",382,"67.csv","","null","resources/images/fishbone.png","null","",NA,NA,NA,NA,""
"image-keyboard-response",168,136433,"0.0-4.52-0.52","25sybe6b9tou51f",382,"67.csv","","474.29999999701977","resources/trios/L4T2A2.jpg","37","restless",0.7,0.5,0.5,0.66773610387494,"true"
"image-keyboard-response",169,136835,"0.0-4.52-1.52","25sybe6b9tou51f",382,"67.csv","","null","resources/maskTrios/L4BB.jpg","null","",NA,NA,NA,NA,""
"image-keyboard-response",170,138036,"0.0-4.52-2.52","25sybe6b9tou51f",382,"67.csv","","null","resources/images/coin2.png","null","",NA,NA,NA,NA,""
"image-keyboard-response",171,138145,"0.0-4.53-0.53","25sybe6b9tou51f",382,"67.csv","","107.40000000596046","resources/trios/L4T2A2.jpg","38","restless",0.7,0.5,0.5,0.798404055943889,"false"
"image-keyboard-response",172,138548,"0.0-4.53-1.53","25sybe6b9tou51f",382,"67.csv","","null","resources/maskTrios/BT2B.jpg","null","",NA,NA,NA,NA,""
"image-keyboard-response",173,139750,"0.0-4.53-2.53","25sybe6b9tou51f",382,"67.csv","","null","resources/images/fishbone.png","null","",NA,NA,NA,NA,""
"image-keyboard-response",174,140160,"0.0-4.54-0.54","25sybe6b9tou51f",382,"67.csv","","409.29999999701977","resources/trios/L4T2A2.jpg","37","restless",0.7,0.5,0.5,0.933824621103108,"false"
"image-keyboard-response",175,140563,"0.0-4.54-1.54","25sybe6b9tou51f",382,"67.csv","","null","resources/maskTrios/L4BB.jpg","null","",NA,NA,NA,NA,""
"image-keyboard-response",176,141766,"0.0-4.54-2.54","25sybe6b9tou51f",382,"67.csv","","null","resources/images/fishbone.png","null","",NA,NA,NA,NA,""
"image-keyboard-response",177,142056,"0.0-4.55-0.55","25sybe6b9tou51f",382,"67.csv","","289.5","resources/trios/L4T2A2.jpg","37","restless",0.6,0.6,0.5,0.607861236076593,"false"
"image-keyboard-response",178,142458,"0.0-4.55-1.55","25sybe6b9tou51f",382,"67.csv","","null","resources/maskTrios/L4BB.jpg","null","",NA,NA,NA,NA,""
"image-keyboard-response",179,143659,"0.0-4.55-2.55","25sybe6b9tou51f",382,"67.csv","","null","resources/images/fishbone.png","null","",NA,NA,NA,NA,""
"image-keyboard-response",180,143929,"0.0-4.56-0.56","25sybe6b9tou51f",382,"67.csv","","269","resources/trios/L4T2A2.jpg","37","restless",0.6,0.6,0.5,0.962822227019374,"false"
"image-keyboard-response",181,144331,"0.0-4.56-1.56","25sybe6b9tou51f",382,"67.csv","","null","resources/maskTrios/L4BB.jpg","null","",NA,NA,NA,NA,""
"image-keyboard-response",182,145534,"0.0-4.56-2.56","25sybe6b9tou51f",382,"67.csv","","null","resources/images/fishbone.png","null","",NA,NA,NA,NA,""
"image-keyboard-response",183,145688,"0.0-4.57-0.57","25sybe6b9tou51f",382,"67.csv","","152.90000000596046","resources/trios/L4T2A2.jpg","37","restless",0.6,0.7,0.5,0.553706175815621,"true"
"image-keyboard-response",184,146089,"0.0-4.57-1.57","25sybe6b9tou51f",382,"67.csv","","null","resources/maskTrios/L4BB.jpg","null","",NA,NA,NA,NA,""
"image-keyboard-response",185,147291,"0.0-4.57-2.57","25sybe6b9tou51f",382,"67.csv","","null","resources/images/coin2.png","null","",NA,NA,NA,NA,""
"image-keyboard-response",186,147688,"0.0-4.58-0.58","25sybe6b9tou51f",382,"67.csv","","395.90000000596046","resources/trios/L4T2A2.jpg","39","restless",0.6,0.7,0.5,0.0322037501212802,"true"
"image-keyboard-response",187,148091,"0.0-4.58-1.58","25sybe6b9tou51f",382,"67.csv","","null","resources/maskTrios/BBA2.jpg","null","",NA,NA,NA,NA,""
"image-keyboard-response",188,149293,"0.0-4.58-2.58","25sybe6b9tou51f",382,"67.csv","","null","resources/images/coin2.png","null","",NA,NA,NA,NA,""
"image-keyboard-response",189,149567,"0.0-4.59-0.59","25sybe6b9tou51f",382,"67.csv","","273.30000001192093","resources/trios/L4T2A2.jpg","39","restless",0.7,0.8,0.5,0.259364539916054,"true"
"image-keyboard-response",190,149969,"0.0-4.59-1.59","25sybe6b9tou51f",382,"67.csv","","null","resources/maskTrios/BBA2.jpg","null","",NA,NA,NA,NA,""
"image-keyboard-response",191,151171,"0.0-4.59-2.59","25sybe6b9tou51f",382,"67.csv","","null","resources/images/coin2.png","null","",NA,NA,NA,NA,""
"image-keyboard-response",192,151495,"0.0-4.60-0.60","25sybe6b9tou51f",382,"67.csv","","323.59999999403954","resources/trios/L4T2A2.jpg","39","restless",0.7,0.8,0.5,0.324525867417346,"true"
"image-keyboard-response",193,151898,"0.0-4.60-1.60","25sybe6b9tou51f",382,"67.csv","","null","resources/maskTrios/BBA2.jpg","null","",NA,NA,NA,NA,""
"image-keyboard-response",194,153101,"0.0-4.60-2.60","25sybe6b9tou51f",382,"67.csv","","null","resources/images/coin2.png","null","",NA,NA,NA,NA,""
"image-keyboard-response",195,153399,"0.0-4.61-0.61","25sybe6b9tou51f",382,"67.csv","","297.6000000089407","resources/trios/L4T2A2.jpg","38","restless",0.7,0.9,0.5,0.080276326011349,"true"
"image-keyboard-response",196,153802,"0.0-4.61-1.61","25sybe6b9tou51f",382,"67.csv","","null","resources/maskTrios/BT2B.jpg","null","",NA,NA,NA,NA,""
"image-keyboard-response",197,155004,"0.0-4.61-2.61","25sybe6b9tou51f",382,"67.csv","","null","resources/images/coin2.png","null","",NA,NA,NA,NA,""
"image-keyboard-response",198,155320,"0.0-4.62-0.62","25sybe6b9tou51f",382,"67.csv","","315.09999999403954","resources/trios/L4T2A2.jpg","39","restless",0.7,0.9,0.5,0.744903483165758,"false"
"image-keyboard-response",199,155722,"0.0-4.62-1.62","25sybe6b9tou51f",382,"67.csv","","null","resources/maskTrios/BBA2.jpg","null","",NA,NA,NA,NA,""
"image-keyboard-response",200,156924,"0.0-4.62-2.62","25sybe6b9tou51f",382,"67.csv","","null","resources/images/fishbone.png","null","",NA,NA,NA,NA,""
"image-keyboard-response",201,157168,"0.0-4.63-0.63","25sybe6b9tou51f",382,"67.csv","","243.1000000089407","resources/trios/L4T2A2.jpg","39","restless",0.7,0.9,0.5,0.800236098623576,"false"
"image-keyboard-response",202,157569,"0.0-4.63-1.63","25sybe6b9tou51f",382,"67.csv","","null","resources/maskTrios/BBA2.jpg","null","",NA,NA,NA,NA,""
"image-keyboard-response",203,158770,"0.0-4.63-2.63","25sybe6b9tou51f",382,"67.csv","","null","resources/images/fishbone.png","null","",NA,NA,NA,NA,""
"image-keyboard-response",204,159048,"0.0-4.64-0.64","25sybe6b9tou51f",382,"67.csv","","276.20000000298023","resources/trios/L4T2A2.jpg","37","restless",0.7,0.9,0.5,0.312738233997278,"true"
"image-keyboard-response",205,159450,"0.0-4.64-1.64","25sybe6b9tou51f",382,"67.csv","","null","resources/maskTrios/L4BB.jpg","null","",NA,NA,NA,NA,""
"image-keyboard-response",206,160652,"0.0-4.64-2.64","25sybe6b9tou51f",382,"67.csv","","null","resources/images/coin2.png","null","",NA,NA,NA,NA,""
"image-keyboard-response",207,161008,"0.0-4.65-0.65","25sybe6b9tou51f",382,"67.csv","","354.79999999701977","resources/trios/L4T2A2.jpg","37","restless",0.7,0.9,0.5,0.672310883604256,"true"
"image-keyboard-response",208,161410,"0.0-4.65-1.65","25sybe6b9tou51f",382,"67.csv","","null","resources/maskTrios/L4BB.jpg","null","",NA,NA,NA,NA,""
"image-keyboard-response",209,162613,"0.0-4.65-2.65","25sybe6b9tou51f",382,"67.csv","","null","resources/images/coin2.png","null","",NA,NA,NA,NA,""
"image-keyboard-response",210,162887,"0.0-4.66-0.66","25sybe6b9tou51f",382,"67.csv","","273.70000000298023","resources/trios/L4T2A2.jpg","38","restless",0.7,0.9,0.4,0.982673392788945,"false"
"image-keyboard-response",211,163290,"0.0-4.66-1.66","25sybe6b9tou51f",382,"67.csv","","null","resources/maskTrios/BT2B.jpg","null","",NA,NA,NA,NA,""
"image-keyboard-response",212,164492,"0.0-4.66-2.66","25sybe6b9tou51f",382,"67.csv","","null","resources/images/fishbone.png","null","",NA,NA,NA,NA,""
"image-keyboard-response",213,164847,"0.0-4.67-0.67","25sybe6b9tou51f",382,"67.csv","","354.1000000089407","resources/trios/L4T2A2.jpg","38","restless",0.7,0.8,0.4,0.0155744309679782,"true"
"image-keyboard-response",214,165250,"0.0-4.67-1.67","25sybe6b9tou51f",382,"67.csv","","null","resources/maskTrios/BT2B.jpg","null","",NA,NA,NA,NA,""
"image-keyboard-response",215,166452,"0.0-4.67-2.67","25sybe6b9tou51f",382,"67.csv","","null","resources/images/coin2.png","null","",NA,NA,NA,NA,""
"image-keyboard-response",216,166760,"0.0-4.68-0.68","25sybe6b9tou51f",382,"67.csv","","306.20000000298023","resources/trios/L4T2A2.jpg","37","restless",0.7,0.8,0.4,0.698259573605496,"true"
"image-keyboard-response",217,167163,"0.0-4.68-1.68","25sybe6b9tou51f",382,"67.csv","","null","resources/maskTrios/L4BB.jpg","null","",NA,NA,NA,NA,""
"image-keyboard-response",218,168365,"0.0-4.68-2.68","25sybe6b9tou51f",382,"67.csv","","null","resources/images/coin2.png","null","",NA,NA,NA,NA,""
"image-keyboard-response",219,168655,"0.0-4.69-0.69","25sybe6b9tou51f",382,"67.csv","","289.20000000298023","resources/trios/L4T2A2.jpg","37","restless",0.7,0.8,0.4,0.855385172676236,"false"
"image-keyboard-response",220,169056,"0.0-4.69-1.69","25sybe6b9tou51f",382,"67.csv","","null","resources/maskTrios/L4BB.jpg","null","",NA,NA,NA,NA,""
"image-keyboard-response",221,170257,"0.0-4.69-2.69","25sybe6b9tou51f",382,"67.csv","","null","resources/images/fishbone.png","null","",NA,NA,NA,NA,""
"image-keyboard-response",222,170766,"0.0-4.70-0.70","25sybe6b9tou51f",382,"67.csv","","507.80000001192093","resources/trios/L4T2A2.jpg","37","restless",0.7,0.8,0.4,0.0449384497514713,"true"
"image-keyboard-response",223,171168,"0.0-4.70-1.70","25sybe6b9tou51f",382,"67.csv","","null","resources/maskTrios/L4BB.jpg","null","",NA,NA,NA,NA,""
"image-keyboard-response",224,172369,"0.0-4.70-2.70","25sybe6b9tou51f",382,"67.csv","","null","resources/images/coin2.png","null","",NA,NA,NA,NA,""
"image-keyboard-response",225,172392,"0.0-4.71-0.71","25sybe6b9tou51f",382,"67.csv","","21.100000008940697","resources/trios/L4T2A2.jpg","38","restless",0.7,0.8,0.4,0.423738107131111,"true"
"image-keyboard-response",226,172794,"0.0-4.71-1.71","25sybe6b9tou51f",382,"67.csv","","null","resources/maskTrios/BT2B.jpg","null","",NA,NA,NA,NA,""
"image-keyboard-response",227,173995,"0.0-4.71-2.71","25sybe6b9tou51f",382,"67.csv","","null","resources/images/coin2.png","null","",NA,NA,NA,NA,""
"image-keyboard-response",228,174261,"0.0-4.72-0.72","25sybe6b9tou51f",382,"67.csv","","265.59999999403954","resources/trios/L4T2A2.jpg","38","restless",0.6,0.8,0.4,0.694378680354273,"true"
"image-keyboard-response",229,174663,"0.0-4.72-1.72","25sybe6b9tou51f",382,"67.csv","","null","resources/maskTrios/BT2B.jpg","null","",NA,NA,NA,NA,""
"image-keyboard-response",230,175864,"0.0-4.72-2.72","25sybe6b9tou51f",382,"67.csv","","null","resources/images/coin2.png","null","",NA,NA,NA,NA,""
"image-keyboard-response",231,176126,"0.0-4.73-0.73","25sybe6b9tou51f",382,"67.csv","","260.6000000089407","resources/trios/L4T2A2.jpg","38","restless",0.6,0.8,0.4,0.379352151818329,"true"
"image-keyboard-response",232,176528,"0.0-4.73-1.73","25sybe6b9tou51f",382,"67.csv","","null","resources/maskTrios/BT2B.jpg","null","",NA,NA,NA,NA,""
"image-keyboard-response",233,177730,"0.0-4.73-2.73","25sybe6b9tou51f",382,"67.csv","","null","resources/images/coin2.png","null","",NA,NA,NA,NA,""
"image-keyboard-response",234,177855,"0.0-4.74-0.74","25sybe6b9tou51f",382,"67.csv","","124","resources/trios/L4T2A2.jpg","38","restless",0.6,0.8,0.4,0.0356810247027803,"true"
"image-keyboard-response",235,178257,"0.0-4.74-1.74","25sybe6b9tou51f",382,"67.csv","","null","resources/maskTrios/BT2B.jpg","null","",NA,NA,NA,NA,""
"image-keyboard-response",236,179459,"0.0-4.74-2.74","25sybe6b9tou51f",382,"67.csv","","null","resources/images/coin2.png","null","",NA,NA,NA,NA,""
"image-keyboard-response",237,179623,"0.0-4.75-0.75","25sybe6b9tou51f",382,"67.csv","","162.40000000596046","resources/trios/L4T2A2.jpg","38","restless",0.6,0.8,0.4,0.688653776523193,"true"
"image-keyboard-response",238,180025,"0.0-4.75-1.75","25sybe6b9tou51f",382,"67.csv","","null","resources/maskTrios/BT2B.jpg","null","",NA,NA,NA,NA,""
"image-keyboard-response",239,181227,"0.0-4.75-2.75","25sybe6b9tou51f",382,"67.csv","","null","resources/images/coin2.png","null","",NA,NA,NA,NA,""
"image-keyboard-response",240,181447,"0.0-4.76-0.76","25sybe6b9tou51f",382,"67.csv","","219","resources/trios/L4T2A2.jpg","38","restless",0.6,0.8,0.4,0.422990763295815,"true"
"image-keyboard-response",241,181849,"0.0-4.76-1.76","25sybe6b9tou51f",382,"67.csv","","null","resources/maskTrios/BT2B.jpg","null","",NA,NA,NA,NA,""
"image-keyboard-response",242,183052,"0.0-4.76-2.76","25sybe6b9tou51f",382,"67.csv","","null","resources/images/coin2.png","null","",NA,NA,NA,NA,""
"image-keyboard-response",243,183326,"0.0-4.77-0.77","25sybe6b9tou51f",382,"67.csv","","273.5","resources/trios/L4T2A2.jpg","38","restless",0.6,0.8,0.4,0.608234015432006,"true"
"image-keyboard-response",244,183728,"0.0-4.77-1.77","25sybe6b9tou51f",382,"67.csv","","null","resources/maskTrios/BT2B.jpg","null","",NA,NA,NA,NA,""
"image-keyboard-response",245,184929,"0.0-4.77-2.77","25sybe6b9tou51f",382,"67.csv","","null","resources/images/coin2.png","null","",NA,NA,NA,NA,""
"image-keyboard-response",246,185175,"0.0-4.78-0.78","25sybe6b9tou51f",382,"67.csv","","244.1000000089407","resources/trios/L4T2A2.jpg","38","restless",0.6,0.8,0.5,0.331597647281978,"true"
"image-keyboard-response",247,185576,"0.0-4.78-1.78","25sybe6b9tou51f",382,"67.csv","","null","resources/maskTrios/BT2B.jpg","null","",NA,NA,NA,NA,""
"image-keyboard-response",248,186778,"0.0-4.78-2.78","25sybe6b9tou51f",382,"67.csv","","null","resources/images/coin2.png","null","",NA,NA,NA,NA,""
"image-keyboard-response",249,187047,"0.0-4.79-0.79","25sybe6b9tou51f",382,"67.csv","","268","resources/trios/L4T2A2.jpg","38","restless",0.6,0.8,0.5,0.211301335090355,"true"
"image-keyboard-response",250,187449,"0.0-4.79-1.79","25sybe6b9tou51f",382,"67.csv","","null","resources/maskTrios/BT2B.jpg","null","",NA,NA,NA,NA,""
"image-keyboard-response",251,188651,"0.0-4.79-2.79","25sybe6b9tou51f",382,"67.csv","","null","resources/images/coin2.png","null","",NA,NA,NA,NA,""
"image-keyboard-response",252,188726,"0.0-4.80-0.80","25sybe6b9tou51f",382,"67.csv","","73.5","resources/trios/L4T2A2.jpg","38","restless",0.6,0.8,0.5,0.0688754442152879,"true"
"image-keyboard-response",253,189127,"0.0-4.80-1.80","25sybe6b9tou51f",382,"67.csv","","null","resources/maskTrios/BT2B.jpg","null","",NA,NA,NA,NA,""
"image-keyboard-response",254,190329,"0.0-4.80-2.80","25sybe6b9tou51f",382,"67.csv","","null","resources/images/coin2.png","null","",NA,NA,NA,NA,""
"image-keyboard-response",255,190606,"0.0-4.81-0.81","25sybe6b9tou51f",382,"67.csv","","275.40000000596046","resources/trios/L4T2A2.jpg","38","restless",0.6,0.7,0.5,0.963915355516569,"false"
"image-keyboard-response",256,191007,"0.0-4.81-1.81","25sybe6b9tou51f",382,"67.csv","","null","resources/maskTrios/BT2B.jpg","null","",NA,NA,NA,NA,""
"image-keyboard-response",257,192208,"0.0-4.81-2.81","25sybe6b9tou51f",382,"67.csv","","null","resources/images/fishbone.png","null","",NA,NA,NA,NA,""
"image-keyboard-response",258,192614,"0.0-4.82-0.82","25sybe6b9tou51f",382,"67.csv","","404.40000000596046","resources/trios/L4T2A2.jpg","37","restless",0.6,0.7,0.5,0.790616840417833,"false"
"image-keyboard-response",259,193017,"0.0-4.82-1.82","25sybe6b9tou51f",382,"67.csv","","null","resources/maskTrios/L4BB.jpg","null","",NA,NA,NA,NA,""
"image-keyboard-response",260,194219,"0.0-4.82-2.82","25sybe6b9tou51f",382,"67.csv","","null","resources/images/fishbone.png","null","",NA,NA,NA,NA,""
"image-keyboard-response",261,194439,"0.0-4.83-0.83","25sybe6b9tou51f",382,"67.csv","","218.3999999910593","resources/trios/L4T2A2.jpg","37","restless",0.6,0.7,0.5,0.137134469468996,"true"
"image-keyboard-response",262,194840,"0.0-4.83-1.83","25sybe6b9tou51f",382,"67.csv","","null","resources/maskTrios/L4BB.jpg","null","",NA,NA,NA,NA,""
"image-keyboard-response",263,196042,"0.0-4.83-2.83","25sybe6b9tou51f",382,"67.csv","","null","resources/images/coin2.png","null","",NA,NA,NA,NA,""
"image-keyboard-response",264,196334,"0.0-4.84-0.84","25sybe6b9tou51f",382,"67.csv","","291","resources/trios/L4T2A2.jpg","37","restless",0.5,0.7,0.5,0.921098374890124,"false"
"image-keyboard-response",265,196737,"0.0-4.84-1.84","25sybe6b9tou51f",382,"67.csv","","null","resources/maskTrios/L4BB.jpg","null","",NA,NA,NA,NA,""
"image-keyboard-response",266,197939,"0.0-4.84-2.84","25sybe6b9tou51f",382,"67.csv","","null","resources/images/fishbone.png","null","",NA,NA,NA,NA,""
"image-keyboard-response",267,198238,"0.0-4.85-0.85","25sybe6b9tou51f",382,"67.csv","","297.19999998807907","resources/trios/L4T2A2.jpg","37","restless",0.5,0.7,0.5,0.0938159224898363,"true"
"image-keyboard-response",268,198640,"0.0-4.85-1.85","25sybe6b9tou51f",382,"67.csv","","null","resources/maskTrios/L4BB.jpg","null","",NA,NA,NA,NA,""
"image-keyboard-response",269,199842,"0.0-4.85-2.85","25sybe6b9tou51f",382,"67.csv","","null","resources/images/coin2.png","null","",NA,NA,NA,NA,""
"image-keyboard-response",270,200221,"0.0-4.86-0.86","25sybe6b9tou51f",382,"67.csv","","377.8999999910593","resources/trios/L4T2A2.jpg","37","restless",0.4,0.7,0.5,0.383990225195794,"true"
"image-keyboard-response",271,200623,"0.0-4.86-1.86","25sybe6b9tou51f",382,"67.csv","","null","resources/maskTrios/L4BB.jpg","null","",NA,NA,NA,NA,""
"image-keyboard-response",272,201825,"0.0-4.86-2.86","25sybe6b9tou51f",382,"67.csv","","null","resources/images/coin2.png","null","",NA,NA,NA,NA,""
"image-keyboard-response",273,202126,"0.0-4.87-0.87","25sybe6b9tou51f",382,"67.csv","","300.5","resources/trios/L4T2A2.jpg","37","restless",0.4,0.7,0.5,0.641481200331452,"false"
"image-keyboard-response",274,202528,"0.0-4.87-1.87","25sybe6b9tou51f",382,"67.csv","","null","resources/maskTrios/L4BB.jpg","null","",NA,NA,NA,NA,""
"image-keyboard-response",275,203731,"0.0-4.87-2.87","25sybe6b9tou51f",382,"67.csv","","null","resources/images/fishbone.png","null","",NA,NA,NA,NA,""
"image-keyboard-response",276,203990,"0.0-4.88-0.88","25sybe6b9tou51f",382,"67.csv","","258.70000000298023","resources/trios/L4T2A2.jpg","39","restless",0.4,0.7,0.5,0.654882016296537,"false"
"image-keyboard-response",277,204392,"0.0-4.88-1.88","25sybe6b9tou51f",382,"67.csv","","null","resources/maskTrios/BBA2.jpg","null","",NA,NA,NA,NA,""
"image-keyboard-response",278,205594,"0.0-4.88-2.88","25sybe6b9tou51f",382,"67.csv","","null","resources/images/fishbone.png","null","",NA,NA,NA,NA,""
"image-keyboard-response",279,205622,"0.0-4.89-0.89","25sybe6b9tou51f",382,"67.csv","","26.700000002980232","resources/trios/L4T2A2.jpg","39","restless",0.4,0.7,0.5,0.368507443189838,"true"
"image-keyboard-response",280,206024,"0.0-4.89-1.89","25sybe6b9tou51f",382,"67.csv","","null","resources/maskTrios/BBA2.jpg","null","",NA,NA,NA,NA,""
"image-keyboard-response",281,207226,"0.0-4.89-2.89","25sybe6b9tou51f",382,"67.csv","","null","resources/images/coin2.png","null","",NA,NA,NA,NA,""
"image-keyboard-response",282,207517,"0.0-4.90-0.90","25sybe6b9tou51f",382,"67.csv","","290.20000000298023","resources/trios/L4T2A2.jpg","39","restless",0.4,0.7,0.5,0.125959102429234,"true"
"image-keyboard-response",283,207920,"0.0-4.90-1.90","25sybe6b9tou51f",382,"67.csv","","null","resources/maskTrios/BBA2.jpg","null","",NA,NA,NA,NA,""
"image-keyboard-response",284,209123,"0.0-4.90-2.90","25sybe6b9tou51f",382,"67.csv","","null","resources/images/coin2.png","null","",NA,NA,NA,NA,""
"image-keyboard-response",285,209422,"0.0-4.91-0.91","25sybe6b9tou51f",382,"67.csv","","297.79999999701977","resources/trios/L4T2A2.jpg","39","restless",0.4,0.7,0.5,0.589259465527831,"false"
"image-keyboard-response",286,209824,"0.0-4.91-1.91","25sybe6b9tou51f",382,"67.csv","","null","resources/maskTrios/BBA2.jpg","null","",NA,NA,NA,NA,""
"image-keyboard-response",287,211025,"0.0-4.91-2.91","25sybe6b9tou51f",382,"67.csv","","null","resources/images/fishbone.png","null","",NA,NA,NA,NA,""
"image-keyboard-response",288,211096,"0.0-4.92-0.92","25sybe6b9tou51f",382,"67.csv","","69.90000000596046","resources/trios/L4T2A2.jpg","38","restless",0.4,0.7,0.5,0.379182325396532,"true"
"image-keyboard-response",289,211499,"0.0-4.92-1.92","25sybe6b9tou51f",382,"67.csv","","null","resources/maskTrios/BT2B.jpg","null","",NA,NA,NA,NA,""
"image-keyboard-response",290,212701,"0.0-4.92-2.92","25sybe6b9tou51f",382,"67.csv","","null","resources/images/coin2.png","null","",NA,NA,NA,NA,""
"image-keyboard-response",291,212790,"0.0-4.93-0.93","25sybe6b9tou51f",382,"67.csv","","87.59999999403954","resources/trios/L4T2A2.jpg","38","restless",0.4,0.7,0.5,0.992424867679721,"false"
"image-keyboard-response",292,213192,"0.0-4.93-1.93","25sybe6b9tou51f",382,"67.csv","","null","resources/maskTrios/BT2B.jpg","null","",NA,NA,NA,NA,""
"image-keyboard-response",293,214394,"0.0-4.93-2.93","25sybe6b9tou51f",382,"67.csv","","null","resources/images/fishbone.png","null","",NA,NA,NA,NA,""
"image-keyboard-response",294,214469,"0.0-4.94-0.94","25sybe6b9tou51f",382,"67.csv","","73.40000000596046","resources/trios/L4T2A2.jpg","38","restless",0.4,0.7,0.5,0.486859439672708,"true"
"image-keyboard-response",295,214871,"0.0-4.94-1.94","25sybe6b9tou51f",382,"67.csv","","null","resources/maskTrios/BT2B.jpg","null","",NA,NA,NA,NA,""
"image-keyboard-response",296,216073,"0.0-4.94-2.94","25sybe6b9tou51f",382,"67.csv","","null","resources/images/coin2.png","null","",NA,NA,NA,NA,""
"image-keyboard-response",297,216117,"0.0-4.95-0.95","25sybe6b9tou51f",382,"67.csv","","43","resources/trios/L4T2A2.jpg","38","restless",0.4,0.7,0.5,0.472792363919825,"true"
"image-keyboard-response",298,216519,"0.0-4.95-1.95","25sybe6b9tou51f",382,"67.csv","","null","resources/maskTrios/BT2B.jpg","null","",NA,NA,NA,NA,""
"image-keyboard-response",299,217721,"0.0-4.95-2.95","25sybe6b9tou51f",382,"67.csv","","null","resources/images/coin2.png","null","",NA,NA,NA,NA,""
"image-keyboard-response",300,217829,"0.0-4.96-0.96","25sybe6b9tou51f",382,"67.csv","","107.6000000089407","resources/trios/L4T2A2.jpg","38","restless",0.4,0.7,0.5,0.307998011521444,"true"
"image-keyboard-response",301,218232,"0.0-4.96-1.96","25sybe6b9tou51f",382,"67.csv","","null","resources/maskTrios/BT2B.jpg","null","",NA,NA,NA,NA,""
"image-keyboard-response",302,219435,"0.0-4.96-2.96","25sybe6b9tou51f",382,"67.csv","","null","resources/images/coin2.png","null","",NA,NA,NA,NA,""
"image-keyboard-response",303,219565,"0.0-4.97-0.97","25sybe6b9tou51f",382,"67.csv","","129","resources/trios/L4T2A2.jpg","38","restless",0.4,0.7,0.5,0.506718754426431,"true"
"image-keyboard-response",304,219967,"0.0-4.97-1.97","25sybe6b9tou51f",382,"67.csv","","null","resources/maskTrios/BT2B.jpg","null","",NA,NA,NA,NA,""
"image-keyboard-response",305,221168,"0.0-4.97-2.97","25sybe6b9tou51f",382,"67.csv","","null","resources/images/coin2.png","null","",NA,NA,NA,NA,""
"image-keyboard-response",306,221733,"0.0-4.98-0.98","25sybe6b9tou51f",382,"67.csv","","563.5","resources/trios/L4T2A2.jpg","38","restless",0.4,0.7,0.5,0.0887972331068012,"true"
"image-keyboard-response",307,222136,"0.0-4.98-1.98","25sybe6b9tou51f",382,"67.csv","","null","resources/maskTrios/BT2B.jpg","null","",NA,NA,NA,NA,""
"image-keyboard-response",308,223339,"0.0-4.98-2.98","25sybe6b9tou51f",382,"67.csv","","null","resources/images/coin2.png","null","",NA,NA,NA,NA,""
"image-keyboard-response",309,223669,"0.0-4.99-0.99","25sybe6b9tou51f",382,"67.csv","","329.09999999403954","resources/trios/L4T2A2.jpg","38","restless",0.3,0.7,0.5,0.110766142503628,"true"
"image-keyboard-response",310,224070,"0.0-4.99-1.99","25sybe6b9tou51f",382,"67.csv","","null","resources/maskTrios/BT2B.jpg","null","",NA,NA,NA,NA,""
"image-keyboard-response",311,225272,"0.0-4.99-2.99","25sybe6b9tou51f",382,"67.csv","","null","resources/images/coin2.png","null","",NA,NA,NA,NA,""
"image-keyboard-response",312,225573,"0.0-4.100-0.100","25sybe6b9tou51f",382,"67.csv","","299.6000000089407","resources/trios/L4T2A2.jpg","38","restless",0.3,0.7,0.6,0.93327627004968,"false"
"image-keyboard-response",313,225976,"0.0-4.100-1.100","25sybe6b9tou51f",382,"67.csv","","null","resources/maskTrios/BT2B.jpg","null","",NA,NA,NA,NA,""
"image-keyboard-response",314,227178,"0.0-4.100-2.100","25sybe6b9tou51f",382,"67.csv","","null","resources/images/fishbone.png","null","",NA,NA,NA,NA,""
"image-keyboard-response",315,227469,"0.0-4.101-0.101","25sybe6b9tou51f",382,"67.csv","","290.20000000298023","resources/trios/L4T2A2.jpg","38","restless",0.3,0.7,0.6,0.277989007042021,"true"
"image-keyboard-response",316,227872,"0.0-4.101-1.101","25sybe6b9tou51f",382,"67.csv","","null","resources/maskTrios/BT2B.jpg","null","",NA,NA,NA,NA,""
"image-keyboard-response",317,229074,"0.0-4.101-2.101","25sybe6b9tou51f",382,"67.csv","","null","resources/images/coin2.png","null","",NA,NA,NA,NA,""
"image-keyboard-response",318,229365,"0.0-4.102-0.102","25sybe6b9tou51f",382,"67.csv","","289.5","resources/trios/L4T2A2.jpg","38","restless",0.3,0.7,0.6,0.897412602767138,"false"
"image-keyboard-response",319,229767,"0.0-4.102-1.102","25sybe6b9tou51f",382,"67.csv","","null","resources/maskTrios/BT2B.jpg","null","",NA,NA,NA,NA,""
"image-keyboard-response",320,230969,"0.0-4.102-2.102","25sybe6b9tou51f",382,"67.csv","","null","resources/images/fishbone.png","null","",NA,NA,NA,NA,""
"image-keyboard-response",321,231253,"0.0-4.103-0.103","25sybe6b9tou51f",382,"67.csv","","282.29999999701977","resources/trios/L4T2A2.jpg","38","restless",0.3,0.7,0.6,0.709271648852288,"false"
"image-keyboard-response",322,231654,"0.0-4.103-1.103","25sybe6b9tou51f",382,"67.csv","","null","resources/maskTrios/BT2B.jpg","null","",NA,NA,NA,NA,""
"image-keyboard-response",323,232856,"0.0-4.103-2.103","25sybe6b9tou51f",382,"67.csv","","null","resources/images/fishbone.png","null","",NA,NA,NA,NA,""
"image-keyboard-response",324,233044,"0.0-4.104-0.104","25sybe6b9tou51f",382,"67.csv","","187","resources/trios/L4T2A2.jpg","38","restless",0.3,0.7,0.6,0.219306093324508,"true"
"image-keyboard-response",325,233445,"0.0-4.104-1.104","25sybe6b9tou51f",382,"67.csv","","null","resources/maskTrios/BT2B.jpg","null","",NA,NA,NA,NA,""
"image-keyboard-response",326,234647,"0.0-4.104-2.104","25sybe6b9tou51f",382,"67.csv","","null","resources/images/coin2.png","null","",NA,NA,NA,NA,""
"image-keyboard-response",327,234955,"0.0-4.105-0.105","25sybe6b9tou51f",382,"67.csv","","307.70000000298023","resources/trios/L4T2A2.jpg","37","restless",0.3,0.7,0.6,0.438296765264823,"false"
"image-keyboard-response",328,235357,"0.0-4.105-1.105","25sybe6b9tou51f",382,"67.csv","","null","resources/maskTrios/L4BB.jpg","null","",NA,NA,NA,NA,""
"image-keyboard-response",329,236558,"0.0-4.105-2.105","25sybe6b9tou51f",382,"67.csv","","null","resources/images/fishbone.png","null","",NA,NA,NA,NA,""
"image-keyboard-response",330,236829,"0.0-4.106-0.106","25sybe6b9tou51f",382,"67.csv","","269.3999999910593","resources/trios/L4T2A2.jpg","37","restless",0.3,0.7,0.6,0.306159369078631,"false"
"image-keyboard-response",331,237231,"0.0-4.106-1.106","25sybe6b9tou51f",382,"67.csv","","null","resources/maskTrios/L4BB.jpg","null","",NA,NA,NA,NA,""
"image-keyboard-response",332,238432,"0.0-4.106-2.106","25sybe6b9tou51f",382,"67.csv","","null","resources/images/fishbone.png","null","",NA,NA,NA,NA,""
"image-keyboard-response",333,238589,"0.0-4.107-0.107","25sybe6b9tou51f",382,"67.csv","","155.70000000298023","resources/trios/L4T2A2.jpg","37","restless",0.3,0.7,0.6,0.651221364730997,"false"
"image-keyboard-response",334,238991,"0.0-4.107-1.107","25sybe6b9tou51f",382,"67.csv","","null","resources/maskTrios/L4BB.jpg","null","",NA,NA,NA,NA,""
"image-keyboard-response",335,240194,"0.0-4.107-2.107","25sybe6b9tou51f",382,"67.csv","","null","resources/images/fishbone.png","null","",NA,NA,NA,NA,""
"image-keyboard-response",336,240365,"0.0-4.108-0.108","25sybe6b9tou51f",382,"67.csv","","169.29999999701977","resources/trios/L4T2A2.jpg","37","restless",0.2,0.7,0.6,0.206392344261372,"false"
"image-keyboard-response",337,240767,"0.0-4.108-1.108","25sybe6b9tou51f",382,"67.csv","","null","resources/maskTrios/L4BB.jpg","null","",NA,NA,NA,NA,""
"image-keyboard-response",338,241967,"0.0-4.108-2.108","25sybe6b9tou51f",382,"67.csv","","null","resources/images/fishbone.png","null","",NA,NA,NA,NA,""
"image-keyboard-response",339,242388,"0.0-4.109-0.109","25sybe6b9tou51f",382,"67.csv","","419.79999999701977","resources/trios/L4T2A2.jpg","37","restless",0.2,0.7,0.6,0.846369489735859,"false"
"image-keyboard-response",340,242791,"0.0-4.109-1.109","25sybe6b9tou51f",382,"67.csv","","null","resources/maskTrios/L4BB.jpg","null","",NA,NA,NA,NA,""
"image-keyboard-response",341,243994,"0.0-4.109-2.109","25sybe6b9tou51f",382,"67.csv","","null","resources/images/fishbone.png","null","",NA,NA,NA,NA,""
"image-keyboard-response",342,244212,"0.0-4.110-0.110","25sybe6b9tou51f",382,"67.csv","","216.09999999403954","resources/trios/L4T2A2.jpg","38","restless",0.2,0.7,0.6,0.203571681949772,"true"
"image-keyboard-response",343,244613,"0.0-4.110-1.110","25sybe6b9tou51f",382,"67.csv","","null","resources/maskTrios/BT2B.jpg","null","",NA,NA,NA,NA,""
"image-keyboard-response",344,245815,"0.0-4.110-2.110","25sybe6b9tou51f",382,"67.csv","","null","resources/images/coin2.png","null","",NA,NA,NA,NA,""
"image-keyboard-response",345,246004,"0.0-4.111-0.111","25sybe6b9tou51f",382,"67.csv","","187.1000000089407","resources/trios/L4T2A2.jpg","38","restless",0.2,0.6,0.6,0.962007448368691,"false"
"image-keyboard-response",346,246407,"0.0-4.111-1.111","25sybe6b9tou51f",382,"67.csv","","null","resources/maskTrios/BT2B.jpg","null","",NA,NA,NA,NA,""
"image-keyboard-response",347,247608,"0.0-4.111-2.111","25sybe6b9tou51f",382,"67.csv","","null","resources/images/fishbone.png","null","",NA,NA,NA,NA,""
"image-keyboard-response",348,247732,"0.0-4.112-0.112","25sybe6b9tou51f",382,"67.csv","","122.70000000298023","resources/trios/L4T2A2.jpg","39","restless",0.3,0.6,0.6,0.0590060144634892,"true"
"image-keyboard-response",349,248135,"0.0-4.112-1.112","25sybe6b9tou51f",382,"67.csv","","null","resources/maskTrios/BBA2.jpg","null","",NA,NA,NA,NA,""
"image-keyboard-response",350,249336,"0.0-4.112-2.112","25sybe6b9tou51f",382,"67.csv","","null","resources/images/coin2.png","null","",NA,NA,NA,NA,""
"image-keyboard-response",351,249580,"0.0-4.113-0.113","25sybe6b9tou51f",382,"67.csv","","243.20000000298023","resources/trios/L4T2A2.jpg","39","restless",0.3,0.6,0.6,0.823434197571928,"false"
"image-keyboard-response",352,249982,"0.0-4.113-1.113","25sybe6b9tou51f",382,"67.csv","","null","resources/maskTrios/BBA2.jpg","null","",NA,NA,NA,NA,""
"image-keyboard-response",353,251183,"0.0-4.113-2.113","25sybe6b9tou51f",382,"67.csv","","null","resources/images/fishbone.png","null","",NA,NA,NA,NA,""
"image-keyboard-response",354,251444,"0.0-4.114-0.114","25sybe6b9tou51f",382,"67.csv","","259.8999999910593","resources/trios/L4T2A2.jpg","37","restless",0.3,0.7,0.6,0.804803505812127,"false"
"image-keyboard-response",355,251847,"0.0-4.114-1.114","25sybe6b9tou51f",382,"67.csv","","null","resources/maskTrios/L4BB.jpg","null","",NA,NA,NA,NA,""
"image-keyboard-response",356,253049,"0.0-4.114-2.114","25sybe6b9tou51f",382,"67.csv","","null","resources/images/fishbone.png","null","",NA,NA,NA,NA,""
"image-keyboard-response",357,253324,"0.0-4.115-0.115","25sybe6b9tou51f",382,"67.csv","","274","resources/trios/L4T2A2.jpg","39","restless",0.3,0.6,0.6,0.0710089386297914,"true"
"image-keyboard-response",358,253726,"0.0-4.115-1.115","25sybe6b9tou51f",382,"67.csv","","null","resources/maskTrios/BBA2.jpg","null","",NA,NA,NA,NA,""
"image-keyboard-response",359,254928,"0.0-4.115-2.115","25sybe6b9tou51f",382,"67.csv","","null","resources/images/coin2.png","null","",NA,NA,NA,NA,""
"image-keyboard-response",360,255212,"0.0-4.116-0.116","25sybe6b9tou51f",382,"67.csv","","282","resources/trios/L4T2A2.jpg","38","restless",0.3,0.5,0.6,0.223871868102874,"true"
"image-keyboard-response",361,255615,"0.0-4.116-1.116","25sybe6b9tou51f",382,"67.csv","","null","resources/maskTrios/BT2B.jpg","null","",NA,NA,NA,NA,""
"image-keyboard-response",362,256817,"0.0-4.116-2.116","25sybe6b9tou51f",382,"67.csv","","null","resources/images/coin2.png","null","",NA,NA,NA,NA,""
"image-keyboard-response",363,257100,"0.0-4.117-0.117","25sybe6b9tou51f",382,"67.csv","","282.29999999701977","resources/trios/L4T2A2.jpg","38","restless",0.3,0.5,0.6,0.587159338563794,"false"
"image-keyboard-response",364,257502,"0.0-4.117-1.117","25sybe6b9tou51f",382,"67.csv","","null","resources/maskTrios/BT2B.jpg","null","",NA,NA,NA,NA,""
"image-keyboard-response",365,258704,"0.0-4.117-2.117","25sybe6b9tou51f",382,"67.csv","","null","resources/images/fishbone.png","null","",NA,NA,NA,NA,""
"image-keyboard-response",366,259034,"0.0-4.118-0.118","25sybe6b9tou51f",382,"67.csv","","329.29999999701977","resources/trios/L4T2A2.jpg","37","restless",0.3,0.5,0.6,0.067438163085241,"true"
"image-keyboard-response",367,259437,"0.0-4.118-1.118","25sybe6b9tou51f",382,"67.csv","","null","resources/maskTrios/L4BB.jpg","null","",NA,NA,NA,NA,""
"image-keyboard-response",368,260639,"0.0-4.118-2.118","25sybe6b9tou51f",382,"67.csv","","null","resources/images/coin2.png","null","",NA,NA,NA,NA,""
"image-keyboard-response",369,260715,"0.0-4.119-0.119","25sybe6b9tou51f",382,"67.csv","","75.5","resources/trios/L4T2A2.jpg","39","restless",0.3,0.5,0.6,0.0730964373155525,"true"
"image-keyboard-response",370,261117,"0.0-4.119-1.119","25sybe6b9tou51f",382,"67.csv","","null","resources/maskTrios/BBA2.jpg","null","",NA,NA,NA,NA,""
"image-keyboard-response",371,262319,"0.0-4.119-2.119","25sybe6b9tou51f",382,"67.csv","","null","resources/images/coin2.png","null","",NA,NA,NA,NA,""
"image-keyboard-response",372,262635,"0.0-4.120-0.120","25sybe6b9tou51f",382,"67.csv","","315.40000000596046","resources/trios/L4T2A2.jpg","37","restless",0.3,0.5,0.6,0.437233033360938,"false"
"image-keyboard-response",373,263037,"0.0-4.120-1.120","25sybe6b9tou51f",382,"67.csv","","null","resources/maskTrios/L4BB.jpg","null","",NA,NA,NA,NA,""
"image-keyboard-response",374,264238,"0.0-4.120-2.120","25sybe6b9tou51f",382,"67.csv","","null","resources/images/fishbone.png","null","",NA,NA,NA,NA,""
"image-keyboard-response",375,264268,"0.0-4.121-0.121","25sybe6b9tou51f",382,"67.csv","","28.400000005960464","resources/trios/L4T2A2.jpg","37","restless",0.3,0.5,0.6,0.0658968682884982,"true"
"image-keyboard-response",376,264671,"0.0-4.121-1.121","25sybe6b9tou51f",382,"67.csv","","null","resources/maskTrios/L4BB.jpg","null","",NA,NA,NA,NA,""
"image-keyboard-response",377,265873,"0.0-4.121-2.121","25sybe6b9tou51f",382,"67.csv","","null","resources/images/coin2.png","null","",NA,NA,NA,NA,""
"image-keyboard-response",378,265971,"0.0-4.122-0.122","25sybe6b9tou51f",382,"67.csv","","97.59999999403954","resources/trios/L4T2A2.jpg","37","restless",0.3,0.5,0.6,0.169171099964746,"true"
"image-keyboard-response",379,266373,"0.0-4.122-1.122","25sybe6b9tou51f",382,"67.csv","","null","resources/maskTrios/L4BB.jpg","null","",NA,NA,NA,NA,""
"image-keyboard-response",380,267575,"0.0-4.122-2.122","25sybe6b9tou51f",382,"67.csv","","null","resources/images/coin2.png","null","",NA,NA,NA,NA,""
"image-keyboard-response",381,267683,"0.0-4.123-0.123","25sybe6b9tou51f",382,"67.csv","","107.40000000596046","resources/trios/L4T2A2.jpg","39","restless",0.3,0.5,0.6,0.280180158563039,"true"
"image-keyboard-response",382,268085,"0.0-4.123-1.123","25sybe6b9tou51f",382,"67.csv","","null","resources/maskTrios/BBA2.jpg","null","",NA,NA,NA,NA,""
"image-keyboard-response",383,269286,"0.0-4.123-2.123","25sybe6b9tou51f",382,"67.csv","","null","resources/images/coin2.png","null","",NA,NA,NA,NA,""
"image-keyboard-response",384,269859,"0.0-4.124-0.124","25sybe6b9tou51f",382,"67.csv","","572.2999999970198","resources/trios/L4T2A2.jpg","37","restless",0.3,0.5,0.6,0.889476364030012,"false"
"image-keyboard-response",385,270262,"0.0-4.124-1.124","25sybe6b9tou51f",382,"67.csv","","null","resources/maskTrios/L4BB.jpg","null","",NA,NA,NA,NA,""
"image-keyboard-response",386,271464,"0.0-4.124-2.124","25sybe6b9tou51f",382,"67.csv","","null","resources/images/fishbone.png","null","",NA,NA,NA,NA,""
"image-keyboard-response",387,271467,"0.0-4.125-0.125","25sybe6b9tou51f",382,"67.csv","","2.3999999910593033","resources/trios/L4T2A2.jpg","39","restless",0.3,0.6,0.6,0.535639199138959,"true"
"image-keyboard-response",388,271868,"0.0-4.125-1.125","25sybe6b9tou51f",382,"67.csv","","null","resources/maskTrios/BBA2.jpg","null","",NA,NA,NA,NA,""
"image-keyboard-response",389,273071,"0.0-4.125-2.125","25sybe6b9tou51f",382,"67.csv","","null","resources/images/coin2.png","null","",NA,NA,NA,NA,""
"image-keyboard-response",390,273090,"0.0-4.126-0.126","25sybe6b9tou51f",382,"67.csv","","18.900000005960464","resources/trios/L4T2A2.jpg","39","restless",0.3,0.6,0.6,0.675545281907595,"false"
"image-keyboard-response",391,273493,"0.0-4.126-1.126","25sybe6b9tou51f",382,"67.csv","","null","resources/maskTrios/BBA2.jpg","null","",NA,NA,NA,NA,""
"image-keyboard-response",392,274694,"0.0-4.126-2.126","25sybe6b9tou51f",382,"67.csv","","null","resources/images/fishbone.png","null","",NA,NA,NA,NA,""
"image-keyboard-response",393,274843,"0.0-4.127-0.127","25sybe6b9tou51f",382,"67.csv","","147.5","resources/trios/L4T2A2.jpg","38","restless",0.2,0.5,0.6,0.154179622875681,"true"
"image-keyboard-response",394,275246,"0.0-4.127-1.127","25sybe6b9tou51f",382,"67.csv","","null","resources/maskTrios/BT2B.jpg","null","",NA,NA,NA,NA,""
"image-keyboard-response",395,276448,"0.0-4.127-2.127","25sybe6b9tou51f",382,"67.csv","","null","resources/images/coin2.png","null","",NA,NA,NA,NA,""
"image-keyboard-response",396,276587,"0.0-4.128-0.128","25sybe6b9tou51f",382,"67.csv","","137.6000000089407","resources/trios/L4T2A2.jpg","38","restless",0.1,0.5,0.6,0.130777800057887,"true"
"image-keyboard-response",397,276988,"0.0-4.128-1.128","25sybe6b9tou51f",382,"67.csv","","null","resources/maskTrios/BT2B.jpg","null","",NA,NA,NA,NA,""
"image-keyboard-response",398,278190,"0.0-4.128-2.128","25sybe6b9tou51f",382,"67.csv","","null","resources/images/coin2.png","null","",NA,NA,NA,NA,""
"image-keyboard-response",399,278339,"0.0-4.129-0.129","25sybe6b9tou51f",382,"67.csv","","147.79999999701977","resources/trios/L4T2A2.jpg","38","restless",0.1,0.5,0.6,0.407123797635549,"true"
"image-keyboard-response",400,278742,"0.0-4.129-1.129","25sybe6b9tou51f",382,"67.csv","","null","resources/maskTrios/BT2B.jpg","null","",NA,NA,NA,NA,""
"image-keyboard-response",401,279944,"0.0-4.129-2.129","25sybe6b9tou51f",382,"67.csv","","null","resources/images/coin2.png","null","",NA,NA,NA,NA,""
"image-keyboard-response",402,280026,"0.0-4.130-0.130","25sybe6b9tou51f",382,"67.csv","","81","resources/trios/L4T2A2.jpg","38","restless",0.1,0.4,0.6,0.351425209881363,"true"
"image-keyboard-response",403,280429,"0.0-4.130-1.130","25sybe6b9tou51f",382,"67.csv","","null","resources/maskTrios/BT2B.jpg","null","",NA,NA,NA,NA,""
"image-keyboard-response",404,281631,"0.0-4.130-2.130","25sybe6b9tou51f",382,"67.csv","","null","resources/images/coin2.png","null","",NA,NA,NA,NA,""
"image-keyboard-response",405,281819,"0.0-4.131-0.131","25sybe6b9tou51f",382,"67.csv","","186.79999999701977","resources/trios/L4T2A2.jpg","38","restless",0.1,0.4,0.6,0.645916753565917,"false"
"image-keyboard-response",406,282221,"0.0-4.131-1.131","25sybe6b9tou51f",382,"67.csv","","null","resources/maskTrios/BT2B.jpg","null","",NA,NA,NA,NA,""
"image-keyboard-response",407,283423,"0.0-4.131-2.131","25sybe6b9tou51f",382,"67.csv","","null","resources/images/fishbone.png","null","",NA,NA,NA,NA,""
"image-keyboard-response",408,283674,"0.0-4.132-0.132","25sybe6b9tou51f",382,"67.csv","","249.59999999403954","resources/trios/L4T2A2.jpg","38","restless",0.1,0.4,0.6,0.103035094965123,"true"
"image-keyboard-response",409,284077,"0.0-4.132-1.132","25sybe6b9tou51f",382,"67.csv","","null","resources/maskTrios/BT2B.jpg","null","",NA,NA,NA,NA,""
"image-keyboard-response",410,285279,"0.0-4.132-2.132","25sybe6b9tou51f",382,"67.csv","","null","resources/images/coin2.png","null","",NA,NA,NA,NA,""
"image-keyboard-response",411,285322,"0.0-4.133-0.133","25sybe6b9tou51f",382,"67.csv","","41.29999999701977","resources/trios/L4T2A2.jpg","38","restless",0.1,0.4,0.6,0.956865851427497,"false"
"image-keyboard-response",412,285724,"0.0-4.133-1.133","25sybe6b9tou51f",382,"67.csv","","null","resources/maskTrios/BT2B.jpg","null","",NA,NA,NA,NA,""
"image-keyboard-response",413,286926,"0.0-4.133-2.133","25sybe6b9tou51f",382,"67.csv","","null","resources/images/fishbone.png","null","",NA,NA,NA,NA,""
"image-keyboard-response",414,287210,"0.0-4.134-0.134","25sybe6b9tou51f",382,"67.csv","","283.29999999701977","resources/trios/L4T2A2.jpg","37","restless",0.1,0.4,0.6,0.670167669740191,"false"
"image-keyboard-response",415,287612,"0.0-4.134-1.134","25sybe6b9tou51f",382,"67.csv","","null","resources/maskTrios/L4BB.jpg","null","",NA,NA,NA,NA,""
"image-keyboard-response",416,288814,"0.0-4.134-2.134","25sybe6b9tou51f",382,"67.csv","","null","resources/images/fishbone.png","null","",NA,NA,NA,NA,""
"image-keyboard-response",417,289402,"0.0-4.135-0.135","25sybe6b9tou51f",382,"67.csv","","587.2999999970198","resources/trios/L4T2A2.jpg","37","restless",0.1,0.4,0.5,0.47328143887567,"false"
"image-keyboard-response",418,289803,"0.0-4.135-1.135","25sybe6b9tou51f",382,"67.csv","","null","resources/maskTrios/L4BB.jpg","null","",NA,NA,NA,NA,""
"image-keyboard-response",419,291006,"0.0-4.135-2.135","25sybe6b9tou51f",382,"67.csv","","null","resources/images/fishbone.png","null","",NA,NA,NA,NA,""
"image-keyboard-response",420,291153,"0.0-4.136-0.136","25sybe6b9tou51f",382,"67.csv","","146.59999999403954","resources/trios/L4T2A2.jpg","38","restless",0.1,0.4,0.5,0.0603266113518239,"true"
"image-keyboard-response",421,291555,"0.0-4.136-1.136","25sybe6b9tou51f",382,"67.csv","","null","resources/maskTrios/BT2B.jpg","null","",NA,NA,NA,NA,""
"image-keyboard-response",422,292757,"0.0-4.136-2.136","25sybe6b9tou51f",382,"67.csv","","null","resources/images/coin2.png","null","",NA,NA,NA,NA,""
"image-keyboard-response",423,292835,"0.0-4.137-0.137","25sybe6b9tou51f",382,"67.csv","","76.29999999701977","resources/trios/L4T2A2.jpg","38","restless",0.1,0.4,0.5,0.611634811349123,"false"
"image-keyboard-response",424,293236,"0.0-4.137-1.137","25sybe6b9tou51f",382,"67.csv","","null","resources/maskTrios/BT2B.jpg","null","",NA,NA,NA,NA,""
"image-keyboard-response",425,294438,"0.0-4.137-2.137","25sybe6b9tou51f",382,"67.csv","","null","resources/images/fishbone.png","null","",NA,NA,NA,NA,""
"image-keyboard-response",426,294626,"0.0-4.138-0.138","25sybe6b9tou51f",382,"67.csv","","187.20000000298023","resources/trios/L4T2A2.jpg","38","restless",0.1,0.4,0.5,0.103330138531684,"true"
"image-keyboard-response",427,295028,"0.0-4.138-1.138","25sybe6b9tou51f",382,"67.csv","","null","resources/maskTrios/BT2B.jpg","null","",NA,NA,NA,NA,""
"image-keyboard-response",428,296230,"0.0-4.138-2.138","25sybe6b9tou51f",382,"67.csv","","null","resources/images/coin2.png","null","",NA,NA,NA,NA,""
"image-keyboard-response",429,296450,"0.0-4.139-0.139","25sybe6b9tou51f",382,"67.csv","","218.79999999701977","resources/trios/L4T2A2.jpg","39","restless",0.1,0.4,0.5,0.335027169162663,"true"
"image-keyboard-response",430,296851,"0.0-4.139-1.139","25sybe6b9tou51f",382,"67.csv","","null","resources/maskTrios/BBA2.jpg","null","",NA,NA,NA,NA,""
"image-keyboard-response",431,298053,"0.0-4.139-2.139","25sybe6b9tou51f",382,"67.csv","","null","resources/images/coin2.png","null","",NA,NA,NA,NA,""
"image-keyboard-response",432,298474,"0.0-4.140-0.140","25sybe6b9tou51f",382,"67.csv","","420.20000000298023","resources/trios/L4T2A2.jpg","39","restless",0.1,0.4,0.5,0.557163041221804,"false"
"image-keyboard-response",433,298877,"0.0-4.140-1.140","25sybe6b9tou51f",382,"67.csv","","null","resources/maskTrios/BBA2.jpg","null","",NA,NA,NA,NA,""
"image-keyboard-response",434,300080,"0.0-4.140-2.140","25sybe6b9tou51f",382,"67.csv","","null","resources/images/fishbone.png","null","",NA,NA,NA,NA,""
"image-keyboard-response",435,301907,"0.0-4.141-0.141","25sybe6b9tou51f",382,"67.csv","","1825.9000000059605","resources/trios/L4T2A2.jpg","38","restless",0.1,0.4,0.5,0.843029185030013,"false"
"image-keyboard-response",436,302309,"0.0-4.141-1.141","25sybe6b9tou51f",382,"67.csv","","null","resources/maskTrios/BT2B.jpg","null","",NA,NA,NA,NA,""
"image-keyboard-response",437,303511,"0.0-4.141-2.141","25sybe6b9tou51f",382,"67.csv","","null","resources/images/fishbone.png","null","",NA,NA,NA,NA,""
"image-keyboard-response",438,305194,"0.0-4.142-0.142","25sybe6b9tou51f",382,"67.csv","","1682","resources/trios/L4T2A2.jpg","38","restless",0.1,0.4,0.5,0.751408966392199,"false"
"image-keyboard-response",439,305597,"0.0-4.142-1.142","25sybe6b9tou51f",382,"67.csv","","null","resources/maskTrios/BT2B.jpg","null","",NA,NA,NA,NA,""
"image-keyboard-response",440,306799,"0.0-4.142-2.142","25sybe6b9tou51f",382,"67.csv","","null","resources/images/fishbone.png","null","",NA,NA,NA,NA,""
"image-keyboard-response",441,306978,"0.0-4.143-0.143","25sybe6b9tou51f",382,"67.csv","","177.40000000596046","resources/trios/L4T2A2.jpg","37","restless",0.1,0.4,0.5,0.51887162500623,"false"
"image-keyboard-response",442,307381,"0.0-4.143-1.143","25sybe6b9tou51f",382,"67.csv","","null","resources/maskTrios/L4BB.jpg","null","",NA,NA,NA,NA,""
"image-keyboard-response",443,308583,"0.0-4.143-2.143","25sybe6b9tou51f",382,"67.csv","","null","resources/images/fishbone.png","null","",NA,NA,NA,NA,""
"image-keyboard-response",444,308617,"0.0-4.144-0.144","25sybe6b9tou51f",382,"67.csv","","33.5","resources/trios/L4T2A2.jpg","39","restless",0.1,0.4,0.6,0.99379259712644,"false"
"image-keyboard-response",445,309018,"0.0-4.144-1.144","25sybe6b9tou51f",382,"67.csv","","null","resources/maskTrios/BBA2.jpg","null","",NA,NA,NA,NA,""
"image-keyboard-response",446,310220,"0.0-4.144-2.144","25sybe6b9tou51f",382,"67.csv","","null","resources/images/fishbone.png","null","",NA,NA,NA,NA,""
"image-keyboard-response",447,310297,"0.0-4.145-0.145","25sybe6b9tou51f",382,"67.csv","","76.29999999701977","resources/trios/L4T2A2.jpg","38","restless",0.1,0.4,0.6,0.657908120282276,"false"
"image-keyboard-response",448,310699,"0.0-4.145-1.145","25sybe6b9tou51f",382,"67.csv","","null","resources/maskTrios/BT2B.jpg","null","",NA,NA,NA,NA,""
"image-keyboard-response",449,311901,"0.0-4.145-2.145","25sybe6b9tou51f",382,"67.csv","","null","resources/images/fishbone.png","null","",NA,NA,NA,NA,""
"image-keyboard-response",450,312433,"0.0-4.146-0.146","25sybe6b9tou51f",382,"67.csv","","531","resources/trios/L4T2A2.jpg","37","restless",0.1,0.4,0.6,0.295745459221529,"false"
"image-keyboard-response",451,312836,"0.0-4.146-1.146","25sybe6b9tou51f",382,"67.csv","","null","resources/maskTrios/L4BB.jpg","null","",NA,NA,NA,NA,""
"image-keyboard-response",452,314039,"0.0-4.146-2.146","25sybe6b9tou51f",382,"67.csv","","null","resources/images/fishbone.png","null","",NA,NA,NA,NA,""
"image-keyboard-response",453,314417,"0.0-4.147-0.147","25sybe6b9tou51f",382,"67.csv","","377.20000000298023","resources/trios/L4T2A2.jpg","38","restless",0.1,0.4,0.6,0.961567065415392,"false"
"image-keyboard-response",454,314819,"0.0-4.147-1.147","25sybe6b9tou51f",382,"67.csv","","null","resources/maskTrios/BT2B.jpg","null","",NA,NA,NA,NA,""
"image-keyboard-response",455,316021,"0.0-4.147-2.147","25sybe6b9tou51f",382,"67.csv","","null","resources/images/fishbone.png","null","",NA,NA,NA,NA,""
"image-keyboard-response",456,316321,"0.0-4.148-0.148","25sybe6b9tou51f",382,"67.csv","","299","resources/trios/L4T2A2.jpg","39","restless",0.1,0.4,0.6,0.301943252684931,"true"
"image-keyboard-response",457,316722,"0.0-4.148-1.148","25sybe6b9tou51f",382,"67.csv","","null","resources/maskTrios/BBA2.jpg","null","",NA,NA,NA,NA,""
"image-keyboard-response",458,317923,"0.0-4.148-2.148","25sybe6b9tou51f",382,"67.csv","","null","resources/images/coin2.png","null","",NA,NA,NA,NA,""
"image-keyboard-response",459,318289,"0.0-4.149-0.149","25sybe6b9tou51f",382,"67.csv","","364.20000000298023","resources/trios/L4T2A2.jpg","39","restless",0.1,0.4,0.6,0.468400813931898,"true"
"image-keyboard-response",460,318690,"0.0-4.149-1.149","25sybe6b9tou51f",382,"67.csv","","null","resources/maskTrios/BBA2.jpg","null","",NA,NA,NA,NA,""
"image-keyboard-response",461,319893,"0.0-4.149-2.149","25sybe6b9tou51f",382,"67.csv","","null","resources/images/coin2.png","null","",NA,NA,NA,NA,""
"image-keyboard-response",462,320369,"0.0-4.150-0.150","25sybe6b9tou51f",382,"67.csv","","475.20000000298023","resources/trios/L4T2A2.jpg","39","restless",0.1,0.4,0.6,0.349302073674691,"true"
"image-keyboard-response",463,320771,"0.0-4.150-1.150","25sybe6b9tou51f",382,"67.csv","","null","resources/maskTrios/BBA2.jpg","null","",NA,NA,NA,NA,""
"image-keyboard-response",464,321972,"0.0-4.150-2.150","25sybe6b9tou51f",382,"67.csv","","null","resources/images/coin2.png","null","",NA,NA,NA,NA,""
"image-keyboard-response",465,323313,"0.0-4.151-0.151","25sybe6b9tou51f",382,"67.csv","","1340","resources/trios/L4T2A2.jpg","39","restless",0.1,0.4,0.6,0.671146229855367,"false"
"image-keyboard-response",466,323715,"0.0-4.151-1.151","25sybe6b9tou51f",382,"67.csv","","null","resources/maskTrios/BBA2.jpg","null","",NA,NA,NA,NA,""
"image-keyboard-response",467,324918,"0.0-4.151-2.151","25sybe6b9tou51f",382,"67.csv","","null","resources/images/fishbone.png","null","",NA,NA,NA,NA,""
"image-keyboard-response",468,325345,"0.0-4.152-0.152","25sybe6b9tou51f",382,"67.csv","","425.6000000089407","resources/trios/L4T2A2.jpg","37","restless",0.2,0.4,0.6,0.430952900044466,"false"
"image-keyboard-response",469,325746,"0.0-4.152-1.152","25sybe6b9tou51f",382,"67.csv","","null","resources/maskTrios/L4BB.jpg","null","",NA,NA,NA,NA,""
"image-keyboard-response",470,326948,"0.0-4.152-2.152","25sybe6b9tou51f",382,"67.csv","","null","resources/images/fishbone.png","null","",NA,NA,NA,NA,""
"image-keyboard-response",471,327161,"0.0-4.153-0.153","25sybe6b9tou51f",382,"67.csv","","211.40000000596046","resources/trios/L4T2A2.jpg","38","restless",0.2,0.4,0.6,0.661141349060858,"false"
"image-keyboard-response",472,327564,"0.0-4.153-1.153","25sybe6b9tou51f",382,"67.csv","","null","resources/maskTrios/BT2B.jpg","null","",NA,NA,NA,NA,""
"image-keyboard-response",473,328766,"0.0-4.153-2.153","25sybe6b9tou51f",382,"67.csv","","null","resources/images/fishbone.png","null","",NA,NA,NA,NA,""
"image-keyboard-response",474,328945,"0.0-4.154-0.154","25sybe6b9tou51f",382,"67.csv","","177.19999998807907","resources/trios/L4T2A2.jpg","38","restless",0.2,0.4,0.6,0.705491108930791,"false"
"image-keyboard-response",475,329347,"0.0-4.154-1.154","25sybe6b9tou51f",382,"67.csv","","null","resources/maskTrios/BT2B.jpg","null","",NA,NA,NA,NA,""
"image-keyboard-response",476,330549,"0.0-4.154-2.154","25sybe6b9tou51f",382,"67.csv","","null","resources/images/fishbone.png","null","",NA,NA,NA,NA,""
"image-keyboard-response",477,330776,"0.0-4.155-0.155","25sybe6b9tou51f",382,"67.csv","","226","resources/trios/L4T2A2.jpg","37","restless",0.3,0.4,0.6,0.901700909512981,"false"
"image-keyboard-response",478,331178,"0.0-4.155-1.155","25sybe6b9tou51f",382,"67.csv","","null","resources/maskTrios/L4BB.jpg","null","",NA,NA,NA,NA,""
"image-keyboard-response",479,332380,"0.0-4.155-2.155","25sybe6b9tou51f",382,"67.csv","","null","resources/images/fishbone.png","null","",NA,NA,NA,NA,""
"image-keyboard-response",480,332434,"0.0-4.156-0.156","25sybe6b9tou51f",382,"67.csv","","52.29999999701977","resources/trios/L4T2A2.jpg","39","restless",0.3,0.4,0.7,0.996601917502121,"false"
"image-keyboard-response",481,332836,"0.0-4.156-1.156","25sybe6b9tou51f",382,"67.csv","","null","resources/maskTrios/BBA2.jpg","null","",NA,NA,NA,NA,""
"image-keyboard-response",482,334038,"0.0-4.156-2.156","25sybe6b9tou51f",382,"67.csv","","null","resources/images/fishbone.png","null","",NA,NA,NA,NA,""
"image-keyboard-response",483,334137,"0.0-4.157-0.157","25sybe6b9tou51f",382,"67.csv","","97.90000000596046","resources/trios/L4T2A2.jpg","38","restless",0.3,0.4,0.7,0.647937503583828,"false"
"image-keyboard-response",484,334538,"0.0-4.157-1.157","25sybe6b9tou51f",382,"67.csv","","null","resources/maskTrios/BT2B.jpg","null","",NA,NA,NA,NA,""
"image-keyboard-response",485,335739,"0.0-4.157-2.157","25sybe6b9tou51f",382,"67.csv","","null","resources/images/fishbone.png","null","",NA,NA,NA,NA,""
"image-keyboard-response",486,337105,"0.0-4.158-0.158","25sybe6b9tou51f",382,"67.csv","","1364.7999999970198","resources/trios/L4T2A2.jpg","37","restless",0.3,0.4,0.7,0.296323669420777,"true"
"image-keyboard-response",487,337507,"0.0-4.158-1.158","25sybe6b9tou51f",382,"67.csv","","null","resources/maskTrios/L4BB.jpg","null","",NA,NA,NA,NA,""
"image-keyboard-response",488,338708,"0.0-4.158-2.158","25sybe6b9tou51f",382,"67.csv","","null","resources/images/coin2.png","null","",NA,NA,NA,NA,""
"image-keyboard-response",489,339377,"0.0-4.159-0.159","25sybe6b9tou51f",382,"67.csv","","667.5999999940395","resources/trios/L4T2A2.jpg","37","restless",0.3,0.4,0.6,0.0251135030538907,"true"
"image-keyboard-response",490,339779,"0.0-4.159-1.159","25sybe6b9tou51f",382,"67.csv","","null","resources/maskTrios/L4BB.jpg","null","",NA,NA,NA,NA,""
"image-keyboard-response",491,340981,"0.0-4.159-2.159","25sybe6b9tou51f",382,"67.csv","","null","resources/images/coin2.png","null","",NA,NA,NA,NA,""
"image-keyboard-response",492,341448,"0.0-4.160-0.160","25sybe6b9tou51f",382,"67.csv","","465.59999999403954","resources/trios/L4T2A2.jpg","37","restless",0.3,0.4,0.6,0.69389107818241,"false"
"image-keyboard-response",493,341851,"0.0-4.160-1.160","25sybe6b9tou51f",382,"67.csv","","null","resources/maskTrios/L4BB.jpg","null","",NA,NA,NA,NA,""
"image-keyboard-response",494,343053,"0.0-4.160-2.160","25sybe6b9tou51f",382,"67.csv","","null","resources/images/fishbone.png","null","",NA,NA,NA,NA,""
"image-keyboard-response",495,343128,"0.0-4.161-0.161","25sybe6b9tou51f",382,"67.csv","","73.5","resources/trios/L4T2A2.jpg","39","restless",0.3,0.4,0.6,0.567014665065616,"true"
"image-keyboard-response",496,343530,"0.0-4.161-1.161","25sybe6b9tou51f",382,"67.csv","","null","resources/maskTrios/BBA2.jpg","null","",NA,NA,NA,NA,""
"image-keyboard-response",497,344732,"0.0-4.161-2.161","25sybe6b9tou51f",382,"67.csv","","null","resources/images/coin2.png","null","",NA,NA,NA,NA,""
"image-keyboard-response",498,345201,"0.0-4.162-0.162","25sybe6b9tou51f",382,"67.csv","","467.40000000596046","resources/trios/L4T2A2.jpg","39","restless",0.4,0.4,0.6,0.847801243248825,"false"
"image-keyboard-response",499,345603,"0.0-4.162-1.162","25sybe6b9tou51f",382,"67.csv","","null","resources/maskTrios/BBA2.jpg","null","",NA,NA,NA,NA,""
"image-keyboard-response",500,346804,"0.0-4.162-2.162","25sybe6b9tou51f",382,"67.csv","","null","resources/images/fishbone.png","null","",NA,NA,NA,NA,""
"image-keyboard-response",501,346992,"0.0-4.163-0.163","25sybe6b9tou51f",382,"67.csv","","186.20000000298023","resources/trios/L4T2A2.jpg","38","restless",0.4,0.4,0.6,0.323388974094041,"true"
"image-keyboard-response",502,347393,"0.0-4.163-1.163","25sybe6b9tou51f",382,"67.csv","","null","resources/maskTrios/BT2B.jpg","null","",NA,NA,NA,NA,""
"image-keyboard-response",503,348594,"0.0-4.163-2.163","25sybe6b9tou51f",382,"67.csv","","null","resources/images/coin2.png","null","",NA,NA,NA,NA,""
"image-keyboard-response",504,349888,"0.0-4.164-0.164","25sybe6b9tou51f",382,"67.csv","","1292.6000000089407","resources/trios/L4T2A2.jpg","38","restless",0.4,0.4,0.6,0.837046668901484,"false"
"image-keyboard-response",505,350289,"0.0-4.164-1.164","25sybe6b9tou51f",382,"67.csv","","null","resources/maskTrios/BT2B.jpg","null","",NA,NA,NA,NA,""
"image-keyboard-response",506,351491,"0.0-4.164-2.164","25sybe6b9tou51f",382,"67.csv","","null","resources/images/fishbone.png","null","",NA,NA,NA,NA,""
"image-keyboard-response",507,353512,"0.0-4.165-0.165","25sybe6b9tou51f",382,"67.csv","","2019.5","resources/trios/L4T2A2.jpg","38","restless",0.4,0.4,0.5,0.0552127259626694,"true"
"image-keyboard-response",508,353915,"0.0-4.165-1.165","25sybe6b9tou51f",382,"67.csv","","null","resources/maskTrios/BT2B.jpg","null","",NA,NA,NA,NA,""
"image-keyboard-response",509,355117,"0.0-4.165-2.165","25sybe6b9tou51f",382,"67.csv","","null","resources/images/coin2.png","null","",NA,NA,NA,NA,""
"image-keyboard-response",510,355552,"0.0-4.166-0.166","25sybe6b9tou51f",382,"67.csv","","433.5","resources/trios/L4T2A2.jpg","38","restless",0.4,0.4,0.5,0.154520336790002,"true"
"image-keyboard-response",511,355955,"0.0-4.166-1.166","25sybe6b9tou51f",382,"67.csv","","null","resources/maskTrios/BT2B.jpg","null","",NA,NA,NA,NA,""
"image-keyboard-response",512,357158,"0.0-4.166-2.166","25sybe6b9tou51f",382,"67.csv","","null","resources/images/coin2.png","null","",NA,NA,NA,NA,""
"image-keyboard-response",513,357608,"0.0-4.167-0.167","25sybe6b9tou51f",382,"67.csv","","448.70000000298023","resources/trios/L4T2A2.jpg","38","restless",0.4,0.4,0.5,0.862315071014923,"false"
"image-keyboard-response",514,358010,"0.0-4.167-1.167","25sybe6b9tou51f",382,"67.csv","","null","resources/maskTrios/BT2B.jpg","null","",NA,NA,NA,NA,""
"image-keyboard-response",515,359212,"0.0-4.167-2.167","25sybe6b9tou51f",382,"67.csv","","null","resources/images/fishbone.png","null","",NA,NA,NA,NA,""
"image-keyboard-response",516,360351,"0.0-4.168-0.168","25sybe6b9tou51f",382,"67.csv","","1138.7000000029802","resources/trios/L4T2A2.jpg","37","restless",0.5,0.4,0.5,0.499085346487267,"true"
"image-keyboard-response",517,360755,"0.0-4.168-1.168","25sybe6b9tou51f",382,"67.csv","","null","resources/maskTrios/L4BB.jpg","null","",NA,NA,NA,NA,""
"image-keyboard-response",518,361957,"0.0-4.168-2.168","25sybe6b9tou51f",382,"67.csv","","null","resources/images/coin2.png","null","",NA,NA,NA,NA,""
"image-keyboard-response",519,362367,"0.0-4.169-0.169","25sybe6b9tou51f",382,"67.csv","","409.09999999403954","resources/trios/L4T2A2.jpg","37","restless",0.6,0.4,0.5,0.583453329317954,"true"
"image-keyboard-response",520,362770,"0.0-4.169-1.169","25sybe6b9tou51f",382,"67.csv","","null","resources/maskTrios/L4BB.jpg","null","",NA,NA,NA,NA,""
"image-keyboard-response",521,363973,"0.0-4.169-2.169","25sybe6b9tou51f",382,"67.csv","","null","resources/images/coin2.png","null","",NA,NA,NA,NA,""
"image-keyboard-response",522,364375,"0.0-4.170-0.170","25sybe6b9tou51f",382,"67.csv","","401.40000000596046","resources/trios/L4T2A2.jpg","37","restless",0.6,0.4,0.5,0.997263579436046,"false"
"image-keyboard-response",523,364777,"0.0-4.170-1.170","25sybe6b9tou51f",382,"67.csv","","null","resources/maskTrios/L4BB.jpg","null","",NA,NA,NA,NA,""
"image-keyboard-response",524,365978,"0.0-4.170-2.170","25sybe6b9tou51f",382,"67.csv","","null","resources/images/fishbone.png","null","",NA,NA,NA,NA,""
"image-keyboard-response",525,366520,"0.0-4.171-0.171","25sybe6b9tou51f",382,"67.csv","","540.7999999970198","resources/trios/L4T2A2.jpg","39","restless",0.6,0.4,0.5,0.325094416597283,"true"
"image-keyboard-response",526,366922,"0.0-4.171-1.171","25sybe6b9tou51f",382,"67.csv","","null","resources/maskTrios/BBA2.jpg","null","",NA,NA,NA,NA,""
"image-keyboard-response",527,368124,"0.0-4.171-2.171","25sybe6b9tou51f",382,"67.csv","","null","resources/images/coin2.png","null","",NA,NA,NA,NA,""
"image-keyboard-response",528,368575,"0.0-4.172-0.172","25sybe6b9tou51f",382,"67.csv","","449.40000000596046","resources/trios/L4T2A2.jpg","39","restless",0.6,0.4,0.4,0.202283225702127,"true"
"image-keyboard-response",529,368978,"0.0-4.172-1.172","25sybe6b9tou51f",382,"67.csv","","null","resources/maskTrios/BBA2.jpg","null","",NA,NA,NA,NA,""
"image-keyboard-response",530,370179,"0.0-4.172-2.172","25sybe6b9tou51f",382,"67.csv","","null","resources/images/coin2.png","null","",NA,NA,NA,NA,""
"image-keyboard-response",531,370215,"0.0-4.173-0.173","25sybe6b9tou51f",382,"67.csv","","34.70000000298023","resources/trios/L4T2A2.jpg","39","restless",0.6,0.4,0.4,0.887457974069942,"false"
"image-keyboard-response",532,370618,"0.0-4.173-1.173","25sybe6b9tou51f",382,"67.csv","","null","resources/maskTrios/BBA2.jpg","null","",NA,NA,NA,NA,""
"image-keyboard-response",533,371821,"0.0-4.173-2.173","25sybe6b9tou51f",382,"67.csv","","null","resources/images/fishbone.png","null","",NA,NA,NA,NA,""
"image-keyboard-response",534,381823,"0.0-4.174-0.174","25sybe6b9tou51f",382,"67.csv","","10001.79999999702","resources/trios/L4T2A2.jpg","39","restless",0.6,0.4,0.3,0.919973690800143,"false"
"image-keyboard-response",535,382226,"0.0-4.174-1.174","25sybe6b9tou51f",382,"67.csv","","null","resources/maskTrios/BBA2.jpg","null","",NA,NA,NA,NA,""
"image-keyboard-response",536,383428,"0.0-4.174-2.174","25sybe6b9tou51f",382,"67.csv","","null","resources/images/fishbone.png","null","",NA,NA,NA,NA,""
"image-keyboard-response",537,384103,"0.0-4.175-0.175","25sybe6b9tou51f",382,"67.csv","","674.2999999970198","resources/trios/L4T2A2.jpg","39","restless",0.6,0.4,0.3,0.688673482426426,"false"
"image-keyboard-response",538,384504,"0.0-4.175-1.175","25sybe6b9tou51f",382,"67.csv","","null","resources/maskTrios/BBA2.jpg","null","",NA,NA,NA,NA,""
"image-keyboard-response",539,385706,"0.0-4.175-2.175","25sybe6b9tou51f",382,"67.csv","","null","resources/images/fishbone.png","null","",NA,NA,NA,NA,""
"image-keyboard-response",540,386143,"0.0-4.176-0.176","25sybe6b9tou51f",382,"67.csv","","435.70000000298023","resources/trios/L4T2A2.jpg","38","restless",0.6,0.3,0.3,0.535211286962425,"false"
"image-keyboard-response",541,386546,"0.0-4.176-1.176","25sybe6b9tou51f",382,"67.csv","","null","resources/maskTrios/BT2B.jpg","null","",NA,NA,NA,NA,""
"image-keyboard-response",542,387747,"0.0-4.176-2.176","25sybe6b9tou51f",382,"67.csv","","null","resources/images/fishbone.png","null","",NA,NA,NA,NA,""
"image-keyboard-response",543,388423,"0.0-4.177-0.177","25sybe6b9tou51f",382,"67.csv","","674.7000000029802","resources/trios/L4T2A2.jpg","38","restless",0.6,0.3,0.3,0.550024383077637,"false"
"image-keyboard-response",544,388825,"0.0-4.177-1.177","25sybe6b9tou51f",382,"67.csv","","null","resources/maskTrios/BT2B.jpg","null","",NA,NA,NA,NA,""
"image-keyboard-response",545,390027,"0.0-4.177-2.177","25sybe6b9tou51f",382,"67.csv","","null","resources/images/fishbone.png","null","",NA,NA,NA,NA,""
"image-keyboard-response",546,390687,"0.0-4.178-0.178","25sybe6b9tou51f",382,"67.csv","","658.8000000119209","resources/trios/L4T2A2.jpg","38","restless",0.6,0.3,0.3,0.812132210305866,"false"
"image-keyboard-response",547,391088,"0.0-4.178-1.178","25sybe6b9tou51f",382,"67.csv","","null","resources/maskTrios/BT2B.jpg","null","",NA,NA,NA,NA,""
"image-keyboard-response",548,392290,"0.0-4.178-2.178","25sybe6b9tou51f",382,"67.csv","","null","resources/images/fishbone.png","null","",NA,NA,NA,NA,""
"image-keyboard-response",549,392607,"0.0-4.179-0.179","25sybe6b9tou51f",382,"67.csv","","316.1000000089407","resources/trios/L4T2A2.jpg","38","restless",0.6,0.4,0.3,0.653668371771272,"false"
"image-keyboard-response",550,393009,"0.0-4.179-1.179","25sybe6b9tou51f",382,"67.csv","","null","resources/maskTrios/BT2B.jpg","null","",NA,NA,NA,NA,""
"image-keyboard-response",551,394211,"0.0-4.179-2.179","25sybe6b9tou51f",382,"67.csv","","null","resources/images/fishbone.png","null","",NA,NA,NA,NA,""
"image-keyboard-response",552,399015,"0.0-4.180-0.180","25sybe6b9tou51f",382,"67.csv","","4802.29999999702","resources/trios/L4T2A2.jpg","38","restless",0.6,0.4,0.3,0.371641165829265,"true"
"image-keyboard-response",553,399416,"0.0-4.180-1.180","25sybe6b9tou51f",382,"67.csv","","null","resources/maskTrios/BT2B.jpg","null","",NA,NA,NA,NA,""
"image-keyboard-response",554,400619,"0.0-4.180-2.180","25sybe6b9tou51f",382,"67.csv","","null","resources/images/coin2.png","null","",NA,NA,NA,NA,""
"image-keyboard-response",555,402158,"0.0-4.181-0.181","25sybe6b9tou51f",382,"67.csv","","1538.2000000029802","resources/trios/L4T2A2.jpg","38","restless",0.6,0.4,0.3,0.359533105801216,"true"
"image-keyboard-response",556,402560,"0.0-4.181-1.181","25sybe6b9tou51f",382,"67.csv","","null","resources/maskTrios/BT2B.jpg","null","",NA,NA,NA,NA,""
"image-keyboard-response",557,403761,"0.0-4.181-2.181","25sybe6b9tou51f",382,"67.csv","","null","resources/images/coin2.png","null","",NA,NA,NA,NA,""
"image-keyboard-response",558,405302,"0.0-4.182-0.182","25sybe6b9tou51f",382,"67.csv","","1540.2000000029802","resources/trios/L4T2A2.jpg","39","restless",0.6,0.4,0.3,0.588498609571205,"false"
"image-keyboard-response",559,405705,"0.0-4.182-1.182","25sybe6b9tou51f",382,"67.csv","","null","resources/maskTrios/BBA2.jpg","null","",NA,NA,NA,NA,""
"image-keyboard-response",560,406907,"0.0-4.182-2.182","25sybe6b9tou51f",382,"67.csv","","null","resources/images/fishbone.png","null","",NA,NA,NA,NA,""
"image-keyboard-response",561,408262,"0.0-4.183-0.183","25sybe6b9tou51f",382,"67.csv","","1354.5","resources/trios/L4T2A2.jpg","39","restless",0.6,0.4,0.4,0.280981765305226,"true"
"image-keyboard-response",562,408664,"0.0-4.183-1.183","25sybe6b9tou51f",382,"67.csv","","null","resources/maskTrios/BBA2.jpg","null","",NA,NA,NA,NA,""
"image-keyboard-response",563,409866,"0.0-4.183-2.183","25sybe6b9tou51f",382,"67.csv","","null","resources/images/coin2.png","null","",NA,NA,NA,NA,""
"image-keyboard-response",564,413117,"0.0-4.184-0.184","25sybe6b9tou51f",382,"67.csv","","3249.7999999970198","resources/trios/L4T2A2.jpg","39","restless",0.6,0.5,0.4,0.135013501168115,"true"
"image-keyboard-response",565,413519,"0.0-4.184-1.184","25sybe6b9tou51f",382,"67.csv","","null","resources/maskTrios/BBA2.jpg","null","",NA,NA,NA,NA,""
"image-keyboard-response",566,414721,"0.0-4.184-2.184","25sybe6b9tou51f",382,"67.csv","","null","resources/images/coin2.png","null","",NA,NA,NA,NA,""
"image-keyboard-response",567,415237,"0.0-4.185-0.185","25sybe6b9tou51f",382,"67.csv","","515.5","resources/trios/L4T2A2.jpg","39","restless",0.6,0.5,0.4,0.720917924381275,"false"
"image-keyboard-response",568,415639,"0.0-4.185-1.185","25sybe6b9tou51f",382,"67.csv","","null","resources/maskTrios/BBA2.jpg","null","",NA,NA,NA,NA,""
"image-keyboard-response",569,416841,"0.0-4.185-2.185","25sybe6b9tou51f",382,"67.csv","","null","resources/images/fishbone.png","null","",NA,NA,NA,NA,""
"image-keyboard-response",570,418070,"0.0-4.186-0.186","25sybe6b9tou51f",382,"67.csv","","1228","resources/trios/L4T2A2.jpg","38","restless",0.6,0.5,0.4,0.959486817212402,"false"
"image-keyboard-response",571,418472,"0.0-4.186-1.186","25sybe6b9tou51f",382,"67.csv","","null","resources/maskTrios/BT2B.jpg","null","",NA,NA,NA,NA,""
"image-keyboard-response",572,419674,"0.0-4.186-2.186","25sybe6b9tou51f",382,"67.csv","","null","resources/images/fishbone.png","null","",NA,NA,NA,NA,""
"image-keyboard-response",573,419870,"0.0-4.187-0.187","25sybe6b9tou51f",382,"67.csv","","194.6000000089407","resources/trios/L4T2A2.jpg","37","restless",0.6,0.5,0.5,0.338153782879196,"true"
"image-keyboard-response",574,420272,"0.0-4.187-1.187","25sybe6b9tou51f",382,"67.csv","","null","resources/maskTrios/L4BB.jpg","null","",NA,NA,NA,NA,""
"image-keyboard-response",575,421475,"0.0-4.187-2.187","25sybe6b9tou51f",382,"67.csv","","null","resources/images/coin2.png","null","",NA,NA,NA,NA,""
"image-keyboard-response",576,421535,"0.0-4.188-0.188","25sybe6b9tou51f",382,"67.csv","","59","resources/trios/L4T2A2.jpg","37","restless",0.6,0.5,0.5,0.236010258484856,"true"
"image-keyboard-response",577,421937,"0.0-4.188-1.188","25sybe6b9tou51f",382,"67.csv","","null","resources/maskTrios/L4BB.jpg","null","",NA,NA,NA,NA,""
"image-keyboard-response",578,423138,"0.0-4.188-2.188","25sybe6b9tou51f",382,"67.csv","","null","resources/images/coin2.png","null","",NA,NA,NA,NA,""
"image-keyboard-response",579,423429,"0.0-4.189-0.189","25sybe6b9tou51f",382,"67.csv","","289.29999999701977","resources/trios/L4T2A2.jpg","37","restless",0.6,0.5,0.5,0.380003408974488,"true"
"image-keyboard-response",580,423830,"0.0-4.189-1.189","25sybe6b9tou51f",382,"67.csv","","null","resources/maskTrios/L4BB.jpg","null","",NA,NA,NA,NA,""
"image-keyboard-response",581,425033,"0.0-4.189-2.189","25sybe6b9tou51f",382,"67.csv","","null","resources/images/coin2.png","null","",NA,NA,NA,NA,""
"image-keyboard-response",582,425134,"0.0-4.190-0.190","25sybe6b9tou51f",382,"67.csv","","99.59999999403954","resources/trios/L4T2A2.jpg","37","restless",0.6,0.5,0.5,0.778760804039212,"false"
"image-keyboard-response",583,425536,"0.0-4.190-1.190","25sybe6b9tou51f",382,"67.csv","","null","resources/maskTrios/L4BB.jpg","null","",NA,NA,NA,NA,""
"image-keyboard-response",584,426738,"0.0-4.190-2.190","25sybe6b9tou51f",382,"67.csv","","null","resources/images/fishbone.png","null","",NA,NA,NA,NA,""
"image-keyboard-response",585,426973,"0.0-4.191-0.191","25sybe6b9tou51f",382,"67.csv","","234.09999999403954","resources/trios/L4T2A2.jpg","38","restless",0.6,0.5,0.5,0.862648462001784,"false"
"image-keyboard-response",586,427375,"0.0-4.191-1.191","25sybe6b9tou51f",382,"67.csv","","null","resources/maskTrios/BT2B.jpg","null","",NA,NA,NA,NA,""
"image-keyboard-response",587,428576,"0.0-4.191-2.191","25sybe6b9tou51f",382,"67.csv","","null","resources/images/fishbone.png","null","",NA,NA,NA,NA,""
"image-keyboard-response",588,428822,"0.0-4.192-0.192","25sybe6b9tou51f",382,"67.csv","","244.1000000089407","resources/trios/L4T2A2.jpg","39","restless",0.6,0.5,0.5,0.953909526637381,"false"
"image-keyboard-response",589,429224,"0.0-4.192-1.192","25sybe6b9tou51f",382,"67.csv","","null","resources/maskTrios/BBA2.jpg","null","",NA,NA,NA,NA,""
"image-keyboard-response",590,430426,"0.0-4.192-2.192","25sybe6b9tou51f",382,"67.csv","","null","resources/images/fishbone.png","null","",NA,NA,NA,NA,""
"image-keyboard-response",591,430445,"0.0-4.193-0.193","25sybe6b9tou51f",382,"67.csv","","17.799999997019768","resources/trios/L4T2A2.jpg","37","restless",0.6,0.5,0.5,0.435399133226641,"true"
"image-keyboard-response",592,430847,"0.0-4.193-1.193","25sybe6b9tou51f",382,"67.csv","","null","resources/maskTrios/L4BB.jpg","null","",NA,NA,NA,NA,""
"image-keyboard-response",593,432048,"0.0-4.193-2.193","25sybe6b9tou51f",382,"67.csv","","null","resources/images/coin2.png","null","",NA,NA,NA,NA,""
"image-keyboard-response",594,432132,"0.0-4.194-0.194","25sybe6b9tou51f",382,"67.csv","","82.90000000596046","resources/trios/L4T2A2.jpg","39","restless",0.6,0.5,0.5,0.515042469451241,"false"
"image-keyboard-response",595,432534,"0.0-4.194-1.194","25sybe6b9tou51f",382,"67.csv","","null","resources/maskTrios/BBA2.jpg","null","",NA,NA,NA,NA,""
"image-keyboard-response",596,433737,"0.0-4.194-2.194","25sybe6b9tou51f",382,"67.csv","","null","resources/images/fishbone.png","null","",NA,NA,NA,NA,""
"image-keyboard-response",597,433781,"0.0-4.195-0.195","25sybe6b9tou51f",382,"67.csv","","42.8999999910593","resources/trios/L4T2A2.jpg","38","restless",0.6,0.5,0.6,0.392736120795077,"true"
"image-keyboard-response",598,434183,"0.0-4.195-1.195","25sybe6b9tou51f",382,"67.csv","","null","resources/maskTrios/BT2B.jpg","null","",NA,NA,NA,NA,""
"image-keyboard-response",599,435386,"0.0-4.195-2.195","25sybe6b9tou51f",382,"67.csv","","null","resources/images/coin2.png","null","",NA,NA,NA,NA,""
"image-keyboard-response",600,435437,"0.0-4.196-0.196","25sybe6b9tou51f",382,"67.csv","","49.79999999701977","resources/trios/L4T2A2.jpg","37","restless",0.6,0.5,0.6,0.547081521628983,"true"
"image-keyboard-response",601,435838,"0.0-4.196-1.196","25sybe6b9tou51f",382,"67.csv","","null","resources/maskTrios/L4BB.jpg","null","",NA,NA,NA,NA,""
"image-keyboard-response",602,437039,"0.0-4.196-2.196","25sybe6b9tou51f",382,"67.csv","","null","resources/images/coin2.png","null","",NA,NA,NA,NA,""
"image-keyboard-response",603,437045,"0.0-4.197-0.197","25sybe6b9tou51f",382,"67.csv","","5.200000002980232","resources/trios/L4T2A2.jpg","37","restless",0.6,0.5,0.6,0.324535053644927,"true"
"image-keyboard-response",604,437448,"0.0-4.197-1.197","25sybe6b9tou51f",382,"67.csv","","null","resources/maskTrios/L4BB.jpg","null","",NA,NA,NA,NA,""
"image-keyboard-response",605,438651,"0.0-4.197-2.197","25sybe6b9tou51f",382,"67.csv","","null","resources/images/coin2.png","null","",NA,NA,NA,NA,""
"image-keyboard-response",606,438733,"0.0-4.198-0.198","25sybe6b9tou51f",382,"67.csv","","80.40000000596046","resources/trios/L4T2A2.jpg","37","restless",0.6,0.5,0.7,0.444206324295005,"true"
"image-keyboard-response",607,439136,"0.0-4.198-1.198","25sybe6b9tou51f",382,"67.csv","","null","resources/maskTrios/L4BB.jpg","null","",NA,NA,NA,NA,""
"image-keyboard-response",608,440338,"0.0-4.198-2.198","25sybe6b9tou51f",382,"67.csv","","null","resources/images/coin2.png","null","",NA,NA,NA,NA,""
"image-keyboard-response",609,440412,"0.0-4.199-0.199","25sybe6b9tou51f",382,"67.csv","","73","resources/trios/L4T2A2.jpg","37","restless",0.6,0.5,0.7,0.660836947864925,"false"
"image-keyboard-response",610,440814,"0.0-4.199-1.199","25sybe6b9tou51f",382,"67.csv","","null","resources/maskTrios/L4BB.jpg","null","",NA,NA,NA,NA,""
"image-keyboard-response",611,442016,"0.0-4.199-2.199","25sybe6b9tou51f",382,"67.csv","","null","resources/images/fishbone.png","null","",NA,NA,NA,NA,""
"survey-text",612,465564,"0.0-5.0","25sybe6b9tou51f",382,"67.csv","","23545.39999999106","","","",NA,NA,NA,NA,""
