"trial_type","trial_index","time_elapsed","internal_node_id","subject","participantCode","walkNumber","success","rt","stimulus","key_press","test_part","leftProb","midProb","rightProb","generatedNum","correct"
"pavlovia",0,1184,"0.0-0.0","u5a65eg1nx943ed",590,"11.csv","","","","","",NA,NA,NA,NA,""
"fullscreen",1,7841,"0.0-1.0","u5a65eg1nx943ed",590,"11.csv","true","","","","",NA,NA,NA,NA,""
"survey-html-form",2,22203,"0.0-2.0","u5a65eg1nx943ed",590,"11.csv","","14353.599999964237","","","",NA,NA,NA,NA,""
"image-keyboard-response",3,27922,"0.0-3.0-0.0","u5a65eg1nx943ed",590,"11.csv","","5717.5","resources/images/parrot_nobg.png","13","",NA,NA,NA,NA,""
"image-keyboard-response",4,30924,"0.0-3.0-1.0","u5a65eg1nx943ed",590,"11.csv","","null","resources/image_sets/111.png","null","",NA,NA,NA,NA,""
"image-keyboard-response",5,33303,"0.0-3.0-2.0","u5a65eg1nx943ed",590,"11.csv","","2378.199999988079","resources/image_sets/left_highlight.png","37","",NA,NA,NA,NA,""
"image-keyboard-response",6,33633,"0.0-3.0-3.0","u5a65eg1nx943ed",590,"11.csv","","329.0999999642372","resources/image_sets/mid_highlight.png","38","",NA,NA,NA,NA,""
"image-keyboard-response",7,33890,"0.0-3.0-4.0","u5a65eg1nx943ed",590,"11.csv","","255.89999997615814","resources/image_sets/right_highlight.png","39","",NA,NA,NA,NA,""
"image-keyboard-response",8,34942,"0.0-3.0-5.0","u5a65eg1nx943ed",590,"11.csv","","1051.5","resources/image_sets/111.png","13","",NA,NA,NA,NA,""
"image-keyboard-response",9,35958,"0.0-3.0-6.0","u5a65eg1nx943ed",590,"11.csv","","1014.8999999761581","resources/images/coin2.png","13","",NA,NA,NA,NA,""
"image-keyboard-response",10,36509,"0.0-3.0-7.0","u5a65eg1nx943ed",590,"11.csv","","551","resources/images/fishbone.png","13","",NA,NA,NA,NA,""
"html-keyboard-response",11,37077,"0.0-3.0-8.0","u5a65eg1nx943ed",590,"11.csv","","567.6999999880791","<p>You can track your coin total on the top right of your screen. </p><p>At the end of your journey you will be directed to a survey, so please click on the link before exiting the task</p><p>Press Enter to begin</p>","13","",NA,NA,NA,NA,""
"image-keyboard-response",12,38589,"0.0-4.0-0.0","u5a65eg1nx943ed",590,"11.csv","","1510.3999999761581","resources/trios/L1T2A3.jpg","37","restless",0.9,0.3,0.7,0.445114551324501,"true"
"image-keyboard-response",13,38996,"0.0-4.0-1.0","u5a65eg1nx943ed",590,"11.csv","","null","resources/maskTrios/L1BB.jpg","null","",NA,NA,NA,NA,""
"image-keyboard-response",14,40204,"0.0-4.0-2.0","u5a65eg1nx943ed",590,"11.csv","","null","resources/images/coin2.png","null","",NA,NA,NA,NA,""
"image-keyboard-response",15,41072,"0.0-4.1-0.1","u5a65eg1nx943ed",590,"11.csv","","866.3999999761581","resources/trios/L1T2A3.jpg","38","restless",0.9,0.3,0.7,0.824441817679072,"false"
"image-keyboard-response",16,41478,"0.0-4.1-1.1","u5a65eg1nx943ed",590,"11.csv","","null","resources/maskTrios/BT2B.jpg","null","",NA,NA,NA,NA,""
"image-keyboard-response",17,42685,"0.0-4.1-2.1","u5a65eg1nx943ed",590,"11.csv","","null","resources/images/fishbone.png","null","",NA,NA,NA,NA,""
"image-keyboard-response",18,43039,"0.0-4.2-0.2","u5a65eg1nx943ed",590,"11.csv","","353.19999998807907","resources/trios/L1T2A3.jpg","38","restless",0.9,0.3,0.7,0.226576392622059,"true"
"image-keyboard-response",19,43444,"0.0-4.2-1.2","u5a65eg1nx943ed",590,"11.csv","","null","resources/maskTrios/BT2B.jpg","null","",NA,NA,NA,NA,""
"image-keyboard-response",20,44649,"0.0-4.2-2.2","u5a65eg1nx943ed",590,"11.csv","","null","resources/images/coin2.png","null","",NA,NA,NA,NA,""
"image-keyboard-response",21,45262,"0.0-4.3-0.3","u5a65eg1nx943ed",590,"11.csv","","611.6999999880791","resources/trios/L1T2A3.jpg","38","restless",0.8,0.3,0.6,0.28991968063807,"true"
"image-keyboard-response",22,45664,"0.0-4.3-1.3","u5a65eg1nx943ed",590,"11.csv","","null","resources/maskTrios/BT2B.jpg","null","",NA,NA,NA,NA,""
"image-keyboard-response",23,46870,"0.0-4.3-2.3","u5a65eg1nx943ed",590,"11.csv","","null","resources/images/coin2.png","null","",NA,NA,NA,NA,""
"image-keyboard-response",24,47767,"0.0-4.4-0.4","u5a65eg1nx943ed",590,"11.csv","","896.0999999642372","resources/trios/L1T2A3.jpg","38","restless",0.8,0.3,0.6,0.29101190818925,"true"
"image-keyboard-response",25,48170,"0.0-4.4-1.4","u5a65eg1nx943ed",590,"11.csv","","null","resources/maskTrios/BT2B.jpg","null","",NA,NA,NA,NA,""
"image-keyboard-response",26,49373,"0.0-4.4-2.4","u5a65eg1nx943ed",590,"11.csv","","null","resources/images/coin2.png","null","",NA,NA,NA,NA,""
"image-keyboard-response",27,49734,"0.0-4.5-0.5","u5a65eg1nx943ed",590,"11.csv","","359.19999998807907","resources/trios/L1T2A3.jpg","38","restless",0.7,0.3,0.6,0.291598894821993,"true"
"image-keyboard-response",28,50136,"0.0-4.5-1.5","u5a65eg1nx943ed",590,"11.csv","","null","resources/maskTrios/BT2B.jpg","null","",NA,NA,NA,NA,""
"image-keyboard-response",29,51341,"0.0-4.5-2.5","u5a65eg1nx943ed",590,"11.csv","","null","resources/images/coin2.png","null","",NA,NA,NA,NA,""
"image-keyboard-response",30,51376,"0.0-4.6-0.6","u5a65eg1nx943ed",590,"11.csv","","33.80000001192093","resources/trios/L1T2A3.jpg","38","restless",0.7,0.3,0.6,0.887948190896525,"false"
"image-keyboard-response",31,51779,"0.0-4.6-1.6","u5a65eg1nx943ed",590,"11.csv","","null","resources/maskTrios/BT2B.jpg","null","",NA,NA,NA,NA,""
"image-keyboard-response",32,52986,"0.0-4.6-2.6","u5a65eg1nx943ed",590,"11.csv","","null","resources/images/fishbone.png","null","",NA,NA,NA,NA,""
"image-keyboard-response",33,53015,"0.0-4.7-0.7","u5a65eg1nx943ed",590,"11.csv","","28.19999998807907","resources/trios/L1T2A3.jpg","38","restless",0.7,0.3,0.6,0.261407289285266,"true"
"image-keyboard-response",34,53422,"0.0-4.7-1.7","u5a65eg1nx943ed",590,"11.csv","","null","resources/maskTrios/BT2B.jpg","null","",NA,NA,NA,NA,""
"image-keyboard-response",35,54629,"0.0-4.7-2.7","u5a65eg1nx943ed",590,"11.csv","","null","resources/images/coin2.png","null","",NA,NA,NA,NA,""
"image-keyboard-response",36,55262,"0.0-4.8-0.8","u5a65eg1nx943ed",590,"11.csv","","629.3000000119209","resources/trios/L1T2A3.jpg","38","restless",0.7,0.4,0.6,0.805220675867026,"false"
"image-keyboard-response",37,55666,"0.0-4.8-1.8","u5a65eg1nx943ed",590,"11.csv","","null","resources/maskTrios/BT2B.jpg","null","",NA,NA,NA,NA,""
"image-keyboard-response",38,56872,"0.0-4.8-2.8","u5a65eg1nx943ed",590,"11.csv","","null","resources/images/fishbone.png","null","",NA,NA,NA,NA,""
"image-keyboard-response",39,56888,"0.0-4.9-0.9","u5a65eg1nx943ed",590,"11.csv","","14.300000011920929","resources/trios/L1T2A3.jpg","38","restless",0.7,0.4,0.6,0.524343880708357,"false"
"image-keyboard-response",40,57290,"0.0-4.9-1.9","u5a65eg1nx943ed",590,"11.csv","","null","resources/maskTrios/BT2B.jpg","null","",NA,NA,NA,NA,""
"image-keyboard-response",41,58494,"0.0-4.9-2.9","u5a65eg1nx943ed",590,"11.csv","","null","resources/images/fishbone.png","null","",NA,NA,NA,NA,""
"image-keyboard-response",42,59367,"0.0-4.10-0.10","u5a65eg1nx943ed",590,"11.csv","","872.0999999642372","resources/trios/L1T2A3.jpg","38","restless",0.7,0.4,0.6,0.924807188163158,"false"
"image-keyboard-response",43,59774,"0.0-4.10-1.10","u5a65eg1nx943ed",590,"11.csv","","null","resources/maskTrios/BT2B.jpg","null","",NA,NA,NA,NA,""
"image-keyboard-response",44,60980,"0.0-4.10-2.10","u5a65eg1nx943ed",590,"11.csv","","null","resources/images/fishbone.png","null","",NA,NA,NA,NA,""
"image-keyboard-response",45,61259,"0.0-4.11-0.11","u5a65eg1nx943ed",590,"11.csv","","278.69999998807907","resources/trios/L1T2A3.jpg","38","restless",0.6,0.4,0.6,0.541812259183529,"false"
"image-keyboard-response",46,61663,"0.0-4.11-1.11","u5a65eg1nx943ed",590,"11.csv","","null","resources/maskTrios/BT2B.jpg","null","",NA,NA,NA,NA,""
"image-keyboard-response",47,62867,"0.0-4.11-2.11","u5a65eg1nx943ed",590,"11.csv","","null","resources/images/fishbone.png","null","",NA,NA,NA,NA,""
"image-keyboard-response",48,64154,"0.0-4.12-0.12","u5a65eg1nx943ed",590,"11.csv","","1286.2999999523163","resources/trios/L1T2A3.jpg","38","restless",0.6,0.4,0.6,0.801447347246405,"false"
"image-keyboard-response",49,64561,"0.0-4.12-1.12","u5a65eg1nx943ed",590,"11.csv","","null","resources/maskTrios/BT2B.jpg","null","",NA,NA,NA,NA,""
"image-keyboard-response",50,65765,"0.0-4.12-2.12","u5a65eg1nx943ed",590,"11.csv","","null","resources/images/fishbone.png","null","",NA,NA,NA,NA,""
"image-keyboard-response",51,65986,"0.0-4.13-0.13","u5a65eg1nx943ed",590,"11.csv","","220.0999999642372","resources/trios/L1T2A3.jpg","38","restless",0.6,0.4,0.7,0.674082047868865,"false"
"image-keyboard-response",52,66388,"0.0-4.13-1.13","u5a65eg1nx943ed",590,"11.csv","","null","resources/maskTrios/BT2B.jpg","null","",NA,NA,NA,NA,""
"image-keyboard-response",53,67595,"0.0-4.13-2.13","u5a65eg1nx943ed",590,"11.csv","","null","resources/images/fishbone.png","null","",NA,NA,NA,NA,""
"image-keyboard-response",54,69216,"0.0-4.14-0.14","u5a65eg1nx943ed",590,"11.csv","","1620","resources/trios/L1T2A3.jpg","38","restless",0.6,0.4,0.7,0.67746602022478,"false"
"image-keyboard-response",55,69619,"0.0-4.14-1.14","u5a65eg1nx943ed",590,"11.csv","","null","resources/maskTrios/BT2B.jpg","null","",NA,NA,NA,NA,""
"image-keyboard-response",56,70821,"0.0-4.14-2.14","u5a65eg1nx943ed",590,"11.csv","","null","resources/images/fishbone.png","null","",NA,NA,NA,NA,""
"image-keyboard-response",57,72106,"0.0-4.15-0.15","u5a65eg1nx943ed",590,"11.csv","","1284","resources/trios/L1T2A3.jpg","38","restless",0.5,0.4,0.7,0.335701234706224,"true"
"image-keyboard-response",58,72509,"0.0-4.15-1.15","u5a65eg1nx943ed",590,"11.csv","","null","resources/maskTrios/BT2B.jpg","null","",NA,NA,NA,NA,""
"image-keyboard-response",59,73716,"0.0-4.15-2.15","u5a65eg1nx943ed",590,"11.csv","","null","resources/images/coin2.png","null","",NA,NA,NA,NA,""
"image-keyboard-response",60,75786,"0.0-4.16-0.16","u5a65eg1nx943ed",590,"11.csv","","2068.100000023842","resources/trios/L1T2A3.jpg","38","restless",0.6,0.4,0.6,0.738408512767942,"false"
"image-keyboard-response",61,76192,"0.0-4.16-1.16","u5a65eg1nx943ed",590,"11.csv","","null","resources/maskTrios/BT2B.jpg","null","",NA,NA,NA,NA,""
"image-keyboard-response",62,77398,"0.0-4.16-2.16","u5a65eg1nx943ed",590,"11.csv","","null","resources/images/fishbone.png","null","",NA,NA,NA,NA,""
"image-keyboard-response",63,77590,"0.0-4.17-0.17","u5a65eg1nx943ed",590,"11.csv","","191.9000000357628","resources/trios/L1T2A3.jpg","38","restless",0.5,0.4,0.6,0.387540409625507,"true"
"image-keyboard-response",64,77994,"0.0-4.17-1.17","u5a65eg1nx943ed",590,"11.csv","","null","resources/maskTrios/BT2B.jpg","null","",NA,NA,NA,NA,""
"image-keyboard-response",65,79200,"0.0-4.17-2.17","u5a65eg1nx943ed",590,"11.csv","","null","resources/images/coin2.png","null","",NA,NA,NA,NA,""
"image-keyboard-response",66,81794,"0.0-4.18-0.18","u5a65eg1nx943ed",590,"11.csv","","2593.100000023842","resources/trios/L1T2A3.jpg","38","restless",0.5,0.4,0.6,0.810879241414941,"false"
"image-keyboard-response",67,82201,"0.0-4.18-1.18","u5a65eg1nx943ed",590,"11.csv","","null","resources/maskTrios/BT2B.jpg","null","",NA,NA,NA,NA,""
"image-keyboard-response",68,83404,"0.0-4.18-2.18","u5a65eg1nx943ed",590,"11.csv","","null","resources/images/fishbone.png","null","",NA,NA,NA,NA,""
"image-keyboard-response",69,83419,"0.0-4.19-0.19","u5a65eg1nx943ed",590,"11.csv","","14.100000023841858","resources/trios/L1T2A3.jpg","38","restless",0.5,0.4,0.6,0.850503300710425,"false"
"image-keyboard-response",70,83821,"0.0-4.19-1.19","u5a65eg1nx943ed",590,"11.csv","","null","resources/maskTrios/BT2B.jpg","null","",NA,NA,NA,NA,""
"image-keyboard-response",71,85028,"0.0-4.19-2.19","u5a65eg1nx943ed",590,"11.csv","","null","resources/images/fishbone.png","null","",NA,NA,NA,NA,""
"image-keyboard-response",72,86057,"0.0-4.20-0.20","u5a65eg1nx943ed",590,"11.csv","","1027.5999999642372","resources/trios/L1T2A3.jpg","38","restless",0.5,0.4,0.6,0.576716036926437,"false"
"image-keyboard-response",73,86463,"0.0-4.20-1.20","u5a65eg1nx943ed",590,"11.csv","","null","resources/maskTrios/BT2B.jpg","null","",NA,NA,NA,NA,""
"image-keyboard-response",74,87667,"0.0-4.20-2.20","u5a65eg1nx943ed",590,"11.csv","","null","resources/images/fishbone.png","null","",NA,NA,NA,NA,""
"image-keyboard-response",75,88805,"0.0-4.21-0.21","u5a65eg1nx943ed",590,"11.csv","","1136.8999999761581","resources/trios/L1T2A3.jpg","38","restless",0.4,0.4,0.6,0.188003003483844,"true"
"image-keyboard-response",76,89212,"0.0-4.21-1.21","u5a65eg1nx943ed",590,"11.csv","","null","resources/maskTrios/BT2B.jpg","null","",NA,NA,NA,NA,""
"image-keyboard-response",77,90419,"0.0-4.21-2.21","u5a65eg1nx943ed",590,"11.csv","","null","resources/images/coin2.png","null","",NA,NA,NA,NA,""
"image-keyboard-response",78,90883,"0.0-4.22-0.22","u5a65eg1nx943ed",590,"11.csv","","462.4000000357628","resources/trios/L1T2A3.jpg","38","restless",0.4,0.5,0.6,0.425317128395782,"true"
"image-keyboard-response",79,91288,"0.0-4.22-1.22","u5a65eg1nx943ed",590,"11.csv","","null","resources/maskTrios/BT2B.jpg","null","",NA,NA,NA,NA,""
"image-keyboard-response",80,92489,"0.0-4.22-2.22","u5a65eg1nx943ed",590,"11.csv","","null","resources/images/coin2.png","null","",NA,NA,NA,NA,""
"image-keyboard-response",81,94325,"0.0-4.23-0.23","u5a65eg1nx943ed",590,"11.csv","","1835.1000000238419","resources/trios/L1T2A3.jpg","38","restless",0.4,0.5,0.6,0.248214442133253,"true"
"image-keyboard-response",82,94727,"0.0-4.23-1.23","u5a65eg1nx943ed",590,"11.csv","","null","resources/maskTrios/BT2B.jpg","null","",NA,NA,NA,NA,""
"image-keyboard-response",83,95932,"0.0-4.23-2.23","u5a65eg1nx943ed",590,"11.csv","","null","resources/images/coin2.png","null","",NA,NA,NA,NA,""
"image-keyboard-response",84,96400,"0.0-4.24-0.24","u5a65eg1nx943ed",590,"11.csv","","467.10000002384186","resources/trios/L1T2A3.jpg","38","restless",0.4,0.5,0.6,0.654251066942604,"false"
"image-keyboard-response",85,96806,"0.0-4.24-1.24","u5a65eg1nx943ed",590,"11.csv","","null","resources/maskTrios/BT2B.jpg","null","",NA,NA,NA,NA,""
"image-keyboard-response",86,98008,"0.0-4.24-2.24","u5a65eg1nx943ed",590,"11.csv","","null","resources/images/fishbone.png","null","",NA,NA,NA,NA,""
"image-keyboard-response",87,98992,"0.0-4.25-0.25","u5a65eg1nx943ed",590,"11.csv","","982.8999999761581","resources/trios/L1T2A3.jpg","38","restless",0.4,0.5,0.6,0.309447733482386,"true"
"image-keyboard-response",88,99397,"0.0-4.25-1.25","u5a65eg1nx943ed",590,"11.csv","","null","resources/maskTrios/BT2B.jpg","null","",NA,NA,NA,NA,""
"image-keyboard-response",89,100601,"0.0-4.25-2.25","u5a65eg1nx943ed",590,"11.csv","","null","resources/images/coin2.png","null","",NA,NA,NA,NA,""
"image-keyboard-response",90,101765,"0.0-4.26-0.26","u5a65eg1nx943ed",590,"11.csv","","1163.1000000238419","resources/trios/L1T2A3.jpg","38","restless",0.3,0.5,0.6,0.0327870487885089,"true"
"image-keyboard-response",91,102169,"0.0-4.26-1.26","u5a65eg1nx943ed",590,"11.csv","","null","resources/maskTrios/BT2B.jpg","null","",NA,NA,NA,NA,""
"image-keyboard-response",92,103373,"0.0-4.26-2.26","u5a65eg1nx943ed",590,"11.csv","","null","resources/images/coin2.png","null","",NA,NA,NA,NA,""
"image-keyboard-response",93,103569,"0.0-4.27-0.27","u5a65eg1nx943ed",590,"11.csv","","195.5999999642372","resources/trios/L1T2A3.jpg","38","restless",0.3,0.5,0.6,0.865352952782686,"false"
"image-keyboard-response",94,103976,"0.0-4.27-1.27","u5a65eg1nx943ed",590,"11.csv","","null","resources/maskTrios/BT2B.jpg","null","",NA,NA,NA,NA,""
"image-keyboard-response",95,105177,"0.0-4.27-2.27","u5a65eg1nx943ed",590,"11.csv","","null","resources/images/fishbone.png","null","",NA,NA,NA,NA,""
"image-keyboard-response",96,106801,"0.0-4.28-0.28","u5a65eg1nx943ed",590,"11.csv","","1622.300000011921","resources/trios/L1T2A3.jpg","38","restless",0.3,0.5,0.6,0.117812572720596,"true"
"image-keyboard-response",97,107203,"0.0-4.28-1.28","u5a65eg1nx943ed",590,"11.csv","","null","resources/maskTrios/BT2B.jpg","null","",NA,NA,NA,NA,""
"image-keyboard-response",98,108405,"0.0-4.28-2.28","u5a65eg1nx943ed",590,"11.csv","","null","resources/images/coin2.png","null","",NA,NA,NA,NA,""
"image-keyboard-response",99,112377,"0.0-4.29-0.29","u5a65eg1nx943ed",590,"11.csv","","3970.300000011921","resources/trios/L1T2A3.jpg","38","restless",0.3,0.6,0.6,0.435263217379174,"true"
"image-keyboard-response",100,112784,"0.0-4.29-1.29","u5a65eg1nx943ed",590,"11.csv","","null","resources/maskTrios/BT2B.jpg","null","",NA,NA,NA,NA,""
"image-keyboard-response",101,113991,"0.0-4.29-2.29","u5a65eg1nx943ed",590,"11.csv","","null","resources/images/coin2.png","null","",NA,NA,NA,NA,""
"image-keyboard-response",102,114494,"0.0-4.30-0.30","u5a65eg1nx943ed",590,"11.csv","","502.5","resources/trios/L1T2A3.jpg","38","restless",0.3,0.6,0.6,0.729730987935886,"false"
"image-keyboard-response",103,114900,"0.0-4.30-1.30","u5a65eg1nx943ed",590,"11.csv","","null","resources/maskTrios/BT2B.jpg","null","",NA,NA,NA,NA,""
"image-keyboard-response",104,116105,"0.0-4.30-2.30","u5a65eg1nx943ed",590,"11.csv","","null","resources/images/fishbone.png","null","",NA,NA,NA,NA,""
"image-keyboard-response",105,116751,"0.0-4.31-0.31","u5a65eg1nx943ed",590,"11.csv","","644.1999999880791","resources/trios/L1T2A3.jpg","38","restless",0.3,0.6,0.6,0.771880278145525,"false"
"image-keyboard-response",106,117154,"0.0-4.31-1.31","u5a65eg1nx943ed",590,"11.csv","","null","resources/maskTrios/BT2B.jpg","null","",NA,NA,NA,NA,""
"image-keyboard-response",107,118361,"0.0-4.31-2.31","u5a65eg1nx943ed",590,"11.csv","","null","resources/images/fishbone.png","null","",NA,NA,NA,NA,""
"image-keyboard-response",108,121226,"0.0-4.32-0.32","u5a65eg1nx943ed",590,"11.csv","","2864","resources/trios/L1T2A3.jpg","38","restless",0.3,0.6,0.6,0.269110550845011,"true"
"image-keyboard-response",109,121633,"0.0-4.32-1.32","u5a65eg1nx943ed",590,"11.csv","","null","resources/maskTrios/BT2B.jpg","null","",NA,NA,NA,NA,""
"image-keyboard-response",110,122840,"0.0-4.32-2.32","u5a65eg1nx943ed",590,"11.csv","","null","resources/images/coin2.png","null","",NA,NA,NA,NA,""
"image-keyboard-response",111,125446,"0.0-4.33-0.33","u5a65eg1nx943ed",590,"11.csv","","2605.5","resources/trios/L1T2A3.jpg","38","restless",0.4,0.6,0.6,0.175546625786333,"true"
"image-keyboard-response",112,125853,"0.0-4.33-1.33","u5a65eg1nx943ed",590,"11.csv","","null","resources/maskTrios/BT2B.jpg","null","",NA,NA,NA,NA,""
"image-keyboard-response",113,127059,"0.0-4.33-2.33","u5a65eg1nx943ed",590,"11.csv","","null","resources/images/coin2.png","null","",NA,NA,NA,NA,""
"image-keyboard-response",114,127274,"0.0-4.34-0.34","u5a65eg1nx943ed",590,"11.csv","","213.5999999642372","resources/trios/L1T2A3.jpg","38","restless",0.4,0.6,0.6,0.129960109338718,"true"
"image-keyboard-response",115,127679,"0.0-4.34-1.34","u5a65eg1nx943ed",590,"11.csv","","null","resources/maskTrios/BT2B.jpg","null","",NA,NA,NA,NA,""
"image-keyboard-response",116,128886,"0.0-4.34-2.34","u5a65eg1nx943ed",590,"11.csv","","null","resources/images/coin2.png","null","",NA,NA,NA,NA,""
"image-keyboard-response",117,129897,"0.0-4.35-0.35","u5a65eg1nx943ed",590,"11.csv","","1010.1999999880791","resources/trios/L1T2A3.jpg","38","restless",0.4,0.6,0.6,0.624318328603651,"false"
"image-keyboard-response",118,130298,"0.0-4.35-1.35","u5a65eg1nx943ed",590,"11.csv","","null","resources/maskTrios/BT2B.jpg","null","",NA,NA,NA,NA,""
"image-keyboard-response",119,131502,"0.0-4.35-2.35","u5a65eg1nx943ed",590,"11.csv","","null","resources/images/fishbone.png","null","",NA,NA,NA,NA,""
"image-keyboard-response",120,132776,"0.0-4.36-0.36","u5a65eg1nx943ed",590,"11.csv","","1272.300000011921","resources/trios/L1T2A3.jpg","38","restless",0.4,0.6,0.6,0.933462142158581,"false"
"image-keyboard-response",121,133180,"0.0-4.36-1.36","u5a65eg1nx943ed",590,"11.csv","","null","resources/maskTrios/BT2B.jpg","null","",NA,NA,NA,NA,""
"image-keyboard-response",122,134387,"0.0-4.36-2.36","u5a65eg1nx943ed",590,"11.csv","","null","resources/images/fishbone.png","null","",NA,NA,NA,NA,""
"image-keyboard-response",123,134845,"0.0-4.37-0.37","u5a65eg1nx943ed",590,"11.csv","","457.39999997615814","resources/trios/L1T2A3.jpg","38","restless",0.3,0.6,0.6,0.55107724242943,"true"
"image-keyboard-response",124,135251,"0.0-4.37-1.37","u5a65eg1nx943ed",590,"11.csv","","null","resources/maskTrios/BT2B.jpg","null","",NA,NA,NA,NA,""
"image-keyboard-response",125,136453,"0.0-4.37-2.37","u5a65eg1nx943ed",590,"11.csv","","null","resources/images/coin2.png","null","",NA,NA,NA,NA,""
"image-keyboard-response",126,137242,"0.0-4.38-0.38","u5a65eg1nx943ed",590,"11.csv","","788.3000000119209","resources/trios/L1T2A3.jpg","38","restless",0.3,0.6,0.5,0.733195541675543,"false"
"image-keyboard-response",127,137648,"0.0-4.38-1.38","u5a65eg1nx943ed",590,"11.csv","","null","resources/maskTrios/BT2B.jpg","null","",NA,NA,NA,NA,""
"image-keyboard-response",128,138851,"0.0-4.38-2.38","u5a65eg1nx943ed",590,"11.csv","","null","resources/images/fishbone.png","null","",NA,NA,NA,NA,""
"image-keyboard-response",129,141262,"0.0-4.39-0.39","u5a65eg1nx943ed",590,"11.csv","","2409.7999999523163","resources/trios/L1T2A3.jpg","38","restless",0.3,0.6,0.5,0.596128128578066,"true"
"image-keyboard-response",130,141669,"0.0-4.39-1.39","u5a65eg1nx943ed",590,"11.csv","","null","resources/maskTrios/BT2B.jpg","null","",NA,NA,NA,NA,""
"image-keyboard-response",131,142876,"0.0-4.39-2.39","u5a65eg1nx943ed",590,"11.csv","","null","resources/images/coin2.png","null","",NA,NA,NA,NA,""
"image-keyboard-response",132,143033,"0.0-4.40-0.40","u5a65eg1nx943ed",590,"11.csv","","156.4000000357628","resources/trios/L1T2A3.jpg","38","restless",0.3,0.6,0.5,0.754513332211693,"false"
"image-keyboard-response",133,143439,"0.0-4.40-1.40","u5a65eg1nx943ed",590,"11.csv","","null","resources/maskTrios/BT2B.jpg","null","",NA,NA,NA,NA,""
"image-keyboard-response",134,144641,"0.0-4.40-2.40","u5a65eg1nx943ed",590,"11.csv","","null","resources/images/fishbone.png","null","",NA,NA,NA,NA,""
"image-keyboard-response",135,146007,"0.0-4.41-0.41","u5a65eg1nx943ed",590,"11.csv","","1364.9000000357628","resources/trios/L1T2A3.jpg","38","restless",0.3,0.6,0.5,0.0471344168386889,"true"
"image-keyboard-response",136,146413,"0.0-4.41-1.41","u5a65eg1nx943ed",590,"11.csv","","null","resources/maskTrios/BT2B.jpg","null","",NA,NA,NA,NA,""
"image-keyboard-response",137,147619,"0.0-4.41-2.41","u5a65eg1nx943ed",590,"11.csv","","null","resources/images/coin2.png","null","",NA,NA,NA,NA,""
"image-keyboard-response",138,148610,"0.0-4.42-0.42","u5a65eg1nx943ed",590,"11.csv","","989.4000000357628","resources/trios/L1T2A3.jpg","38","restless",0.3,0.6,0.5,0.471721126061563,"true"
"image-keyboard-response",139,149011,"0.0-4.42-1.42","u5a65eg1nx943ed",590,"11.csv","","null","resources/maskTrios/BT2B.jpg","null","",NA,NA,NA,NA,""
"image-keyboard-response",140,150215,"0.0-4.42-2.42","u5a65eg1nx943ed",590,"11.csv","","null","resources/images/coin2.png","null","",NA,NA,NA,NA,""
"image-keyboard-response",141,152000,"0.0-4.43-0.43","u5a65eg1nx943ed",590,"11.csv","","1784.3999999761581","resources/trios/L1T2A3.jpg","38","restless",0.3,0.6,0.5,0.31042335902008,"true"
"image-keyboard-response",142,152404,"0.0-4.43-1.43","u5a65eg1nx943ed",590,"11.csv","","null","resources/maskTrios/BT2B.jpg","null","",NA,NA,NA,NA,""
"image-keyboard-response",143,153610,"0.0-4.43-2.43","u5a65eg1nx943ed",590,"11.csv","","null","resources/images/coin2.png","null","",NA,NA,NA,NA,""
"image-keyboard-response",144,153767,"0.0-4.44-0.44","u5a65eg1nx943ed",590,"11.csv","","155.80000001192093","resources/trios/L1T2A3.jpg","38","restless",0.4,0.6,0.5,0.0315169818292118,"true"
"image-keyboard-response",145,154170,"0.0-4.44-1.44","u5a65eg1nx943ed",590,"11.csv","","null","resources/maskTrios/BT2B.jpg","null","",NA,NA,NA,NA,""
"image-keyboard-response",146,155371,"0.0-4.44-2.44","u5a65eg1nx943ed",590,"11.csv","","null","resources/images/coin2.png","null","",NA,NA,NA,NA,""
"image-keyboard-response",147,155677,"0.0-4.45-0.45","u5a65eg1nx943ed",590,"11.csv","","305.19999998807907","resources/trios/L1T2A3.jpg","38","restless",0.4,0.6,0.5,0.73994975654894,"false"
"image-keyboard-response",148,156084,"0.0-4.45-1.45","u5a65eg1nx943ed",590,"11.csv","","null","resources/maskTrios/BT2B.jpg","null","",NA,NA,NA,NA,""
"image-keyboard-response",149,157292,"0.0-4.45-2.45","u5a65eg1nx943ed",590,"11.csv","","null","resources/images/fishbone.png","null","",NA,NA,NA,NA,""
"image-keyboard-response",150,157671,"0.0-4.46-0.46","u5a65eg1nx943ed",590,"11.csv","","378.9000000357628","resources/trios/L1T2A3.jpg","38","restless",0.4,0.6,0.4,0.404617166923506,"true"
"image-keyboard-response",151,158078,"0.0-4.46-1.46","u5a65eg1nx943ed",590,"11.csv","","null","resources/maskTrios/BT2B.jpg","null","",NA,NA,NA,NA,""
"image-keyboard-response",152,159283,"0.0-4.46-2.46","u5a65eg1nx943ed",590,"11.csv","","null","resources/images/coin2.png","null","",NA,NA,NA,NA,""
"image-keyboard-response",153,160878,"0.0-4.47-0.47","u5a65eg1nx943ed",590,"11.csv","","1594.2000000476837","resources/trios/L1T2A3.jpg","38","restless",0.4,0.6,0.4,0.805938866830571,"false"
"image-keyboard-response",154,161285,"0.0-4.47-1.47","u5a65eg1nx943ed",590,"11.csv","","null","resources/maskTrios/BT2B.jpg","null","",NA,NA,NA,NA,""
"image-keyboard-response",155,162491,"0.0-4.47-2.47","u5a65eg1nx943ed",590,"11.csv","","null","resources/images/fishbone.png","null","",NA,NA,NA,NA,""
"image-keyboard-response",156,162504,"0.0-4.48-0.48","u5a65eg1nx943ed",590,"11.csv","","12.100000023841858","resources/trios/L1T2A3.jpg","38","restless",0.4,0.6,0.4,0.555045059656674,"true"
"image-keyboard-response",157,162911,"0.0-4.48-1.48","u5a65eg1nx943ed",590,"11.csv","","null","resources/maskTrios/BT2B.jpg","null","",NA,NA,NA,NA,""
"image-keyboard-response",158,164113,"0.0-4.48-2.48","u5a65eg1nx943ed",590,"11.csv","","null","resources/images/coin2.png","null","",NA,NA,NA,NA,""
"image-keyboard-response",159,164794,"0.0-4.49-0.49","u5a65eg1nx943ed",590,"11.csv","","680","resources/trios/L1T2A3.jpg","38","restless",0.4,0.6,0.4,0.635600082435484,"false"
"image-keyboard-response",160,165197,"0.0-4.49-1.49","u5a65eg1nx943ed",590,"11.csv","","null","resources/maskTrios/BT2B.jpg","null","",NA,NA,NA,NA,""
"image-keyboard-response",161,166399,"0.0-4.49-2.49","u5a65eg1nx943ed",590,"11.csv","","null","resources/images/fishbone.png","null","",NA,NA,NA,NA,""
"image-keyboard-response",162,167624,"0.0-4.50-0.50","u5a65eg1nx943ed",590,"11.csv","","1224.699999988079","resources/trios/L1T2A3.jpg","38","restless",0.4,0.6,0.4,0.12315719035895,"true"
"image-keyboard-response",163,168030,"0.0-4.50-1.50","u5a65eg1nx943ed",590,"11.csv","","null","resources/maskTrios/BT2B.jpg","null","",NA,NA,NA,NA,""
"image-keyboard-response",164,169236,"0.0-4.50-2.50","u5a65eg1nx943ed",590,"11.csv","","null","resources/images/coin2.png","null","",NA,NA,NA,NA,""
"image-keyboard-response",165,170272,"0.0-4.51-0.51","u5a65eg1nx943ed",590,"11.csv","","1034.300000011921","resources/trios/L1T2A3.jpg","38","restless",0.4,0.6,0.4,0.600388104561026,"false"
"image-keyboard-response",166,170678,"0.0-4.51-1.51","u5a65eg1nx943ed",590,"11.csv","","null","resources/maskTrios/BT2B.jpg","null","",NA,NA,NA,NA,""
"image-keyboard-response",167,171884,"0.0-4.51-2.51","u5a65eg1nx943ed",590,"11.csv","","null","resources/images/fishbone.png","null","",NA,NA,NA,NA,""
"image-keyboard-response",168,173353,"0.0-4.52-0.52","u5a65eg1nx943ed",590,"11.csv","","1467.800000011921","resources/trios/L1T2A3.jpg","38","restless",0.4,0.6,0.4,0.337294002038206,"true"
"image-keyboard-response",169,173757,"0.0-4.52-1.52","u5a65eg1nx943ed",590,"11.csv","","null","resources/maskTrios/BT2B.jpg","null","",NA,NA,NA,NA,""
"image-keyboard-response",170,174963,"0.0-4.52-2.52","u5a65eg1nx943ed",590,"11.csv","","null","resources/images/coin2.png","null","",NA,NA,NA,NA,""
"image-keyboard-response",171,176868,"0.0-4.53-0.53","u5a65eg1nx943ed",590,"11.csv","","1904","resources/trios/L1T2A3.jpg","38","restless",0.4,0.6,0.4,0.780197228323358,"false"
"image-keyboard-response",172,177275,"0.0-4.53-1.53","u5a65eg1nx943ed",590,"11.csv","","null","resources/maskTrios/BT2B.jpg","null","",NA,NA,NA,NA,""
"image-keyboard-response",173,178479,"0.0-4.53-2.53","u5a65eg1nx943ed",590,"11.csv","","null","resources/images/fishbone.png","null","",NA,NA,NA,NA,""
"image-keyboard-response",174,179121,"0.0-4.54-0.54","u5a65eg1nx943ed",590,"11.csv","","640.7999999523163","resources/trios/L1T2A3.jpg","38","restless",0.5,0.6,0.5,0.514255904480329,"true"
"image-keyboard-response",175,179523,"0.0-4.54-1.54","u5a65eg1nx943ed",590,"11.csv","","null","resources/maskTrios/BT2B.jpg","null","",NA,NA,NA,NA,""
"image-keyboard-response",176,180727,"0.0-4.54-2.54","u5a65eg1nx943ed",590,"11.csv","","null","resources/images/coin2.png","null","",NA,NA,NA,NA,""
"image-keyboard-response",177,182897,"0.0-4.55-0.55","u5a65eg1nx943ed",590,"11.csv","","2169.100000023842","resources/trios/L1T2A3.jpg","38","restless",0.5,0.6,0.5,0.661075799962149,"false"
"image-keyboard-response",178,183304,"0.0-4.55-1.55","u5a65eg1nx943ed",590,"11.csv","","null","resources/maskTrios/BT2B.jpg","null","",NA,NA,NA,NA,""
"image-keyboard-response",179,184506,"0.0-4.55-2.55","u5a65eg1nx943ed",590,"11.csv","","null","resources/images/fishbone.png","null","",NA,NA,NA,NA,""
"image-keyboard-response",180,184949,"0.0-4.56-0.56","u5a65eg1nx943ed",590,"11.csv","","442.4000000357628","resources/trios/L1T2A3.jpg","38","restless",0.5,0.7,0.5,0.320246951412013,"true"
"image-keyboard-response",181,185356,"0.0-4.56-1.56","u5a65eg1nx943ed",590,"11.csv","","null","resources/maskTrios/BT2B.jpg","null","",NA,NA,NA,NA,""
"image-keyboard-response",182,186560,"0.0-4.56-2.56","u5a65eg1nx943ed",590,"11.csv","","null","resources/images/coin2.png","null","",NA,NA,NA,NA,""
"image-keyboard-response",183,186910,"0.0-4.57-0.57","u5a65eg1nx943ed",590,"11.csv","","348.5","resources/trios/L1T2A3.jpg","38","restless",0.5,0.7,0.5,0.518642006979861,"true"
"image-keyboard-response",184,187316,"0.0-4.57-1.57","u5a65eg1nx943ed",590,"11.csv","","null","resources/maskTrios/BT2B.jpg","null","",NA,NA,NA,NA,""
"image-keyboard-response",185,188518,"0.0-4.57-2.57","u5a65eg1nx943ed",590,"11.csv","","null","resources/images/coin2.png","null","",NA,NA,NA,NA,""
"image-keyboard-response",186,188689,"0.0-4.58-0.58","u5a65eg1nx943ed",590,"11.csv","","170.4000000357628","resources/trios/L1T2A3.jpg","38","restless",0.5,0.7,0.5,0.0133975818556831,"true"
"image-keyboard-response",187,189097,"0.0-4.58-1.58","u5a65eg1nx943ed",590,"11.csv","","null","resources/maskTrios/BT2B.jpg","null","",NA,NA,NA,NA,""
"image-keyboard-response",188,190299,"0.0-4.58-2.58","u5a65eg1nx943ed",590,"11.csv","","null","resources/images/coin2.png","null","",NA,NA,NA,NA,""
"image-keyboard-response",189,191830,"0.0-4.59-0.59","u5a65eg1nx943ed",590,"11.csv","","1529.800000011921","resources/trios/L1T2A3.jpg","38","restless",0.5,0.7,0.5,0.461929805198162,"true"
"image-keyboard-response",190,192235,"0.0-4.59-1.59","u5a65eg1nx943ed",590,"11.csv","","null","resources/maskTrios/BT2B.jpg","null","",NA,NA,NA,NA,""
"image-keyboard-response",191,193442,"0.0-4.59-2.59","u5a65eg1nx943ed",590,"11.csv","","null","resources/images/coin2.png","null","",NA,NA,NA,NA,""
"image-keyboard-response",192,193774,"0.0-4.60-0.60","u5a65eg1nx943ed",590,"11.csv","","330.80000001192093","resources/trios/L1T2A3.jpg","38","restless",0.5,0.8,0.4,0.833930115440529,"false"
"image-keyboard-response",193,194177,"0.0-4.60-1.60","u5a65eg1nx943ed",590,"11.csv","","null","resources/maskTrios/BT2B.jpg","null","",NA,NA,NA,NA,""
"image-keyboard-response",194,195383,"0.0-4.60-2.60","u5a65eg1nx943ed",590,"11.csv","","null","resources/images/fishbone.png","null","",NA,NA,NA,NA,""
"image-keyboard-response",195,197572,"0.0-4.61-0.61","u5a65eg1nx943ed",590,"11.csv","","2188.300000011921","resources/trios/L1T2A3.jpg","38","restless",0.5,0.8,0.4,0.361267881899278,"true"
"image-keyboard-response",196,197979,"0.0-4.61-1.61","u5a65eg1nx943ed",590,"11.csv","","null","resources/maskTrios/BT2B.jpg","null","",NA,NA,NA,NA,""
"image-keyboard-response",197,199185,"0.0-4.61-2.61","u5a65eg1nx943ed",590,"11.csv","","null","resources/images/coin2.png","null","",NA,NA,NA,NA,""
"image-keyboard-response",198,200290,"0.0-4.62-0.62","u5a65eg1nx943ed",590,"11.csv","","1104.1000000238419","resources/trios/L1T2A3.jpg","38","restless",0.5,0.8,0.3,0.95642365480854,"false"
"image-keyboard-response",199,200695,"0.0-4.62-1.62","u5a65eg1nx943ed",590,"11.csv","","null","resources/maskTrios/BT2B.jpg","null","",NA,NA,NA,NA,""
"image-keyboard-response",200,201902,"0.0-4.62-2.62","u5a65eg1nx943ed",590,"11.csv","","null","resources/images/fishbone.png","null","",NA,NA,NA,NA,""
"image-keyboard-response",201,204268,"0.0-4.63-0.63","u5a65eg1nx943ed",590,"11.csv","","2364.899999976158","resources/trios/L1T2A3.jpg","38","restless",0.5,0.8,0.3,0.403222221981652,"true"
"image-keyboard-response",202,204670,"0.0-4.63-1.63","u5a65eg1nx943ed",590,"11.csv","","null","resources/maskTrios/BT2B.jpg","null","",NA,NA,NA,NA,""
"image-keyboard-response",203,205875,"0.0-4.63-2.63","u5a65eg1nx943ed",590,"11.csv","","null","resources/images/coin2.png","null","",NA,NA,NA,NA,""
"image-keyboard-response",204,206612,"0.0-4.64-0.64","u5a65eg1nx943ed",590,"11.csv","","735.7999999523163","resources/trios/L1T2A3.jpg","38","restless",0.5,0.8,0.3,0.497230776425601,"true"
"image-keyboard-response",205,207014,"0.0-4.64-1.64","u5a65eg1nx943ed",590,"11.csv","","null","resources/maskTrios/BT2B.jpg","null","",NA,NA,NA,NA,""
"image-keyboard-response",206,208216,"0.0-4.64-2.64","u5a65eg1nx943ed",590,"11.csv","","null","resources/images/coin2.png","null","",NA,NA,NA,NA,""
"image-keyboard-response",207,209436,"0.0-4.65-0.65","u5a65eg1nx943ed",590,"11.csv","","1218.3999999761581","resources/trios/L1T2A3.jpg","38","restless",0.5,0.8,0.3,0.767211945541906,"true"
"image-keyboard-response",208,209841,"0.0-4.65-1.65","u5a65eg1nx943ed",590,"11.csv","","null","resources/maskTrios/BT2B.jpg","null","",NA,NA,NA,NA,""
"image-keyboard-response",209,211043,"0.0-4.65-2.65","u5a65eg1nx943ed",590,"11.csv","","null","resources/images/coin2.png","null","",NA,NA,NA,NA,""
"image-keyboard-response",210,212263,"0.0-4.66-0.66","u5a65eg1nx943ed",590,"11.csv","","1218.6000000238419","resources/trios/L1T2A3.jpg","38","restless",0.6,0.7,0.3,0.200143159139346,"true"
"image-keyboard-response",211,212670,"0.0-4.66-1.66","u5a65eg1nx943ed",590,"11.csv","","null","resources/maskTrios/BT2B.jpg","null","",NA,NA,NA,NA,""
"image-keyboard-response",212,213877,"0.0-4.66-2.66","u5a65eg1nx943ed",590,"11.csv","","null","resources/images/coin2.png","null","",NA,NA,NA,NA,""
"image-keyboard-response",213,214483,"0.0-4.67-0.67","u5a65eg1nx943ed",590,"11.csv","","604.6000000238419","resources/trios/L1T2A3.jpg","38","restless",0.6,0.7,0.3,0.307571239012469,"true"
"image-keyboard-response",214,214886,"0.0-4.67-1.67","u5a65eg1nx943ed",590,"11.csv","","null","resources/maskTrios/BT2B.jpg","null","",NA,NA,NA,NA,""
"image-keyboard-response",215,216093,"0.0-4.67-2.67","u5a65eg1nx943ed",590,"11.csv","","null","resources/images/coin2.png","null","",NA,NA,NA,NA,""
"image-keyboard-response",216,219250,"0.0-4.68-0.68","u5a65eg1nx943ed",590,"11.csv","","3155.5","resources/trios/L1T2A3.jpg","38","restless",0.6,0.7,0.3,0.706524994711865,"false"
"image-keyboard-response",217,219655,"0.0-4.68-1.68","u5a65eg1nx943ed",590,"11.csv","","null","resources/maskTrios/BT2B.jpg","null","",NA,NA,NA,NA,""
"image-keyboard-response",218,220857,"0.0-4.68-2.68","u5a65eg1nx943ed",590,"11.csv","","null","resources/images/fishbone.png","null","",NA,NA,NA,NA,""
"image-keyboard-response",219,221006,"0.0-4.69-0.69","u5a65eg1nx943ed",590,"11.csv","","148.5","resources/trios/L1T2A3.jpg","38","restless",0.6,0.7,0.3,0.647535816295887,"true"
"image-keyboard-response",220,221410,"0.0-4.69-1.69","u5a65eg1nx943ed",590,"11.csv","","null","resources/maskTrios/BT2B.jpg","null","",NA,NA,NA,NA,""
"image-keyboard-response",221,222612,"0.0-4.69-2.69","u5a65eg1nx943ed",590,"11.csv","","null","resources/images/coin2.png","null","",NA,NA,NA,NA,""
"image-keyboard-response",222,225421,"0.0-4.70-0.70","u5a65eg1nx943ed",590,"11.csv","","2808.400000035763","resources/trios/L1T2A3.jpg","38","restless",0.6,0.6,0.3,0.601696494122315,"false"
"image-keyboard-response",223,225824,"0.0-4.70-1.70","u5a65eg1nx943ed",590,"11.csv","","null","resources/maskTrios/BT2B.jpg","null","",NA,NA,NA,NA,""
"image-keyboard-response",224,227027,"0.0-4.70-2.70","u5a65eg1nx943ed",590,"11.csv","","null","resources/images/fishbone.png","null","",NA,NA,NA,NA,""
"image-keyboard-response",225,227037,"0.0-4.71-0.71","u5a65eg1nx943ed",590,"11.csv","","9.299999952316284","resources/trios/L1T2A3.jpg","38","restless",0.6,0.6,0.3,0.308705388585383,"true"
"image-keyboard-response",226,227440,"0.0-4.71-1.71","u5a65eg1nx943ed",590,"11.csv","","null","resources/maskTrios/BT2B.jpg","null","",NA,NA,NA,NA,""
"image-keyboard-response",227,228647,"0.0-4.71-2.71","u5a65eg1nx943ed",590,"11.csv","","null","resources/images/coin2.png","null","",NA,NA,NA,NA,""
"image-keyboard-response",228,229086,"0.0-4.72-0.72","u5a65eg1nx943ed",590,"11.csv","","438","resources/trios/L1T2A3.jpg","38","restless",0.6,0.6,0.3,0.672834011719531,"false"
"image-keyboard-response",229,229493,"0.0-4.72-1.72","u5a65eg1nx943ed",590,"11.csv","","null","resources/maskTrios/BT2B.jpg","null","",NA,NA,NA,NA,""
"image-keyboard-response",230,230698,"0.0-4.72-2.72","u5a65eg1nx943ed",590,"11.csv","","null","resources/images/fishbone.png","null","",NA,NA,NA,NA,""
"image-keyboard-response",231,231335,"0.0-4.73-0.73","u5a65eg1nx943ed",590,"11.csv","","636.1000000238419","resources/trios/L1T2A3.jpg","38","restless",0.6,0.6,0.3,0.908091940463639,"false"
"image-keyboard-response",232,231740,"0.0-4.73-1.73","u5a65eg1nx943ed",590,"11.csv","","null","resources/maskTrios/BT2B.jpg","null","",NA,NA,NA,NA,""
"image-keyboard-response",233,232943,"0.0-4.73-2.73","u5a65eg1nx943ed",590,"11.csv","","null","resources/images/fishbone.png","null","",NA,NA,NA,NA,""
"image-keyboard-response",234,233346,"0.0-4.74-0.74","u5a65eg1nx943ed",590,"11.csv","","402","resources/trios/L1T2A3.jpg","38","restless",0.6,0.6,0.3,0.78386403969079,"false"
"image-keyboard-response",235,233749,"0.0-4.74-1.74","u5a65eg1nx943ed",590,"11.csv","","null","resources/maskTrios/BT2B.jpg","null","",NA,NA,NA,NA,""
"image-keyboard-response",236,234956,"0.0-4.74-2.74","u5a65eg1nx943ed",590,"11.csv","","null","resources/images/fishbone.png","null","",NA,NA,NA,NA,""
"image-keyboard-response",237,237277,"0.0-4.75-0.75","u5a65eg1nx943ed",590,"11.csv","","2319.600000023842","resources/trios/L1T2A3.jpg","38","restless",0.7,0.5,0.3,0.843578890760461,"false"
"image-keyboard-response",238,237678,"0.0-4.75-1.75","u5a65eg1nx943ed",590,"11.csv","","null","resources/maskTrios/BT2B.jpg","null","",NA,NA,NA,NA,""
"image-keyboard-response",239,238881,"0.0-4.75-2.75","u5a65eg1nx943ed",590,"11.csv","","null","resources/images/fishbone.png","null","",NA,NA,NA,NA,""
"image-keyboard-response",240,240604,"0.0-4.76-0.76","u5a65eg1nx943ed",590,"11.csv","","1721.699999988079","resources/trios/L1T2A3.jpg","38","restless",0.7,0.5,0.3,0.407566858280056,"true"
"image-keyboard-response",241,241011,"0.0-4.76-1.76","u5a65eg1nx943ed",590,"11.csv","","null","resources/maskTrios/BT2B.jpg","null","",NA,NA,NA,NA,""
"image-keyboard-response",242,242217,"0.0-4.76-2.76","u5a65eg1nx943ed",590,"11.csv","","null","resources/images/coin2.png","null","",NA,NA,NA,NA,""
"image-keyboard-response",243,242673,"0.0-4.77-0.77","u5a65eg1nx943ed",590,"11.csv","","455.30000001192093","resources/trios/L1T2A3.jpg","38","restless",0.7,0.5,0.3,0.536985472844917,"false"
"image-keyboard-response",244,243079,"0.0-4.77-1.77","u5a65eg1nx943ed",590,"11.csv","","null","resources/maskTrios/BT2B.jpg","null","",NA,NA,NA,NA,""
"image-keyboard-response",245,244283,"0.0-4.77-2.77","u5a65eg1nx943ed",590,"11.csv","","null","resources/images/fishbone.png","null","",NA,NA,NA,NA,""
"image-keyboard-response",246,245264,"0.0-4.78-0.78","u5a65eg1nx943ed",590,"11.csv","","980","resources/trios/L1T2A3.jpg","38","restless",0.7,0.5,0.3,0.630230049771862,"false"
"image-keyboard-response",247,245665,"0.0-4.78-1.78","u5a65eg1nx943ed",590,"11.csv","","null","resources/maskTrios/BT2B.jpg","null","",NA,NA,NA,NA,""
"image-keyboard-response",248,246871,"0.0-4.78-2.78","u5a65eg1nx943ed",590,"11.csv","","null","resources/images/fishbone.png","null","",NA,NA,NA,NA,""
"image-keyboard-response",249,248032,"0.0-4.79-0.79","u5a65eg1nx943ed",590,"11.csv","","1160.5","resources/trios/L1T2A3.jpg","38","restless",0.7,0.5,0.4,0.0839647602268785,"true"
"image-keyboard-response",250,248438,"0.0-4.79-1.79","u5a65eg1nx943ed",590,"11.csv","","null","resources/maskTrios/BT2B.jpg","null","",NA,NA,NA,NA,""
"image-keyboard-response",251,249644,"0.0-4.79-2.79","u5a65eg1nx943ed",590,"11.csv","","null","resources/images/coin2.png","null","",NA,NA,NA,NA,""
"image-keyboard-response",252,252514,"0.0-4.80-0.80","u5a65eg1nx943ed",590,"11.csv","","2868.699999988079","resources/trios/L1T2A3.jpg","38","restless",0.7,0.5,0.4,0.0270543436567598,"true"
"image-keyboard-response",253,252919,"0.0-4.80-1.80","u5a65eg1nx943ed",590,"11.csv","","null","resources/maskTrios/BT2B.jpg","null","",NA,NA,NA,NA,""
"image-keyboard-response",254,254126,"0.0-4.80-2.80","u5a65eg1nx943ed",590,"11.csv","","null","resources/images/coin2.png","null","",NA,NA,NA,NA,""
"image-keyboard-response",255,257800,"0.0-4.81-0.81","u5a65eg1nx943ed",590,"11.csv","","3673.400000035763","resources/trios/L1T2A3.jpg","38","restless",0.7,0.5,0.4,0.947852987690718,"false"
"image-keyboard-response",256,258206,"0.0-4.81-1.81","u5a65eg1nx943ed",590,"11.csv","","null","resources/maskTrios/BT2B.jpg","null","",NA,NA,NA,NA,""
"image-keyboard-response",257,259408,"0.0-4.81-2.81","u5a65eg1nx943ed",590,"11.csv","","null","resources/images/fishbone.png","null","",NA,NA,NA,NA,""
"image-keyboard-response",258,259973,"0.0-4.82-0.82","u5a65eg1nx943ed",590,"11.csv","","563.8000000119209","resources/trios/L1T2A3.jpg","38","restless",0.7,0.5,0.4,0.233546038453064,"true"
"image-keyboard-response",259,260375,"0.0-4.82-1.82","u5a65eg1nx943ed",590,"11.csv","","null","resources/maskTrios/BT2B.jpg","null","",NA,NA,NA,NA,""
"image-keyboard-response",260,261581,"0.0-4.82-2.82","u5a65eg1nx943ed",590,"11.csv","","null","resources/images/coin2.png","null","",NA,NA,NA,NA,""
"image-keyboard-response",261,261888,"0.0-4.83-0.83","u5a65eg1nx943ed",590,"11.csv","","305.7999999523163","resources/trios/L1T2A3.jpg","38","restless",0.7,0.5,0.4,0.359065373436933,"true"
"image-keyboard-response",262,262293,"0.0-4.83-1.83","u5a65eg1nx943ed",590,"11.csv","","null","resources/maskTrios/BT2B.jpg","null","",NA,NA,NA,NA,""
"image-keyboard-response",263,263497,"0.0-4.83-2.83","u5a65eg1nx943ed",590,"11.csv","","null","resources/images/coin2.png","null","",NA,NA,NA,NA,""
"image-keyboard-response",264,265584,"0.0-4.84-0.84","u5a65eg1nx943ed",590,"11.csv","","2086.699999988079","resources/trios/L1T2A3.jpg","38","restless",0.7,0.5,0.5,0.0502674376095835,"true"
"image-keyboard-response",265,265990,"0.0-4.84-1.84","u5a65eg1nx943ed",590,"11.csv","","null","resources/maskTrios/BT2B.jpg","null","",NA,NA,NA,NA,""
"image-keyboard-response",266,267196,"0.0-4.84-2.84","u5a65eg1nx943ed",590,"11.csv","","null","resources/images/coin2.png","null","",NA,NA,NA,NA,""
"image-keyboard-response",267,267937,"0.0-4.85-0.85","u5a65eg1nx943ed",590,"11.csv","","740.4000000357628","resources/trios/L1T2A3.jpg","38","restless",0.7,0.5,0.5,0.637968633480705,"false"
"image-keyboard-response",268,268339,"0.0-4.85-1.85","u5a65eg1nx943ed",590,"11.csv","","null","resources/maskTrios/BT2B.jpg","null","",NA,NA,NA,NA,""
"image-keyboard-response",269,269543,"0.0-4.85-2.85","u5a65eg1nx943ed",590,"11.csv","","null","resources/images/fishbone.png","null","",NA,NA,NA,NA,""
"image-keyboard-response",270,270541,"0.0-4.86-0.86","u5a65eg1nx943ed",590,"11.csv","","997.9000000357628","resources/trios/L1T2A3.jpg","38","restless",0.7,0.5,0.5,0.680934494521474,"false"
"image-keyboard-response",271,270948,"0.0-4.86-1.86","u5a65eg1nx943ed",590,"11.csv","","null","resources/maskTrios/BT2B.jpg","null","",NA,NA,NA,NA,""
"image-keyboard-response",272,272150,"0.0-4.86-2.86","u5a65eg1nx943ed",590,"11.csv","","null","resources/images/fishbone.png","null","",NA,NA,NA,NA,""
"image-keyboard-response",273,272807,"0.0-4.87-0.87","u5a65eg1nx943ed",590,"11.csv","","656.6999999880791","resources/trios/L1T2A3.jpg","38","restless",0.7,0.5,0.5,0.144713492990911,"true"
"image-keyboard-response",274,273214,"0.0-4.87-1.87","u5a65eg1nx943ed",590,"11.csv","","null","resources/maskTrios/BT2B.jpg","null","",NA,NA,NA,NA,""
"image-keyboard-response",275,274421,"0.0-4.87-2.87","u5a65eg1nx943ed",590,"11.csv","","null","resources/images/coin2.png","null","",NA,NA,NA,NA,""
"image-keyboard-response",276,275336,"0.0-4.88-0.88","u5a65eg1nx943ed",590,"11.csv","","914.3000000119209","resources/trios/L1T2A3.jpg","38","restless",0.7,0.5,0.5,0.692901321021896,"false"
"image-keyboard-response",277,275738,"0.0-4.88-1.88","u5a65eg1nx943ed",590,"11.csv","","null","resources/maskTrios/BT2B.jpg","null","",NA,NA,NA,NA,""
"image-keyboard-response",278,276940,"0.0-4.88-2.88","u5a65eg1nx943ed",590,"11.csv","","null","resources/images/fishbone.png","null","",NA,NA,NA,NA,""
"image-keyboard-response",279,277399,"0.0-4.89-0.89","u5a65eg1nx943ed",590,"11.csv","","458.19999998807907","resources/trios/L1T2A3.jpg","38","restless",0.7,0.5,0.5,0.547573589675656,"false"
"image-keyboard-response",280,277801,"0.0-4.89-1.89","u5a65eg1nx943ed",590,"11.csv","","null","resources/maskTrios/BT2B.jpg","null","",NA,NA,NA,NA,""
"image-keyboard-response",281,279005,"0.0-4.89-2.89","u5a65eg1nx943ed",590,"11.csv","","null","resources/images/fishbone.png","null","",NA,NA,NA,NA,""
"image-keyboard-response",282,280376,"0.0-4.90-0.90","u5a65eg1nx943ed",590,"11.csv","","1370.1000000238419","resources/trios/L1T2A3.jpg","38","restless",0.7,0.5,0.5,0.839359349714781,"false"
"image-keyboard-response",283,280780,"0.0-4.90-1.90","u5a65eg1nx943ed",590,"11.csv","","null","resources/maskTrios/BT2B.jpg","null","",NA,NA,NA,NA,""
"image-keyboard-response",284,281985,"0.0-4.90-2.90","u5a65eg1nx943ed",590,"11.csv","","null","resources/images/fishbone.png","null","",NA,NA,NA,NA,""
"image-keyboard-response",285,282372,"0.0-4.91-0.91","u5a65eg1nx943ed",590,"11.csv","","385.5","resources/trios/L1T2A3.jpg","38","restless",0.7,0.5,0.4,0.860017584620941,"false"
"image-keyboard-response",286,282778,"0.0-4.91-1.91","u5a65eg1nx943ed",590,"11.csv","","null","resources/maskTrios/BT2B.jpg","null","",NA,NA,NA,NA,""
"image-keyboard-response",287,283985,"0.0-4.91-2.91","u5a65eg1nx943ed",590,"11.csv","","null","resources/images/fishbone.png","null","",NA,NA,NA,NA,""
"image-keyboard-response",288,285268,"0.0-4.92-0.92","u5a65eg1nx943ed",590,"11.csv","","1282.199999988079","resources/trios/L1T2A3.jpg","38","restless",0.7,0.5,0.4,0.490950522311432,"true"
"image-keyboard-response",289,285672,"0.0-4.92-1.92","u5a65eg1nx943ed",590,"11.csv","","null","resources/maskTrios/BT2B.jpg","null","",NA,NA,NA,NA,""
"image-keyboard-response",290,286876,"0.0-4.92-2.92","u5a65eg1nx943ed",590,"11.csv","","null","resources/images/coin2.png","null","",NA,NA,NA,NA,""
"image-keyboard-response",291,288648,"0.0-4.93-0.93","u5a65eg1nx943ed",590,"11.csv","","1770.800000011921","resources/trios/L1T2A3.jpg","38","restless",0.7,0.5,0.4,0.639049241561676,"false"
"image-keyboard-response",292,289054,"0.0-4.93-1.93","u5a65eg1nx943ed",590,"11.csv","","null","resources/maskTrios/BT2B.jpg","null","",NA,NA,NA,NA,""
"image-keyboard-response",293,290261,"0.0-4.93-2.93","u5a65eg1nx943ed",590,"11.csv","","null","resources/images/fishbone.png","null","",NA,NA,NA,NA,""
"image-keyboard-response",294,290392,"0.0-4.94-0.94","u5a65eg1nx943ed",590,"11.csv","","130.80000001192093","resources/trios/L1T2A3.jpg","38","restless",0.7,0.5,0.4,0.484028661821686,"true"
"image-keyboard-response",295,290799,"0.0-4.94-1.94","u5a65eg1nx943ed",590,"11.csv","","null","resources/maskTrios/BT2B.jpg","null","",NA,NA,NA,NA,""
"image-keyboard-response",296,292005,"0.0-4.94-2.94","u5a65eg1nx943ed",590,"11.csv","","null","resources/images/coin2.png","null","",NA,NA,NA,NA,""
"image-keyboard-response",297,294468,"0.0-4.95-0.95","u5a65eg1nx943ed",590,"11.csv","","2461.699999988079","resources/trios/L1T2A3.jpg","38","restless",0.7,0.5,0.4,0.420513057558834,"true"
"image-keyboard-response",298,294871,"0.0-4.95-1.95","u5a65eg1nx943ed",590,"11.csv","","null","resources/maskTrios/BT2B.jpg","null","",NA,NA,NA,NA,""
"image-keyboard-response",299,296077,"0.0-4.95-2.95","u5a65eg1nx943ed",590,"11.csv","","null","resources/images/coin2.png","null","",NA,NA,NA,NA,""
"image-keyboard-response",300,297701,"0.0-4.96-0.96","u5a65eg1nx943ed",590,"11.csv","","1622.5999999642372","resources/trios/L1T2A3.jpg","38","restless",0.7,0.5,0.4,0.63450873892065,"false"
"image-keyboard-response",301,298104,"0.0-4.96-1.96","u5a65eg1nx943ed",590,"11.csv","","null","resources/maskTrios/BT2B.jpg","null","",NA,NA,NA,NA,""
"image-keyboard-response",302,299311,"0.0-4.96-2.96","u5a65eg1nx943ed",590,"11.csv","","null","resources/images/fishbone.png","null","",NA,NA,NA,NA,""
"image-keyboard-response",303,301321,"0.0-4.97-0.97","u5a65eg1nx943ed",590,"11.csv","","2009.300000011921","resources/trios/L1T2A3.jpg","38","restless",0.7,0.5,0.4,0.360511717930768,"true"
"image-keyboard-response",304,301723,"0.0-4.97-1.97","u5a65eg1nx943ed",590,"11.csv","","null","resources/maskTrios/BT2B.jpg","null","",NA,NA,NA,NA,""
"image-keyboard-response",305,302925,"0.0-4.97-2.97","u5a65eg1nx943ed",590,"11.csv","","null","resources/images/coin2.png","null","",NA,NA,NA,NA,""
"image-keyboard-response",306,303258,"0.0-4.98-0.98","u5a65eg1nx943ed",590,"11.csv","","332.5999999642372","resources/trios/L1T2A3.jpg","38","restless",0.7,0.5,0.4,0.289944993937701,"true"
"image-keyboard-response",307,303661,"0.0-4.98-1.98","u5a65eg1nx943ed",590,"11.csv","","null","resources/maskTrios/BT2B.jpg","null","",NA,NA,NA,NA,""
"image-keyboard-response",308,304864,"0.0-4.98-2.98","u5a65eg1nx943ed",590,"11.csv","","null","resources/images/coin2.png","null","",NA,NA,NA,NA,""
"image-keyboard-response",309,305114,"0.0-4.99-0.99","u5a65eg1nx943ed",590,"11.csv","","248.89999997615814","resources/trios/L1T2A3.jpg","38","restless",0.7,0.5,0.4,0.315037732528746,"true"
"image-keyboard-response",310,305520,"0.0-4.99-1.99","u5a65eg1nx943ed",590,"11.csv","","null","resources/maskTrios/BT2B.jpg","null","",NA,NA,NA,NA,""
"image-keyboard-response",311,306727,"0.0-4.99-2.99","u5a65eg1nx943ed",590,"11.csv","","null","resources/images/coin2.png","null","",NA,NA,NA,NA,""
"image-keyboard-response",312,308061,"0.0-4.100-0.100","u5a65eg1nx943ed",590,"11.csv","","1332.199999988079","resources/trios/L1T2A3.jpg","38","restless",0.7,0.5,0.4,0.455967934396718,"true"
"image-keyboard-response",313,308463,"0.0-4.100-1.100","u5a65eg1nx943ed",590,"11.csv","","null","resources/maskTrios/BT2B.jpg","null","",NA,NA,NA,NA,""
"image-keyboard-response",314,309670,"0.0-4.100-2.100","u5a65eg1nx943ed",590,"11.csv","","null","resources/images/coin2.png","null","",NA,NA,NA,NA,""
"image-keyboard-response",315,311731,"0.0-4.101-0.101","u5a65eg1nx943ed",590,"11.csv","","2060.400000035763","resources/trios/L1T2A3.jpg","38","restless",0.8,0.5,0.5,0.186654935608664,"true"
"image-keyboard-response",316,312136,"0.0-4.101-1.101","u5a65eg1nx943ed",590,"11.csv","","null","resources/maskTrios/BT2B.jpg","null","",NA,NA,NA,NA,""
"image-keyboard-response",317,313343,"0.0-4.101-2.101","u5a65eg1nx943ed",590,"11.csv","","null","resources/images/coin2.png","null","",NA,NA,NA,NA,""
"image-keyboard-response",318,315033,"0.0-4.102-0.102","u5a65eg1nx943ed",590,"11.csv","","1688.7000000476837","resources/trios/L1T2A3.jpg","38","restless",0.8,0.5,0.5,0.574448467704426,"false"
"image-keyboard-response",319,315435,"0.0-4.102-1.102","u5a65eg1nx943ed",590,"11.csv","","null","resources/maskTrios/BT2B.jpg","null","",NA,NA,NA,NA,""
"image-keyboard-response",320,316642,"0.0-4.102-2.102","u5a65eg1nx943ed",590,"11.csv","","null","resources/images/fishbone.png","null","",NA,NA,NA,NA,""
"image-keyboard-response",321,317725,"0.0-4.103-0.103","u5a65eg1nx943ed",590,"11.csv","","1082.1000000238419","resources/trios/L1T2A3.jpg","38","restless",0.8,0.4,0.5,0.39013774095943,"true"
"image-keyboard-response",322,318132,"0.0-4.103-1.103","u5a65eg1nx943ed",590,"11.csv","","null","resources/maskTrios/BT2B.jpg","null","",NA,NA,NA,NA,""
"image-keyboard-response",323,319337,"0.0-4.103-2.103","u5a65eg1nx943ed",590,"11.csv","","null","resources/images/coin2.png","null","",NA,NA,NA,NA,""
"image-keyboard-response",324,319721,"0.0-4.104-0.104","u5a65eg1nx943ed",590,"11.csv","","383","resources/trios/L1T2A3.jpg","38","restless",0.8,0.4,0.5,0.116392953868395,"true"
"image-keyboard-response",325,320126,"0.0-4.104-1.104","u5a65eg1nx943ed",590,"11.csv","","null","resources/maskTrios/BT2B.jpg","null","",NA,NA,NA,NA,""
"image-keyboard-response",326,321330,"0.0-4.104-2.104","u5a65eg1nx943ed",590,"11.csv","","null","resources/images/coin2.png","null","",NA,NA,NA,NA,""
"image-keyboard-response",327,321623,"0.0-4.105-0.105","u5a65eg1nx943ed",590,"11.csv","","291.69999998807907","resources/trios/L1T2A3.jpg","38","restless",0.8,0.4,0.5,0.794316218762599,"false"
"image-keyboard-response",328,322025,"0.0-4.105-1.105","u5a65eg1nx943ed",590,"11.csv","","null","resources/maskTrios/BT2B.jpg","null","",NA,NA,NA,NA,""
"image-keyboard-response",329,323226,"0.0-4.105-2.105","u5a65eg1nx943ed",590,"11.csv","","null","resources/images/fishbone.png","null","",NA,NA,NA,NA,""
"image-keyboard-response",330,323781,"0.0-4.106-0.106","u5a65eg1nx943ed",590,"11.csv","","554","resources/trios/L1T2A3.jpg","38","restless",0.8,0.4,0.5,0.369582581103576,"true"
"image-keyboard-response",331,324187,"0.0-4.106-1.106","u5a65eg1nx943ed",590,"11.csv","","null","resources/maskTrios/BT2B.jpg","null","",NA,NA,NA,NA,""
"image-keyboard-response",332,325393,"0.0-4.106-2.106","u5a65eg1nx943ed",590,"11.csv","","null","resources/images/coin2.png","null","",NA,NA,NA,NA,""
"image-keyboard-response",333,325628,"0.0-4.107-0.107","u5a65eg1nx943ed",590,"11.csv","","233.5","resources/trios/L1T2A3.jpg","38","restless",0.8,0.4,0.5,0.350183031655763,"true"
"image-keyboard-response",334,326034,"0.0-4.107-1.107","u5a65eg1nx943ed",590,"11.csv","","null","resources/maskTrios/BT2B.jpg","null","",NA,NA,NA,NA,""
"image-keyboard-response",335,327237,"0.0-4.107-2.107","u5a65eg1nx943ed",590,"11.csv","","null","resources/images/coin2.png","null","",NA,NA,NA,NA,""
"image-keyboard-response",336,328020,"0.0-4.108-0.108","u5a65eg1nx943ed",590,"11.csv","","782","resources/trios/L1T2A3.jpg","38","restless",0.7,0.4,0.5,0.799029344882839,"false"
"image-keyboard-response",337,328427,"0.0-4.108-1.108","u5a65eg1nx943ed",590,"11.csv","","null","resources/maskTrios/BT2B.jpg","null","",NA,NA,NA,NA,""
"image-keyboard-response",338,329629,"0.0-4.108-2.108","u5a65eg1nx943ed",590,"11.csv","","null","resources/images/fishbone.png","null","",NA,NA,NA,NA,""
"image-keyboard-response",339,332569,"0.0-4.109-0.109","u5a65eg1nx943ed",590,"11.csv","","2939.5","resources/trios/L1T2A3.jpg","38","restless",0.7,0.4,0.6,0.00117548240228538,"true"
"image-keyboard-response",340,332976,"0.0-4.109-1.109","u5a65eg1nx943ed",590,"11.csv","","null","resources/maskTrios/BT2B.jpg","null","",NA,NA,NA,NA,""
"image-keyboard-response",341,334182,"0.0-4.109-2.109","u5a65eg1nx943ed",590,"11.csv","","null","resources/images/coin2.png","null","",NA,NA,NA,NA,""
"image-keyboard-response",342,336169,"0.0-4.110-0.110","u5a65eg1nx943ed",590,"11.csv","","1985.5","resources/trios/L1T2A3.jpg","38","restless",0.7,0.4,0.6,0.349211752284804,"true"
"image-keyboard-response",343,336575,"0.0-4.110-1.110","u5a65eg1nx943ed",590,"11.csv","","null","resources/maskTrios/BT2B.jpg","null","",NA,NA,NA,NA,""
"image-keyboard-response",344,337781,"0.0-4.110-2.110","u5a65eg1nx943ed",590,"11.csv","","null","resources/images/coin2.png","null","",NA,NA,NA,NA,""
"image-keyboard-response",345,338209,"0.0-4.111-0.111","u5a65eg1nx943ed",590,"11.csv","","427.19999998807907","resources/trios/L1T2A3.jpg","38","restless",0.6,0.4,0.6,0.589260419482168,"false"
"image-keyboard-response",346,338613,"0.0-4.111-1.111","u5a65eg1nx943ed",590,"11.csv","","null","resources/maskTrios/BT2B.jpg","null","",NA,NA,NA,NA,""
"image-keyboard-response",347,339815,"0.0-4.111-2.111","u5a65eg1nx943ed",590,"11.csv","","null","resources/images/fishbone.png","null","",NA,NA,NA,NA,""
"image-keyboard-response",348,341490,"0.0-4.112-0.112","u5a65eg1nx943ed",590,"11.csv","","1673.800000011921","resources/trios/L1T2A3.jpg","38","restless",0.5,0.4,0.6,0.0451401018345268,"true"
"image-keyboard-response",349,341897,"0.0-4.112-1.112","u5a65eg1nx943ed",590,"11.csv","","null","resources/maskTrios/BT2B.jpg","null","",NA,NA,NA,NA,""
"image-keyboard-response",350,343099,"0.0-4.112-2.112","u5a65eg1nx943ed",590,"11.csv","","null","resources/images/coin2.png","null","",NA,NA,NA,NA,""
"image-keyboard-response",351,344308,"0.0-4.113-0.113","u5a65eg1nx943ed",590,"11.csv","","1207.699999988079","resources/trios/L1T2A3.jpg","38","restless",0.5,0.4,0.6,0.219519751907651,"true"
"image-keyboard-response",352,344714,"0.0-4.113-1.113","u5a65eg1nx943ed",590,"11.csv","","null","resources/maskTrios/BT2B.jpg","null","",NA,NA,NA,NA,""
"image-keyboard-response",353,345919,"0.0-4.113-2.113","u5a65eg1nx943ed",590,"11.csv","","null","resources/images/coin2.png","null","",NA,NA,NA,NA,""
"image-keyboard-response",354,347046,"0.0-4.114-0.114","u5a65eg1nx943ed",590,"11.csv","","1125.5","resources/trios/L1T2A3.jpg","38","restless",0.4,0.4,0.6,0.639640864663025,"false"
"image-keyboard-response",355,347451,"0.0-4.114-1.114","u5a65eg1nx943ed",590,"11.csv","","null","resources/maskTrios/BT2B.jpg","null","",NA,NA,NA,NA,""
"image-keyboard-response",356,348655,"0.0-4.114-2.114","u5a65eg1nx943ed",590,"11.csv","","null","resources/images/fishbone.png","null","",NA,NA,NA,NA,""
"image-keyboard-response",357,349245,"0.0-4.115-0.115","u5a65eg1nx943ed",590,"11.csv","","589.1000000238419","resources/trios/L1T2A3.jpg","38","restless",0.4,0.4,0.5,0.0717341088235688,"true"
"image-keyboard-response",358,349650,"0.0-4.115-1.115","u5a65eg1nx943ed",590,"11.csv","","null","resources/maskTrios/BT2B.jpg","null","",NA,NA,NA,NA,""
"image-keyboard-response",359,350854,"0.0-4.115-2.115","u5a65eg1nx943ed",590,"11.csv","","null","resources/images/coin2.png","null","",NA,NA,NA,NA,""
"image-keyboard-response",360,354791,"0.0-4.116-0.116","u5a65eg1nx943ed",590,"11.csv","","3936.600000023842","resources/trios/L1T2A3.jpg","38","restless",0.4,0.4,0.5,0.263837221767087,"true"
"image-keyboard-response",361,355198,"0.0-4.116-1.116","u5a65eg1nx943ed",590,"11.csv","","null","resources/maskTrios/BT2B.jpg","null","",NA,NA,NA,NA,""
"image-keyboard-response",362,356402,"0.0-4.116-2.116","u5a65eg1nx943ed",590,"11.csv","","null","resources/images/coin2.png","null","",NA,NA,NA,NA,""
"image-keyboard-response",363,357642,"0.0-4.117-0.117","u5a65eg1nx943ed",590,"11.csv","","1238.5999999642372","resources/trios/L1T2A3.jpg","38","restless",0.4,0.4,0.5,0.339522589581353,"true"
"image-keyboard-response",364,358048,"0.0-4.117-1.117","u5a65eg1nx943ed",590,"11.csv","","null","resources/maskTrios/BT2B.jpg","null","",NA,NA,NA,NA,""
"image-keyboard-response",365,359251,"0.0-4.117-2.117","u5a65eg1nx943ed",590,"11.csv","","null","resources/images/coin2.png","null","",NA,NA,NA,NA,""
"image-keyboard-response",366,359730,"0.0-4.118-0.118","u5a65eg1nx943ed",590,"11.csv","","477.5","resources/trios/L1T2A3.jpg","38","restless",0.4,0.4,0.5,0.746756458994203,"false"
"image-keyboard-response",367,360134,"0.0-4.118-1.118","u5a65eg1nx943ed",590,"11.csv","","null","resources/maskTrios/BT2B.jpg","null","",NA,NA,NA,NA,""
"image-keyboard-response",368,361339,"0.0-4.118-2.118","u5a65eg1nx943ed",590,"11.csv","","null","resources/images/fishbone.png","null","",NA,NA,NA,NA,""
"image-keyboard-response",369,361531,"0.0-4.119-0.119","u5a65eg1nx943ed",590,"11.csv","","190.5","resources/trios/L1T2A3.jpg","38","restless",0.4,0.4,0.4,0.448073140597153,"false"
"image-keyboard-response",370,361934,"0.0-4.119-1.119","u5a65eg1nx943ed",590,"11.csv","","null","resources/maskTrios/BT2B.jpg","null","",NA,NA,NA,NA,""
"image-keyboard-response",371,363136,"0.0-4.119-2.119","u5a65eg1nx943ed",590,"11.csv","","null","resources/images/fishbone.png","null","",NA,NA,NA,NA,""
"image-keyboard-response",372,364099,"0.0-4.120-0.120","u5a65eg1nx943ed",590,"11.csv","","962.3000000119209","resources/trios/L1T2A3.jpg","38","restless",0.4,0.4,0.5,0.506298387498904,"false"
"image-keyboard-response",373,364503,"0.0-4.120-1.120","u5a65eg1nx943ed",590,"11.csv","","null","resources/maskTrios/BT2B.jpg","null","",NA,NA,NA,NA,""
"image-keyboard-response",374,365706,"0.0-4.120-2.120","u5a65eg1nx943ed",590,"11.csv","","null","resources/images/fishbone.png","null","",NA,NA,NA,NA,""
"image-keyboard-response",375,366401,"0.0-4.121-0.121","u5a65eg1nx943ed",590,"11.csv","","693.6999999880791","resources/trios/L1T2A3.jpg","38","restless",0.4,0.4,0.5,0.774297271506085,"false"
"image-keyboard-response",376,366804,"0.0-4.121-1.121","u5a65eg1nx943ed",590,"11.csv","","null","resources/maskTrios/BT2B.jpg","null","",NA,NA,NA,NA,""
"image-keyboard-response",377,368005,"0.0-4.121-2.121","u5a65eg1nx943ed",590,"11.csv","","null","resources/images/fishbone.png","null","",NA,NA,NA,NA,""
"image-keyboard-response",378,368542,"0.0-4.122-0.122","u5a65eg1nx943ed",590,"11.csv","","535.8999999761581","resources/trios/L1T2A3.jpg","38","restless",0.4,0.4,0.5,0.0321613135319432,"true"
"image-keyboard-response",379,368948,"0.0-4.122-1.122","u5a65eg1nx943ed",590,"11.csv","","null","resources/maskTrios/BT2B.jpg","null","",NA,NA,NA,NA,""
"image-keyboard-response",380,370151,"0.0-4.122-2.122","u5a65eg1nx943ed",590,"11.csv","","null","resources/images/coin2.png","null","",NA,NA,NA,NA,""
"image-keyboard-response",381,371520,"0.0-4.123-0.123","u5a65eg1nx943ed",590,"11.csv","","1368.5999999642372","resources/trios/L1T2A3.jpg","38","restless",0.4,0.4,0.6,0.41613694249288,"false"
"image-keyboard-response",382,371926,"0.0-4.123-1.123","u5a65eg1nx943ed",590,"11.csv","","null","resources/maskTrios/BT2B.jpg","null","",NA,NA,NA,NA,""
"image-keyboard-response",383,373129,"0.0-4.123-2.123","u5a65eg1nx943ed",590,"11.csv","","null","resources/images/fishbone.png","null","",NA,NA,NA,NA,""
"image-keyboard-response",384,374293,"0.0-4.124-0.124","u5a65eg1nx943ed",590,"11.csv","","1163.2999999523163","resources/trios/L1T2A3.jpg","38","restless",0.5,0.4,0.6,0.911258066827709,"false"
"image-keyboard-response",385,374698,"0.0-4.124-1.124","u5a65eg1nx943ed",590,"11.csv","","null","resources/maskTrios/BT2B.jpg","null","",NA,NA,NA,NA,""
"image-keyboard-response",386,375905,"0.0-4.124-2.124","u5a65eg1nx943ed",590,"11.csv","","null","resources/images/fishbone.png","null","",NA,NA,NA,NA,""
"image-keyboard-response",387,376301,"0.0-4.125-0.125","u5a65eg1nx943ed",590,"11.csv","","395.0999999642372","resources/trios/L1T2A3.jpg","38","restless",0.5,0.4,0.6,0.58177733525576,"false"
"image-keyboard-response",388,376707,"0.0-4.125-1.125","u5a65eg1nx943ed",590,"11.csv","","null","resources/maskTrios/BT2B.jpg","null","",NA,NA,NA,NA,""
"image-keyboard-response",389,377909,"0.0-4.125-2.125","u5a65eg1nx943ed",590,"11.csv","","null","resources/images/fishbone.png","null","",NA,NA,NA,NA,""
"image-keyboard-response",390,378319,"0.0-4.126-0.126","u5a65eg1nx943ed",590,"11.csv","","408.9000000357628","resources/trios/L1T2A3.jpg","38","restless",0.5,0.4,0.6,0.0111865377143143,"true"
"image-keyboard-response",391,378721,"0.0-4.126-1.126","u5a65eg1nx943ed",590,"11.csv","","null","resources/maskTrios/BT2B.jpg","null","",NA,NA,NA,NA,""
"image-keyboard-response",392,379927,"0.0-4.126-2.126","u5a65eg1nx943ed",590,"11.csv","","null","resources/images/coin2.png","null","",NA,NA,NA,NA,""
"image-keyboard-response",393,380576,"0.0-4.127-0.127","u5a65eg1nx943ed",590,"11.csv","","647.8000000119209","resources/trios/L1T2A3.jpg","38","restless",0.5,0.4,0.6,0.690421331328435,"false"
"image-keyboard-response",394,380981,"0.0-4.127-1.127","u5a65eg1nx943ed",590,"11.csv","","null","resources/maskTrios/BT2B.jpg","null","",NA,NA,NA,NA,""
"image-keyboard-response",395,382188,"0.0-4.127-2.127","u5a65eg1nx943ed",590,"11.csv","","null","resources/images/fishbone.png","null","",NA,NA,NA,NA,""
"image-keyboard-response",396,383526,"0.0-4.128-0.128","u5a65eg1nx943ed",590,"11.csv","","1337.2999999523163","resources/trios/L1T2A3.jpg","38","restless",0.5,0.4,0.6,0.134950710065382,"true"
"image-keyboard-response",397,383933,"0.0-4.128-1.128","u5a65eg1nx943ed",590,"11.csv","","null","resources/maskTrios/BT2B.jpg","null","",NA,NA,NA,NA,""
"image-keyboard-response",398,385137,"0.0-4.128-2.128","u5a65eg1nx943ed",590,"11.csv","","null","resources/images/coin2.png","null","",NA,NA,NA,NA,""
"image-keyboard-response",399,386068,"0.0-4.129-0.129","u5a65eg1nx943ed",590,"11.csv","","929.6999999880791","resources/trios/L1T2A3.jpg","38","restless",0.5,0.4,0.6,0.144834272688896,"true"
"image-keyboard-response",400,386474,"0.0-4.129-1.129","u5a65eg1nx943ed",590,"11.csv","","null","resources/maskTrios/BT2B.jpg","null","",NA,NA,NA,NA,""
"image-keyboard-response",401,387677,"0.0-4.129-2.129","u5a65eg1nx943ed",590,"11.csv","","null","resources/images/coin2.png","null","",NA,NA,NA,NA,""
"image-keyboard-response",402,388447,"0.0-4.130-0.130","u5a65eg1nx943ed",590,"11.csv","","769.4000000357628","resources/trios/L1T2A3.jpg","38","restless",0.5,0.4,0.6,0.488930314688742,"false"
"image-keyboard-response",403,388854,"0.0-4.130-1.130","u5a65eg1nx943ed",590,"11.csv","","null","resources/maskTrios/BT2B.jpg","null","",NA,NA,NA,NA,""
"image-keyboard-response",404,390058,"0.0-4.130-2.130","u5a65eg1nx943ed",590,"11.csv","","null","resources/images/fishbone.png","null","",NA,NA,NA,NA,""
"image-keyboard-response",405,391753,"0.0-4.131-0.131","u5a65eg1nx943ed",590,"11.csv","","1694.0999999642372","resources/trios/L1T2A3.jpg","38","restless",0.5,0.4,0.6,0.343254557324497,"true"
"image-keyboard-response",406,392160,"0.0-4.131-1.131","u5a65eg1nx943ed",590,"11.csv","","null","resources/maskTrios/BT2B.jpg","null","",NA,NA,NA,NA,""
"image-keyboard-response",407,393365,"0.0-4.131-2.131","u5a65eg1nx943ed",590,"11.csv","","null","resources/images/coin2.png","null","",NA,NA,NA,NA,""
"image-keyboard-response",408,393963,"0.0-4.132-0.132","u5a65eg1nx943ed",590,"11.csv","","596.3999999761581","resources/trios/L1T2A3.jpg","38","restless",0.5,0.5,0.6,0.852126394371881,"false"
"image-keyboard-response",409,394367,"0.0-4.132-1.132","u5a65eg1nx943ed",590,"11.csv","","null","resources/maskTrios/BT2B.jpg","null","",NA,NA,NA,NA,""
"image-keyboard-response",410,395572,"0.0-4.132-2.132","u5a65eg1nx943ed",590,"11.csv","","null","resources/images/fishbone.png","null","",NA,NA,NA,NA,""
"image-keyboard-response",411,395590,"0.0-4.133-0.133","u5a65eg1nx943ed",590,"11.csv","","16.69999998807907","resources/trios/L1T2A3.jpg","38","restless",0.5,0.5,0.6,0.209799349429585,"true"
"image-keyboard-response",412,395996,"0.0-4.133-1.133","u5a65eg1nx943ed",590,"11.csv","","null","resources/maskTrios/BT2B.jpg","null","",NA,NA,NA,NA,""
"image-keyboard-response",413,397201,"0.0-4.133-2.133","u5a65eg1nx943ed",590,"11.csv","","null","resources/images/coin2.png","null","",NA,NA,NA,NA,""
"image-keyboard-response",414,397934,"0.0-4.134-0.134","u5a65eg1nx943ed",590,"11.csv","","732","resources/trios/L1T2A3.jpg","38","restless",0.5,0.5,0.6,0.427531412929146,"true"
"image-keyboard-response",415,398341,"0.0-4.134-1.134","u5a65eg1nx943ed",590,"11.csv","","null","resources/maskTrios/BT2B.jpg","null","",NA,NA,NA,NA,""
"image-keyboard-response",416,399544,"0.0-4.134-2.134","u5a65eg1nx943ed",590,"11.csv","","null","resources/images/coin2.png","null","",NA,NA,NA,NA,""
"image-keyboard-response",417,399620,"0.0-4.135-0.135","u5a65eg1nx943ed",590,"11.csv","","75.20000004768372","resources/trios/L1T2A3.jpg","38","restless",0.5,0.5,0.6,0.60639512150348,"false"
"image-keyboard-response",418,400026,"0.0-4.135-1.135","u5a65eg1nx943ed",590,"11.csv","","null","resources/maskTrios/BT2B.jpg","null","",NA,NA,NA,NA,""
"image-keyboard-response",419,401230,"0.0-4.135-2.135","u5a65eg1nx943ed",590,"11.csv","","null","resources/images/fishbone.png","null","",NA,NA,NA,NA,""
"image-keyboard-response",420,403045,"0.0-4.136-0.136","u5a65eg1nx943ed",590,"11.csv","","1814.5","resources/trios/L1T2A3.jpg","38","restless",0.5,0.5,0.6,0.964806441797904,"false"
"image-keyboard-response",421,403450,"0.0-4.136-1.136","u5a65eg1nx943ed",590,"11.csv","","null","resources/maskTrios/BT2B.jpg","null","",NA,NA,NA,NA,""
"image-keyboard-response",422,404657,"0.0-4.136-2.136","u5a65eg1nx943ed",590,"11.csv","","null","resources/images/fishbone.png","null","",NA,NA,NA,NA,""
"image-keyboard-response",423,404961,"0.0-4.137-0.137","u5a65eg1nx943ed",590,"11.csv","","303.19999998807907","resources/trios/L1T2A3.jpg","38","restless",0.5,0.4,0.6,0.300708411326939,"true"
"image-keyboard-response",424,405366,"0.0-4.137-1.137","u5a65eg1nx943ed",590,"11.csv","","null","resources/maskTrios/BT2B.jpg","null","",NA,NA,NA,NA,""
"image-keyboard-response",425,406573,"0.0-4.137-2.137","u5a65eg1nx943ed",590,"11.csv","","null","resources/images/coin2.png","null","",NA,NA,NA,NA,""
"image-keyboard-response",426,407886,"0.0-4.138-0.138","u5a65eg1nx943ed",590,"11.csv","","1312.3999999761581","resources/trios/L1T2A3.jpg","38","restless",0.5,0.4,0.6,0.854799008096092,"false"
"image-keyboard-response",427,408292,"0.0-4.138-1.138","u5a65eg1nx943ed",590,"11.csv","","null","resources/maskTrios/BT2B.jpg","null","",NA,NA,NA,NA,""
"image-keyboard-response",428,409497,"0.0-4.138-2.138","u5a65eg1nx943ed",590,"11.csv","","null","resources/images/fishbone.png","null","",NA,NA,NA,NA,""
"image-keyboard-response",429,411176,"0.0-4.139-0.139","u5a65eg1nx943ed",590,"11.csv","","1677.4000000357628","resources/trios/L1T2A3.jpg","38","restless",0.5,0.3,0.6,0.746565196724219,"false"
"image-keyboard-response",430,411583,"0.0-4.139-1.139","u5a65eg1nx943ed",590,"11.csv","","null","resources/maskTrios/BT2B.jpg","null","",NA,NA,NA,NA,""
"image-keyboard-response",431,412785,"0.0-4.139-2.139","u5a65eg1nx943ed",590,"11.csv","","null","resources/images/fishbone.png","null","",NA,NA,NA,NA,""
"image-keyboard-response",432,415026,"0.0-4.140-0.140","u5a65eg1nx943ed",590,"11.csv","","2240.399999976158","resources/trios/L1T2A3.jpg","38","restless",0.5,0.3,0.6,0.397668998042132,"false"
"image-keyboard-response",433,415428,"0.0-4.140-1.140","u5a65eg1nx943ed",590,"11.csv","","null","resources/maskTrios/BT2B.jpg","null","",NA,NA,NA,NA,""
"image-keyboard-response",434,416630,"0.0-4.140-2.140","u5a65eg1nx943ed",590,"11.csv","","null","resources/images/fishbone.png","null","",NA,NA,NA,NA,""
"image-keyboard-response",435,416705,"0.0-4.141-0.141","u5a65eg1nx943ed",590,"11.csv","","73.19999998807907","resources/trios/L1T2A3.jpg","38","restless",0.5,0.3,0.6,0.126418256977999,"true"
"image-keyboard-response",436,417111,"0.0-4.141-1.141","u5a65eg1nx943ed",590,"11.csv","","null","resources/maskTrios/BT2B.jpg","null","",NA,NA,NA,NA,""
"image-keyboard-response",437,418314,"0.0-4.141-2.141","u5a65eg1nx943ed",590,"11.csv","","null","resources/images/coin2.png","null","",NA,NA,NA,NA,""
"image-keyboard-response",438,419498,"0.0-4.142-0.142","u5a65eg1nx943ed",590,"11.csv","","1183.1000000238419","resources/trios/L1T2A3.jpg","38","restless",0.5,0.3,0.6,0.855040537573175,"false"
"image-keyboard-response",439,419905,"0.0-4.142-1.142","u5a65eg1nx943ed",590,"11.csv","","null","resources/maskTrios/BT2B.jpg","null","",NA,NA,NA,NA,""
"image-keyboard-response",440,421112,"0.0-4.142-2.142","u5a65eg1nx943ed",590,"11.csv","","null","resources/images/fishbone.png","null","",NA,NA,NA,NA,""
"image-keyboard-response",441,421459,"0.0-4.143-0.143","u5a65eg1nx943ed",590,"11.csv","","345.4000000357628","resources/trios/L1T2A3.jpg","38","restless",0.5,0.3,0.6,0.466775572490249,"false"
"image-keyboard-response",442,421864,"0.0-4.143-1.143","u5a65eg1nx943ed",590,"11.csv","","null","resources/maskTrios/BT2B.jpg","null","",NA,NA,NA,NA,""
"image-keyboard-response",443,423065,"0.0-4.143-2.143","u5a65eg1nx943ed",590,"11.csv","","null","resources/images/fishbone.png","null","",NA,NA,NA,NA,""
"image-keyboard-response",444,424241,"0.0-4.144-0.144","u5a65eg1nx943ed",590,"11.csv","","1174.5","resources/trios/L1T2A3.jpg","38","restless",0.5,0.3,0.6,0.680366674666949,"false"
"image-keyboard-response",445,424643,"0.0-4.144-1.144","u5a65eg1nx943ed",590,"11.csv","","null","resources/maskTrios/BT2B.jpg","null","",NA,NA,NA,NA,""
"image-keyboard-response",446,425850,"0.0-4.144-2.144","u5a65eg1nx943ed",590,"11.csv","","null","resources/images/fishbone.png","null","",NA,NA,NA,NA,""
"image-keyboard-response",447,425966,"0.0-4.145-0.145","u5a65eg1nx943ed",590,"11.csv","","114.10000002384186","resources/trios/L1T2A3.jpg","38","restless",0.5,0.3,0.6,0.186311363511574,"true"
"image-keyboard-response",448,426372,"0.0-4.145-1.145","u5a65eg1nx943ed",590,"11.csv","","null","resources/maskTrios/BT2B.jpg","null","",NA,NA,NA,NA,""
"image-keyboard-response",449,427577,"0.0-4.145-2.145","u5a65eg1nx943ed",590,"11.csv","","null","resources/images/coin2.png","null","",NA,NA,NA,NA,""
"image-keyboard-response",450,429738,"0.0-4.146-0.146","u5a65eg1nx943ed",590,"11.csv","","2160.599999964237","resources/trios/L1T2A3.jpg","38","restless",0.5,0.3,0.6,0.657243802300495,"false"
"image-keyboard-response",451,430146,"0.0-4.146-1.146","u5a65eg1nx943ed",590,"11.csv","","null","resources/maskTrios/BT2B.jpg","null","",NA,NA,NA,NA,""
"image-keyboard-response",452,431348,"0.0-4.146-2.146","u5a65eg1nx943ed",590,"11.csv","","null","resources/images/fishbone.png","null","",NA,NA,NA,NA,""
"image-keyboard-response",453,431820,"0.0-4.147-0.147","u5a65eg1nx943ed",590,"11.csv","","470.69999998807907","resources/trios/L1T2A3.jpg","38","restless",0.5,0.3,0.6,0.987021162857411,"false"
"image-keyboard-response",454,432225,"0.0-4.147-1.147","u5a65eg1nx943ed",590,"11.csv","","null","resources/maskTrios/BT2B.jpg","null","",NA,NA,NA,NA,""
"image-keyboard-response",455,433432,"0.0-4.147-2.147","u5a65eg1nx943ed",590,"11.csv","","null","resources/images/fishbone.png","null","",NA,NA,NA,NA,""
"image-keyboard-response",456,433501,"0.0-4.148-0.148","u5a65eg1nx943ed",590,"11.csv","","67.60000002384186","resources/trios/L1T2A3.jpg","38","restless",0.5,0.3,0.6,0.255127116333302,"true"
"image-keyboard-response",457,433908,"0.0-4.148-1.148","u5a65eg1nx943ed",590,"11.csv","","null","resources/maskTrios/BT2B.jpg","null","",NA,NA,NA,NA,""
"image-keyboard-response",458,435114,"0.0-4.148-2.148","u5a65eg1nx943ed",590,"11.csv","","null","resources/images/coin2.png","null","",NA,NA,NA,NA,""
"image-keyboard-response",459,435936,"0.0-4.149-0.149","u5a65eg1nx943ed",590,"11.csv","","820.6999999880791","resources/trios/L1T2A3.jpg","38","restless",0.5,0.3,0.6,0.910259823613513,"false"
"image-keyboard-response",460,436342,"0.0-4.149-1.149","u5a65eg1nx943ed",590,"11.csv","","null","resources/maskTrios/BT2B.jpg","null","",NA,NA,NA,NA,""
"image-keyboard-response",461,437549,"0.0-4.149-2.149","u5a65eg1nx943ed",590,"11.csv","","null","resources/images/fishbone.png","null","",NA,NA,NA,NA,""
"image-keyboard-response",462,438284,"0.0-4.150-0.150","u5a65eg1nx943ed",590,"11.csv","","733.5","resources/trios/L1T2A3.jpg","38","restless",0.5,0.3,0.6,0.0751466684971833,"true"
"image-keyboard-response",463,438689,"0.0-4.150-1.150","u5a65eg1nx943ed",590,"11.csv","","null","resources/maskTrios/BT2B.jpg","null","",NA,NA,NA,NA,""
"image-keyboard-response",464,439893,"0.0-4.150-2.150","u5a65eg1nx943ed",590,"11.csv","","null","resources/images/coin2.png","null","",NA,NA,NA,NA,""
"image-keyboard-response",465,441234,"0.0-4.151-0.151","u5a65eg1nx943ed",590,"11.csv","","1339.5","resources/trios/L1T2A3.jpg","38","restless",0.4,0.3,0.6,0.385012099926173,"false"
"image-keyboard-response",466,441636,"0.0-4.151-1.151","u5a65eg1nx943ed",590,"11.csv","","null","resources/maskTrios/BT2B.jpg","null","",NA,NA,NA,NA,""
"image-keyboard-response",467,442839,"0.0-4.151-2.151","u5a65eg1nx943ed",590,"11.csv","","null","resources/images/fishbone.png","null","",NA,NA,NA,NA,""
"image-keyboard-response",468,444188,"0.0-4.152-0.152","u5a65eg1nx943ed",590,"11.csv","","1348","resources/trios/L1T2A3.jpg","38","restless",0.3,0.2,0.6,0.571454803983239,"false"
"image-keyboard-response",469,444595,"0.0-4.152-1.152","u5a65eg1nx943ed",590,"11.csv","","null","resources/maskTrios/BT2B.jpg","null","",NA,NA,NA,NA,""
"image-keyboard-response",470,445796,"0.0-4.152-2.152","u5a65eg1nx943ed",590,"11.csv","","null","resources/images/fishbone.png","null","",NA,NA,NA,NA,""
"image-keyboard-response",471,445942,"0.0-4.153-0.153","u5a65eg1nx943ed",590,"11.csv","","144.39999997615814","resources/trios/L1T2A3.jpg","38","restless",0.3,0.2,0.6,0.132941253373157,"true"
"image-keyboard-response",472,446348,"0.0-4.153-1.153","u5a65eg1nx943ed",590,"11.csv","","null","resources/maskTrios/BT2B.jpg","null","",NA,NA,NA,NA,""
"image-keyboard-response",473,447550,"0.0-4.153-2.153","u5a65eg1nx943ed",590,"11.csv","","null","resources/images/coin2.png","null","",NA,NA,NA,NA,""
"image-keyboard-response",474,448043,"0.0-4.154-0.154","u5a65eg1nx943ed",590,"11.csv","","492.19999998807907","resources/trios/L1T2A3.jpg","38","restless",0.3,0.2,0.6,0.731094972079244,"false"
"image-keyboard-response",475,448448,"0.0-4.154-1.154","u5a65eg1nx943ed",590,"11.csv","","null","resources/maskTrios/BT2B.jpg","null","",NA,NA,NA,NA,""
"image-keyboard-response",476,449652,"0.0-4.154-2.154","u5a65eg1nx943ed",590,"11.csv","","null","resources/images/fishbone.png","null","",NA,NA,NA,NA,""
"image-keyboard-response",477,450142,"0.0-4.155-0.155","u5a65eg1nx943ed",590,"11.csv","","488.9000000357628","resources/trios/L1T2A3.jpg","38","restless",0.3,0.2,0.7,0.628011763289138,"false"
"image-keyboard-response",478,450548,"0.0-4.155-1.155","u5a65eg1nx943ed",590,"11.csv","","null","resources/maskTrios/BT2B.jpg","null","",NA,NA,NA,NA,""
"image-keyboard-response",479,451755,"0.0-4.155-2.155","u5a65eg1nx943ed",590,"11.csv","","null","resources/images/fishbone.png","null","",NA,NA,NA,NA,""
"image-keyboard-response",480,452387,"0.0-4.156-0.156","u5a65eg1nx943ed",590,"11.csv","","630.6000000238419","resources/trios/L1T2A3.jpg","38","restless",0.3,0.2,0.7,0.900946730026161,"false"
"image-keyboard-response",481,452793,"0.0-4.156-1.156","u5a65eg1nx943ed",590,"11.csv","","null","resources/maskTrios/BT2B.jpg","null","",NA,NA,NA,NA,""
"image-keyboard-response",482,453995,"0.0-4.156-2.156","u5a65eg1nx943ed",590,"11.csv","","null","resources/images/fishbone.png","null","",NA,NA,NA,NA,""
"image-keyboard-response",483,454137,"0.0-4.157-0.157","u5a65eg1nx943ed",590,"11.csv","","140.89999997615814","resources/trios/L1T2A3.jpg","38","restless",0.3,0.2,0.7,0.469713992640332,"false"
"image-keyboard-response",484,454540,"0.0-4.157-1.157","u5a65eg1nx943ed",590,"11.csv","","null","resources/maskTrios/BT2B.jpg","null","",NA,NA,NA,NA,""
"image-keyboard-response",485,455743,"0.0-4.157-2.157","u5a65eg1nx943ed",590,"11.csv","","null","resources/images/fishbone.png","null","",NA,NA,NA,NA,""
"image-keyboard-response",486,457602,"0.0-4.158-0.158","u5a65eg1nx943ed",590,"11.csv","","1857.8999999761581","resources/trios/L1T2A3.jpg","38","restless",0.3,0.2,0.7,0.907326414562317,"false"
"image-keyboard-response",487,458004,"0.0-4.158-1.158","u5a65eg1nx943ed",590,"11.csv","","null","resources/maskTrios/BT2B.jpg","null","",NA,NA,NA,NA,""
"image-keyboard-response",488,459205,"0.0-4.158-2.158","u5a65eg1nx943ed",590,"11.csv","","null","resources/images/fishbone.png","null","",NA,NA,NA,NA,""
"image-keyboard-response",489,460906,"0.0-4.159-0.159","u5a65eg1nx943ed",590,"11.csv","","1699.199999988079","resources/trios/L1T2A3.jpg","38","restless",0.3,0.2,0.7,0.724964169783373,"false"
"image-keyboard-response",490,461312,"0.0-4.159-1.159","u5a65eg1nx943ed",590,"11.csv","","null","resources/maskTrios/BT2B.jpg","null","",NA,NA,NA,NA,""
"image-keyboard-response",491,462519,"0.0-4.159-2.159","u5a65eg1nx943ed",590,"11.csv","","null","resources/images/fishbone.png","null","",NA,NA,NA,NA,""
"image-keyboard-response",492,463901,"0.0-4.160-0.160","u5a65eg1nx943ed",590,"11.csv","","1381.300000011921","resources/trios/L1T2A3.jpg","38","restless",0.3,0.2,0.7,0.37180097001614,"false"
"image-keyboard-response",493,464307,"0.0-4.160-1.160","u5a65eg1nx943ed",590,"11.csv","","null","resources/maskTrios/BT2B.jpg","null","",NA,NA,NA,NA,""
"image-keyboard-response",494,465513,"0.0-4.160-2.160","u5a65eg1nx943ed",590,"11.csv","","null","resources/images/fishbone.png","null","",NA,NA,NA,NA,""
"image-keyboard-response",495,466494,"0.0-4.161-0.161","u5a65eg1nx943ed",590,"11.csv","","979.5999999642372","resources/trios/L1T2A3.jpg","38","restless",0.3,0.2,0.6,0.58340483589378,"false"
"image-keyboard-response",496,466895,"0.0-4.161-1.161","u5a65eg1nx943ed",590,"11.csv","","null","resources/maskTrios/BT2B.jpg","null","",NA,NA,NA,NA,""
"image-keyboard-response",497,468102,"0.0-4.161-2.161","u5a65eg1nx943ed",590,"11.csv","","null","resources/images/fishbone.png","null","",NA,NA,NA,NA,""
"image-keyboard-response",498,469986,"0.0-4.162-0.162","u5a65eg1nx943ed",590,"11.csv","","1882.2999999523163","resources/trios/L1T2A3.jpg","38","restless",0.3,0.2,0.6,0.966911389337876,"false"
"image-keyboard-response",499,470392,"0.0-4.162-1.162","u5a65eg1nx943ed",590,"11.csv","","null","resources/maskTrios/BT2B.jpg","null","",NA,NA,NA,NA,""
"image-keyboard-response",500,471594,"0.0-4.162-2.162","u5a65eg1nx943ed",590,"11.csv","","null","resources/images/fishbone.png","null","",NA,NA,NA,NA,""
"image-keyboard-response",501,472178,"0.0-4.163-0.163","u5a65eg1nx943ed",590,"11.csv","","583.1000000238419","resources/trios/L1T2A3.jpg","38","restless",0.3,0.2,0.6,0.861080263262118,"false"
"image-keyboard-response",502,472585,"0.0-4.163-1.163","u5a65eg1nx943ed",590,"11.csv","","null","resources/maskTrios/BT2B.jpg","null","",NA,NA,NA,NA,""
"image-keyboard-response",503,473792,"0.0-4.163-2.163","u5a65eg1nx943ed",590,"11.csv","","null","resources/images/fishbone.png","null","",NA,NA,NA,NA,""
"image-keyboard-response",504,475698,"0.0-4.164-0.164","u5a65eg1nx943ed",590,"11.csv","","1904.699999988079","resources/trios/L1T2A3.jpg","38","restless",0.3,0.2,0.6,0.93486585282031,"false"
"image-keyboard-response",505,476104,"0.0-4.164-1.164","u5a65eg1nx943ed",590,"11.csv","","null","resources/maskTrios/BT2B.jpg","null","",NA,NA,NA,NA,""
"image-keyboard-response",506,477311,"0.0-4.164-2.164","u5a65eg1nx943ed",590,"11.csv","","null","resources/images/fishbone.png","null","",NA,NA,NA,NA,""
"image-keyboard-response",507,478993,"0.0-4.165-0.165","u5a65eg1nx943ed",590,"11.csv","","1681.300000011921","resources/trios/L1T2A3.jpg","38","restless",0.3,0.2,0.6,0.854752121511884,"false"
"image-keyboard-response",508,479400,"0.0-4.165-1.165","u5a65eg1nx943ed",590,"11.csv","","null","resources/maskTrios/BT2B.jpg","null","",NA,NA,NA,NA,""
"image-keyboard-response",509,480607,"0.0-4.165-2.165","u5a65eg1nx943ed",590,"11.csv","","null","resources/images/fishbone.png","null","",NA,NA,NA,NA,""
"image-keyboard-response",510,480681,"0.0-4.166-0.166","u5a65eg1nx943ed",590,"11.csv","","72.89999997615814","resources/trios/L1T2A3.jpg","38","restless",0.3,0.1,0.6,0.939392912513347,"false"
"image-keyboard-response",511,481088,"0.0-4.166-1.166","u5a65eg1nx943ed",590,"11.csv","","null","resources/maskTrios/BT2B.jpg","null","",NA,NA,NA,NA,""
"image-keyboard-response",512,482295,"0.0-4.166-2.166","u5a65eg1nx943ed",590,"11.csv","","null","resources/images/fishbone.png","null","",NA,NA,NA,NA,""
"image-keyboard-response",513,483128,"0.0-4.167-0.167","u5a65eg1nx943ed",590,"11.csv","","832.1999999880791","resources/trios/L1T2A3.jpg","38","restless",0.3,0.1,0.6,0.584060353830381,"false"
"image-keyboard-response",514,483535,"0.0-4.167-1.167","u5a65eg1nx943ed",590,"11.csv","","null","resources/maskTrios/BT2B.jpg","null","",NA,NA,NA,NA,""
"image-keyboard-response",515,484738,"0.0-4.167-2.167","u5a65eg1nx943ed",590,"11.csv","","null","resources/images/fishbone.png","null","",NA,NA,NA,NA,""
"image-keyboard-response",516,484850,"0.0-4.168-0.168","u5a65eg1nx943ed",590,"11.csv","","111.5","resources/trios/L1T2A3.jpg","38","restless",0.3,0.1,0.6,0.686277713875612,"false"
"image-keyboard-response",517,485257,"0.0-4.168-1.168","u5a65eg1nx943ed",590,"11.csv","","null","resources/maskTrios/BT2B.jpg","null","",NA,NA,NA,NA,""
"image-keyboard-response",518,486459,"0.0-4.168-2.168","u5a65eg1nx943ed",590,"11.csv","","null","resources/images/fishbone.png","null","",NA,NA,NA,NA,""
"image-keyboard-response",519,487485,"0.0-4.169-0.169","u5a65eg1nx943ed",590,"11.csv","","1024.8999999761581","resources/trios/L1T2A3.jpg","38","restless",0.3,0.1,0.6,0.393186710999323,"false"
"image-keyboard-response",520,487888,"0.0-4.169-1.169","u5a65eg1nx943ed",590,"11.csv","","null","resources/maskTrios/BT2B.jpg","null","",NA,NA,NA,NA,""
"image-keyboard-response",521,489092,"0.0-4.169-2.169","u5a65eg1nx943ed",590,"11.csv","","null","resources/images/fishbone.png","null","",NA,NA,NA,NA,""
"image-keyboard-response",522,489596,"0.0-4.170-0.170","u5a65eg1nx943ed",590,"11.csv","","503.60000002384186","resources/trios/L1T2A3.jpg","38","restless",0.3,0.1,0.6,0.29747271703686,"false"
"image-keyboard-response",523,489998,"0.0-4.170-1.170","u5a65eg1nx943ed",590,"11.csv","","null","resources/maskTrios/BT2B.jpg","null","",NA,NA,NA,NA,""
"image-keyboard-response",524,491203,"0.0-4.170-2.170","u5a65eg1nx943ed",590,"11.csv","","null","resources/images/fishbone.png","null","",NA,NA,NA,NA,""
"image-keyboard-response",525,492336,"0.0-4.171-0.171","u5a65eg1nx943ed",590,"11.csv","","1131.0999999642372","resources/trios/L1T2A3.jpg","38","restless",0.3,0.1,0.6,0.452884184720701,"false"
"image-keyboard-response",526,492739,"0.0-4.171-1.171","u5a65eg1nx943ed",590,"11.csv","","null","resources/maskTrios/BT2B.jpg","null","",NA,NA,NA,NA,""
"image-keyboard-response",527,493946,"0.0-4.171-2.171","u5a65eg1nx943ed",590,"11.csv","","null","resources/images/fishbone.png","null","",NA,NA,NA,NA,""
"image-keyboard-response",528,494235,"0.0-4.172-0.172","u5a65eg1nx943ed",590,"11.csv","","287.4000000357628","resources/trios/L1T2A3.jpg","38","restless",0.3,0.1,0.6,0.193234255628786,"false"
"image-keyboard-response",529,494639,"0.0-4.172-1.172","u5a65eg1nx943ed",590,"11.csv","","null","resources/maskTrios/BT2B.jpg","null","",NA,NA,NA,NA,""
"image-keyboard-response",530,495846,"0.0-4.172-2.172","u5a65eg1nx943ed",590,"11.csv","","null","resources/images/fishbone.png","null","",NA,NA,NA,NA,""
"image-keyboard-response",531,496974,"0.0-4.173-0.173","u5a65eg1nx943ed",590,"11.csv","","1126.5","resources/trios/L1T2A3.jpg","38","restless",0.3,0.1,0.6,0.540035959228373,"false"
"image-keyboard-response",532,497378,"0.0-4.173-1.173","u5a65eg1nx943ed",590,"11.csv","","null","resources/maskTrios/BT2B.jpg","null","",NA,NA,NA,NA,""
"image-keyboard-response",533,498579,"0.0-4.173-2.173","u5a65eg1nx943ed",590,"11.csv","","null","resources/images/fishbone.png","null","",NA,NA,NA,NA,""
"image-keyboard-response",534,499109,"0.0-4.174-0.174","u5a65eg1nx943ed",590,"11.csv","","528.8000000119209","resources/trios/L1T2A3.jpg","38","restless",0.3,0.2,0.6,0.103389790694366,"true"
"image-keyboard-response",535,499511,"0.0-4.174-1.174","u5a65eg1nx943ed",590,"11.csv","","null","resources/maskTrios/BT2B.jpg","null","",NA,NA,NA,NA,""
"image-keyboard-response",536,500718,"0.0-4.174-2.174","u5a65eg1nx943ed",590,"11.csv","","null","resources/images/coin2.png","null","",NA,NA,NA,NA,""
"image-keyboard-response",537,500823,"0.0-4.175-0.175","u5a65eg1nx943ed",590,"11.csv","","103.80000001192093","resources/trios/L1T2A3.jpg","38","restless",0.4,0.2,0.6,0.546200884478736,"false"
"image-keyboard-response",538,501228,"0.0-4.175-1.175","u5a65eg1nx943ed",590,"11.csv","","null","resources/maskTrios/BT2B.jpg","null","",NA,NA,NA,NA,""
"image-keyboard-response",539,502432,"0.0-4.175-2.175","u5a65eg1nx943ed",590,"11.csv","","null","resources/images/fishbone.png","null","",NA,NA,NA,NA,""
"image-keyboard-response",540,503775,"0.0-4.176-0.176","u5a65eg1nx943ed",590,"11.csv","","1342.199999988079","resources/trios/L1T2A3.jpg","38","restless",0.4,0.2,0.6,0.331208885331501,"false"
"image-keyboard-response",541,504181,"0.0-4.176-1.176","u5a65eg1nx943ed",590,"11.csv","","null","resources/maskTrios/BT2B.jpg","null","",NA,NA,NA,NA,""
"image-keyboard-response",542,505387,"0.0-4.176-2.176","u5a65eg1nx943ed",590,"11.csv","","null","resources/images/fishbone.png","null","",NA,NA,NA,NA,""
"image-keyboard-response",543,506668,"0.0-4.177-0.177","u5a65eg1nx943ed",590,"11.csv","","1280.5","resources/trios/L1T2A3.jpg","38","restless",0.3,0.2,0.6,0.977994747191565,"false"
"image-keyboard-response",544,507075,"0.0-4.177-1.177","u5a65eg1nx943ed",590,"11.csv","","null","resources/maskTrios/BT2B.jpg","null","",NA,NA,NA,NA,""
"image-keyboard-response",545,508279,"0.0-4.177-2.177","u5a65eg1nx943ed",590,"11.csv","","null","resources/images/fishbone.png","null","",NA,NA,NA,NA,""
"image-keyboard-response",546,508436,"0.0-4.178-0.178","u5a65eg1nx943ed",590,"11.csv","","155.80000001192093","resources/trios/L1T2A3.jpg","38","restless",0.3,0.2,0.6,0.447360674946693,"false"
"image-keyboard-response",547,508838,"0.0-4.178-1.178","u5a65eg1nx943ed",590,"11.csv","","null","resources/maskTrios/BT2B.jpg","null","",NA,NA,NA,NA,""
"image-keyboard-response",548,510041,"0.0-4.178-2.178","u5a65eg1nx943ed",590,"11.csv","","null","resources/images/fishbone.png","null","",NA,NA,NA,NA,""
"image-keyboard-response",549,512360,"0.0-4.179-0.179","u5a65eg1nx943ed",590,"11.csv","","2317.399999976158","resources/trios/L1T2A3.jpg","38","restless",0.2,0.2,0.6,0.855980222377429,"false"
"image-keyboard-response",550,512761,"0.0-4.179-1.179","u5a65eg1nx943ed",590,"11.csv","","null","resources/maskTrios/BT2B.jpg","null","",NA,NA,NA,NA,""
"image-keyboard-response",551,513966,"0.0-4.179-2.179","u5a65eg1nx943ed",590,"11.csv","","null","resources/images/fishbone.png","null","",NA,NA,NA,NA,""
"image-keyboard-response",552,515966,"0.0-4.180-0.180","u5a65eg1nx943ed",590,"11.csv","","1999.6000000238419","resources/trios/L1T2A3.jpg","38","restless",0.2,0.3,0.6,0.468063634037081,"false"
"image-keyboard-response",553,516372,"0.0-4.180-1.180","u5a65eg1nx943ed",590,"11.csv","","null","resources/maskTrios/BT2B.jpg","null","",NA,NA,NA,NA,""
"image-keyboard-response",554,517579,"0.0-4.180-2.180","u5a65eg1nx943ed",590,"11.csv","","null","resources/images/fishbone.png","null","",NA,NA,NA,NA,""
"image-keyboard-response",555,519207,"0.0-4.181-0.181","u5a65eg1nx943ed",590,"11.csv","","1627","resources/trios/L1T2A3.jpg","38","restless",0.2,0.3,0.7,0.955732078232384,"false"
"image-keyboard-response",556,519609,"0.0-4.181-1.181","u5a65eg1nx943ed",590,"11.csv","","null","resources/maskTrios/BT2B.jpg","null","",NA,NA,NA,NA,""
"image-keyboard-response",557,520810,"0.0-4.181-2.181","u5a65eg1nx943ed",590,"11.csv","","null","resources/images/fishbone.png","null","",NA,NA,NA,NA,""
"image-keyboard-response",558,522779,"0.0-4.182-0.182","u5a65eg1nx943ed",590,"11.csv","","1967","resources/trios/L1T2A3.jpg","38","restless",0.2,0.3,0.7,0.733875058195722,"false"
"image-keyboard-response",559,523183,"0.0-4.182-1.182","u5a65eg1nx943ed",590,"11.csv","","null","resources/maskTrios/BT2B.jpg","null","",NA,NA,NA,NA,""
"image-keyboard-response",560,524387,"0.0-4.182-2.182","u5a65eg1nx943ed",590,"11.csv","","null","resources/images/fishbone.png","null","",NA,NA,NA,NA,""
"image-keyboard-response",561,527411,"0.0-4.183-0.183","u5a65eg1nx943ed",590,"11.csv","","3023.599999964237","resources/trios/L1T2A3.jpg","38","restless",0.2,0.4,0.7,0.855498635073134,"false"
"image-keyboard-response",562,527816,"0.0-4.183-1.183","u5a65eg1nx943ed",590,"11.csv","","null","resources/maskTrios/BT2B.jpg","null","",NA,NA,NA,NA,""
"image-keyboard-response",563,529020,"0.0-4.183-2.183","u5a65eg1nx943ed",590,"11.csv","","null","resources/images/fishbone.png","null","",NA,NA,NA,NA,""
"image-keyboard-response",564,530255,"0.0-4.184-0.184","u5a65eg1nx943ed",590,"11.csv","","1233.3999999761581","resources/trios/L1T2A3.jpg","38","restless",0.2,0.4,0.7,0.978194335564624,"false"
"image-keyboard-response",565,530657,"0.0-4.184-1.184","u5a65eg1nx943ed",590,"11.csv","","null","resources/maskTrios/BT2B.jpg","null","",NA,NA,NA,NA,""
"image-keyboard-response",566,531858,"0.0-4.184-2.184","u5a65eg1nx943ed",590,"11.csv","","null","resources/images/fishbone.png","null","",NA,NA,NA,NA,""
"image-keyboard-response",567,532978,"0.0-4.185-0.185","u5a65eg1nx943ed",590,"11.csv","","1118.699999988079","resources/trios/L1T2A3.jpg","38","restless",0.2,0.4,0.6,0.529861482444703,"false"
"image-keyboard-response",568,533381,"0.0-4.185-1.185","u5a65eg1nx943ed",590,"11.csv","","null","resources/maskTrios/BT2B.jpg","null","",NA,NA,NA,NA,""
"image-keyboard-response",569,534586,"0.0-4.185-2.185","u5a65eg1nx943ed",590,"11.csv","","null","resources/images/fishbone.png","null","",NA,NA,NA,NA,""
"image-keyboard-response",570,538097,"0.0-4.186-0.186","u5a65eg1nx943ed",590,"11.csv","","3509.399999976158","resources/trios/L1T2A3.jpg","38","restless",0.2,0.4,0.6,0.933270288400349,"false"
"image-keyboard-response",571,538499,"0.0-4.186-1.186","u5a65eg1nx943ed",590,"11.csv","","null","resources/maskTrios/BT2B.jpg","null","",NA,NA,NA,NA,""
"image-keyboard-response",572,539705,"0.0-4.186-2.186","u5a65eg1nx943ed",590,"11.csv","","null","resources/images/fishbone.png","null","",NA,NA,NA,NA,""
"image-keyboard-response",573,541526,"0.0-4.187-0.187","u5a65eg1nx943ed",590,"11.csv","","1819.4000000357628","resources/trios/L1T2A3.jpg","38","restless",0.2,0.4,0.6,0.0587459149832092,"true"
"image-keyboard-response",574,541932,"0.0-4.187-1.187","u5a65eg1nx943ed",590,"11.csv","","null","resources/maskTrios/BT2B.jpg","null","",NA,NA,NA,NA,""
"image-keyboard-response",575,543139,"0.0-4.187-2.187","u5a65eg1nx943ed",590,"11.csv","","null","resources/images/coin2.png","null","",NA,NA,NA,NA,""
"image-keyboard-response",576,546002,"0.0-4.188-0.188","u5a65eg1nx943ed",590,"11.csv","","2862.300000011921","resources/trios/L1T2A3.jpg","38","restless",0.2,0.4,0.6,0.16251792424361,"true"
"image-keyboard-response",577,546404,"0.0-4.188-1.188","u5a65eg1nx943ed",590,"11.csv","","null","resources/maskTrios/BT2B.jpg","null","",NA,NA,NA,NA,""
"image-keyboard-response",578,547611,"0.0-4.188-2.188","u5a65eg1nx943ed",590,"11.csv","","null","resources/images/coin2.png","null","",NA,NA,NA,NA,""
"image-keyboard-response",579,548287,"0.0-4.189-0.189","u5a65eg1nx943ed",590,"11.csv","","674.6000000238419","resources/trios/L1T2A3.jpg","38","restless",0.2,0.5,0.6,0.581673642326696,"false"
"image-keyboard-response",580,548694,"0.0-4.189-1.189","u5a65eg1nx943ed",590,"11.csv","","null","resources/maskTrios/BT2B.jpg","null","",NA,NA,NA,NA,""
"image-keyboard-response",581,549898,"0.0-4.189-2.189","u5a65eg1nx943ed",590,"11.csv","","null","resources/images/fishbone.png","null","",NA,NA,NA,NA,""
"image-keyboard-response",582,551838,"0.0-4.190-0.190","u5a65eg1nx943ed",590,"11.csv","","1939","resources/trios/L1T2A3.jpg","38","restless",0.2,0.5,0.6,0.869425839193481,"false"
"image-keyboard-response",583,552244,"0.0-4.190-1.190","u5a65eg1nx943ed",590,"11.csv","","null","resources/maskTrios/BT2B.jpg","null","",NA,NA,NA,NA,""
"image-keyboard-response",584,553447,"0.0-4.190-2.190","u5a65eg1nx943ed",590,"11.csv","","null","resources/images/fishbone.png","null","",NA,NA,NA,NA,""
"image-keyboard-response",585,555238,"0.0-4.191-0.191","u5a65eg1nx943ed",590,"11.csv","","1790.300000011921","resources/trios/L1T2A3.jpg","38","restless",0.2,0.5,0.7,0.361759007649971,"true"
"image-keyboard-response",586,555643,"0.0-4.191-1.191","u5a65eg1nx943ed",590,"11.csv","","null","resources/maskTrios/BT2B.jpg","null","",NA,NA,NA,NA,""
"image-keyboard-response",587,556846,"0.0-4.191-2.191","u5a65eg1nx943ed",590,"11.csv","","null","resources/images/coin2.png","null","",NA,NA,NA,NA,""
"image-keyboard-response",588,557561,"0.0-4.192-0.192","u5a65eg1nx943ed",590,"11.csv","","713.1000000238419","resources/trios/L1T2A3.jpg","38","restless",0.3,0.4,0.7,0.955655961217747,"false"
"image-keyboard-response",589,557964,"0.0-4.192-1.192","u5a65eg1nx943ed",590,"11.csv","","null","resources/maskTrios/BT2B.jpg","null","",NA,NA,NA,NA,""
"image-keyboard-response",590,559166,"0.0-4.192-2.192","u5a65eg1nx943ed",590,"11.csv","","null","resources/images/fishbone.png","null","",NA,NA,NA,NA,""
"image-keyboard-response",591,559420,"0.0-4.193-0.193","u5a65eg1nx943ed",590,"11.csv","","252.60000002384186","resources/trios/L1T2A3.jpg","38","restless",0.3,0.4,0.7,0.0840018468175259,"true"
"image-keyboard-response",592,559827,"0.0-4.193-1.193","u5a65eg1nx943ed",590,"11.csv","","null","resources/maskTrios/BT2B.jpg","null","",NA,NA,NA,NA,""
"image-keyboard-response",593,561035,"0.0-4.193-2.193","u5a65eg1nx943ed",590,"11.csv","","null","resources/images/coin2.png","null","",NA,NA,NA,NA,""
"image-keyboard-response",594,561384,"0.0-4.194-0.194","u5a65eg1nx943ed",590,"11.csv","","348.39999997615814","resources/trios/L1T2A3.jpg","38","restless",0.3,0.4,0.7,0.860433439638319,"false"
"image-keyboard-response",595,561785,"0.0-4.194-1.194","u5a65eg1nx943ed",590,"11.csv","","null","resources/maskTrios/BT2B.jpg","null","",NA,NA,NA,NA,""
"image-keyboard-response",596,562991,"0.0-4.194-2.194","u5a65eg1nx943ed",590,"11.csv","","null","resources/images/fishbone.png","null","",NA,NA,NA,NA,""
"image-keyboard-response",597,563610,"0.0-4.195-0.195","u5a65eg1nx943ed",590,"11.csv","","617.5","resources/trios/L1T2A3.jpg","38","restless",0.3,0.4,0.7,0.809048831903651,"false"
"image-keyboard-response",598,564011,"0.0-4.195-1.195","u5a65eg1nx943ed",590,"11.csv","","null","resources/maskTrios/BT2B.jpg","null","",NA,NA,NA,NA,""
"image-keyboard-response",599,565213,"0.0-4.195-2.195","u5a65eg1nx943ed",590,"11.csv","","null","resources/images/fishbone.png","null","",NA,NA,NA,NA,""
"image-keyboard-response",600,566055,"0.0-4.196-0.196","u5a65eg1nx943ed",590,"11.csv","","841.3000000119209","resources/trios/L1T2A3.jpg","38","restless",0.3,0.5,0.7,0.856539999743017,"false"
"image-keyboard-response",601,566460,"0.0-4.196-1.196","u5a65eg1nx943ed",590,"11.csv","","null","resources/maskTrios/BT2B.jpg","null","",NA,NA,NA,NA,""
"image-keyboard-response",602,567665,"0.0-4.196-2.196","u5a65eg1nx943ed",590,"11.csv","","null","resources/images/fishbone.png","null","",NA,NA,NA,NA,""
"image-keyboard-response",603,568387,"0.0-4.197-0.197","u5a65eg1nx943ed",590,"11.csv","","720.8000000119209","resources/trios/L1T2A3.jpg","38","restless",0.3,0.5,0.7,0.301509246364916,"true"
"image-keyboard-response",604,568796,"0.0-4.197-1.197","u5a65eg1nx943ed",590,"11.csv","","null","resources/maskTrios/BT2B.jpg","null","",NA,NA,NA,NA,""
"image-keyboard-response",605,569998,"0.0-4.197-2.197","u5a65eg1nx943ed",590,"11.csv","","null","resources/images/coin2.png","null","",NA,NA,NA,NA,""
"image-keyboard-response",606,570459,"0.0-4.198-0.198","u5a65eg1nx943ed",590,"11.csv","","460.5","resources/trios/L1T2A3.jpg","38","restless",0.3,0.5,0.7,0.401267773664284,"true"
"image-keyboard-response",607,570863,"0.0-4.198-1.198","u5a65eg1nx943ed",590,"11.csv","","null","resources/maskTrios/BT2B.jpg","null","",NA,NA,NA,NA,""
"image-keyboard-response",608,572066,"0.0-4.198-2.198","u5a65eg1nx943ed",590,"11.csv","","null","resources/images/coin2.png","null","",NA,NA,NA,NA,""
"image-keyboard-response",609,572996,"0.0-4.199-0.199","u5a65eg1nx943ed",590,"11.csv","","929.5","resources/trios/L1T2A3.jpg","38","restless",0.4,0.5,0.7,0.48590626172233,"true"
"image-keyboard-response",610,573399,"0.0-4.199-1.199","u5a65eg1nx943ed",590,"11.csv","","null","resources/maskTrios/BT2B.jpg","null","",NA,NA,NA,NA,""
"image-keyboard-response",611,574603,"0.0-4.199-2.199","u5a65eg1nx943ed",590,"11.csv","","null","resources/images/coin2.png","null","",NA,NA,NA,NA,""
