"trial_type","trial_index","time_elapsed","internal_node_id","subject","participantCode","walkNumber","success","rt","stimulus","key_press","test_part","leftProb","midProb","rightProb","generatedNum","correct"
"pavlovia",0,610,"0.0-0.0","wrqvq0tk9bzen12",752,"177.csv","","","","","",NA,NA,NA,NA,""
"fullscreen",1,5360,"0.0-1.0","wrqvq0tk9bzen12",752,"177.csv","true","","","","",NA,NA,NA,NA,""
"survey-html-form",2,14932,"0.0-2.0","wrqvq0tk9bzen12",752,"177.csv","","9554","","","",NA,NA,NA,NA,""
"image-keyboard-response",3,42212,"0.0-3.0-0.0","wrqvq0tk9bzen12",752,"177.csv","","27280","resources/images/parrot_nobg.png","13","",NA,NA,NA,NA,""
"image-keyboard-response",4,45456,"0.0-3.0-1.0","wrqvq0tk9bzen12",752,"177.csv","","null","resources/image_sets/111.png","null","",NA,NA,NA,NA,""
"image-keyboard-response",5,58686,"0.0-3.0-2.0","wrqvq0tk9bzen12",752,"177.csv","","13230","resources/image_sets/left_highlight.png","37","",NA,NA,NA,NA,""
"image-keyboard-response",6,63984,"0.0-3.0-3.0","wrqvq0tk9bzen12",752,"177.csv","","5297","resources/image_sets/mid_highlight.png","38","",NA,NA,NA,NA,""
"image-keyboard-response",7,64523,"0.0-3.0-4.0","wrqvq0tk9bzen12",752,"177.csv","","540","resources/image_sets/right_highlight.png","39","",NA,NA,NA,NA,""
"image-keyboard-response",8,70791,"0.0-3.0-5.0","wrqvq0tk9bzen12",752,"177.csv","","6268","resources/image_sets/111.png","13","",NA,NA,NA,NA,""
"image-keyboard-response",9,73629,"0.0-3.0-6.0","wrqvq0tk9bzen12",752,"177.csv","","2837","resources/images/coin2.png","13","",NA,NA,NA,NA,""
"image-keyboard-response",10,75093,"0.0-3.0-7.0","wrqvq0tk9bzen12",752,"177.csv","","1462","resources/images/fishbone.png","13","",NA,NA,NA,NA,""
"html-keyboard-response",11,77499,"0.0-3.0-8.0","wrqvq0tk9bzen12",752,"177.csv","","2408","<p>You can track your coin total on the top right of your screen. </p><p>At the end of your journey you will be directed to a survey, so please click on the link before exiting the task</p><p>Press Enter to begin</p>","13","",NA,NA,NA,NA,""
"image-keyboard-response",12,80375,"0.0-4.0-0.0","wrqvq0tk9bzen12",752,"177.csv","","2875","resources/trios/L1T4A3.jpg","38","restless",0.3,0.9,0.7,0.870188315407106,"true"
"image-keyboard-response",13,80789,"0.0-4.0-1.0","wrqvq0tk9bzen12",752,"177.csv","","null","resources/maskTrios/BT4B.jpg","null","",NA,NA,NA,NA,""
"image-keyboard-response",14,81994,"0.0-4.0-2.0","wrqvq0tk9bzen12",752,"177.csv","","null","resources/images/coin2.png","null","",NA,NA,NA,NA,""
"image-keyboard-response",15,86433,"0.0-4.1-0.1","wrqvq0tk9bzen12",752,"177.csv","","4438","resources/trios/L1T4A3.jpg","37","restless",0.3,0.9,0.7,0.620841783323965,"false"
"image-keyboard-response",16,86848,"0.0-4.1-1.1","wrqvq0tk9bzen12",752,"177.csv","","null","resources/maskTrios/L1BB.jpg","null","",NA,NA,NA,NA,""
"image-keyboard-response",17,88050,"0.0-4.1-2.1","wrqvq0tk9bzen12",752,"177.csv","","null","resources/images/fishbone.png","null","",NA,NA,NA,NA,""
"image-keyboard-response",18,89227,"0.0-4.2-0.2","wrqvq0tk9bzen12",752,"177.csv","","1177","resources/trios/L1T4A3.jpg","38","restless",0.2,0.9,0.7,0.136206173924564,"true"
"image-keyboard-response",19,89631,"0.0-4.2-1.2","wrqvq0tk9bzen12",752,"177.csv","","null","resources/maskTrios/BT4B.jpg","null","",NA,NA,NA,NA,""
"image-keyboard-response",20,90837,"0.0-4.2-2.2","wrqvq0tk9bzen12",752,"177.csv","","null","resources/images/coin2.png","null","",NA,NA,NA,NA,""
"image-keyboard-response",21,91290,"0.0-4.3-0.3","wrqvq0tk9bzen12",752,"177.csv","","452","resources/trios/L1T4A3.jpg","38","restless",0.2,0.9,0.7,0.544795963896363,"true"
"image-keyboard-response",22,91700,"0.0-4.3-1.3","wrqvq0tk9bzen12",752,"177.csv","","null","resources/maskTrios/BT4B.jpg","null","",NA,NA,NA,NA,""
"image-keyboard-response",23,92910,"0.0-4.3-2.3","wrqvq0tk9bzen12",752,"177.csv","","null","resources/images/coin2.png","null","",NA,NA,NA,NA,""
"image-keyboard-response",24,93240,"0.0-4.4-0.4","wrqvq0tk9bzen12",752,"177.csv","","329","resources/trios/L1T4A3.jpg","38","restless",0.2,0.9,0.7,0.842745805705355,"true"
"image-keyboard-response",25,93655,"0.0-4.4-1.4","wrqvq0tk9bzen12",752,"177.csv","","null","resources/maskTrios/BT4B.jpg","null","",NA,NA,NA,NA,""
"image-keyboard-response",26,94921,"0.0-4.4-2.4","wrqvq0tk9bzen12",752,"177.csv","","null","resources/images/coin2.png","null","",NA,NA,NA,NA,""
"image-keyboard-response",27,95237,"0.0-4.5-0.5","wrqvq0tk9bzen12",752,"177.csv","","316","resources/trios/L1T4A3.jpg","38","restless",0.2,0.9,0.7,0.874877933676995,"true"
"image-keyboard-response",28,95641,"0.0-4.5-1.5","wrqvq0tk9bzen12",752,"177.csv","","null","resources/maskTrios/BT4B.jpg","null","",NA,NA,NA,NA,""
"image-keyboard-response",29,96931,"0.0-4.5-2.5","wrqvq0tk9bzen12",752,"177.csv","","null","resources/images/coin2.png","null","",NA,NA,NA,NA,""
"image-keyboard-response",30,97717,"0.0-4.6-0.6","wrqvq0tk9bzen12",752,"177.csv","","786","resources/trios/L1T4A3.jpg","38","restless",0.2,0.9,0.7,0.136165713033732,"true"
"image-keyboard-response",31,98129,"0.0-4.6-1.6","wrqvq0tk9bzen12",752,"177.csv","","null","resources/maskTrios/BT4B.jpg","null","",NA,NA,NA,NA,""
"image-keyboard-response",32,99332,"0.0-4.6-2.6","wrqvq0tk9bzen12",752,"177.csv","","null","resources/images/coin2.png","null","",NA,NA,NA,NA,""
"image-keyboard-response",33,99797,"0.0-4.7-0.7","wrqvq0tk9bzen12",752,"177.csv","","464","resources/trios/L1T4A3.jpg","38","restless",0.2,0.9,0.6,0.707060731368427,"true"
"image-keyboard-response",34,100207,"0.0-4.7-1.7","wrqvq0tk9bzen12",752,"177.csv","","null","resources/maskTrios/BT4B.jpg","null","",NA,NA,NA,NA,""
"image-keyboard-response",35,101424,"0.0-4.7-2.7","wrqvq0tk9bzen12",752,"177.csv","","null","resources/images/coin2.png","null","",NA,NA,NA,NA,""
"image-keyboard-response",36,102281,"0.0-4.8-0.8","wrqvq0tk9bzen12",752,"177.csv","","857","resources/trios/L1T4A3.jpg","39","restless",0.1,0.9,0.6,0.965675827456858,"false"
"image-keyboard-response",37,102690,"0.0-4.8-1.8","wrqvq0tk9bzen12",752,"177.csv","","null","resources/maskTrios/BBA3.jpg","null","",NA,NA,NA,NA,""
"image-keyboard-response",38,103906,"0.0-4.8-2.8","wrqvq0tk9bzen12",752,"177.csv","","null","resources/images/fishbone.png","null","",NA,NA,NA,NA,""
"image-keyboard-response",39,104955,"0.0-4.9-0.9","wrqvq0tk9bzen12",752,"177.csv","","1049","resources/trios/L1T4A3.jpg","38","restless",0.1,0.9,0.6,0.613202687345571,"true"
"image-keyboard-response",40,105361,"0.0-4.9-1.9","wrqvq0tk9bzen12",752,"177.csv","","null","resources/maskTrios/BT4B.jpg","null","",NA,NA,NA,NA,""
"image-keyboard-response",41,106577,"0.0-4.9-2.9","wrqvq0tk9bzen12",752,"177.csv","","null","resources/images/coin2.png","null","",NA,NA,NA,NA,""
"image-keyboard-response",42,107003,"0.0-4.10-0.10","wrqvq0tk9bzen12",752,"177.csv","","425","resources/trios/L1T4A3.jpg","38","restless",0.1,0.9,0.7,0.0269348966848161,"true"
"image-keyboard-response",43,107417,"0.0-4.10-1.10","wrqvq0tk9bzen12",752,"177.csv","","null","resources/maskTrios/BT4B.jpg","null","",NA,NA,NA,NA,""
"image-keyboard-response",44,108623,"0.0-4.10-2.10","wrqvq0tk9bzen12",752,"177.csv","","null","resources/images/coin2.png","null","",NA,NA,NA,NA,""
"image-keyboard-response",45,108824,"0.0-4.11-0.11","wrqvq0tk9bzen12",752,"177.csv","","201","resources/trios/L1T4A3.jpg","38","restless",0.1,0.9,0.7,0.86282074076801,"true"
"image-keyboard-response",46,109230,"0.0-4.11-1.11","wrqvq0tk9bzen12",752,"177.csv","","null","resources/maskTrios/BT4B.jpg","null","",NA,NA,NA,NA,""
"image-keyboard-response",47,110437,"0.0-4.11-2.11","wrqvq0tk9bzen12",752,"177.csv","","null","resources/images/coin2.png","null","",NA,NA,NA,NA,""
"image-keyboard-response",48,110782,"0.0-4.12-0.12","wrqvq0tk9bzen12",752,"177.csv","","344","resources/trios/L1T4A3.jpg","38","restless",0.1,0.9,0.7,0.540527146005403,"true"
"image-keyboard-response",49,111194,"0.0-4.12-1.12","wrqvq0tk9bzen12",752,"177.csv","","null","resources/maskTrios/BT4B.jpg","null","",NA,NA,NA,NA,""
"image-keyboard-response",50,112402,"0.0-4.12-2.12","wrqvq0tk9bzen12",752,"177.csv","","null","resources/images/coin2.png","null","",NA,NA,NA,NA,""
"image-keyboard-response",51,112758,"0.0-4.13-0.13","wrqvq0tk9bzen12",752,"177.csv","","353","resources/trios/L1T4A3.jpg","38","restless",0.1,0.9,0.7,0.202831912960357,"true"
"image-keyboard-response",52,113171,"0.0-4.13-1.13","wrqvq0tk9bzen12",752,"177.csv","","null","resources/maskTrios/BT4B.jpg","null","",NA,NA,NA,NA,""
"image-keyboard-response",53,114375,"0.0-4.13-2.13","wrqvq0tk9bzen12",752,"177.csv","","null","resources/images/coin2.png","null","",NA,NA,NA,NA,""
"image-keyboard-response",54,114720,"0.0-4.14-0.14","wrqvq0tk9bzen12",752,"177.csv","","345","resources/trios/L1T4A3.jpg","38","restless",0.1,0.9,0.7,0.377484059387776,"true"
"image-keyboard-response",55,115131,"0.0-4.14-1.14","wrqvq0tk9bzen12",752,"177.csv","","null","resources/maskTrios/BT4B.jpg","null","",NA,NA,NA,NA,""
"image-keyboard-response",56,116334,"0.0-4.14-2.14","wrqvq0tk9bzen12",752,"177.csv","","null","resources/images/coin2.png","null","",NA,NA,NA,NA,""
"image-keyboard-response",57,116668,"0.0-4.15-0.15","wrqvq0tk9bzen12",752,"177.csv","","333","resources/trios/L1T4A3.jpg","38","restless",0.1,0.9,0.8,0.309643916825158,"true"
"image-keyboard-response",58,117072,"0.0-4.15-1.15","wrqvq0tk9bzen12",752,"177.csv","","null","resources/maskTrios/BT4B.jpg","null","",NA,NA,NA,NA,""
"image-keyboard-response",59,118282,"0.0-4.15-2.15","wrqvq0tk9bzen12",752,"177.csv","","null","resources/images/coin2.png","null","",NA,NA,NA,NA,""
"image-keyboard-response",60,118598,"0.0-4.16-0.16","wrqvq0tk9bzen12",752,"177.csv","","315","resources/trios/L1T4A3.jpg","38","restless",0.1,0.9,0.8,0.175760844817017,"true"
"image-keyboard-response",61,119002,"0.0-4.16-1.16","wrqvq0tk9bzen12",752,"177.csv","","null","resources/maskTrios/BT4B.jpg","null","",NA,NA,NA,NA,""
"image-keyboard-response",62,120288,"0.0-4.16-2.16","wrqvq0tk9bzen12",752,"177.csv","","null","resources/images/coin2.png","null","",NA,NA,NA,NA,""
"image-keyboard-response",63,120670,"0.0-4.17-0.17","wrqvq0tk9bzen12",752,"177.csv","","382","resources/trios/L1T4A3.jpg","38","restless",0.1,0.9,0.8,0.161209140731925,"true"
"image-keyboard-response",64,121074,"0.0-4.17-1.17","wrqvq0tk9bzen12",752,"177.csv","","null","resources/maskTrios/BT4B.jpg","null","",NA,NA,NA,NA,""
"image-keyboard-response",65,122298,"0.0-4.17-2.17","wrqvq0tk9bzen12",752,"177.csv","","null","resources/images/coin2.png","null","",NA,NA,NA,NA,""
"image-keyboard-response",66,122570,"0.0-4.18-0.18","wrqvq0tk9bzen12",752,"177.csv","","272","resources/trios/L1T4A3.jpg","38","restless",0.2,0.9,0.8,0.539988304964427,"true"
"image-keyboard-response",67,122974,"0.0-4.18-1.18","wrqvq0tk9bzen12",752,"177.csv","","null","resources/maskTrios/BT4B.jpg","null","",NA,NA,NA,NA,""
"image-keyboard-response",68,124314,"0.0-4.18-2.18","wrqvq0tk9bzen12",752,"177.csv","","null","resources/images/coin2.png","null","",NA,NA,NA,NA,""
"image-keyboard-response",69,124707,"0.0-4.19-0.19","wrqvq0tk9bzen12",752,"177.csv","","393","resources/trios/L1T4A3.jpg","38","restless",0.2,0.9,0.8,0.81437310484158,"true"
"image-keyboard-response",70,125117,"0.0-4.19-1.19","wrqvq0tk9bzen12",752,"177.csv","","null","resources/maskTrios/BT4B.jpg","null","",NA,NA,NA,NA,""
"image-keyboard-response",71,126324,"0.0-4.19-2.19","wrqvq0tk9bzen12",752,"177.csv","","null","resources/images/coin2.png","null","",NA,NA,NA,NA,""
"image-keyboard-response",72,126520,"0.0-4.20-0.20","wrqvq0tk9bzen12",752,"177.csv","","197","resources/trios/L1T4A3.jpg","38","restless",0.2,0.8,0.8,0.417229634200904,"true"
"image-keyboard-response",73,126933,"0.0-4.20-1.20","wrqvq0tk9bzen12",752,"177.csv","","null","resources/maskTrios/BT4B.jpg","null","",NA,NA,NA,NA,""
"image-keyboard-response",74,128150,"0.0-4.20-2.20","wrqvq0tk9bzen12",752,"177.csv","","null","resources/images/coin2.png","null","",NA,NA,NA,NA,""
"image-keyboard-response",75,128345,"0.0-4.21-0.21","wrqvq0tk9bzen12",752,"177.csv","","195","resources/trios/L1T4A3.jpg","38","restless",0.2,0.7,0.8,0.0169840181109797,"true"
"image-keyboard-response",76,128758,"0.0-4.21-1.21","wrqvq0tk9bzen12",752,"177.csv","","null","resources/maskTrios/BT4B.jpg","null","",NA,NA,NA,NA,""
"image-keyboard-response",77,129966,"0.0-4.21-2.21","wrqvq0tk9bzen12",752,"177.csv","","null","resources/images/coin2.png","null","",NA,NA,NA,NA,""
"image-keyboard-response",78,130302,"0.0-4.22-0.22","wrqvq0tk9bzen12",752,"177.csv","","335","resources/trios/L1T4A3.jpg","38","restless",0.2,0.6,0.8,0.870711622750416,"false"
"image-keyboard-response",79,130704,"0.0-4.22-1.22","wrqvq0tk9bzen12",752,"177.csv","","null","resources/maskTrios/BT4B.jpg","null","",NA,NA,NA,NA,""
"image-keyboard-response",80,131915,"0.0-4.22-2.22","wrqvq0tk9bzen12",752,"177.csv","","null","resources/images/fishbone.png","null","",NA,NA,NA,NA,""
"image-keyboard-response",81,132608,"0.0-4.23-0.23","wrqvq0tk9bzen12",752,"177.csv","","693","resources/trios/L1T4A3.jpg","37","restless",0.2,0.6,0.9,0.348727857861223,"false"
"image-keyboard-response",82,133018,"0.0-4.23-1.23","wrqvq0tk9bzen12",752,"177.csv","","null","resources/maskTrios/L1BB.jpg","null","",NA,NA,NA,NA,""
"image-keyboard-response",83,134222,"0.0-4.23-2.23","wrqvq0tk9bzen12",752,"177.csv","","null","resources/images/fishbone.png","null","",NA,NA,NA,NA,""
"image-keyboard-response",84,134501,"0.0-4.24-0.24","wrqvq0tk9bzen12",752,"177.csv","","278","resources/trios/L1T4A3.jpg","39","restless",0.2,0.6,0.9,0.165106525492807,"true"
"image-keyboard-response",85,134912,"0.0-4.24-1.24","wrqvq0tk9bzen12",752,"177.csv","","null","resources/maskTrios/BBA3.jpg","null","",NA,NA,NA,NA,""
"image-keyboard-response",86,136125,"0.0-4.24-2.24","wrqvq0tk9bzen12",752,"177.csv","","null","resources/images/coin2.png","null","",NA,NA,NA,NA,""
"image-keyboard-response",87,136339,"0.0-4.25-0.25","wrqvq0tk9bzen12",752,"177.csv","","214","resources/trios/L1T4A3.jpg","39","restless",0.2,0.6,0.9,0.470109048016634,"true"
"image-keyboard-response",88,136754,"0.0-4.25-1.25","wrqvq0tk9bzen12",752,"177.csv","","null","resources/maskTrios/BBA3.jpg","null","",NA,NA,NA,NA,""
"image-keyboard-response",89,137966,"0.0-4.25-2.25","wrqvq0tk9bzen12",752,"177.csv","","null","resources/images/coin2.png","null","",NA,NA,NA,NA,""
"image-keyboard-response",90,138012,"0.0-4.26-0.26","wrqvq0tk9bzen12",752,"177.csv","","45","resources/trios/L1T4A3.jpg","39","restless",0.2,0.6,0.9,0.247154866269036,"true"
"image-keyboard-response",91,138423,"0.0-4.26-1.26","wrqvq0tk9bzen12",752,"177.csv","","null","resources/maskTrios/BBA3.jpg","null","",NA,NA,NA,NA,""
"image-keyboard-response",92,139640,"0.0-4.26-2.26","wrqvq0tk9bzen12",752,"177.csv","","null","resources/images/coin2.png","null","",NA,NA,NA,NA,""
"image-keyboard-response",93,139845,"0.0-4.27-0.27","wrqvq0tk9bzen12",752,"177.csv","","203","resources/trios/L1T4A3.jpg","39","restless",0.2,0.6,0.8,0.57303002436445,"true"
"image-keyboard-response",94,140246,"0.0-4.27-1.27","wrqvq0tk9bzen12",752,"177.csv","","null","resources/maskTrios/BBA3.jpg","null","",NA,NA,NA,NA,""
"image-keyboard-response",95,141448,"0.0-4.27-2.27","wrqvq0tk9bzen12",752,"177.csv","","null","resources/images/coin2.png","null","",NA,NA,NA,NA,""
"image-keyboard-response",96,141679,"0.0-4.28-0.28","wrqvq0tk9bzen12",752,"177.csv","","230","resources/trios/L1T4A3.jpg","39","restless",0.2,0.6,0.8,0.530289327493789,"true"
"image-keyboard-response",97,142087,"0.0-4.28-1.28","wrqvq0tk9bzen12",752,"177.csv","","null","resources/maskTrios/BBA3.jpg","null","",NA,NA,NA,NA,""
"image-keyboard-response",98,143291,"0.0-4.28-2.28","wrqvq0tk9bzen12",752,"177.csv","","null","resources/images/coin2.png","null","",NA,NA,NA,NA,""
"image-keyboard-response",99,143486,"0.0-4.29-0.29","wrqvq0tk9bzen12",752,"177.csv","","195","resources/trios/L1T4A3.jpg","39","restless",0.1,0.6,0.8,0.982042040885924,"false"
"image-keyboard-response",100,143894,"0.0-4.29-1.29","wrqvq0tk9bzen12",752,"177.csv","","null","resources/maskTrios/BBA3.jpg","null","",NA,NA,NA,NA,""
"image-keyboard-response",101,145095,"0.0-4.29-2.29","wrqvq0tk9bzen12",752,"177.csv","","null","resources/images/fishbone.png","null","",NA,NA,NA,NA,""
"image-keyboard-response",102,145755,"0.0-4.30-0.30","wrqvq0tk9bzen12",752,"177.csv","","659","resources/trios/L1T4A3.jpg","38","restless",0.1,0.6,0.8,0.132246903406997,"true"
"image-keyboard-response",103,146169,"0.0-4.30-1.30","wrqvq0tk9bzen12",752,"177.csv","","null","resources/maskTrios/BT4B.jpg","null","",NA,NA,NA,NA,""
"image-keyboard-response",104,147383,"0.0-4.30-2.30","wrqvq0tk9bzen12",752,"177.csv","","null","resources/images/coin2.png","null","",NA,NA,NA,NA,""
"image-keyboard-response",105,148398,"0.0-4.31-0.31","wrqvq0tk9bzen12",752,"177.csv","","1015","resources/trios/L1T4A3.jpg","38","restless",0.2,0.6,0.8,0.488401813825631,"true"
"image-keyboard-response",106,148813,"0.0-4.31-1.31","wrqvq0tk9bzen12",752,"177.csv","","null","resources/maskTrios/BT4B.jpg","null","",NA,NA,NA,NA,""
"image-keyboard-response",107,150017,"0.0-4.31-2.31","wrqvq0tk9bzen12",752,"177.csv","","null","resources/images/coin2.png","null","",NA,NA,NA,NA,""
"image-keyboard-response",108,150320,"0.0-4.32-0.32","wrqvq0tk9bzen12",752,"177.csv","","302","resources/trios/L1T4A3.jpg","38","restless",0.2,0.6,0.7,0.892976794211936,"false"
"image-keyboard-response",109,150734,"0.0-4.32-1.32","wrqvq0tk9bzen12",752,"177.csv","","null","resources/maskTrios/BT4B.jpg","null","",NA,NA,NA,NA,""
"image-keyboard-response",110,151943,"0.0-4.32-2.32","wrqvq0tk9bzen12",752,"177.csv","","null","resources/images/fishbone.png","null","",NA,NA,NA,NA,""
"image-keyboard-response",111,152319,"0.0-4.33-0.33","wrqvq0tk9bzen12",752,"177.csv","","374","resources/trios/L1T4A3.jpg","37","restless",0.3,0.6,0.7,0.580630553988865,"false"
"image-keyboard-response",112,152723,"0.0-4.33-1.33","wrqvq0tk9bzen12",752,"177.csv","","null","resources/maskTrios/L1BB.jpg","null","",NA,NA,NA,NA,""
"image-keyboard-response",113,153927,"0.0-4.33-2.33","wrqvq0tk9bzen12",752,"177.csv","","null","resources/images/fishbone.png","null","",NA,NA,NA,NA,""
"image-keyboard-response",114,154198,"0.0-4.34-0.34","wrqvq0tk9bzen12",752,"177.csv","","270","resources/trios/L1T4A3.jpg","39","restless",0.3,0.6,0.7,0.693227658649933,"true"
"image-keyboard-response",115,154605,"0.0-4.34-1.34","wrqvq0tk9bzen12",752,"177.csv","","null","resources/maskTrios/BBA3.jpg","null","",NA,NA,NA,NA,""
"image-keyboard-response",116,155805,"0.0-4.34-2.34","wrqvq0tk9bzen12",752,"177.csv","","null","resources/images/coin2.png","null","",NA,NA,NA,NA,""
"image-keyboard-response",117,156057,"0.0-4.35-0.35","wrqvq0tk9bzen12",752,"177.csv","","250","resources/trios/L1T4A3.jpg","39","restless",0.4,0.6,0.7,0.618598341493767,"true"
"image-keyboard-response",118,156458,"0.0-4.35-1.35","wrqvq0tk9bzen12",752,"177.csv","","null","resources/maskTrios/BBA3.jpg","null","",NA,NA,NA,NA,""
"image-keyboard-response",119,157662,"0.0-4.35-2.35","wrqvq0tk9bzen12",752,"177.csv","","null","resources/images/coin2.png","null","",NA,NA,NA,NA,""
"image-keyboard-response",120,157940,"0.0-4.36-0.36","wrqvq0tk9bzen12",752,"177.csv","","277","resources/trios/L1T4A3.jpg","39","restless",0.4,0.6,0.7,0.428022442950285,"true"
"image-keyboard-response",121,158343,"0.0-4.36-1.36","wrqvq0tk9bzen12",752,"177.csv","","null","resources/maskTrios/BBA3.jpg","null","",NA,NA,NA,NA,""
"image-keyboard-response",122,159687,"0.0-4.36-2.36","wrqvq0tk9bzen12",752,"177.csv","","null","resources/images/coin2.png","null","",NA,NA,NA,NA,""
"image-keyboard-response",123,159937,"0.0-4.37-0.37","wrqvq0tk9bzen12",752,"177.csv","","247","resources/trios/L1T4A3.jpg","39","restless",0.5,0.6,0.6,0.604083228828686,"false"
"image-keyboard-response",124,160349,"0.0-4.37-1.37","wrqvq0tk9bzen12",752,"177.csv","","null","resources/maskTrios/BBA3.jpg","null","",NA,NA,NA,NA,""
"image-keyboard-response",125,161697,"0.0-4.37-2.37","wrqvq0tk9bzen12",752,"177.csv","","null","resources/images/fishbone.png","null","",NA,NA,NA,NA,""
"image-keyboard-response",126,161949,"0.0-4.38-0.38","wrqvq0tk9bzen12",752,"177.csv","","251","resources/trios/L1T4A3.jpg","37","restless",0.5,0.6,0.6,0.317799896289424,"true"
"image-keyboard-response",127,162352,"0.0-4.38-1.38","wrqvq0tk9bzen12",752,"177.csv","","null","resources/maskTrios/L1BB.jpg","null","",NA,NA,NA,NA,""
"image-keyboard-response",128,163716,"0.0-4.38-2.38","wrqvq0tk9bzen12",752,"177.csv","","null","resources/images/coin2.png","null","",NA,NA,NA,NA,""
"image-keyboard-response",129,163959,"0.0-4.39-0.39","wrqvq0tk9bzen12",752,"177.csv","","243","resources/trios/L1T4A3.jpg","37","restless",0.5,0.6,0.6,0.286118733268001,"true"
"image-keyboard-response",130,164373,"0.0-4.39-1.39","wrqvq0tk9bzen12",752,"177.csv","","null","resources/maskTrios/L1BB.jpg","null","",NA,NA,NA,NA,""
"image-keyboard-response",131,165723,"0.0-4.39-2.39","wrqvq0tk9bzen12",752,"177.csv","","null","resources/images/coin2.png","null","",NA,NA,NA,NA,""
"image-keyboard-response",132,165955,"0.0-4.40-0.40","wrqvq0tk9bzen12",752,"177.csv","","231","resources/trios/L1T4A3.jpg","37","restless",0.4,0.6,0.6,0.355283576751125,"true"
"image-keyboard-response",133,166367,"0.0-4.40-1.40","wrqvq0tk9bzen12",752,"177.csv","","null","resources/maskTrios/L1BB.jpg","null","",NA,NA,NA,NA,""
"image-keyboard-response",134,167584,"0.0-4.40-2.40","wrqvq0tk9bzen12",752,"177.csv","","null","resources/images/coin2.png","null","",NA,NA,NA,NA,""
"image-keyboard-response",135,167838,"0.0-4.41-0.41","wrqvq0tk9bzen12",752,"177.csv","","253","resources/trios/L1T4A3.jpg","37","restless",0.4,0.6,0.6,0.211029145460225,"true"
"image-keyboard-response",136,168248,"0.0-4.41-1.41","wrqvq0tk9bzen12",752,"177.csv","","null","resources/maskTrios/L1BB.jpg","null","",NA,NA,NA,NA,""
"image-keyboard-response",137,169453,"0.0-4.41-2.41","wrqvq0tk9bzen12",752,"177.csv","","null","resources/images/coin2.png","null","",NA,NA,NA,NA,""
"image-keyboard-response",138,169689,"0.0-4.42-0.42","wrqvq0tk9bzen12",752,"177.csv","","237","resources/trios/L1T4A3.jpg","37","restless",0.4,0.6,0.6,0.722440421256909,"false"
"image-keyboard-response",139,170101,"0.0-4.42-1.42","wrqvq0tk9bzen12",752,"177.csv","","null","resources/maskTrios/L1BB.jpg","null","",NA,NA,NA,NA,""
"image-keyboard-response",140,171315,"0.0-4.42-2.42","wrqvq0tk9bzen12",752,"177.csv","","null","resources/images/fishbone.png","null","",NA,NA,NA,NA,""
"image-keyboard-response",141,171586,"0.0-4.43-0.43","wrqvq0tk9bzen12",752,"177.csv","","268","resources/trios/L1T4A3.jpg","38","restless",0.4,0.6,0.5,0.731951970054009,"false"
"image-keyboard-response",142,171987,"0.0-4.43-1.43","wrqvq0tk9bzen12",752,"177.csv","","null","resources/maskTrios/BT4B.jpg","null","",NA,NA,NA,NA,""
"image-keyboard-response",143,173203,"0.0-4.43-2.43","wrqvq0tk9bzen12",752,"177.csv","","null","resources/images/fishbone.png","null","",NA,NA,NA,NA,""
"image-keyboard-response",144,173296,"0.0-4.44-0.44","wrqvq0tk9bzen12",752,"177.csv","","92","resources/trios/L1T4A3.jpg","39","restless",0.5,0.6,0.5,0.455013476297923,"true"
"image-keyboard-response",145,173710,"0.0-4.44-1.44","wrqvq0tk9bzen12",752,"177.csv","","null","resources/maskTrios/BBA3.jpg","null","",NA,NA,NA,NA,""
"image-keyboard-response",146,174921,"0.0-4.44-2.44","wrqvq0tk9bzen12",752,"177.csv","","null","resources/images/coin2.png","null","",NA,NA,NA,NA,""
"image-keyboard-response",147,175065,"0.0-4.45-0.45","wrqvq0tk9bzen12",752,"177.csv","","144","resources/trios/L1T4A3.jpg","39","restless",0.5,0.6,0.5,0.401684874850126,"true"
"image-keyboard-response",148,175481,"0.0-4.45-1.45","wrqvq0tk9bzen12",752,"177.csv","","null","resources/maskTrios/BBA3.jpg","null","",NA,NA,NA,NA,""
"image-keyboard-response",149,176682,"0.0-4.45-2.45","wrqvq0tk9bzen12",752,"177.csv","","null","resources/images/coin2.png","null","",NA,NA,NA,NA,""
"image-keyboard-response",150,176964,"0.0-4.46-0.46","wrqvq0tk9bzen12",752,"177.csv","","282","resources/trios/L1T4A3.jpg","39","restless",0.5,0.6,0.5,0.751822205723357,"false"
"image-keyboard-response",151,177365,"0.0-4.46-1.46","wrqvq0tk9bzen12",752,"177.csv","","null","resources/maskTrios/BBA3.jpg","null","",NA,NA,NA,NA,""
"image-keyboard-response",152,178572,"0.0-4.46-2.46","wrqvq0tk9bzen12",752,"177.csv","","null","resources/images/fishbone.png","null","",NA,NA,NA,NA,""
"image-keyboard-response",153,178791,"0.0-4.47-0.47","wrqvq0tk9bzen12",752,"177.csv","","219","resources/trios/L1T4A3.jpg","38","restless",0.5,0.6,0.5,0.838071053954375,"false"
"image-keyboard-response",154,179200,"0.0-4.47-1.47","wrqvq0tk9bzen12",752,"177.csv","","null","resources/maskTrios/BT4B.jpg","null","",NA,NA,NA,NA,""
"image-keyboard-response",155,180414,"0.0-4.47-2.47","wrqvq0tk9bzen12",752,"177.csv","","null","resources/images/fishbone.png","null","",NA,NA,NA,NA,""
"image-keyboard-response",156,180517,"0.0-4.48-0.48","wrqvq0tk9bzen12",752,"177.csv","","103","resources/trios/L1T4A3.jpg","37","restless",0.5,0.5,0.5,0.672286345736215,"false"
"image-keyboard-response",157,180928,"0.0-4.48-1.48","wrqvq0tk9bzen12",752,"177.csv","","null","resources/maskTrios/L1BB.jpg","null","",NA,NA,NA,NA,""
"image-keyboard-response",158,182133,"0.0-4.48-2.48","wrqvq0tk9bzen12",752,"177.csv","","null","resources/images/fishbone.png","null","",NA,NA,NA,NA,""
"image-keyboard-response",159,182586,"0.0-4.49-0.49","wrqvq0tk9bzen12",752,"177.csv","","454","resources/trios/L1T4A3.jpg","38","restless",0.5,0.6,0.5,0.480585145947402,"true"
"image-keyboard-response",160,182989,"0.0-4.49-1.49","wrqvq0tk9bzen12",752,"177.csv","","null","resources/maskTrios/BT4B.jpg","null","",NA,NA,NA,NA,""
"image-keyboard-response",161,184192,"0.0-4.49-2.49","wrqvq0tk9bzen12",752,"177.csv","","null","resources/images/coin2.png","null","",NA,NA,NA,NA,""
"image-keyboard-response",162,184417,"0.0-4.50-0.50","wrqvq0tk9bzen12",752,"177.csv","","224","resources/trios/L1T4A3.jpg","38","restless",0.5,0.6,0.5,0.0442028258355963,"true"
"image-keyboard-response",163,184832,"0.0-4.50-1.50","wrqvq0tk9bzen12",752,"177.csv","","null","resources/maskTrios/BT4B.jpg","null","",NA,NA,NA,NA,""
"image-keyboard-response",164,186037,"0.0-4.50-2.50","wrqvq0tk9bzen12",752,"177.csv","","null","resources/images/coin2.png","null","",NA,NA,NA,NA,""
"image-keyboard-response",165,186280,"0.0-4.51-0.51","wrqvq0tk9bzen12",752,"177.csv","","242","resources/trios/L1T4A3.jpg","38","restless",0.5,0.6,0.5,0.942952644602508,"false"
"image-keyboard-response",166,186682,"0.0-4.51-1.51","wrqvq0tk9bzen12",752,"177.csv","","null","resources/maskTrios/BT4B.jpg","null","",NA,NA,NA,NA,""
"image-keyboard-response",167,187892,"0.0-4.51-2.51","wrqvq0tk9bzen12",752,"177.csv","","null","resources/images/fishbone.png","null","",NA,NA,NA,NA,""
"image-keyboard-response",168,188130,"0.0-4.52-0.52","wrqvq0tk9bzen12",752,"177.csv","","237","resources/trios/L1T4A3.jpg","39","restless",0.5,0.6,0.4,0.482559693346094,"false"
"image-keyboard-response",169,188539,"0.0-4.52-1.52","wrqvq0tk9bzen12",752,"177.csv","","null","resources/maskTrios/BBA3.jpg","null","",NA,NA,NA,NA,""
"image-keyboard-response",170,189743,"0.0-4.52-2.52","wrqvq0tk9bzen12",752,"177.csv","","null","resources/images/fishbone.png","null","",NA,NA,NA,NA,""
"image-keyboard-response",171,189814,"0.0-4.53-0.53","wrqvq0tk9bzen12",752,"177.csv","","69","resources/trios/L1T4A3.jpg","37","restless",0.5,0.6,0.5,0.627270287277947,"false"
"image-keyboard-response",172,190215,"0.0-4.53-1.53","wrqvq0tk9bzen12",752,"177.csv","","null","resources/maskTrios/L1BB.jpg","null","",NA,NA,NA,NA,""
"image-keyboard-response",173,191423,"0.0-4.53-2.53","wrqvq0tk9bzen12",752,"177.csv","","null","resources/images/fishbone.png","null","",NA,NA,NA,NA,""
"image-keyboard-response",174,191872,"0.0-4.54-0.54","wrqvq0tk9bzen12",752,"177.csv","","449","resources/trios/L1T4A3.jpg","38","restless",0.5,0.6,0.5,0.0286302531476974,"true"
"image-keyboard-response",175,192281,"0.0-4.54-1.54","wrqvq0tk9bzen12",752,"177.csv","","null","resources/maskTrios/BT4B.jpg","null","",NA,NA,NA,NA,""
"image-keyboard-response",176,193485,"0.0-4.54-2.54","wrqvq0tk9bzen12",752,"177.csv","","null","resources/images/coin2.png","null","",NA,NA,NA,NA,""
"image-keyboard-response",177,193857,"0.0-4.55-0.55","wrqvq0tk9bzen12",752,"177.csv","","372","resources/trios/L1T4A3.jpg","38","restless",0.5,0.5,0.6,0.0543316723333838,"true"
"image-keyboard-response",178,194266,"0.0-4.55-1.55","wrqvq0tk9bzen12",752,"177.csv","","null","resources/maskTrios/BT4B.jpg","null","",NA,NA,NA,NA,""
"image-keyboard-response",179,195470,"0.0-4.55-2.55","wrqvq0tk9bzen12",752,"177.csv","","null","resources/images/coin2.png","null","",NA,NA,NA,NA,""
"image-keyboard-response",180,195854,"0.0-4.56-0.56","wrqvq0tk9bzen12",752,"177.csv","","385","resources/trios/L1T4A3.jpg","38","restless",0.5,0.5,0.6,0.831146172978882,"false"
"image-keyboard-response",181,196256,"0.0-4.56-1.56","wrqvq0tk9bzen12",752,"177.csv","","null","resources/maskTrios/BT4B.jpg","null","",NA,NA,NA,NA,""
"image-keyboard-response",182,197469,"0.0-4.56-2.56","wrqvq0tk9bzen12",752,"177.csv","","null","resources/images/fishbone.png","null","",NA,NA,NA,NA,""
"image-keyboard-response",183,197629,"0.0-4.57-0.57","wrqvq0tk9bzen12",752,"177.csv","","161","resources/trios/L1T4A3.jpg","39","restless",0.5,0.5,0.5,0.390634563901936,"true"
"image-keyboard-response",184,198035,"0.0-4.57-1.57","wrqvq0tk9bzen12",752,"177.csv","","null","resources/maskTrios/BBA3.jpg","null","",NA,NA,NA,NA,""
"image-keyboard-response",185,199242,"0.0-4.57-2.57","wrqvq0tk9bzen12",752,"177.csv","","null","resources/images/coin2.png","null","",NA,NA,NA,NA,""
"image-keyboard-response",186,199463,"0.0-4.58-0.58","wrqvq0tk9bzen12",752,"177.csv","","220","resources/trios/L1T4A3.jpg","39","restless",0.5,0.5,0.5,0.754446846904233,"false"
"image-keyboard-response",187,199877,"0.0-4.58-1.58","wrqvq0tk9bzen12",752,"177.csv","","null","resources/maskTrios/BBA3.jpg","null","",NA,NA,NA,NA,""
"image-keyboard-response",188,201079,"0.0-4.58-2.58","wrqvq0tk9bzen12",752,"177.csv","","null","resources/images/fishbone.png","null","",NA,NA,NA,NA,""
"image-keyboard-response",189,201309,"0.0-4.59-0.59","wrqvq0tk9bzen12",752,"177.csv","","230","resources/trios/L1T4A3.jpg","37","restless",0.5,0.5,0.5,0.750719443924069,"false"
"image-keyboard-response",190,201725,"0.0-4.59-1.59","wrqvq0tk9bzen12",752,"177.csv","","null","resources/maskTrios/L1BB.jpg","null","",NA,NA,NA,NA,""
"image-keyboard-response",191,202940,"0.0-4.59-2.59","wrqvq0tk9bzen12",752,"177.csv","","null","resources/images/fishbone.png","null","",NA,NA,NA,NA,""
"image-keyboard-response",192,203196,"0.0-4.60-0.60","wrqvq0tk9bzen12",752,"177.csv","","257","resources/trios/L1T4A3.jpg","38","restless",0.5,0.5,0.5,0.315717457464122,"true"
"image-keyboard-response",193,203599,"0.0-4.60-1.60","wrqvq0tk9bzen12",752,"177.csv","","null","resources/maskTrios/BT4B.jpg","null","",NA,NA,NA,NA,""
"image-keyboard-response",194,204813,"0.0-4.60-2.60","wrqvq0tk9bzen12",752,"177.csv","","null","resources/images/coin2.png","null","",NA,NA,NA,NA,""
"image-keyboard-response",195,205028,"0.0-4.61-0.61","wrqvq0tk9bzen12",752,"177.csv","","214","resources/trios/L1T4A3.jpg","38","restless",0.5,0.5,0.5,0.821780784948312,"false"
"image-keyboard-response",196,205479,"0.0-4.61-1.61","wrqvq0tk9bzen12",752,"177.csv","","null","resources/maskTrios/BT4B.jpg","null","",NA,NA,NA,NA,""
"image-keyboard-response",197,206692,"0.0-4.61-2.61","wrqvq0tk9bzen12",752,"177.csv","","null","resources/images/fishbone.png","null","",NA,NA,NA,NA,""
"image-keyboard-response",198,206911,"0.0-4.62-0.62","wrqvq0tk9bzen12",752,"177.csv","","219","resources/trios/L1T4A3.jpg","39","restless",0.5,0.5,0.5,0.823373747872553,"false"
"image-keyboard-response",199,207324,"0.0-4.62-1.62","wrqvq0tk9bzen12",752,"177.csv","","null","resources/maskTrios/BBA3.jpg","null","",NA,NA,NA,NA,""
"image-keyboard-response",200,208537,"0.0-4.62-2.62","wrqvq0tk9bzen12",752,"177.csv","","null","resources/images/fishbone.png","null","",NA,NA,NA,NA,""
"image-keyboard-response",201,208764,"0.0-4.63-0.63","wrqvq0tk9bzen12",752,"177.csv","","226","resources/trios/L1T4A3.jpg","38","restless",0.5,0.5,0.5,0.833332561906606,"false"
"image-keyboard-response",202,209179,"0.0-4.63-1.63","wrqvq0tk9bzen12",752,"177.csv","","null","resources/maskTrios/BT4B.jpg","null","",NA,NA,NA,NA,""
"image-keyboard-response",203,210486,"0.0-4.63-2.63","wrqvq0tk9bzen12",752,"177.csv","","null","resources/images/fishbone.png","null","",NA,NA,NA,NA,""
"image-keyboard-response",204,210709,"0.0-4.64-0.64","wrqvq0tk9bzen12",752,"177.csv","","222","resources/trios/L1T4A3.jpg","37","restless",0.5,0.5,0.5,0.952158166793289,"false"
"image-keyboard-response",205,211118,"0.0-4.64-1.64","wrqvq0tk9bzen12",752,"177.csv","","null","resources/maskTrios/L1BB.jpg","null","",NA,NA,NA,NA,""
"image-keyboard-response",206,212332,"0.0-4.64-2.64","wrqvq0tk9bzen12",752,"177.csv","","null","resources/images/fishbone.png","null","",NA,NA,NA,NA,""
"image-keyboard-response",207,212585,"0.0-4.65-0.65","wrqvq0tk9bzen12",752,"177.csv","","253","resources/trios/L1T4A3.jpg","38","restless",0.5,0.5,0.5,0.773765647106239,"false"
"image-keyboard-response",208,212995,"0.0-4.65-1.65","wrqvq0tk9bzen12",752,"177.csv","","null","resources/maskTrios/BT4B.jpg","null","",NA,NA,NA,NA,""
"image-keyboard-response",209,214205,"0.0-4.65-2.65","wrqvq0tk9bzen12",752,"177.csv","","null","resources/images/fishbone.png","null","",NA,NA,NA,NA,""
"image-keyboard-response",210,214256,"0.0-4.66-0.66","wrqvq0tk9bzen12",752,"177.csv","","52","resources/trios/L1T4A3.jpg","39","restless",0.5,0.5,0.5,0.349795002447311,"true"
"image-keyboard-response",211,214659,"0.0-4.66-1.66","wrqvq0tk9bzen12",752,"177.csv","","null","resources/maskTrios/BBA3.jpg","null","",NA,NA,NA,NA,""
"image-keyboard-response",212,215875,"0.0-4.66-2.66","wrqvq0tk9bzen12",752,"177.csv","","null","resources/images/coin2.png","null","",NA,NA,NA,NA,""
"image-keyboard-response",213,216235,"0.0-4.67-0.67","wrqvq0tk9bzen12",752,"177.csv","","360","resources/trios/L1T4A3.jpg","39","restless",0.5,0.6,0.4,0.92932745299221,"false"
"image-keyboard-response",214,216651,"0.0-4.67-1.67","wrqvq0tk9bzen12",752,"177.csv","","null","resources/maskTrios/BBA3.jpg","null","",NA,NA,NA,NA,""
"image-keyboard-response",215,217887,"0.0-4.67-2.67","wrqvq0tk9bzen12",752,"177.csv","","null","resources/images/fishbone.png","null","",NA,NA,NA,NA,""
"image-keyboard-response",216,218100,"0.0-4.68-0.68","wrqvq0tk9bzen12",752,"177.csv","","212","resources/trios/L1T4A3.jpg","37","restless",0.5,0.6,0.4,0.393746262009912,"true"
"image-keyboard-response",217,218505,"0.0-4.68-1.68","wrqvq0tk9bzen12",752,"177.csv","","null","resources/maskTrios/L1BB.jpg","null","",NA,NA,NA,NA,""
"image-keyboard-response",218,219718,"0.0-4.68-2.68","wrqvq0tk9bzen12",752,"177.csv","","null","resources/images/coin2.png","null","",NA,NA,NA,NA,""
"image-keyboard-response",219,220533,"0.0-4.69-0.69","wrqvq0tk9bzen12",752,"177.csv","","815","resources/trios/L1T4A3.jpg","37","restless",0.5,0.6,0.4,0.347464032572313,"true"
"image-keyboard-response",220,220941,"0.0-4.69-1.69","wrqvq0tk9bzen12",752,"177.csv","","null","resources/maskTrios/L1BB.jpg","null","",NA,NA,NA,NA,""
"image-keyboard-response",221,222149,"0.0-4.69-2.69","wrqvq0tk9bzen12",752,"177.csv","","null","resources/images/coin2.png","null","",NA,NA,NA,NA,""
"image-keyboard-response",222,222390,"0.0-4.70-0.70","wrqvq0tk9bzen12",752,"177.csv","","240","resources/trios/L1T4A3.jpg","37","restless",0.5,0.6,0.4,0.41193908982112,"true"
"image-keyboard-response",223,222794,"0.0-4.70-1.70","wrqvq0tk9bzen12",752,"177.csv","","null","resources/maskTrios/L1BB.jpg","null","",NA,NA,NA,NA,""
"image-keyboard-response",224,223995,"0.0-4.70-2.70","wrqvq0tk9bzen12",752,"177.csv","","null","resources/images/coin2.png","null","",NA,NA,NA,NA,""
"image-keyboard-response",225,224246,"0.0-4.71-0.71","wrqvq0tk9bzen12",752,"177.csv","","250","resources/trios/L1T4A3.jpg","37","restless",0.6,0.6,0.5,0.749187810601986,"false"
"image-keyboard-response",226,224657,"0.0-4.71-1.71","wrqvq0tk9bzen12",752,"177.csv","","null","resources/maskTrios/L1BB.jpg","null","",NA,NA,NA,NA,""
"image-keyboard-response",227,225893,"0.0-4.71-2.71","wrqvq0tk9bzen12",752,"177.csv","","null","resources/images/fishbone.png","null","",NA,NA,NA,NA,""
"image-keyboard-response",228,226091,"0.0-4.72-0.72","wrqvq0tk9bzen12",752,"177.csv","","198","resources/trios/L1T4A3.jpg","39","restless",0.6,0.6,0.5,0.792368921700249,"false"
"image-keyboard-response",229,226502,"0.0-4.72-1.72","wrqvq0tk9bzen12",752,"177.csv","","null","resources/maskTrios/BBA3.jpg","null","",NA,NA,NA,NA,""
"image-keyboard-response",230,227706,"0.0-4.72-2.72","wrqvq0tk9bzen12",752,"177.csv","","null","resources/images/fishbone.png","null","",NA,NA,NA,NA,""
"image-keyboard-response",231,227895,"0.0-4.73-0.73","wrqvq0tk9bzen12",752,"177.csv","","188","resources/trios/L1T4A3.jpg","38","restless",0.6,0.6,0.5,0.735870824724573,"false"
"image-keyboard-response",232,228305,"0.0-4.73-1.73","wrqvq0tk9bzen12",752,"177.csv","","null","resources/maskTrios/BT4B.jpg","null","",NA,NA,NA,NA,""
"image-keyboard-response",233,229508,"0.0-4.73-2.73","wrqvq0tk9bzen12",752,"177.csv","","null","resources/images/fishbone.png","null","",NA,NA,NA,NA,""
"image-keyboard-response",234,229786,"0.0-4.74-0.74","wrqvq0tk9bzen12",752,"177.csv","","277","resources/trios/L1T4A3.jpg","37","restless",0.6,0.6,0.5,0.490845083849341,"true"
"image-keyboard-response",235,230189,"0.0-4.74-1.74","wrqvq0tk9bzen12",752,"177.csv","","null","resources/maskTrios/L1BB.jpg","null","",NA,NA,NA,NA,""
"image-keyboard-response",236,231404,"0.0-4.74-2.74","wrqvq0tk9bzen12",752,"177.csv","","null","resources/images/coin2.png","null","",NA,NA,NA,NA,""
"image-keyboard-response",237,231845,"0.0-4.75-0.75","wrqvq0tk9bzen12",752,"177.csv","","440","resources/trios/L1T4A3.jpg","37","restless",0.6,0.6,0.5,0.802937658086671,"false"
"image-keyboard-response",238,232253,"0.0-4.75-1.75","wrqvq0tk9bzen12",752,"177.csv","","null","resources/maskTrios/L1BB.jpg","null","",NA,NA,NA,NA,""
"image-keyboard-response",239,233461,"0.0-4.75-2.75","wrqvq0tk9bzen12",752,"177.csv","","null","resources/images/fishbone.png","null","",NA,NA,NA,NA,""
"image-keyboard-response",240,233496,"0.0-4.76-0.76","wrqvq0tk9bzen12",752,"177.csv","","36","resources/trios/L1T4A3.jpg","39","restless",0.6,0.6,0.5,0.35185834196325,"true"
"image-keyboard-response",241,233910,"0.0-4.76-1.76","wrqvq0tk9bzen12",752,"177.csv","","null","resources/maskTrios/BBA3.jpg","null","",NA,NA,NA,NA,""
"image-keyboard-response",242,235116,"0.0-4.76-2.76","wrqvq0tk9bzen12",752,"177.csv","","null","resources/images/coin2.png","null","",NA,NA,NA,NA,""
"image-keyboard-response",243,235332,"0.0-4.77-0.77","wrqvq0tk9bzen12",752,"177.csv","","216","resources/trios/L1T4A3.jpg","39","restless",0.6,0.6,0.5,0.338467443947854,"true"
"image-keyboard-response",244,235744,"0.0-4.77-1.77","wrqvq0tk9bzen12",752,"177.csv","","null","resources/maskTrios/BBA3.jpg","null","",NA,NA,NA,NA,""
"image-keyboard-response",245,236959,"0.0-4.77-2.77","wrqvq0tk9bzen12",752,"177.csv","","null","resources/images/coin2.png","null","",NA,NA,NA,NA,""
"image-keyboard-response",246,237181,"0.0-4.78-0.78","wrqvq0tk9bzen12",752,"177.csv","","221","resources/trios/L1T4A3.jpg","39","restless",0.6,0.6,0.5,0.266689541170906,"true"
"image-keyboard-response",247,237589,"0.0-4.78-1.78","wrqvq0tk9bzen12",752,"177.csv","","null","resources/maskTrios/BBA3.jpg","null","",NA,NA,NA,NA,""
"image-keyboard-response",248,238795,"0.0-4.78-2.78","wrqvq0tk9bzen12",752,"177.csv","","null","resources/images/coin2.png","null","",NA,NA,NA,NA,""
"image-keyboard-response",249,239002,"0.0-4.79-0.79","wrqvq0tk9bzen12",752,"177.csv","","206","resources/trios/L1T4A3.jpg","39","restless",0.6,0.6,0.5,0.13479943823112,"true"
"image-keyboard-response",250,239407,"0.0-4.79-1.79","wrqvq0tk9bzen12",752,"177.csv","","null","resources/maskTrios/BBA3.jpg","null","",NA,NA,NA,NA,""
"image-keyboard-response",251,240611,"0.0-4.79-2.79","wrqvq0tk9bzen12",752,"177.csv","","null","resources/images/coin2.png","null","",NA,NA,NA,NA,""
"image-keyboard-response",252,240847,"0.0-4.80-0.80","wrqvq0tk9bzen12",752,"177.csv","","236","resources/trios/L1T4A3.jpg","39","restless",0.6,0.6,0.5,0.212176247602123,"true"
"image-keyboard-response",253,241253,"0.0-4.80-1.80","wrqvq0tk9bzen12",752,"177.csv","","null","resources/maskTrios/BBA3.jpg","null","",NA,NA,NA,NA,""
"image-keyboard-response",254,242457,"0.0-4.80-2.80","wrqvq0tk9bzen12",752,"177.csv","","null","resources/images/coin2.png","null","",NA,NA,NA,NA,""
"image-keyboard-response",255,242641,"0.0-4.81-0.81","wrqvq0tk9bzen12",752,"177.csv","","183","resources/trios/L1T4A3.jpg","39","restless",0.6,0.6,0.5,0.19833081224774,"true"
"image-keyboard-response",256,243056,"0.0-4.81-1.81","wrqvq0tk9bzen12",752,"177.csv","","null","resources/maskTrios/BBA3.jpg","null","",NA,NA,NA,NA,""
"image-keyboard-response",257,244262,"0.0-4.81-2.81","wrqvq0tk9bzen12",752,"177.csv","","null","resources/images/coin2.png","null","",NA,NA,NA,NA,""
"image-keyboard-response",258,244486,"0.0-4.82-0.82","wrqvq0tk9bzen12",752,"177.csv","","224","resources/trios/L1T4A3.jpg","39","restless",0.6,0.6,0.5,0.4325145831617,"true"
"image-keyboard-response",259,244891,"0.0-4.82-1.82","wrqvq0tk9bzen12",752,"177.csv","","null","resources/maskTrios/BBA3.jpg","null","",NA,NA,NA,NA,""
"image-keyboard-response",260,246105,"0.0-4.82-2.82","wrqvq0tk9bzen12",752,"177.csv","","null","resources/images/coin2.png","null","",NA,NA,NA,NA,""
"image-keyboard-response",261,246285,"0.0-4.83-0.83","wrqvq0tk9bzen12",752,"177.csv","","179","resources/trios/L1T4A3.jpg","39","restless",0.6,0.6,0.4,0.227470333295176,"true"
"image-keyboard-response",262,246699,"0.0-4.83-1.83","wrqvq0tk9bzen12",752,"177.csv","","null","resources/maskTrios/BBA3.jpg","null","",NA,NA,NA,NA,""
"image-keyboard-response",263,247899,"0.0-4.83-2.83","wrqvq0tk9bzen12",752,"177.csv","","null","resources/images/coin2.png","null","",NA,NA,NA,NA,""
"image-keyboard-response",264,247903,"0.0-4.84-0.84","wrqvq0tk9bzen12",752,"177.csv","","3","resources/trios/L1T4A3.jpg","39","restless",0.6,0.6,0.3,0.0813359440463914,"true"
"image-keyboard-response",265,248319,"0.0-4.84-1.84","wrqvq0tk9bzen12",752,"177.csv","","null","resources/maskTrios/BBA3.jpg","null","",NA,NA,NA,NA,""
"image-keyboard-response",266,249524,"0.0-4.84-2.84","wrqvq0tk9bzen12",752,"177.csv","","null","resources/images/coin2.png","null","",NA,NA,NA,NA,""
"image-keyboard-response",267,249735,"0.0-4.85-0.85","wrqvq0tk9bzen12",752,"177.csv","","210","resources/trios/L1T4A3.jpg","39","restless",0.6,0.6,0.3,0.434749932042668,"false"
"image-keyboard-response",268,250137,"0.0-4.85-1.85","wrqvq0tk9bzen12",752,"177.csv","","null","resources/maskTrios/BBA3.jpg","null","",NA,NA,NA,NA,""
"image-keyboard-response",269,251348,"0.0-4.85-2.85","wrqvq0tk9bzen12",752,"177.csv","","null","resources/images/fishbone.png","null","",NA,NA,NA,NA,""
"image-keyboard-response",270,251992,"0.0-4.86-0.86","wrqvq0tk9bzen12",752,"177.csv","","643","resources/trios/L1T4A3.jpg","37","restless",0.6,0.7,0.3,0.658149882042663,"false"
"image-keyboard-response",271,252394,"0.0-4.86-1.86","wrqvq0tk9bzen12",752,"177.csv","","null","resources/maskTrios/L1BB.jpg","null","",NA,NA,NA,NA,""
"image-keyboard-response",272,253597,"0.0-4.86-2.86","wrqvq0tk9bzen12",752,"177.csv","","null","resources/images/fishbone.png","null","",NA,NA,NA,NA,""
"image-keyboard-response",273,253784,"0.0-4.87-0.87","wrqvq0tk9bzen12",752,"177.csv","","186","resources/trios/L1T4A3.jpg","38","restless",0.6,0.7,0.3,0.796476426006026,"false"
"image-keyboard-response",274,254195,"0.0-4.87-1.87","wrqvq0tk9bzen12",752,"177.csv","","null","resources/maskTrios/BT4B.jpg","null","",NA,NA,NA,NA,""
"image-keyboard-response",275,255410,"0.0-4.87-2.87","wrqvq0tk9bzen12",752,"177.csv","","null","resources/images/fishbone.png","null","",NA,NA,NA,NA,""
"image-keyboard-response",276,255489,"0.0-4.88-0.88","wrqvq0tk9bzen12",752,"177.csv","","79","resources/trios/L1T4A3.jpg","39","restless",0.6,0.7,0.3,0.103679838788509,"true"
"image-keyboard-response",277,255898,"0.0-4.88-1.88","wrqvq0tk9bzen12",752,"177.csv","","null","resources/maskTrios/BBA3.jpg","null","",NA,NA,NA,NA,""
"image-keyboard-response",278,257113,"0.0-4.88-2.88","wrqvq0tk9bzen12",752,"177.csv","","null","resources/images/coin2.png","null","",NA,NA,NA,NA,""
"image-keyboard-response",279,257449,"0.0-4.89-0.89","wrqvq0tk9bzen12",752,"177.csv","","335","resources/trios/L1T4A3.jpg","39","restless",0.6,0.7,0.3,0.176769135633839,"true"
"image-keyboard-response",280,257853,"0.0-4.89-1.89","wrqvq0tk9bzen12",752,"177.csv","","null","resources/maskTrios/BBA3.jpg","null","",NA,NA,NA,NA,""
"image-keyboard-response",281,259118,"0.0-4.89-2.89","wrqvq0tk9bzen12",752,"177.csv","","null","resources/images/coin2.png","null","",NA,NA,NA,NA,""
"image-keyboard-response",282,259460,"0.0-4.90-0.90","wrqvq0tk9bzen12",752,"177.csv","","341","resources/trios/L1T4A3.jpg","39","restless",0.6,0.8,0.3,0.0492714522533557,"true"
"image-keyboard-response",283,259870,"0.0-4.90-1.90","wrqvq0tk9bzen12",752,"177.csv","","null","resources/maskTrios/BBA3.jpg","null","",NA,NA,NA,NA,""
"image-keyboard-response",284,261134,"0.0-4.90-2.90","wrqvq0tk9bzen12",752,"177.csv","","null","resources/images/coin2.png","null","",NA,NA,NA,NA,""
"image-keyboard-response",285,261416,"0.0-4.91-0.91","wrqvq0tk9bzen12",752,"177.csv","","283","resources/trios/L1T4A3.jpg","39","restless",0.6,0.8,0.3,0.601347748708573,"false"
"image-keyboard-response",286,261832,"0.0-4.91-1.91","wrqvq0tk9bzen12",752,"177.csv","","null","resources/maskTrios/BBA3.jpg","null","",NA,NA,NA,NA,""
"image-keyboard-response",287,263150,"0.0-4.91-2.91","wrqvq0tk9bzen12",752,"177.csv","","null","resources/images/fishbone.png","null","",NA,NA,NA,NA,""
"image-keyboard-response",288,263396,"0.0-4.92-0.92","wrqvq0tk9bzen12",752,"177.csv","","246","resources/trios/L1T4A3.jpg","38","restless",0.6,0.8,0.2,0.579571105317255,"true"
"image-keyboard-response",289,263796,"0.0-4.92-1.92","wrqvq0tk9bzen12",752,"177.csv","","null","resources/maskTrios/BT4B.jpg","null","",NA,NA,NA,NA,""
"image-keyboard-response",290,265006,"0.0-4.92-2.92","wrqvq0tk9bzen12",752,"177.csv","","null","resources/images/coin2.png","null","",NA,NA,NA,NA,""
"image-keyboard-response",291,265262,"0.0-4.93-0.93","wrqvq0tk9bzen12",752,"177.csv","","254","resources/trios/L1T4A3.jpg","38","restless",0.6,0.8,0.2,0.0340314816091194,"true"
"image-keyboard-response",292,265673,"0.0-4.93-1.93","wrqvq0tk9bzen12",752,"177.csv","","null","resources/maskTrios/BT4B.jpg","null","",NA,NA,NA,NA,""
"image-keyboard-response",293,266879,"0.0-4.93-2.93","wrqvq0tk9bzen12",752,"177.csv","","null","resources/images/coin2.png","null","",NA,NA,NA,NA,""
"image-keyboard-response",294,267099,"0.0-4.94-0.94","wrqvq0tk9bzen12",752,"177.csv","","219","resources/trios/L1T4A3.jpg","38","restless",0.6,0.8,0.2,0.393050938435901,"true"
"image-keyboard-response",295,267501,"0.0-4.94-1.94","wrqvq0tk9bzen12",752,"177.csv","","null","resources/maskTrios/BT4B.jpg","null","",NA,NA,NA,NA,""
"image-keyboard-response",296,268715,"0.0-4.94-2.94","wrqvq0tk9bzen12",752,"177.csv","","null","resources/images/coin2.png","null","",NA,NA,NA,NA,""
"image-keyboard-response",297,269002,"0.0-4.95-0.95","wrqvq0tk9bzen12",752,"177.csv","","287","resources/trios/L1T4A3.jpg","38","restless",0.6,0.8,0.2,0.192240085051749,"true"
"image-keyboard-response",298,269407,"0.0-4.95-1.95","wrqvq0tk9bzen12",752,"177.csv","","null","resources/maskTrios/BT4B.jpg","null","",NA,NA,NA,NA,""
"image-keyboard-response",299,270614,"0.0-4.95-2.95","wrqvq0tk9bzen12",752,"177.csv","","null","resources/images/coin2.png","null","",NA,NA,NA,NA,""
"image-keyboard-response",300,270825,"0.0-4.96-0.96","wrqvq0tk9bzen12",752,"177.csv","","209","resources/trios/L1T4A3.jpg","38","restless",0.6,0.8,0.2,0.008572774270873,"true"
"image-keyboard-response",301,271225,"0.0-4.96-1.96","wrqvq0tk9bzen12",752,"177.csv","","null","resources/maskTrios/BT4B.jpg","null","",NA,NA,NA,NA,""
"image-keyboard-response",302,272428,"0.0-4.96-2.96","wrqvq0tk9bzen12",752,"177.csv","","null","resources/images/coin2.png","null","",NA,NA,NA,NA,""
"image-keyboard-response",303,272553,"0.0-4.97-0.97","wrqvq0tk9bzen12",752,"177.csv","","125","resources/trios/L1T4A3.jpg","38","restless",0.6,0.8,0.2,0.856203441082948,"false"
"image-keyboard-response",304,272960,"0.0-4.97-1.97","wrqvq0tk9bzen12",752,"177.csv","","null","resources/maskTrios/BT4B.jpg","null","",NA,NA,NA,NA,""
"image-keyboard-response",305,274170,"0.0-4.97-2.97","wrqvq0tk9bzen12",752,"177.csv","","null","resources/images/fishbone.png","null","",NA,NA,NA,NA,""
"image-keyboard-response",306,274388,"0.0-4.98-0.98","wrqvq0tk9bzen12",752,"177.csv","","216","resources/trios/L1T4A3.jpg","37","restless",0.6,0.8,0.2,0.859609032193613,"false"
"image-keyboard-response",307,274799,"0.0-4.98-1.98","wrqvq0tk9bzen12",752,"177.csv","","null","resources/maskTrios/L1BB.jpg","null","",NA,NA,NA,NA,""
"image-keyboard-response",308,276001,"0.0-4.98-2.98","wrqvq0tk9bzen12",752,"177.csv","","null","resources/images/fishbone.png","null","",NA,NA,NA,NA,""
"image-keyboard-response",309,276485,"0.0-4.99-0.99","wrqvq0tk9bzen12",752,"177.csv","","483","resources/trios/L1T4A3.jpg","39","restless",0.6,0.8,0.2,0.24721223718265,"false"
"image-keyboard-response",310,276905,"0.0-4.99-1.99","wrqvq0tk9bzen12",752,"177.csv","","null","resources/maskTrios/BBA3.jpg","null","",NA,NA,NA,NA,""
"image-keyboard-response",311,278110,"0.0-4.99-2.99","wrqvq0tk9bzen12",752,"177.csv","","null","resources/images/fishbone.png","null","",NA,NA,NA,NA,""
"image-keyboard-response",312,278327,"0.0-4.100-0.100","wrqvq0tk9bzen12",752,"177.csv","","215","resources/trios/L1T4A3.jpg","38","restless",0.6,0.8,0.2,0.23173706780731,"true"
"image-keyboard-response",313,278729,"0.0-4.100-1.100","wrqvq0tk9bzen12",752,"177.csv","","null","resources/maskTrios/BT4B.jpg","null","",NA,NA,NA,NA,""
"image-keyboard-response",314,279944,"0.0-4.100-2.100","wrqvq0tk9bzen12",752,"177.csv","","null","resources/images/coin2.png","null","",NA,NA,NA,NA,""
"image-keyboard-response",315,280171,"0.0-4.101-0.101","wrqvq0tk9bzen12",752,"177.csv","","227","resources/trios/L1T4A3.jpg","38","restless",0.6,0.7,0.2,0.760128614862317,"false"
"image-keyboard-response",316,280585,"0.0-4.101-1.101","wrqvq0tk9bzen12",752,"177.csv","","null","resources/maskTrios/BT4B.jpg","null","",NA,NA,NA,NA,""
"image-keyboard-response",317,281908,"0.0-4.101-2.101","wrqvq0tk9bzen12",752,"177.csv","","null","resources/images/fishbone.png","null","",NA,NA,NA,NA,""
"image-keyboard-response",318,282115,"0.0-4.102-0.102","wrqvq0tk9bzen12",752,"177.csv","","206","resources/trios/L1T4A3.jpg","37","restless",0.6,0.7,0.2,0.992095707682836,"false"
"image-keyboard-response",319,282519,"0.0-4.102-1.102","wrqvq0tk9bzen12",752,"177.csv","","null","resources/maskTrios/L1BB.jpg","null","",NA,NA,NA,NA,""
"image-keyboard-response",320,283728,"0.0-4.102-2.102","wrqvq0tk9bzen12",752,"177.csv","","null","resources/images/fishbone.png","null","",NA,NA,NA,NA,""
"image-keyboard-response",321,283936,"0.0-4.103-0.103","wrqvq0tk9bzen12",752,"177.csv","","207","resources/trios/L1T4A3.jpg","39","restless",0.6,0.7,0.1,0.759217917076107,"false"
"image-keyboard-response",322,284337,"0.0-4.103-1.103","wrqvq0tk9bzen12",752,"177.csv","","null","resources/maskTrios/BBA3.jpg","null","",NA,NA,NA,NA,""
"image-keyboard-response",323,285550,"0.0-4.103-2.103","wrqvq0tk9bzen12",752,"177.csv","","null","resources/images/fishbone.png","null","",NA,NA,NA,NA,""
"image-keyboard-response",324,285713,"0.0-4.104-0.104","wrqvq0tk9bzen12",752,"177.csv","","162","resources/trios/L1T4A3.jpg","38","restless",0.6,0.7,0.1,0.679476687005548,"true"
"image-keyboard-response",325,286128,"0.0-4.104-1.104","wrqvq0tk9bzen12",752,"177.csv","","null","resources/maskTrios/BT4B.jpg","null","",NA,NA,NA,NA,""
"image-keyboard-response",326,287332,"0.0-4.104-2.104","wrqvq0tk9bzen12",752,"177.csv","","null","resources/images/coin2.png","null","",NA,NA,NA,NA,""
"image-keyboard-response",327,287543,"0.0-4.105-0.105","wrqvq0tk9bzen12",752,"177.csv","","210","resources/trios/L1T4A3.jpg","38","restless",0.6,0.7,0.1,0.142711374061254,"true"
"image-keyboard-response",328,287949,"0.0-4.105-1.105","wrqvq0tk9bzen12",752,"177.csv","","null","resources/maskTrios/BT4B.jpg","null","",NA,NA,NA,NA,""
"image-keyboard-response",329,289153,"0.0-4.105-2.105","wrqvq0tk9bzen12",752,"177.csv","","null","resources/images/coin2.png","null","",NA,NA,NA,NA,""
"image-keyboard-response",330,289410,"0.0-4.106-0.106","wrqvq0tk9bzen12",752,"177.csv","","257","resources/trios/L1T4A3.jpg","38","restless",0.6,0.7,0.1,0.928337192935244,"false"
"image-keyboard-response",331,289814,"0.0-4.106-1.106","wrqvq0tk9bzen12",752,"177.csv","","null","resources/maskTrios/BT4B.jpg","null","",NA,NA,NA,NA,""
"image-keyboard-response",332,291018,"0.0-4.106-2.106","wrqvq0tk9bzen12",752,"177.csv","","null","resources/images/fishbone.png","null","",NA,NA,NA,NA,""
"image-keyboard-response",333,291282,"0.0-4.107-0.107","wrqvq0tk9bzen12",752,"177.csv","","264","resources/trios/L1T4A3.jpg","37","restless",0.6,0.7,0.2,0.776800729342723,"false"
"image-keyboard-response",334,291686,"0.0-4.107-1.107","wrqvq0tk9bzen12",752,"177.csv","","null","resources/maskTrios/L1BB.jpg","null","",NA,NA,NA,NA,""
"image-keyboard-response",335,292888,"0.0-4.107-2.107","wrqvq0tk9bzen12",752,"177.csv","","null","resources/images/fishbone.png","null","",NA,NA,NA,NA,""
"image-keyboard-response",336,292938,"0.0-4.108-0.108","wrqvq0tk9bzen12",752,"177.csv","","49","resources/trios/L1T4A3.jpg","39","restless",0.6,0.7,0.2,0.823201446783519,"false"
"image-keyboard-response",337,293356,"0.0-4.108-1.108","wrqvq0tk9bzen12",752,"177.csv","","null","resources/maskTrios/BBA3.jpg","null","",NA,NA,NA,NA,""
"image-keyboard-response",338,294567,"0.0-4.108-2.108","wrqvq0tk9bzen12",752,"177.csv","","null","resources/images/fishbone.png","null","",NA,NA,NA,NA,""
"image-keyboard-response",339,294705,"0.0-4.109-0.109","wrqvq0tk9bzen12",752,"177.csv","","138","resources/trios/L1T4A3.jpg","38","restless",0.6,0.7,0.2,0.910922223334342,"false"
"image-keyboard-response",340,295119,"0.0-4.109-1.109","wrqvq0tk9bzen12",752,"177.csv","","null","resources/maskTrios/BT4B.jpg","null","",NA,NA,NA,NA,""
"image-keyboard-response",341,296322,"0.0-4.109-2.109","wrqvq0tk9bzen12",752,"177.csv","","null","resources/images/fishbone.png","null","",NA,NA,NA,NA,""
"image-keyboard-response",342,296558,"0.0-4.110-0.110","wrqvq0tk9bzen12",752,"177.csv","","235","resources/trios/L1T4A3.jpg","37","restless",0.6,0.7,0.2,0.46997943680111,"true"
"image-keyboard-response",343,296964,"0.0-4.110-1.110","wrqvq0tk9bzen12",752,"177.csv","","null","resources/maskTrios/L1BB.jpg","null","",NA,NA,NA,NA,""
"image-keyboard-response",344,298172,"0.0-4.110-2.110","wrqvq0tk9bzen12",752,"177.csv","","null","resources/images/coin2.png","null","",NA,NA,NA,NA,""
"image-keyboard-response",345,298976,"0.0-4.111-0.111","wrqvq0tk9bzen12",752,"177.csv","","804","resources/trios/L1T4A3.jpg","37","restless",0.5,0.7,0.3,0.852500389216679,"false"
"image-keyboard-response",346,299389,"0.0-4.111-1.111","wrqvq0tk9bzen12",752,"177.csv","","null","resources/maskTrios/L1BB.jpg","null","",NA,NA,NA,NA,""
"image-keyboard-response",347,300602,"0.0-4.111-2.111","wrqvq0tk9bzen12",752,"177.csv","","null","resources/images/fishbone.png","null","",NA,NA,NA,NA,""
"image-keyboard-response",348,300839,"0.0-4.112-0.112","wrqvq0tk9bzen12",752,"177.csv","","236","resources/trios/L1T4A3.jpg","39","restless",0.5,0.7,0.3,0.064178994190873,"true"
"image-keyboard-response",349,301249,"0.0-4.112-1.112","wrqvq0tk9bzen12",752,"177.csv","","null","resources/maskTrios/BBA3.jpg","null","",NA,NA,NA,NA,""
"image-keyboard-response",350,302453,"0.0-4.112-2.112","wrqvq0tk9bzen12",752,"177.csv","","null","resources/images/coin2.png","null","",NA,NA,NA,NA,""
"image-keyboard-response",351,302790,"0.0-4.113-0.113","wrqvq0tk9bzen12",752,"177.csv","","336","resources/trios/L1T4A3.jpg","39","restless",0.5,0.7,0.3,0.488243579149997,"false"
"image-keyboard-response",352,303193,"0.0-4.113-1.113","wrqvq0tk9bzen12",752,"177.csv","","null","resources/maskTrios/BBA3.jpg","null","",NA,NA,NA,NA,""
"image-keyboard-response",353,304408,"0.0-4.113-2.113","wrqvq0tk9bzen12",752,"177.csv","","null","resources/images/fishbone.png","null","",NA,NA,NA,NA,""
"image-keyboard-response",354,304560,"0.0-4.114-0.114","wrqvq0tk9bzen12",752,"177.csv","","152","resources/trios/L1T4A3.jpg","38","restless",0.5,0.7,0.3,0.991084232216171,"false"
"image-keyboard-response",355,304973,"0.0-4.114-1.114","wrqvq0tk9bzen12",752,"177.csv","","null","resources/maskTrios/BT4B.jpg","null","",NA,NA,NA,NA,""
"image-keyboard-response",356,306181,"0.0-4.114-2.114","wrqvq0tk9bzen12",752,"177.csv","","null","resources/images/fishbone.png","null","",NA,NA,NA,NA,""
"image-keyboard-response",357,306367,"0.0-4.115-0.115","wrqvq0tk9bzen12",752,"177.csv","","186","resources/trios/L1T4A3.jpg","37","restless",0.5,0.7,0.3,0.895203670062334,"false"
"image-keyboard-response",358,306780,"0.0-4.115-1.115","wrqvq0tk9bzen12",752,"177.csv","","null","resources/maskTrios/L1BB.jpg","null","",NA,NA,NA,NA,""
"image-keyboard-response",359,307986,"0.0-4.115-2.115","wrqvq0tk9bzen12",752,"177.csv","","null","resources/images/fishbone.png","null","",NA,NA,NA,NA,""
"image-keyboard-response",360,308135,"0.0-4.116-0.116","wrqvq0tk9bzen12",752,"177.csv","","149","resources/trios/L1T4A3.jpg","38","restless",0.5,0.7,0.3,0.0787969379581938,"true"
"image-keyboard-response",361,308536,"0.0-4.116-1.116","wrqvq0tk9bzen12",752,"177.csv","","null","resources/maskTrios/BT4B.jpg","null","",NA,NA,NA,NA,""
"image-keyboard-response",362,309747,"0.0-4.116-2.116","wrqvq0tk9bzen12",752,"177.csv","","null","resources/images/coin2.png","null","",NA,NA,NA,NA,""
"image-keyboard-response",363,310081,"0.0-4.117-0.117","wrqvq0tk9bzen12",752,"177.csv","","332","resources/trios/L1T4A3.jpg","38","restless",0.5,0.7,0.4,0.591988700381614,"true"
"image-keyboard-response",364,310496,"0.0-4.117-1.117","wrqvq0tk9bzen12",752,"177.csv","","null","resources/maskTrios/BT4B.jpg","null","",NA,NA,NA,NA,""
"image-keyboard-response",365,311699,"0.0-4.117-2.117","wrqvq0tk9bzen12",752,"177.csv","","null","resources/images/coin2.png","null","",NA,NA,NA,NA,""
"image-keyboard-response",366,312054,"0.0-4.118-0.118","wrqvq0tk9bzen12",752,"177.csv","","355","resources/trios/L1T4A3.jpg","38","restless",0.5,0.7,0.4,0.412850660366948,"true"
"image-keyboard-response",367,312501,"0.0-4.118-1.118","wrqvq0tk9bzen12",752,"177.csv","","null","resources/maskTrios/BT4B.jpg","null","",NA,NA,NA,NA,""
"image-keyboard-response",368,313716,"0.0-4.118-2.118","wrqvq0tk9bzen12",752,"177.csv","","null","resources/images/coin2.png","null","",NA,NA,NA,NA,""
"image-keyboard-response",369,313947,"0.0-4.119-0.119","wrqvq0tk9bzen12",752,"177.csv","","230","resources/trios/L1T4A3.jpg","38","restless",0.5,0.7,0.4,0.567767303751297,"true"
"image-keyboard-response",370,314349,"0.0-4.119-1.119","wrqvq0tk9bzen12",752,"177.csv","","null","resources/maskTrios/BT4B.jpg","null","",NA,NA,NA,NA,""
"image-keyboard-response",371,315563,"0.0-4.119-2.119","wrqvq0tk9bzen12",752,"177.csv","","null","resources/images/coin2.png","null","",NA,NA,NA,NA,""
"image-keyboard-response",372,315848,"0.0-4.120-0.120","wrqvq0tk9bzen12",752,"177.csv","","285","resources/trios/L1T4A3.jpg","38","restless",0.5,0.7,0.4,0.612742360077506,"true"
"image-keyboard-response",373,316256,"0.0-4.120-1.120","wrqvq0tk9bzen12",752,"177.csv","","null","resources/maskTrios/BT4B.jpg","null","",NA,NA,NA,NA,""
"image-keyboard-response",374,317571,"0.0-4.120-2.120","wrqvq0tk9bzen12",752,"177.csv","","null","resources/images/coin2.png","null","",NA,NA,NA,NA,""
"image-keyboard-response",375,317859,"0.0-4.121-0.121","wrqvq0tk9bzen12",752,"177.csv","","288","resources/trios/L1T4A3.jpg","38","restless",0.5,0.7,0.4,0.968690526827466,"false"
"image-keyboard-response",376,318260,"0.0-4.121-1.121","wrqvq0tk9bzen12",752,"177.csv","","null","resources/maskTrios/BT4B.jpg","null","",NA,NA,NA,NA,""
"image-keyboard-response",377,319583,"0.0-4.121-2.121","wrqvq0tk9bzen12",752,"177.csv","","null","resources/images/fishbone.png","null","",NA,NA,NA,NA,""
"image-keyboard-response",378,319610,"0.0-4.122-0.122","wrqvq0tk9bzen12",752,"177.csv","","26","resources/trios/L1T4A3.jpg","39","restless",0.4,0.7,0.4,0.76544582550864,"false"
"image-keyboard-response",379,320016,"0.0-4.122-1.122","wrqvq0tk9bzen12",752,"177.csv","","null","resources/maskTrios/BBA3.jpg","null","",NA,NA,NA,NA,""
"image-keyboard-response",380,321229,"0.0-4.122-2.122","wrqvq0tk9bzen12",752,"177.csv","","null","resources/images/fishbone.png","null","",NA,NA,NA,NA,""
"image-keyboard-response",381,321419,"0.0-4.123-0.123","wrqvq0tk9bzen12",752,"177.csv","","190","resources/trios/L1T4A3.jpg","37","restless",0.4,0.7,0.4,0.522471255211369,"false"
"image-keyboard-response",382,321826,"0.0-4.123-1.123","wrqvq0tk9bzen12",752,"177.csv","","null","resources/maskTrios/L1BB.jpg","null","",NA,NA,NA,NA,""
"image-keyboard-response",383,323031,"0.0-4.123-2.123","wrqvq0tk9bzen12",752,"177.csv","","null","resources/images/fishbone.png","null","",NA,NA,NA,NA,""
"image-keyboard-response",384,323172,"0.0-4.124-0.124","wrqvq0tk9bzen12",752,"177.csv","","138","resources/trios/L1T4A3.jpg","38","restless",0.4,0.7,0.4,0.557021483893317,"true"
"image-keyboard-response",385,323581,"0.0-4.124-1.124","wrqvq0tk9bzen12",752,"177.csv","","null","resources/maskTrios/BT4B.jpg","null","",NA,NA,NA,NA,""
"image-keyboard-response",386,324784,"0.0-4.124-2.124","wrqvq0tk9bzen12",752,"177.csv","","null","resources/images/coin2.png","null","",NA,NA,NA,NA,""
"image-keyboard-response",387,325729,"0.0-4.125-0.125","wrqvq0tk9bzen12",752,"177.csv","","943","resources/trios/L1T4A3.jpg","38","restless",0.4,0.7,0.4,0.677071658232154,"true"
"image-keyboard-response",388,326144,"0.0-4.125-1.125","wrqvq0tk9bzen12",752,"177.csv","","null","resources/maskTrios/BT4B.jpg","null","",NA,NA,NA,NA,""
"image-keyboard-response",389,327360,"0.0-4.125-2.125","wrqvq0tk9bzen12",752,"177.csv","","null","resources/images/coin2.png","null","",NA,NA,NA,NA,""
"image-keyboard-response",390,328588,"0.0-4.126-0.126","wrqvq0tk9bzen12",752,"177.csv","","1227","resources/trios/L1T4A3.jpg","39","restless",0.4,0.7,0.4,0.0497423679513683,"true"
"image-keyboard-response",391,328996,"0.0-4.126-1.126","wrqvq0tk9bzen12",752,"177.csv","","null","resources/maskTrios/BBA3.jpg","null","",NA,NA,NA,NA,""
"image-keyboard-response",392,330208,"0.0-4.126-2.126","wrqvq0tk9bzen12",752,"177.csv","","null","resources/images/coin2.png","null","",NA,NA,NA,NA,""
"image-keyboard-response",393,330423,"0.0-4.127-0.127","wrqvq0tk9bzen12",752,"177.csv","","214","resources/trios/L1T4A3.jpg","39","restless",0.4,0.7,0.4,0.822063968443468,"false"
"image-keyboard-response",394,330833,"0.0-4.127-1.127","wrqvq0tk9bzen12",752,"177.csv","","null","resources/maskTrios/BBA3.jpg","null","",NA,NA,NA,NA,""
"image-keyboard-response",395,332049,"0.0-4.127-2.127","wrqvq0tk9bzen12",752,"177.csv","","null","resources/images/fishbone.png","null","",NA,NA,NA,NA,""
"image-keyboard-response",396,332260,"0.0-4.128-0.128","wrqvq0tk9bzen12",752,"177.csv","","210","resources/trios/L1T4A3.jpg","38","restless",0.4,0.7,0.4,0.461624278473177,"true"
"image-keyboard-response",397,332663,"0.0-4.128-1.128","wrqvq0tk9bzen12",752,"177.csv","","null","resources/maskTrios/BT4B.jpg","null","",NA,NA,NA,NA,""
"image-keyboard-response",398,333871,"0.0-4.128-2.128","wrqvq0tk9bzen12",752,"177.csv","","null","resources/images/coin2.png","null","",NA,NA,NA,NA,""
"image-keyboard-response",399,334115,"0.0-4.129-0.129","wrqvq0tk9bzen12",752,"177.csv","","242","resources/trios/L1T4A3.jpg","38","restless",0.4,0.7,0.4,0.959246585405542,"false"
"image-keyboard-response",400,334525,"0.0-4.129-1.129","wrqvq0tk9bzen12",752,"177.csv","","null","resources/maskTrios/BT4B.jpg","null","",NA,NA,NA,NA,""
"image-keyboard-response",401,335727,"0.0-4.129-2.129","wrqvq0tk9bzen12",752,"177.csv","","null","resources/images/fishbone.png","null","",NA,NA,NA,NA,""
"image-keyboard-response",402,335918,"0.0-4.130-0.130","wrqvq0tk9bzen12",752,"177.csv","","192","resources/trios/L1T4A3.jpg","37","restless",0.4,0.7,0.4,0.0197904471194178,"true"
"image-keyboard-response",403,336323,"0.0-4.130-1.130","wrqvq0tk9bzen12",752,"177.csv","","null","resources/maskTrios/L1BB.jpg","null","",NA,NA,NA,NA,""
"image-keyboard-response",404,337611,"0.0-4.130-2.130","wrqvq0tk9bzen12",752,"177.csv","","null","resources/images/coin2.png","null","",NA,NA,NA,NA,""
"image-keyboard-response",405,337852,"0.0-4.131-0.131","wrqvq0tk9bzen12",752,"177.csv","","240","resources/trios/L1T4A3.jpg","37","restless",0.4,0.7,0.4,0.741868361443976,"false"
"image-keyboard-response",406,338256,"0.0-4.131-1.131","wrqvq0tk9bzen12",752,"177.csv","","null","resources/maskTrios/L1BB.jpg","null","",NA,NA,NA,NA,""
"image-keyboard-response",407,339470,"0.0-4.131-2.131","wrqvq0tk9bzen12",752,"177.csv","","null","resources/images/fishbone.png","null","",NA,NA,NA,NA,""
"image-keyboard-response",408,339709,"0.0-4.132-0.132","wrqvq0tk9bzen12",752,"177.csv","","237","resources/trios/L1T4A3.jpg","38","restless",0.4,0.7,0.4,0.588932254263175,"true"
"image-keyboard-response",409,340113,"0.0-4.132-1.132","wrqvq0tk9bzen12",752,"177.csv","","null","resources/maskTrios/BT4B.jpg","null","",NA,NA,NA,NA,""
"image-keyboard-response",410,341318,"0.0-4.132-2.132","wrqvq0tk9bzen12",752,"177.csv","","null","resources/images/coin2.png","null","",NA,NA,NA,NA,""
"image-keyboard-response",411,341482,"0.0-4.133-0.133","wrqvq0tk9bzen12",752,"177.csv","","163","resources/trios/L1T4A3.jpg","38","restless",0.4,0.7,0.4,0.173758327791039,"true"
"image-keyboard-response",412,341893,"0.0-4.133-1.133","wrqvq0tk9bzen12",752,"177.csv","","null","resources/maskTrios/BT4B.jpg","null","",NA,NA,NA,NA,""
"image-keyboard-response",413,343098,"0.0-4.133-2.133","wrqvq0tk9bzen12",752,"177.csv","","null","resources/images/coin2.png","null","",NA,NA,NA,NA,""
"image-keyboard-response",414,343423,"0.0-4.134-0.134","wrqvq0tk9bzen12",752,"177.csv","","324","resources/trios/L1T4A3.jpg","38","restless",0.4,0.7,0.4,0.858605571491628,"false"
"image-keyboard-response",415,343841,"0.0-4.134-1.134","wrqvq0tk9bzen12",752,"177.csv","","null","resources/maskTrios/BT4B.jpg","null","",NA,NA,NA,NA,""
"image-keyboard-response",416,345049,"0.0-4.134-2.134","wrqvq0tk9bzen12",752,"177.csv","","null","resources/images/fishbone.png","null","",NA,NA,NA,NA,""
"image-keyboard-response",417,345282,"0.0-4.135-0.135","wrqvq0tk9bzen12",752,"177.csv","","233","resources/trios/L1T4A3.jpg","39","restless",0.4,0.7,0.4,0.0530260335483563,"true"
"image-keyboard-response",418,345689,"0.0-4.135-1.135","wrqvq0tk9bzen12",752,"177.csv","","null","resources/maskTrios/BBA3.jpg","null","",NA,NA,NA,NA,""
"image-keyboard-response",419,346897,"0.0-4.135-2.135","wrqvq0tk9bzen12",752,"177.csv","","null","resources/images/coin2.png","null","",NA,NA,NA,NA,""
"image-keyboard-response",420,347163,"0.0-4.136-0.136","wrqvq0tk9bzen12",752,"177.csv","","265","resources/trios/L1T4A3.jpg","39","restless",0.4,0.7,0.4,0.827293897919337,"false"
"image-keyboard-response",421,347575,"0.0-4.136-1.136","wrqvq0tk9bzen12",752,"177.csv","","null","resources/maskTrios/BBA3.jpg","null","",NA,NA,NA,NA,""
"image-keyboard-response",422,348784,"0.0-4.136-2.136","wrqvq0tk9bzen12",752,"177.csv","","null","resources/images/fishbone.png","null","",NA,NA,NA,NA,""
"image-keyboard-response",423,349070,"0.0-4.137-0.137","wrqvq0tk9bzen12",752,"177.csv","","285","resources/trios/L1T4A3.jpg","38","restless",0.3,0.7,0.4,0.314608698838071,"true"
"image-keyboard-response",424,349524,"0.0-4.137-1.137","wrqvq0tk9bzen12",752,"177.csv","","null","resources/maskTrios/BT4B.jpg","null","",NA,NA,NA,NA,""
"image-keyboard-response",425,350734,"0.0-4.137-2.137","wrqvq0tk9bzen12",752,"177.csv","","null","resources/images/coin2.png","null","",NA,NA,NA,NA,""
"image-keyboard-response",426,350998,"0.0-4.138-0.138","wrqvq0tk9bzen12",752,"177.csv","","263","resources/trios/L1T4A3.jpg","38","restless",0.3,0.7,0.5,0.542690911100583,"true"
"image-keyboard-response",427,351411,"0.0-4.138-1.138","wrqvq0tk9bzen12",752,"177.csv","","null","resources/maskTrios/BT4B.jpg","null","",NA,NA,NA,NA,""
"image-keyboard-response",428,352644,"0.0-4.138-2.138","wrqvq0tk9bzen12",752,"177.csv","","null","resources/images/coin2.png","null","",NA,NA,NA,NA,""
"image-keyboard-response",429,352950,"0.0-4.139-0.139","wrqvq0tk9bzen12",752,"177.csv","","305","resources/trios/L1T4A3.jpg","38","restless",0.3,0.7,0.5,0.282681956853817,"true"
"image-keyboard-response",430,353356,"0.0-4.139-1.139","wrqvq0tk9bzen12",752,"177.csv","","null","resources/maskTrios/BT4B.jpg","null","",NA,NA,NA,NA,""
"image-keyboard-response",431,354565,"0.0-4.139-2.139","wrqvq0tk9bzen12",752,"177.csv","","null","resources/images/coin2.png","null","",NA,NA,NA,NA,""
"image-keyboard-response",432,362410,"0.0-4.140-0.140","wrqvq0tk9bzen12",752,"177.csv","","7844","resources/trios/L1T4A3.jpg","38","restless",0.3,0.7,0.5,0.871573199330457,"false"
"image-keyboard-response",433,362822,"0.0-4.140-1.140","wrqvq0tk9bzen12",752,"177.csv","","null","resources/maskTrios/BT4B.jpg","null","",NA,NA,NA,NA,""
"image-keyboard-response",434,364024,"0.0-4.140-2.140","wrqvq0tk9bzen12",752,"177.csv","","null","resources/images/fishbone.png","null","",NA,NA,NA,NA,""
"image-keyboard-response",435,364360,"0.0-4.141-0.141","wrqvq0tk9bzen12",752,"177.csv","","334","resources/trios/L1T4A3.jpg","37","restless",0.3,0.7,0.5,0.792517103342273,"false"
"image-keyboard-response",436,364770,"0.0-4.141-1.141","wrqvq0tk9bzen12",752,"177.csv","","null","resources/maskTrios/L1BB.jpg","null","",NA,NA,NA,NA,""
"image-keyboard-response",437,365979,"0.0-4.141-2.141","wrqvq0tk9bzen12",752,"177.csv","","null","resources/images/fishbone.png","null","",NA,NA,NA,NA,""
"image-keyboard-response",438,366110,"0.0-4.142-0.142","wrqvq0tk9bzen12",752,"177.csv","","130","resources/trios/L1T4A3.jpg","39","restless",0.3,0.6,0.5,0.281150928673471,"true"
"image-keyboard-response",439,366516,"0.0-4.142-1.142","wrqvq0tk9bzen12",752,"177.csv","","null","resources/maskTrios/BBA3.jpg","null","",NA,NA,NA,NA,""
"image-keyboard-response",440,367824,"0.0-4.142-2.142","wrqvq0tk9bzen12",752,"177.csv","","null","resources/images/coin2.png","null","",NA,NA,NA,NA,""
"image-keyboard-response",441,368023,"0.0-4.143-0.143","wrqvq0tk9bzen12",752,"177.csv","","199","resources/trios/L1T4A3.jpg","39","restless",0.3,0.6,0.5,0.947482537077902,"false"
"image-keyboard-response",442,368434,"0.0-4.143-1.143","wrqvq0tk9bzen12",752,"177.csv","","null","resources/maskTrios/BBA3.jpg","null","",NA,NA,NA,NA,""
"image-keyboard-response",443,369754,"0.0-4.143-2.143","wrqvq0tk9bzen12",752,"177.csv","","null","resources/images/fishbone.png","null","",NA,NA,NA,NA,""
"image-keyboard-response",444,369795,"0.0-4.144-0.144","wrqvq0tk9bzen12",752,"177.csv","","40","resources/trios/L1T4A3.jpg","38","restless",0.3,0.6,0.6,0.730943838265372,"false"
"image-keyboard-response",445,370199,"0.0-4.144-1.144","wrqvq0tk9bzen12",752,"177.csv","","null","resources/maskTrios/BT4B.jpg","null","",NA,NA,NA,NA,""
"image-keyboard-response",446,371406,"0.0-4.144-2.144","wrqvq0tk9bzen12",752,"177.csv","","null","resources/images/fishbone.png","null","",NA,NA,NA,NA,""
"image-keyboard-response",447,371607,"0.0-4.145-0.145","wrqvq0tk9bzen12",752,"177.csv","","201","resources/trios/L1T4A3.jpg","37","restless",0.4,0.6,0.6,0.383885500782671,"true"
"image-keyboard-response",448,372008,"0.0-4.145-1.145","wrqvq0tk9bzen12",752,"177.csv","","null","resources/maskTrios/L1BB.jpg","null","",NA,NA,NA,NA,""
"image-keyboard-response",449,373222,"0.0-4.145-2.145","wrqvq0tk9bzen12",752,"177.csv","","null","resources/images/coin2.png","null","",NA,NA,NA,NA,""
"image-keyboard-response",450,373251,"0.0-4.146-0.146","wrqvq0tk9bzen12",752,"177.csv","","27","resources/trios/L1T4A3.jpg","37","restless",0.5,0.6,0.5,0.0357625195646042,"true"
"image-keyboard-response",451,373662,"0.0-4.146-1.146","wrqvq0tk9bzen12",752,"177.csv","","null","resources/maskTrios/L1BB.jpg","null","",NA,NA,NA,NA,""
"image-keyboard-response",452,374871,"0.0-4.146-2.146","wrqvq0tk9bzen12",752,"177.csv","","null","resources/images/coin2.png","null","",NA,NA,NA,NA,""
"image-keyboard-response",453,375109,"0.0-4.147-0.147","wrqvq0tk9bzen12",752,"177.csv","","239","resources/trios/L1T4A3.jpg","37","restless",0.5,0.5,0.5,0.548351366888663,"false"
"image-keyboard-response",454,375516,"0.0-4.147-1.147","wrqvq0tk9bzen12",752,"177.csv","","null","resources/maskTrios/L1BB.jpg","null","",NA,NA,NA,NA,""
"image-keyboard-response",455,376732,"0.0-4.147-2.147","wrqvq0tk9bzen12",752,"177.csv","","null","resources/images/fishbone.png","null","",NA,NA,NA,NA,""
"image-keyboard-response",456,376882,"0.0-4.148-0.148","wrqvq0tk9bzen12",752,"177.csv","","148","resources/trios/L1T4A3.jpg","38","restless",0.5,0.5,0.5,0.901817003581629,"false"
"image-keyboard-response",457,377298,"0.0-4.148-1.148","wrqvq0tk9bzen12",752,"177.csv","","null","resources/maskTrios/BT4B.jpg","null","",NA,NA,NA,NA,""
"image-keyboard-response",458,378501,"0.0-4.148-2.148","wrqvq0tk9bzen12",752,"177.csv","","null","resources/images/fishbone.png","null","",NA,NA,NA,NA,""
"image-keyboard-response",459,378519,"0.0-4.149-0.149","wrqvq0tk9bzen12",752,"177.csv","","17","resources/trios/L1T4A3.jpg","39","restless",0.5,0.5,0.5,0.163830477162113,"true"
"image-keyboard-response",460,378928,"0.0-4.149-1.149","wrqvq0tk9bzen12",752,"177.csv","","null","resources/maskTrios/BBA3.jpg","null","",NA,NA,NA,NA,""
"image-keyboard-response",461,380130,"0.0-4.149-2.149","wrqvq0tk9bzen12",752,"177.csv","","null","resources/images/coin2.png","null","",NA,NA,NA,NA,""
"image-keyboard-response",462,380313,"0.0-4.150-0.150","wrqvq0tk9bzen12",752,"177.csv","","183","resources/trios/L1T4A3.jpg","39","restless",0.5,0.5,0.5,0.547604363494663,"false"
"image-keyboard-response",463,380725,"0.0-4.150-1.150","wrqvq0tk9bzen12",752,"177.csv","","null","resources/maskTrios/BBA3.jpg","null","",NA,NA,NA,NA,""
"image-keyboard-response",464,381938,"0.0-4.150-2.150","wrqvq0tk9bzen12",752,"177.csv","","null","resources/images/fishbone.png","null","",NA,NA,NA,NA,""
"image-keyboard-response",465,382183,"0.0-4.151-0.151","wrqvq0tk9bzen12",752,"177.csv","","243","resources/trios/L1T4A3.jpg","38","restless",0.5,0.5,0.5,0.711399275917159,"false"
"image-keyboard-response",466,382584,"0.0-4.151-1.151","wrqvq0tk9bzen12",752,"177.csv","","null","resources/maskTrios/BT4B.jpg","null","",NA,NA,NA,NA,""
"image-keyboard-response",467,383787,"0.0-4.151-2.151","wrqvq0tk9bzen12",752,"177.csv","","null","resources/images/fishbone.png","null","",NA,NA,NA,NA,""
"image-keyboard-response",468,384146,"0.0-4.152-0.152","wrqvq0tk9bzen12",752,"177.csv","","358","resources/trios/L1T4A3.jpg","37","restless",0.5,0.5,0.5,0.0564237952639417,"true"
"image-keyboard-response",469,384595,"0.0-4.152-1.152","wrqvq0tk9bzen12",752,"177.csv","","null","resources/maskTrios/L1BB.jpg","null","",NA,NA,NA,NA,""
"image-keyboard-response",470,385801,"0.0-4.152-2.152","wrqvq0tk9bzen12",752,"177.csv","","null","resources/images/coin2.png","null","",NA,NA,NA,NA,""
"image-keyboard-response",471,386204,"0.0-4.153-0.153","wrqvq0tk9bzen12",752,"177.csv","","401","resources/trios/L1T4A3.jpg","37","restless",0.5,0.5,0.5,0.428441894437854,"true"
"image-keyboard-response",472,386606,"0.0-4.153-1.153","wrqvq0tk9bzen12",752,"177.csv","","null","resources/maskTrios/L1BB.jpg","null","",NA,NA,NA,NA,""
"image-keyboard-response",473,387817,"0.0-4.153-2.153","wrqvq0tk9bzen12",752,"177.csv","","null","resources/images/coin2.png","null","",NA,NA,NA,NA,""
"image-keyboard-response",474,388075,"0.0-4.154-0.154","wrqvq0tk9bzen12",752,"177.csv","","259","resources/trios/L1T4A3.jpg","37","restless",0.5,0.5,0.5,0.334767104887526,"true"
"image-keyboard-response",475,388516,"0.0-4.154-1.154","wrqvq0tk9bzen12",752,"177.csv","","null","resources/maskTrios/L1BB.jpg","null","",NA,NA,NA,NA,""
"image-keyboard-response",476,389731,"0.0-4.154-2.154","wrqvq0tk9bzen12",752,"177.csv","","null","resources/images/coin2.png","null","",NA,NA,NA,NA,""
"image-keyboard-response",477,390001,"0.0-4.155-0.155","wrqvq0tk9bzen12",752,"177.csv","","269","resources/trios/L1T4A3.jpg","37","restless",0.5,0.5,0.5,0.663513453562478,"false"
"image-keyboard-response",478,390409,"0.0-4.155-1.155","wrqvq0tk9bzen12",752,"177.csv","","null","resources/maskTrios/L1BB.jpg","null","",NA,NA,NA,NA,""
"image-keyboard-response",479,391745,"0.0-4.155-2.155","wrqvq0tk9bzen12",752,"177.csv","","null","resources/images/fishbone.png","null","",NA,NA,NA,NA,""
"image-keyboard-response",480,391892,"0.0-4.156-0.156","wrqvq0tk9bzen12",752,"177.csv","","146","resources/trios/L1T4A3.jpg","38","restless",0.5,0.5,0.4,0.550087485382665,"false"
"image-keyboard-response",481,392294,"0.0-4.156-1.156","wrqvq0tk9bzen12",752,"177.csv","","null","resources/maskTrios/BT4B.jpg","null","",NA,NA,NA,NA,""
"image-keyboard-response",482,393523,"0.0-4.156-2.156","wrqvq0tk9bzen12",752,"177.csv","","null","resources/images/fishbone.png","null","",NA,NA,NA,NA,""
"image-keyboard-response",483,393720,"0.0-4.157-0.157","wrqvq0tk9bzen12",752,"177.csv","","195","resources/trios/L1T4A3.jpg","39","restless",0.4,0.5,0.4,0.353077273006957,"true"
"image-keyboard-response",484,394120,"0.0-4.157-1.157","wrqvq0tk9bzen12",752,"177.csv","","null","resources/maskTrios/BBA3.jpg","null","",NA,NA,NA,NA,""
"image-keyboard-response",485,395335,"0.0-4.157-2.157","wrqvq0tk9bzen12",752,"177.csv","","null","resources/images/coin2.png","null","",NA,NA,NA,NA,""
"image-keyboard-response",486,395655,"0.0-4.158-0.158","wrqvq0tk9bzen12",752,"177.csv","","319","resources/trios/L1T4A3.jpg","39","restless",0.4,0.5,0.4,0.920275880352141,"false"
"image-keyboard-response",487,396059,"0.0-4.158-1.158","wrqvq0tk9bzen12",752,"177.csv","","null","resources/maskTrios/BBA3.jpg","null","",NA,NA,NA,NA,""
"image-keyboard-response",488,397268,"0.0-4.158-2.158","wrqvq0tk9bzen12",752,"177.csv","","null","resources/images/fishbone.png","null","",NA,NA,NA,NA,""
"image-keyboard-response",489,397508,"0.0-4.159-0.159","wrqvq0tk9bzen12",752,"177.csv","","241","resources/trios/L1T4A3.jpg","38","restless",0.5,0.5,0.4,0.761249036895891,"false"
"image-keyboard-response",490,397912,"0.0-4.159-1.159","wrqvq0tk9bzen12",752,"177.csv","","null","resources/maskTrios/BT4B.jpg","null","",NA,NA,NA,NA,""
"image-keyboard-response",491,399117,"0.0-4.159-2.159","wrqvq0tk9bzen12",752,"177.csv","","null","resources/images/fishbone.png","null","",NA,NA,NA,NA,""
"image-keyboard-response",492,399367,"0.0-4.160-0.160","wrqvq0tk9bzen12",752,"177.csv","","249","resources/trios/L1T4A3.jpg","37","restless",0.5,0.5,0.4,0.446257974392293,"true"
"image-keyboard-response",493,399780,"0.0-4.160-1.160","wrqvq0tk9bzen12",752,"177.csv","","null","resources/maskTrios/L1BB.jpg","null","",NA,NA,NA,NA,""
"image-keyboard-response",494,401086,"0.0-4.160-2.160","wrqvq0tk9bzen12",752,"177.csv","","null","resources/images/coin2.png","null","",NA,NA,NA,NA,""
"image-keyboard-response",495,401613,"0.0-4.161-0.161","wrqvq0tk9bzen12",752,"177.csv","","526","resources/trios/L1T4A3.jpg","37","restless",0.5,0.5,0.4,0.33115102870117,"true"
"image-keyboard-response",496,402018,"0.0-4.161-1.161","wrqvq0tk9bzen12",752,"177.csv","","null","resources/maskTrios/L1BB.jpg","null","",NA,NA,NA,NA,""
"image-keyboard-response",497,403255,"0.0-4.161-2.161","wrqvq0tk9bzen12",752,"177.csv","","null","resources/images/coin2.png","null","",NA,NA,NA,NA,""
"image-keyboard-response",498,406306,"0.0-4.162-0.162","wrqvq0tk9bzen12",752,"177.csv","","3049","resources/trios/L1T4A3.jpg","37","restless",0.5,0.5,0.4,0.667570852955259,"false"
"image-keyboard-response",499,406719,"0.0-4.162-1.162","wrqvq0tk9bzen12",752,"177.csv","","null","resources/maskTrios/L1BB.jpg","null","",NA,NA,NA,NA,""
"image-keyboard-response",500,407931,"0.0-4.162-2.162","wrqvq0tk9bzen12",752,"177.csv","","null","resources/images/fishbone.png","null","",NA,NA,NA,NA,""
"image-keyboard-response",501,407987,"0.0-4.163-0.163","wrqvq0tk9bzen12",752,"177.csv","","56","resources/trios/L1T4A3.jpg","38","restless",0.6,0.5,0.4,0.854653029236648,"false"
"image-keyboard-response",502,408402,"0.0-4.163-1.163","wrqvq0tk9bzen12",752,"177.csv","","null","resources/maskTrios/BT4B.jpg","null","",NA,NA,NA,NA,""
"image-keyboard-response",503,409608,"0.0-4.163-2.163","wrqvq0tk9bzen12",752,"177.csv","","null","resources/images/fishbone.png","null","",NA,NA,NA,NA,""
"image-keyboard-response",504,409882,"0.0-4.164-0.164","wrqvq0tk9bzen12",752,"177.csv","","273","resources/trios/L1T4A3.jpg","39","restless",0.6,0.4,0.4,0.979796616374223,"false"
"image-keyboard-response",505,410288,"0.0-4.164-1.164","wrqvq0tk9bzen12",752,"177.csv","","null","resources/maskTrios/BBA3.jpg","null","",NA,NA,NA,NA,""
"image-keyboard-response",506,411495,"0.0-4.164-2.164","wrqvq0tk9bzen12",752,"177.csv","","null","resources/images/fishbone.png","null","",NA,NA,NA,NA,""
"image-keyboard-response",507,411765,"0.0-4.165-0.165","wrqvq0tk9bzen12",752,"177.csv","","269","resources/trios/L1T4A3.jpg","38","restless",0.6,0.5,0.4,0.694908625324458,"false"
"image-keyboard-response",508,412178,"0.0-4.165-1.165","wrqvq0tk9bzen12",752,"177.csv","","null","resources/maskTrios/BT4B.jpg","null","",NA,NA,NA,NA,""
"image-keyboard-response",509,413503,"0.0-4.165-2.165","wrqvq0tk9bzen12",752,"177.csv","","null","resources/images/fishbone.png","null","",NA,NA,NA,NA,""
"image-keyboard-response",510,413901,"0.0-4.166-0.166","wrqvq0tk9bzen12",752,"177.csv","","398","resources/trios/L1T4A3.jpg","37","restless",0.6,0.5,0.4,0.0741906470798546,"true"
"image-keyboard-response",511,414303,"0.0-4.166-1.166","wrqvq0tk9bzen12",752,"177.csv","","null","resources/maskTrios/L1BB.jpg","null","",NA,NA,NA,NA,""
"image-keyboard-response",512,415514,"0.0-4.166-2.166","wrqvq0tk9bzen12",752,"177.csv","","null","resources/images/coin2.png","null","",NA,NA,NA,NA,""
"image-keyboard-response",513,415770,"0.0-4.167-0.167","wrqvq0tk9bzen12",752,"177.csv","","256","resources/trios/L1T4A3.jpg","37","restless",0.6,0.5,0.4,0.0521050244320704,"true"
"image-keyboard-response",514,416177,"0.0-4.167-1.167","wrqvq0tk9bzen12",752,"177.csv","","null","resources/maskTrios/L1BB.jpg","null","",NA,NA,NA,NA,""
"image-keyboard-response",515,417525,"0.0-4.167-2.167","wrqvq0tk9bzen12",752,"177.csv","","null","resources/images/coin2.png","null","",NA,NA,NA,NA,""
"image-keyboard-response",516,417940,"0.0-4.168-0.168","wrqvq0tk9bzen12",752,"177.csv","","416","resources/trios/L1T4A3.jpg","37","restless",0.7,0.5,0.5,0.599397175880481,"true"
"image-keyboard-response",517,418351,"0.0-4.168-1.168","wrqvq0tk9bzen12",752,"177.csv","","null","resources/maskTrios/L1BB.jpg","null","",NA,NA,NA,NA,""
"image-keyboard-response",518,419553,"0.0-4.168-2.168","wrqvq0tk9bzen12",752,"177.csv","","null","resources/images/coin2.png","null","",NA,NA,NA,NA,""
"image-keyboard-response",519,419902,"0.0-4.169-0.169","wrqvq0tk9bzen12",752,"177.csv","","348","resources/trios/L1T4A3.jpg","37","restless",0.7,0.5,0.5,0.26243299855019,"true"
"image-keyboard-response",520,420309,"0.0-4.169-1.169","wrqvq0tk9bzen12",752,"177.csv","","null","resources/maskTrios/L1BB.jpg","null","",NA,NA,NA,NA,""
"image-keyboard-response",521,421558,"0.0-4.169-2.169","wrqvq0tk9bzen12",752,"177.csv","","null","resources/images/coin2.png","null","",NA,NA,NA,NA,""
"image-keyboard-response",522,422007,"0.0-4.170-0.170","wrqvq0tk9bzen12",752,"177.csv","","448","resources/trios/L1T4A3.jpg","37","restless",0.7,0.5,0.5,0.608589747628212,"true"
"image-keyboard-response",523,422420,"0.0-4.170-1.170","wrqvq0tk9bzen12",752,"177.csv","","null","resources/maskTrios/L1BB.jpg","null","",NA,NA,NA,NA,""
"image-keyboard-response",524,423634,"0.0-4.170-2.170","wrqvq0tk9bzen12",752,"177.csv","","null","resources/images/coin2.png","null","",NA,NA,NA,NA,""
"image-keyboard-response",525,423893,"0.0-4.171-0.171","wrqvq0tk9bzen12",752,"177.csv","","258","resources/trios/L1T4A3.jpg","37","restless",0.7,0.5,0.5,0.486630073317223,"true"
"image-keyboard-response",526,424300,"0.0-4.171-1.171","wrqvq0tk9bzen12",752,"177.csv","","null","resources/maskTrios/L1BB.jpg","null","",NA,NA,NA,NA,""
"image-keyboard-response",527,425638,"0.0-4.171-2.171","wrqvq0tk9bzen12",752,"177.csv","","null","resources/images/coin2.png","null","",NA,NA,NA,NA,""
"image-keyboard-response",528,425862,"0.0-4.172-0.172","wrqvq0tk9bzen12",752,"177.csv","","222","resources/trios/L1T4A3.jpg","37","restless",0.7,0.5,0.5,0.419456945223436,"true"
"image-keyboard-response",529,426270,"0.0-4.172-1.172","wrqvq0tk9bzen12",752,"177.csv","","null","resources/maskTrios/L1BB.jpg","null","",NA,NA,NA,NA,""
"image-keyboard-response",530,427474,"0.0-4.172-2.172","wrqvq0tk9bzen12",752,"177.csv","","null","resources/images/coin2.png","null","",NA,NA,NA,NA,""
"image-keyboard-response",531,427729,"0.0-4.173-0.173","wrqvq0tk9bzen12",752,"177.csv","","255","resources/trios/L1T4A3.jpg","37","restless",0.7,0.5,0.5,0.658435226301724,"true"
"image-keyboard-response",532,428134,"0.0-4.173-1.173","wrqvq0tk9bzen12",752,"177.csv","","null","resources/maskTrios/L1BB.jpg","null","",NA,NA,NA,NA,""
"image-keyboard-response",533,429346,"0.0-4.173-2.173","wrqvq0tk9bzen12",752,"177.csv","","null","resources/images/coin2.png","null","",NA,NA,NA,NA,""
"image-keyboard-response",534,429680,"0.0-4.174-0.174","wrqvq0tk9bzen12",752,"177.csv","","333","resources/trios/L1T4A3.jpg","37","restless",0.7,0.5,0.5,0.625386441713094,"true"
"image-keyboard-response",535,430088,"0.0-4.174-1.174","wrqvq0tk9bzen12",752,"177.csv","","null","resources/maskTrios/L1BB.jpg","null","",NA,NA,NA,NA,""
"image-keyboard-response",536,431295,"0.0-4.174-2.174","wrqvq0tk9bzen12",752,"177.csv","","null","resources/images/coin2.png","null","",NA,NA,NA,NA,""
"image-keyboard-response",537,431580,"0.0-4.175-0.175","wrqvq0tk9bzen12",752,"177.csv","","285","resources/trios/L1T4A3.jpg","37","restless",0.7,0.5,0.5,0.947948777021983,"false"
"image-keyboard-response",538,431992,"0.0-4.175-1.175","wrqvq0tk9bzen12",752,"177.csv","","null","resources/maskTrios/L1BB.jpg","null","",NA,NA,NA,NA,""
"image-keyboard-response",539,433200,"0.0-4.175-2.175","wrqvq0tk9bzen12",752,"177.csv","","null","resources/images/fishbone.png","null","",NA,NA,NA,NA,""
"image-keyboard-response",540,433438,"0.0-4.176-0.176","wrqvq0tk9bzen12",752,"177.csv","","239","resources/trios/L1T4A3.jpg","38","restless",0.7,0.6,0.5,0.307020193562669,"true"
"image-keyboard-response",541,433847,"0.0-4.176-1.176","wrqvq0tk9bzen12",752,"177.csv","","null","resources/maskTrios/BT4B.jpg","null","",NA,NA,NA,NA,""
"image-keyboard-response",542,435053,"0.0-4.176-2.176","wrqvq0tk9bzen12",752,"177.csv","","null","resources/images/coin2.png","null","",NA,NA,NA,NA,""
"image-keyboard-response",543,435272,"0.0-4.177-0.177","wrqvq0tk9bzen12",752,"177.csv","","218","resources/trios/L1T4A3.jpg","38","restless",0.7,0.6,0.5,0.511502669712008,"true"
"image-keyboard-response",544,435684,"0.0-4.177-1.177","wrqvq0tk9bzen12",752,"177.csv","","null","resources/maskTrios/BT4B.jpg","null","",NA,NA,NA,NA,""
"image-keyboard-response",545,436897,"0.0-4.177-2.177","wrqvq0tk9bzen12",752,"177.csv","","null","resources/images/coin2.png","null","",NA,NA,NA,NA,""
"image-keyboard-response",546,437162,"0.0-4.178-0.178","wrqvq0tk9bzen12",752,"177.csv","","265","resources/trios/L1T4A3.jpg","38","restless",0.7,0.6,0.5,0.0652038003374633,"true"
"image-keyboard-response",547,437572,"0.0-4.178-1.178","wrqvq0tk9bzen12",752,"177.csv","","null","resources/maskTrios/BT4B.jpg","null","",NA,NA,NA,NA,""
"image-keyboard-response",548,438773,"0.0-4.178-2.178","wrqvq0tk9bzen12",752,"177.csv","","null","resources/images/coin2.png","null","",NA,NA,NA,NA,""
"image-keyboard-response",549,439043,"0.0-4.179-0.179","wrqvq0tk9bzen12",752,"177.csv","","269","resources/trios/L1T4A3.jpg","38","restless",0.7,0.6,0.5,0.733832266344873,"false"
"image-keyboard-response",550,439453,"0.0-4.179-1.179","wrqvq0tk9bzen12",752,"177.csv","","null","resources/maskTrios/BT4B.jpg","null","",NA,NA,NA,NA,""
"image-keyboard-response",551,440661,"0.0-4.179-2.179","wrqvq0tk9bzen12",752,"177.csv","","null","resources/images/fishbone.png","null","",NA,NA,NA,NA,""
"image-keyboard-response",552,440790,"0.0-4.180-0.180","wrqvq0tk9bzen12",752,"177.csv","","128","resources/trios/L1T4A3.jpg","39","restless",0.6,0.5,0.5,0.481133839672095,"true"
"image-keyboard-response",553,441233,"0.0-4.180-1.180","wrqvq0tk9bzen12",752,"177.csv","","null","resources/maskTrios/BBA3.jpg","null","",NA,NA,NA,NA,""
"image-keyboard-response",554,442446,"0.0-4.180-2.180","wrqvq0tk9bzen12",752,"177.csv","","null","resources/images/coin2.png","null","",NA,NA,NA,NA,""
"image-keyboard-response",555,442637,"0.0-4.181-0.181","wrqvq0tk9bzen12",752,"177.csv","","192","resources/trios/L1T4A3.jpg","39","restless",0.6,0.5,0.6,0.675118117606702,"false"
"image-keyboard-response",556,443046,"0.0-4.181-1.181","wrqvq0tk9bzen12",752,"177.csv","","null","resources/maskTrios/BBA3.jpg","null","",NA,NA,NA,NA,""
"image-keyboard-response",557,444250,"0.0-4.181-2.181","wrqvq0tk9bzen12",752,"177.csv","","null","resources/images/fishbone.png","null","",NA,NA,NA,NA,""
"image-keyboard-response",558,444470,"0.0-4.182-0.182","wrqvq0tk9bzen12",752,"177.csv","","219","resources/trios/L1T4A3.jpg","37","restless",0.6,0.5,0.7,0.76095195664504,"false"
"image-keyboard-response",559,444872,"0.0-4.182-1.182","wrqvq0tk9bzen12",752,"177.csv","","null","resources/maskTrios/L1BB.jpg","null","",NA,NA,NA,NA,""
"image-keyboard-response",560,446087,"0.0-4.182-2.182","wrqvq0tk9bzen12",752,"177.csv","","null","resources/images/fishbone.png","null","",NA,NA,NA,NA,""
"image-keyboard-response",561,446269,"0.0-4.183-0.183","wrqvq0tk9bzen12",752,"177.csv","","180","resources/trios/L1T4A3.jpg","38","restless",0.6,0.5,0.7,0.485183068701763,"true"
"image-keyboard-response",562,446673,"0.0-4.183-1.183","wrqvq0tk9bzen12",752,"177.csv","","null","resources/maskTrios/BT4B.jpg","null","",NA,NA,NA,NA,""
"image-keyboard-response",563,447877,"0.0-4.183-2.183","wrqvq0tk9bzen12",752,"177.csv","","null","resources/images/coin2.png","null","",NA,NA,NA,NA,""
"image-keyboard-response",564,448221,"0.0-4.184-0.184","wrqvq0tk9bzen12",752,"177.csv","","343","resources/trios/L1T4A3.jpg","38","restless",0.6,0.5,0.7,0.423591725474321,"true"
"image-keyboard-response",565,448633,"0.0-4.184-1.184","wrqvq0tk9bzen12",752,"177.csv","","null","resources/maskTrios/BT4B.jpg","null","",NA,NA,NA,NA,""
"image-keyboard-response",566,449838,"0.0-4.184-2.184","wrqvq0tk9bzen12",752,"177.csv","","null","resources/images/coin2.png","null","",NA,NA,NA,NA,""
"image-keyboard-response",567,450113,"0.0-4.185-0.185","wrqvq0tk9bzen12",752,"177.csv","","274","resources/trios/L1T4A3.jpg","38","restless",0.6,0.5,0.7,0.889424207608194,"false"
"image-keyboard-response",568,450514,"0.0-4.185-1.185","wrqvq0tk9bzen12",752,"177.csv","","null","resources/maskTrios/BT4B.jpg","null","",NA,NA,NA,NA,""
"image-keyboard-response",569,451723,"0.0-4.185-2.185","wrqvq0tk9bzen12",752,"177.csv","","null","resources/images/fishbone.png","null","",NA,NA,NA,NA,""
"image-keyboard-response",570,451902,"0.0-4.186-0.186","wrqvq0tk9bzen12",752,"177.csv","","178","resources/trios/L1T4A3.jpg","39","restless",0.6,0.5,0.7,0.424467271733859,"true"
"image-keyboard-response",571,452308,"0.0-4.186-1.186","wrqvq0tk9bzen12",752,"177.csv","","null","resources/maskTrios/BBA3.jpg","null","",NA,NA,NA,NA,""
"image-keyboard-response",572,453519,"0.0-4.186-2.186","wrqvq0tk9bzen12",752,"177.csv","","null","resources/images/coin2.png","null","",NA,NA,NA,NA,""
"image-keyboard-response",573,453777,"0.0-4.187-0.187","wrqvq0tk9bzen12",752,"177.csv","","257","resources/trios/L1T4A3.jpg","39","restless",0.6,0.5,0.6,0.845496021804005,"false"
"image-keyboard-response",574,454192,"0.0-4.187-1.187","wrqvq0tk9bzen12",752,"177.csv","","null","resources/maskTrios/BBA3.jpg","null","",NA,NA,NA,NA,""
"image-keyboard-response",575,455524,"0.0-4.187-2.187","wrqvq0tk9bzen12",752,"177.csv","","null","resources/images/fishbone.png","null","",NA,NA,NA,NA,""
"image-keyboard-response",576,455765,"0.0-4.188-0.188","wrqvq0tk9bzen12",752,"177.csv","","241","resources/trios/L1T4A3.jpg","37","restless",0.6,0.5,0.6,0.950318432491842,"false"
"image-keyboard-response",577,456179,"0.0-4.188-1.188","wrqvq0tk9bzen12",752,"177.csv","","null","resources/maskTrios/L1BB.jpg","null","",NA,NA,NA,NA,""
"image-keyboard-response",578,457539,"0.0-4.188-2.188","wrqvq0tk9bzen12",752,"177.csv","","null","resources/images/fishbone.png","null","",NA,NA,NA,NA,""
"image-keyboard-response",579,457755,"0.0-4.189-0.189","wrqvq0tk9bzen12",752,"177.csv","","215","resources/trios/L1T4A3.jpg","38","restless",0.6,0.5,0.6,0.881786659668694,"false"
"image-keyboard-response",580,458167,"0.0-4.189-1.189","wrqvq0tk9bzen12",752,"177.csv","","null","resources/maskTrios/BT4B.jpg","null","",NA,NA,NA,NA,""
"image-keyboard-response",581,459372,"0.0-4.189-2.189","wrqvq0tk9bzen12",752,"177.csv","","null","resources/images/fishbone.png","null","",NA,NA,NA,NA,""
"image-keyboard-response",582,459447,"0.0-4.190-0.190","wrqvq0tk9bzen12",752,"177.csv","","75","resources/trios/L1T4A3.jpg","39","restless",0.6,0.6,0.6,0.524814312891179,"true"
"image-keyboard-response",583,459853,"0.0-4.190-1.190","wrqvq0tk9bzen12",752,"177.csv","","null","resources/maskTrios/BBA3.jpg","null","",NA,NA,NA,NA,""
"image-keyboard-response",584,461101,"0.0-4.190-2.190","wrqvq0tk9bzen12",752,"177.csv","","null","resources/images/coin2.png","null","",NA,NA,NA,NA,""
"image-keyboard-response",585,461368,"0.0-4.191-0.191","wrqvq0tk9bzen12",752,"177.csv","","266","resources/trios/L1T4A3.jpg","39","restless",0.6,0.6,0.6,0.892586132011492,"false"
"image-keyboard-response",586,461778,"0.0-4.191-1.191","wrqvq0tk9bzen12",752,"177.csv","","null","resources/maskTrios/BBA3.jpg","null","",NA,NA,NA,NA,""
"image-keyboard-response",587,462979,"0.0-4.191-2.191","wrqvq0tk9bzen12",752,"177.csv","","null","resources/images/fishbone.png","null","",NA,NA,NA,NA,""
"image-keyboard-response",588,463389,"0.0-4.192-0.192","wrqvq0tk9bzen12",752,"177.csv","","409","resources/trios/L1T4A3.jpg","38","restless",0.6,0.6,0.6,0.266406161827928,"true"
"image-keyboard-response",589,463799,"0.0-4.192-1.192","wrqvq0tk9bzen12",752,"177.csv","","null","resources/maskTrios/BT4B.jpg","null","",NA,NA,NA,NA,""
"image-keyboard-response",590,465010,"0.0-4.192-2.192","wrqvq0tk9bzen12",752,"177.csv","","null","resources/images/coin2.png","null","",NA,NA,NA,NA,""
"image-keyboard-response",591,465224,"0.0-4.193-0.193","wrqvq0tk9bzen12",752,"177.csv","","213","resources/trios/L1T4A3.jpg","38","restless",0.6,0.6,0.6,0.266547715158818,"true"
"image-keyboard-response",592,465627,"0.0-4.193-1.193","wrqvq0tk9bzen12",752,"177.csv","","null","resources/maskTrios/BT4B.jpg","null","",NA,NA,NA,NA,""
"image-keyboard-response",593,466829,"0.0-4.193-2.193","wrqvq0tk9bzen12",752,"177.csv","","null","resources/images/coin2.png","null","",NA,NA,NA,NA,""
"image-keyboard-response",594,466958,"0.0-4.194-0.194","wrqvq0tk9bzen12",752,"177.csv","","128","resources/trios/L1T4A3.jpg","38","restless",0.6,0.6,0.6,0.243922497759303,"true"
"image-keyboard-response",595,467361,"0.0-4.194-1.194","wrqvq0tk9bzen12",752,"177.csv","","null","resources/maskTrios/BT4B.jpg","null","",NA,NA,NA,NA,""
"image-keyboard-response",596,468570,"0.0-4.194-2.194","wrqvq0tk9bzen12",752,"177.csv","","null","resources/images/coin2.png","null","",NA,NA,NA,NA,""
"image-keyboard-response",597,468588,"0.0-4.195-0.195","wrqvq0tk9bzen12",752,"177.csv","","18","resources/trios/L1T4A3.jpg","38","restless",0.6,0.6,0.6,0.471612951887392,"true"
"image-keyboard-response",598,468999,"0.0-4.195-1.195","wrqvq0tk9bzen12",752,"177.csv","","null","resources/maskTrios/BT4B.jpg","null","",NA,NA,NA,NA,""
"image-keyboard-response",599,470203,"0.0-4.195-2.195","wrqvq0tk9bzen12",752,"177.csv","","null","resources/images/coin2.png","null","",NA,NA,NA,NA,""
"image-keyboard-response",600,470397,"0.0-4.196-0.196","wrqvq0tk9bzen12",752,"177.csv","","193","resources/trios/L1T4A3.jpg","38","restless",0.6,0.6,0.6,0.684504714491389,"false"
"image-keyboard-response",601,470802,"0.0-4.196-1.196","wrqvq0tk9bzen12",752,"177.csv","","null","resources/maskTrios/BT4B.jpg","null","",NA,NA,NA,NA,""
"image-keyboard-response",602,472003,"0.0-4.196-2.196","wrqvq0tk9bzen12",752,"177.csv","","null","resources/images/fishbone.png","null","",NA,NA,NA,NA,""
"image-keyboard-response",603,472245,"0.0-4.197-0.197","wrqvq0tk9bzen12",752,"177.csv","","242","resources/trios/L1T4A3.jpg","37","restless",0.6,0.6,0.6,0.0379652514905834,"true"
"image-keyboard-response",604,472647,"0.0-4.197-1.197","wrqvq0tk9bzen12",752,"177.csv","","null","resources/maskTrios/L1BB.jpg","null","",NA,NA,NA,NA,""
"image-keyboard-response",605,473852,"0.0-4.197-2.197","wrqvq0tk9bzen12",752,"177.csv","","null","resources/images/coin2.png","null","",NA,NA,NA,NA,""
"image-keyboard-response",606,474032,"0.0-4.198-0.198","wrqvq0tk9bzen12",752,"177.csv","","180","resources/trios/L1T4A3.jpg","37","restless",0.5,0.6,0.6,0.675755785401485,"false"
"image-keyboard-response",607,474438,"0.0-4.198-1.198","wrqvq0tk9bzen12",752,"177.csv","","null","resources/maskTrios/L1BB.jpg","null","",NA,NA,NA,NA,""
"image-keyboard-response",608,475640,"0.0-4.198-2.198","wrqvq0tk9bzen12",752,"177.csv","","null","resources/images/fishbone.png","null","",NA,NA,NA,NA,""
"image-keyboard-response",609,475687,"0.0-4.199-0.199","wrqvq0tk9bzen12",752,"177.csv","","48","resources/trios/L1T4A3.jpg","39","restless",0.4,0.6,0.6,0.511192046053109,"true"
"image-keyboard-response",610,476130,"0.0-4.199-1.199","wrqvq0tk9bzen12",752,"177.csv","","null","resources/maskTrios/BBA3.jpg","null","",NA,NA,NA,NA,""
"image-keyboard-response",611,477345,"0.0-4.199-2.199","wrqvq0tk9bzen12",752,"177.csv","","null","resources/images/coin2.png","null","",NA,NA,NA,NA,""
"survey-text",612,542042,"0.0-5.0","wrqvq0tk9bzen12",752,"177.csv","","64694","","","",NA,NA,NA,NA,""
