"trial_type","trial_index","time_elapsed","internal_node_id","subject","participantCode","walkNumber","success","rt","stimulus","key_press","test_part","leftProb","midProb","rightProb","generatedNum","correct"
"pavlovia",0,1017,"0.0-0.0","xx05mhc30vz7kwv",45,"86.csv","","","","","",NA,NA,NA,NA,""
"fullscreen",1,7197,"0.0-1.0","xx05mhc30vz7kwv",45,"86.csv","true","","","","",NA,NA,NA,NA,""
"survey-html-form",2,14337,"0.0-2.0","xx05mhc30vz7kwv",45,"86.csv","","7133.4000000059605","","","",NA,NA,NA,NA,""
"image-keyboard-response",3,25008,"0.0-3.0-0.0","xx05mhc30vz7kwv",45,"86.csv","","10666.39999999106","resources/images/parrot_nobg.png","13","",NA,NA,NA,NA,""
"image-keyboard-response",4,28013,"0.0-3.0-1.0","xx05mhc30vz7kwv",45,"86.csv","","null","resources/image_sets/111.png","null","",NA,NA,NA,NA,""
"image-keyboard-response",5,31025,"0.0-3.0-2.0","xx05mhc30vz7kwv",45,"86.csv","","3010.2999999970198","resources/image_sets/left_highlight.png","37","",NA,NA,NA,NA,""
"image-keyboard-response",6,33587,"0.0-3.0-3.0","xx05mhc30vz7kwv",45,"86.csv","","2558.9000000059605","resources/image_sets/mid_highlight.png","38","",NA,NA,NA,NA,""
"image-keyboard-response",7,34752,"0.0-3.0-4.0","xx05mhc30vz7kwv",45,"86.csv","","1162.7000000029802","resources/image_sets/right_highlight.png","39","",NA,NA,NA,NA,""
"image-keyboard-response",8,38475,"0.0-3.0-5.0","xx05mhc30vz7kwv",45,"86.csv","","3720.9000000059605","resources/image_sets/111.png","13","",NA,NA,NA,NA,""
"image-keyboard-response",9,42607,"0.0-3.0-6.0","xx05mhc30vz7kwv",45,"86.csv","","4130.5","resources/images/coin2.png","13","",NA,NA,NA,NA,""
"image-keyboard-response",10,43813,"0.0-3.0-7.0","xx05mhc30vz7kwv",45,"86.csv","","1204.5","resources/images/fishbone.png","13","",NA,NA,NA,NA,""
"html-keyboard-response",11,50390,"0.0-3.0-8.0","xx05mhc30vz7kwv",45,"86.csv","","6580.4000000059605","<p>You can track your coin total on the top right of your screen. </p><p>At the end of your journey you will be directed to a survey, so please click on the link before exiting the task</p><p>Press Enter to begin</p>","13","",NA,NA,NA,NA,""
"image-keyboard-response",12,52162,"0.0-4.0-0.0","xx05mhc30vz7kwv",45,"86.csv","","1770.300000011921","resources/trios/L1T2A3.jpg","38","restless",0.3,0.7,0.9,0.160028218428424,"true"
"image-keyboard-response",13,52576,"0.0-4.0-1.0","xx05mhc30vz7kwv",45,"86.csv","","null","resources/maskTrios/BT2B.jpg","null","",NA,NA,NA,NA,""
"image-keyboard-response",14,53793,"0.0-4.0-2.0","xx05mhc30vz7kwv",45,"86.csv","","null","resources/images/coin2.png","null","",NA,NA,NA,NA,""
"image-keyboard-response",15,54345,"0.0-4.1-0.1","xx05mhc30vz7kwv",45,"86.csv","","549.2000000029802","resources/trios/L1T2A3.jpg","39","restless",0.3,0.7,0.9,0.0354027288307506,"true"
"image-keyboard-response",16,54758,"0.0-4.1-1.1","xx05mhc30vz7kwv",45,"86.csv","","null","resources/maskTrios/BBA3.jpg","null","",NA,NA,NA,NA,""
"image-keyboard-response",17,55964,"0.0-4.1-2.1","xx05mhc30vz7kwv",45,"86.csv","","null","resources/images/coin2.png","null","",NA,NA,NA,NA,""
"image-keyboard-response",18,56761,"0.0-4.2-0.2","xx05mhc30vz7kwv",45,"86.csv","","794.5","resources/trios/L1T2A3.jpg","38","restless",0.3,0.8,0.9,0.0268395223813698,"true"
"image-keyboard-response",19,57174,"0.0-4.2-1.2","xx05mhc30vz7kwv",45,"86.csv","","null","resources/maskTrios/BT2B.jpg","null","",NA,NA,NA,NA,""
"image-keyboard-response",20,58393,"0.0-4.2-2.2","xx05mhc30vz7kwv",45,"86.csv","","null","resources/images/coin2.png","null","",NA,NA,NA,NA,""
"image-keyboard-response",21,58673,"0.0-4.3-0.3","xx05mhc30vz7kwv",45,"86.csv","","277","resources/trios/L1T2A3.jpg","37","restless",0.3,0.8,0.9,0.893003341100409,"false"
"image-keyboard-response",22,59087,"0.0-4.3-1.3","xx05mhc30vz7kwv",45,"86.csv","","null","resources/maskTrios/L1BB.jpg","null","",NA,NA,NA,NA,""
"image-keyboard-response",23,60292,"0.0-4.3-2.3","xx05mhc30vz7kwv",45,"86.csv","","null","resources/images/fishbone.png","null","",NA,NA,NA,NA,""
"image-keyboard-response",24,60594,"0.0-4.4-0.4","xx05mhc30vz7kwv",45,"86.csv","","299.40000000596046","resources/trios/L1T2A3.jpg","37","restless",0.3,0.8,0.9,0.0236572382563107,"true"
"image-keyboard-response",25,61002,"0.0-4.4-1.4","xx05mhc30vz7kwv",45,"86.csv","","null","resources/maskTrios/L1BB.jpg","null","",NA,NA,NA,NA,""
"image-keyboard-response",26,62207,"0.0-4.4-2.4","xx05mhc30vz7kwv",45,"86.csv","","null","resources/images/coin2.png","null","",NA,NA,NA,NA,""
"image-keyboard-response",27,62632,"0.0-4.5-0.5","xx05mhc30vz7kwv",45,"86.csv","","421.8999999910593","resources/trios/L1T2A3.jpg","39","restless",0.3,0.8,0.9,0.398413616570768,"true"
"image-keyboard-response",28,63042,"0.0-4.5-1.5","xx05mhc30vz7kwv",45,"86.csv","","null","resources/maskTrios/BBA3.jpg","null","",NA,NA,NA,NA,""
"image-keyboard-response",29,64255,"0.0-4.5-2.5","xx05mhc30vz7kwv",45,"86.csv","","null","resources/images/coin2.png","null","",NA,NA,NA,NA,""
"image-keyboard-response",30,65029,"0.0-4.6-0.6","xx05mhc30vz7kwv",45,"86.csv","","771.7999999970198","resources/trios/L1T2A3.jpg","39","restless",0.4,0.8,0.9,0.821540310174508,"true"
"image-keyboard-response",31,65440,"0.0-4.6-1.6","xx05mhc30vz7kwv",45,"86.csv","","null","resources/maskTrios/BBA3.jpg","null","",NA,NA,NA,NA,""
"image-keyboard-response",32,66651,"0.0-4.6-2.6","xx05mhc30vz7kwv",45,"86.csv","","null","resources/images/coin2.png","null","",NA,NA,NA,NA,""
"image-keyboard-response",33,67224,"0.0-4.7-0.7","xx05mhc30vz7kwv",45,"86.csv","","570.4000000059605","resources/trios/L1T2A3.jpg","37","restless",0.4,0.8,0.9,0.899719762730403,"false"
"image-keyboard-response",34,67629,"0.0-4.7-1.7","xx05mhc30vz7kwv",45,"86.csv","","null","resources/maskTrios/L1BB.jpg","null","",NA,NA,NA,NA,""
"image-keyboard-response",35,68839,"0.0-4.7-2.7","xx05mhc30vz7kwv",45,"86.csv","","null","resources/images/fishbone.png","null","",NA,NA,NA,NA,""
"image-keyboard-response",36,69180,"0.0-4.8-0.8","xx05mhc30vz7kwv",45,"86.csv","","338.59999999403954","resources/trios/L1T2A3.jpg","37","restless",0.4,0.8,0.9,0.037099138119592,"true"
"image-keyboard-response",37,69594,"0.0-4.8-1.8","xx05mhc30vz7kwv",45,"86.csv","","null","resources/maskTrios/L1BB.jpg","null","",NA,NA,NA,NA,""
"image-keyboard-response",38,70807,"0.0-4.8-2.8","xx05mhc30vz7kwv",45,"86.csv","","null","resources/images/coin2.png","null","",NA,NA,NA,NA,""
"image-keyboard-response",39,71105,"0.0-4.9-0.9","xx05mhc30vz7kwv",45,"86.csv","","296.09999999403954","resources/trios/L1T2A3.jpg","38","restless",0.4,0.8,0.9,0.767902837488886,"true"
"image-keyboard-response",40,71524,"0.0-4.9-1.9","xx05mhc30vz7kwv",45,"86.csv","","null","resources/maskTrios/BT2B.jpg","null","",NA,NA,NA,NA,""
"image-keyboard-response",41,72739,"0.0-4.9-2.9","xx05mhc30vz7kwv",45,"86.csv","","null","resources/images/coin2.png","null","",NA,NA,NA,NA,""
"image-keyboard-response",42,73028,"0.0-4.10-0.10","xx05mhc30vz7kwv",45,"86.csv","","286.19999998807907","resources/trios/L1T2A3.jpg","39","restless",0.4,0.8,0.9,0.930373525752386,"false"
"image-keyboard-response",43,73440,"0.0-4.10-1.10","xx05mhc30vz7kwv",45,"86.csv","","null","resources/maskTrios/BBA3.jpg","null","",NA,NA,NA,NA,""
"image-keyboard-response",44,74645,"0.0-4.10-2.10","xx05mhc30vz7kwv",45,"86.csv","","null","resources/images/fishbone.png","null","",NA,NA,NA,NA,""
"image-keyboard-response",45,75009,"0.0-4.11-0.11","xx05mhc30vz7kwv",45,"86.csv","","361.19999998807907","resources/trios/L1T2A3.jpg","39","restless",0.4,0.7,0.9,0.798636193889722,"true"
"image-keyboard-response",46,75422,"0.0-4.11-1.11","xx05mhc30vz7kwv",45,"86.csv","","null","resources/maskTrios/BBA3.jpg","null","",NA,NA,NA,NA,""
"image-keyboard-response",47,76631,"0.0-4.11-2.11","xx05mhc30vz7kwv",45,"86.csv","","null","resources/images/coin2.png","null","",NA,NA,NA,NA,""
"image-keyboard-response",48,77388,"0.0-4.12-0.12","xx05mhc30vz7kwv",45,"86.csv","","753.7999999970198","resources/trios/L1T2A3.jpg","37","restless",0.4,0.7,0.9,0.866419144751645,"false"
"image-keyboard-response",49,77802,"0.0-4.12-1.12","xx05mhc30vz7kwv",45,"86.csv","","null","resources/maskTrios/L1BB.jpg","null","",NA,NA,NA,NA,""
"image-keyboard-response",50,79007,"0.0-4.12-2.12","xx05mhc30vz7kwv",45,"86.csv","","null","resources/images/fishbone.png","null","",NA,NA,NA,NA,""
"image-keyboard-response",51,79291,"0.0-4.13-0.13","xx05mhc30vz7kwv",45,"86.csv","","281.20000000298023","resources/trios/L1T2A3.jpg","37","restless",0.4,0.7,0.9,0.473146269959561,"false"
"image-keyboard-response",52,79700,"0.0-4.13-1.13","xx05mhc30vz7kwv",45,"86.csv","","null","resources/maskTrios/L1BB.jpg","null","",NA,NA,NA,NA,""
"image-keyboard-response",53,80912,"0.0-4.13-2.13","xx05mhc30vz7kwv",45,"86.csv","","null","resources/images/fishbone.png","null","",NA,NA,NA,NA,""
"image-keyboard-response",54,81217,"0.0-4.14-0.14","xx05mhc30vz7kwv",45,"86.csv","","302","resources/trios/L1T2A3.jpg","37","restless",0.4,0.7,0.9,0.395493975254421,"true"
"image-keyboard-response",55,81632,"0.0-4.14-1.14","xx05mhc30vz7kwv",45,"86.csv","","null","resources/maskTrios/L1BB.jpg","null","",NA,NA,NA,NA,""
"image-keyboard-response",56,82846,"0.0-4.14-2.14","xx05mhc30vz7kwv",45,"86.csv","","null","resources/images/coin2.png","null","",NA,NA,NA,NA,""
"image-keyboard-response",57,83081,"0.0-4.15-0.15","xx05mhc30vz7kwv",45,"86.csv","","232.40000000596046","resources/trios/L1T2A3.jpg","39","restless",0.4,0.7,0.9,0.994183099871263,"false"
"image-keyboard-response",58,83489,"0.0-4.15-1.15","xx05mhc30vz7kwv",45,"86.csv","","null","resources/maskTrios/BBA3.jpg","null","",NA,NA,NA,NA,""
"image-keyboard-response",59,84694,"0.0-4.15-2.15","xx05mhc30vz7kwv",45,"86.csv","","null","resources/images/fishbone.png","null","",NA,NA,NA,NA,""
"image-keyboard-response",60,84833,"0.0-4.16-0.16","xx05mhc30vz7kwv",45,"86.csv","","136.8999999910593","resources/trios/L1T2A3.jpg","37","restless",0.4,0.7,0.8,0.80626929750103,"false"
"image-keyboard-response",61,85237,"0.0-4.16-1.16","xx05mhc30vz7kwv",45,"86.csv","","null","resources/maskTrios/L1BB.jpg","null","",NA,NA,NA,NA,""
"image-keyboard-response",62,86442,"0.0-4.16-2.16","xx05mhc30vz7kwv",45,"86.csv","","null","resources/images/fishbone.png","null","",NA,NA,NA,NA,""
"image-keyboard-response",63,86702,"0.0-4.17-0.17","xx05mhc30vz7kwv",45,"86.csv","","257.8999999910593","resources/trios/L1T2A3.jpg","38","restless",0.4,0.7,0.8,0.888355046049466,"false"
"image-keyboard-response",64,87118,"0.0-4.17-1.17","xx05mhc30vz7kwv",45,"86.csv","","null","resources/maskTrios/BT2B.jpg","null","",NA,NA,NA,NA,""
"image-keyboard-response",65,88323,"0.0-4.17-2.17","xx05mhc30vz7kwv",45,"86.csv","","null","resources/images/fishbone.png","null","",NA,NA,NA,NA,""
"image-keyboard-response",66,88626,"0.0-4.18-0.18","xx05mhc30vz7kwv",45,"86.csv","","300.90000000596046","resources/trios/L1T2A3.jpg","39","restless",0.4,0.7,0.8,0.291883011117288,"true"
"image-keyboard-response",67,89033,"0.0-4.18-1.18","xx05mhc30vz7kwv",45,"86.csv","","null","resources/maskTrios/BBA3.jpg","null","",NA,NA,NA,NA,""
"image-keyboard-response",68,90243,"0.0-4.18-2.18","xx05mhc30vz7kwv",45,"86.csv","","null","resources/images/coin2.png","null","",NA,NA,NA,NA,""
"image-keyboard-response",69,90568,"0.0-4.19-0.19","xx05mhc30vz7kwv",45,"86.csv","","321.90000000596046","resources/trios/L1T2A3.jpg","38","restless",0.3,0.7,0.8,0.150316745662384,"true"
"image-keyboard-response",70,90973,"0.0-4.19-1.19","xx05mhc30vz7kwv",45,"86.csv","","null","resources/maskTrios/BT2B.jpg","null","",NA,NA,NA,NA,""
"image-keyboard-response",71,92178,"0.0-4.19-2.19","xx05mhc30vz7kwv",45,"86.csv","","null","resources/images/coin2.png","null","",NA,NA,NA,NA,""
"image-keyboard-response",72,92432,"0.0-4.20-0.20","xx05mhc30vz7kwv",45,"86.csv","","250.09999999403954","resources/trios/L1T2A3.jpg","39","restless",0.3,0.6,0.8,0.74984606629805,"true"
"image-keyboard-response",73,92845,"0.0-4.20-1.20","xx05mhc30vz7kwv",45,"86.csv","","null","resources/maskTrios/BBA3.jpg","null","",NA,NA,NA,NA,""
"image-keyboard-response",74,94051,"0.0-4.20-2.20","xx05mhc30vz7kwv",45,"86.csv","","null","resources/images/coin2.png","null","",NA,NA,NA,NA,""
"image-keyboard-response",75,94323,"0.0-4.21-0.21","xx05mhc30vz7kwv",45,"86.csv","","270.09999999403954","resources/trios/L1T2A3.jpg","37","restless",0.3,0.6,0.8,0.833402785489223,"false"
"image-keyboard-response",76,94728,"0.0-4.21-1.21","xx05mhc30vz7kwv",45,"86.csv","","null","resources/maskTrios/L1BB.jpg","null","",NA,NA,NA,NA,""
"image-keyboard-response",77,95932,"0.0-4.21-2.21","xx05mhc30vz7kwv",45,"86.csv","","null","resources/images/fishbone.png","null","",NA,NA,NA,NA,""
"image-keyboard-response",78,96156,"0.0-4.22-0.22","xx05mhc30vz7kwv",45,"86.csv","","221","resources/trios/L1T2A3.jpg","37","restless",0.3,0.6,0.7,0.170411356273277,"true"
"image-keyboard-response",79,96568,"0.0-4.22-1.22","xx05mhc30vz7kwv",45,"86.csv","","null","resources/maskTrios/L1BB.jpg","null","",NA,NA,NA,NA,""
"image-keyboard-response",80,97780,"0.0-4.22-2.22","xx05mhc30vz7kwv",45,"86.csv","","null","resources/images/coin2.png","null","",NA,NA,NA,NA,""
"image-keyboard-response",81,98111,"0.0-4.23-0.23","xx05mhc30vz7kwv",45,"86.csv","","328.70000000298023","resources/trios/L1T2A3.jpg","38","restless",0.3,0.6,0.7,0.854686653741975,"false"
"image-keyboard-response",82,98522,"0.0-4.23-1.23","xx05mhc30vz7kwv",45,"86.csv","","null","resources/maskTrios/BT2B.jpg","null","",NA,NA,NA,NA,""
"image-keyboard-response",83,99728,"0.0-4.23-2.23","xx05mhc30vz7kwv",45,"86.csv","","null","resources/images/fishbone.png","null","",NA,NA,NA,NA,""
"image-keyboard-response",84,100018,"0.0-4.24-0.24","xx05mhc30vz7kwv",45,"86.csv","","288.20000000298023","resources/trios/L1T2A3.jpg","39","restless",0.3,0.6,0.7,0.65190666449586,"true"
"image-keyboard-response",85,100430,"0.0-4.24-1.24","xx05mhc30vz7kwv",45,"86.csv","","null","resources/maskTrios/BBA3.jpg","null","",NA,NA,NA,NA,""
"image-keyboard-response",86,101643,"0.0-4.24-2.24","xx05mhc30vz7kwv",45,"86.csv","","null","resources/images/coin2.png","null","",NA,NA,NA,NA,""
"image-keyboard-response",87,102535,"0.0-4.25-0.25","xx05mhc30vz7kwv",45,"86.csv","","888.7000000029802","resources/trios/L1T2A3.jpg","38","restless",0.3,0.6,0.7,0.366472297659981,"true"
"image-keyboard-response",88,102945,"0.0-4.25-1.25","xx05mhc30vz7kwv",45,"86.csv","","null","resources/maskTrios/BT2B.jpg","null","",NA,NA,NA,NA,""
"image-keyboard-response",89,104150,"0.0-4.25-2.25","xx05mhc30vz7kwv",45,"86.csv","","null","resources/images/coin2.png","null","",NA,NA,NA,NA,""
"image-keyboard-response",90,104241,"0.0-4.26-0.26","xx05mhc30vz7kwv",45,"86.csv","","88.40000000596046","resources/trios/L1T2A3.jpg","37","restless",0.3,0.6,0.7,0.742185960621578,"false"
"image-keyboard-response",91,104651,"0.0-4.26-1.26","xx05mhc30vz7kwv",45,"86.csv","","null","resources/maskTrios/L1BB.jpg","null","",NA,NA,NA,NA,""
"image-keyboard-response",92,105864,"0.0-4.26-2.26","xx05mhc30vz7kwv",45,"86.csv","","null","resources/images/fishbone.png","null","",NA,NA,NA,NA,""
"image-keyboard-response",93,106012,"0.0-4.27-0.27","xx05mhc30vz7kwv",45,"86.csv","","145.70000000298023","resources/trios/L1T2A3.jpg","37","restless",0.3,0.6,0.7,0.381928245566433,"false"
"image-keyboard-response",94,106416,"0.0-4.27-1.27","xx05mhc30vz7kwv",45,"86.csv","","null","resources/maskTrios/L1BB.jpg","null","",NA,NA,NA,NA,""
"image-keyboard-response",95,107621,"0.0-4.27-2.27","xx05mhc30vz7kwv",45,"86.csv","","null","resources/images/fishbone.png","null","",NA,NA,NA,NA,""
"image-keyboard-response",96,107885,"0.0-4.28-0.28","xx05mhc30vz7kwv",45,"86.csv","","261","resources/trios/L1T2A3.jpg","39","restless",0.3,0.6,0.7,0.242915556870683,"true"
"image-keyboard-response",97,108288,"0.0-4.28-1.28","xx05mhc30vz7kwv",45,"86.csv","","null","resources/maskTrios/BBA3.jpg","null","",NA,NA,NA,NA,""
"image-keyboard-response",98,109501,"0.0-4.28-2.28","xx05mhc30vz7kwv",45,"86.csv","","null","resources/images/coin2.png","null","",NA,NA,NA,NA,""
"image-keyboard-response",99,110324,"0.0-4.29-0.29","xx05mhc30vz7kwv",45,"86.csv","","820","resources/trios/L1T2A3.jpg","38","restless",0.3,0.6,0.7,0.579716426784179,"true"
"image-keyboard-response",100,110735,"0.0-4.29-1.29","xx05mhc30vz7kwv",45,"86.csv","","null","resources/maskTrios/BT2B.jpg","null","",NA,NA,NA,NA,""
"image-keyboard-response",101,111946,"0.0-4.29-2.29","xx05mhc30vz7kwv",45,"86.csv","","null","resources/images/coin2.png","null","",NA,NA,NA,NA,""
"image-keyboard-response",102,114053,"0.0-4.30-0.30","xx05mhc30vz7kwv",45,"86.csv","","2104","resources/trios/L1T2A3.jpg","37","restless",0.3,0.5,0.7,0.0917432086776195,"true"
"image-keyboard-response",103,114471,"0.0-4.30-1.30","xx05mhc30vz7kwv",45,"86.csv","","null","resources/maskTrios/L1BB.jpg","null","",NA,NA,NA,NA,""
"image-keyboard-response",104,115683,"0.0-4.30-2.30","xx05mhc30vz7kwv",45,"86.csv","","null","resources/images/coin2.png","null","",NA,NA,NA,NA,""
"image-keyboard-response",105,124058,"0.0-4.31-0.31","xx05mhc30vz7kwv",45,"86.csv","","8372.20000000298","resources/trios/L1T2A3.jpg","38","restless",0.3,0.5,0.7,0.545584404541276,"false"
"image-keyboard-response",106,124462,"0.0-4.31-1.31","xx05mhc30vz7kwv",45,"86.csv","","null","resources/maskTrios/BT2B.jpg","null","",NA,NA,NA,NA,""
"image-keyboard-response",107,125674,"0.0-4.31-2.31","xx05mhc30vz7kwv",45,"86.csv","","null","resources/images/fishbone.png","null","",NA,NA,NA,NA,""
"image-keyboard-response",108,127048,"0.0-4.32-0.32","xx05mhc30vz7kwv",45,"86.csv","","1371","resources/trios/L1T2A3.jpg","39","restless",0.3,0.5,0.7,0.846122342223011,"false"
"image-keyboard-response",109,127460,"0.0-4.32-1.32","xx05mhc30vz7kwv",45,"86.csv","","null","resources/maskTrios/BBA3.jpg","null","",NA,NA,NA,NA,""
"image-keyboard-response",110,128666,"0.0-4.32-2.32","xx05mhc30vz7kwv",45,"86.csv","","null","resources/images/fishbone.png","null","",NA,NA,NA,NA,""
"image-keyboard-response",111,129336,"0.0-4.33-0.33","xx05mhc30vz7kwv",45,"86.csv","","667.4000000059605","resources/trios/L1T2A3.jpg","37","restless",0.3,0.4,0.7,0.00981344648774174,"true"
"image-keyboard-response",112,129739,"0.0-4.33-1.33","xx05mhc30vz7kwv",45,"86.csv","","null","resources/maskTrios/L1BB.jpg","null","",NA,NA,NA,NA,""
"image-keyboard-response",113,130945,"0.0-4.33-2.33","xx05mhc30vz7kwv",45,"86.csv","","null","resources/images/coin2.png","null","",NA,NA,NA,NA,""
"image-keyboard-response",114,133276,"0.0-4.34-0.34","xx05mhc30vz7kwv",45,"86.csv","","2328","resources/trios/L1T2A3.jpg","39","restless",0.3,0.4,0.7,0.851243487888593,"false"
"image-keyboard-response",115,133688,"0.0-4.34-1.34","xx05mhc30vz7kwv",45,"86.csv","","null","resources/maskTrios/BBA3.jpg","null","",NA,NA,NA,NA,""
"image-keyboard-response",116,134893,"0.0-4.34-2.34","xx05mhc30vz7kwv",45,"86.csv","","null","resources/images/fishbone.png","null","",NA,NA,NA,NA,""
"image-keyboard-response",117,150597,"0.0-4.35-0.35","xx05mhc30vz7kwv",45,"86.csv","","15701.5","resources/trios/L1T2A3.jpg","39","restless",0.3,0.4,0.7,0.929055099252326,"false"
"image-keyboard-response",118,151003,"0.0-4.35-1.35","xx05mhc30vz7kwv",45,"86.csv","","null","resources/maskTrios/BBA3.jpg","null","",NA,NA,NA,NA,""
"image-keyboard-response",119,152215,"0.0-4.35-2.35","xx05mhc30vz7kwv",45,"86.csv","","null","resources/images/fishbone.png","null","",NA,NA,NA,NA,""
"image-keyboard-response",120,153139,"0.0-4.36-0.36","xx05mhc30vz7kwv",45,"86.csv","","921.1999999880791","resources/trios/L1T2A3.jpg","37","restless",0.3,0.4,0.7,0.864757896212223,"false"
"image-keyboard-response",121,153543,"0.0-4.36-1.36","xx05mhc30vz7kwv",45,"86.csv","","null","resources/maskTrios/L1BB.jpg","null","",NA,NA,NA,NA,""
"image-keyboard-response",122,154752,"0.0-4.36-2.36","xx05mhc30vz7kwv",45,"86.csv","","null","resources/images/fishbone.png","null","",NA,NA,NA,NA,""
"image-keyboard-response",123,155528,"0.0-4.37-0.37","xx05mhc30vz7kwv",45,"86.csv","","773.7000000029802","resources/trios/L1T2A3.jpg","38","restless",0.3,0.4,0.6,0.276666063272918,"true"
"image-keyboard-response",124,155939,"0.0-4.37-1.37","xx05mhc30vz7kwv",45,"86.csv","","null","resources/maskTrios/BT2B.jpg","null","",NA,NA,NA,NA,""
"image-keyboard-response",125,157152,"0.0-4.37-2.37","xx05mhc30vz7kwv",45,"86.csv","","null","resources/images/coin2.png","null","",NA,NA,NA,NA,""
"image-keyboard-response",126,157188,"0.0-4.38-0.38","xx05mhc30vz7kwv",45,"86.csv","","33.6000000089407","resources/trios/L1T2A3.jpg","39","restless",0.3,0.5,0.6,0.254044927044009,"true"
"image-keyboard-response",127,157603,"0.0-4.38-1.38","xx05mhc30vz7kwv",45,"86.csv","","null","resources/maskTrios/BBA3.jpg","null","",NA,NA,NA,NA,""
"image-keyboard-response",128,158817,"0.0-4.38-2.38","xx05mhc30vz7kwv",45,"86.csv","","null","resources/images/coin2.png","null","",NA,NA,NA,NA,""
"image-keyboard-response",129,159345,"0.0-4.39-0.39","xx05mhc30vz7kwv",45,"86.csv","","525.2999999970198","resources/trios/L1T2A3.jpg","37","restless",0.3,0.5,0.6,0.842075809479666,"false"
"image-keyboard-response",130,159754,"0.0-4.39-1.39","xx05mhc30vz7kwv",45,"86.csv","","null","resources/maskTrios/L1BB.jpg","null","",NA,NA,NA,NA,""
"image-keyboard-response",131,160958,"0.0-4.39-2.39","xx05mhc30vz7kwv",45,"86.csv","","null","resources/images/fishbone.png","null","",NA,NA,NA,NA,""
"image-keyboard-response",132,161361,"0.0-4.40-0.40","xx05mhc30vz7kwv",45,"86.csv","","400.19999998807907","resources/trios/L1T2A3.jpg","39","restless",0.3,0.5,0.6,0.750525659878934,"false"
"image-keyboard-response",133,161777,"0.0-4.40-1.40","xx05mhc30vz7kwv",45,"86.csv","","null","resources/maskTrios/BBA3.jpg","null","",NA,NA,NA,NA,""
"image-keyboard-response",134,162991,"0.0-4.40-2.40","xx05mhc30vz7kwv",45,"86.csv","","null","resources/images/fishbone.png","null","",NA,NA,NA,NA,""
"image-keyboard-response",135,162994,"0.0-4.41-0.41","xx05mhc30vz7kwv",45,"86.csv","","0.29999999701976776","resources/trios/L1T2A3.jpg","37","restless",0.3,0.5,0.6,0.0361360583176913,"true"
"image-keyboard-response",136,163398,"0.0-4.41-1.41","xx05mhc30vz7kwv",45,"86.csv","","null","resources/maskTrios/L1BB.jpg","null","",NA,NA,NA,NA,""
"image-keyboard-response",137,164609,"0.0-4.41-2.41","xx05mhc30vz7kwv",45,"86.csv","","null","resources/images/coin2.png","null","",NA,NA,NA,NA,""
"image-keyboard-response",138,165945,"0.0-4.42-0.42","xx05mhc30vz7kwv",45,"86.csv","","1332.7999999970198","resources/trios/L1T2A3.jpg","38","restless",0.3,0.5,0.6,0.104420929020763,"true"
"image-keyboard-response",139,166360,"0.0-4.42-1.42","xx05mhc30vz7kwv",45,"86.csv","","null","resources/maskTrios/BT2B.jpg","null","",NA,NA,NA,NA,""
"image-keyboard-response",140,167567,"0.0-4.42-2.42","xx05mhc30vz7kwv",45,"86.csv","","null","resources/images/coin2.png","null","",NA,NA,NA,NA,""
"image-keyboard-response",141,168299,"0.0-4.43-0.43","xx05mhc30vz7kwv",45,"86.csv","","729.8000000119209","resources/trios/L1T2A3.jpg","39","restless",0.3,0.5,0.6,0.131855804841313,"true"
"image-keyboard-response",142,168711,"0.0-4.43-1.43","xx05mhc30vz7kwv",45,"86.csv","","null","resources/maskTrios/BBA3.jpg","null","",NA,NA,NA,NA,""
"image-keyboard-response",143,169917,"0.0-4.43-2.43","xx05mhc30vz7kwv",45,"86.csv","","null","resources/images/coin2.png","null","",NA,NA,NA,NA,""
"image-keyboard-response",144,171437,"0.0-4.44-0.44","xx05mhc30vz7kwv",45,"86.csv","","1527.9000000059605","resources/trios/L1T2A3.jpg","37","restless",0.3,0.4,0.6,0.533999288783572,"false"
"image-keyboard-response",145,171853,"0.0-4.44-1.44","xx05mhc30vz7kwv",45,"86.csv","","null","resources/maskTrios/L1BB.jpg","null","",NA,NA,NA,NA,""
"image-keyboard-response",146,173056,"0.0-4.44-2.44","xx05mhc30vz7kwv",45,"86.csv","","null","resources/images/fishbone.png","null","",NA,NA,NA,NA,""
"image-keyboard-response",147,176010,"0.0-4.45-0.45","xx05mhc30vz7kwv",45,"86.csv","","2951.7999999970198","resources/trios/L1T2A3.jpg","39","restless",0.3,0.4,0.6,0.353083799795626,"true"
"image-keyboard-response",148,176425,"0.0-4.45-1.45","xx05mhc30vz7kwv",45,"86.csv","","null","resources/maskTrios/BBA3.jpg","null","",NA,NA,NA,NA,""
"image-keyboard-response",149,177629,"0.0-4.45-2.45","xx05mhc30vz7kwv",45,"86.csv","","null","resources/images/coin2.png","null","",NA,NA,NA,NA,""
"image-keyboard-response",150,178336,"0.0-4.46-0.46","xx05mhc30vz7kwv",45,"86.csv","","705","resources/trios/L1T2A3.jpg","39","restless",0.3,0.4,0.6,0.141869469178256,"true"
"image-keyboard-response",151,178749,"0.0-4.46-1.46","xx05mhc30vz7kwv",45,"86.csv","","null","resources/maskTrios/BBA3.jpg","null","",NA,NA,NA,NA,""
"image-keyboard-response",152,179962,"0.0-4.46-2.46","xx05mhc30vz7kwv",45,"86.csv","","null","resources/images/coin2.png","null","",NA,NA,NA,NA,""
"image-keyboard-response",153,180417,"0.0-4.47-0.47","xx05mhc30vz7kwv",45,"86.csv","","452.59999999403954","resources/trios/L1T2A3.jpg","38","restless",0.3,0.4,0.6,0.869646037372095,"false"
"image-keyboard-response",154,180831,"0.0-4.47-1.47","xx05mhc30vz7kwv",45,"86.csv","","null","resources/maskTrios/BT2B.jpg","null","",NA,NA,NA,NA,""
"image-keyboard-response",155,182044,"0.0-4.47-2.47","xx05mhc30vz7kwv",45,"86.csv","","null","resources/images/fishbone.png","null","",NA,NA,NA,NA,""
"image-keyboard-response",156,182586,"0.0-4.48-0.48","xx05mhc30vz7kwv",45,"86.csv","","539.9000000059605","resources/trios/L1T2A3.jpg","37","restless",0.4,0.4,0.6,0.176728577393861,"true"
"image-keyboard-response",157,182996,"0.0-4.48-1.48","xx05mhc30vz7kwv",45,"86.csv","","null","resources/maskTrios/L1BB.jpg","null","",NA,NA,NA,NA,""
"image-keyboard-response",158,184208,"0.0-4.48-2.48","xx05mhc30vz7kwv",45,"86.csv","","null","resources/images/coin2.png","null","",NA,NA,NA,NA,""
"image-keyboard-response",159,185333,"0.0-4.49-0.49","xx05mhc30vz7kwv",45,"86.csv","","1124.0999999940395","resources/trios/L1T2A3.jpg","39","restless",0.4,0.4,0.6,0.793288862147094,"false"
"image-keyboard-response",160,185743,"0.0-4.49-1.49","xx05mhc30vz7kwv",45,"86.csv","","null","resources/maskTrios/BBA3.jpg","null","",NA,NA,NA,NA,""
"image-keyboard-response",161,186955,"0.0-4.49-2.49","xx05mhc30vz7kwv",45,"86.csv","","null","resources/images/fishbone.png","null","",NA,NA,NA,NA,""
"image-keyboard-response",162,187671,"0.0-4.50-0.50","xx05mhc30vz7kwv",45,"86.csv","","714","resources/trios/L1T2A3.jpg","37","restless",0.4,0.4,0.6,0.795725937796024,"false"
"image-keyboard-response",163,188087,"0.0-4.50-1.50","xx05mhc30vz7kwv",45,"86.csv","","null","resources/maskTrios/L1BB.jpg","null","",NA,NA,NA,NA,""
"image-keyboard-response",164,189302,"0.0-4.50-2.50","xx05mhc30vz7kwv",45,"86.csv","","null","resources/images/fishbone.png","null","",NA,NA,NA,NA,""
"image-keyboard-response",165,190941,"0.0-4.51-0.51","xx05mhc30vz7kwv",45,"86.csv","","1637","resources/trios/L1T2A3.jpg","39","restless",0.4,0.4,0.6,0.242599095308083,"true"
"image-keyboard-response",166,191357,"0.0-4.51-1.51","xx05mhc30vz7kwv",45,"86.csv","","null","resources/maskTrios/BBA3.jpg","null","",NA,NA,NA,NA,""
"image-keyboard-response",167,192573,"0.0-4.51-2.51","xx05mhc30vz7kwv",45,"86.csv","","null","resources/images/coin2.png","null","",NA,NA,NA,NA,""
"image-keyboard-response",168,192882,"0.0-4.52-0.52","xx05mhc30vz7kwv",45,"86.csv","","306.5","resources/trios/L1T2A3.jpg","38","restless",0.4,0.4,0.6,0.0441861883413235,"true"
"image-keyboard-response",169,193299,"0.0-4.52-1.52","xx05mhc30vz7kwv",45,"86.csv","","null","resources/maskTrios/BT2B.jpg","null","",NA,NA,NA,NA,""
"image-keyboard-response",170,194509,"0.0-4.52-2.52","xx05mhc30vz7kwv",45,"86.csv","","null","resources/images/coin2.png","null","",NA,NA,NA,NA,""
"image-keyboard-response",171,195033,"0.0-4.53-0.53","xx05mhc30vz7kwv",45,"86.csv","","521.6999999880791","resources/trios/L1T2A3.jpg","37","restless",0.5,0.5,0.6,0.807925471850366,"false"
"image-keyboard-response",172,195449,"0.0-4.53-1.53","xx05mhc30vz7kwv",45,"86.csv","","null","resources/maskTrios/L1BB.jpg","null","",NA,NA,NA,NA,""
"image-keyboard-response",173,196660,"0.0-4.53-2.53","xx05mhc30vz7kwv",45,"86.csv","","null","resources/images/fishbone.png","null","",NA,NA,NA,NA,""
"image-keyboard-response",174,197786,"0.0-4.54-0.54","xx05mhc30vz7kwv",45,"86.csv","","1123.2000000029802","resources/trios/L1T2A3.jpg","39","restless",0.5,0.5,0.7,0.159825767517707,"true"
"image-keyboard-response",175,198205,"0.0-4.54-1.54","xx05mhc30vz7kwv",45,"86.csv","","null","resources/maskTrios/BBA3.jpg","null","",NA,NA,NA,NA,""
"image-keyboard-response",176,199410,"0.0-4.54-2.54","xx05mhc30vz7kwv",45,"86.csv","","null","resources/images/coin2.png","null","",NA,NA,NA,NA,""
"image-keyboard-response",177,199905,"0.0-4.55-0.55","xx05mhc30vz7kwv",45,"86.csv","","492.20000000298023","resources/trios/L1T2A3.jpg","38","restless",0.5,0.5,0.6,0.604090649117629,"false"
"image-keyboard-response",178,200311,"0.0-4.55-1.55","xx05mhc30vz7kwv",45,"86.csv","","null","resources/maskTrios/BT2B.jpg","null","",NA,NA,NA,NA,""
"image-keyboard-response",179,201523,"0.0-4.55-2.55","xx05mhc30vz7kwv",45,"86.csv","","null","resources/images/fishbone.png","null","",NA,NA,NA,NA,""
"image-keyboard-response",180,201538,"0.0-4.56-0.56","xx05mhc30vz7kwv",45,"86.csv","","12.600000008940697","resources/trios/L1T2A3.jpg","37","restless",0.6,0.5,0.6,0.409695737839165,"true"
"image-keyboard-response",181,201943,"0.0-4.56-1.56","xx05mhc30vz7kwv",45,"86.csv","","null","resources/maskTrios/L1BB.jpg","null","",NA,NA,NA,NA,""
"image-keyboard-response",182,203148,"0.0-4.56-2.56","xx05mhc30vz7kwv",45,"86.csv","","null","resources/images/coin2.png","null","",NA,NA,NA,NA,""
"image-keyboard-response",183,206443,"0.0-4.57-0.57","xx05mhc30vz7kwv",45,"86.csv","","3292","resources/trios/L1T2A3.jpg","39","restless",0.6,0.5,0.6,0.808320949697815,"false"
"image-keyboard-response",184,206857,"0.0-4.57-1.57","xx05mhc30vz7kwv",45,"86.csv","","null","resources/maskTrios/BBA3.jpg","null","",NA,NA,NA,NA,""
"image-keyboard-response",185,208069,"0.0-4.57-2.57","xx05mhc30vz7kwv",45,"86.csv","","null","resources/images/fishbone.png","null","",NA,NA,NA,NA,""
"image-keyboard-response",186,208714,"0.0-4.58-0.58","xx05mhc30vz7kwv",45,"86.csv","","643.2000000029802","resources/trios/L1T2A3.jpg","38","restless",0.6,0.5,0.6,0.787422819645177,"false"
"image-keyboard-response",187,209126,"0.0-4.58-1.58","xx05mhc30vz7kwv",45,"86.csv","","null","resources/maskTrios/BT2B.jpg","null","",NA,NA,NA,NA,""
"image-keyboard-response",188,210340,"0.0-4.58-2.58","xx05mhc30vz7kwv",45,"86.csv","","null","resources/images/fishbone.png","null","",NA,NA,NA,NA,""
"image-keyboard-response",189,211157,"0.0-4.59-0.59","xx05mhc30vz7kwv",45,"86.csv","","813.1999999880791","resources/trios/L1T2A3.jpg","37","restless",0.6,0.5,0.6,0.389839266939992,"true"
"image-keyboard-response",190,211572,"0.0-4.59-1.59","xx05mhc30vz7kwv",45,"86.csv","","null","resources/maskTrios/L1BB.jpg","null","",NA,NA,NA,NA,""
"image-keyboard-response",191,212783,"0.0-4.59-2.59","xx05mhc30vz7kwv",45,"86.csv","","null","resources/images/coin2.png","null","",NA,NA,NA,NA,""
"image-keyboard-response",192,214061,"0.0-4.60-0.60","xx05mhc30vz7kwv",45,"86.csv","","1276","resources/trios/L1T2A3.jpg","39","restless",0.6,0.5,0.6,0.111084443918103,"true"
"image-keyboard-response",193,214472,"0.0-4.60-1.60","xx05mhc30vz7kwv",45,"86.csv","","null","resources/maskTrios/BBA3.jpg","null","",NA,NA,NA,NA,""
"image-keyboard-response",194,215677,"0.0-4.60-2.60","xx05mhc30vz7kwv",45,"86.csv","","null","resources/images/coin2.png","null","",NA,NA,NA,NA,""
"image-keyboard-response",195,216176,"0.0-4.61-0.61","xx05mhc30vz7kwv",45,"86.csv","","496.79999999701977","resources/trios/L1T2A3.jpg","39","restless",0.6,0.5,0.6,0.727797123433322,"false"
"image-keyboard-response",196,216591,"0.0-4.61-1.61","xx05mhc30vz7kwv",45,"86.csv","","null","resources/maskTrios/BBA3.jpg","null","",NA,NA,NA,NA,""
"image-keyboard-response",197,217807,"0.0-4.61-2.61","xx05mhc30vz7kwv",45,"86.csv","","null","resources/images/fishbone.png","null","",NA,NA,NA,NA,""
"image-keyboard-response",198,218203,"0.0-4.62-0.62","xx05mhc30vz7kwv",45,"86.csv","","393","resources/trios/L1T2A3.jpg","39","restless",0.7,0.5,0.6,0.551584468677373,"true"
"image-keyboard-response",199,218608,"0.0-4.62-1.62","xx05mhc30vz7kwv",45,"86.csv","","null","resources/maskTrios/BBA3.jpg","null","",NA,NA,NA,NA,""
"image-keyboard-response",200,219820,"0.0-4.62-2.62","xx05mhc30vz7kwv",45,"86.csv","","null","resources/images/coin2.png","null","",NA,NA,NA,NA,""
"image-keyboard-response",201,220286,"0.0-4.63-0.63","xx05mhc30vz7kwv",45,"86.csv","","463.79999999701977","resources/trios/L1T2A3.jpg","38","restless",0.6,0.5,0.6,0.81249345160018,"false"
"image-keyboard-response",202,220690,"0.0-4.63-1.63","xx05mhc30vz7kwv",45,"86.csv","","null","resources/maskTrios/BT2B.jpg","null","",NA,NA,NA,NA,""
"image-keyboard-response",203,221900,"0.0-4.63-2.63","xx05mhc30vz7kwv",45,"86.csv","","null","resources/images/fishbone.png","null","",NA,NA,NA,NA,""
"image-keyboard-response",204,222147,"0.0-4.64-0.64","xx05mhc30vz7kwv",45,"86.csv","","244.80000001192093","resources/trios/L1T2A3.jpg","38","restless",0.6,0.5,0.6,0.400853108478989,"true"
"image-keyboard-response",205,222564,"0.0-4.64-1.64","xx05mhc30vz7kwv",45,"86.csv","","null","resources/maskTrios/BT2B.jpg","null","",NA,NA,NA,NA,""
"image-keyboard-response",206,223768,"0.0-4.64-2.64","xx05mhc30vz7kwv",45,"86.csv","","null","resources/images/coin2.png","null","",NA,NA,NA,NA,""
"image-keyboard-response",207,224335,"0.0-4.65-0.65","xx05mhc30vz7kwv",45,"86.csv","","564.3999999910593","resources/trios/L1T2A3.jpg","37","restless",0.6,0.5,0.6,0.104633325427127,"true"
"image-keyboard-response",208,224745,"0.0-4.65-1.65","xx05mhc30vz7kwv",45,"86.csv","","null","resources/maskTrios/L1BB.jpg","null","",NA,NA,NA,NA,""
"image-keyboard-response",209,225951,"0.0-4.65-2.65","xx05mhc30vz7kwv",45,"86.csv","","null","resources/images/coin2.png","null","",NA,NA,NA,NA,""
"image-keyboard-response",210,226911,"0.0-4.66-0.66","xx05mhc30vz7kwv",45,"86.csv","","957.4000000059605","resources/trios/L1T2A3.jpg","37","restless",0.6,0.5,0.6,0.0944272337323393,"true"
"image-keyboard-response",211,227318,"0.0-4.66-1.66","xx05mhc30vz7kwv",45,"86.csv","","null","resources/maskTrios/L1BB.jpg","null","",NA,NA,NA,NA,""
"image-keyboard-response",212,228532,"0.0-4.66-2.66","xx05mhc30vz7kwv",45,"86.csv","","null","resources/images/coin2.png","null","",NA,NA,NA,NA,""
"image-keyboard-response",213,228850,"0.0-4.67-0.67","xx05mhc30vz7kwv",45,"86.csv","","315.79999999701977","resources/trios/L1T2A3.jpg","38","restless",0.6,0.5,0.6,0.543467924124148,"false"
"image-keyboard-response",214,229266,"0.0-4.67-1.67","xx05mhc30vz7kwv",45,"86.csv","","null","resources/maskTrios/BT2B.jpg","null","",NA,NA,NA,NA,""
"image-keyboard-response",215,230481,"0.0-4.67-2.67","xx05mhc30vz7kwv",45,"86.csv","","null","resources/images/fishbone.png","null","",NA,NA,NA,NA,""
"image-keyboard-response",216,231877,"0.0-4.68-0.68","xx05mhc30vz7kwv",45,"86.csv","","1395.300000011921","resources/trios/L1T2A3.jpg","39","restless",0.6,0.5,0.5,0.0222719002504239,"true"
"image-keyboard-response",217,232294,"0.0-4.68-1.68","xx05mhc30vz7kwv",45,"86.csv","","null","resources/maskTrios/BBA3.jpg","null","",NA,NA,NA,NA,""
"image-keyboard-response",218,233507,"0.0-4.68-2.68","xx05mhc30vz7kwv",45,"86.csv","","null","resources/images/coin2.png","null","",NA,NA,NA,NA,""
"image-keyboard-response",219,233565,"0.0-4.69-0.69","xx05mhc30vz7kwv",45,"86.csv","","55.20000000298023","resources/trios/L1T2A3.jpg","39","restless",0.6,0.6,0.5,0.832360771544054,"false"
"image-keyboard-response",220,233968,"0.0-4.69-1.69","xx05mhc30vz7kwv",45,"86.csv","","null","resources/maskTrios/BBA3.jpg","null","",NA,NA,NA,NA,""
"image-keyboard-response",221,235180,"0.0-4.69-2.69","xx05mhc30vz7kwv",45,"86.csv","","null","resources/images/fishbone.png","null","",NA,NA,NA,NA,""
"image-keyboard-response",222,235767,"0.0-4.70-0.70","xx05mhc30vz7kwv",45,"86.csv","","584.4000000059605","resources/trios/L1T2A3.jpg","39","restless",0.6,0.6,0.5,0.235169811332666,"true"
"image-keyboard-response",223,236175,"0.0-4.70-1.70","xx05mhc30vz7kwv",45,"86.csv","","null","resources/maskTrios/BBA3.jpg","null","",NA,NA,NA,NA,""
"image-keyboard-response",224,237379,"0.0-4.70-2.70","xx05mhc30vz7kwv",45,"86.csv","","null","resources/images/coin2.png","null","",NA,NA,NA,NA,""
"image-keyboard-response",225,237983,"0.0-4.71-0.71","xx05mhc30vz7kwv",45,"86.csv","","601.2000000029802","resources/trios/L1T2A3.jpg","37","restless",0.6,0.6,0.5,0.857045064932526,"false"
"image-keyboard-response",226,238389,"0.0-4.71-1.71","xx05mhc30vz7kwv",45,"86.csv","","null","resources/maskTrios/L1BB.jpg","null","",NA,NA,NA,NA,""
"image-keyboard-response",227,239601,"0.0-4.71-2.71","xx05mhc30vz7kwv",45,"86.csv","","null","resources/images/fishbone.png","null","",NA,NA,NA,NA,""
"image-keyboard-response",228,239791,"0.0-4.72-0.72","xx05mhc30vz7kwv",45,"86.csv","","186.69999998807907","resources/trios/L1T2A3.jpg","38","restless",0.6,0.6,0.5,0.091340632820347,"true"
"image-keyboard-response",229,240204,"0.0-4.72-1.72","xx05mhc30vz7kwv",45,"86.csv","","null","resources/maskTrios/BT2B.jpg","null","",NA,NA,NA,NA,""
"image-keyboard-response",230,241417,"0.0-4.72-2.72","xx05mhc30vz7kwv",45,"86.csv","","null","resources/images/coin2.png","null","",NA,NA,NA,NA,""
"image-keyboard-response",231,242594,"0.0-4.73-0.73","xx05mhc30vz7kwv",45,"86.csv","","1174.199999988079","resources/trios/L1T2A3.jpg","38","restless",0.6,0.6,0.5,0.309007201201619,"true"
"image-keyboard-response",232,243004,"0.0-4.73-1.73","xx05mhc30vz7kwv",45,"86.csv","","null","resources/maskTrios/BT2B.jpg","null","",NA,NA,NA,NA,""
"image-keyboard-response",233,244222,"0.0-4.73-2.73","xx05mhc30vz7kwv",45,"86.csv","","null","resources/images/coin2.png","null","",NA,NA,NA,NA,""
"image-keyboard-response",234,245462,"0.0-4.74-0.74","xx05mhc30vz7kwv",45,"86.csv","","1237.4000000059605","resources/trios/L1T2A3.jpg","37","restless",0.6,0.6,0.5,0.0208077424075515,"true"
"image-keyboard-response",235,245876,"0.0-4.74-1.74","xx05mhc30vz7kwv",45,"86.csv","","null","resources/maskTrios/L1BB.jpg","null","",NA,NA,NA,NA,""
"image-keyboard-response",236,247087,"0.0-4.74-2.74","xx05mhc30vz7kwv",45,"86.csv","","null","resources/images/coin2.png","null","",NA,NA,NA,NA,""
"image-keyboard-response",237,248301,"0.0-4.75-0.75","xx05mhc30vz7kwv",45,"86.csv","","1211.4000000059605","resources/trios/L1T2A3.jpg","37","restless",0.6,0.6,0.5,0.561092260807825,"true"
"image-keyboard-response",238,248713,"0.0-4.75-1.75","xx05mhc30vz7kwv",45,"86.csv","","null","resources/maskTrios/L1BB.jpg","null","",NA,NA,NA,NA,""
"image-keyboard-response",239,249925,"0.0-4.75-2.75","xx05mhc30vz7kwv",45,"86.csv","","null","resources/images/coin2.png","null","",NA,NA,NA,NA,""
"image-keyboard-response",240,250375,"0.0-4.76-0.76","xx05mhc30vz7kwv",45,"86.csv","","447","resources/trios/L1T2A3.jpg","39","restless",0.6,0.6,0.5,0.445685646589111,"true"
"image-keyboard-response",241,250793,"0.0-4.76-1.76","xx05mhc30vz7kwv",45,"86.csv","","null","resources/maskTrios/BBA3.jpg","null","",NA,NA,NA,NA,""
"image-keyboard-response",242,252005,"0.0-4.76-2.76","xx05mhc30vz7kwv",45,"86.csv","","null","resources/images/coin2.png","null","",NA,NA,NA,NA,""
"image-keyboard-response",243,252515,"0.0-4.77-0.77","xx05mhc30vz7kwv",45,"86.csv","","507","resources/trios/L1T2A3.jpg","38","restless",0.6,0.6,0.5,0.294791663634189,"true"
"image-keyboard-response",244,252925,"0.0-4.77-1.77","xx05mhc30vz7kwv",45,"86.csv","","null","resources/maskTrios/BT2B.jpg","null","",NA,NA,NA,NA,""
"image-keyboard-response",245,254137,"0.0-4.77-2.77","xx05mhc30vz7kwv",45,"86.csv","","null","resources/images/coin2.png","null","",NA,NA,NA,NA,""
"image-keyboard-response",246,254936,"0.0-4.78-0.78","xx05mhc30vz7kwv",45,"86.csv","","795.5","resources/trios/L1T2A3.jpg","38","restless",0.6,0.6,0.5,0.205106072230594,"true"
"image-keyboard-response",247,255348,"0.0-4.78-1.78","xx05mhc30vz7kwv",45,"86.csv","","null","resources/maskTrios/BT2B.jpg","null","",NA,NA,NA,NA,""
"image-keyboard-response",248,256554,"0.0-4.78-2.78","xx05mhc30vz7kwv",45,"86.csv","","null","resources/images/coin2.png","null","",NA,NA,NA,NA,""
"image-keyboard-response",249,256846,"0.0-4.79-0.79","xx05mhc30vz7kwv",45,"86.csv","","290","resources/trios/L1T2A3.jpg","37","restless",0.6,0.6,0.5,0.131352761648101,"true"
"image-keyboard-response",250,257253,"0.0-4.79-1.79","xx05mhc30vz7kwv",45,"86.csv","","null","resources/maskTrios/L1BB.jpg","null","",NA,NA,NA,NA,""
"image-keyboard-response",251,258467,"0.0-4.79-2.79","xx05mhc30vz7kwv",45,"86.csv","","null","resources/images/coin2.png","null","",NA,NA,NA,NA,""
"image-keyboard-response",252,258801,"0.0-4.80-0.80","xx05mhc30vz7kwv",45,"86.csv","","331.3999999910593","resources/trios/L1T2A3.jpg","37","restless",0.6,0.6,0.4,0.0908880906726479,"true"
"image-keyboard-response",253,259217,"0.0-4.80-1.80","xx05mhc30vz7kwv",45,"86.csv","","null","resources/maskTrios/L1BB.jpg","null","",NA,NA,NA,NA,""
"image-keyboard-response",254,260431,"0.0-4.80-2.80","xx05mhc30vz7kwv",45,"86.csv","","null","resources/images/coin2.png","null","",NA,NA,NA,NA,""
"image-keyboard-response",255,260981,"0.0-4.81-0.81","xx05mhc30vz7kwv",45,"86.csv","","547.5","resources/trios/L1T2A3.jpg","39","restless",0.6,0.6,0.5,0.190798023514003,"true"
"image-keyboard-response",256,261391,"0.0-4.81-1.81","xx05mhc30vz7kwv",45,"86.csv","","null","resources/maskTrios/BBA3.jpg","null","",NA,NA,NA,NA,""
"image-keyboard-response",257,262601,"0.0-4.81-2.81","xx05mhc30vz7kwv",45,"86.csv","","null","resources/images/coin2.png","null","",NA,NA,NA,NA,""
"image-keyboard-response",258,262984,"0.0-4.82-0.82","xx05mhc30vz7kwv",45,"86.csv","","380.80000001192093","resources/trios/L1T2A3.jpg","38","restless",0.6,0.6,0.5,0.104473363993984,"true"
"image-keyboard-response",259,263398,"0.0-4.82-1.82","xx05mhc30vz7kwv",45,"86.csv","","null","resources/maskTrios/BT2B.jpg","null","",NA,NA,NA,NA,""
"image-keyboard-response",260,264612,"0.0-4.82-2.82","xx05mhc30vz7kwv",45,"86.csv","","null","resources/images/coin2.png","null","",NA,NA,NA,NA,""
"image-keyboard-response",261,265175,"0.0-4.83-0.83","xx05mhc30vz7kwv",45,"86.csv","","560.9000000059605","resources/trios/L1T2A3.jpg","38","restless",0.6,0.6,0.5,0.0623864953130688,"true"
"image-keyboard-response",262,265593,"0.0-4.83-1.83","xx05mhc30vz7kwv",45,"86.csv","","null","resources/maskTrios/BT2B.jpg","null","",NA,NA,NA,NA,""
"image-keyboard-response",263,266803,"0.0-4.83-2.83","xx05mhc30vz7kwv",45,"86.csv","","null","resources/images/coin2.png","null","",NA,NA,NA,NA,""
"image-keyboard-response",264,268676,"0.0-4.84-0.84","xx05mhc30vz7kwv",45,"86.csv","","1870","resources/trios/L1T2A3.jpg","37","restless",0.6,0.6,0.4,0.0343339655478956,"true"
"image-keyboard-response",265,269079,"0.0-4.84-1.84","xx05mhc30vz7kwv",45,"86.csv","","null","resources/maskTrios/L1BB.jpg","null","",NA,NA,NA,NA,""
"image-keyboard-response",266,270295,"0.0-4.84-2.84","xx05mhc30vz7kwv",45,"86.csv","","null","resources/images/coin2.png","null","",NA,NA,NA,NA,""
"image-keyboard-response",267,270761,"0.0-4.85-0.85","xx05mhc30vz7kwv",45,"86.csv","","462.79999999701977","resources/trios/L1T2A3.jpg","37","restless",0.6,0.6,0.4,0.719099639523215,"false"
"image-keyboard-response",268,271166,"0.0-4.85-1.85","xx05mhc30vz7kwv",45,"86.csv","","null","resources/maskTrios/L1BB.jpg","null","",NA,NA,NA,NA,""
"image-keyboard-response",269,272370,"0.0-4.85-2.85","xx05mhc30vz7kwv",45,"86.csv","","null","resources/images/fishbone.png","null","",NA,NA,NA,NA,""
"image-keyboard-response",270,273299,"0.0-4.86-0.86","xx05mhc30vz7kwv",45,"86.csv","","925.5","resources/trios/L1T2A3.jpg","38","restless",0.6,0.7,0.4,0.295091368085124,"true"
"image-keyboard-response",271,273704,"0.0-4.86-1.86","xx05mhc30vz7kwv",45,"86.csv","","null","resources/maskTrios/BT2B.jpg","null","",NA,NA,NA,NA,""
"image-keyboard-response",272,274922,"0.0-4.86-2.86","xx05mhc30vz7kwv",45,"86.csv","","null","resources/images/coin2.png","null","",NA,NA,NA,NA,""
"image-keyboard-response",273,275175,"0.0-4.87-0.87","xx05mhc30vz7kwv",45,"86.csv","","250.3999999910593","resources/trios/L1T2A3.jpg","38","restless",0.6,0.7,0.4,0.885809374193545,"false"
"image-keyboard-response",274,275587,"0.0-4.87-1.87","xx05mhc30vz7kwv",45,"86.csv","","null","resources/maskTrios/BT2B.jpg","null","",NA,NA,NA,NA,""
"image-keyboard-response",275,276800,"0.0-4.87-2.87","xx05mhc30vz7kwv",45,"86.csv","","null","resources/images/fishbone.png","null","",NA,NA,NA,NA,""
"image-keyboard-response",276,277805,"0.0-4.88-0.88","xx05mhc30vz7kwv",45,"86.csv","","1002.7000000029802","resources/trios/L1T2A3.jpg","39","restless",0.6,0.7,0.4,0.748655433420903,"false"
"image-keyboard-response",277,278218,"0.0-4.88-1.88","xx05mhc30vz7kwv",45,"86.csv","","null","resources/maskTrios/BBA3.jpg","null","",NA,NA,NA,NA,""
"image-keyboard-response",278,279436,"0.0-4.88-2.88","xx05mhc30vz7kwv",45,"86.csv","","null","resources/images/fishbone.png","null","",NA,NA,NA,NA,""
"image-keyboard-response",279,279929,"0.0-4.89-0.89","xx05mhc30vz7kwv",45,"86.csv","","491.09999999403954","resources/trios/L1T2A3.jpg","38","restless",0.6,0.7,0.4,0.587784128776136,"true"
"image-keyboard-response",280,280345,"0.0-4.89-1.89","xx05mhc30vz7kwv",45,"86.csv","","null","resources/maskTrios/BT2B.jpg","null","",NA,NA,NA,NA,""
"image-keyboard-response",281,281550,"0.0-4.89-2.89","xx05mhc30vz7kwv",45,"86.csv","","null","resources/images/coin2.png","null","",NA,NA,NA,NA,""
"image-keyboard-response",282,281617,"0.0-4.90-0.90","xx05mhc30vz7kwv",45,"86.csv","","64.3999999910593","resources/trios/L1T2A3.jpg","37","restless",0.6,0.7,0.4,0.903328013497961,"false"
"image-keyboard-response",283,282029,"0.0-4.90-1.90","xx05mhc30vz7kwv",45,"86.csv","","null","resources/maskTrios/L1BB.jpg","null","",NA,NA,NA,NA,""
"image-keyboard-response",284,283241,"0.0-4.90-2.90","xx05mhc30vz7kwv",45,"86.csv","","null","resources/images/fishbone.png","null","",NA,NA,NA,NA,""
"image-keyboard-response",285,284404,"0.0-4.91-0.91","xx05mhc30vz7kwv",45,"86.csv","","1160.5","resources/trios/L1T2A3.jpg","39","restless",0.6,0.7,0.4,0.364743971770887,"true"
"image-keyboard-response",286,284810,"0.0-4.91-1.91","xx05mhc30vz7kwv",45,"86.csv","","null","resources/maskTrios/BBA3.jpg","null","",NA,NA,NA,NA,""
"image-keyboard-response",287,286021,"0.0-4.91-2.91","xx05mhc30vz7kwv",45,"86.csv","","null","resources/images/coin2.png","null","",NA,NA,NA,NA,""
"image-keyboard-response",288,287911,"0.0-4.92-0.92","xx05mhc30vz7kwv",45,"86.csv","","1887","resources/trios/L1T2A3.jpg","38","restless",0.6,0.7,0.4,0.3727878182558,"true"
"image-keyboard-response",289,288323,"0.0-4.92-1.92","xx05mhc30vz7kwv",45,"86.csv","","null","resources/maskTrios/BT2B.jpg","null","",NA,NA,NA,NA,""
"image-keyboard-response",290,289537,"0.0-4.92-2.92","xx05mhc30vz7kwv",45,"86.csv","","null","resources/images/coin2.png","null","",NA,NA,NA,NA,""
"image-keyboard-response",291,289783,"0.0-4.93-0.93","xx05mhc30vz7kwv",45,"86.csv","","243.6000000089407","resources/trios/L1T2A3.jpg","39","restless",0.6,0.7,0.4,0.109635950862042,"true"
"image-keyboard-response",292,290187,"0.0-4.93-1.93","xx05mhc30vz7kwv",45,"86.csv","","null","resources/maskTrios/BBA3.jpg","null","",NA,NA,NA,NA,""
"image-keyboard-response",293,291400,"0.0-4.93-2.93","xx05mhc30vz7kwv",45,"86.csv","","null","resources/images/coin2.png","null","",NA,NA,NA,NA,""
"image-keyboard-response",294,292098,"0.0-4.94-0.94","xx05mhc30vz7kwv",45,"86.csv","","693.7000000029802","resources/trios/L1T2A3.jpg","39","restless",0.7,0.7,0.4,0.411245826632743,"false"
"image-keyboard-response",295,292505,"0.0-4.94-1.94","xx05mhc30vz7kwv",45,"86.csv","","null","resources/maskTrios/BBA3.jpg","null","",NA,NA,NA,NA,""
"image-keyboard-response",296,293713,"0.0-4.94-2.94","xx05mhc30vz7kwv",45,"86.csv","","null","resources/images/fishbone.png","null","",NA,NA,NA,NA,""
"image-keyboard-response",297,294246,"0.0-4.95-0.95","xx05mhc30vz7kwv",45,"86.csv","","530.1000000089407","resources/trios/L1T2A3.jpg","37","restless",0.7,0.7,0.4,0.13856034611497,"true"
"image-keyboard-response",298,294652,"0.0-4.95-1.95","xx05mhc30vz7kwv",45,"86.csv","","null","resources/maskTrios/L1BB.jpg","null","",NA,NA,NA,NA,""
"image-keyboard-response",299,295865,"0.0-4.95-2.95","xx05mhc30vz7kwv",45,"86.csv","","null","resources/images/coin2.png","null","",NA,NA,NA,NA,""
"image-keyboard-response",300,297204,"0.0-4.96-0.96","xx05mhc30vz7kwv",45,"86.csv","","1337.3999999910593","resources/trios/L1T2A3.jpg","37","restless",0.7,0.7,0.4,0.497302601744219,"true"
"image-keyboard-response",301,297618,"0.0-4.96-1.96","xx05mhc30vz7kwv",45,"86.csv","","null","resources/maskTrios/L1BB.jpg","null","",NA,NA,NA,NA,""
"image-keyboard-response",302,298821,"0.0-4.96-2.96","xx05mhc30vz7kwv",45,"86.csv","","null","resources/images/coin2.png","null","",NA,NA,NA,NA,""
"image-keyboard-response",303,301372,"0.0-4.97-0.97","xx05mhc30vz7kwv",45,"86.csv","","2548.1000000089407","resources/trios/L1T2A3.jpg","38","restless",0.7,0.7,0.4,0.0730633132223271,"true"
"image-keyboard-response",304,301778,"0.0-4.97-1.97","xx05mhc30vz7kwv",45,"86.csv","","null","resources/maskTrios/BT2B.jpg","null","",NA,NA,NA,NA,""
"image-keyboard-response",305,302991,"0.0-4.97-2.97","xx05mhc30vz7kwv",45,"86.csv","","null","resources/images/coin2.png","null","",NA,NA,NA,NA,""
"image-keyboard-response",306,303471,"0.0-4.98-0.98","xx05mhc30vz7kwv",45,"86.csv","","477.79999999701977","resources/trios/L1T2A3.jpg","39","restless",0.7,0.7,0.4,0.304947695931817,"true"
"image-keyboard-response",307,303885,"0.0-4.98-1.98","xx05mhc30vz7kwv",45,"86.csv","","null","resources/maskTrios/BBA3.jpg","null","",NA,NA,NA,NA,""
"image-keyboard-response",308,305098,"0.0-4.98-2.98","xx05mhc30vz7kwv",45,"86.csv","","null","resources/images/coin2.png","null","",NA,NA,NA,NA,""
"image-keyboard-response",309,306047,"0.0-4.99-0.99","xx05mhc30vz7kwv",45,"86.csv","","947.2000000029802","resources/trios/L1T2A3.jpg","38","restless",0.8,0.7,0.4,0.299982932413352,"true"
"image-keyboard-response",310,306465,"0.0-4.99-1.99","xx05mhc30vz7kwv",45,"86.csv","","null","resources/maskTrios/BT2B.jpg","null","",NA,NA,NA,NA,""
"image-keyboard-response",311,307679,"0.0-4.99-2.99","xx05mhc30vz7kwv",45,"86.csv","","null","resources/images/coin2.png","null","",NA,NA,NA,NA,""
"image-keyboard-response",312,307860,"0.0-4.100-0.100","xx05mhc30vz7kwv",45,"86.csv","","178.6000000089407","resources/trios/L1T2A3.jpg","37","restless",0.8,0.7,0.4,0.137443235196882,"true"
"image-keyboard-response",313,308273,"0.0-4.100-1.100","xx05mhc30vz7kwv",45,"86.csv","","null","resources/maskTrios/L1BB.jpg","null","",NA,NA,NA,NA,""
"image-keyboard-response",314,309489,"0.0-4.100-2.100","xx05mhc30vz7kwv",45,"86.csv","","null","resources/images/coin2.png","null","",NA,NA,NA,NA,""
"image-keyboard-response",315,309800,"0.0-4.101-0.101","xx05mhc30vz7kwv",45,"86.csv","","308.5","resources/trios/L1T2A3.jpg","38","restless",0.8,0.7,0.4,0.725498628506726,"false"
"image-keyboard-response",316,310212,"0.0-4.101-1.101","xx05mhc30vz7kwv",45,"86.csv","","null","resources/maskTrios/BT2B.jpg","null","",NA,NA,NA,NA,""
"image-keyboard-response",317,311424,"0.0-4.101-2.101","xx05mhc30vz7kwv",45,"86.csv","","null","resources/images/fishbone.png","null","",NA,NA,NA,NA,""
"image-keyboard-response",318,311658,"0.0-4.102-0.102","xx05mhc30vz7kwv",45,"86.csv","","231.59999999403954","resources/trios/L1T2A3.jpg","38","restless",0.7,0.7,0.4,0.898241784902542,"false"
"image-keyboard-response",319,312075,"0.0-4.102-1.102","xx05mhc30vz7kwv",45,"86.csv","","null","resources/maskTrios/BT2B.jpg","null","",NA,NA,NA,NA,""
"image-keyboard-response",320,313283,"0.0-4.102-2.102","xx05mhc30vz7kwv",45,"86.csv","","null","resources/images/fishbone.png","null","",NA,NA,NA,NA,""
"image-keyboard-response",321,313605,"0.0-4.103-0.103","xx05mhc30vz7kwv",45,"86.csv","","319.3999999910593","resources/trios/L1T2A3.jpg","38","restless",0.7,0.7,0.3,0.220878435335284,"true"
"image-keyboard-response",322,314022,"0.0-4.103-1.103","xx05mhc30vz7kwv",45,"86.csv","","null","resources/maskTrios/BT2B.jpg","null","",NA,NA,NA,NA,""
"image-keyboard-response",323,315235,"0.0-4.103-2.103","xx05mhc30vz7kwv",45,"86.csv","","null","resources/images/coin2.png","null","",NA,NA,NA,NA,""
"image-keyboard-response",324,315624,"0.0-4.104-0.104","xx05mhc30vz7kwv",45,"86.csv","","386.5","resources/trios/L1T2A3.jpg","38","restless",0.7,0.7,0.3,0.301134631981005,"true"
"image-keyboard-response",325,316032,"0.0-4.104-1.104","xx05mhc30vz7kwv",45,"86.csv","","null","resources/maskTrios/BT2B.jpg","null","",NA,NA,NA,NA,""
"image-keyboard-response",326,317236,"0.0-4.104-2.104","xx05mhc30vz7kwv",45,"86.csv","","null","resources/images/coin2.png","null","",NA,NA,NA,NA,""
"image-keyboard-response",327,317483,"0.0-4.105-0.105","xx05mhc30vz7kwv",45,"86.csv","","244.40000000596046","resources/trios/L1T2A3.jpg","39","restless",0.7,0.6,0.3,0.854966800397731,"false"
"image-keyboard-response",328,317901,"0.0-4.105-1.105","xx05mhc30vz7kwv",45,"86.csv","","null","resources/maskTrios/BBA3.jpg","null","",NA,NA,NA,NA,""
"image-keyboard-response",329,319112,"0.0-4.105-2.105","xx05mhc30vz7kwv",45,"86.csv","","null","resources/images/fishbone.png","null","",NA,NA,NA,NA,""
"image-keyboard-response",330,319690,"0.0-4.106-0.106","xx05mhc30vz7kwv",45,"86.csv","","575.5","resources/trios/L1T2A3.jpg","37","restless",0.8,0.5,0.3,0.556544337296279,"true"
"image-keyboard-response",331,320105,"0.0-4.106-1.106","xx05mhc30vz7kwv",45,"86.csv","","null","resources/maskTrios/L1BB.jpg","null","",NA,NA,NA,NA,""
"image-keyboard-response",332,321313,"0.0-4.106-2.106","xx05mhc30vz7kwv",45,"86.csv","","null","resources/images/coin2.png","null","",NA,NA,NA,NA,""
"image-keyboard-response",333,322162,"0.0-4.107-0.107","xx05mhc30vz7kwv",45,"86.csv","","846.4000000059605","resources/trios/L1T2A3.jpg","39","restless",0.8,0.5,0.3,0.871351293631831,"false"
"image-keyboard-response",334,322580,"0.0-4.107-1.107","xx05mhc30vz7kwv",45,"86.csv","","null","resources/maskTrios/BBA3.jpg","null","",NA,NA,NA,NA,""
"image-keyboard-response",335,323789,"0.0-4.107-2.107","xx05mhc30vz7kwv",45,"86.csv","","null","resources/images/fishbone.png","null","",NA,NA,NA,NA,""
"image-keyboard-response",336,324322,"0.0-4.108-0.108","xx05mhc30vz7kwv",45,"86.csv","","529.4000000059605","resources/trios/L1T2A3.jpg","38","restless",0.8,0.5,0.3,0.346300171400669,"true"
"image-keyboard-response",337,324738,"0.0-4.108-1.108","xx05mhc30vz7kwv",45,"86.csv","","null","resources/maskTrios/BT2B.jpg","null","",NA,NA,NA,NA,""
"image-keyboard-response",338,325951,"0.0-4.108-2.108","xx05mhc30vz7kwv",45,"86.csv","","null","resources/images/coin2.png","null","",NA,NA,NA,NA,""
"image-keyboard-response",339,326983,"0.0-4.109-0.109","xx05mhc30vz7kwv",45,"86.csv","","1029.5","resources/trios/L1T2A3.jpg","39","restless",0.8,0.4,0.3,0.15570958909034,"true"
"image-keyboard-response",340,327387,"0.0-4.109-1.109","xx05mhc30vz7kwv",45,"86.csv","","null","resources/maskTrios/BBA3.jpg","null","",NA,NA,NA,NA,""
"image-keyboard-response",341,328593,"0.0-4.109-2.109","xx05mhc30vz7kwv",45,"86.csv","","null","resources/images/coin2.png","null","",NA,NA,NA,NA,""
"image-keyboard-response",342,329010,"0.0-4.110-0.110","xx05mhc30vz7kwv",45,"86.csv","","414.8999999910593","resources/trios/L1T2A3.jpg","37","restless",0.8,0.3,0.3,0.321552089104371,"true"
"image-keyboard-response",343,329419,"0.0-4.110-1.110","xx05mhc30vz7kwv",45,"86.csv","","null","resources/maskTrios/L1BB.jpg","null","",NA,NA,NA,NA,""
"image-keyboard-response",344,330636,"0.0-4.110-2.110","xx05mhc30vz7kwv",45,"86.csv","","null","resources/images/coin2.png","null","",NA,NA,NA,NA,""
"image-keyboard-response",345,331475,"0.0-4.111-0.111","xx05mhc30vz7kwv",45,"86.csv","","836.2000000029802","resources/trios/L1T2A3.jpg","37","restless",0.8,0.3,0.3,0.446986704553014,"true"
"image-keyboard-response",346,331883,"0.0-4.111-1.111","xx05mhc30vz7kwv",45,"86.csv","","null","resources/maskTrios/L1BB.jpg","null","",NA,NA,NA,NA,""
"image-keyboard-response",347,333086,"0.0-4.111-2.111","xx05mhc30vz7kwv",45,"86.csv","","null","resources/images/coin2.png","null","",NA,NA,NA,NA,""
"image-keyboard-response",348,333508,"0.0-4.112-0.112","xx05mhc30vz7kwv",45,"86.csv","","419.1000000089407","resources/trios/L1T2A3.jpg","38","restless",0.8,0.3,0.3,0.13717209858084,"true"
"image-keyboard-response",349,333918,"0.0-4.112-1.112","xx05mhc30vz7kwv",45,"86.csv","","null","resources/maskTrios/BT2B.jpg","null","",NA,NA,NA,NA,""
"image-keyboard-response",350,335129,"0.0-4.112-2.112","xx05mhc30vz7kwv",45,"86.csv","","null","resources/images/coin2.png","null","",NA,NA,NA,NA,""
"image-keyboard-response",351,335515,"0.0-4.113-0.113","xx05mhc30vz7kwv",45,"86.csv","","383.29999999701977","resources/trios/L1T2A3.jpg","38","restless",0.7,0.3,0.4,0.120902780172033,"true"
"image-keyboard-response",352,335931,"0.0-4.113-1.113","xx05mhc30vz7kwv",45,"86.csv","","null","resources/maskTrios/BT2B.jpg","null","",NA,NA,NA,NA,""
"image-keyboard-response",353,337143,"0.0-4.113-2.113","xx05mhc30vz7kwv",45,"86.csv","","null","resources/images/coin2.png","null","",NA,NA,NA,NA,""
"image-keyboard-response",354,337708,"0.0-4.114-0.114","xx05mhc30vz7kwv",45,"86.csv","","562.6000000089407","resources/trios/L1T2A3.jpg","39","restless",0.7,0.3,0.4,0.022473340623359,"true"
"image-keyboard-response",355,338125,"0.0-4.114-1.114","xx05mhc30vz7kwv",45,"86.csv","","null","resources/maskTrios/BBA3.jpg","null","",NA,NA,NA,NA,""
"image-keyboard-response",356,339340,"0.0-4.114-2.114","xx05mhc30vz7kwv",45,"86.csv","","null","resources/images/coin2.png","null","",NA,NA,NA,NA,""
"image-keyboard-response",357,339669,"0.0-4.115-0.115","xx05mhc30vz7kwv",45,"86.csv","","326.29999999701977","resources/trios/L1T2A3.jpg","38","restless",0.8,0.3,0.4,0.323640198983343,"false"
"image-keyboard-response",358,340079,"0.0-4.115-1.115","xx05mhc30vz7kwv",45,"86.csv","","null","resources/maskTrios/BT2B.jpg","null","",NA,NA,NA,NA,""
"image-keyboard-response",359,341296,"0.0-4.115-2.115","xx05mhc30vz7kwv",45,"86.csv","","null","resources/images/fishbone.png","null","",NA,NA,NA,NA,""
"image-keyboard-response",360,341541,"0.0-4.116-0.116","xx05mhc30vz7kwv",45,"86.csv","","241.80000001192093","resources/trios/L1T2A3.jpg","38","restless",0.8,0.4,0.4,0.785214298859022,"false"
"image-keyboard-response",361,341956,"0.0-4.116-1.116","xx05mhc30vz7kwv",45,"86.csv","","null","resources/maskTrios/BT2B.jpg","null","",NA,NA,NA,NA,""
"image-keyboard-response",362,343162,"0.0-4.116-2.116","xx05mhc30vz7kwv",45,"86.csv","","null","resources/images/fishbone.png","null","",NA,NA,NA,NA,""
"image-keyboard-response",363,343456,"0.0-4.117-0.117","xx05mhc30vz7kwv",45,"86.csv","","291","resources/trios/L1T2A3.jpg","38","restless",0.8,0.4,0.4,0.807977166982159,"false"
"image-keyboard-response",364,343863,"0.0-4.117-1.117","xx05mhc30vz7kwv",45,"86.csv","","null","resources/maskTrios/BT2B.jpg","null","",NA,NA,NA,NA,""
"image-keyboard-response",365,345068,"0.0-4.117-2.117","xx05mhc30vz7kwv",45,"86.csv","","null","resources/images/fishbone.png","null","",NA,NA,NA,NA,""
"image-keyboard-response",366,345426,"0.0-4.118-0.118","xx05mhc30vz7kwv",45,"86.csv","","355.79999999701977","resources/trios/L1T2A3.jpg","38","restless",0.8,0.4,0.4,0.0147699228535474,"true"
"image-keyboard-response",367,345843,"0.0-4.118-1.118","xx05mhc30vz7kwv",45,"86.csv","","null","resources/maskTrios/BT2B.jpg","null","",NA,NA,NA,NA,""
"image-keyboard-response",368,347049,"0.0-4.118-2.118","xx05mhc30vz7kwv",45,"86.csv","","null","resources/images/coin2.png","null","",NA,NA,NA,NA,""
"image-keyboard-response",369,347107,"0.0-4.119-0.119","xx05mhc30vz7kwv",45,"86.csv","","55.20000000298023","resources/trios/L1T2A3.jpg","37","restless",0.8,0.4,0.4,0.0373168773184498,"true"
"image-keyboard-response",370,347525,"0.0-4.119-1.119","xx05mhc30vz7kwv",45,"86.csv","","null","resources/maskTrios/L1BB.jpg","null","",NA,NA,NA,NA,""
"image-keyboard-response",371,348737,"0.0-4.119-2.119","xx05mhc30vz7kwv",45,"86.csv","","null","resources/images/coin2.png","null","",NA,NA,NA,NA,""
"image-keyboard-response",372,349070,"0.0-4.120-0.120","xx05mhc30vz7kwv",45,"86.csv","","329.70000000298023","resources/trios/L1T2A3.jpg","39","restless",0.8,0.4,0.4,0.848708900475841,"false"
"image-keyboard-response",373,349484,"0.0-4.120-1.120","xx05mhc30vz7kwv",45,"86.csv","","null","resources/maskTrios/BBA3.jpg","null","",NA,NA,NA,NA,""
"image-keyboard-response",374,350701,"0.0-4.120-2.120","xx05mhc30vz7kwv",45,"86.csv","","null","resources/images/fishbone.png","null","",NA,NA,NA,NA,""
"image-keyboard-response",375,351900,"0.0-4.121-0.121","xx05mhc30vz7kwv",45,"86.csv","","1197.7999999970198","resources/trios/L1T2A3.jpg","39","restless",0.8,0.4,0.4,0.379049132576235,"true"
"image-keyboard-response",376,352321,"0.0-4.121-1.121","xx05mhc30vz7kwv",45,"86.csv","","null","resources/maskTrios/BBA3.jpg","null","",NA,NA,NA,NA,""
"image-keyboard-response",377,353528,"0.0-4.121-2.121","xx05mhc30vz7kwv",45,"86.csv","","null","resources/images/coin2.png","null","",NA,NA,NA,NA,""
"image-keyboard-response",378,353837,"0.0-4.122-0.122","xx05mhc30vz7kwv",45,"86.csv","","305.5","resources/trios/L1T2A3.jpg","38","restless",0.8,0.4,0.4,0.601062480855576,"false"
"image-keyboard-response",379,354254,"0.0-4.122-1.122","xx05mhc30vz7kwv",45,"86.csv","","null","resources/maskTrios/BT2B.jpg","null","",NA,NA,NA,NA,""
"image-keyboard-response",380,355460,"0.0-4.122-2.122","xx05mhc30vz7kwv",45,"86.csv","","null","resources/images/fishbone.png","null","",NA,NA,NA,NA,""
"image-keyboard-response",381,355884,"0.0-4.123-0.123","xx05mhc30vz7kwv",45,"86.csv","","421.40000000596046","resources/trios/L1T2A3.jpg","37","restless",0.8,0.4,0.4,0.594761169212208,"true"
"image-keyboard-response",382,356301,"0.0-4.123-1.123","xx05mhc30vz7kwv",45,"86.csv","","null","resources/maskTrios/L1BB.jpg","null","",NA,NA,NA,NA,""
"image-keyboard-response",383,357507,"0.0-4.123-2.123","xx05mhc30vz7kwv",45,"86.csv","","null","resources/images/coin2.png","null","",NA,NA,NA,NA,""
"image-keyboard-response",384,362058,"0.0-4.124-0.124","xx05mhc30vz7kwv",45,"86.csv","","4547.79999999702","resources/trios/L1T2A3.jpg","39","restless",0.8,0.4,0.4,0.256394203151168,"true"
"image-keyboard-response",385,362463,"0.0-4.124-1.124","xx05mhc30vz7kwv",45,"86.csv","","null","resources/maskTrios/BBA3.jpg","null","",NA,NA,NA,NA,""
"image-keyboard-response",386,363677,"0.0-4.124-2.124","xx05mhc30vz7kwv",45,"86.csv","","null","resources/images/coin2.png","null","",NA,NA,NA,NA,""
"image-keyboard-response",387,365198,"0.0-4.125-0.125","xx05mhc30vz7kwv",45,"86.csv","","1517.9000000059605","resources/trios/L1T2A3.jpg","38","restless",0.8,0.4,0.4,0.834266194541894,"false"
"image-keyboard-response",388,365602,"0.0-4.125-1.125","xx05mhc30vz7kwv",45,"86.csv","","null","resources/maskTrios/BT2B.jpg","null","",NA,NA,NA,NA,""
"image-keyboard-response",389,366815,"0.0-4.125-2.125","xx05mhc30vz7kwv",45,"86.csv","","null","resources/images/fishbone.png","null","",NA,NA,NA,NA,""
"image-keyboard-response",390,370758,"0.0-4.126-0.126","xx05mhc30vz7kwv",45,"86.csv","","3940.2999999970198","resources/trios/L1T2A3.jpg","39","restless",0.8,0.4,0.4,0.048317935531579,"true"
"image-keyboard-response",391,371172,"0.0-4.126-1.126","xx05mhc30vz7kwv",45,"86.csv","","null","resources/maskTrios/BBA3.jpg","null","",NA,NA,NA,NA,""
"image-keyboard-response",392,372385,"0.0-4.126-2.126","xx05mhc30vz7kwv",45,"86.csv","","null","resources/images/coin2.png","null","",NA,NA,NA,NA,""
"image-keyboard-response",393,375253,"0.0-4.127-0.127","xx05mhc30vz7kwv",45,"86.csv","","2865.5","resources/trios/L1T2A3.jpg","37","restless",0.8,0.4,0.4,0.7705862397997,"true"
"image-keyboard-response",394,375667,"0.0-4.127-1.127","xx05mhc30vz7kwv",45,"86.csv","","null","resources/maskTrios/L1BB.jpg","null","",NA,NA,NA,NA,""
"image-keyboard-response",395,376883,"0.0-4.127-2.127","xx05mhc30vz7kwv",45,"86.csv","","null","resources/images/coin2.png","null","",NA,NA,NA,NA,""
"image-keyboard-response",396,377796,"0.0-4.128-0.128","xx05mhc30vz7kwv",45,"86.csv","","910.7999999970198","resources/trios/L1T2A3.jpg","39","restless",0.8,0.4,0.4,0.140321361865,"true"
"image-keyboard-response",397,378213,"0.0-4.128-1.128","xx05mhc30vz7kwv",45,"86.csv","","null","resources/maskTrios/BBA3.jpg","null","",NA,NA,NA,NA,""
"image-keyboard-response",398,379419,"0.0-4.128-2.128","xx05mhc30vz7kwv",45,"86.csv","","null","resources/images/coin2.png","null","",NA,NA,NA,NA,""
"image-keyboard-response",399,382292,"0.0-4.129-0.129","xx05mhc30vz7kwv",45,"86.csv","","2870.7999999970198","resources/trios/L1T2A3.jpg","38","restless",0.8,0.4,0.4,0.0772316374214554,"true"
"image-keyboard-response",400,382710,"0.0-4.129-1.129","xx05mhc30vz7kwv",45,"86.csv","","null","resources/maskTrios/BT2B.jpg","null","",NA,NA,NA,NA,""
"image-keyboard-response",401,383915,"0.0-4.129-2.129","xx05mhc30vz7kwv",45,"86.csv","","null","resources/images/coin2.png","null","",NA,NA,NA,NA,""
"image-keyboard-response",402,384592,"0.0-4.130-0.130","xx05mhc30vz7kwv",45,"86.csv","","674.7000000029802","resources/trios/L1T2A3.jpg","37","restless",0.8,0.5,0.4,0.206813220241117,"true"
"image-keyboard-response",403,384999,"0.0-4.130-1.130","xx05mhc30vz7kwv",45,"86.csv","","null","resources/maskTrios/L1BB.jpg","null","",NA,NA,NA,NA,""
"image-keyboard-response",404,386204,"0.0-4.130-2.130","xx05mhc30vz7kwv",45,"86.csv","","null","resources/images/coin2.png","null","",NA,NA,NA,NA,""
"image-keyboard-response",405,389327,"0.0-4.131-0.131","xx05mhc30vz7kwv",45,"86.csv","","3120.9000000059605","resources/trios/L1T2A3.jpg","37","restless",0.9,0.4,0.4,0.426731740778946,"true"
"image-keyboard-response",406,389737,"0.0-4.131-1.131","xx05mhc30vz7kwv",45,"86.csv","","null","resources/maskTrios/L1BB.jpg","null","",NA,NA,NA,NA,""
"image-keyboard-response",407,390949,"0.0-4.131-2.131","xx05mhc30vz7kwv",45,"86.csv","","null","resources/images/coin2.png","null","",NA,NA,NA,NA,""
"image-keyboard-response",408,391805,"0.0-4.132-0.132","xx05mhc30vz7kwv",45,"86.csv","","852.7999999970198","resources/trios/L1T2A3.jpg","39","restless",0.9,0.4,0.4,0.538072927307419,"false"
"image-keyboard-response",409,392210,"0.0-4.132-1.132","xx05mhc30vz7kwv",45,"86.csv","","null","resources/maskTrios/BBA3.jpg","null","",NA,NA,NA,NA,""
"image-keyboard-response",410,393415,"0.0-4.132-2.132","xx05mhc30vz7kwv",45,"86.csv","","null","resources/images/fishbone.png","null","",NA,NA,NA,NA,""
"image-keyboard-response",411,393833,"0.0-4.133-0.133","xx05mhc30vz7kwv",45,"86.csv","","415.19999998807907","resources/trios/L1T2A3.jpg","39","restless",0.9,0.4,0.4,0.833926246789457,"false"
"image-keyboard-response",412,394249,"0.0-4.133-1.133","xx05mhc30vz7kwv",45,"86.csv","","null","resources/maskTrios/BBA3.jpg","null","",NA,NA,NA,NA,""
"image-keyboard-response",413,395454,"0.0-4.133-2.133","xx05mhc30vz7kwv",45,"86.csv","","null","resources/images/fishbone.png","null","",NA,NA,NA,NA,""
"image-keyboard-response",414,395852,"0.0-4.134-0.134","xx05mhc30vz7kwv",45,"86.csv","","395.70000000298023","resources/trios/L1T2A3.jpg","37","restless",0.9,0.4,0.4,0.459108380706998,"true"
"image-keyboard-response",415,396265,"0.0-4.134-1.134","xx05mhc30vz7kwv",45,"86.csv","","null","resources/maskTrios/L1BB.jpg","null","",NA,NA,NA,NA,""
"image-keyboard-response",416,397468,"0.0-4.134-2.134","xx05mhc30vz7kwv",45,"86.csv","","null","resources/images/coin2.png","null","",NA,NA,NA,NA,""
"image-keyboard-response",417,397733,"0.0-4.135-0.135","xx05mhc30vz7kwv",45,"86.csv","","262.1000000089407","resources/trios/L1T2A3.jpg","37","restless",0.9,0.4,0.4,0.237438866880918,"true"
"image-keyboard-response",418,398145,"0.0-4.135-1.135","xx05mhc30vz7kwv",45,"86.csv","","null","resources/maskTrios/L1BB.jpg","null","",NA,NA,NA,NA,""
"image-keyboard-response",419,399350,"0.0-4.135-2.135","xx05mhc30vz7kwv",45,"86.csv","","null","resources/images/coin2.png","null","",NA,NA,NA,NA,""
"image-keyboard-response",420,399581,"0.0-4.136-0.136","xx05mhc30vz7kwv",45,"86.csv","","228.20000000298023","resources/trios/L1T2A3.jpg","38","restless",0.8,0.4,0.4,0.279301816153295,"true"
"image-keyboard-response",421,399994,"0.0-4.136-1.136","xx05mhc30vz7kwv",45,"86.csv","","null","resources/maskTrios/BT2B.jpg","null","",NA,NA,NA,NA,""
"image-keyboard-response",422,401207,"0.0-4.136-2.136","xx05mhc30vz7kwv",45,"86.csv","","null","resources/images/coin2.png","null","",NA,NA,NA,NA,""
"image-keyboard-response",423,401485,"0.0-4.137-0.137","xx05mhc30vz7kwv",45,"86.csv","","275.5","resources/trios/L1T2A3.jpg","37","restless",0.7,0.4,0.4,0.909430869959696,"false"
"image-keyboard-response",424,401900,"0.0-4.137-1.137","xx05mhc30vz7kwv",45,"86.csv","","null","resources/maskTrios/L1BB.jpg","null","",NA,NA,NA,NA,""
"image-keyboard-response",425,403111,"0.0-4.137-2.137","xx05mhc30vz7kwv",45,"86.csv","","null","resources/images/fishbone.png","null","",NA,NA,NA,NA,""
"image-keyboard-response",426,403315,"0.0-4.138-0.138","xx05mhc30vz7kwv",45,"86.csv","","201.6000000089407","resources/trios/L1T2A3.jpg","37","restless",0.7,0.4,0.4,0.424604828191387,"true"
"image-keyboard-response",427,403731,"0.0-4.138-1.138","xx05mhc30vz7kwv",45,"86.csv","","null","resources/maskTrios/L1BB.jpg","null","",NA,NA,NA,NA,""
"image-keyboard-response",428,404944,"0.0-4.138-2.138","xx05mhc30vz7kwv",45,"86.csv","","null","resources/images/coin2.png","null","",NA,NA,NA,NA,""
"image-keyboard-response",429,405256,"0.0-4.139-0.139","xx05mhc30vz7kwv",45,"86.csv","","309.09999999403954","resources/trios/L1T2A3.jpg","37","restless",0.7,0.4,0.4,0.821926594551992,"false"
"image-keyboard-response",430,405671,"0.0-4.139-1.139","xx05mhc30vz7kwv",45,"86.csv","","null","resources/maskTrios/L1BB.jpg","null","",NA,NA,NA,NA,""
"image-keyboard-response",431,406876,"0.0-4.139-2.139","xx05mhc30vz7kwv",45,"86.csv","","null","resources/images/fishbone.png","null","",NA,NA,NA,NA,""
"image-keyboard-response",432,407419,"0.0-4.140-0.140","xx05mhc30vz7kwv",45,"86.csv","","540.2999999970198","resources/trios/L1T2A3.jpg","38","restless",0.7,0.4,0.4,0.192023359732126,"true"
"image-keyboard-response",433,407828,"0.0-4.140-1.140","xx05mhc30vz7kwv",45,"86.csv","","null","resources/maskTrios/BT2B.jpg","null","",NA,NA,NA,NA,""
"image-keyboard-response",434,409033,"0.0-4.140-2.140","xx05mhc30vz7kwv",45,"86.csv","","null","resources/images/coin2.png","null","",NA,NA,NA,NA,""
"image-keyboard-response",435,409405,"0.0-4.141-0.141","xx05mhc30vz7kwv",45,"86.csv","","369.5","resources/trios/L1T2A3.jpg","39","restless",0.7,0.5,0.5,0.934904964143263,"false"
"image-keyboard-response",436,409810,"0.0-4.141-1.141","xx05mhc30vz7kwv",45,"86.csv","","null","resources/maskTrios/BBA3.jpg","null","",NA,NA,NA,NA,""
"image-keyboard-response",437,411015,"0.0-4.141-2.141","xx05mhc30vz7kwv",45,"86.csv","","null","resources/images/fishbone.png","null","",NA,NA,NA,NA,""
"image-keyboard-response",438,411333,"0.0-4.142-0.142","xx05mhc30vz7kwv",45,"86.csv","","315.1000000089407","resources/trios/L1T2A3.jpg","38","restless",0.7,0.5,0.5,0.892482196505155,"false"
"image-keyboard-response",439,411739,"0.0-4.142-1.142","xx05mhc30vz7kwv",45,"86.csv","","null","resources/maskTrios/BT2B.jpg","null","",NA,NA,NA,NA,""
"image-keyboard-response",440,412937,"0.0-4.142-2.142","xx05mhc30vz7kwv",45,"86.csv","","null","resources/images/fishbone.png","null","",NA,NA,NA,NA,""
"image-keyboard-response",441,413668,"0.0-4.143-0.143","xx05mhc30vz7kwv",45,"86.csv","","728.5999999940395","resources/trios/L1T2A3.jpg","37","restless",0.7,0.5,0.5,0.608323935998545,"true"
"image-keyboard-response",442,414073,"0.0-4.143-1.143","xx05mhc30vz7kwv",45,"86.csv","","null","resources/maskTrios/L1BB.jpg","null","",NA,NA,NA,NA,""
"image-keyboard-response",443,415289,"0.0-4.143-2.143","xx05mhc30vz7kwv",45,"86.csv","","null","resources/images/coin2.png","null","",NA,NA,NA,NA,""
"image-keyboard-response",444,415635,"0.0-4.144-0.144","xx05mhc30vz7kwv",45,"86.csv","","344.09999999403954","resources/trios/L1T2A3.jpg","39","restless",0.7,0.5,0.5,0.606111682549751,"false"
"image-keyboard-response",445,416052,"0.0-4.144-1.144","xx05mhc30vz7kwv",45,"86.csv","","null","resources/maskTrios/BBA3.jpg","null","",NA,NA,NA,NA,""
"image-keyboard-response",446,417269,"0.0-4.144-2.144","xx05mhc30vz7kwv",45,"86.csv","","null","resources/images/fishbone.png","null","",NA,NA,NA,NA,""
"image-keyboard-response",447,417537,"0.0-4.145-0.145","xx05mhc30vz7kwv",45,"86.csv","","264.90000000596046","resources/trios/L1T2A3.jpg","39","restless",0.7,0.5,0.5,0.951854909920578,"false"
"image-keyboard-response",448,417954,"0.0-4.145-1.145","xx05mhc30vz7kwv",45,"86.csv","","null","resources/maskTrios/BBA3.jpg","null","",NA,NA,NA,NA,""
"image-keyboard-response",449,419162,"0.0-4.145-2.145","xx05mhc30vz7kwv",45,"86.csv","","null","resources/images/fishbone.png","null","",NA,NA,NA,NA,""
"image-keyboard-response",450,419465,"0.0-4.146-0.146","xx05mhc30vz7kwv",45,"86.csv","","299.6000000089407","resources/trios/L1T2A3.jpg","39","restless",0.7,0.5,0.4,0.724625703501458,"false"
"image-keyboard-response",451,419877,"0.0-4.146-1.146","xx05mhc30vz7kwv",45,"86.csv","","null","resources/maskTrios/BBA3.jpg","null","",NA,NA,NA,NA,""
"image-keyboard-response",452,421083,"0.0-4.146-2.146","xx05mhc30vz7kwv",45,"86.csv","","null","resources/images/fishbone.png","null","",NA,NA,NA,NA,""
"image-keyboard-response",453,421210,"0.0-4.147-0.147","xx05mhc30vz7kwv",45,"86.csv","","125.09999999403954","resources/trios/L1T2A3.jpg","39","restless",0.7,0.5,0.4,0.465302987013062,"false"
"image-keyboard-response",454,421626,"0.0-4.147-1.147","xx05mhc30vz7kwv",45,"86.csv","","null","resources/maskTrios/BBA3.jpg","null","",NA,NA,NA,NA,""
"image-keyboard-response",455,422838,"0.0-4.147-2.147","xx05mhc30vz7kwv",45,"86.csv","","null","resources/images/fishbone.png","null","",NA,NA,NA,NA,""
"image-keyboard-response",456,423285,"0.0-4.148-0.148","xx05mhc30vz7kwv",45,"86.csv","","444.59999999403954","resources/trios/L1T2A3.jpg","39","restless",0.7,0.5,0.4,0.800098428066107,"false"
"image-keyboard-response",457,423698,"0.0-4.148-1.148","xx05mhc30vz7kwv",45,"86.csv","","null","resources/maskTrios/BBA3.jpg","null","",NA,NA,NA,NA,""
"image-keyboard-response",458,424908,"0.0-4.148-2.148","xx05mhc30vz7kwv",45,"86.csv","","null","resources/images/fishbone.png","null","",NA,NA,NA,NA,""
"image-keyboard-response",459,425269,"0.0-4.149-0.149","xx05mhc30vz7kwv",45,"86.csv","","358.79999999701977","resources/trios/L1T2A3.jpg","39","restless",0.7,0.6,0.4,0.404446378707293,"false"
"image-keyboard-response",460,425678,"0.0-4.149-1.149","xx05mhc30vz7kwv",45,"86.csv","","null","resources/maskTrios/BBA3.jpg","null","",NA,NA,NA,NA,""
"image-keyboard-response",461,426892,"0.0-4.149-2.149","xx05mhc30vz7kwv",45,"86.csv","","null","resources/images/fishbone.png","null","",NA,NA,NA,NA,""
"image-keyboard-response",462,427207,"0.0-4.150-0.150","xx05mhc30vz7kwv",45,"86.csv","","312.20000000298023","resources/trios/L1T2A3.jpg","39","restless",0.6,0.6,0.5,0.00211455852144771,"true"
"image-keyboard-response",463,427612,"0.0-4.150-1.150","xx05mhc30vz7kwv",45,"86.csv","","null","resources/maskTrios/BBA3.jpg","null","",NA,NA,NA,NA,""
"image-keyboard-response",464,428823,"0.0-4.150-2.150","xx05mhc30vz7kwv",45,"86.csv","","null","resources/images/coin2.png","null","",NA,NA,NA,NA,""
"image-keyboard-response",465,429157,"0.0-4.151-0.151","xx05mhc30vz7kwv",45,"86.csv","","331.29999999701977","resources/trios/L1T2A3.jpg","38","restless",0.6,0.6,0.5,0.276605497146905,"true"
"image-keyboard-response",466,429578,"0.0-4.151-1.151","xx05mhc30vz7kwv",45,"86.csv","","null","resources/maskTrios/BT2B.jpg","null","",NA,NA,NA,NA,""
"image-keyboard-response",467,430788,"0.0-4.151-2.151","xx05mhc30vz7kwv",45,"86.csv","","null","resources/images/coin2.png","null","",NA,NA,NA,NA,""
"image-keyboard-response",468,431033,"0.0-4.152-0.152","xx05mhc30vz7kwv",45,"86.csv","","243.1000000089407","resources/trios/L1T2A3.jpg","38","restless",0.6,0.6,0.5,0.0115742148528093,"true"
"image-keyboard-response",469,431441,"0.0-4.152-1.152","xx05mhc30vz7kwv",45,"86.csv","","null","resources/maskTrios/BT2B.jpg","null","",NA,NA,NA,NA,""
"image-keyboard-response",470,432654,"0.0-4.152-2.152","xx05mhc30vz7kwv",45,"86.csv","","null","resources/images/coin2.png","null","",NA,NA,NA,NA,""
"image-keyboard-response",471,432919,"0.0-4.153-0.153","xx05mhc30vz7kwv",45,"86.csv","","262.69999998807907","resources/trios/L1T2A3.jpg","38","restless",0.6,0.6,0.5,0.882007639588978,"false"
"image-keyboard-response",472,433336,"0.0-4.153-1.153","xx05mhc30vz7kwv",45,"86.csv","","null","resources/maskTrios/BT2B.jpg","null","",NA,NA,NA,NA,""
"image-keyboard-response",473,434546,"0.0-4.153-2.153","xx05mhc30vz7kwv",45,"86.csv","","null","resources/images/fishbone.png","null","",NA,NA,NA,NA,""
"image-keyboard-response",474,434907,"0.0-4.154-0.154","xx05mhc30vz7kwv",45,"86.csv","","357.80000001192093","resources/trios/L1T2A3.jpg","38","restless",0.5,0.6,0.5,0.584842112932387,"true"
"image-keyboard-response",475,435312,"0.0-4.154-1.154","xx05mhc30vz7kwv",45,"86.csv","","null","resources/maskTrios/BT2B.jpg","null","",NA,NA,NA,NA,""
"image-keyboard-response",476,436525,"0.0-4.154-2.154","xx05mhc30vz7kwv",45,"86.csv","","null","resources/images/coin2.png","null","",NA,NA,NA,NA,""
"image-keyboard-response",477,437160,"0.0-4.155-0.155","xx05mhc30vz7kwv",45,"86.csv","","632.7000000029802","resources/trios/L1T2A3.jpg","37","restless",0.6,0.7,0.5,0.943999685369234,"false"
"image-keyboard-response",478,437569,"0.0-4.155-1.155","xx05mhc30vz7kwv",45,"86.csv","","null","resources/maskTrios/L1BB.jpg","null","",NA,NA,NA,NA,""
"image-keyboard-response",479,438784,"0.0-4.155-2.155","xx05mhc30vz7kwv",45,"86.csv","","null","resources/images/fishbone.png","null","",NA,NA,NA,NA,""
"image-keyboard-response",480,439021,"0.0-4.156-0.156","xx05mhc30vz7kwv",45,"86.csv","","233.5","resources/trios/L1T2A3.jpg","38","restless",0.6,0.7,0.5,0.420890094862797,"true"
"image-keyboard-response",481,439424,"0.0-4.156-1.156","xx05mhc30vz7kwv",45,"86.csv","","null","resources/maskTrios/BT2B.jpg","null","",NA,NA,NA,NA,""
"image-keyboard-response",482,440638,"0.0-4.156-2.156","xx05mhc30vz7kwv",45,"86.csv","","null","resources/images/coin2.png","null","",NA,NA,NA,NA,""
"image-keyboard-response",483,440671,"0.0-4.157-0.157","xx05mhc30vz7kwv",45,"86.csv","","31.200000002980232","resources/trios/L1T2A3.jpg","38","restless",0.6,0.7,0.5,0.512819292150152,"true"
"image-keyboard-response",484,441081,"0.0-4.157-1.157","xx05mhc30vz7kwv",45,"86.csv","","null","resources/maskTrios/BT2B.jpg","null","",NA,NA,NA,NA,""
"image-keyboard-response",485,442294,"0.0-4.157-2.157","xx05mhc30vz7kwv",45,"86.csv","","null","resources/images/coin2.png","null","",NA,NA,NA,NA,""
"image-keyboard-response",486,442896,"0.0-4.158-0.158","xx05mhc30vz7kwv",45,"86.csv","","599.2000000029802","resources/trios/L1T2A3.jpg","38","restless",0.6,0.7,0.5,0.547898605281524,"true"
"image-keyboard-response",487,443312,"0.0-4.158-1.158","xx05mhc30vz7kwv",45,"86.csv","","null","resources/maskTrios/BT2B.jpg","null","",NA,NA,NA,NA,""
"image-keyboard-response",488,444518,"0.0-4.158-2.158","xx05mhc30vz7kwv",45,"86.csv","","null","resources/images/coin2.png","null","",NA,NA,NA,NA,""
"image-keyboard-response",489,445715,"0.0-4.159-0.159","xx05mhc30vz7kwv",45,"86.csv","","1193.7999999970198","resources/trios/L1T2A3.jpg","38","restless",0.6,0.7,0.5,0.0450035887878815,"true"
"image-keyboard-response",490,446119,"0.0-4.159-1.159","xx05mhc30vz7kwv",45,"86.csv","","null","resources/maskTrios/BT2B.jpg","null","",NA,NA,NA,NA,""
"image-keyboard-response",491,447335,"0.0-4.159-2.159","xx05mhc30vz7kwv",45,"86.csv","","null","resources/images/coin2.png","null","",NA,NA,NA,NA,""
"image-keyboard-response",492,447661,"0.0-4.160-0.160","xx05mhc30vz7kwv",45,"86.csv","","323.79999999701977","resources/trios/L1T2A3.jpg","37","restless",0.6,0.7,0.5,0.948294344952204,"false"
"image-keyboard-response",493,448067,"0.0-4.160-1.160","xx05mhc30vz7kwv",45,"86.csv","","null","resources/maskTrios/L1BB.jpg","null","",NA,NA,NA,NA,""
"image-keyboard-response",494,449280,"0.0-4.160-2.160","xx05mhc30vz7kwv",45,"86.csv","","null","resources/images/fishbone.png","null","",NA,NA,NA,NA,""
"image-keyboard-response",495,449663,"0.0-4.161-0.161","xx05mhc30vz7kwv",45,"86.csv","","379.8999999910593","resources/trios/L1T2A3.jpg","38","restless",0.5,0.7,0.5,0.151039628752291,"true"
"image-keyboard-response",496,450073,"0.0-4.161-1.161","xx05mhc30vz7kwv",45,"86.csv","","null","resources/maskTrios/BT2B.jpg","null","",NA,NA,NA,NA,""
"image-keyboard-response",497,451277,"0.0-4.161-2.161","xx05mhc30vz7kwv",45,"86.csv","","null","resources/images/coin2.png","null","",NA,NA,NA,NA,""
"image-keyboard-response",498,451877,"0.0-4.162-0.162","xx05mhc30vz7kwv",45,"86.csv","","597.2999999970198","resources/trios/L1T2A3.jpg","39","restless",0.5,0.7,0.5,0.875868832712103,"false"
"image-keyboard-response",499,452293,"0.0-4.162-1.162","xx05mhc30vz7kwv",45,"86.csv","","null","resources/maskTrios/BBA3.jpg","null","",NA,NA,NA,NA,""
"image-keyboard-response",500,453507,"0.0-4.162-2.162","xx05mhc30vz7kwv",45,"86.csv","","null","resources/images/fishbone.png","null","",NA,NA,NA,NA,""
"image-keyboard-response",501,454059,"0.0-4.163-0.163","xx05mhc30vz7kwv",45,"86.csv","","549","resources/trios/L1T2A3.jpg","38","restless",0.5,0.7,0.5,0.083870617696242,"true"
"image-keyboard-response",502,454475,"0.0-4.163-1.163","xx05mhc30vz7kwv",45,"86.csv","","null","resources/maskTrios/BT2B.jpg","null","",NA,NA,NA,NA,""
"image-keyboard-response",503,455689,"0.0-4.163-2.163","xx05mhc30vz7kwv",45,"86.csv","","null","resources/images/coin2.png","null","",NA,NA,NA,NA,""
"image-keyboard-response",504,456759,"0.0-4.164-0.164","xx05mhc30vz7kwv",45,"86.csv","","1068.5","resources/trios/L1T2A3.jpg","37","restless",0.5,0.7,0.6,0.260532394936098,"true"
"image-keyboard-response",505,457166,"0.0-4.164-1.164","xx05mhc30vz7kwv",45,"86.csv","","null","resources/maskTrios/L1BB.jpg","null","",NA,NA,NA,NA,""
"image-keyboard-response",506,458379,"0.0-4.164-2.164","xx05mhc30vz7kwv",45,"86.csv","","null","resources/images/coin2.png","null","",NA,NA,NA,NA,""
"image-keyboard-response",507,459674,"0.0-4.165-0.165","xx05mhc30vz7kwv",45,"86.csv","","1293","resources/trios/L1T2A3.jpg","39","restless",0.5,0.6,0.6,0.643962994250854,"false"
"image-keyboard-response",508,460079,"0.0-4.165-1.165","xx05mhc30vz7kwv",45,"86.csv","","null","resources/maskTrios/BBA3.jpg","null","",NA,NA,NA,NA,""
"image-keyboard-response",509,461292,"0.0-4.165-2.165","xx05mhc30vz7kwv",45,"86.csv","","null","resources/images/fishbone.png","null","",NA,NA,NA,NA,""
"image-keyboard-response",510,462429,"0.0-4.166-0.166","xx05mhc30vz7kwv",45,"86.csv","","1133.5999999940395","resources/trios/L1T2A3.jpg","38","restless",0.5,0.6,0.6,0.673504675322576,"false"
"image-keyboard-response",511,462836,"0.0-4.166-1.166","xx05mhc30vz7kwv",45,"86.csv","","null","resources/maskTrios/BT2B.jpg","null","",NA,NA,NA,NA,""
"image-keyboard-response",512,464050,"0.0-4.166-2.166","xx05mhc30vz7kwv",45,"86.csv","","null","resources/images/fishbone.png","null","",NA,NA,NA,NA,""
"image-keyboard-response",513,464813,"0.0-4.167-0.167","xx05mhc30vz7kwv",45,"86.csv","","760.9000000059605","resources/trios/L1T2A3.jpg","37","restless",0.5,0.6,0.6,0.45583622093575,"true"
"image-keyboard-response",514,465225,"0.0-4.167-1.167","xx05mhc30vz7kwv",45,"86.csv","","null","resources/maskTrios/L1BB.jpg","null","",NA,NA,NA,NA,""
"image-keyboard-response",515,466430,"0.0-4.167-2.167","xx05mhc30vz7kwv",45,"86.csv","","null","resources/images/coin2.png","null","",NA,NA,NA,NA,""
"image-keyboard-response",516,466496,"0.0-4.168-0.168","xx05mhc30vz7kwv",45,"86.csv","","63.80000001192093","resources/trios/L1T2A3.jpg","38","restless",0.5,0.6,0.6,0.0107045329252051,"true"
"image-keyboard-response",517,466912,"0.0-4.168-1.168","xx05mhc30vz7kwv",45,"86.csv","","null","resources/maskTrios/BT2B.jpg","null","",NA,NA,NA,NA,""
"image-keyboard-response",518,468127,"0.0-4.168-2.168","xx05mhc30vz7kwv",45,"86.csv","","null","resources/images/coin2.png","null","",NA,NA,NA,NA,""
"image-keyboard-response",519,470169,"0.0-4.169-0.169","xx05mhc30vz7kwv",45,"86.csv","","2039.4000000059605","resources/trios/L1T2A3.jpg","39","restless",0.4,0.6,0.6,0.882863597325051,"false"
"image-keyboard-response",520,470578,"0.0-4.169-1.169","xx05mhc30vz7kwv",45,"86.csv","","null","resources/maskTrios/BBA3.jpg","null","",NA,NA,NA,NA,""
"image-keyboard-response",521,471783,"0.0-4.169-2.169","xx05mhc30vz7kwv",45,"86.csv","","null","resources/images/fishbone.png","null","",NA,NA,NA,NA,""
"image-keyboard-response",522,472219,"0.0-4.170-0.170","xx05mhc30vz7kwv",45,"86.csv","","433.1000000089407","resources/trios/L1T2A3.jpg","38","restless",0.4,0.6,0.6,0.295231139389988,"true"
"image-keyboard-response",523,472625,"0.0-4.170-1.170","xx05mhc30vz7kwv",45,"86.csv","","null","resources/maskTrios/BT2B.jpg","null","",NA,NA,NA,NA,""
"image-keyboard-response",524,473844,"0.0-4.170-2.170","xx05mhc30vz7kwv",45,"86.csv","","null","resources/images/coin2.png","null","",NA,NA,NA,NA,""
"image-keyboard-response",525,478938,"0.0-4.171-0.171","xx05mhc30vz7kwv",45,"86.csv","","5090.5","resources/trios/L1T2A3.jpg","37","restless",0.4,0.6,0.6,0.377967296976189,"true"
"image-keyboard-response",526,479344,"0.0-4.171-1.171","xx05mhc30vz7kwv",45,"86.csv","","null","resources/maskTrios/L1BB.jpg","null","",NA,NA,NA,NA,""
"image-keyboard-response",527,480555,"0.0-4.171-2.171","xx05mhc30vz7kwv",45,"86.csv","","null","resources/images/coin2.png","null","",NA,NA,NA,NA,""
"image-keyboard-response",528,480935,"0.0-4.172-0.172","xx05mhc30vz7kwv",45,"86.csv","","377","resources/trios/L1T2A3.jpg","39","restless",0.4,0.6,0.6,0.205610304702773,"true"
"image-keyboard-response",529,481339,"0.0-4.172-1.172","xx05mhc30vz7kwv",45,"86.csv","","null","resources/maskTrios/BBA3.jpg","null","",NA,NA,NA,NA,""
"image-keyboard-response",530,482544,"0.0-4.172-2.172","xx05mhc30vz7kwv",45,"86.csv","","null","resources/images/coin2.png","null","",NA,NA,NA,NA,""
"image-keyboard-response",531,483054,"0.0-4.173-0.173","xx05mhc30vz7kwv",45,"86.csv","","507.1000000089407","resources/trios/L1T2A3.jpg","37","restless",0.4,0.6,0.5,0.864564035733373,"false"
"image-keyboard-response",532,483462,"0.0-4.173-1.173","xx05mhc30vz7kwv",45,"86.csv","","null","resources/maskTrios/L1BB.jpg","null","",NA,NA,NA,NA,""
"image-keyboard-response",533,484666,"0.0-4.173-2.173","xx05mhc30vz7kwv",45,"86.csv","","null","resources/images/fishbone.png","null","",NA,NA,NA,NA,""
"image-keyboard-response",534,490960,"0.0-4.174-0.174","xx05mhc30vz7kwv",45,"86.csv","","6291","resources/trios/L1T2A3.jpg","38","restless",0.4,0.6,0.5,0.786851662329595,"false"
"image-keyboard-response",535,491363,"0.0-4.174-1.174","xx05mhc30vz7kwv",45,"86.csv","","null","resources/maskTrios/BT2B.jpg","null","",NA,NA,NA,NA,""
"image-keyboard-response",536,492568,"0.0-4.174-2.174","xx05mhc30vz7kwv",45,"86.csv","","null","resources/images/fishbone.png","null","",NA,NA,NA,NA,""
"image-keyboard-response",537,493046,"0.0-4.175-0.175","xx05mhc30vz7kwv",45,"86.csv","","475.30000001192093","resources/trios/L1T2A3.jpg","39","restless",0.4,0.6,0.5,0.510691743748397,"false"
"image-keyboard-response",538,493454,"0.0-4.175-1.175","xx05mhc30vz7kwv",45,"86.csv","","null","resources/maskTrios/BBA3.jpg","null","",NA,NA,NA,NA,""
"image-keyboard-response",539,494666,"0.0-4.175-2.175","xx05mhc30vz7kwv",45,"86.csv","","null","resources/images/fishbone.png","null","",NA,NA,NA,NA,""
"image-keyboard-response",540,494931,"0.0-4.176-0.176","xx05mhc30vz7kwv",45,"86.csv","","262.40000000596046","resources/trios/L1T2A3.jpg","37","restless",0.4,0.6,0.5,0.870034922342783,"false"
"image-keyboard-response",541,495341,"0.0-4.176-1.176","xx05mhc30vz7kwv",45,"86.csv","","null","resources/maskTrios/L1BB.jpg","null","",NA,NA,NA,NA,""
"image-keyboard-response",542,496554,"0.0-4.176-2.176","xx05mhc30vz7kwv",45,"86.csv","","null","resources/images/fishbone.png","null","",NA,NA,NA,NA,""
"image-keyboard-response",543,498104,"0.0-4.177-0.177","xx05mhc30vz7kwv",45,"86.csv","","1547.7000000029802","resources/trios/L1T2A3.jpg","39","restless",0.4,0.6,0.5,0.580724452393107,"false"
"image-keyboard-response",544,498522,"0.0-4.177-1.177","xx05mhc30vz7kwv",45,"86.csv","","null","resources/maskTrios/BBA3.jpg","null","",NA,NA,NA,NA,""
"image-keyboard-response",545,499727,"0.0-4.177-2.177","xx05mhc30vz7kwv",45,"86.csv","","null","resources/images/fishbone.png","null","",NA,NA,NA,NA,""
"image-keyboard-response",546,505026,"0.0-4.178-0.178","xx05mhc30vz7kwv",45,"86.csv","","5296.300000011921","resources/trios/L1T2A3.jpg","37","restless",0.4,0.6,0.5,0.0317257983759598,"true"
"image-keyboard-response",547,505435,"0.0-4.178-1.178","xx05mhc30vz7kwv",45,"86.csv","","null","resources/maskTrios/L1BB.jpg","null","",NA,NA,NA,NA,""
"image-keyboard-response",548,506644,"0.0-4.178-2.178","xx05mhc30vz7kwv",45,"86.csv","","null","resources/images/coin2.png","null","",NA,NA,NA,NA,""
"image-keyboard-response",549,507164,"0.0-4.179-0.179","xx05mhc30vz7kwv",45,"86.csv","","517.5","resources/trios/L1T2A3.jpg","37","restless",0.4,0.6,0.6,0.39815714044314,"true"
"image-keyboard-response",550,507579,"0.0-4.179-1.179","xx05mhc30vz7kwv",45,"86.csv","","null","resources/maskTrios/L1BB.jpg","null","",NA,NA,NA,NA,""
"image-keyboard-response",551,508782,"0.0-4.179-2.179","xx05mhc30vz7kwv",45,"86.csv","","null","resources/images/coin2.png","null","",NA,NA,NA,NA,""
"image-keyboard-response",552,510145,"0.0-4.180-0.180","xx05mhc30vz7kwv",45,"86.csv","","1359.9000000059605","resources/trios/L1T2A3.jpg","38","restless",0.4,0.6,0.6,0.502236833877879,"true"
"image-keyboard-response",553,510559,"0.0-4.180-1.180","xx05mhc30vz7kwv",45,"86.csv","","null","resources/maskTrios/BT2B.jpg","null","",NA,NA,NA,NA,""
"image-keyboard-response",554,511766,"0.0-4.180-2.180","xx05mhc30vz7kwv",45,"86.csv","","null","resources/images/coin2.png","null","",NA,NA,NA,NA,""
"image-keyboard-response",555,513370,"0.0-4.181-0.181","xx05mhc30vz7kwv",45,"86.csv","","1600.7000000029802","resources/trios/L1T2A3.jpg","39","restless",0.4,0.6,0.6,0.465213214223657,"true"
"image-keyboard-response",556,513774,"0.0-4.181-1.181","xx05mhc30vz7kwv",45,"86.csv","","null","resources/maskTrios/BBA3.jpg","null","",NA,NA,NA,NA,""
"image-keyboard-response",557,514978,"0.0-4.181-2.181","xx05mhc30vz7kwv",45,"86.csv","","null","resources/images/coin2.png","null","",NA,NA,NA,NA,""
"image-keyboard-response",558,515632,"0.0-4.182-0.182","xx05mhc30vz7kwv",45,"86.csv","","651.6999999880791","resources/trios/L1T2A3.jpg","38","restless",0.4,0.6,0.6,0.773183111796939,"false"
"image-keyboard-response",559,516038,"0.0-4.182-1.182","xx05mhc30vz7kwv",45,"86.csv","","null","resources/maskTrios/BT2B.jpg","null","",NA,NA,NA,NA,""
"image-keyboard-response",560,517242,"0.0-4.182-2.182","xx05mhc30vz7kwv",45,"86.csv","","null","resources/images/fishbone.png","null","",NA,NA,NA,NA,""
"image-keyboard-response",561,517600,"0.0-4.183-0.183","xx05mhc30vz7kwv",45,"86.csv","","355.29999999701977","resources/trios/L1T2A3.jpg","37","restless",0.4,0.6,0.6,0.670271735280141,"false"
"image-keyboard-response",562,518012,"0.0-4.183-1.183","xx05mhc30vz7kwv",45,"86.csv","","null","resources/maskTrios/L1BB.jpg","null","",NA,NA,NA,NA,""
"image-keyboard-response",563,519223,"0.0-4.183-2.183","xx05mhc30vz7kwv",45,"86.csv","","null","resources/images/fishbone.png","null","",NA,NA,NA,NA,""
"image-keyboard-response",564,524513,"0.0-4.184-0.184","xx05mhc30vz7kwv",45,"86.csv","","5287.4000000059605","resources/trios/L1T2A3.jpg","39","restless",0.4,0.6,0.6,0.24306522835036,"true"
"image-keyboard-response",565,524929,"0.0-4.184-1.184","xx05mhc30vz7kwv",45,"86.csv","","null","resources/maskTrios/BBA3.jpg","null","",NA,NA,NA,NA,""
"image-keyboard-response",566,526134,"0.0-4.184-2.184","xx05mhc30vz7kwv",45,"86.csv","","null","resources/images/coin2.png","null","",NA,NA,NA,NA,""
"image-keyboard-response",567,526138,"0.0-4.185-0.185","xx05mhc30vz7kwv",45,"86.csv","","1.300000011920929","resources/trios/L1T2A3.jpg","38","restless",0.4,0.6,0.6,0.110128212929575,"true"
"image-keyboard-response",568,526553,"0.0-4.185-1.185","xx05mhc30vz7kwv",45,"86.csv","","null","resources/maskTrios/BT2B.jpg","null","",NA,NA,NA,NA,""
"image-keyboard-response",569,527757,"0.0-4.185-2.185","xx05mhc30vz7kwv",45,"86.csv","","null","resources/images/coin2.png","null","",NA,NA,NA,NA,""
"image-keyboard-response",570,528592,"0.0-4.186-0.186","xx05mhc30vz7kwv",45,"86.csv","","831.2999999970198","resources/trios/L1T2A3.jpg","37","restless",0.4,0.6,0.6,0.913182057421186,"false"
"image-keyboard-response",571,529000,"0.0-4.186-1.186","xx05mhc30vz7kwv",45,"86.csv","","null","resources/maskTrios/L1BB.jpg","null","",NA,NA,NA,NA,""
"image-keyboard-response",572,530213,"0.0-4.186-2.186","xx05mhc30vz7kwv",45,"86.csv","","null","resources/images/fishbone.png","null","",NA,NA,NA,NA,""
"image-keyboard-response",573,530568,"0.0-4.187-0.187","xx05mhc30vz7kwv",45,"86.csv","","352.8999999910593","resources/trios/L1T2A3.jpg","37","restless",0.4,0.6,0.6,0.794715801143868,"false"
"image-keyboard-response",574,530974,"0.0-4.187-1.187","xx05mhc30vz7kwv",45,"86.csv","","null","resources/maskTrios/L1BB.jpg","null","",NA,NA,NA,NA,""
"image-keyboard-response",575,532178,"0.0-4.187-2.187","xx05mhc30vz7kwv",45,"86.csv","","null","resources/images/fishbone.png","null","",NA,NA,NA,NA,""
"image-keyboard-response",576,532789,"0.0-4.188-0.188","xx05mhc30vz7kwv",45,"86.csv","","608.2999999970198","resources/trios/L1T2A3.jpg","37","restless",0.4,0.6,0.6,0.383063224968753,"true"
"image-keyboard-response",577,533196,"0.0-4.188-1.188","xx05mhc30vz7kwv",45,"86.csv","","null","resources/maskTrios/L1BB.jpg","null","",NA,NA,NA,NA,""
"image-keyboard-response",578,534401,"0.0-4.188-2.188","xx05mhc30vz7kwv",45,"86.csv","","null","resources/images/coin2.png","null","",NA,NA,NA,NA,""
"image-keyboard-response",579,535716,"0.0-4.189-0.189","xx05mhc30vz7kwv",45,"86.csv","","1312","resources/trios/L1T2A3.jpg","38","restless",0.4,0.6,0.6,0.548926421520356,"true"
"image-keyboard-response",580,536128,"0.0-4.189-1.189","xx05mhc30vz7kwv",45,"86.csv","","null","resources/maskTrios/BT2B.jpg","null","",NA,NA,NA,NA,""
"image-keyboard-response",581,537346,"0.0-4.189-2.189","xx05mhc30vz7kwv",45,"86.csv","","null","resources/images/coin2.png","null","",NA,NA,NA,NA,""
"image-keyboard-response",582,539341,"0.0-4.190-0.190","xx05mhc30vz7kwv",45,"86.csv","","1991.800000011921","resources/trios/L1T2A3.jpg","39","restless",0.4,0.6,0.6,0.259551319777342,"true"
"image-keyboard-response",583,539748,"0.0-4.190-1.190","xx05mhc30vz7kwv",45,"86.csv","","null","resources/maskTrios/BBA3.jpg","null","",NA,NA,NA,NA,""
"image-keyboard-response",584,540954,"0.0-4.190-2.190","xx05mhc30vz7kwv",45,"86.csv","","null","resources/images/coin2.png","null","",NA,NA,NA,NA,""
"image-keyboard-response",585,541699,"0.0-4.191-0.191","xx05mhc30vz7kwv",45,"86.csv","","742.9000000059605","resources/trios/L1T2A3.jpg","37","restless",0.4,0.6,0.6,0.00106105992860206,"true"
"image-keyboard-response",586,542104,"0.0-4.191-1.191","xx05mhc30vz7kwv",45,"86.csv","","null","resources/maskTrios/L1BB.jpg","null","",NA,NA,NA,NA,""
"image-keyboard-response",587,543309,"0.0-4.191-2.191","xx05mhc30vz7kwv",45,"86.csv","","null","resources/images/coin2.png","null","",NA,NA,NA,NA,""
"image-keyboard-response",588,543564,"0.0-4.192-0.192","xx05mhc30vz7kwv",45,"86.csv","","252.5","resources/trios/L1T2A3.jpg","38","restless",0.4,0.7,0.6,0.179197733726251,"true"
"image-keyboard-response",589,543969,"0.0-4.192-1.192","xx05mhc30vz7kwv",45,"86.csv","","null","resources/maskTrios/BT2B.jpg","null","",NA,NA,NA,NA,""
"image-keyboard-response",590,545175,"0.0-4.192-2.192","xx05mhc30vz7kwv",45,"86.csv","","null","resources/images/coin2.png","null","",NA,NA,NA,NA,""
"image-keyboard-response",591,545717,"0.0-4.193-0.193","xx05mhc30vz7kwv",45,"86.csv","","539.4000000059605","resources/trios/L1T2A3.jpg","39","restless",0.4,0.7,0.5,0.821713651759495,"false"
"image-keyboard-response",592,546125,"0.0-4.193-1.193","xx05mhc30vz7kwv",45,"86.csv","","null","resources/maskTrios/BBA3.jpg","null","",NA,NA,NA,NA,""
"image-keyboard-response",593,547338,"0.0-4.193-2.193","xx05mhc30vz7kwv",45,"86.csv","","null","resources/images/fishbone.png","null","",NA,NA,NA,NA,""
"image-keyboard-response",594,547895,"0.0-4.194-0.194","xx05mhc30vz7kwv",45,"86.csv","","554.8000000119209","resources/trios/L1T2A3.jpg","38","restless",0.4,0.7,0.5,0.660940231626198,"true"
"image-keyboard-response",595,548306,"0.0-4.194-1.194","xx05mhc30vz7kwv",45,"86.csv","","null","resources/maskTrios/BT2B.jpg","null","",NA,NA,NA,NA,""
"image-keyboard-response",596,549511,"0.0-4.194-2.194","xx05mhc30vz7kwv",45,"86.csv","","null","resources/images/coin2.png","null","",NA,NA,NA,NA,""
"image-keyboard-response",597,550318,"0.0-4.195-0.195","xx05mhc30vz7kwv",45,"86.csv","","804","resources/trios/L1T2A3.jpg","37","restless",0.3,0.7,0.5,0.923029994815203,"false"
"image-keyboard-response",598,550730,"0.0-4.195-1.195","xx05mhc30vz7kwv",45,"86.csv","","null","resources/maskTrios/L1BB.jpg","null","",NA,NA,NA,NA,""
"image-keyboard-response",599,551943,"0.0-4.195-2.195","xx05mhc30vz7kwv",45,"86.csv","","null","resources/images/fishbone.png","null","",NA,NA,NA,NA,""
"image-keyboard-response",600,552519,"0.0-4.196-0.196","xx05mhc30vz7kwv",45,"86.csv","","573.1000000089407","resources/trios/L1T2A3.jpg","39","restless",0.3,0.7,0.4,0.260071224007725,"true"
"image-keyboard-response",601,552935,"0.0-4.196-1.196","xx05mhc30vz7kwv",45,"86.csv","","null","resources/maskTrios/BBA3.jpg","null","",NA,NA,NA,NA,""
"image-keyboard-response",602,554140,"0.0-4.196-2.196","xx05mhc30vz7kwv",45,"86.csv","","null","resources/images/coin2.png","null","",NA,NA,NA,NA,""
"image-keyboard-response",603,554755,"0.0-4.197-0.197","xx05mhc30vz7kwv",45,"86.csv","","612.7999999970198","resources/trios/L1T2A3.jpg","38","restless",0.3,0.7,0.4,0.81703869495218,"false"
"image-keyboard-response",604,555172,"0.0-4.197-1.197","xx05mhc30vz7kwv",45,"86.csv","","null","resources/maskTrios/BT2B.jpg","null","",NA,NA,NA,NA,""
"image-keyboard-response",605,556379,"0.0-4.197-2.197","xx05mhc30vz7kwv",45,"86.csv","","null","resources/images/fishbone.png","null","",NA,NA,NA,NA,""
"image-keyboard-response",606,557449,"0.0-4.198-0.198","xx05mhc30vz7kwv",45,"86.csv","","1066.9000000059605","resources/trios/L1T2A3.jpg","39","restless",0.3,0.7,0.4,0.526399535343276,"false"
"image-keyboard-response",607,557856,"0.0-4.198-1.198","xx05mhc30vz7kwv",45,"86.csv","","null","resources/maskTrios/BBA3.jpg","null","",NA,NA,NA,NA,""
"image-keyboard-response",608,559069,"0.0-4.198-2.198","xx05mhc30vz7kwv",45,"86.csv","","null","resources/images/fishbone.png","null","",NA,NA,NA,NA,""
"image-keyboard-response",609,560062,"0.0-4.199-0.199","xx05mhc30vz7kwv",45,"86.csv","","991.4000000059605","resources/trios/L1T2A3.jpg","39","restless",0.3,0.7,0.5,0.549074776581477,"false"
"image-keyboard-response",610,560476,"0.0-4.199-1.199","xx05mhc30vz7kwv",45,"86.csv","","null","resources/maskTrios/BBA3.jpg","null","",NA,NA,NA,NA,""
"image-keyboard-response",611,561689,"0.0-4.199-2.199","xx05mhc30vz7kwv",45,"86.csv","","null","resources/images/fishbone.png","null","",NA,NA,NA,NA,""
"survey-text",612,600784,"0.0-5.0","xx05mhc30vz7kwv",45,"86.csv","","39093.80000001192","","","",NA,NA,NA,NA,""
