"trial_type","trial_index","time_elapsed","internal_node_id","subject","participantCode","walkNumber","success","rt","stimulus","key_press","test_part","leftProb","midProb","rightProb","generatedNum","correct"
"pavlovia",0,1323,"0.0-0.0","5b0cda1auscty3x",962,"44.csv","","","","","",NA,NA,NA,NA,""
"fullscreen",1,4495,"0.0-1.0","5b0cda1auscty3x",962,"44.csv","true","","","","",NA,NA,NA,NA,""
"survey-html-form",2,14616,"0.0-2.0","5b0cda1auscty3x",962,"44.csv","","10119.899999976158","","","",NA,NA,NA,NA,""
"image-keyboard-response",3,24077,"0.0-3.0-0.0","5b0cda1auscty3x",962,"44.csv","","9460.700000047684","resources/images/parrot_nobg.png","13","",NA,NA,NA,NA,""
"image-keyboard-response",4,27079,"0.0-3.0-1.0","5b0cda1auscty3x",962,"44.csv","","null","resources/image_sets/111.png","null","",NA,NA,NA,NA,""
"image-keyboard-response",5,35828,"0.0-3.0-2.0","5b0cda1auscty3x",962,"44.csv","","8748.600000023842","resources/image_sets/left_highlight.png","37","",NA,NA,NA,NA,""
"image-keyboard-response",6,39987,"0.0-3.0-3.0","5b0cda1auscty3x",962,"44.csv","","4158.199999928474","resources/image_sets/mid_highlight.png","38","",NA,NA,NA,NA,""
"image-keyboard-response",7,40675,"0.0-3.0-4.0","5b0cda1auscty3x",962,"44.csv","","687.8000000715256","resources/image_sets/right_highlight.png","39","",NA,NA,NA,NA,""
"image-keyboard-response",8,42403,"0.0-3.0-5.0","5b0cda1auscty3x",962,"44.csv","","1727.6000000238419","resources/image_sets/111.png","13","",NA,NA,NA,NA,""
"image-keyboard-response",9,44771,"0.0-3.0-6.0","5b0cda1auscty3x",962,"44.csv","","2367.600000023842","resources/images/coin2.png","13","",NA,NA,NA,NA,""
"image-keyboard-response",10,46245,"0.0-3.0-7.0","5b0cda1auscty3x",962,"44.csv","","1473","resources/images/fishbone.png","13","",NA,NA,NA,NA,""
"html-keyboard-response",11,50731,"0.0-3.0-8.0","5b0cda1auscty3x",962,"44.csv","","4486.399999976158","<p>You can track your coin total on the top right of your screen. </p><p>At the end of your journey you will be directed to a survey, so please click on the link before exiting the task</p><p>Press Enter to begin</p>","13","",NA,NA,NA,NA,""
"image-keyboard-response",12,52907,"0.0-4.0-0.0","5b0cda1auscty3x",962,"44.csv","","2175.399999976158","resources/trios/L1T4A3.jpg","38","restless",0.7,0.9,0.3,0.549144255064512,"true"
"image-keyboard-response",13,53310,"0.0-4.0-1.0","5b0cda1auscty3x",962,"44.csv","","null","resources/maskTrios/BT4B.jpg","null","",NA,NA,NA,NA,""
"image-keyboard-response",14,54512,"0.0-4.0-2.0","5b0cda1auscty3x",962,"44.csv","","null","resources/images/coin2.png","null","",NA,NA,NA,NA,""
"image-keyboard-response",15,55843,"0.0-4.1-0.1","5b0cda1auscty3x",962,"44.csv","","1330.7000000476837","resources/trios/L1T4A3.jpg","38","restless",0.7,0.9,0.3,0.42780339045842,"true"
"image-keyboard-response",16,56244,"0.0-4.1-1.1","5b0cda1auscty3x",962,"44.csv","","null","resources/maskTrios/BT4B.jpg","null","",NA,NA,NA,NA,""
"image-keyboard-response",17,57446,"0.0-4.1-2.1","5b0cda1auscty3x",962,"44.csv","","null","resources/images/coin2.png","null","",NA,NA,NA,NA,""
"image-keyboard-response",18,58404,"0.0-4.2-0.2","5b0cda1auscty3x",962,"44.csv","","958","resources/trios/L1T4A3.jpg","38","restless",0.7,0.9,0.3,0.870226489437506,"true"
"image-keyboard-response",19,58805,"0.0-4.2-1.2","5b0cda1auscty3x",962,"44.csv","","null","resources/maskTrios/BT4B.jpg","null","",NA,NA,NA,NA,""
"image-keyboard-response",20,60006,"0.0-4.2-2.2","5b0cda1auscty3x",962,"44.csv","","null","resources/images/coin2.png","null","",NA,NA,NA,NA,""
"image-keyboard-response",21,60763,"0.0-4.3-0.3","5b0cda1auscty3x",962,"44.csv","","756.6000000238419","resources/trios/L1T4A3.jpg","38","restless",0.7,0.9,0.3,0.444565654850226,"true"
"image-keyboard-response",22,62022,"0.0-4.3-1.3","5b0cda1auscty3x",962,"44.csv","","null","resources/maskTrios/BT4B.jpg","null","",NA,NA,NA,NA,""
"image-keyboard-response",23,64022,"0.0-4.3-2.3","5b0cda1auscty3x",962,"44.csv","","null","resources/images/coin2.png","null","",NA,NA,NA,NA,""
"image-keyboard-response",24,64835,"0.0-4.4-0.4","5b0cda1auscty3x",962,"44.csv","","812.5","resources/trios/L1T4A3.jpg","38","restless",0.7,0.8,0.3,0.290725587540197,"true"
"image-keyboard-response",25,65236,"0.0-4.4-1.4","5b0cda1auscty3x",962,"44.csv","","null","resources/maskTrios/BT4B.jpg","null","",NA,NA,NA,NA,""
"image-keyboard-response",26,66438,"0.0-4.4-2.4","5b0cda1auscty3x",962,"44.csv","","null","resources/images/coin2.png","null","",NA,NA,NA,NA,""
"image-keyboard-response",27,66907,"0.0-4.5-0.5","5b0cda1auscty3x",962,"44.csv","","468.60000002384186","resources/trios/L1T4A3.jpg","38","restless",0.8,0.8,0.3,0.515707476877023,"true"
"image-keyboard-response",28,67308,"0.0-4.5-1.5","5b0cda1auscty3x",962,"44.csv","","null","resources/maskTrios/BT4B.jpg","null","",NA,NA,NA,NA,""
"image-keyboard-response",29,68510,"0.0-4.5-2.5","5b0cda1auscty3x",962,"44.csv","","null","resources/images/coin2.png","null","",NA,NA,NA,NA,""
"image-keyboard-response",30,69133,"0.0-4.6-0.6","5b0cda1auscty3x",962,"44.csv","","622.3000000715256","resources/trios/L1T4A3.jpg","38","restless",0.8,0.8,0.3,0.992132071861071,"false"
"image-keyboard-response",31,69535,"0.0-4.6-1.6","5b0cda1auscty3x",962,"44.csv","","null","resources/maskTrios/BT4B.jpg","null","",NA,NA,NA,NA,""
"image-keyboard-response",32,71023,"0.0-4.6-2.6","5b0cda1auscty3x",962,"44.csv","","null","resources/images/fishbone.png","null","",NA,NA,NA,NA,""
"image-keyboard-response",33,71387,"0.0-4.7-0.7","5b0cda1auscty3x",962,"44.csv","","363","resources/trios/L1T4A3.jpg","38","restless",0.8,0.8,0.2,0.874428648949538,"false"
"image-keyboard-response",34,71789,"0.0-4.7-1.7","5b0cda1auscty3x",962,"44.csv","","null","resources/maskTrios/BT4B.jpg","null","",NA,NA,NA,NA,""
"image-keyboard-response",35,72991,"0.0-4.7-2.7","5b0cda1auscty3x",962,"44.csv","","null","resources/images/fishbone.png","null","",NA,NA,NA,NA,""
"image-keyboard-response",36,73779,"0.0-4.8-0.8","5b0cda1auscty3x",962,"44.csv","","787.7999999523163","resources/trios/L1T4A3.jpg","37","restless",0.8,0.8,0.2,0.0739663546872118,"true"
"image-keyboard-response",37,74180,"0.0-4.8-1.8","5b0cda1auscty3x",962,"44.csv","","null","resources/maskTrios/L1BB.jpg","null","",NA,NA,NA,NA,""
"image-keyboard-response",38,75382,"0.0-4.8-2.8","5b0cda1auscty3x",962,"44.csv","","null","resources/images/coin2.png","null","",NA,NA,NA,NA,""
"image-keyboard-response",39,75811,"0.0-4.9-0.9","5b0cda1auscty3x",962,"44.csv","","428.39999997615814","resources/trios/L1T4A3.jpg","37","restless",0.8,0.8,0.2,0.116778508491819,"true"
"image-keyboard-response",40,76212,"0.0-4.9-1.9","5b0cda1auscty3x",962,"44.csv","","null","resources/maskTrios/L1BB.jpg","null","",NA,NA,NA,NA,""
"image-keyboard-response",41,77619,"0.0-4.9-2.9","5b0cda1auscty3x",962,"44.csv","","null","resources/images/coin2.png","null","",NA,NA,NA,NA,""
"image-keyboard-response",42,78467,"0.0-4.10-0.10","5b0cda1auscty3x",962,"44.csv","","847.4000000953674","resources/trios/L1T4A3.jpg","37","restless",0.8,0.8,0.3,0.918931586863454,"false"
"image-keyboard-response",43,78868,"0.0-4.10-1.10","5b0cda1auscty3x",962,"44.csv","","null","resources/maskTrios/L1BB.jpg","null","",NA,NA,NA,NA,""
"image-keyboard-response",44,80070,"0.0-4.10-2.10","5b0cda1auscty3x",962,"44.csv","","null","resources/images/fishbone.png","null","",NA,NA,NA,NA,""
"image-keyboard-response",45,80356,"0.0-4.11-0.11","5b0cda1auscty3x",962,"44.csv","","285.89999997615814","resources/trios/L1T4A3.jpg","39","restless",0.8,0.8,0.3,0.466840893895296,"false"
"image-keyboard-response",46,80758,"0.0-4.11-1.11","5b0cda1auscty3x",962,"44.csv","","null","resources/maskTrios/BBA3.jpg","null","",NA,NA,NA,NA,""
"image-keyboard-response",47,81959,"0.0-4.11-2.11","5b0cda1auscty3x",962,"44.csv","","null","resources/images/fishbone.png","null","",NA,NA,NA,NA,""
"image-keyboard-response",48,82739,"0.0-4.12-0.12","5b0cda1auscty3x",962,"44.csv","","779","resources/trios/L1T4A3.jpg","39","restless",0.8,0.8,0.3,0.840970858600844,"false"
"image-keyboard-response",49,83140,"0.0-4.12-1.12","5b0cda1auscty3x",962,"44.csv","","null","resources/maskTrios/BBA3.jpg","null","",NA,NA,NA,NA,""
"image-keyboard-response",50,84342,"0.0-4.12-2.12","5b0cda1auscty3x",962,"44.csv","","null","resources/images/fishbone.png","null","",NA,NA,NA,NA,""
"image-keyboard-response",51,84586,"0.0-4.13-0.13","5b0cda1auscty3x",962,"44.csv","","244.39999997615814","resources/trios/L1T4A3.jpg","38","restless",0.8,0.8,0.3,0.84479088899311,"false"
"image-keyboard-response",52,84988,"0.0-4.13-1.13","5b0cda1auscty3x",962,"44.csv","","null","resources/maskTrios/BT4B.jpg","null","",NA,NA,NA,NA,""
"image-keyboard-response",53,86190,"0.0-4.13-2.13","5b0cda1auscty3x",962,"44.csv","","null","resources/images/fishbone.png","null","",NA,NA,NA,NA,""
"image-keyboard-response",54,86499,"0.0-4.14-0.14","5b0cda1auscty3x",962,"44.csv","","308.60000002384186","resources/trios/L1T4A3.jpg","37","restless",0.8,0.8,0.3,0.811170334287469,"false"
"image-keyboard-response",55,86900,"0.0-4.14-1.14","5b0cda1auscty3x",962,"44.csv","","null","resources/maskTrios/L1BB.jpg","null","",NA,NA,NA,NA,""
"image-keyboard-response",56,88147,"0.0-4.14-2.14","5b0cda1auscty3x",962,"44.csv","","null","resources/images/fishbone.png","null","",NA,NA,NA,NA,""
"image-keyboard-response",57,88467,"0.0-4.15-0.15","5b0cda1auscty3x",962,"44.csv","","319.60000002384186","resources/trios/L1T4A3.jpg","37","restless",0.8,0.8,0.3,0.66458121128733,"true"
"image-keyboard-response",58,88869,"0.0-4.15-1.15","5b0cda1auscty3x",962,"44.csv","","null","resources/maskTrios/L1BB.jpg","null","",NA,NA,NA,NA,""
"image-keyboard-response",59,90070,"0.0-4.15-2.15","5b0cda1auscty3x",962,"44.csv","","null","resources/images/coin2.png","null","",NA,NA,NA,NA,""
"image-keyboard-response",60,90540,"0.0-4.16-0.16","5b0cda1auscty3x",962,"44.csv","","470.2999999523163","resources/trios/L1T4A3.jpg","37","restless",0.8,0.8,0.3,0.53873827195683,"true"
"image-keyboard-response",61,90941,"0.0-4.16-1.16","5b0cda1auscty3x",962,"44.csv","","null","resources/maskTrios/L1BB.jpg","null","",NA,NA,NA,NA,""
"image-keyboard-response",62,92143,"0.0-4.16-2.16","5b0cda1auscty3x",962,"44.csv","","null","resources/images/coin2.png","null","",NA,NA,NA,NA,""
"image-keyboard-response",63,92451,"0.0-4.17-0.17","5b0cda1auscty3x",962,"44.csv","","307.7000000476837","resources/trios/L1T4A3.jpg","37","restless",0.8,0.8,0.3,0.792110487087708,"true"
"image-keyboard-response",64,92853,"0.0-4.17-1.17","5b0cda1auscty3x",962,"44.csv","","null","resources/maskTrios/L1BB.jpg","null","",NA,NA,NA,NA,""
"image-keyboard-response",65,95022,"0.0-4.17-2.17","5b0cda1auscty3x",962,"44.csv","","null","resources/images/coin2.png","null","",NA,NA,NA,NA,""
"image-keyboard-response",66,95715,"0.0-4.18-0.18","5b0cda1auscty3x",962,"44.csv","","692.6000000238419","resources/trios/L1T4A3.jpg","37","restless",0.8,0.8,0.3,0.916375510902246,"false"
"image-keyboard-response",67,96116,"0.0-4.18-1.18","5b0cda1auscty3x",962,"44.csv","","null","resources/maskTrios/L1BB.jpg","null","",NA,NA,NA,NA,""
"image-keyboard-response",68,97318,"0.0-4.18-2.18","5b0cda1auscty3x",962,"44.csv","","null","resources/images/fishbone.png","null","",NA,NA,NA,NA,""
"image-keyboard-response",69,97979,"0.0-4.19-0.19","5b0cda1auscty3x",962,"44.csv","","660.7000000476837","resources/trios/L1T4A3.jpg","39","restless",0.8,0.8,0.3,0.50807652965001,"false"
"image-keyboard-response",70,98382,"0.0-4.19-1.19","5b0cda1auscty3x",962,"44.csv","","null","resources/maskTrios/BBA3.jpg","null","",NA,NA,NA,NA,""
"image-keyboard-response",71,99583,"0.0-4.19-2.19","5b0cda1auscty3x",962,"44.csv","","null","resources/images/fishbone.png","null","",NA,NA,NA,NA,""
"image-keyboard-response",72,99891,"0.0-4.20-0.20","5b0cda1auscty3x",962,"44.csv","","307.5","resources/trios/L1T4A3.jpg","38","restless",0.8,0.8,0.3,0.820509514305222,"false"
"image-keyboard-response",73,100293,"0.0-4.20-1.20","5b0cda1auscty3x",962,"44.csv","","null","resources/maskTrios/BT4B.jpg","null","",NA,NA,NA,NA,""
"image-keyboard-response",74,101765,"0.0-4.20-2.20","5b0cda1auscty3x",962,"44.csv","","null","resources/images/fishbone.png","null","",NA,NA,NA,NA,""
"image-keyboard-response",75,102195,"0.0-4.21-0.21","5b0cda1auscty3x",962,"44.csv","","429.59999990463257","resources/trios/L1T4A3.jpg","38","restless",0.8,0.7,0.3,0.156605682572201,"true"
"image-keyboard-response",76,102596,"0.0-4.21-1.21","5b0cda1auscty3x",962,"44.csv","","null","resources/maskTrios/BT4B.jpg","null","",NA,NA,NA,NA,""
"image-keyboard-response",77,103798,"0.0-4.21-2.21","5b0cda1auscty3x",962,"44.csv","","null","resources/images/coin2.png","null","",NA,NA,NA,NA,""
"image-keyboard-response",78,104179,"0.0-4.22-0.22","5b0cda1auscty3x",962,"44.csv","","380.10000002384186","resources/trios/L1T4A3.jpg","38","restless",0.8,0.8,0.3,0.369647867583151,"true"
"image-keyboard-response",79,104581,"0.0-4.22-1.22","5b0cda1auscty3x",962,"44.csv","","null","resources/maskTrios/BT4B.jpg","null","",NA,NA,NA,NA,""
"image-keyboard-response",80,105782,"0.0-4.22-2.22","5b0cda1auscty3x",962,"44.csv","","null","resources/images/coin2.png","null","",NA,NA,NA,NA,""
"image-keyboard-response",81,106131,"0.0-4.23-0.23","5b0cda1auscty3x",962,"44.csv","","348.7999999523163","resources/trios/L1T4A3.jpg","38","restless",0.8,0.8,0.3,0.874177298889207,"false"
"image-keyboard-response",82,106534,"0.0-4.23-1.23","5b0cda1auscty3x",962,"44.csv","","null","resources/maskTrios/BT4B.jpg","null","",NA,NA,NA,NA,""
"image-keyboard-response",83,108022,"0.0-4.23-2.23","5b0cda1auscty3x",962,"44.csv","","null","resources/images/fishbone.png","null","",NA,NA,NA,NA,""
"image-keyboard-response",84,108291,"0.0-4.24-0.24","5b0cda1auscty3x",962,"44.csv","","268.39999997615814","resources/trios/L1T4A3.jpg","39","restless",0.8,0.8,0.3,0.0335533101465246,"true"
"image-keyboard-response",85,108693,"0.0-4.24-1.24","5b0cda1auscty3x",962,"44.csv","","null","resources/maskTrios/BBA3.jpg","null","",NA,NA,NA,NA,""
"image-keyboard-response",86,109895,"0.0-4.24-2.24","5b0cda1auscty3x",962,"44.csv","","null","resources/images/coin2.png","null","",NA,NA,NA,NA,""
"image-keyboard-response",87,110195,"0.0-4.25-0.25","5b0cda1auscty3x",962,"44.csv","","299.89999997615814","resources/trios/L1T4A3.jpg","39","restless",0.7,0.8,0.4,0.124161381130574,"true"
"image-keyboard-response",88,110597,"0.0-4.25-1.25","5b0cda1auscty3x",962,"44.csv","","null","resources/maskTrios/BBA3.jpg","null","",NA,NA,NA,NA,""
"image-keyboard-response",89,111798,"0.0-4.25-2.25","5b0cda1auscty3x",962,"44.csv","","null","resources/images/coin2.png","null","",NA,NA,NA,NA,""
"image-keyboard-response",90,112204,"0.0-4.26-0.26","5b0cda1auscty3x",962,"44.csv","","405.5","resources/trios/L1T4A3.jpg","39","restless",0.7,0.7,0.4,0.0236979431504925,"true"
"image-keyboard-response",91,112606,"0.0-4.26-1.26","5b0cda1auscty3x",962,"44.csv","","null","resources/maskTrios/BBA3.jpg","null","",NA,NA,NA,NA,""
"image-keyboard-response",92,114023,"0.0-4.26-2.26","5b0cda1auscty3x",962,"44.csv","","null","resources/images/coin2.png","null","",NA,NA,NA,NA,""
"image-keyboard-response",93,114267,"0.0-4.27-0.27","5b0cda1auscty3x",962,"44.csv","","243.60000002384186","resources/trios/L1T4A3.jpg","37","restless",0.7,0.7,0.4,0.286035327055415,"true"
"image-keyboard-response",94,114668,"0.0-4.27-1.27","5b0cda1auscty3x",962,"44.csv","","null","resources/maskTrios/L1BB.jpg","null","",NA,NA,NA,NA,""
"image-keyboard-response",95,115869,"0.0-4.27-2.27","5b0cda1auscty3x",962,"44.csv","","null","resources/images/coin2.png","null","",NA,NA,NA,NA,""
"image-keyboard-response",96,116131,"0.0-4.28-0.28","5b0cda1auscty3x",962,"44.csv","","261","resources/trios/L1T4A3.jpg","37","restless",0.7,0.7,0.4,0.0155376277273531,"true"
"image-keyboard-response",97,116532,"0.0-4.28-1.28","5b0cda1auscty3x",962,"44.csv","","null","resources/maskTrios/L1BB.jpg","null","",NA,NA,NA,NA,""
"image-keyboard-response",98,117733,"0.0-4.28-2.28","5b0cda1auscty3x",962,"44.csv","","null","resources/images/coin2.png","null","",NA,NA,NA,NA,""
"image-keyboard-response",99,117979,"0.0-4.29-0.29","5b0cda1auscty3x",962,"44.csv","","245.10000002384186","resources/trios/L1T4A3.jpg","37","restless",0.6,0.7,0.4,0.287399966499214,"true"
"image-keyboard-response",100,118381,"0.0-4.29-1.29","5b0cda1auscty3x",962,"44.csv","","null","resources/maskTrios/L1BB.jpg","null","",NA,NA,NA,NA,""
"image-keyboard-response",101,120023,"0.0-4.29-2.29","5b0cda1auscty3x",962,"44.csv","","null","resources/images/coin2.png","null","",NA,NA,NA,NA,""
"image-keyboard-response",102,120291,"0.0-4.30-0.30","5b0cda1auscty3x",962,"44.csv","","267.6999999284744","resources/trios/L1T4A3.jpg","38","restless",0.6,0.7,0.4,0.886223251285104,"false"
"image-keyboard-response",103,120692,"0.0-4.30-1.30","5b0cda1auscty3x",962,"44.csv","","null","resources/maskTrios/BT4B.jpg","null","",NA,NA,NA,NA,""
"image-keyboard-response",104,121893,"0.0-4.30-2.30","5b0cda1auscty3x",962,"44.csv","","null","resources/images/fishbone.png","null","",NA,NA,NA,NA,""
"image-keyboard-response",105,122187,"0.0-4.31-0.31","5b0cda1auscty3x",962,"44.csv","","292.89999997615814","resources/trios/L1T4A3.jpg","37","restless",0.6,0.6,0.4,0.00673253466591173,"true"
"image-keyboard-response",106,122587,"0.0-4.31-1.31","5b0cda1auscty3x",962,"44.csv","","null","resources/maskTrios/L1BB.jpg","null","",NA,NA,NA,NA,""
"image-keyboard-response",107,123788,"0.0-4.31-2.31","5b0cda1auscty3x",962,"44.csv","","null","resources/images/coin2.png","null","",NA,NA,NA,NA,""
"image-keyboard-response",108,124132,"0.0-4.32-0.32","5b0cda1auscty3x",962,"44.csv","","342.89999997615814","resources/trios/L1T4A3.jpg","37","restless",0.6,0.6,0.4,0.507304082941867,"true"
"image-keyboard-response",109,124534,"0.0-4.32-1.32","5b0cda1auscty3x",962,"44.csv","","null","resources/maskTrios/L1BB.jpg","null","",NA,NA,NA,NA,""
"image-keyboard-response",110,126022,"0.0-4.32-2.32","5b0cda1auscty3x",962,"44.csv","","null","resources/images/coin2.png","null","",NA,NA,NA,NA,""
"image-keyboard-response",111,126355,"0.0-4.33-0.33","5b0cda1auscty3x",962,"44.csv","","332.2000000476837","resources/trios/L1T4A3.jpg","37","restless",0.5,0.6,0.4,0.460136155859262,"true"
"image-keyboard-response",112,126756,"0.0-4.33-1.33","5b0cda1auscty3x",962,"44.csv","","null","resources/maskTrios/L1BB.jpg","null","",NA,NA,NA,NA,""
"image-keyboard-response",113,127958,"0.0-4.33-2.33","5b0cda1auscty3x",962,"44.csv","","null","resources/images/coin2.png","null","",NA,NA,NA,NA,""
"image-keyboard-response",114,128386,"0.0-4.34-0.34","5b0cda1auscty3x",962,"44.csv","","427.8000000715256","resources/trios/L1T4A3.jpg","38","restless",0.5,0.6,0.5,0.170359466605761,"true"
"image-keyboard-response",115,128788,"0.0-4.34-1.34","5b0cda1auscty3x",962,"44.csv","","null","resources/maskTrios/BT4B.jpg","null","",NA,NA,NA,NA,""
"image-keyboard-response",116,129989,"0.0-4.34-2.34","5b0cda1auscty3x",962,"44.csv","","null","resources/images/coin2.png","null","",NA,NA,NA,NA,""
"image-keyboard-response",117,130259,"0.0-4.35-0.35","5b0cda1auscty3x",962,"44.csv","","269.2000000476837","resources/trios/L1T4A3.jpg","38","restless",0.5,0.6,0.5,0.675298564848825,"false"
"image-keyboard-response",118,130660,"0.0-4.35-1.35","5b0cda1auscty3x",962,"44.csv","","null","resources/maskTrios/BT4B.jpg","null","",NA,NA,NA,NA,""
"image-keyboard-response",119,132023,"0.0-4.35-2.35","5b0cda1auscty3x",962,"44.csv","","null","resources/images/fishbone.png","null","",NA,NA,NA,NA,""
"image-keyboard-response",120,132258,"0.0-4.36-0.36","5b0cda1auscty3x",962,"44.csv","","235","resources/trios/L1T4A3.jpg","37","restless",0.5,0.6,0.5,0.0284882111781091,"true"
"image-keyboard-response",121,132661,"0.0-4.36-1.36","5b0cda1auscty3x",962,"44.csv","","null","resources/maskTrios/L1BB.jpg","null","",NA,NA,NA,NA,""
"image-keyboard-response",122,133861,"0.0-4.36-2.36","5b0cda1auscty3x",962,"44.csv","","null","resources/images/coin2.png","null","",NA,NA,NA,NA,""
"image-keyboard-response",123,134164,"0.0-4.37-0.37","5b0cda1auscty3x",962,"44.csv","","302.2000000476837","resources/trios/L1T4A3.jpg","37","restless",0.5,0.6,0.5,0.404064526197198,"true"
"image-keyboard-response",124,134566,"0.0-4.37-1.37","5b0cda1auscty3x",962,"44.csv","","null","resources/maskTrios/L1BB.jpg","null","",NA,NA,NA,NA,""
"image-keyboard-response",125,135767,"0.0-4.37-2.37","5b0cda1auscty3x",962,"44.csv","","null","resources/images/coin2.png","null","",NA,NA,NA,NA,""
"image-keyboard-response",126,136059,"0.0-4.38-0.38","5b0cda1auscty3x",962,"44.csv","","291","resources/trios/L1T4A3.jpg","37","restless",0.5,0.6,0.5,0.215020156571172,"true"
"image-keyboard-response",127,136461,"0.0-4.38-1.38","5b0cda1auscty3x",962,"44.csv","","null","resources/maskTrios/L1BB.jpg","null","",NA,NA,NA,NA,""
"image-keyboard-response",128,138022,"0.0-4.38-2.38","5b0cda1auscty3x",962,"44.csv","","null","resources/images/coin2.png","null","",NA,NA,NA,NA,""
"image-keyboard-response",129,138267,"0.0-4.39-0.39","5b0cda1auscty3x",962,"44.csv","","244.30000007152557","resources/trios/L1T4A3.jpg","39","restless",0.5,0.6,0.5,0.474381347244772,"true"
"image-keyboard-response",130,138669,"0.0-4.39-1.39","5b0cda1auscty3x",962,"44.csv","","null","resources/maskTrios/BBA3.jpg","null","",NA,NA,NA,NA,""
"image-keyboard-response",131,139870,"0.0-4.39-2.39","5b0cda1auscty3x",962,"44.csv","","null","resources/images/coin2.png","null","",NA,NA,NA,NA,""
"image-keyboard-response",132,140083,"0.0-4.40-0.40","5b0cda1auscty3x",962,"44.csv","","211.79999995231628","resources/trios/L1T4A3.jpg","39","restless",0.6,0.6,0.5,0.0485946809944116,"true"
"image-keyboard-response",133,140484,"0.0-4.40-1.40","5b0cda1auscty3x",962,"44.csv","","null","resources/maskTrios/BBA3.jpg","null","",NA,NA,NA,NA,""
"image-keyboard-response",134,141685,"0.0-4.40-2.40","5b0cda1auscty3x",962,"44.csv","","null","resources/images/coin2.png","null","",NA,NA,NA,NA,""
"image-keyboard-response",135,141907,"0.0-4.41-0.41","5b0cda1auscty3x",962,"44.csv","","221.39999997615814","resources/trios/L1T4A3.jpg","39","restless",0.6,0.6,0.5,0.527314788327431,"false"
"image-keyboard-response",136,142308,"0.0-4.41-1.41","5b0cda1auscty3x",962,"44.csv","","null","resources/maskTrios/BBA3.jpg","null","",NA,NA,NA,NA,""
"image-keyboard-response",137,144023,"0.0-4.41-2.41","5b0cda1auscty3x",962,"44.csv","","null","resources/images/fishbone.png","null","",NA,NA,NA,NA,""
"image-keyboard-response",138,144059,"0.0-4.42-0.42","5b0cda1auscty3x",962,"44.csv","","35.299999952316284","resources/trios/L1T4A3.jpg","38","restless",0.6,0.5,0.5,0.62071664122395,"false"
"image-keyboard-response",139,144461,"0.0-4.42-1.42","5b0cda1auscty3x",962,"44.csv","","null","resources/maskTrios/BT4B.jpg","null","",NA,NA,NA,NA,""
"image-keyboard-response",140,145661,"0.0-4.42-2.42","5b0cda1auscty3x",962,"44.csv","","null","resources/images/fishbone.png","null","",NA,NA,NA,NA,""
"image-keyboard-response",141,146036,"0.0-4.43-0.43","5b0cda1auscty3x",962,"44.csv","","373.89999997615814","resources/trios/L1T4A3.jpg","39","restless",0.6,0.5,0.5,0.454095926787747,"true"
"image-keyboard-response",142,146438,"0.0-4.43-1.43","5b0cda1auscty3x",962,"44.csv","","null","resources/maskTrios/BBA3.jpg","null","",NA,NA,NA,NA,""
"image-keyboard-response",143,147639,"0.0-4.43-2.43","5b0cda1auscty3x",962,"44.csv","","null","resources/images/coin2.png","null","",NA,NA,NA,NA,""
"image-keyboard-response",144,147859,"0.0-4.44-0.44","5b0cda1auscty3x",962,"44.csv","","219.10000002384186","resources/trios/L1T4A3.jpg","39","restless",0.6,0.5,0.6,0.585673063429663,"true"
"image-keyboard-response",145,148261,"0.0-4.44-1.44","5b0cda1auscty3x",962,"44.csv","","null","resources/maskTrios/BBA3.jpg","null","",NA,NA,NA,NA,""
"image-keyboard-response",146,150023,"0.0-4.44-2.44","5b0cda1auscty3x",962,"44.csv","","null","resources/images/coin2.png","null","",NA,NA,NA,NA,""
"image-keyboard-response",147,150507,"0.0-4.45-0.45","5b0cda1auscty3x",962,"44.csv","","483.3000000715256","resources/trios/L1T4A3.jpg","37","restless",0.6,0.5,0.6,0.0237708331057671,"true"
"image-keyboard-response",148,150908,"0.0-4.45-1.45","5b0cda1auscty3x",962,"44.csv","","null","resources/maskTrios/L1BB.jpg","null","",NA,NA,NA,NA,""
"image-keyboard-response",149,152109,"0.0-4.45-2.45","5b0cda1auscty3x",962,"44.csv","","null","resources/images/coin2.png","null","",NA,NA,NA,NA,""
"image-keyboard-response",150,152379,"0.0-4.46-0.46","5b0cda1auscty3x",962,"44.csv","","269.3000000715256","resources/trios/L1T4A3.jpg","37","restless",0.6,0.5,0.6,0.102126685637327,"true"
"image-keyboard-response",151,152780,"0.0-4.46-1.46","5b0cda1auscty3x",962,"44.csv","","null","resources/maskTrios/L1BB.jpg","null","",NA,NA,NA,NA,""
"image-keyboard-response",152,153981,"0.0-4.46-2.46","5b0cda1auscty3x",962,"44.csv","","null","resources/images/coin2.png","null","",NA,NA,NA,NA,""
"image-keyboard-response",153,154299,"0.0-4.47-0.47","5b0cda1auscty3x",962,"44.csv","","317.10000002384186","resources/trios/L1T4A3.jpg","37","restless",0.6,0.5,0.7,0.157700186281857,"true"
"image-keyboard-response",154,154701,"0.0-4.47-1.47","5b0cda1auscty3x",962,"44.csv","","null","resources/maskTrios/L1BB.jpg","null","",NA,NA,NA,NA,""
"image-keyboard-response",155,156022,"0.0-4.47-2.47","5b0cda1auscty3x",962,"44.csv","","null","resources/images/coin2.png","null","",NA,NA,NA,NA,""
"image-keyboard-response",156,156348,"0.0-4.48-0.48","5b0cda1auscty3x",962,"44.csv","","325.2999999523163","resources/trios/L1T4A3.jpg","37","restless",0.6,0.5,0.7,0.555829005615792,"true"
"image-keyboard-response",157,156749,"0.0-4.48-1.48","5b0cda1auscty3x",962,"44.csv","","null","resources/maskTrios/L1BB.jpg","null","",NA,NA,NA,NA,""
"image-keyboard-response",158,157951,"0.0-4.48-2.48","5b0cda1auscty3x",962,"44.csv","","null","resources/images/coin2.png","null","",NA,NA,NA,NA,""
"image-keyboard-response",159,158347,"0.0-4.49-0.49","5b0cda1auscty3x",962,"44.csv","","395.3000000715256","resources/trios/L1T4A3.jpg","37","restless",0.6,0.5,0.7,0.108393984235,"true"
"image-keyboard-response",160,158747,"0.0-4.49-1.49","5b0cda1auscty3x",962,"44.csv","","null","resources/maskTrios/L1BB.jpg","null","",NA,NA,NA,NA,""
"image-keyboard-response",161,159949,"0.0-4.49-2.49","5b0cda1auscty3x",962,"44.csv","","null","resources/images/coin2.png","null","",NA,NA,NA,NA,""
"image-keyboard-response",162,160195,"0.0-4.50-0.50","5b0cda1auscty3x",962,"44.csv","","245.20000004768372","resources/trios/L1T4A3.jpg","38","restless",0.6,0.5,0.7,0.844671789755187,"false"
"image-keyboard-response",163,160596,"0.0-4.50-1.50","5b0cda1auscty3x",962,"44.csv","","null","resources/maskTrios/BT4B.jpg","null","",NA,NA,NA,NA,""
"image-keyboard-response",164,162022,"0.0-4.50-2.50","5b0cda1auscty3x",962,"44.csv","","null","resources/images/fishbone.png","null","",NA,NA,NA,NA,""
"image-keyboard-response",165,162315,"0.0-4.51-0.51","5b0cda1auscty3x",962,"44.csv","","292.2000000476837","resources/trios/L1T4A3.jpg","39","restless",0.6,0.5,0.7,0.47001522879714,"true"
"image-keyboard-response",166,162716,"0.0-4.51-1.51","5b0cda1auscty3x",962,"44.csv","","null","resources/maskTrios/BBA3.jpg","null","",NA,NA,NA,NA,""
"image-keyboard-response",167,163918,"0.0-4.51-2.51","5b0cda1auscty3x",962,"44.csv","","null","resources/images/coin2.png","null","",NA,NA,NA,NA,""
"image-keyboard-response",168,164139,"0.0-4.52-0.52","5b0cda1auscty3x",962,"44.csv","","220.39999997615814","resources/trios/L1T4A3.jpg","39","restless",0.6,0.5,0.7,0.121686731038876,"true"
"image-keyboard-response",169,164541,"0.0-4.52-1.52","5b0cda1auscty3x",962,"44.csv","","null","resources/maskTrios/BBA3.jpg","null","",NA,NA,NA,NA,""
"image-keyboard-response",170,165741,"0.0-4.52-2.52","5b0cda1auscty3x",962,"44.csv","","null","resources/images/coin2.png","null","",NA,NA,NA,NA,""
"image-keyboard-response",171,166179,"0.0-4.53-0.53","5b0cda1auscty3x",962,"44.csv","","436.7999999523163","resources/trios/L1T4A3.jpg","39","restless",0.6,0.5,0.7,0.386590660185238,"true"
"image-keyboard-response",172,166580,"0.0-4.53-1.53","5b0cda1auscty3x",962,"44.csv","","null","resources/maskTrios/BBA3.jpg","null","",NA,NA,NA,NA,""
"image-keyboard-response",173,168023,"0.0-4.53-2.53","5b0cda1auscty3x",962,"44.csv","","null","resources/images/coin2.png","null","",NA,NA,NA,NA,""
"image-keyboard-response",174,168252,"0.0-4.54-0.54","5b0cda1auscty3x",962,"44.csv","","228.80000007152557","resources/trios/L1T4A3.jpg","39","restless",0.6,0.5,0.6,0.304153841334062,"true"
"image-keyboard-response",175,168653,"0.0-4.54-1.54","5b0cda1auscty3x",962,"44.csv","","null","resources/maskTrios/BBA3.jpg","null","",NA,NA,NA,NA,""
"image-keyboard-response",176,169855,"0.0-4.54-2.54","5b0cda1auscty3x",962,"44.csv","","null","resources/images/coin2.png","null","",NA,NA,NA,NA,""
"image-keyboard-response",177,170275,"0.0-4.55-0.55","5b0cda1auscty3x",962,"44.csv","","419.39999997615814","resources/trios/L1T4A3.jpg","39","restless",0.6,0.6,0.6,0.611400806185386,"false"
"image-keyboard-response",178,170676,"0.0-4.55-1.55","5b0cda1auscty3x",962,"44.csv","","null","resources/maskTrios/BBA3.jpg","null","",NA,NA,NA,NA,""
"image-keyboard-response",179,171877,"0.0-4.55-2.55","5b0cda1auscty3x",962,"44.csv","","null","resources/images/fishbone.png","null","",NA,NA,NA,NA,""
"image-keyboard-response",180,172131,"0.0-4.56-0.56","5b0cda1auscty3x",962,"44.csv","","253.29999995231628","resources/trios/L1T4A3.jpg","38","restless",0.6,0.6,0.6,0.67088161838161,"false"
"image-keyboard-response",181,172533,"0.0-4.56-1.56","5b0cda1auscty3x",962,"44.csv","","null","resources/maskTrios/BT4B.jpg","null","",NA,NA,NA,NA,""
"image-keyboard-response",182,174022,"0.0-4.56-2.56","5b0cda1auscty3x",962,"44.csv","","null","resources/images/fishbone.png","null","",NA,NA,NA,NA,""
"image-keyboard-response",183,174515,"0.0-4.57-0.57","5b0cda1auscty3x",962,"44.csv","","491.89999997615814","resources/trios/L1T4A3.jpg","37","restless",0.6,0.5,0.6,0.109413931444124,"true"
"image-keyboard-response",184,174916,"0.0-4.57-1.57","5b0cda1auscty3x",962,"44.csv","","null","resources/maskTrios/L1BB.jpg","null","",NA,NA,NA,NA,""
"image-keyboard-response",185,176117,"0.0-4.57-2.57","5b0cda1auscty3x",962,"44.csv","","null","resources/images/coin2.png","null","",NA,NA,NA,NA,""
"image-keyboard-response",186,176379,"0.0-4.58-0.58","5b0cda1auscty3x",962,"44.csv","","261","resources/trios/L1T4A3.jpg","37","restless",0.6,0.5,0.6,0.21158857181228,"true"
"image-keyboard-response",187,176780,"0.0-4.58-1.58","5b0cda1auscty3x",962,"44.csv","","null","resources/maskTrios/L1BB.jpg","null","",NA,NA,NA,NA,""
"image-keyboard-response",188,177981,"0.0-4.58-2.58","5b0cda1auscty3x",962,"44.csv","","null","resources/images/coin2.png","null","",NA,NA,NA,NA,""
"image-keyboard-response",189,178660,"0.0-4.59-0.59","5b0cda1auscty3x",962,"44.csv","","679","resources/trios/L1T4A3.jpg","37","restless",0.6,0.5,0.6,0.247842944674069,"true"
"image-keyboard-response",190,179062,"0.0-4.59-1.59","5b0cda1auscty3x",962,"44.csv","","null","resources/maskTrios/L1BB.jpg","null","",NA,NA,NA,NA,""
"image-keyboard-response",191,181023,"0.0-4.59-2.59","5b0cda1auscty3x",962,"44.csv","","null","resources/images/coin2.png","null","",NA,NA,NA,NA,""
"image-keyboard-response",192,181355,"0.0-4.60-0.60","5b0cda1auscty3x",962,"44.csv","","331.8000000715256","resources/trios/L1T4A3.jpg","38","restless",0.6,0.5,0.6,0.900578352549093,"false"
"image-keyboard-response",193,181756,"0.0-4.60-1.60","5b0cda1auscty3x",962,"44.csv","","null","resources/maskTrios/BT4B.jpg","null","",NA,NA,NA,NA,""
"image-keyboard-response",194,182958,"0.0-4.60-2.60","5b0cda1auscty3x",962,"44.csv","","null","resources/images/fishbone.png","null","",NA,NA,NA,NA,""
"image-keyboard-response",195,183299,"0.0-4.61-0.61","5b0cda1auscty3x",962,"44.csv","","340","resources/trios/L1T4A3.jpg","37","restless",0.6,0.4,0.6,0.745620688301858,"false"
"image-keyboard-response",196,183701,"0.0-4.61-1.61","5b0cda1auscty3x",962,"44.csv","","null","resources/maskTrios/L1BB.jpg","null","",NA,NA,NA,NA,""
"image-keyboard-response",197,184902,"0.0-4.61-2.61","5b0cda1auscty3x",962,"44.csv","","null","resources/images/fishbone.png","null","",NA,NA,NA,NA,""
"image-keyboard-response",198,185211,"0.0-4.62-0.62","5b0cda1auscty3x",962,"44.csv","","309","resources/trios/L1T4A3.jpg","39","restless",0.6,0.4,0.6,0.827197110922727,"false"
"image-keyboard-response",199,185613,"0.0-4.62-1.62","5b0cda1auscty3x",962,"44.csv","","null","resources/maskTrios/BBA3.jpg","null","",NA,NA,NA,NA,""
"image-keyboard-response",200,187022,"0.0-4.62-2.62","5b0cda1auscty3x",962,"44.csv","","null","resources/images/fishbone.png","null","",NA,NA,NA,NA,""
"image-keyboard-response",201,187227,"0.0-4.63-0.63","5b0cda1auscty3x",962,"44.csv","","204.60000002384186","resources/trios/L1T4A3.jpg","39","restless",0.6,0.3,0.6,0.789991266512183,"false"
"image-keyboard-response",202,187628,"0.0-4.63-1.63","5b0cda1auscty3x",962,"44.csv","","null","resources/maskTrios/BBA3.jpg","null","",NA,NA,NA,NA,""
"image-keyboard-response",203,188830,"0.0-4.63-2.63","5b0cda1auscty3x",962,"44.csv","","null","resources/images/fishbone.png","null","",NA,NA,NA,NA,""
"image-keyboard-response",204,189092,"0.0-4.64-0.64","5b0cda1auscty3x",962,"44.csv","","261.5","resources/trios/L1T4A3.jpg","39","restless",0.7,0.3,0.6,0.228379068749721,"true"
"image-keyboard-response",205,189494,"0.0-4.64-1.64","5b0cda1auscty3x",962,"44.csv","","null","resources/maskTrios/BBA3.jpg","null","",NA,NA,NA,NA,""
"image-keyboard-response",206,190695,"0.0-4.64-2.64","5b0cda1auscty3x",962,"44.csv","","null","resources/images/coin2.png","null","",NA,NA,NA,NA,""
"image-keyboard-response",207,190955,"0.0-4.65-0.65","5b0cda1auscty3x",962,"44.csv","","259.10000002384186","resources/trios/L1T4A3.jpg","39","restless",0.7,0.3,0.6,0.519032904597816,"true"
"image-keyboard-response",208,191356,"0.0-4.65-1.65","5b0cda1auscty3x",962,"44.csv","","null","resources/maskTrios/BBA3.jpg","null","",NA,NA,NA,NA,""
"image-keyboard-response",209,192691,"0.0-4.65-2.65","5b0cda1auscty3x",962,"44.csv","","null","resources/images/coin2.png","null","",NA,NA,NA,NA,""
"image-keyboard-response",210,193122,"0.0-4.66-0.66","5b0cda1auscty3x",962,"44.csv","","431.40000009536743","resources/trios/L1T4A3.jpg","39","restless",0.7,0.3,0.6,0.624387989931581,"false"
"image-keyboard-response",211,193523,"0.0-4.66-1.66","5b0cda1auscty3x",962,"44.csv","","null","resources/maskTrios/BBA3.jpg","null","",NA,NA,NA,NA,""
"image-keyboard-response",212,194725,"0.0-4.66-2.66","5b0cda1auscty3x",962,"44.csv","","null","resources/images/fishbone.png","null","",NA,NA,NA,NA,""
"image-keyboard-response",213,195267,"0.0-4.67-0.67","5b0cda1auscty3x",962,"44.csv","","541.3999999761581","resources/trios/L1T4A3.jpg","37","restless",0.7,0.3,0.6,0.263542066603552,"true"
"image-keyboard-response",214,195668,"0.0-4.67-1.67","5b0cda1auscty3x",962,"44.csv","","null","resources/maskTrios/L1BB.jpg","null","",NA,NA,NA,NA,""
"image-keyboard-response",215,196869,"0.0-4.67-2.67","5b0cda1auscty3x",962,"44.csv","","null","resources/images/coin2.png","null","",NA,NA,NA,NA,""
"image-keyboard-response",216,197130,"0.0-4.68-0.68","5b0cda1auscty3x",962,"44.csv","","260.5","resources/trios/L1T4A3.jpg","37","restless",0.7,0.3,0.6,0.159913529171119,"true"
"image-keyboard-response",217,197533,"0.0-4.68-1.68","5b0cda1auscty3x",962,"44.csv","","null","resources/maskTrios/L1BB.jpg","null","",NA,NA,NA,NA,""
"image-keyboard-response",218,199022,"0.0-4.68-2.68","5b0cda1auscty3x",962,"44.csv","","null","resources/images/coin2.png","null","",NA,NA,NA,NA,""
"image-keyboard-response",219,199083,"0.0-4.69-0.69","5b0cda1auscty3x",962,"44.csv","","60.10000002384186","resources/trios/L1T4A3.jpg","37","restless",0.7,0.3,0.6,0.465882915588466,"true"
"image-keyboard-response",220,199484,"0.0-4.69-1.69","5b0cda1auscty3x",962,"44.csv","","null","resources/maskTrios/L1BB.jpg","null","",NA,NA,NA,NA,""
"image-keyboard-response",221,200686,"0.0-4.69-2.69","5b0cda1auscty3x",962,"44.csv","","null","resources/images/coin2.png","null","",NA,NA,NA,NA,""
"image-keyboard-response",222,201252,"0.0-4.70-0.70","5b0cda1auscty3x",962,"44.csv","","565.6000000238419","resources/trios/L1T4A3.jpg","37","restless",0.7,0.3,0.6,0.0243802087142373,"true"
"image-keyboard-response",223,201654,"0.0-4.70-1.70","5b0cda1auscty3x",962,"44.csv","","null","resources/maskTrios/L1BB.jpg","null","",NA,NA,NA,NA,""
"image-keyboard-response",224,202855,"0.0-4.70-2.70","5b0cda1auscty3x",962,"44.csv","","null","resources/images/coin2.png","null","",NA,NA,NA,NA,""
"image-keyboard-response",225,203219,"0.0-4.71-0.71","5b0cda1auscty3x",962,"44.csv","","363.7000000476837","resources/trios/L1T4A3.jpg","37","restless",0.7,0.2,0.6,0.419563950592051,"true"
"image-keyboard-response",226,203621,"0.0-4.71-1.71","5b0cda1auscty3x",962,"44.csv","","null","resources/maskTrios/L1BB.jpg","null","",NA,NA,NA,NA,""
"image-keyboard-response",227,205023,"0.0-4.71-2.71","5b0cda1auscty3x",962,"44.csv","","null","resources/images/coin2.png","null","",NA,NA,NA,NA,""
"image-keyboard-response",228,205283,"0.0-4.72-0.72","5b0cda1auscty3x",962,"44.csv","","259.7000000476837","resources/trios/L1T4A3.jpg","37","restless",0.7,0.2,0.6,0.670047340043208,"true"
"image-keyboard-response",229,205685,"0.0-4.72-1.72","5b0cda1auscty3x",962,"44.csv","","null","resources/maskTrios/L1BB.jpg","null","",NA,NA,NA,NA,""
"image-keyboard-response",230,206886,"0.0-4.72-2.72","5b0cda1auscty3x",962,"44.csv","","null","resources/images/coin2.png","null","",NA,NA,NA,NA,""
"image-keyboard-response",231,207179,"0.0-4.73-0.73","5b0cda1auscty3x",962,"44.csv","","292","resources/trios/L1T4A3.jpg","37","restless",0.7,0.2,0.6,0.530701848502301,"true"
"image-keyboard-response",232,207581,"0.0-4.73-1.73","5b0cda1auscty3x",962,"44.csv","","null","resources/maskTrios/L1BB.jpg","null","",NA,NA,NA,NA,""
"image-keyboard-response",233,208783,"0.0-4.73-2.73","5b0cda1auscty3x",962,"44.csv","","null","resources/images/coin2.png","null","",NA,NA,NA,NA,""
"image-keyboard-response",234,209083,"0.0-4.74-0.74","5b0cda1auscty3x",962,"44.csv","","299.39999997615814","resources/trios/L1T4A3.jpg","37","restless",0.7,0.3,0.6,0.552284335719191,"true"
"image-keyboard-response",235,209484,"0.0-4.74-1.74","5b0cda1auscty3x",962,"44.csv","","null","resources/maskTrios/L1BB.jpg","null","",NA,NA,NA,NA,""
"image-keyboard-response",236,211023,"0.0-4.74-2.74","5b0cda1auscty3x",962,"44.csv","","null","resources/images/coin2.png","null","",NA,NA,NA,NA,""
"image-keyboard-response",237,211332,"0.0-4.75-0.75","5b0cda1auscty3x",962,"44.csv","","308.7000000476837","resources/trios/L1T4A3.jpg","38","restless",0.7,0.3,0.5,0.329784321987346,"false"
"image-keyboard-response",238,211733,"0.0-4.75-1.75","5b0cda1auscty3x",962,"44.csv","","null","resources/maskTrios/BT4B.jpg","null","",NA,NA,NA,NA,""
"image-keyboard-response",239,212934,"0.0-4.75-2.75","5b0cda1auscty3x",962,"44.csv","","null","resources/images/fishbone.png","null","",NA,NA,NA,NA,""
"image-keyboard-response",240,213531,"0.0-4.76-0.76","5b0cda1auscty3x",962,"44.csv","","595.6999999284744","resources/trios/L1T4A3.jpg","37","restless",0.7,0.3,0.5,0.384541358251077,"true"
"image-keyboard-response",241,213932,"0.0-4.76-1.76","5b0cda1auscty3x",962,"44.csv","","null","resources/maskTrios/L1BB.jpg","null","",NA,NA,NA,NA,""
"image-keyboard-response",242,215133,"0.0-4.76-2.76","5b0cda1auscty3x",962,"44.csv","","null","resources/images/coin2.png","null","",NA,NA,NA,NA,""
"image-keyboard-response",243,215355,"0.0-4.77-0.77","5b0cda1auscty3x",962,"44.csv","","221","resources/trios/L1T4A3.jpg","37","restless",0.7,0.3,0.5,0.57875391695533,"true"
"image-keyboard-response",244,215756,"0.0-4.77-1.77","5b0cda1auscty3x",962,"44.csv","","null","resources/maskTrios/L1BB.jpg","null","",NA,NA,NA,NA,""
"image-keyboard-response",245,217022,"0.0-4.77-2.77","5b0cda1auscty3x",962,"44.csv","","null","resources/images/coin2.png","null","",NA,NA,NA,NA,""
"image-keyboard-response",246,217235,"0.0-4.78-0.78","5b0cda1auscty3x",962,"44.csv","","212.20000004768372","resources/trios/L1T4A3.jpg","37","restless",0.7,0.3,0.5,0.212564635924944,"true"
"image-keyboard-response",247,217637,"0.0-4.78-1.78","5b0cda1auscty3x",962,"44.csv","","null","resources/maskTrios/L1BB.jpg","null","",NA,NA,NA,NA,""
"image-keyboard-response",248,218838,"0.0-4.78-2.78","5b0cda1auscty3x",962,"44.csv","","null","resources/images/coin2.png","null","",NA,NA,NA,NA,""
"image-keyboard-response",249,219083,"0.0-4.79-0.79","5b0cda1auscty3x",962,"44.csv","","243.90000009536743","resources/trios/L1T4A3.jpg","37","restless",0.7,0.3,0.5,0.951286455462938,"false"
"image-keyboard-response",250,219484,"0.0-4.79-1.79","5b0cda1auscty3x",962,"44.csv","","null","resources/maskTrios/L1BB.jpg","null","",NA,NA,NA,NA,""
"image-keyboard-response",251,220685,"0.0-4.79-2.79","5b0cda1auscty3x",962,"44.csv","","null","resources/images/fishbone.png","null","",NA,NA,NA,NA,""
"image-keyboard-response",252,220939,"0.0-4.80-0.80","5b0cda1auscty3x",962,"44.csv","","252.89999997615814","resources/trios/L1T4A3.jpg","39","restless",0.7,0.2,0.5,0.109953805066046,"true"
"image-keyboard-response",253,221340,"0.0-4.80-1.80","5b0cda1auscty3x",962,"44.csv","","null","resources/maskTrios/BBA3.jpg","null","",NA,NA,NA,NA,""
"image-keyboard-response",254,223022,"0.0-4.80-2.80","5b0cda1auscty3x",962,"44.csv","","null","resources/images/coin2.png","null","",NA,NA,NA,NA,""
"image-keyboard-response",255,223292,"0.0-4.81-0.81","5b0cda1auscty3x",962,"44.csv","","269.2999999523163","resources/trios/L1T4A3.jpg","39","restless",0.7,0.2,0.5,0.441528162759364,"true"
"image-keyboard-response",256,223693,"0.0-4.81-1.81","5b0cda1auscty3x",962,"44.csv","","null","resources/maskTrios/BBA3.jpg","null","",NA,NA,NA,NA,""
"image-keyboard-response",257,224895,"0.0-4.81-2.81","5b0cda1auscty3x",962,"44.csv","","null","resources/images/coin2.png","null","",NA,NA,NA,NA,""
"image-keyboard-response",258,225291,"0.0-4.82-0.82","5b0cda1auscty3x",962,"44.csv","","395.5","resources/trios/L1T4A3.jpg","39","restless",0.6,0.2,0.5,0.0944833231780324,"true"
"image-keyboard-response",259,225692,"0.0-4.82-1.82","5b0cda1auscty3x",962,"44.csv","","null","resources/maskTrios/BBA3.jpg","null","",NA,NA,NA,NA,""
"image-keyboard-response",260,226894,"0.0-4.82-2.82","5b0cda1auscty3x",962,"44.csv","","null","resources/images/coin2.png","null","",NA,NA,NA,NA,""
"image-keyboard-response",261,227139,"0.0-4.83-0.83","5b0cda1auscty3x",962,"44.csv","","244.90000009536743","resources/trios/L1T4A3.jpg","39","restless",0.6,0.2,0.5,0.896598091927041,"false"
"image-keyboard-response",262,227541,"0.0-4.83-1.83","5b0cda1auscty3x",962,"44.csv","","null","resources/maskTrios/BBA3.jpg","null","",NA,NA,NA,NA,""
"image-keyboard-response",263,229023,"0.0-4.83-2.83","5b0cda1auscty3x",962,"44.csv","","null","resources/images/fishbone.png","null","",NA,NA,NA,NA,""
"image-keyboard-response",264,229451,"0.0-4.84-0.84","5b0cda1auscty3x",962,"44.csv","","427.89999997615814","resources/trios/L1T4A3.jpg","38","restless",0.6,0.2,0.5,0.18689343009168,"true"
"image-keyboard-response",265,229853,"0.0-4.84-1.84","5b0cda1auscty3x",962,"44.csv","","null","resources/maskTrios/BT4B.jpg","null","",NA,NA,NA,NA,""
"image-keyboard-response",266,231055,"0.0-4.84-2.84","5b0cda1auscty3x",962,"44.csv","","null","resources/images/coin2.png","null","",NA,NA,NA,NA,""
"image-keyboard-response",267,231291,"0.0-4.85-0.85","5b0cda1auscty3x",962,"44.csv","","235.80000007152557","resources/trios/L1T4A3.jpg","38","restless",0.6,0.2,0.5,0.596921706353206,"false"
"image-keyboard-response",268,231693,"0.0-4.85-1.85","5b0cda1auscty3x",962,"44.csv","","null","resources/maskTrios/BT4B.jpg","null","",NA,NA,NA,NA,""
"image-keyboard-response",269,232894,"0.0-4.85-2.85","5b0cda1auscty3x",962,"44.csv","","null","resources/images/fishbone.png","null","",NA,NA,NA,NA,""
"image-keyboard-response",270,233163,"0.0-4.86-0.86","5b0cda1auscty3x",962,"44.csv","","268.59999990463257","resources/trios/L1T4A3.jpg","37","restless",0.6,0.2,0.5,0.173705133347351,"true"
"image-keyboard-response",271,233564,"0.0-4.86-1.86","5b0cda1auscty3x",962,"44.csv","","null","resources/maskTrios/L1BB.jpg","null","",NA,NA,NA,NA,""
"image-keyboard-response",272,235022,"0.0-4.86-2.86","5b0cda1auscty3x",962,"44.csv","","null","resources/images/coin2.png","null","",NA,NA,NA,NA,""
"image-keyboard-response",273,235276,"0.0-4.87-0.87","5b0cda1auscty3x",962,"44.csv","","253.60000002384186","resources/trios/L1T4A3.jpg","37","restless",0.6,0.2,0.5,0.359409455947151,"true"
"image-keyboard-response",274,235678,"0.0-4.87-1.87","5b0cda1auscty3x",962,"44.csv","","null","resources/maskTrios/L1BB.jpg","null","",NA,NA,NA,NA,""
"image-keyboard-response",275,236880,"0.0-4.87-2.87","5b0cda1auscty3x",962,"44.csv","","null","resources/images/coin2.png","null","",NA,NA,NA,NA,""
"image-keyboard-response",276,237171,"0.0-4.88-0.88","5b0cda1auscty3x",962,"44.csv","","290.89999997615814","resources/trios/L1T4A3.jpg","37","restless",0.7,0.2,0.5,0.893772868518137,"false"
"image-keyboard-response",277,237572,"0.0-4.88-1.88","5b0cda1auscty3x",962,"44.csv","","null","resources/maskTrios/L1BB.jpg","null","",NA,NA,NA,NA,""
"image-keyboard-response",278,238773,"0.0-4.88-2.88","5b0cda1auscty3x",962,"44.csv","","null","resources/images/fishbone.png","null","",NA,NA,NA,NA,""
"image-keyboard-response",279,239051,"0.0-4.89-0.89","5b0cda1auscty3x",962,"44.csv","","277.10000002384186","resources/trios/L1T4A3.jpg","39","restless",0.7,0.2,0.5,0.473484462234858,"true"
"image-keyboard-response",280,239452,"0.0-4.89-1.89","5b0cda1auscty3x",962,"44.csv","","null","resources/maskTrios/BBA3.jpg","null","",NA,NA,NA,NA,""
"image-keyboard-response",281,241022,"0.0-4.89-2.89","5b0cda1auscty3x",962,"44.csv","","null","resources/images/coin2.png","null","",NA,NA,NA,NA,""
"image-keyboard-response",282,241291,"0.0-4.90-0.90","5b0cda1auscty3x",962,"44.csv","","268.39999997615814","resources/trios/L1T4A3.jpg","39","restless",0.7,0.2,0.6,0.851328836162304,"false"
"image-keyboard-response",283,241693,"0.0-4.90-1.90","5b0cda1auscty3x",962,"44.csv","","null","resources/maskTrios/BBA3.jpg","null","",NA,NA,NA,NA,""
"image-keyboard-response",284,242894,"0.0-4.90-2.90","5b0cda1auscty3x",962,"44.csv","","null","resources/images/fishbone.png","null","",NA,NA,NA,NA,""
"image-keyboard-response",285,243187,"0.0-4.91-0.91","5b0cda1auscty3x",962,"44.csv","","292.39999997615814","resources/trios/L1T4A3.jpg","38","restless",0.7,0.2,0.6,0.783772850835127,"false"
"image-keyboard-response",286,243589,"0.0-4.91-1.91","5b0cda1auscty3x",962,"44.csv","","null","resources/maskTrios/BT4B.jpg","null","",NA,NA,NA,NA,""
"image-keyboard-response",287,244790,"0.0-4.91-2.91","5b0cda1auscty3x",962,"44.csv","","null","resources/images/fishbone.png","null","",NA,NA,NA,NA,""
"image-keyboard-response",288,245083,"0.0-4.92-0.92","5b0cda1auscty3x",962,"44.csv","","292.2000000476837","resources/trios/L1T4A3.jpg","39","restless",0.7,0.2,0.6,0.907090166873144,"false"
"image-keyboard-response",289,245485,"0.0-4.92-1.92","5b0cda1auscty3x",962,"44.csv","","null","resources/maskTrios/BBA3.jpg","null","",NA,NA,NA,NA,""
"image-keyboard-response",290,246836,"0.0-4.92-2.92","5b0cda1auscty3x",962,"44.csv","","null","resources/images/fishbone.png","null","",NA,NA,NA,NA,""
"image-keyboard-response",291,247227,"0.0-4.93-0.93","5b0cda1auscty3x",962,"44.csv","","390.2000000476837","resources/trios/L1T4A3.jpg","37","restless",0.7,0.2,0.5,0.907380311232529,"false"
"image-keyboard-response",292,247628,"0.0-4.93-1.93","5b0cda1auscty3x",962,"44.csv","","null","resources/maskTrios/L1BB.jpg","null","",NA,NA,NA,NA,""
"image-keyboard-response",293,248830,"0.0-4.93-2.93","5b0cda1auscty3x",962,"44.csv","","null","resources/images/fishbone.png","null","",NA,NA,NA,NA,""
"image-keyboard-response",294,249651,"0.0-4.94-0.94","5b0cda1auscty3x",962,"44.csv","","820.6000000238419","resources/trios/L1T4A3.jpg","39","restless",0.7,0.2,0.5,0.0127053473001648,"true"
"image-keyboard-response",295,250053,"0.0-4.94-1.94","5b0cda1auscty3x",962,"44.csv","","null","resources/maskTrios/BBA3.jpg","null","",NA,NA,NA,NA,""
"image-keyboard-response",296,251254,"0.0-4.94-2.94","5b0cda1auscty3x",962,"44.csv","","null","resources/images/coin2.png","null","",NA,NA,NA,NA,""
"image-keyboard-response",297,251443,"0.0-4.95-0.95","5b0cda1auscty3x",962,"44.csv","","188.19999992847443","resources/trios/L1T4A3.jpg","39","restless",0.7,0.2,0.5,0.174923658115065,"true"
"image-keyboard-response",298,252023,"0.0-4.95-1.95","5b0cda1auscty3x",962,"44.csv","","null","resources/maskTrios/BBA3.jpg","null","",NA,NA,NA,NA,""
"image-keyboard-response",299,253451,"0.0-4.95-2.95","5b0cda1auscty3x",962,"44.csv","","null","resources/images/coin2.png","null","",NA,NA,NA,NA,""
"image-keyboard-response",300,253803,"0.0-4.96-0.96","5b0cda1auscty3x",962,"44.csv","","351.60000002384186","resources/trios/L1T4A3.jpg","39","restless",0.7,0.2,0.5,0.996170796593788,"false"
"image-keyboard-response",301,254204,"0.0-4.96-1.96","5b0cda1auscty3x",962,"44.csv","","null","resources/maskTrios/BBA3.jpg","null","",NA,NA,NA,NA,""
"image-keyboard-response",302,255406,"0.0-4.96-2.96","5b0cda1auscty3x",962,"44.csv","","null","resources/images/fishbone.png","null","",NA,NA,NA,NA,""
"image-keyboard-response",303,255635,"0.0-4.97-0.97","5b0cda1auscty3x",962,"44.csv","","228.60000002384186","resources/trios/L1T4A3.jpg","37","restless",0.6,0.2,0.4,0.767337278189846,"false"
"image-keyboard-response",304,256036,"0.0-4.97-1.97","5b0cda1auscty3x",962,"44.csv","","null","resources/maskTrios/L1BB.jpg","null","",NA,NA,NA,NA,""
"image-keyboard-response",305,257237,"0.0-4.97-2.97","5b0cda1auscty3x",962,"44.csv","","null","resources/images/fishbone.png","null","",NA,NA,NA,NA,""
"image-keyboard-response",306,257428,"0.0-4.98-0.98","5b0cda1auscty3x",962,"44.csv","","190.40000009536743","resources/trios/L1T4A3.jpg","38","restless",0.5,0.2,0.4,0.346759299109897,"false"
"image-keyboard-response",307,257830,"0.0-4.98-1.98","5b0cda1auscty3x",962,"44.csv","","null","resources/maskTrios/BT4B.jpg","null","",NA,NA,NA,NA,""
"image-keyboard-response",308,259155,"0.0-4.98-2.98","5b0cda1auscty3x",962,"44.csv","","null","resources/images/fishbone.png","null","",NA,NA,NA,NA,""
"image-keyboard-response",309,259667,"0.0-4.99-0.99","5b0cda1auscty3x",962,"44.csv","","511.2999999523163","resources/trios/L1T4A3.jpg","37","restless",0.5,0.2,0.4,0.826159341465108,"false"
"image-keyboard-response",310,260068,"0.0-4.99-1.99","5b0cda1auscty3x",962,"44.csv","","null","resources/maskTrios/L1BB.jpg","null","",NA,NA,NA,NA,""
"image-keyboard-response",311,261269,"0.0-4.99-2.99","5b0cda1auscty3x",962,"44.csv","","null","resources/images/fishbone.png","null","",NA,NA,NA,NA,""
"image-keyboard-response",312,261547,"0.0-4.100-0.100","5b0cda1auscty3x",962,"44.csv","","277","resources/trios/L1T4A3.jpg","37","restless",0.5,0.2,0.4,0.599043319960627,"false"
"image-keyboard-response",313,261949,"0.0-4.100-1.100","5b0cda1auscty3x",962,"44.csv","","null","resources/maskTrios/L1BB.jpg","null","",NA,NA,NA,NA,""
"image-keyboard-response",314,263150,"0.0-4.100-2.100","5b0cda1auscty3x",962,"44.csv","","null","resources/images/fishbone.png","null","",NA,NA,NA,NA,""
"image-keyboard-response",315,263395,"0.0-4.101-0.101","5b0cda1auscty3x",962,"44.csv","","244","resources/trios/L1T4A3.jpg","37","restless",0.5,0.2,0.4,0.843462079728546,"false"
"image-keyboard-response",316,263796,"0.0-4.101-1.101","5b0cda1auscty3x",962,"44.csv","","null","resources/maskTrios/L1BB.jpg","null","",NA,NA,NA,NA,""
"image-keyboard-response",317,265023,"0.0-4.101-2.101","5b0cda1auscty3x",962,"44.csv","","null","resources/images/fishbone.png","null","",NA,NA,NA,NA,""
"image-keyboard-response",318,265211,"0.0-4.102-0.102","5b0cda1auscty3x",962,"44.csv","","187.79999995231628","resources/trios/L1T4A3.jpg","39","restless",0.5,0.2,0.5,0.715903098026772,"false"
"image-keyboard-response",319,265613,"0.0-4.102-1.102","5b0cda1auscty3x",962,"44.csv","","null","resources/maskTrios/BBA3.jpg","null","",NA,NA,NA,NA,""
"image-keyboard-response",320,266815,"0.0-4.102-2.102","5b0cda1auscty3x",962,"44.csv","","null","resources/images/fishbone.png","null","",NA,NA,NA,NA,""
"image-keyboard-response",321,267035,"0.0-4.103-0.103","5b0cda1auscty3x",962,"44.csv","","219.70000004768372","resources/trios/L1T4A3.jpg","37","restless",0.5,0.2,0.5,0.644659231816961,"false"
"image-keyboard-response",322,267436,"0.0-4.103-1.103","5b0cda1auscty3x",962,"44.csv","","null","resources/maskTrios/L1BB.jpg","null","",NA,NA,NA,NA,""
"image-keyboard-response",323,268638,"0.0-4.103-2.103","5b0cda1auscty3x",962,"44.csv","","null","resources/images/fishbone.png","null","",NA,NA,NA,NA,""
"image-keyboard-response",324,268684,"0.0-4.104-0.104","5b0cda1auscty3x",962,"44.csv","","46.199999928474426","resources/trios/L1T4A3.jpg","38","restless",0.5,0.2,0.5,0.346200484980448,"false"
"image-keyboard-response",325,269085,"0.0-4.104-1.104","5b0cda1auscty3x",962,"44.csv","","null","resources/maskTrios/BT4B.jpg","null","",NA,NA,NA,NA,""
"image-keyboard-response",326,270307,"0.0-4.104-2.104","5b0cda1auscty3x",962,"44.csv","","null","resources/images/fishbone.png","null","",NA,NA,NA,NA,""
"image-keyboard-response",327,270626,"0.0-4.105-0.105","5b0cda1auscty3x",962,"44.csv","","319.10000002384186","resources/trios/L1T4A3.jpg","37","restless",0.5,0.2,0.5,0.362021008325334,"true"
"image-keyboard-response",328,271028,"0.0-4.105-1.105","5b0cda1auscty3x",962,"44.csv","","null","resources/maskTrios/L1BB.jpg","null","",NA,NA,NA,NA,""
"image-keyboard-response",329,272230,"0.0-4.105-2.105","5b0cda1auscty3x",962,"44.csv","","null","resources/images/coin2.png","null","",NA,NA,NA,NA,""
"image-keyboard-response",330,272443,"0.0-4.106-0.106","5b0cda1auscty3x",962,"44.csv","","212.29999995231628","resources/trios/L1T4A3.jpg","37","restless",0.5,0.2,0.5,0.0146170637460816,"true"
"image-keyboard-response",331,272845,"0.0-4.106-1.106","5b0cda1auscty3x",962,"44.csv","","null","resources/maskTrios/L1BB.jpg","null","",NA,NA,NA,NA,""
"image-keyboard-response",332,274046,"0.0-4.106-2.106","5b0cda1auscty3x",962,"44.csv","","null","resources/images/coin2.png","null","",NA,NA,NA,NA,""
"image-keyboard-response",333,274291,"0.0-4.107-0.107","5b0cda1auscty3x",962,"44.csv","","243.79999995231628","resources/trios/L1T4A3.jpg","37","restless",0.5,0.2,0.5,0.378914415522824,"true"
"image-keyboard-response",334,274693,"0.0-4.107-1.107","5b0cda1auscty3x",962,"44.csv","","null","resources/maskTrios/L1BB.jpg","null","",NA,NA,NA,NA,""
"image-keyboard-response",335,276023,"0.0-4.107-2.107","5b0cda1auscty3x",962,"44.csv","","null","resources/images/coin2.png","null","",NA,NA,NA,NA,""
"image-keyboard-response",336,276123,"0.0-4.108-0.108","5b0cda1auscty3x",962,"44.csv","","99.10000002384186","resources/trios/L1T4A3.jpg","37","restless",0.6,0.2,0.5,0.427013521783816,"true"
"image-keyboard-response",337,276525,"0.0-4.108-1.108","5b0cda1auscty3x",962,"44.csv","","null","resources/maskTrios/L1BB.jpg","null","",NA,NA,NA,NA,""
"image-keyboard-response",338,277727,"0.0-4.108-2.108","5b0cda1auscty3x",962,"44.csv","","null","resources/images/coin2.png","null","",NA,NA,NA,NA,""
"image-keyboard-response",339,278051,"0.0-4.109-0.109","5b0cda1auscty3x",962,"44.csv","","323.59999990463257","resources/trios/L1T4A3.jpg","38","restless",0.6,0.2,0.5,0.979190976856053,"false"
"image-keyboard-response",340,278452,"0.0-4.109-1.109","5b0cda1auscty3x",962,"44.csv","","null","resources/maskTrios/BT4B.jpg","null","",NA,NA,NA,NA,""
"image-keyboard-response",341,279654,"0.0-4.109-2.109","5b0cda1auscty3x",962,"44.csv","","null","resources/images/fishbone.png","null","",NA,NA,NA,NA,""
"image-keyboard-response",342,279860,"0.0-4.110-0.110","5b0cda1auscty3x",962,"44.csv","","205.80000007152557","resources/trios/L1T4A3.jpg","37","restless",0.6,0.2,0.5,0.958155638361608,"false"
"image-keyboard-response",343,280262,"0.0-4.110-1.110","5b0cda1auscty3x",962,"44.csv","","null","resources/maskTrios/L1BB.jpg","null","",NA,NA,NA,NA,""
"image-keyboard-response",344,282022,"0.0-4.110-2.110","5b0cda1auscty3x",962,"44.csv","","null","resources/images/fishbone.png","null","",NA,NA,NA,NA,""
"image-keyboard-response",345,283659,"0.0-4.111-0.111","5b0cda1auscty3x",962,"44.csv","","1636.7999999523163","resources/trios/L1T4A3.jpg","39","restless",0.6,0.2,0.5,0.899306054154366,"false"
"image-keyboard-response",346,284061,"0.0-4.111-1.111","5b0cda1auscty3x",962,"44.csv","","null","resources/maskTrios/BBA3.jpg","null","",NA,NA,NA,NA,""
"image-keyboard-response",347,285262,"0.0-4.111-2.111","5b0cda1auscty3x",962,"44.csv","","null","resources/images/fishbone.png","null","",NA,NA,NA,NA,""
"image-keyboard-response",348,286163,"0.0-4.112-0.112","5b0cda1auscty3x",962,"44.csv","","900.2999999523163","resources/trios/L1T4A3.jpg","38","restless",0.6,0.2,0.5,0.981894453364752,"false"
"image-keyboard-response",349,286564,"0.0-4.112-1.112","5b0cda1auscty3x",962,"44.csv","","null","resources/maskTrios/BT4B.jpg","null","",NA,NA,NA,NA,""
"image-keyboard-response",350,287765,"0.0-4.112-2.112","5b0cda1auscty3x",962,"44.csv","","null","resources/images/fishbone.png","null","",NA,NA,NA,NA,""
"image-keyboard-response",351,287811,"0.0-4.113-0.113","5b0cda1auscty3x",962,"44.csv","","45.10000002384186","resources/trios/L1T4A3.jpg","37","restless",0.6,0.2,0.5,0.629060103918666,"false"
"image-keyboard-response",352,288212,"0.0-4.113-1.113","5b0cda1auscty3x",962,"44.csv","","null","resources/maskTrios/L1BB.jpg","null","",NA,NA,NA,NA,""
"image-keyboard-response",353,289499,"0.0-4.113-2.113","5b0cda1auscty3x",962,"44.csv","","null","resources/images/fishbone.png","null","",NA,NA,NA,NA,""
"image-keyboard-response",354,289859,"0.0-4.114-0.114","5b0cda1auscty3x",962,"44.csv","","359.7000000476837","resources/trios/L1T4A3.jpg","37","restless",0.6,0.3,0.5,0.771331879620042,"false"
"image-keyboard-response",355,290260,"0.0-4.114-1.114","5b0cda1auscty3x",962,"44.csv","","null","resources/maskTrios/L1BB.jpg","null","",NA,NA,NA,NA,""
"image-keyboard-response",356,291462,"0.0-4.114-2.114","5b0cda1auscty3x",962,"44.csv","","null","resources/images/fishbone.png","null","",NA,NA,NA,NA,""
"image-keyboard-response",357,291652,"0.0-4.115-0.115","5b0cda1auscty3x",962,"44.csv","","189.5","resources/trios/L1T4A3.jpg","37","restless",0.6,0.3,0.5,0.674390962633052,"false"
"image-keyboard-response",358,292054,"0.0-4.115-1.115","5b0cda1auscty3x",962,"44.csv","","null","resources/maskTrios/L1BB.jpg","null","",NA,NA,NA,NA,""
"image-keyboard-response",359,293255,"0.0-4.115-2.115","5b0cda1auscty3x",962,"44.csv","","null","resources/images/fishbone.png","null","",NA,NA,NA,NA,""
"image-keyboard-response",360,293379,"0.0-4.116-0.116","5b0cda1auscty3x",962,"44.csv","","123.10000002384186","resources/trios/L1T4A3.jpg","38","restless",0.7,0.3,0.5,0.180788826571774,"true"
"image-keyboard-response",361,293780,"0.0-4.116-1.116","5b0cda1auscty3x",962,"44.csv","","null","resources/maskTrios/BT4B.jpg","null","",NA,NA,NA,NA,""
"image-keyboard-response",362,295023,"0.0-4.116-2.116","5b0cda1auscty3x",962,"44.csv","","null","resources/images/coin2.png","null","",NA,NA,NA,NA,""
"image-keyboard-response",363,295187,"0.0-4.117-0.117","5b0cda1auscty3x",962,"44.csv","","163.69999992847443","resources/trios/L1T4A3.jpg","38","restless",0.7,0.3,0.5,0.647450142426948,"false"
"image-keyboard-response",364,295589,"0.0-4.117-1.117","5b0cda1auscty3x",962,"44.csv","","null","resources/maskTrios/BT4B.jpg","null","",NA,NA,NA,NA,""
"image-keyboard-response",365,296791,"0.0-4.117-2.117","5b0cda1auscty3x",962,"44.csv","","null","resources/images/fishbone.png","null","",NA,NA,NA,NA,""
"image-keyboard-response",366,296899,"0.0-4.118-0.118","5b0cda1auscty3x",962,"44.csv","","107.70000004768372","resources/trios/L1T4A3.jpg","37","restless",0.7,0.3,0.5,0.936615918223235,"false"
"image-keyboard-response",367,297301,"0.0-4.118-1.118","5b0cda1auscty3x",962,"44.csv","","null","resources/maskTrios/L1BB.jpg","null","",NA,NA,NA,NA,""
"image-keyboard-response",368,298502,"0.0-4.118-2.118","5b0cda1auscty3x",962,"44.csv","","null","resources/images/fishbone.png","null","",NA,NA,NA,NA,""
"image-keyboard-response",369,298659,"0.0-4.119-0.119","5b0cda1auscty3x",962,"44.csv","","156.20000004768372","resources/trios/L1T4A3.jpg","39","restless",0.7,0.3,0.5,0.389932248379269,"true"
"image-keyboard-response",370,299060,"0.0-4.119-1.119","5b0cda1auscty3x",962,"44.csv","","null","resources/maskTrios/BBA3.jpg","null","",NA,NA,NA,NA,""
"image-keyboard-response",371,301022,"0.0-4.119-2.119","5b0cda1auscty3x",962,"44.csv","","null","resources/images/coin2.png","null","",NA,NA,NA,NA,""
"image-keyboard-response",372,301363,"0.0-4.120-0.120","5b0cda1auscty3x",962,"44.csv","","340.10000002384186","resources/trios/L1T4A3.jpg","39","restless",0.7,0.3,0.5,0.708638840320533,"false"
"image-keyboard-response",373,301764,"0.0-4.120-1.120","5b0cda1auscty3x",962,"44.csv","","null","resources/maskTrios/BBA3.jpg","null","",NA,NA,NA,NA,""
"image-keyboard-response",374,302966,"0.0-4.120-2.120","5b0cda1auscty3x",962,"44.csv","","null","resources/images/fishbone.png","null","",NA,NA,NA,NA,""
"image-keyboard-response",375,303292,"0.0-4.121-0.121","5b0cda1auscty3x",962,"44.csv","","325.60000002384186","resources/trios/L1T4A3.jpg","38","restless",0.7,0.3,0.5,0.192192768177976,"true"
"image-keyboard-response",376,303693,"0.0-4.121-1.121","5b0cda1auscty3x",962,"44.csv","","null","resources/maskTrios/BT4B.jpg","null","",NA,NA,NA,NA,""
"image-keyboard-response",377,304895,"0.0-4.121-2.121","5b0cda1auscty3x",962,"44.csv","","null","resources/images/coin2.png","null","",NA,NA,NA,NA,""
"image-keyboard-response",378,305163,"0.0-4.122-0.122","5b0cda1auscty3x",962,"44.csv","","267.2999999523163","resources/trios/L1T4A3.jpg","38","restless",0.7,0.3,0.5,0.00272666853662007,"true"
"image-keyboard-response",379,305564,"0.0-4.122-1.122","5b0cda1auscty3x",962,"44.csv","","null","resources/maskTrios/BT4B.jpg","null","",NA,NA,NA,NA,""
"image-keyboard-response",380,307022,"0.0-4.122-2.122","5b0cda1auscty3x",962,"44.csv","","null","resources/images/coin2.png","null","",NA,NA,NA,NA,""
"image-keyboard-response",381,307067,"0.0-4.123-0.123","5b0cda1auscty3x",962,"44.csv","","44.299999952316284","resources/trios/L1T4A3.jpg","38","restless",0.7,0.3,0.5,0.033985093153702,"true"
"image-keyboard-response",382,307468,"0.0-4.123-1.123","5b0cda1auscty3x",962,"44.csv","","null","resources/maskTrios/BT4B.jpg","null","",NA,NA,NA,NA,""
"image-keyboard-response",383,308670,"0.0-4.123-2.123","5b0cda1auscty3x",962,"44.csv","","null","resources/images/coin2.png","null","",NA,NA,NA,NA,""
"image-keyboard-response",384,309147,"0.0-4.124-0.124","5b0cda1auscty3x",962,"44.csv","","476.60000002384186","resources/trios/L1T4A3.jpg","38","restless",0.7,0.3,0.5,0.607232365200188,"false"
"image-keyboard-response",385,309548,"0.0-4.124-1.124","5b0cda1auscty3x",962,"44.csv","","null","resources/maskTrios/BT4B.jpg","null","",NA,NA,NA,NA,""
"image-keyboard-response",386,310749,"0.0-4.124-2.124","5b0cda1auscty3x",962,"44.csv","","null","resources/images/fishbone.png","null","",NA,NA,NA,NA,""
"image-keyboard-response",387,310963,"0.0-4.125-0.125","5b0cda1auscty3x",962,"44.csv","","213","resources/trios/L1T4A3.jpg","37","restless",0.7,0.3,0.5,0.635495439147553,"true"
"image-keyboard-response",388,311364,"0.0-4.125-1.125","5b0cda1auscty3x",962,"44.csv","","null","resources/maskTrios/L1BB.jpg","null","",NA,NA,NA,NA,""
"image-keyboard-response",389,313022,"0.0-4.125-2.125","5b0cda1auscty3x",962,"44.csv","","null","resources/images/coin2.png","null","",NA,NA,NA,NA,""
"image-keyboard-response",390,313324,"0.0-4.126-0.126","5b0cda1auscty3x",962,"44.csv","","301.60000002384186","resources/trios/L1T4A3.jpg","37","restless",0.6,0.3,0.5,0.0342890377847578,"true"
"image-keyboard-response",391,313726,"0.0-4.126-1.126","5b0cda1auscty3x",962,"44.csv","","null","resources/maskTrios/L1BB.jpg","null","",NA,NA,NA,NA,""
"image-keyboard-response",392,314927,"0.0-4.126-2.126","5b0cda1auscty3x",962,"44.csv","","null","resources/images/coin2.png","null","",NA,NA,NA,NA,""
"image-keyboard-response",393,315195,"0.0-4.127-0.127","5b0cda1auscty3x",962,"44.csv","","267.8000000715256","resources/trios/L1T4A3.jpg","37","restless",0.6,0.3,0.5,0.0955751865075205,"true"
"image-keyboard-response",394,315597,"0.0-4.127-1.127","5b0cda1auscty3x",962,"44.csv","","null","resources/maskTrios/L1BB.jpg","null","",NA,NA,NA,NA,""
"image-keyboard-response",395,316799,"0.0-4.127-2.127","5b0cda1auscty3x",962,"44.csv","","null","resources/images/coin2.png","null","",NA,NA,NA,NA,""
"image-keyboard-response",396,317098,"0.0-4.128-0.128","5b0cda1auscty3x",962,"44.csv","","299","resources/trios/L1T4A3.jpg","37","restless",0.6,0.2,0.5,0.918033574618907,"false"
"image-keyboard-response",397,317500,"0.0-4.128-1.128","5b0cda1auscty3x",962,"44.csv","","null","resources/maskTrios/L1BB.jpg","null","",NA,NA,NA,NA,""
"image-keyboard-response",398,319022,"0.0-4.128-2.128","5b0cda1auscty3x",962,"44.csv","","null","resources/images/fishbone.png","null","",NA,NA,NA,NA,""
"image-keyboard-response",399,319195,"0.0-4.129-0.129","5b0cda1auscty3x",962,"44.csv","","172.20000004768372","resources/trios/L1T4A3.jpg","39","restless",0.6,0.2,0.5,0.444462979475785,"true"
"image-keyboard-response",400,319597,"0.0-4.129-1.129","5b0cda1auscty3x",962,"44.csv","","null","resources/maskTrios/BBA3.jpg","null","",NA,NA,NA,NA,""
"image-keyboard-response",401,320798,"0.0-4.129-2.129","5b0cda1auscty3x",962,"44.csv","","null","resources/images/coin2.png","null","",NA,NA,NA,NA,""
"image-keyboard-response",402,321187,"0.0-4.130-0.130","5b0cda1auscty3x",962,"44.csv","","388","resources/trios/L1T4A3.jpg","39","restless",0.6,0.2,0.5,0.542985235898513,"false"
"image-keyboard-response",403,321588,"0.0-4.130-1.130","5b0cda1auscty3x",962,"44.csv","","null","resources/maskTrios/BBA3.jpg","null","",NA,NA,NA,NA,""
"image-keyboard-response",404,322789,"0.0-4.130-2.130","5b0cda1auscty3x",962,"44.csv","","null","resources/images/fishbone.png","null","",NA,NA,NA,NA,""
"image-keyboard-response",405,323082,"0.0-4.131-0.131","5b0cda1auscty3x",962,"44.csv","","292.5","resources/trios/L1T4A3.jpg","38","restless",0.6,0.2,0.5,0.275060812048468,"false"
"image-keyboard-response",406,323484,"0.0-4.131-1.131","5b0cda1auscty3x",962,"44.csv","","null","resources/maskTrios/BT4B.jpg","null","",NA,NA,NA,NA,""
"image-keyboard-response",407,325023,"0.0-4.131-2.131","5b0cda1auscty3x",962,"44.csv","","null","resources/images/fishbone.png","null","",NA,NA,NA,NA,""
"image-keyboard-response",408,325316,"0.0-4.132-0.132","5b0cda1auscty3x",962,"44.csv","","292.5","resources/trios/L1T4A3.jpg","39","restless",0.6,0.2,0.5,0.0510584840232651,"true"
"image-keyboard-response",409,325717,"0.0-4.132-1.132","5b0cda1auscty3x",962,"44.csv","","null","resources/maskTrios/BBA3.jpg","null","",NA,NA,NA,NA,""
"image-keyboard-response",410,326919,"0.0-4.132-2.132","5b0cda1auscty3x",962,"44.csv","","null","resources/images/coin2.png","null","",NA,NA,NA,NA,""
"image-keyboard-response",411,327179,"0.0-4.133-0.133","5b0cda1auscty3x",962,"44.csv","","259.10000002384186","resources/trios/L1T4A3.jpg","39","restless",0.6,0.2,0.5,0.391880745864132,"true"
"image-keyboard-response",412,327581,"0.0-4.133-1.133","5b0cda1auscty3x",962,"44.csv","","null","resources/maskTrios/BBA3.jpg","null","",NA,NA,NA,NA,""
"image-keyboard-response",413,328783,"0.0-4.133-2.133","5b0cda1auscty3x",962,"44.csv","","null","resources/images/coin2.png","null","",NA,NA,NA,NA,""
"image-keyboard-response",414,329091,"0.0-4.134-0.134","5b0cda1auscty3x",962,"44.csv","","307.39999997615814","resources/trios/L1T4A3.jpg","37","restless",0.6,0.1,0.5,0.00187541923251122,"true"
"image-keyboard-response",415,329493,"0.0-4.134-1.134","5b0cda1auscty3x",962,"44.csv","","null","resources/maskTrios/L1BB.jpg","null","",NA,NA,NA,NA,""
"image-keyboard-response",416,331023,"0.0-4.134-2.134","5b0cda1auscty3x",962,"44.csv","","null","resources/images/coin2.png","null","",NA,NA,NA,NA,""
"image-keyboard-response",417,331283,"0.0-4.135-0.135","5b0cda1auscty3x",962,"44.csv","","259.1999999284744","resources/trios/L1T4A3.jpg","37","restless",0.6,0.1,0.5,0.533425181027591,"true"
"image-keyboard-response",418,331684,"0.0-4.135-1.135","5b0cda1auscty3x",962,"44.csv","","null","resources/maskTrios/L1BB.jpg","null","",NA,NA,NA,NA,""
"image-keyboard-response",419,332885,"0.0-4.135-2.135","5b0cda1auscty3x",962,"44.csv","","null","resources/images/coin2.png","null","",NA,NA,NA,NA,""
"image-keyboard-response",420,333315,"0.0-4.136-0.136","5b0cda1auscty3x",962,"44.csv","","429.60000002384186","resources/trios/L1T4A3.jpg","37","restless",0.6,0.2,0.5,0.527002611320841,"true"
"image-keyboard-response",421,333716,"0.0-4.136-1.136","5b0cda1auscty3x",962,"44.csv","","null","resources/maskTrios/L1BB.jpg","null","",NA,NA,NA,NA,""
"image-keyboard-response",422,334917,"0.0-4.136-2.136","5b0cda1auscty3x",962,"44.csv","","null","resources/images/coin2.png","null","",NA,NA,NA,NA,""
"image-keyboard-response",423,335163,"0.0-4.137-0.137","5b0cda1auscty3x",962,"44.csv","","244.79999995231628","resources/trios/L1T4A3.jpg","38","restless",0.6,0.2,0.5,0.753343898542969,"false"
"image-keyboard-response",424,335564,"0.0-4.137-1.137","5b0cda1auscty3x",962,"44.csv","","null","resources/maskTrios/BT4B.jpg","null","",NA,NA,NA,NA,""
"image-keyboard-response",425,337022,"0.0-4.137-2.137","5b0cda1auscty3x",962,"44.csv","","null","resources/images/fishbone.png","null","",NA,NA,NA,NA,""
"image-keyboard-response",426,337244,"0.0-4.138-0.138","5b0cda1auscty3x",962,"44.csv","","221.39999997615814","resources/trios/L1T4A3.jpg","39","restless",0.6,0.2,0.5,0.295346229733217,"true"
"image-keyboard-response",427,337646,"0.0-4.138-1.138","5b0cda1auscty3x",962,"44.csv","","null","resources/maskTrios/BBA3.jpg","null","",NA,NA,NA,NA,""
"image-keyboard-response",428,338847,"0.0-4.138-2.138","5b0cda1auscty3x",962,"44.csv","","null","resources/images/coin2.png","null","",NA,NA,NA,NA,""
"image-keyboard-response",429,339147,"0.0-4.139-0.139","5b0cda1auscty3x",962,"44.csv","","299.39999997615814","resources/trios/L1T4A3.jpg","39","restless",0.6,0.2,0.5,0.281773300437054,"true"
"image-keyboard-response",430,339549,"0.0-4.139-1.139","5b0cda1auscty3x",962,"44.csv","","null","resources/maskTrios/BBA3.jpg","null","",NA,NA,NA,NA,""
"image-keyboard-response",431,340750,"0.0-4.139-2.139","5b0cda1auscty3x",962,"44.csv","","null","resources/images/coin2.png","null","",NA,NA,NA,NA,""
"image-keyboard-response",432,341043,"0.0-4.140-0.140","5b0cda1auscty3x",962,"44.csv","","292.39999997615814","resources/trios/L1T4A3.jpg","39","restless",0.6,0.2,0.5,0.288822697932659,"true"
"image-keyboard-response",433,341445,"0.0-4.140-1.140","5b0cda1auscty3x",962,"44.csv","","null","resources/maskTrios/BBA3.jpg","null","",NA,NA,NA,NA,""
"image-keyboard-response",434,343023,"0.0-4.140-2.140","5b0cda1auscty3x",962,"44.csv","","null","resources/images/coin2.png","null","",NA,NA,NA,NA,""
"image-keyboard-response",435,343395,"0.0-4.141-0.141","5b0cda1auscty3x",962,"44.csv","","371.2000000476837","resources/trios/L1T4A3.jpg","38","restless",0.6,0.2,0.5,0.823365179403163,"false"
"image-keyboard-response",436,343797,"0.0-4.141-1.141","5b0cda1auscty3x",962,"44.csv","","null","resources/maskTrios/BT4B.jpg","null","",NA,NA,NA,NA,""
"image-keyboard-response",437,344998,"0.0-4.141-2.141","5b0cda1auscty3x",962,"44.csv","","null","resources/images/fishbone.png","null","",NA,NA,NA,NA,""
"image-keyboard-response",438,345339,"0.0-4.142-0.142","5b0cda1auscty3x",962,"44.csv","","340.10000002384186","resources/trios/L1T4A3.jpg","37","restless",0.6,0.2,0.5,0.856480829979557,"false"
"image-keyboard-response",439,345740,"0.0-4.142-1.142","5b0cda1auscty3x",962,"44.csv","","null","resources/maskTrios/L1BB.jpg","null","",NA,NA,NA,NA,""
"image-keyboard-response",440,346941,"0.0-4.142-2.142","5b0cda1auscty3x",962,"44.csv","","null","resources/images/fishbone.png","null","",NA,NA,NA,NA,""
"image-keyboard-response",441,347075,"0.0-4.143-0.143","5b0cda1auscty3x",962,"44.csv","","133.19999992847443","resources/trios/L1T4A3.jpg","38","restless",0.6,0.2,0.5,0.311718883649134,"false"
"image-keyboard-response",442,347476,"0.0-4.143-1.143","5b0cda1auscty3x",962,"44.csv","","null","resources/maskTrios/BT4B.jpg","null","",NA,NA,NA,NA,""
"image-keyboard-response",443,348732,"0.0-4.143-2.143","5b0cda1auscty3x",962,"44.csv","","null","resources/images/fishbone.png","null","",NA,NA,NA,NA,""
"image-keyboard-response",444,349042,"0.0-4.144-0.144","5b0cda1auscty3x",962,"44.csv","","309.7999999523163","resources/trios/L1T4A3.jpg","39","restless",0.6,0.3,0.5,0.808033565109865,"false"
"image-keyboard-response",445,349444,"0.0-4.144-1.144","5b0cda1auscty3x",962,"44.csv","","null","resources/maskTrios/BBA3.jpg","null","",NA,NA,NA,NA,""
"image-keyboard-response",446,350645,"0.0-4.144-2.144","5b0cda1auscty3x",962,"44.csv","","null","resources/images/fishbone.png","null","",NA,NA,NA,NA,""
"image-keyboard-response",447,350923,"0.0-4.145-0.145","5b0cda1auscty3x",962,"44.csv","","277.5","resources/trios/L1T4A3.jpg","37","restless",0.6,0.3,0.6,0.663732442693906,"false"
"image-keyboard-response",448,351324,"0.0-4.145-1.145","5b0cda1auscty3x",962,"44.csv","","null","resources/maskTrios/L1BB.jpg","null","",NA,NA,NA,NA,""
"image-keyboard-response",449,352525,"0.0-4.145-2.145","5b0cda1auscty3x",962,"44.csv","","null","resources/images/fishbone.png","null","",NA,NA,NA,NA,""
"image-keyboard-response",450,352787,"0.0-4.146-0.146","5b0cda1auscty3x",962,"44.csv","","260.8000000715256","resources/trios/L1T4A3.jpg","37","restless",0.6,0.3,0.6,0.0827240710169301,"true"
"image-keyboard-response",451,353188,"0.0-4.146-1.146","5b0cda1auscty3x",962,"44.csv","","null","resources/maskTrios/L1BB.jpg","null","",NA,NA,NA,NA,""
"image-keyboard-response",452,355022,"0.0-4.146-2.146","5b0cda1auscty3x",962,"44.csv","","null","resources/images/coin2.png","null","",NA,NA,NA,NA,""
"image-keyboard-response",453,355331,"0.0-4.147-0.147","5b0cda1auscty3x",962,"44.csv","","308.60000002384186","resources/trios/L1T4A3.jpg","37","restless",0.7,0.3,0.6,0.0695538121274561,"true"
"image-keyboard-response",454,355732,"0.0-4.147-1.147","5b0cda1auscty3x",962,"44.csv","","null","resources/maskTrios/L1BB.jpg","null","",NA,NA,NA,NA,""
"image-keyboard-response",455,356933,"0.0-4.147-2.147","5b0cda1auscty3x",962,"44.csv","","null","resources/images/coin2.png","null","",NA,NA,NA,NA,""
"image-keyboard-response",456,357211,"0.0-4.148-0.148","5b0cda1auscty3x",962,"44.csv","","276.8000000715256","resources/trios/L1T4A3.jpg","37","restless",0.7,0.2,0.6,0.343132701796167,"true"
"image-keyboard-response",457,357612,"0.0-4.148-1.148","5b0cda1auscty3x",962,"44.csv","","null","resources/maskTrios/L1BB.jpg","null","",NA,NA,NA,NA,""
"image-keyboard-response",458,358813,"0.0-4.148-2.148","5b0cda1auscty3x",962,"44.csv","","null","resources/images/coin2.png","null","",NA,NA,NA,NA,""
"image-keyboard-response",459,359044,"0.0-4.149-0.149","5b0cda1auscty3x",962,"44.csv","","230.39999997615814","resources/trios/L1T4A3.jpg","37","restless",0.7,0.3,0.6,0.572750661172778,"true"
"image-keyboard-response",460,359445,"0.0-4.149-1.149","5b0cda1auscty3x",962,"44.csv","","null","resources/maskTrios/L1BB.jpg","null","",NA,NA,NA,NA,""
"image-keyboard-response",461,361022,"0.0-4.149-2.149","5b0cda1auscty3x",962,"44.csv","","null","resources/images/coin2.png","null","",NA,NA,NA,NA,""
"image-keyboard-response",462,361363,"0.0-4.150-0.150","5b0cda1auscty3x",962,"44.csv","","339.7000000476837","resources/trios/L1T4A3.jpg","38","restless",0.7,0.3,0.6,0.746009446116793,"false"
"image-keyboard-response",463,361764,"0.0-4.150-1.150","5b0cda1auscty3x",962,"44.csv","","null","resources/maskTrios/BT4B.jpg","null","",NA,NA,NA,NA,""
"image-keyboard-response",464,362966,"0.0-4.150-2.150","5b0cda1auscty3x",962,"44.csv","","null","resources/images/fishbone.png","null","",NA,NA,NA,NA,""
"image-keyboard-response",465,363243,"0.0-4.151-0.151","5b0cda1auscty3x",962,"44.csv","","276.5","resources/trios/L1T4A3.jpg","39","restless",0.7,0.3,0.6,0.491126155422546,"true"
"image-keyboard-response",466,363645,"0.0-4.151-1.151","5b0cda1auscty3x",962,"44.csv","","null","resources/maskTrios/BBA3.jpg","null","",NA,NA,NA,NA,""
"image-keyboard-response",467,364846,"0.0-4.151-2.151","5b0cda1auscty3x",962,"44.csv","","null","resources/images/coin2.png","null","",NA,NA,NA,NA,""
"image-keyboard-response",468,365099,"0.0-4.152-0.152","5b0cda1auscty3x",962,"44.csv","","252.29999995231628","resources/trios/L1T4A3.jpg","39","restless",0.7,0.4,0.6,0.883457124465376,"false"
"image-keyboard-response",469,365500,"0.0-4.152-1.152","5b0cda1auscty3x",962,"44.csv","","null","resources/maskTrios/BBA3.jpg","null","",NA,NA,NA,NA,""
"image-keyboard-response",470,367021,"0.0-4.152-2.152","5b0cda1auscty3x",962,"44.csv","","null","resources/images/fishbone.png","null","",NA,NA,NA,NA,""
"image-keyboard-response",471,367275,"0.0-4.153-0.153","5b0cda1auscty3x",962,"44.csv","","252.80000007152557","resources/trios/L1T4A3.jpg","37","restless",0.7,0.4,0.6,0.591590060800238,"true"
"image-keyboard-response",472,367676,"0.0-4.153-1.153","5b0cda1auscty3x",962,"44.csv","","null","resources/maskTrios/L1BB.jpg","null","",NA,NA,NA,NA,""
"image-keyboard-response",473,368878,"0.0-4.153-2.153","5b0cda1auscty3x",962,"44.csv","","null","resources/images/coin2.png","null","",NA,NA,NA,NA,""
"image-keyboard-response",474,369140,"0.0-4.154-0.154","5b0cda1auscty3x",962,"44.csv","","261.2000000476837","resources/trios/L1T4A3.jpg","37","restless",0.6,0.4,0.6,0.686891581704938,"false"
"image-keyboard-response",475,369542,"0.0-4.154-1.154","5b0cda1auscty3x",962,"44.csv","","null","resources/maskTrios/L1BB.jpg","null","",NA,NA,NA,NA,""
"image-keyboard-response",476,370743,"0.0-4.154-2.154","5b0cda1auscty3x",962,"44.csv","","null","resources/images/fishbone.png","null","",NA,NA,NA,NA,""
"image-keyboard-response",477,370979,"0.0-4.155-0.155","5b0cda1auscty3x",962,"44.csv","","235.60000002384186","resources/trios/L1T4A3.jpg","38","restless",0.6,0.4,0.6,0.501293913888646,"false"
"image-keyboard-response",478,371381,"0.0-4.155-1.155","5b0cda1auscty3x",962,"44.csv","","null","resources/maskTrios/BT4B.jpg","null","",NA,NA,NA,NA,""
"image-keyboard-response",479,373022,"0.0-4.155-2.155","5b0cda1auscty3x",962,"44.csv","","null","resources/images/fishbone.png","null","",NA,NA,NA,NA,""
"image-keyboard-response",480,373923,"0.0-4.156-0.156","5b0cda1auscty3x",962,"44.csv","","900.7000000476837","resources/trios/L1T4A3.jpg","37","restless",0.6,0.4,0.6,0.713130477850487,"false"
"image-keyboard-response",481,374324,"0.0-4.156-1.156","5b0cda1auscty3x",962,"44.csv","","null","resources/maskTrios/L1BB.jpg","null","",NA,NA,NA,NA,""
"image-keyboard-response",482,375525,"0.0-4.156-2.156","5b0cda1auscty3x",962,"44.csv","","null","resources/images/fishbone.png","null","",NA,NA,NA,NA,""
"image-keyboard-response",483,375779,"0.0-4.157-0.157","5b0cda1auscty3x",962,"44.csv","","252.79999995231628","resources/trios/L1T4A3.jpg","37","restless",0.6,0.5,0.6,0.0707235909324235,"true"
"image-keyboard-response",484,376180,"0.0-4.157-1.157","5b0cda1auscty3x",962,"44.csv","","null","resources/maskTrios/L1BB.jpg","null","",NA,NA,NA,NA,""
"image-keyboard-response",485,377383,"0.0-4.157-2.157","5b0cda1auscty3x",962,"44.csv","","null","resources/images/coin2.png","null","",NA,NA,NA,NA,""
"image-keyboard-response",486,378139,"0.0-4.158-0.158","5b0cda1auscty3x",962,"44.csv","","755.5","resources/trios/L1T4A3.jpg","37","restless",0.6,0.5,0.6,0.392283895792036,"true"
"image-keyboard-response",487,378540,"0.0-4.158-1.158","5b0cda1auscty3x",962,"44.csv","","null","resources/maskTrios/L1BB.jpg","null","",NA,NA,NA,NA,""
"image-keyboard-response",488,380023,"0.0-4.158-2.158","5b0cda1auscty3x",962,"44.csv","","null","resources/images/coin2.png","null","",NA,NA,NA,NA,""
"image-keyboard-response",489,380292,"0.0-4.159-0.159","5b0cda1auscty3x",962,"44.csv","","268.89999997615814","resources/trios/L1T4A3.jpg","37","restless",0.6,0.5,0.6,0.43926970709055,"true"
"image-keyboard-response",490,380694,"0.0-4.159-1.159","5b0cda1auscty3x",962,"44.csv","","null","resources/maskTrios/L1BB.jpg","null","",NA,NA,NA,NA,""
"image-keyboard-response",491,381896,"0.0-4.159-2.159","5b0cda1auscty3x",962,"44.csv","","null","resources/images/coin2.png","null","",NA,NA,NA,NA,""
"image-keyboard-response",492,382203,"0.0-4.160-0.160","5b0cda1auscty3x",962,"44.csv","","306.2000000476837","resources/trios/L1T4A3.jpg","37","restless",0.6,0.5,0.6,0.565606988926225,"true"
"image-keyboard-response",493,382604,"0.0-4.160-1.160","5b0cda1auscty3x",962,"44.csv","","null","resources/maskTrios/L1BB.jpg","null","",NA,NA,NA,NA,""
"image-keyboard-response",494,383806,"0.0-4.160-2.160","5b0cda1auscty3x",962,"44.csv","","null","resources/images/coin2.png","null","",NA,NA,NA,NA,""
"image-keyboard-response",495,384066,"0.0-4.161-0.161","5b0cda1auscty3x",962,"44.csv","","259.8000000715256","resources/trios/L1T4A3.jpg","37","restless",0.6,0.5,0.6,0.840327459434511,"false"
"image-keyboard-response",496,384467,"0.0-4.161-1.161","5b0cda1auscty3x",962,"44.csv","","null","resources/maskTrios/L1BB.jpg","null","",NA,NA,NA,NA,""
"image-keyboard-response",497,386022,"0.0-4.161-2.161","5b0cda1auscty3x",962,"44.csv","","null","resources/images/fishbone.png","null","",NA,NA,NA,NA,""
"image-keyboard-response",498,386314,"0.0-4.162-0.162","5b0cda1auscty3x",962,"44.csv","","291.39999997615814","resources/trios/L1T4A3.jpg","39","restless",0.6,0.5,0.6,0.583665817169248,"true"
"image-keyboard-response",499,386715,"0.0-4.162-1.162","5b0cda1auscty3x",962,"44.csv","","null","resources/maskTrios/BBA3.jpg","null","",NA,NA,NA,NA,""
"image-keyboard-response",500,387917,"0.0-4.162-2.162","5b0cda1auscty3x",962,"44.csv","","null","resources/images/coin2.png","null","",NA,NA,NA,NA,""
"image-keyboard-response",501,388171,"0.0-4.163-0.163","5b0cda1auscty3x",962,"44.csv","","253.29999995231628","resources/trios/L1T4A3.jpg","39","restless",0.5,0.5,0.6,0.523927880025846,"true"
"image-keyboard-response",502,388571,"0.0-4.163-1.163","5b0cda1auscty3x",962,"44.csv","","null","resources/maskTrios/BBA3.jpg","null","",NA,NA,NA,NA,""
"image-keyboard-response",503,389773,"0.0-4.163-2.163","5b0cda1auscty3x",962,"44.csv","","null","resources/images/coin2.png","null","",NA,NA,NA,NA,""
"image-keyboard-response",504,390035,"0.0-4.164-0.164","5b0cda1auscty3x",962,"44.csv","","260.6999999284744","resources/trios/L1T4A3.jpg","39","restless",0.5,0.5,0.6,0.780500132375477,"false"
"image-keyboard-response",505,390436,"0.0-4.164-1.164","5b0cda1auscty3x",962,"44.csv","","null","resources/maskTrios/BBA3.jpg","null","",NA,NA,NA,NA,""
"image-keyboard-response",506,392022,"0.0-4.164-2.164","5b0cda1auscty3x",962,"44.csv","","null","resources/images/fishbone.png","null","",NA,NA,NA,NA,""
"image-keyboard-response",507,393404,"0.0-4.165-0.165","5b0cda1auscty3x",962,"44.csv","","1381.2999999523163","resources/trios/L1T4A3.jpg","38","restless",0.5,0.6,0.6,0.157987328768417,"true"
"image-keyboard-response",508,393805,"0.0-4.165-1.165","5b0cda1auscty3x",962,"44.csv","","null","resources/maskTrios/BT4B.jpg","null","",NA,NA,NA,NA,""
"image-keyboard-response",509,395007,"0.0-4.165-2.165","5b0cda1auscty3x",962,"44.csv","","null","resources/images/coin2.png","null","",NA,NA,NA,NA,""
"image-keyboard-response",510,395291,"0.0-4.166-0.166","5b0cda1auscty3x",962,"44.csv","","283.7000000476837","resources/trios/L1T4A3.jpg","38","restless",0.5,0.6,0.6,0.0890666428596993,"true"
"image-keyboard-response",511,395693,"0.0-4.166-1.166","5b0cda1auscty3x",962,"44.csv","","null","resources/maskTrios/BT4B.jpg","null","",NA,NA,NA,NA,""
"image-keyboard-response",512,396895,"0.0-4.166-2.166","5b0cda1auscty3x",962,"44.csv","","null","resources/images/coin2.png","null","",NA,NA,NA,NA,""
"image-keyboard-response",513,397147,"0.0-4.167-0.167","5b0cda1auscty3x",962,"44.csv","","251.39999997615814","resources/trios/L1T4A3.jpg","38","restless",0.5,0.6,0.6,0.127904576692494,"true"
"image-keyboard-response",514,397549,"0.0-4.167-1.167","5b0cda1auscty3x",962,"44.csv","","null","resources/maskTrios/BT4B.jpg","null","",NA,NA,NA,NA,""
"image-keyboard-response",515,399022,"0.0-4.167-2.167","5b0cda1auscty3x",962,"44.csv","","null","resources/images/coin2.png","null","",NA,NA,NA,NA,""
"image-keyboard-response",516,399307,"0.0-4.168-0.168","5b0cda1auscty3x",962,"44.csv","","284.3000000715256","resources/trios/L1T4A3.jpg","39","restless",0.5,0.6,0.6,0.719066128231397,"false"
"image-keyboard-response",517,399709,"0.0-4.168-1.168","5b0cda1auscty3x",962,"44.csv","","null","resources/maskTrios/BBA3.jpg","null","",NA,NA,NA,NA,""
"image-keyboard-response",518,400910,"0.0-4.168-2.168","5b0cda1auscty3x",962,"44.csv","","null","resources/images/fishbone.png","null","",NA,NA,NA,NA,""
"image-keyboard-response",519,401131,"0.0-4.169-0.169","5b0cda1auscty3x",962,"44.csv","","219.70000004768372","resources/trios/L1T4A3.jpg","37","restless",0.5,0.6,0.6,0.229225519577819,"true"
"image-keyboard-response",520,401533,"0.0-4.169-1.169","5b0cda1auscty3x",962,"44.csv","","null","resources/maskTrios/L1BB.jpg","null","",NA,NA,NA,NA,""
"image-keyboard-response",521,402734,"0.0-4.169-2.169","5b0cda1auscty3x",962,"44.csv","","null","resources/images/coin2.png","null","",NA,NA,NA,NA,""
"image-keyboard-response",522,402955,"0.0-4.170-0.170","5b0cda1auscty3x",962,"44.csv","","220.20000004768372","resources/trios/L1T4A3.jpg","37","restless",0.5,0.6,0.6,0.299940312569984,"true"
"image-keyboard-response",523,403357,"0.0-4.170-1.170","5b0cda1auscty3x",962,"44.csv","","null","resources/maskTrios/L1BB.jpg","null","",NA,NA,NA,NA,""
"image-keyboard-response",524,404716,"0.0-4.170-2.170","5b0cda1auscty3x",962,"44.csv","","null","resources/images/coin2.png","null","",NA,NA,NA,NA,""
"image-keyboard-response",525,405154,"0.0-4.171-0.171","5b0cda1auscty3x",962,"44.csv","","437.60000002384186","resources/trios/L1T4A3.jpg","37","restless",0.5,0.6,0.6,0.376574499761134,"true"
"image-keyboard-response",526,405556,"0.0-4.171-1.171","5b0cda1auscty3x",962,"44.csv","","null","resources/maskTrios/L1BB.jpg","null","",NA,NA,NA,NA,""
"image-keyboard-response",527,406758,"0.0-4.171-2.171","5b0cda1auscty3x",962,"44.csv","","null","resources/images/coin2.png","null","",NA,NA,NA,NA,""
"image-keyboard-response",528,407035,"0.0-4.172-0.172","5b0cda1auscty3x",962,"44.csv","","276.5","resources/trios/L1T4A3.jpg","37","restless",0.5,0.6,0.5,0.659250608173885,"false"
"image-keyboard-response",529,407437,"0.0-4.172-1.172","5b0cda1auscty3x",962,"44.csv","","null","resources/maskTrios/L1BB.jpg","null","",NA,NA,NA,NA,""
"image-keyboard-response",530,408638,"0.0-4.172-2.172","5b0cda1auscty3x",962,"44.csv","","null","resources/images/fishbone.png","null","",NA,NA,NA,NA,""
"image-keyboard-response",531,408963,"0.0-4.173-0.173","5b0cda1auscty3x",962,"44.csv","","323.8000000715256","resources/trios/L1T4A3.jpg","39","restless",0.4,0.6,0.5,0.909252371948386,"false"
"image-keyboard-response",532,409364,"0.0-4.173-1.173","5b0cda1auscty3x",962,"44.csv","","null","resources/maskTrios/BBA3.jpg","null","",NA,NA,NA,NA,""
"image-keyboard-response",533,410691,"0.0-4.173-2.173","5b0cda1auscty3x",962,"44.csv","","null","resources/images/fishbone.png","null","",NA,NA,NA,NA,""
"image-keyboard-response",534,411107,"0.0-4.174-0.174","5b0cda1auscty3x",962,"44.csv","","415.5","resources/trios/L1T4A3.jpg","38","restless",0.4,0.6,0.5,0.956669719724153,"false"
"image-keyboard-response",535,411508,"0.0-4.174-1.174","5b0cda1auscty3x",962,"44.csv","","null","resources/maskTrios/BT4B.jpg","null","",NA,NA,NA,NA,""
"image-keyboard-response",536,412709,"0.0-4.174-2.174","5b0cda1auscty3x",962,"44.csv","","null","resources/images/fishbone.png","null","",NA,NA,NA,NA,""
"image-keyboard-response",537,412987,"0.0-4.175-0.175","5b0cda1auscty3x",962,"44.csv","","277","resources/trios/L1T4A3.jpg","39","restless",0.4,0.6,0.5,0.299124768007892,"true"
"image-keyboard-response",538,413389,"0.0-4.175-1.175","5b0cda1auscty3x",962,"44.csv","","null","resources/maskTrios/BBA3.jpg","null","",NA,NA,NA,NA,""
"image-keyboard-response",539,414590,"0.0-4.175-2.175","5b0cda1auscty3x",962,"44.csv","","null","resources/images/coin2.png","null","",NA,NA,NA,NA,""
"image-keyboard-response",540,414836,"0.0-4.176-0.176","5b0cda1auscty3x",962,"44.csv","","244.89999997615814","resources/trios/L1T4A3.jpg","39","restless",0.4,0.7,0.5,0.722248387550532,"false"
"image-keyboard-response",541,415238,"0.0-4.176-1.176","5b0cda1auscty3x",962,"44.csv","","null","resources/maskTrios/BBA3.jpg","null","",NA,NA,NA,NA,""
"image-keyboard-response",542,417022,"0.0-4.176-2.176","5b0cda1auscty3x",962,"44.csv","","null","resources/images/fishbone.png","null","",NA,NA,NA,NA,""
"image-keyboard-response",543,417074,"0.0-4.177-0.177","5b0cda1auscty3x",962,"44.csv","","52.200000047683716","resources/trios/L1T4A3.jpg","37","restless",0.4,0.8,0.6,0.276158558630657,"true"
"image-keyboard-response",544,417477,"0.0-4.177-1.177","5b0cda1auscty3x",962,"44.csv","","null","resources/maskTrios/L1BB.jpg","null","",NA,NA,NA,NA,""
"image-keyboard-response",545,418677,"0.0-4.177-2.177","5b0cda1auscty3x",962,"44.csv","","null","resources/images/coin2.png","null","",NA,NA,NA,NA,""
"image-keyboard-response",546,418898,"0.0-4.178-0.178","5b0cda1auscty3x",962,"44.csv","","220.40000009536743","resources/trios/L1T4A3.jpg","37","restless",0.4,0.8,0.6,0.30534512280614,"true"
"image-keyboard-response",547,419300,"0.0-4.178-1.178","5b0cda1auscty3x",962,"44.csv","","null","resources/maskTrios/L1BB.jpg","null","",NA,NA,NA,NA,""
"image-keyboard-response",548,420501,"0.0-4.178-2.178","5b0cda1auscty3x",962,"44.csv","","null","resources/images/coin2.png","null","",NA,NA,NA,NA,""
"image-keyboard-response",549,420674,"0.0-4.179-0.179","5b0cda1auscty3x",962,"44.csv","","172.89999997615814","resources/trios/L1T4A3.jpg","37","restless",0.4,0.8,0.6,0.519767560675412,"false"
"image-keyboard-response",550,421076,"0.0-4.179-1.179","5b0cda1auscty3x",962,"44.csv","","null","resources/maskTrios/L1BB.jpg","null","",NA,NA,NA,NA,""
"image-keyboard-response",551,423022,"0.0-4.179-2.179","5b0cda1auscty3x",962,"44.csv","","null","resources/images/fishbone.png","null","",NA,NA,NA,NA,""
"image-keyboard-response",552,423267,"0.0-4.180-0.180","5b0cda1auscty3x",962,"44.csv","","244","resources/trios/L1T4A3.jpg","39","restless",0.4,0.8,0.6,0.118578249128203,"true"
"image-keyboard-response",553,423668,"0.0-4.180-1.180","5b0cda1auscty3x",962,"44.csv","","null","resources/maskTrios/BBA3.jpg","null","",NA,NA,NA,NA,""
"image-keyboard-response",554,424870,"0.0-4.180-2.180","5b0cda1auscty3x",962,"44.csv","","null","resources/images/coin2.png","null","",NA,NA,NA,NA,""
"image-keyboard-response",555,425140,"0.0-4.181-0.181","5b0cda1auscty3x",962,"44.csv","","269.89999997615814","resources/trios/L1T4A3.jpg","39","restless",0.3,0.8,0.6,0.371048217312829,"true"
"image-keyboard-response",556,425543,"0.0-4.181-1.181","5b0cda1auscty3x",962,"44.csv","","null","resources/maskTrios/BBA3.jpg","null","",NA,NA,NA,NA,""
"image-keyboard-response",557,426745,"0.0-4.181-2.181","5b0cda1auscty3x",962,"44.csv","","null","resources/images/coin2.png","null","",NA,NA,NA,NA,""
"image-keyboard-response",558,427011,"0.0-4.182-0.182","5b0cda1auscty3x",962,"44.csv","","265.60000002384186","resources/trios/L1T4A3.jpg","39","restless",0.3,0.8,0.5,0.673869006490759,"false"
"image-keyboard-response",559,427413,"0.0-4.182-1.182","5b0cda1auscty3x",962,"44.csv","","null","resources/maskTrios/BBA3.jpg","null","",NA,NA,NA,NA,""
"image-keyboard-response",560,429011,"0.0-4.182-2.182","5b0cda1auscty3x",962,"44.csv","","null","resources/images/fishbone.png","null","",NA,NA,NA,NA,""
"image-keyboard-response",561,429363,"0.0-4.183-0.183","5b0cda1auscty3x",962,"44.csv","","351.09999990463257","resources/trios/L1T4A3.jpg","37","restless",0.4,0.7,0.5,0.728054783740993,"false"
"image-keyboard-response",562,429765,"0.0-4.183-1.183","5b0cda1auscty3x",962,"44.csv","","null","resources/maskTrios/L1BB.jpg","null","",NA,NA,NA,NA,""
"image-keyboard-response",563,430965,"0.0-4.183-2.183","5b0cda1auscty3x",962,"44.csv","","null","resources/images/fishbone.png","null","",NA,NA,NA,NA,""
"image-keyboard-response",564,431251,"0.0-4.184-0.184","5b0cda1auscty3x",962,"44.csv","","284.7999999523163","resources/trios/L1T4A3.jpg","38","restless",0.5,0.7,0.5,0.0667890872365497,"true"
"image-keyboard-response",565,431653,"0.0-4.184-1.184","5b0cda1auscty3x",962,"44.csv","","null","resources/maskTrios/BT4B.jpg","null","",NA,NA,NA,NA,""
"image-keyboard-response",566,432855,"0.0-4.184-2.184","5b0cda1auscty3x",962,"44.csv","","null","resources/images/coin2.png","null","",NA,NA,NA,NA,""
"image-keyboard-response",567,433107,"0.0-4.185-0.185","5b0cda1auscty3x",962,"44.csv","","251.60000002384186","resources/trios/L1T4A3.jpg","38","restless",0.5,0.7,0.5,0.226058433450925,"true"
"image-keyboard-response",568,433509,"0.0-4.185-1.185","5b0cda1auscty3x",962,"44.csv","","null","resources/maskTrios/BT4B.jpg","null","",NA,NA,NA,NA,""
"image-keyboard-response",569,435023,"0.0-4.185-2.185","5b0cda1auscty3x",962,"44.csv","","null","resources/images/coin2.png","null","",NA,NA,NA,NA,""
"image-keyboard-response",570,435308,"0.0-4.186-0.186","5b0cda1auscty3x",962,"44.csv","","284.6999999284744","resources/trios/L1T4A3.jpg","39","restless",0.5,0.7,0.5,0.36367269620715,"true"
"image-keyboard-response",571,435710,"0.0-4.186-1.186","5b0cda1auscty3x",962,"44.csv","","null","resources/maskTrios/BBA3.jpg","null","",NA,NA,NA,NA,""
"image-keyboard-response",572,436911,"0.0-4.186-2.186","5b0cda1auscty3x",962,"44.csv","","null","resources/images/coin2.png","null","",NA,NA,NA,NA,""
"image-keyboard-response",573,437219,"0.0-4.187-0.187","5b0cda1auscty3x",962,"44.csv","","306.89999997615814","resources/trios/L1T4A3.jpg","39","restless",0.5,0.7,0.5,0.238608227031015,"true"
"image-keyboard-response",574,437620,"0.0-4.187-1.187","5b0cda1auscty3x",962,"44.csv","","null","resources/maskTrios/BBA3.jpg","null","",NA,NA,NA,NA,""
"image-keyboard-response",575,438821,"0.0-4.187-2.187","5b0cda1auscty3x",962,"44.csv","","null","resources/images/coin2.png","null","",NA,NA,NA,NA,""
"image-keyboard-response",576,439083,"0.0-4.188-0.188","5b0cda1auscty3x",962,"44.csv","","261.1999999284744","resources/trios/L1T4A3.jpg","39","restless",0.5,0.8,0.5,0.571507665440746,"false"
"image-keyboard-response",577,439485,"0.0-4.188-1.188","5b0cda1auscty3x",962,"44.csv","","null","resources/maskTrios/BBA3.jpg","null","",NA,NA,NA,NA,""
"image-keyboard-response",578,441022,"0.0-4.188-2.188","5b0cda1auscty3x",962,"44.csv","","null","resources/images/fishbone.png","null","",NA,NA,NA,NA,""
"image-keyboard-response",579,441315,"0.0-4.189-0.189","5b0cda1auscty3x",962,"44.csv","","292.60000002384186","resources/trios/L1T4A3.jpg","37","restless",0.5,0.8,0.5,0.794399890915178,"false"
"image-keyboard-response",580,441716,"0.0-4.189-1.189","5b0cda1auscty3x",962,"44.csv","","null","resources/maskTrios/L1BB.jpg","null","",NA,NA,NA,NA,""
"image-keyboard-response",581,442917,"0.0-4.189-2.189","5b0cda1auscty3x",962,"44.csv","","null","resources/images/fishbone.png","null","",NA,NA,NA,NA,""
"image-keyboard-response",582,443259,"0.0-4.190-0.190","5b0cda1auscty3x",962,"44.csv","","341.2999999523163","resources/trios/L1T4A3.jpg","38","restless",0.5,0.8,0.5,0.708807579816557,"true"
"image-keyboard-response",583,443660,"0.0-4.190-1.190","5b0cda1auscty3x",962,"44.csv","","null","resources/maskTrios/BT4B.jpg","null","",NA,NA,NA,NA,""
"image-keyboard-response",584,444863,"0.0-4.190-2.190","5b0cda1auscty3x",962,"44.csv","","null","resources/images/coin2.png","null","",NA,NA,NA,NA,""
"image-keyboard-response",585,445115,"0.0-4.191-0.191","5b0cda1auscty3x",962,"44.csv","","251.60000002384186","resources/trios/L1T4A3.jpg","38","restless",0.5,0.8,0.5,0.63015230248821,"true"
"image-keyboard-response",586,445516,"0.0-4.191-1.191","5b0cda1auscty3x",962,"44.csv","","null","resources/maskTrios/BT4B.jpg","null","",NA,NA,NA,NA,""
"image-keyboard-response",587,447022,"0.0-4.191-2.191","5b0cda1auscty3x",962,"44.csv","","null","resources/images/coin2.png","null","",NA,NA,NA,NA,""
"image-keyboard-response",588,447276,"0.0-4.192-0.192","5b0cda1auscty3x",962,"44.csv","","253.89999997615814","resources/trios/L1T4A3.jpg","39","restless",0.5,0.8,0.5,0.328462901030597,"true"
"image-keyboard-response",589,447678,"0.0-4.192-1.192","5b0cda1auscty3x",962,"44.csv","","null","resources/maskTrios/BBA3.jpg","null","",NA,NA,NA,NA,""
"image-keyboard-response",590,448879,"0.0-4.192-2.192","5b0cda1auscty3x",962,"44.csv","","null","resources/images/coin2.png","null","",NA,NA,NA,NA,""
"image-keyboard-response",591,449123,"0.0-4.193-0.193","5b0cda1auscty3x",962,"44.csv","","243.39999997615814","resources/trios/L1T4A3.jpg","39","restless",0.5,0.8,0.5,0.904206588251361,"false"
"image-keyboard-response",592,449525,"0.0-4.193-1.193","5b0cda1auscty3x",962,"44.csv","","null","resources/maskTrios/BBA3.jpg","null","",NA,NA,NA,NA,""
"image-keyboard-response",593,450726,"0.0-4.193-2.193","5b0cda1auscty3x",962,"44.csv","","null","resources/images/fishbone.png","null","",NA,NA,NA,NA,""
"image-keyboard-response",594,451011,"0.0-4.194-0.194","5b0cda1auscty3x",962,"44.csv","","284.3000000715256","resources/trios/L1T4A3.jpg","37","restless",0.5,0.8,0.5,0.266211500563371,"true"
"image-keyboard-response",595,451413,"0.0-4.194-1.194","5b0cda1auscty3x",962,"44.csv","","null","resources/maskTrios/L1BB.jpg","null","",NA,NA,NA,NA,""
"image-keyboard-response",596,453022,"0.0-4.194-2.194","5b0cda1auscty3x",962,"44.csv","","null","resources/images/coin2.png","null","",NA,NA,NA,NA,""
"image-keyboard-response",597,453307,"0.0-4.195-0.195","5b0cda1auscty3x",962,"44.csv","","284.2000000476837","resources/trios/L1T4A3.jpg","37","restless",0.5,0.8,0.5,0.932457522447331,"false"
"image-keyboard-response",598,453708,"0.0-4.195-1.195","5b0cda1auscty3x",962,"44.csv","","null","resources/maskTrios/L1BB.jpg","null","",NA,NA,NA,NA,""
"image-keyboard-response",599,454910,"0.0-4.195-2.195","5b0cda1auscty3x",962,"44.csv","","null","resources/images/fishbone.png","null","",NA,NA,NA,NA,""
"image-keyboard-response",600,455227,"0.0-4.196-0.196","5b0cda1auscty3x",962,"44.csv","","316.6999999284744","resources/trios/L1T4A3.jpg","38","restless",0.5,0.8,0.5,0.705273060293452,"true"
"image-keyboard-response",601,455628,"0.0-4.196-1.196","5b0cda1auscty3x",962,"44.csv","","null","resources/maskTrios/BT4B.jpg","null","",NA,NA,NA,NA,""
"image-keyboard-response",602,456830,"0.0-4.196-2.196","5b0cda1auscty3x",962,"44.csv","","null","resources/images/coin2.png","null","",NA,NA,NA,NA,""
"image-keyboard-response",603,457106,"0.0-4.197-0.197","5b0cda1auscty3x",962,"44.csv","","276","resources/trios/L1T4A3.jpg","38","restless",0.5,0.8,0.5,0.20999299032903,"true"
"image-keyboard-response",604,457508,"0.0-4.197-1.197","5b0cda1auscty3x",962,"44.csv","","null","resources/maskTrios/BT4B.jpg","null","",NA,NA,NA,NA,""
"image-keyboard-response",605,459023,"0.0-4.197-2.197","5b0cda1auscty3x",962,"44.csv","","null","resources/images/coin2.png","null","",NA,NA,NA,NA,""
"image-keyboard-response",606,459340,"0.0-4.198-0.198","5b0cda1auscty3x",962,"44.csv","","317.2999999523163","resources/trios/L1T4A3.jpg","38","restless",0.5,0.8,0.5,0.26982571365648,"true"
"image-keyboard-response",607,459743,"0.0-4.198-1.198","5b0cda1auscty3x",962,"44.csv","","null","resources/maskTrios/BT4B.jpg","null","",NA,NA,NA,NA,""
"image-keyboard-response",608,460945,"0.0-4.198-2.198","5b0cda1auscty3x",962,"44.csv","","null","resources/images/coin2.png","null","",NA,NA,NA,NA,""
"image-keyboard-response",609,461291,"0.0-4.199-0.199","5b0cda1auscty3x",962,"44.csv","","345.90000009536743","resources/trios/L1T4A3.jpg","39","restless",0.5,0.8,0.5,0.4899466497816,"true"
"image-keyboard-response",610,461693,"0.0-4.199-1.199","5b0cda1auscty3x",962,"44.csv","","null","resources/maskTrios/BBA3.jpg","null","",NA,NA,NA,NA,""
"image-keyboard-response",611,462894,"0.0-4.199-2.199","5b0cda1auscty3x",962,"44.csv","","null","resources/images/coin2.png","null","",NA,NA,NA,NA,""
"survey-text",612,487463,"0.0-5.0","5b0cda1auscty3x",962,"44.csv","","24566.399999976158","","","",NA,NA,NA,NA,""
