"trial_type","trial_index","time_elapsed","internal_node_id","subject","participantCode","walkNumber","success","rt","stimulus","key_press","test_part","leftProb","midProb","rightProb","generatedNum","correct"
"pavlovia",0,1279,"0.0-0.0","d5gog6xj47sazgh",768,"194.csv","","","","","",NA,NA,NA,NA,""
"fullscreen",1,4412,"0.0-1.0","d5gog6xj47sazgh",768,"194.csv","true","","","","",NA,NA,NA,NA,""
"survey-html-form",2,16203,"0.0-2.0","d5gog6xj47sazgh",768,"194.csv","","11761.100000000093","","","",NA,NA,NA,NA,""
"image-keyboard-response",3,34502,"0.0-3.0-0.0","d5gog6xj47sazgh",768,"194.csv","","18293","resources/images/parrot_nobg.png","13","",NA,NA,NA,NA,""
"image-keyboard-response",4,37506,"0.0-3.0-1.0","d5gog6xj47sazgh",768,"194.csv","","null","resources/image_sets/111.png","null","",NA,NA,NA,NA,""
"image-keyboard-response",5,42212,"0.0-3.0-2.0","d5gog6xj47sazgh",768,"194.csv","","4703.5","resources/image_sets/left_highlight.png","37","",NA,NA,NA,NA,""
"image-keyboard-response",6,44171,"0.0-3.0-3.0","d5gog6xj47sazgh",768,"194.csv","","1957.1000000000931","resources/image_sets/mid_highlight.png","38","",NA,NA,NA,NA,""
"image-keyboard-response",7,46222,"0.0-3.0-4.0","d5gog6xj47sazgh",768,"194.csv","","2048.7999999998137","resources/image_sets/right_highlight.png","39","",NA,NA,NA,NA,""
"image-keyboard-response",8,47362,"0.0-3.0-5.0","d5gog6xj47sazgh",768,"194.csv","","1137.5","resources/image_sets/111.png","13","",NA,NA,NA,NA,""
"image-keyboard-response",9,49359,"0.0-3.0-6.0","d5gog6xj47sazgh",768,"194.csv","","1995.3000000002794","resources/images/coin2.png","13","",NA,NA,NA,NA,""
"image-keyboard-response",10,51577,"0.0-3.0-7.0","d5gog6xj47sazgh",768,"194.csv","","2216.5","resources/images/fishbone.png","13","",NA,NA,NA,NA,""
"html-keyboard-response",11,54298,"0.0-3.0-8.0","d5gog6xj47sazgh",768,"194.csv","","2719.4000000003725","<p>You can track your coin total on the top right of your screen. </p><p>At the end of your journey you will be directed to a survey, so please click on the link before exiting the task</p><p>Press Enter to begin</p>","13","",NA,NA,NA,NA,""
"image-keyboard-response",12,56093,"0.0-4.0-0.0","d5gog6xj47sazgh",768,"194.csv","","1791","resources/trios/L4T4A2.jpg","37","restless",0.3,0.9,0.7,0.282128496579596,"true"
"image-keyboard-response",13,56497,"0.0-4.0-1.0","d5gog6xj47sazgh",768,"194.csv","","null","resources/maskTrios/L4BB.jpg","null","",NA,NA,NA,NA,""
"image-keyboard-response",14,57701,"0.0-4.0-2.0","d5gog6xj47sazgh",768,"194.csv","","null","resources/images/coin2.png","null","",NA,NA,NA,NA,""
"image-keyboard-response",15,58805,"0.0-4.1-0.1","d5gog6xj47sazgh",768,"194.csv","","1100.2999999998137","resources/trios/L4T4A2.jpg","38","restless",0.4,0.9,0.7,0.47330448283358,"true"
"image-keyboard-response",16,59207,"0.0-4.1-1.1","d5gog6xj47sazgh",768,"194.csv","","null","resources/maskTrios/BT4B.jpg","null","",NA,NA,NA,NA,""
"image-keyboard-response",17,60409,"0.0-4.1-2.1","d5gog6xj47sazgh",768,"194.csv","","null","resources/images/coin2.png","null","",NA,NA,NA,NA,""
"image-keyboard-response",18,60693,"0.0-4.2-0.2","d5gog6xj47sazgh",768,"194.csv","","280.89999999990687","resources/trios/L4T4A2.jpg","39","restless",0.3,0.9,0.7,0.884858366355834,"false"
"image-keyboard-response",19,61096,"0.0-4.2-1.2","d5gog6xj47sazgh",768,"194.csv","","null","resources/maskTrios/BBA2.jpg","null","",NA,NA,NA,NA,""
"image-keyboard-response",20,62297,"0.0-4.2-2.2","d5gog6xj47sazgh",768,"194.csv","","null","resources/images/fishbone.png","null","",NA,NA,NA,NA,""
"image-keyboard-response",21,62612,"0.0-4.3-0.3","d5gog6xj47sazgh",768,"194.csv","","312.1999999997206","resources/trios/L4T4A2.jpg","37","restless",0.3,0.9,0.7,0.0761831920912601,"true"
"image-keyboard-response",22,63015,"0.0-4.3-1.3","d5gog6xj47sazgh",768,"194.csv","","null","resources/maskTrios/L4BB.jpg","null","",NA,NA,NA,NA,""
"image-keyboard-response",23,64217,"0.0-4.3-2.3","d5gog6xj47sazgh",768,"194.csv","","null","resources/images/coin2.png","null","",NA,NA,NA,NA,""
"image-keyboard-response",24,64545,"0.0-4.4-0.4","d5gog6xj47sazgh",768,"194.csv","","325.5","resources/trios/L4T4A2.jpg","38","restless",0.3,0.9,0.7,0.40723233964434,"true"
"image-keyboard-response",25,64947,"0.0-4.4-1.4","d5gog6xj47sazgh",768,"194.csv","","null","resources/maskTrios/BT4B.jpg","null","",NA,NA,NA,NA,""
"image-keyboard-response",26,66150,"0.0-4.4-2.4","d5gog6xj47sazgh",768,"194.csv","","null","resources/images/coin2.png","null","",NA,NA,NA,NA,""
"image-keyboard-response",27,66367,"0.0-4.5-0.5","d5gog6xj47sazgh",768,"194.csv","","214.29999999981374","resources/trios/L4T4A2.jpg","37","restless",0.3,0.9,0.7,0.0139899182758771,"true"
"image-keyboard-response",28,66769,"0.0-4.5-1.5","d5gog6xj47sazgh",768,"194.csv","","null","resources/maskTrios/L4BB.jpg","null","",NA,NA,NA,NA,""
"image-keyboard-response",29,67976,"0.0-4.5-2.5","d5gog6xj47sazgh",768,"194.csv","","null","resources/images/coin2.png","null","",NA,NA,NA,NA,""
"image-keyboard-response",30,68287,"0.0-4.6-0.6","d5gog6xj47sazgh",768,"194.csv","","309","resources/trios/L4T4A2.jpg","38","restless",0.3,0.9,0.7,0.087001169836421,"true"
"image-keyboard-response",31,68690,"0.0-4.6-1.6","d5gog6xj47sazgh",768,"194.csv","","null","resources/maskTrios/BT4B.jpg","null","",NA,NA,NA,NA,""
"image-keyboard-response",32,69893,"0.0-4.6-2.6","d5gog6xj47sazgh",768,"194.csv","","null","resources/images/coin2.png","null","",NA,NA,NA,NA,""
"image-keyboard-response",33,70176,"0.0-4.7-0.7","d5gog6xj47sazgh",768,"194.csv","","280.90000000037253","resources/trios/L4T4A2.jpg","39","restless",0.4,0.9,0.7,0.23243184771226,"true"
"image-keyboard-response",34,70579,"0.0-4.7-1.7","d5gog6xj47sazgh",768,"194.csv","","null","resources/maskTrios/BBA2.jpg","null","",NA,NA,NA,NA,""
"image-keyboard-response",35,71781,"0.0-4.7-2.7","d5gog6xj47sazgh",768,"194.csv","","null","resources/images/coin2.png","null","",NA,NA,NA,NA,""
"image-keyboard-response",36,72012,"0.0-4.8-0.8","d5gog6xj47sazgh",768,"194.csv","","227.89999999990687","resources/trios/L4T4A2.jpg","38","restless",0.4,0.8,0.7,0.0552156782040387,"true"
"image-keyboard-response",37,72414,"0.0-4.8-1.8","d5gog6xj47sazgh",768,"194.csv","","null","resources/maskTrios/BT4B.jpg","null","",NA,NA,NA,NA,""
"image-keyboard-response",38,73617,"0.0-4.8-2.8","d5gog6xj47sazgh",768,"194.csv","","null","resources/images/coin2.png","null","",NA,NA,NA,NA,""
"image-keyboard-response",39,73862,"0.0-4.9-0.9","d5gog6xj47sazgh",768,"194.csv","","242.6999999997206","resources/trios/L4T4A2.jpg","39","restless",0.4,0.8,0.7,0.0953269937245143,"true"
"image-keyboard-response",40,74265,"0.0-4.9-1.9","d5gog6xj47sazgh",768,"194.csv","","null","resources/maskTrios/BBA2.jpg","null","",NA,NA,NA,NA,""
"image-keyboard-response",41,75467,"0.0-4.9-2.9","d5gog6xj47sazgh",768,"194.csv","","null","resources/images/coin2.png","null","",NA,NA,NA,NA,""
"image-keyboard-response",42,75721,"0.0-4.10-0.10","d5gog6xj47sazgh",768,"194.csv","","251.60000000009313","resources/trios/L4T4A2.jpg","37","restless",0.4,0.8,0.7,0.0670669094870897,"true"
"image-keyboard-response",43,76124,"0.0-4.10-1.10","d5gog6xj47sazgh",768,"194.csv","","null","resources/maskTrios/L4BB.jpg","null","",NA,NA,NA,NA,""
"image-keyboard-response",44,77326,"0.0-4.10-2.10","d5gog6xj47sazgh",768,"194.csv","","null","resources/images/coin2.png","null","",NA,NA,NA,NA,""
"image-keyboard-response",45,77779,"0.0-4.11-0.11","d5gog6xj47sazgh",768,"194.csv","","450.39999999990687","resources/trios/L4T4A2.jpg","38","restless",0.4,0.8,0.7,0.750998058037718,"true"
"image-keyboard-response",46,78182,"0.0-4.11-1.11","d5gog6xj47sazgh",768,"194.csv","","null","resources/maskTrios/BT4B.jpg","null","",NA,NA,NA,NA,""
"image-keyboard-response",47,79384,"0.0-4.11-2.11","d5gog6xj47sazgh",768,"194.csv","","null","resources/images/coin2.png","null","",NA,NA,NA,NA,""
"image-keyboard-response",48,79446,"0.0-4.12-0.12","d5gog6xj47sazgh",768,"194.csv","","58.700000000186265","resources/trios/L4T4A2.jpg","39","restless",0.4,0.8,0.7,0.83765759895217,"false"
"image-keyboard-response",49,79849,"0.0-4.12-1.12","d5gog6xj47sazgh",768,"194.csv","","null","resources/maskTrios/BBA2.jpg","null","",NA,NA,NA,NA,""
"image-keyboard-response",50,81051,"0.0-4.12-2.12","d5gog6xj47sazgh",768,"194.csv","","null","resources/images/fishbone.png","null","",NA,NA,NA,NA,""
"image-keyboard-response",51,81141,"0.0-4.13-0.13","d5gog6xj47sazgh",768,"194.csv","","87.6999999997206","resources/trios/L4T4A2.jpg","38","restless",0.4,0.8,0.7,0.0032448957570792,"true"
"image-keyboard-response",52,81544,"0.0-4.13-1.13","d5gog6xj47sazgh",768,"194.csv","","null","resources/maskTrios/BT4B.jpg","null","",NA,NA,NA,NA,""
"image-keyboard-response",53,82746,"0.0-4.13-2.13","d5gog6xj47sazgh",768,"194.csv","","null","resources/images/coin2.png","null","",NA,NA,NA,NA,""
"image-keyboard-response",54,82837,"0.0-4.14-0.14","d5gog6xj47sazgh",768,"194.csv","","88.1999999997206","resources/trios/L4T4A2.jpg","37","restless",0.4,0.8,0.7,0.564271295194921,"false"
"image-keyboard-response",55,83240,"0.0-4.14-1.14","d5gog6xj47sazgh",768,"194.csv","","null","resources/maskTrios/L4BB.jpg","null","",NA,NA,NA,NA,""
"image-keyboard-response",56,84442,"0.0-4.14-2.14","d5gog6xj47sazgh",768,"194.csv","","null","resources/images/fishbone.png","null","",NA,NA,NA,NA,""
"image-keyboard-response",57,84451,"0.0-4.15-0.15","d5gog6xj47sazgh",768,"194.csv","","7.2000000001862645","resources/trios/L4T4A2.jpg","38","restless",0.4,0.8,0.7,0.0884446052562404,"true"
"image-keyboard-response",58,84854,"0.0-4.15-1.15","d5gog6xj47sazgh",768,"194.csv","","null","resources/maskTrios/BT4B.jpg","null","",NA,NA,NA,NA,""
"image-keyboard-response",59,86056,"0.0-4.15-2.15","d5gog6xj47sazgh",768,"194.csv","","null","resources/images/coin2.png","null","",NA,NA,NA,NA,""
"image-keyboard-response",60,86073,"0.0-4.16-0.16","d5gog6xj47sazgh",768,"194.csv","","14","resources/trios/L4T4A2.jpg","38","restless",0.4,0.8,0.7,0.959853664573932,"false"
"image-keyboard-response",61,86475,"0.0-4.16-1.16","d5gog6xj47sazgh",768,"194.csv","","null","resources/maskTrios/BT4B.jpg","null","",NA,NA,NA,NA,""
"image-keyboard-response",62,87677,"0.0-4.16-2.16","d5gog6xj47sazgh",768,"194.csv","","null","resources/images/fishbone.png","null","",NA,NA,NA,NA,""
"image-keyboard-response",63,87684,"0.0-4.17-0.17","d5gog6xj47sazgh",768,"194.csv","","4.600000000093132","resources/trios/L4T4A2.jpg","39","restless",0.3,0.8,0.7,0.417060488107746,"true"
"image-keyboard-response",64,88086,"0.0-4.17-1.17","d5gog6xj47sazgh",768,"194.csv","","null","resources/maskTrios/BBA2.jpg","null","",NA,NA,NA,NA,""
"image-keyboard-response",65,89289,"0.0-4.17-2.17","d5gog6xj47sazgh",768,"194.csv","","null","resources/images/coin2.png","null","",NA,NA,NA,NA,""
"image-keyboard-response",66,89566,"0.0-4.18-0.18","d5gog6xj47sazgh",768,"194.csv","","274.70000000018626","resources/trios/L4T4A2.jpg","37","restless",0.3,0.8,0.7,0.860171672007628,"false"
"image-keyboard-response",67,89969,"0.0-4.18-1.18","d5gog6xj47sazgh",768,"194.csv","","null","resources/maskTrios/L4BB.jpg","null","",NA,NA,NA,NA,""
"image-keyboard-response",68,91171,"0.0-4.18-2.18","d5gog6xj47sazgh",768,"194.csv","","null","resources/images/fishbone.png","null","",NA,NA,NA,NA,""
"image-keyboard-response",69,91535,"0.0-4.19-0.19","d5gog6xj47sazgh",768,"194.csv","","361.89999999990687","resources/trios/L4T4A2.jpg","38","restless",0.3,0.8,0.7,0.945031874101761,"false"
"image-keyboard-response",70,91939,"0.0-4.19-1.19","d5gog6xj47sazgh",768,"194.csv","","null","resources/maskTrios/BT4B.jpg","null","",NA,NA,NA,NA,""
"image-keyboard-response",71,93141,"0.0-4.19-2.19","d5gog6xj47sazgh",768,"194.csv","","null","resources/images/fishbone.png","null","",NA,NA,NA,NA,""
"image-keyboard-response",72,93386,"0.0-4.20-0.20","d5gog6xj47sazgh",768,"194.csv","","241.89999999990687","resources/trios/L4T4A2.jpg","39","restless",0.3,0.7,0.7,0.441370448362525,"true"
"image-keyboard-response",73,93789,"0.0-4.20-1.20","d5gog6xj47sazgh",768,"194.csv","","null","resources/maskTrios/BBA2.jpg","null","",NA,NA,NA,NA,""
"image-keyboard-response",74,94991,"0.0-4.20-2.20","d5gog6xj47sazgh",768,"194.csv","","null","resources/images/coin2.png","null","",NA,NA,NA,NA,""
"image-keyboard-response",75,95302,"0.0-4.21-0.21","d5gog6xj47sazgh",768,"194.csv","","308.1999999997206","resources/trios/L4T4A2.jpg","38","restless",0.3,0.7,0.7,0.51288337996775,"true"
"image-keyboard-response",76,95705,"0.0-4.21-1.21","d5gog6xj47sazgh",768,"194.csv","","null","resources/maskTrios/BT4B.jpg","null","",NA,NA,NA,NA,""
"image-keyboard-response",77,96907,"0.0-4.21-2.21","d5gog6xj47sazgh",768,"194.csv","","null","resources/images/coin2.png","null","",NA,NA,NA,NA,""
"image-keyboard-response",78,97052,"0.0-4.22-0.22","d5gog6xj47sazgh",768,"194.csv","","142.70000000018626","resources/trios/L4T4A2.jpg","39","restless",0.3,0.7,0.7,0.470244168551079,"true"
"image-keyboard-response",79,97455,"0.0-4.22-1.22","d5gog6xj47sazgh",768,"194.csv","","null","resources/maskTrios/BBA2.jpg","null","",NA,NA,NA,NA,""
"image-keyboard-response",80,98659,"0.0-4.22-2.22","d5gog6xj47sazgh",768,"194.csv","","null","resources/images/coin2.png","null","",NA,NA,NA,NA,""
"image-keyboard-response",81,98825,"0.0-4.23-0.23","d5gog6xj47sazgh",768,"194.csv","","163.39999999990687","resources/trios/L4T4A2.jpg","38","restless",0.3,0.7,0.7,0.96469460621159,"false"
"image-keyboard-response",82,99228,"0.0-4.23-1.23","d5gog6xj47sazgh",768,"194.csv","","null","resources/maskTrios/BT4B.jpg","null","",NA,NA,NA,NA,""
"image-keyboard-response",83,100430,"0.0-4.23-2.23","d5gog6xj47sazgh",768,"194.csv","","null","resources/images/fishbone.png","null","",NA,NA,NA,NA,""
"image-keyboard-response",84,100578,"0.0-4.24-0.24","d5gog6xj47sazgh",768,"194.csv","","146.39999999990687","resources/trios/L4T4A2.jpg","37","restless",0.3,0.7,0.7,0.549655350842149,"false"
"image-keyboard-response",85,100981,"0.0-4.24-1.24","d5gog6xj47sazgh",768,"194.csv","","null","resources/maskTrios/L4BB.jpg","null","",NA,NA,NA,NA,""
"image-keyboard-response",86,102183,"0.0-4.24-2.24","d5gog6xj47sazgh",768,"194.csv","","null","resources/images/fishbone.png","null","",NA,NA,NA,NA,""
"image-keyboard-response",87,102252,"0.0-4.25-0.25","d5gog6xj47sazgh",768,"194.csv","","66","resources/trios/L4T4A2.jpg","38","restless",0.4,0.7,0.7,0.475634585599491,"true"
"image-keyboard-response",88,102655,"0.0-4.25-1.25","d5gog6xj47sazgh",768,"194.csv","","null","resources/maskTrios/BT4B.jpg","null","",NA,NA,NA,NA,""
"image-keyboard-response",89,103857,"0.0-4.25-2.25","d5gog6xj47sazgh",768,"194.csv","","null","resources/images/coin2.png","null","",NA,NA,NA,NA,""
"image-keyboard-response",90,104048,"0.0-4.26-0.26","d5gog6xj47sazgh",768,"194.csv","","188.10000000009313","resources/trios/L4T4A2.jpg","39","restless",0.4,0.7,0.7,0.496025590565653,"true"
"image-keyboard-response",91,104451,"0.0-4.26-1.26","d5gog6xj47sazgh",768,"194.csv","","null","resources/maskTrios/BBA2.jpg","null","",NA,NA,NA,NA,""
"image-keyboard-response",92,105653,"0.0-4.26-2.26","d5gog6xj47sazgh",768,"194.csv","","null","resources/images/coin2.png","null","",NA,NA,NA,NA,""
"image-keyboard-response",93,105848,"0.0-4.27-0.27","d5gog6xj47sazgh",768,"194.csv","","192.8000000002794","resources/trios/L4T4A2.jpg","38","restless",0.4,0.7,0.7,0.568125570397937,"true"
"image-keyboard-response",94,106251,"0.0-4.27-1.27","d5gog6xj47sazgh",768,"194.csv","","null","resources/maskTrios/BT4B.jpg","null","",NA,NA,NA,NA,""
"image-keyboard-response",95,107454,"0.0-4.27-2.27","d5gog6xj47sazgh",768,"194.csv","","null","resources/images/coin2.png","null","",NA,NA,NA,NA,""
"image-keyboard-response",96,107699,"0.0-4.28-0.28","d5gog6xj47sazgh",768,"194.csv","","243.5","resources/trios/L4T4A2.jpg","38","restless",0.4,0.7,0.8,0.202772874395453,"true"
"image-keyboard-response",97,108101,"0.0-4.28-1.28","d5gog6xj47sazgh",768,"194.csv","","null","resources/maskTrios/BT4B.jpg","null","",NA,NA,NA,NA,""
"image-keyboard-response",98,109303,"0.0-4.28-2.28","d5gog6xj47sazgh",768,"194.csv","","null","resources/images/coin2.png","null","",NA,NA,NA,NA,""
"image-keyboard-response",99,109379,"0.0-4.29-0.29","d5gog6xj47sazgh",768,"194.csv","","73.1999999997206","resources/trios/L4T4A2.jpg","38","restless",0.4,0.7,0.8,0.734145807829344,"false"
"image-keyboard-response",100,109781,"0.0-4.29-1.29","d5gog6xj47sazgh",768,"194.csv","","null","resources/maskTrios/BT4B.jpg","null","",NA,NA,NA,NA,""
"image-keyboard-response",101,110983,"0.0-4.29-2.29","d5gog6xj47sazgh",768,"194.csv","","null","resources/images/fishbone.png","null","",NA,NA,NA,NA,""
"image-keyboard-response",102,111000,"0.0-4.30-0.30","d5gog6xj47sazgh",768,"194.csv","","14","resources/trios/L4T4A2.jpg","38","restless",0.4,0.6,0.9,0.525771908464899,"true"
"image-keyboard-response",103,111403,"0.0-4.30-1.30","d5gog6xj47sazgh",768,"194.csv","","null","resources/maskTrios/BT4B.jpg","null","",NA,NA,NA,NA,""
"image-keyboard-response",104,112605,"0.0-4.30-2.30","d5gog6xj47sazgh",768,"194.csv","","null","resources/images/coin2.png","null","",NA,NA,NA,NA,""
"image-keyboard-response",105,112912,"0.0-4.31-0.31","d5gog6xj47sazgh",768,"194.csv","","304.29999999981374","resources/trios/L4T4A2.jpg","38","restless",0.4,0.6,0.9,0.335709298485798,"true"
"image-keyboard-response",106,113315,"0.0-4.31-1.31","d5gog6xj47sazgh",768,"194.csv","","null","resources/maskTrios/BT4B.jpg","null","",NA,NA,NA,NA,""
"image-keyboard-response",107,114518,"0.0-4.31-2.31","d5gog6xj47sazgh",768,"194.csv","","null","resources/images/coin2.png","null","",NA,NA,NA,NA,""
"image-keyboard-response",108,114921,"0.0-4.32-0.32","d5gog6xj47sazgh",768,"194.csv","","401.39999999990687","resources/trios/L4T4A2.jpg","38","restless",0.4,0.6,0.9,0.129252177877863,"true"
"image-keyboard-response",109,115323,"0.0-4.32-1.32","d5gog6xj47sazgh",768,"194.csv","","null","resources/maskTrios/BT4B.jpg","null","",NA,NA,NA,NA,""
"image-keyboard-response",110,116526,"0.0-4.32-2.32","d5gog6xj47sazgh",768,"194.csv","","null","resources/images/coin2.png","null","",NA,NA,NA,NA,""
"image-keyboard-response",111,116694,"0.0-4.33-0.33","d5gog6xj47sazgh",768,"194.csv","","165.40000000037253","resources/trios/L4T4A2.jpg","39","restless",0.4,0.6,0.9,0.144661471292026,"true"
"image-keyboard-response",112,117097,"0.0-4.33-1.33","d5gog6xj47sazgh",768,"194.csv","","null","resources/maskTrios/BBA2.jpg","null","",NA,NA,NA,NA,""
"image-keyboard-response",113,118299,"0.0-4.33-2.33","d5gog6xj47sazgh",768,"194.csv","","null","resources/images/coin2.png","null","",NA,NA,NA,NA,""
"image-keyboard-response",114,118350,"0.0-4.34-0.34","d5gog6xj47sazgh",768,"194.csv","","48.799999999813735","resources/trios/L4T4A2.jpg","37","restless",0.4,0.6,0.8,0.0624454433510222,"true"
"image-keyboard-response",115,118753,"0.0-4.34-1.34","d5gog6xj47sazgh",768,"194.csv","","null","resources/maskTrios/L4BB.jpg","null","",NA,NA,NA,NA,""
"image-keyboard-response",116,119955,"0.0-4.34-2.34","d5gog6xj47sazgh",768,"194.csv","","null","resources/images/coin2.png","null","",NA,NA,NA,NA,""
"image-keyboard-response",117,119993,"0.0-4.35-0.35","d5gog6xj47sazgh",768,"194.csv","","35.89999999990687","resources/trios/L4T4A2.jpg","39","restless",0.4,0.6,0.8,0.32146622167432,"true"
"image-keyboard-response",118,120396,"0.0-4.35-1.35","d5gog6xj47sazgh",768,"194.csv","","null","resources/maskTrios/BBA2.jpg","null","",NA,NA,NA,NA,""
"image-keyboard-response",119,121599,"0.0-4.35-2.35","d5gog6xj47sazgh",768,"194.csv","","null","resources/images/coin2.png","null","",NA,NA,NA,NA,""
"image-keyboard-response",120,121693,"0.0-4.36-0.36","d5gog6xj47sazgh",768,"194.csv","","92.39999999990687","resources/trios/L4T4A2.jpg","37","restless",0.4,0.6,0.8,0.225105643339717,"true"
"image-keyboard-response",121,122095,"0.0-4.36-1.36","d5gog6xj47sazgh",768,"194.csv","","null","resources/maskTrios/L4BB.jpg","null","",NA,NA,NA,NA,""
"image-keyboard-response",122,123298,"0.0-4.36-2.36","d5gog6xj47sazgh",768,"194.csv","","null","resources/images/coin2.png","null","",NA,NA,NA,NA,""
"image-keyboard-response",123,123411,"0.0-4.37-0.37","d5gog6xj47sazgh",768,"194.csv","","111","resources/trios/L4T4A2.jpg","39","restless",0.4,0.6,0.8,0.958237483056361,"false"
"image-keyboard-response",124,123814,"0.0-4.37-1.37","d5gog6xj47sazgh",768,"194.csv","","null","resources/maskTrios/BBA2.jpg","null","",NA,NA,NA,NA,""
"image-keyboard-response",125,125016,"0.0-4.37-2.37","d5gog6xj47sazgh",768,"194.csv","","null","resources/images/fishbone.png","null","",NA,NA,NA,NA,""
"image-keyboard-response",126,125181,"0.0-4.38-0.38","d5gog6xj47sazgh",768,"194.csv","","162.6999999997206","resources/trios/L4T4A2.jpg","37","restless",0.4,0.6,0.7,0.52466975908747,"false"
"image-keyboard-response",127,125584,"0.0-4.38-1.38","d5gog6xj47sazgh",768,"194.csv","","null","resources/maskTrios/L4BB.jpg","null","",NA,NA,NA,NA,""
"image-keyboard-response",128,126786,"0.0-4.38-2.38","d5gog6xj47sazgh",768,"194.csv","","null","resources/images/fishbone.png","null","",NA,NA,NA,NA,""
"image-keyboard-response",129,127098,"0.0-4.39-0.39","d5gog6xj47sazgh",768,"194.csv","","310.60000000009313","resources/trios/L4T4A2.jpg","39","restless",0.4,0.6,0.7,0.830376793935701,"false"
"image-keyboard-response",130,127501,"0.0-4.39-1.39","d5gog6xj47sazgh",768,"194.csv","","null","resources/maskTrios/BBA2.jpg","null","",NA,NA,NA,NA,""
"image-keyboard-response",131,128703,"0.0-4.39-2.39","d5gog6xj47sazgh",768,"194.csv","","null","resources/images/fishbone.png","null","",NA,NA,NA,NA,""
"image-keyboard-response",132,128945,"0.0-4.40-0.40","d5gog6xj47sazgh",768,"194.csv","","240.3000000002794","resources/trios/L4T4A2.jpg","38","restless",0.4,0.6,0.7,0.66890460171623,"false"
"image-keyboard-response",133,129348,"0.0-4.40-1.40","d5gog6xj47sazgh",768,"194.csv","","null","resources/maskTrios/BT4B.jpg","null","",NA,NA,NA,NA,""
"image-keyboard-response",134,130550,"0.0-4.40-2.40","d5gog6xj47sazgh",768,"194.csv","","null","resources/images/fishbone.png","null","",NA,NA,NA,NA,""
"image-keyboard-response",135,130669,"0.0-4.41-0.41","d5gog6xj47sazgh",768,"194.csv","","116.70000000018626","resources/trios/L4T4A2.jpg","37","restless",0.4,0.5,0.7,0.300277308048368,"true"
"image-keyboard-response",136,131072,"0.0-4.41-1.41","d5gog6xj47sazgh",768,"194.csv","","null","resources/maskTrios/L4BB.jpg","null","",NA,NA,NA,NA,""
"image-keyboard-response",137,132274,"0.0-4.41-2.41","d5gog6xj47sazgh",768,"194.csv","","null","resources/images/coin2.png","null","",NA,NA,NA,NA,""
"image-keyboard-response",138,132460,"0.0-4.42-0.42","d5gog6xj47sazgh",768,"194.csv","","183.70000000018626","resources/trios/L4T4A2.jpg","39","restless",0.4,0.5,0.7,0.628295265249157,"true"
"image-keyboard-response",139,132863,"0.0-4.42-1.42","d5gog6xj47sazgh",768,"194.csv","","null","resources/maskTrios/BBA2.jpg","null","",NA,NA,NA,NA,""
"image-keyboard-response",140,134065,"0.0-4.42-2.42","d5gog6xj47sazgh",768,"194.csv","","null","resources/images/coin2.png","null","",NA,NA,NA,NA,""
"image-keyboard-response",141,134147,"0.0-4.43-0.43","d5gog6xj47sazgh",768,"194.csv","","79.09999999962747","resources/trios/L4T4A2.jpg","38","restless",0.4,0.5,0.7,0.690433521270639,"false"
"image-keyboard-response",142,134549,"0.0-4.43-1.43","d5gog6xj47sazgh",768,"194.csv","","null","resources/maskTrios/BT4B.jpg","null","",NA,NA,NA,NA,""
"image-keyboard-response",143,135751,"0.0-4.43-2.43","d5gog6xj47sazgh",768,"194.csv","","null","resources/images/fishbone.png","null","",NA,NA,NA,NA,""
"image-keyboard-response",144,135766,"0.0-4.44-0.44","d5gog6xj47sazgh",768,"194.csv","","12.5","resources/trios/L4T4A2.jpg","38","restless",0.4,0.5,0.7,0.627086360664533,"false"
"image-keyboard-response",145,136168,"0.0-4.44-1.44","d5gog6xj47sazgh",768,"194.csv","","null","resources/maskTrios/BT4B.jpg","null","",NA,NA,NA,NA,""
"image-keyboard-response",146,137370,"0.0-4.44-2.44","d5gog6xj47sazgh",768,"194.csv","","null","resources/images/fishbone.png","null","",NA,NA,NA,NA,""
"image-keyboard-response",147,137630,"0.0-4.45-0.45","d5gog6xj47sazgh",768,"194.csv","","257.29999999981374","resources/trios/L4T4A2.jpg","38","restless",0.4,0.5,0.7,0.372847333803785,"true"
"image-keyboard-response",148,138032,"0.0-4.45-1.45","d5gog6xj47sazgh",768,"194.csv","","null","resources/maskTrios/BT4B.jpg","null","",NA,NA,NA,NA,""
"image-keyboard-response",149,139235,"0.0-4.45-2.45","d5gog6xj47sazgh",768,"194.csv","","null","resources/images/coin2.png","null","",NA,NA,NA,NA,""
"image-keyboard-response",150,139307,"0.0-4.46-0.46","d5gog6xj47sazgh",768,"194.csv","","70.3000000002794","resources/trios/L4T4A2.jpg","38","restless",0.4,0.5,0.7,0.644048757764062,"false"
"image-keyboard-response",151,139710,"0.0-4.46-1.46","d5gog6xj47sazgh",768,"194.csv","","null","resources/maskTrios/BT4B.jpg","null","",NA,NA,NA,NA,""
"image-keyboard-response",152,140912,"0.0-4.46-2.46","d5gog6xj47sazgh",768,"194.csv","","null","resources/images/fishbone.png","null","",NA,NA,NA,NA,""
"image-keyboard-response",153,140969,"0.0-4.47-0.47","d5gog6xj47sazgh",768,"194.csv","","54.8000000002794","resources/trios/L4T4A2.jpg","39","restless",0.4,0.5,0.7,0.444986251650095,"true"
"image-keyboard-response",154,141372,"0.0-4.47-1.47","d5gog6xj47sazgh",768,"194.csv","","null","resources/maskTrios/BBA2.jpg","null","",NA,NA,NA,NA,""
"image-keyboard-response",155,142574,"0.0-4.47-2.47","d5gog6xj47sazgh",768,"194.csv","","null","resources/images/coin2.png","null","",NA,NA,NA,NA,""
"image-keyboard-response",156,142704,"0.0-4.48-0.48","d5gog6xj47sazgh",768,"194.csv","","127.79999999981374","resources/trios/L4T4A2.jpg","37","restless",0.5,0.5,0.7,0.500112626231924,"false"
"image-keyboard-response",157,143107,"0.0-4.48-1.48","d5gog6xj47sazgh",768,"194.csv","","null","resources/maskTrios/L4BB.jpg","null","",NA,NA,NA,NA,""
"image-keyboard-response",158,144311,"0.0-4.48-2.48","d5gog6xj47sazgh",768,"194.csv","","null","resources/images/fishbone.png","null","",NA,NA,NA,NA,""
"image-keyboard-response",159,144392,"0.0-4.49-0.49","d5gog6xj47sazgh",768,"194.csv","","78.90000000037253","resources/trios/L4T4A2.jpg","38","restless",0.5,0.5,0.7,0.867732411980651,"false"
"image-keyboard-response",160,144795,"0.0-4.49-1.49","d5gog6xj47sazgh",768,"194.csv","","null","resources/maskTrios/BT4B.jpg","null","",NA,NA,NA,NA,""
"image-keyboard-response",161,145997,"0.0-4.49-2.49","d5gog6xj47sazgh",768,"194.csv","","null","resources/images/fishbone.png","null","",NA,NA,NA,NA,""
"image-keyboard-response",162,146034,"0.0-4.50-0.50","d5gog6xj47sazgh",768,"194.csv","","34.299999999813735","resources/trios/L4T4A2.jpg","39","restless",0.4,0.5,0.7,0.514360121953487,"true"
"image-keyboard-response",163,146436,"0.0-4.50-1.50","d5gog6xj47sazgh",768,"194.csv","","null","resources/maskTrios/BBA2.jpg","null","",NA,NA,NA,NA,""
"image-keyboard-response",164,147639,"0.0-4.50-2.50","d5gog6xj47sazgh",768,"194.csv","","null","resources/images/coin2.png","null","",NA,NA,NA,NA,""
"image-keyboard-response",165,148005,"0.0-4.51-0.51","d5gog6xj47sazgh",768,"194.csv","","363.79999999981374","resources/trios/L4T4A2.jpg","38","restless",0.4,0.4,0.7,0.171961725162308,"true"
"image-keyboard-response",166,148408,"0.0-4.51-1.51","d5gog6xj47sazgh",768,"194.csv","","null","resources/maskTrios/BT4B.jpg","null","",NA,NA,NA,NA,""
"image-keyboard-response",167,149610,"0.0-4.51-2.51","d5gog6xj47sazgh",768,"194.csv","","null","resources/images/coin2.png","null","",NA,NA,NA,NA,""
"image-keyboard-response",168,149699,"0.0-4.52-0.52","d5gog6xj47sazgh",768,"194.csv","","86.39999999990687","resources/trios/L4T4A2.jpg","37","restless",0.5,0.4,0.7,0.782279357884867,"false"
"image-keyboard-response",169,150102,"0.0-4.52-1.52","d5gog6xj47sazgh",768,"194.csv","","null","resources/maskTrios/L4BB.jpg","null","",NA,NA,NA,NA,""
"image-keyboard-response",170,151304,"0.0-4.52-2.52","d5gog6xj47sazgh",768,"194.csv","","null","resources/images/fishbone.png","null","",NA,NA,NA,NA,""
"image-keyboard-response",171,151590,"0.0-4.53-0.53","d5gog6xj47sazgh",768,"194.csv","","283.60000000009313","resources/trios/L4T4A2.jpg","39","restless",0.5,0.4,0.7,0.329162223535547,"true"
"image-keyboard-response",172,151992,"0.0-4.53-1.53","d5gog6xj47sazgh",768,"194.csv","","null","resources/maskTrios/BBA2.jpg","null","",NA,NA,NA,NA,""
"image-keyboard-response",173,153195,"0.0-4.53-2.53","d5gog6xj47sazgh",768,"194.csv","","null","resources/images/coin2.png","null","",NA,NA,NA,NA,""
"image-keyboard-response",174,153371,"0.0-4.54-0.54","d5gog6xj47sazgh",768,"194.csv","","174.5","resources/trios/L4T4A2.jpg","38","restless",0.5,0.4,0.6,0.0935407381618636,"true"
"image-keyboard-response",175,153774,"0.0-4.54-1.54","d5gog6xj47sazgh",768,"194.csv","","null","resources/maskTrios/BT4B.jpg","null","",NA,NA,NA,NA,""
"image-keyboard-response",176,154977,"0.0-4.54-2.54","d5gog6xj47sazgh",768,"194.csv","","null","resources/images/coin2.png","null","",NA,NA,NA,NA,""
"image-keyboard-response",177,155027,"0.0-4.55-0.55","d5gog6xj47sazgh",768,"194.csv","","47.799999999813735","resources/trios/L4T4A2.jpg","39","restless",0.5,0.4,0.6,0.971212020044225,"false"
"image-keyboard-response",178,155430,"0.0-4.55-1.55","d5gog6xj47sazgh",768,"194.csv","","null","resources/maskTrios/BBA2.jpg","null","",NA,NA,NA,NA,""
"image-keyboard-response",179,156632,"0.0-4.55-2.55","d5gog6xj47sazgh",768,"194.csv","","null","resources/images/fishbone.png","null","",NA,NA,NA,NA,""
"image-keyboard-response",180,156805,"0.0-4.56-0.56","d5gog6xj47sazgh",768,"194.csv","","170.6999999997206","resources/trios/L4T4A2.jpg","37","restless",0.4,0.3,0.6,0.419885112516298,"false"
"image-keyboard-response",181,157208,"0.0-4.56-1.56","d5gog6xj47sazgh",768,"194.csv","","null","resources/maskTrios/L4BB.jpg","null","",NA,NA,NA,NA,""
"image-keyboard-response",182,158410,"0.0-4.56-2.56","d5gog6xj47sazgh",768,"194.csv","","null","resources/images/fishbone.png","null","",NA,NA,NA,NA,""
"image-keyboard-response",183,158442,"0.0-4.57-0.57","d5gog6xj47sazgh",768,"194.csv","","29.600000000093132","resources/trios/L4T4A2.jpg","38","restless",0.4,0.3,0.6,0.0897534679522076,"true"
"image-keyboard-response",184,158845,"0.0-4.57-1.57","d5gog6xj47sazgh",768,"194.csv","","null","resources/maskTrios/BT4B.jpg","null","",NA,NA,NA,NA,""
"image-keyboard-response",185,160047,"0.0-4.57-2.57","d5gog6xj47sazgh",768,"194.csv","","null","resources/images/coin2.png","null","",NA,NA,NA,NA,""
"image-keyboard-response",186,160242,"0.0-4.58-0.58","d5gog6xj47sazgh",768,"194.csv","","192.90000000037253","resources/trios/L4T4A2.jpg","38","restless",0.4,0.3,0.6,0.222636457325855,"true"
"image-keyboard-response",187,160645,"0.0-4.58-1.58","d5gog6xj47sazgh",768,"194.csv","","null","resources/maskTrios/BT4B.jpg","null","",NA,NA,NA,NA,""
"image-keyboard-response",188,161848,"0.0-4.58-2.58","d5gog6xj47sazgh",768,"194.csv","","null","resources/images/coin2.png","null","",NA,NA,NA,NA,""
"image-keyboard-response",189,161875,"0.0-4.59-0.59","d5gog6xj47sazgh",768,"194.csv","","24.600000000093132","resources/trios/L4T4A2.jpg","38","restless",0.4,0.3,0.6,0.171109792956734,"true"
"image-keyboard-response",190,162278,"0.0-4.59-1.59","d5gog6xj47sazgh",768,"194.csv","","null","resources/maskTrios/BT4B.jpg","null","",NA,NA,NA,NA,""
"image-keyboard-response",191,163480,"0.0-4.59-2.59","d5gog6xj47sazgh",768,"194.csv","","null","resources/images/coin2.png","null","",NA,NA,NA,NA,""
"image-keyboard-response",192,163685,"0.0-4.60-0.60","d5gog6xj47sazgh",768,"194.csv","","202.39999999990687","resources/trios/L4T4A2.jpg","38","restless",0.5,0.3,0.6,0.379788591296222,"false"
"image-keyboard-response",193,164088,"0.0-4.60-1.60","d5gog6xj47sazgh",768,"194.csv","","null","resources/maskTrios/BT4B.jpg","null","",NA,NA,NA,NA,""
"image-keyboard-response",194,165290,"0.0-4.60-2.60","d5gog6xj47sazgh",768,"194.csv","","null","resources/images/fishbone.png","null","",NA,NA,NA,NA,""
"image-keyboard-response",195,165574,"0.0-4.61-0.61","d5gog6xj47sazgh",768,"194.csv","","280.39999999990687","resources/trios/L4T4A2.jpg","38","restless",0.5,0.3,0.6,0.777059546057602,"false"
"image-keyboard-response",196,165977,"0.0-4.61-1.61","d5gog6xj47sazgh",768,"194.csv","","null","resources/maskTrios/BT4B.jpg","null","",NA,NA,NA,NA,""
"image-keyboard-response",197,167179,"0.0-4.61-2.61","d5gog6xj47sazgh",768,"194.csv","","null","resources/images/fishbone.png","null","",NA,NA,NA,NA,""
"image-keyboard-response",198,167321,"0.0-4.62-0.62","d5gog6xj47sazgh",768,"194.csv","","139","resources/trios/L4T4A2.jpg","38","restless",0.5,0.3,0.6,0.171292201811112,"true"
"image-keyboard-response",199,167723,"0.0-4.62-1.62","d5gog6xj47sazgh",768,"194.csv","","null","resources/maskTrios/BT4B.jpg","null","",NA,NA,NA,NA,""
"image-keyboard-response",200,168927,"0.0-4.62-2.62","d5gog6xj47sazgh",768,"194.csv","","null","resources/images/coin2.png","null","",NA,NA,NA,NA,""
"image-keyboard-response",201,169497,"0.0-4.63-0.63","d5gog6xj47sazgh",768,"194.csv","","567.3999999999069","resources/trios/L4T4A2.jpg","39","restless",0.5,0.3,0.6,0.545404569312014,"true"
"image-keyboard-response",202,169900,"0.0-4.63-1.63","d5gog6xj47sazgh",768,"194.csv","","null","resources/maskTrios/BBA2.jpg","null","",NA,NA,NA,NA,""
"image-keyboard-response",203,171102,"0.0-4.63-2.63","d5gog6xj47sazgh",768,"194.csv","","null","resources/images/coin2.png","null","",NA,NA,NA,NA,""
"image-keyboard-response",204,171319,"0.0-4.64-0.64","d5gog6xj47sazgh",768,"194.csv","","214.1999999997206","resources/trios/L4T4A2.jpg","38","restless",0.5,0.3,0.6,0.496088203233092,"false"
"image-keyboard-response",205,171722,"0.0-4.64-1.64","d5gog6xj47sazgh",768,"194.csv","","null","resources/maskTrios/BT4B.jpg","null","",NA,NA,NA,NA,""
"image-keyboard-response",206,172924,"0.0-4.64-2.64","d5gog6xj47sazgh",768,"194.csv","","null","resources/images/fishbone.png","null","",NA,NA,NA,NA,""
"image-keyboard-response",207,173491,"0.0-4.65-0.65","d5gog6xj47sazgh",768,"194.csv","","565","resources/trios/L4T4A2.jpg","39","restless",0.5,0.3,0.6,0.312354863063254,"true"
"image-keyboard-response",208,173894,"0.0-4.65-1.65","d5gog6xj47sazgh",768,"194.csv","","null","resources/maskTrios/BBA2.jpg","null","",NA,NA,NA,NA,""
"image-keyboard-response",209,175096,"0.0-4.65-2.65","d5gog6xj47sazgh",768,"194.csv","","null","resources/images/coin2.png","null","",NA,NA,NA,NA,""
"image-keyboard-response",210,175461,"0.0-4.66-0.66","d5gog6xj47sazgh",768,"194.csv","","362.1999999997206","resources/trios/L4T4A2.jpg","38","restless",0.5,0.3,0.6,0.292049725840435,"true"
"image-keyboard-response",211,175864,"0.0-4.66-1.66","d5gog6xj47sazgh",768,"194.csv","","null","resources/maskTrios/BT4B.jpg","null","",NA,NA,NA,NA,""
"image-keyboard-response",212,177066,"0.0-4.66-2.66","d5gog6xj47sazgh",768,"194.csv","","null","resources/images/coin2.png","null","",NA,NA,NA,NA,""
"image-keyboard-response",213,177128,"0.0-4.67-0.67","d5gog6xj47sazgh",768,"194.csv","","59.89999999990687","resources/trios/L4T4A2.jpg","37","restless",0.5,0.3,0.6,0.662117268292966,"false"
"image-keyboard-response",214,177531,"0.0-4.67-1.67","d5gog6xj47sazgh",768,"194.csv","","null","resources/maskTrios/L4BB.jpg","null","",NA,NA,NA,NA,""
"image-keyboard-response",215,178733,"0.0-4.67-2.67","d5gog6xj47sazgh",768,"194.csv","","null","resources/images/fishbone.png","null","",NA,NA,NA,NA,""
"image-keyboard-response",216,179168,"0.0-4.68-0.68","d5gog6xj47sazgh",768,"194.csv","","432.39999999990687","resources/trios/L4T4A2.jpg","37","restless",0.5,0.3,0.5,0.621310163094866,"false"
"image-keyboard-response",217,179570,"0.0-4.68-1.68","d5gog6xj47sazgh",768,"194.csv","","null","resources/maskTrios/L4BB.jpg","null","",NA,NA,NA,NA,""
"image-keyboard-response",218,180772,"0.0-4.68-2.68","d5gog6xj47sazgh",768,"194.csv","","null","resources/images/fishbone.png","null","",NA,NA,NA,NA,""
"image-keyboard-response",219,181083,"0.0-4.69-0.69","d5gog6xj47sazgh",768,"194.csv","","308.5","resources/trios/L4T4A2.jpg","38","restless",0.5,0.3,0.4,0.171209830421492,"true"
"image-keyboard-response",220,181486,"0.0-4.69-1.69","d5gog6xj47sazgh",768,"194.csv","","null","resources/maskTrios/BT4B.jpg","null","",NA,NA,NA,NA,""
"image-keyboard-response",221,182689,"0.0-4.69-2.69","d5gog6xj47sazgh",768,"194.csv","","null","resources/images/coin2.png","null","",NA,NA,NA,NA,""
"image-keyboard-response",222,182707,"0.0-4.70-0.70","d5gog6xj47sazgh",768,"194.csv","","16.5","resources/trios/L4T4A2.jpg","39","restless",0.5,0.3,0.4,0.507803330488052,"false"
"image-keyboard-response",223,183110,"0.0-4.70-1.70","d5gog6xj47sazgh",768,"194.csv","","null","resources/maskTrios/BBA2.jpg","null","",NA,NA,NA,NA,""
"image-keyboard-response",224,184312,"0.0-4.70-2.70","d5gog6xj47sazgh",768,"194.csv","","null","resources/images/fishbone.png","null","",NA,NA,NA,NA,""
"image-keyboard-response",225,184415,"0.0-4.71-0.71","d5gog6xj47sazgh",768,"194.csv","","101.89999999990687","resources/trios/L4T4A2.jpg","38","restless",0.5,0.3,0.4,0.0211642065195607,"true"
"image-keyboard-response",226,184818,"0.0-4.71-1.71","d5gog6xj47sazgh",768,"194.csv","","null","resources/maskTrios/BT4B.jpg","null","",NA,NA,NA,NA,""
"image-keyboard-response",227,186020,"0.0-4.71-2.71","d5gog6xj47sazgh",768,"194.csv","","null","resources/images/coin2.png","null","",NA,NA,NA,NA,""
"image-keyboard-response",228,186243,"0.0-4.72-0.72","d5gog6xj47sazgh",768,"194.csv","","220","resources/trios/L4T4A2.jpg","38","restless",0.5,0.3,0.4,0.796986898200681,"false"
"image-keyboard-response",229,186646,"0.0-4.72-1.72","d5gog6xj47sazgh",768,"194.csv","","null","resources/maskTrios/BT4B.jpg","null","",NA,NA,NA,NA,""
"image-keyboard-response",230,187849,"0.0-4.72-2.72","d5gog6xj47sazgh",768,"194.csv","","null","resources/images/fishbone.png","null","",NA,NA,NA,NA,""
"image-keyboard-response",231,188096,"0.0-4.73-0.73","d5gog6xj47sazgh",768,"194.csv","","246","resources/trios/L4T4A2.jpg","39","restless",0.5,0.4,0.4,0.62274704377543,"false"
"image-keyboard-response",232,188499,"0.0-4.73-1.73","d5gog6xj47sazgh",768,"194.csv","","null","resources/maskTrios/BBA2.jpg","null","",NA,NA,NA,NA,""
"image-keyboard-response",233,189701,"0.0-4.73-2.73","d5gog6xj47sazgh",768,"194.csv","","null","resources/images/fishbone.png","null","",NA,NA,NA,NA,""
"image-keyboard-response",234,189893,"0.0-4.74-0.74","d5gog6xj47sazgh",768,"194.csv","","189.29999999981374","resources/trios/L4T4A2.jpg","39","restless",0.5,0.4,0.4,0.73957638015797,"false"
"image-keyboard-response",235,190296,"0.0-4.74-1.74","d5gog6xj47sazgh",768,"194.csv","","null","resources/maskTrios/BBA2.jpg","null","",NA,NA,NA,NA,""
"image-keyboard-response",236,191497,"0.0-4.74-2.74","d5gog6xj47sazgh",768,"194.csv","","null","resources/images/fishbone.png","null","",NA,NA,NA,NA,""
"image-keyboard-response",237,191794,"0.0-4.75-0.75","d5gog6xj47sazgh",768,"194.csv","","294.60000000009313","resources/trios/L4T4A2.jpg","39","restless",0.5,0.4,0.4,0.580041875427527,"false"
"image-keyboard-response",238,192197,"0.0-4.75-1.75","d5gog6xj47sazgh",768,"194.csv","","null","resources/maskTrios/BBA2.jpg","null","",NA,NA,NA,NA,""
"image-keyboard-response",239,193399,"0.0-4.75-2.75","d5gog6xj47sazgh",768,"194.csv","","null","resources/images/fishbone.png","null","",NA,NA,NA,NA,""
"image-keyboard-response",240,193470,"0.0-4.76-0.76","d5gog6xj47sazgh",768,"194.csv","","68.60000000009313","resources/trios/L4T4A2.jpg","38","restless",0.5,0.4,0.4,0.056536262077105,"true"
"image-keyboard-response",241,193873,"0.0-4.76-1.76","d5gog6xj47sazgh",768,"194.csv","","null","resources/maskTrios/BT4B.jpg","null","",NA,NA,NA,NA,""
"image-keyboard-response",242,195076,"0.0-4.76-2.76","d5gog6xj47sazgh",768,"194.csv","","null","resources/images/coin2.png","null","",NA,NA,NA,NA,""
"image-keyboard-response",243,195174,"0.0-4.77-0.77","d5gog6xj47sazgh",768,"194.csv","","95.70000000018626","resources/trios/L4T4A2.jpg","38","restless",0.5,0.3,0.4,0.214069487426626,"true"
"image-keyboard-response",244,195576,"0.0-4.77-1.77","d5gog6xj47sazgh",768,"194.csv","","null","resources/maskTrios/BT4B.jpg","null","",NA,NA,NA,NA,""
"image-keyboard-response",245,196779,"0.0-4.77-2.77","d5gog6xj47sazgh",768,"194.csv","","null","resources/images/coin2.png","null","",NA,NA,NA,NA,""
"image-keyboard-response",246,196833,"0.0-4.78-0.78","d5gog6xj47sazgh",768,"194.csv","","51.799999999813735","resources/trios/L4T4A2.jpg","38","restless",0.5,0.3,0.4,0.969553131832055,"false"
"image-keyboard-response",247,197236,"0.0-4.78-1.78","d5gog6xj47sazgh",768,"194.csv","","null","resources/maskTrios/BT4B.jpg","null","",NA,NA,NA,NA,""
"image-keyboard-response",248,198438,"0.0-4.78-2.78","d5gog6xj47sazgh",768,"194.csv","","null","resources/images/fishbone.png","null","",NA,NA,NA,NA,""
"image-keyboard-response",249,198767,"0.0-4.79-0.79","d5gog6xj47sazgh",768,"194.csv","","324.5","resources/trios/L4T4A2.jpg","39","restless",0.5,0.3,0.4,0.932726790217716,"false"
"image-keyboard-response",250,199170,"0.0-4.79-1.79","d5gog6xj47sazgh",768,"194.csv","","null","resources/maskTrios/BBA2.jpg","null","",NA,NA,NA,NA,""
"image-keyboard-response",251,200372,"0.0-4.79-2.79","d5gog6xj47sazgh",768,"194.csv","","null","resources/images/fishbone.png","null","",NA,NA,NA,NA,""
"image-keyboard-response",252,201976,"0.0-4.80-0.80","d5gog6xj47sazgh",768,"194.csv","","1602.4000000003725","resources/trios/L4T4A2.jpg","38","restless",0.5,0.3,0.3,0.468562592895125,"false"
"image-keyboard-response",253,202379,"0.0-4.80-1.80","d5gog6xj47sazgh",768,"194.csv","","null","resources/maskTrios/BT4B.jpg","null","",NA,NA,NA,NA,""
"image-keyboard-response",254,203581,"0.0-4.80-2.80","d5gog6xj47sazgh",768,"194.csv","","null","resources/images/fishbone.png","null","",NA,NA,NA,NA,""
"image-keyboard-response",255,203941,"0.0-4.81-0.81","d5gog6xj47sazgh",768,"194.csv","","357.8000000002794","resources/trios/L4T4A2.jpg","37","restless",0.5,0.3,0.3,0.147373388027219,"true"
"image-keyboard-response",256,204344,"0.0-4.81-1.81","d5gog6xj47sazgh",768,"194.csv","","null","resources/maskTrios/L4BB.jpg","null","",NA,NA,NA,NA,""
"image-keyboard-response",257,205547,"0.0-4.81-2.81","d5gog6xj47sazgh",768,"194.csv","","null","resources/images/coin2.png","null","",NA,NA,NA,NA,""
"image-keyboard-response",258,205638,"0.0-4.82-0.82","d5gog6xj47sazgh",768,"194.csv","","88.8000000002794","resources/trios/L4T4A2.jpg","37","restless",0.5,0.3,0.3,0.890882753127706,"false"
"image-keyboard-response",259,206041,"0.0-4.82-1.82","d5gog6xj47sazgh",768,"194.csv","","null","resources/maskTrios/L4BB.jpg","null","",NA,NA,NA,NA,""
"image-keyboard-response",260,207243,"0.0-4.82-2.82","d5gog6xj47sazgh",768,"194.csv","","null","resources/images/fishbone.png","null","",NA,NA,NA,NA,""
"image-keyboard-response",261,207579,"0.0-4.83-0.83","d5gog6xj47sazgh",768,"194.csv","","334.5","resources/trios/L4T4A2.jpg","38","restless",0.5,0.3,0.4,0.885759596407649,"false"
"image-keyboard-response",262,207983,"0.0-4.83-1.83","d5gog6xj47sazgh",768,"194.csv","","null","resources/maskTrios/BT4B.jpg","null","",NA,NA,NA,NA,""
"image-keyboard-response",263,209185,"0.0-4.83-2.83","d5gog6xj47sazgh",768,"194.csv","","null","resources/images/fishbone.png","null","",NA,NA,NA,NA,""
"image-keyboard-response",264,209221,"0.0-4.84-0.84","d5gog6xj47sazgh",768,"194.csv","","34.200000000186265","resources/trios/L4T4A2.jpg","39","restless",0.5,0.3,0.4,0.977580366895733,"false"
"image-keyboard-response",265,209624,"0.0-4.84-1.84","d5gog6xj47sazgh",768,"194.csv","","null","resources/maskTrios/BBA2.jpg","null","",NA,NA,NA,NA,""
"image-keyboard-response",266,210826,"0.0-4.84-2.84","d5gog6xj47sazgh",768,"194.csv","","null","resources/images/fishbone.png","null","",NA,NA,NA,NA,""
"image-keyboard-response",267,211538,"0.0-4.85-0.85","d5gog6xj47sazgh",768,"194.csv","","709.6000000000931","resources/trios/L4T4A2.jpg","39","restless",0.5,0.3,0.4,0.780699931830655,"false"
"image-keyboard-response",268,211941,"0.0-4.85-1.85","d5gog6xj47sazgh",768,"194.csv","","null","resources/maskTrios/BBA2.jpg","null","",NA,NA,NA,NA,""
"image-keyboard-response",269,213143,"0.0-4.85-2.85","d5gog6xj47sazgh",768,"194.csv","","null","resources/images/fishbone.png","null","",NA,NA,NA,NA,""
"image-keyboard-response",270,213293,"0.0-4.86-0.86","d5gog6xj47sazgh",768,"194.csv","","147.39999999990687","resources/trios/L4T4A2.jpg","39","restless",0.4,0.3,0.5,0.728009710048367,"false"
"image-keyboard-response",271,213696,"0.0-4.86-1.86","d5gog6xj47sazgh",768,"194.csv","","null","resources/maskTrios/BBA2.jpg","null","",NA,NA,NA,NA,""
"image-keyboard-response",272,214898,"0.0-4.86-2.86","d5gog6xj47sazgh",768,"194.csv","","null","resources/images/fishbone.png","null","",NA,NA,NA,NA,""
"image-keyboard-response",273,216271,"0.0-4.87-0.87","d5gog6xj47sazgh",768,"194.csv","","1370.6999999997206","resources/trios/L4T4A2.jpg","39","restless",0.4,0.3,0.6,0.925113171243173,"false"
"image-keyboard-response",274,216674,"0.0-4.87-1.87","d5gog6xj47sazgh",768,"194.csv","","null","resources/maskTrios/BBA2.jpg","null","",NA,NA,NA,NA,""
"image-keyboard-response",275,217876,"0.0-4.87-2.87","d5gog6xj47sazgh",768,"194.csv","","null","resources/images/fishbone.png","null","",NA,NA,NA,NA,""
"image-keyboard-response",276,218137,"0.0-4.88-0.88","d5gog6xj47sazgh",768,"194.csv","","258.79999999981374","resources/trios/L4T4A2.jpg","39","restless",0.4,0.3,0.6,0.368831747531988,"true"
"image-keyboard-response",277,218539,"0.0-4.88-1.88","d5gog6xj47sazgh",768,"194.csv","","null","resources/maskTrios/BBA2.jpg","null","",NA,NA,NA,NA,""
"image-keyboard-response",278,219742,"0.0-4.88-2.88","d5gog6xj47sazgh",768,"194.csv","","null","resources/images/coin2.png","null","",NA,NA,NA,NA,""
"image-keyboard-response",279,222693,"0.0-4.89-0.89","d5gog6xj47sazgh",768,"194.csv","","2948.7999999998137","resources/trios/L4T4A2.jpg","39","restless",0.4,0.4,0.6,0.763013994743354,"false"
"image-keyboard-response",280,223097,"0.0-4.89-1.89","d5gog6xj47sazgh",768,"194.csv","","null","resources/maskTrios/BBA2.jpg","null","",NA,NA,NA,NA,""
"image-keyboard-response",281,224299,"0.0-4.89-2.89","d5gog6xj47sazgh",768,"194.csv","","null","resources/images/fishbone.png","null","",NA,NA,NA,NA,""
"image-keyboard-response",282,224527,"0.0-4.90-0.90","d5gog6xj47sazgh",768,"194.csv","","225.60000000009313","resources/trios/L4T4A2.jpg","38","restless",0.4,0.3,0.6,0.37093603903827,"false"
"image-keyboard-response",283,224930,"0.0-4.90-1.90","d5gog6xj47sazgh",768,"194.csv","","null","resources/maskTrios/BT4B.jpg","null","",NA,NA,NA,NA,""
"image-keyboard-response",284,226132,"0.0-4.90-2.90","d5gog6xj47sazgh",768,"194.csv","","null","resources/images/fishbone.png","null","",NA,NA,NA,NA,""
"image-keyboard-response",285,226512,"0.0-4.91-0.91","d5gog6xj47sazgh",768,"194.csv","","378.10000000009313","resources/trios/L4T4A2.jpg","39","restless",0.4,0.3,0.5,0.0967429007750824,"true"
"image-keyboard-response",286,226915,"0.0-4.91-1.91","d5gog6xj47sazgh",768,"194.csv","","null","resources/maskTrios/BBA2.jpg","null","",NA,NA,NA,NA,""
"image-keyboard-response",287,228118,"0.0-4.91-2.91","d5gog6xj47sazgh",768,"194.csv","","null","resources/images/coin2.png","null","",NA,NA,NA,NA,""
"image-keyboard-response",288,228209,"0.0-4.92-0.92","d5gog6xj47sazgh",768,"194.csv","","88.89999999990687","resources/trios/L4T4A2.jpg","37","restless",0.5,0.3,0.5,0.0607017327898951,"true"
"image-keyboard-response",289,228611,"0.0-4.92-1.92","d5gog6xj47sazgh",768,"194.csv","","null","resources/maskTrios/L4BB.jpg","null","",NA,NA,NA,NA,""
"image-keyboard-response",290,229814,"0.0-4.92-2.92","d5gog6xj47sazgh",768,"194.csv","","null","resources/images/coin2.png","null","",NA,NA,NA,NA,""
"image-keyboard-response",291,230066,"0.0-4.93-0.93","d5gog6xj47sazgh",768,"194.csv","","249.60000000009313","resources/trios/L4T4A2.jpg","39","restless",0.6,0.3,0.5,0.189344595247514,"true"
"image-keyboard-response",292,230469,"0.0-4.93-1.93","d5gog6xj47sazgh",768,"194.csv","","null","resources/maskTrios/BBA2.jpg","null","",NA,NA,NA,NA,""
"image-keyboard-response",293,231672,"0.0-4.93-2.93","d5gog6xj47sazgh",768,"194.csv","","null","resources/images/coin2.png","null","",NA,NA,NA,NA,""
"image-keyboard-response",294,232016,"0.0-4.94-0.94","d5gog6xj47sazgh",768,"194.csv","","341.5","resources/trios/L4T4A2.jpg","37","restless",0.6,0.3,0.5,0.321600839231808,"true"
"image-keyboard-response",295,232419,"0.0-4.94-1.94","d5gog6xj47sazgh",768,"194.csv","","null","resources/maskTrios/L4BB.jpg","null","",NA,NA,NA,NA,""
"image-keyboard-response",296,233621,"0.0-4.94-2.94","d5gog6xj47sazgh",768,"194.csv","","null","resources/images/coin2.png","null","",NA,NA,NA,NA,""
"image-keyboard-response",297,233740,"0.0-4.95-0.95","d5gog6xj47sazgh",768,"194.csv","","116.89999999990687","resources/trios/L4T4A2.jpg","39","restless",0.6,0.2,0.5,0.699291766392299,"false"
"image-keyboard-response",298,234144,"0.0-4.95-1.95","d5gog6xj47sazgh",768,"194.csv","","null","resources/maskTrios/BBA2.jpg","null","",NA,NA,NA,NA,""
"image-keyboard-response",299,235346,"0.0-4.95-2.95","d5gog6xj47sazgh",768,"194.csv","","null","resources/images/fishbone.png","null","",NA,NA,NA,NA,""
"image-keyboard-response",300,235570,"0.0-4.96-0.96","d5gog6xj47sazgh",768,"194.csv","","220.89999999990687","resources/trios/L4T4A2.jpg","38","restless",0.6,0.2,0.5,0.704832198334208,"false"
"image-keyboard-response",301,235972,"0.0-4.96-1.96","d5gog6xj47sazgh",768,"194.csv","","null","resources/maskTrios/BT4B.jpg","null","",NA,NA,NA,NA,""
"image-keyboard-response",302,237175,"0.0-4.96-2.96","d5gog6xj47sazgh",768,"194.csv","","null","resources/images/fishbone.png","null","",NA,NA,NA,NA,""
"image-keyboard-response",303,237546,"0.0-4.97-0.97","d5gog6xj47sazgh",768,"194.csv","","368.1999999997206","resources/trios/L4T4A2.jpg","37","restless",0.6,0.2,0.5,0.997507687432245,"false"
"image-keyboard-response",304,237949,"0.0-4.97-1.97","d5gog6xj47sazgh",768,"194.csv","","null","resources/maskTrios/L4BB.jpg","null","",NA,NA,NA,NA,""
"image-keyboard-response",305,239151,"0.0-4.97-2.97","d5gog6xj47sazgh",768,"194.csv","","null","resources/images/fishbone.png","null","",NA,NA,NA,NA,""
"image-keyboard-response",306,239548,"0.0-4.98-0.98","d5gog6xj47sazgh",768,"194.csv","","395.1999999997206","resources/trios/L4T4A2.jpg","39","restless",0.6,0.2,0.5,0.436042392203576,"true"
"image-keyboard-response",307,239951,"0.0-4.98-1.98","d5gog6xj47sazgh",768,"194.csv","","null","resources/maskTrios/BBA2.jpg","null","",NA,NA,NA,NA,""
"image-keyboard-response",308,241154,"0.0-4.98-2.98","d5gog6xj47sazgh",768,"194.csv","","null","resources/images/coin2.png","null","",NA,NA,NA,NA,""
"image-keyboard-response",309,241497,"0.0-4.99-0.99","d5gog6xj47sazgh",768,"194.csv","","341","resources/trios/L4T4A2.jpg","39","restless",0.6,0.2,0.5,0.761821478628286,"false"
"image-keyboard-response",310,241900,"0.0-4.99-1.99","d5gog6xj47sazgh",768,"194.csv","","null","resources/maskTrios/BBA2.jpg","null","",NA,NA,NA,NA,""
"image-keyboard-response",311,243102,"0.0-4.99-2.99","d5gog6xj47sazgh",768,"194.csv","","null","resources/images/fishbone.png","null","",NA,NA,NA,NA,""
"image-keyboard-response",312,243230,"0.0-4.100-0.100","d5gog6xj47sazgh",768,"194.csv","","126","resources/trios/L4T4A2.jpg","39","restless",0.6,0.2,0.5,0.712433447385396,"false"
"image-keyboard-response",313,243633,"0.0-4.100-1.100","d5gog6xj47sazgh",768,"194.csv","","null","resources/maskTrios/BBA2.jpg","null","",NA,NA,NA,NA,""
"image-keyboard-response",314,244835,"0.0-4.100-2.100","d5gog6xj47sazgh",768,"194.csv","","null","resources/images/fishbone.png","null","",NA,NA,NA,NA,""
"image-keyboard-response",315,247510,"0.0-4.101-0.101","d5gog6xj47sazgh",768,"194.csv","","2671.7999999998137","resources/trios/L4T4A2.jpg","39","restless",0.6,0.2,0.5,0.662240830958997,"false"
"image-keyboard-response",316,247914,"0.0-4.101-1.101","d5gog6xj47sazgh",768,"194.csv","","null","resources/maskTrios/BBA2.jpg","null","",NA,NA,NA,NA,""
"image-keyboard-response",317,249115,"0.0-4.101-2.101","d5gog6xj47sazgh",768,"194.csv","","null","resources/images/fishbone.png","null","",NA,NA,NA,NA,""
"image-keyboard-response",318,249207,"0.0-4.102-0.102","d5gog6xj47sazgh",768,"194.csv","","89.39999999990687","resources/trios/L4T4A2.jpg","38","restless",0.6,0.2,0.4,0.172243089576677,"true"
"image-keyboard-response",319,249610,"0.0-4.102-1.102","d5gog6xj47sazgh",768,"194.csv","","null","resources/maskTrios/BT4B.jpg","null","",NA,NA,NA,NA,""
"image-keyboard-response",320,250812,"0.0-4.102-2.102","d5gog6xj47sazgh",768,"194.csv","","null","resources/images/coin2.png","null","",NA,NA,NA,NA,""
"image-keyboard-response",321,251924,"0.0-4.103-0.103","d5gog6xj47sazgh",768,"194.csv","","1108.7999999998137","resources/trios/L4T4A2.jpg","39","restless",0.6,0.2,0.4,0.473703678938115,"false"
"image-keyboard-response",322,252326,"0.0-4.103-1.103","d5gog6xj47sazgh",768,"194.csv","","null","resources/maskTrios/BBA2.jpg","null","",NA,NA,NA,NA,""
"image-keyboard-response",323,253528,"0.0-4.103-2.103","d5gog6xj47sazgh",768,"194.csv","","null","resources/images/fishbone.png","null","",NA,NA,NA,NA,""
"image-keyboard-response",324,253533,"0.0-4.104-0.104","d5gog6xj47sazgh",768,"194.csv","","2.6000000000931323","resources/trios/L4T4A2.jpg","38","restless",0.6,0.2,0.4,0.608838792217435,"false"
"image-keyboard-response",325,253935,"0.0-4.104-1.104","d5gog6xj47sazgh",768,"194.csv","","null","resources/maskTrios/BT4B.jpg","null","",NA,NA,NA,NA,""
"image-keyboard-response",326,255137,"0.0-4.104-2.104","d5gog6xj47sazgh",768,"194.csv","","null","resources/images/fishbone.png","null","",NA,NA,NA,NA,""
"image-keyboard-response",327,255180,"0.0-4.105-0.105","d5gog6xj47sazgh",768,"194.csv","","40.3000000002794","resources/trios/L4T4A2.jpg","39","restless",0.6,0.2,0.4,0.021298261873482,"true"
"image-keyboard-response",328,255582,"0.0-4.105-1.105","d5gog6xj47sazgh",768,"194.csv","","null","resources/maskTrios/BBA2.jpg","null","",NA,NA,NA,NA,""
"image-keyboard-response",329,256785,"0.0-4.105-2.105","d5gog6xj47sazgh",768,"194.csv","","null","resources/images/coin2.png","null","",NA,NA,NA,NA,""
"image-keyboard-response",330,257008,"0.0-4.106-0.106","d5gog6xj47sazgh",768,"194.csv","","220.60000000009313","resources/trios/L4T4A2.jpg","37","restless",0.6,0.2,0.4,0.706260436760613,"false"
"image-keyboard-response",331,257411,"0.0-4.106-1.106","d5gog6xj47sazgh",768,"194.csv","","null","resources/maskTrios/L4BB.jpg","null","",NA,NA,NA,NA,""
"image-keyboard-response",332,258613,"0.0-4.106-2.106","d5gog6xj47sazgh",768,"194.csv","","null","resources/images/fishbone.png","null","",NA,NA,NA,NA,""
"image-keyboard-response",333,258752,"0.0-4.107-0.107","d5gog6xj47sazgh",768,"194.csv","","136.29999999981374","resources/trios/L4T4A2.jpg","38","restless",0.6,0.2,0.4,0.435373318129127,"false"
"image-keyboard-response",334,259154,"0.0-4.107-1.107","d5gog6xj47sazgh",768,"194.csv","","null","resources/maskTrios/BT4B.jpg","null","",NA,NA,NA,NA,""
"image-keyboard-response",335,260357,"0.0-4.107-2.107","d5gog6xj47sazgh",768,"194.csv","","null","resources/images/fishbone.png","null","",NA,NA,NA,NA,""
"image-keyboard-response",336,260598,"0.0-4.108-0.108","d5gog6xj47sazgh",768,"194.csv","","239","resources/trios/L4T4A2.jpg","38","restless",0.6,0.3,0.4,0.620040005670968,"false"
"image-keyboard-response",337,261001,"0.0-4.108-1.108","d5gog6xj47sazgh",768,"194.csv","","null","resources/maskTrios/BT4B.jpg","null","",NA,NA,NA,NA,""
"image-keyboard-response",338,262203,"0.0-4.108-2.108","d5gog6xj47sazgh",768,"194.csv","","null","resources/images/fishbone.png","null","",NA,NA,NA,NA,""
"image-keyboard-response",339,262270,"0.0-4.109-0.109","d5gog6xj47sazgh",768,"194.csv","","65","resources/trios/L4T4A2.jpg","37","restless",0.6,0.3,0.4,0.677760720647741,"false"
"image-keyboard-response",340,262673,"0.0-4.109-1.109","d5gog6xj47sazgh",768,"194.csv","","null","resources/maskTrios/L4BB.jpg","null","",NA,NA,NA,NA,""
"image-keyboard-response",341,263875,"0.0-4.109-2.109","d5gog6xj47sazgh",768,"194.csv","","null","resources/images/fishbone.png","null","",NA,NA,NA,NA,""
"image-keyboard-response",342,264296,"0.0-4.110-0.110","d5gog6xj47sazgh",768,"194.csv","","418.8000000002794","resources/trios/L4T4A2.jpg","39","restless",0.6,0.3,0.4,0.4862085272016,"false"
"image-keyboard-response",343,264699,"0.0-4.110-1.110","d5gog6xj47sazgh",768,"194.csv","","null","resources/maskTrios/BBA2.jpg","null","",NA,NA,NA,NA,""
"image-keyboard-response",344,265901,"0.0-4.110-2.110","d5gog6xj47sazgh",768,"194.csv","","null","resources/images/fishbone.png","null","",NA,NA,NA,NA,""
"image-keyboard-response",345,266002,"0.0-4.111-0.111","d5gog6xj47sazgh",768,"194.csv","","99.3000000002794","resources/trios/L4T4A2.jpg","39","restless",0.6,0.3,0.4,0.183785430321531,"true"
"image-keyboard-response",346,266405,"0.0-4.111-1.111","d5gog6xj47sazgh",768,"194.csv","","null","resources/maskTrios/BBA2.jpg","null","",NA,NA,NA,NA,""
"image-keyboard-response",347,267608,"0.0-4.111-2.111","d5gog6xj47sazgh",768,"194.csv","","null","resources/images/coin2.png","null","",NA,NA,NA,NA,""
"image-keyboard-response",348,267656,"0.0-4.112-0.112","d5gog6xj47sazgh",768,"194.csv","","46.10000000009313","resources/trios/L4T4A2.jpg","38","restless",0.6,0.3,0.4,0.889822205119352,"false"
"image-keyboard-response",349,268059,"0.0-4.112-1.112","d5gog6xj47sazgh",768,"194.csv","","null","resources/maskTrios/BT4B.jpg","null","",NA,NA,NA,NA,""
"image-keyboard-response",350,269261,"0.0-4.112-2.112","d5gog6xj47sazgh",768,"194.csv","","null","resources/images/fishbone.png","null","",NA,NA,NA,NA,""
"image-keyboard-response",351,269898,"0.0-4.113-0.113","d5gog6xj47sazgh",768,"194.csv","","635","resources/trios/L4T4A2.jpg","37","restless",0.6,0.3,0.4,0.783002253425236,"false"
"image-keyboard-response",352,270301,"0.0-4.113-1.113","d5gog6xj47sazgh",768,"194.csv","","null","resources/maskTrios/L4BB.jpg","null","",NA,NA,NA,NA,""
"image-keyboard-response",353,271503,"0.0-4.113-2.113","d5gog6xj47sazgh",768,"194.csv","","null","resources/images/fishbone.png","null","",NA,NA,NA,NA,""
"image-keyboard-response",354,271688,"0.0-4.114-0.114","d5gog6xj47sazgh",768,"194.csv","","182","resources/trios/L4T4A2.jpg","37","restless",0.6,0.3,0.4,0.738431367444141,"false"
"image-keyboard-response",355,272091,"0.0-4.114-1.114","d5gog6xj47sazgh",768,"194.csv","","null","resources/maskTrios/L4BB.jpg","null","",NA,NA,NA,NA,""
"image-keyboard-response",356,273293,"0.0-4.114-2.114","d5gog6xj47sazgh",768,"194.csv","","null","resources/images/fishbone.png","null","",NA,NA,NA,NA,""
"image-keyboard-response",357,273531,"0.0-4.115-0.115","d5gog6xj47sazgh",768,"194.csv","","236.10000000009313","resources/trios/L4T4A2.jpg","38","restless",0.5,0.3,0.4,0.351018269534111,"false"
"image-keyboard-response",358,273934,"0.0-4.115-1.115","d5gog6xj47sazgh",768,"194.csv","","null","resources/maskTrios/BT4B.jpg","null","",NA,NA,NA,NA,""
"image-keyboard-response",359,275136,"0.0-4.115-2.115","d5gog6xj47sazgh",768,"194.csv","","null","resources/images/fishbone.png","null","",NA,NA,NA,NA,""
"image-keyboard-response",360,275377,"0.0-4.116-0.116","d5gog6xj47sazgh",768,"194.csv","","238.60000000009313","resources/trios/L4T4A2.jpg","39","restless",0.5,0.3,0.4,0.998870891734773,"false"
"image-keyboard-response",361,275780,"0.0-4.116-1.116","d5gog6xj47sazgh",768,"194.csv","","null","resources/maskTrios/BBA2.jpg","null","",NA,NA,NA,NA,""
"image-keyboard-response",362,276983,"0.0-4.116-2.116","d5gog6xj47sazgh",768,"194.csv","","null","resources/images/fishbone.png","null","",NA,NA,NA,NA,""
"image-keyboard-response",363,277328,"0.0-4.117-0.117","d5gog6xj47sazgh",768,"194.csv","","343.29999999981374","resources/trios/L4T4A2.jpg","38","restless",0.5,0.3,0.3,0.610428406116556,"false"
"image-keyboard-response",364,277731,"0.0-4.117-1.117","d5gog6xj47sazgh",768,"194.csv","","null","resources/maskTrios/BT4B.jpg","null","",NA,NA,NA,NA,""
"image-keyboard-response",365,278933,"0.0-4.117-2.117","d5gog6xj47sazgh",768,"194.csv","","null","resources/images/fishbone.png","null","",NA,NA,NA,NA,""
"image-keyboard-response",366,279092,"0.0-4.118-0.118","d5gog6xj47sazgh",768,"194.csv","","156.20000000018626","resources/trios/L4T4A2.jpg","37","restless",0.4,0.3,0.3,0.509705708923828,"false"
"image-keyboard-response",367,279495,"0.0-4.118-1.118","d5gog6xj47sazgh",768,"194.csv","","null","resources/maskTrios/L4BB.jpg","null","",NA,NA,NA,NA,""
"image-keyboard-response",368,280697,"0.0-4.118-2.118","d5gog6xj47sazgh",768,"194.csv","","null","resources/images/fishbone.png","null","",NA,NA,NA,NA,""
"image-keyboard-response",369,280723,"0.0-4.119-0.119","d5gog6xj47sazgh",768,"194.csv","","24.399999999906868","resources/trios/L4T4A2.jpg","39","restless",0.4,0.3,0.3,0.969620020900465,"false"
"image-keyboard-response",370,281125,"0.0-4.119-1.119","d5gog6xj47sazgh",768,"194.csv","","null","resources/maskTrios/BBA2.jpg","null","",NA,NA,NA,NA,""
"image-keyboard-response",371,282327,"0.0-4.119-2.119","d5gog6xj47sazgh",768,"194.csv","","null","resources/images/fishbone.png","null","",NA,NA,NA,NA,""
"image-keyboard-response",372,282622,"0.0-4.120-0.120","d5gog6xj47sazgh",768,"194.csv","","293.29999999981374","resources/trios/L4T4A2.jpg","38","restless",0.4,0.3,0.3,0.858489272437352,"false"
"image-keyboard-response",373,283024,"0.0-4.120-1.120","d5gog6xj47sazgh",768,"194.csv","","null","resources/maskTrios/BT4B.jpg","null","",NA,NA,NA,NA,""
"image-keyboard-response",374,284225,"0.0-4.120-2.120","d5gog6xj47sazgh",768,"194.csv","","null","resources/images/fishbone.png","null","",NA,NA,NA,NA,""
"image-keyboard-response",375,284829,"0.0-4.121-0.121","d5gog6xj47sazgh",768,"194.csv","","601.7000000001863","resources/trios/L4T4A2.jpg","39","restless",0.4,0.4,0.3,0.547346149897607,"false"
"image-keyboard-response",376,285232,"0.0-4.121-1.121","d5gog6xj47sazgh",768,"194.csv","","null","resources/maskTrios/BBA2.jpg","null","",NA,NA,NA,NA,""
"image-keyboard-response",377,286434,"0.0-4.121-2.121","d5gog6xj47sazgh",768,"194.csv","","null","resources/images/fishbone.png","null","",NA,NA,NA,NA,""
"image-keyboard-response",378,286546,"0.0-4.122-0.122","d5gog6xj47sazgh",768,"194.csv","","109.39999999990687","resources/trios/L4T4A2.jpg","39","restless",0.4,0.4,0.3,0.706058579249211,"false"
"image-keyboard-response",379,286948,"0.0-4.122-1.122","d5gog6xj47sazgh",768,"194.csv","","null","resources/maskTrios/BBA2.jpg","null","",NA,NA,NA,NA,""
"image-keyboard-response",380,288150,"0.0-4.122-2.122","d5gog6xj47sazgh",768,"194.csv","","null","resources/images/fishbone.png","null","",NA,NA,NA,NA,""
"image-keyboard-response",381,288234,"0.0-4.123-0.123","d5gog6xj47sazgh",768,"194.csv","","82","resources/trios/L4T4A2.jpg","39","restless",0.4,0.4,0.2,0.880773347825837,"false"
"image-keyboard-response",382,288636,"0.0-4.123-1.123","d5gog6xj47sazgh",768,"194.csv","","null","resources/maskTrios/BBA2.jpg","null","",NA,NA,NA,NA,""
"image-keyboard-response",383,289838,"0.0-4.123-2.123","d5gog6xj47sazgh",768,"194.csv","","null","resources/images/fishbone.png","null","",NA,NA,NA,NA,""
"image-keyboard-response",384,290111,"0.0-4.124-0.124","d5gog6xj47sazgh",768,"194.csv","","270.29999999981374","resources/trios/L4T4A2.jpg","38","restless",0.4,0.4,0.2,0.143906117280326,"true"
"image-keyboard-response",385,290514,"0.0-4.124-1.124","d5gog6xj47sazgh",768,"194.csv","","null","resources/maskTrios/BT4B.jpg","null","",NA,NA,NA,NA,""
"image-keyboard-response",386,291717,"0.0-4.124-2.124","d5gog6xj47sazgh",768,"194.csv","","null","resources/images/coin2.png","null","",NA,NA,NA,NA,""
"image-keyboard-response",387,292282,"0.0-4.125-0.125","d5gog6xj47sazgh",768,"194.csv","","563.3999999999069","resources/trios/L4T4A2.jpg","37","restless",0.4,0.4,0.2,0.297181464616776,"true"
"image-keyboard-response",388,292685,"0.0-4.125-1.125","d5gog6xj47sazgh",768,"194.csv","","null","resources/maskTrios/L4BB.jpg","null","",NA,NA,NA,NA,""
"image-keyboard-response",389,293887,"0.0-4.125-2.125","d5gog6xj47sazgh",768,"194.csv","","null","resources/images/coin2.png","null","",NA,NA,NA,NA,""
"image-keyboard-response",390,293943,"0.0-4.126-0.126","d5gog6xj47sazgh",768,"194.csv","","54.10000000009313","resources/trios/L4T4A2.jpg","38","restless",0.4,0.4,0.2,0.192390518754299,"true"
"image-keyboard-response",391,294346,"0.0-4.126-1.126","d5gog6xj47sazgh",768,"194.csv","","null","resources/maskTrios/BT4B.jpg","null","",NA,NA,NA,NA,""
"image-keyboard-response",392,295548,"0.0-4.126-2.126","d5gog6xj47sazgh",768,"194.csv","","null","resources/images/coin2.png","null","",NA,NA,NA,NA,""
"image-keyboard-response",393,295965,"0.0-4.127-0.127","d5gog6xj47sazgh",768,"194.csv","","414.60000000009313","resources/trios/L4T4A2.jpg","38","restless",0.4,0.4,0.2,0.48574566538567,"false"
"image-keyboard-response",394,296368,"0.0-4.127-1.127","d5gog6xj47sazgh",768,"194.csv","","null","resources/maskTrios/BT4B.jpg","null","",NA,NA,NA,NA,""
"image-keyboard-response",395,297570,"0.0-4.127-2.127","d5gog6xj47sazgh",768,"194.csv","","null","resources/images/fishbone.png","null","",NA,NA,NA,NA,""
"image-keyboard-response",396,297871,"0.0-4.128-0.128","d5gog6xj47sazgh",768,"194.csv","","298.10000000009313","resources/trios/L4T4A2.jpg","37","restless",0.3,0.4,0.2,0.987386094680583,"false"
"image-keyboard-response",397,298274,"0.0-4.128-1.128","d5gog6xj47sazgh",768,"194.csv","","null","resources/maskTrios/L4BB.jpg","null","",NA,NA,NA,NA,""
"image-keyboard-response",398,299476,"0.0-4.128-2.128","d5gog6xj47sazgh",768,"194.csv","","null","resources/images/fishbone.png","null","",NA,NA,NA,NA,""
"image-keyboard-response",399,299833,"0.0-4.129-0.129","d5gog6xj47sazgh",768,"194.csv","","354.70000000018626","resources/trios/L4T4A2.jpg","39","restless",0.3,0.4,0.2,0.673681070622422,"false"
"image-keyboard-response",400,300236,"0.0-4.129-1.129","d5gog6xj47sazgh",768,"194.csv","","null","resources/maskTrios/BBA2.jpg","null","",NA,NA,NA,NA,""
"image-keyboard-response",401,301438,"0.0-4.129-2.129","d5gog6xj47sazgh",768,"194.csv","","null","resources/images/fishbone.png","null","",NA,NA,NA,NA,""
"image-keyboard-response",402,301517,"0.0-4.130-0.130","d5gog6xj47sazgh",768,"194.csv","","76.79999999981374","resources/trios/L4T4A2.jpg","38","restless",0.3,0.4,0.2,0.887113114863219,"false"
"image-keyboard-response",403,301920,"0.0-4.130-1.130","d5gog6xj47sazgh",768,"194.csv","","null","resources/maskTrios/BT4B.jpg","null","",NA,NA,NA,NA,""
"image-keyboard-response",404,303121,"0.0-4.130-2.130","d5gog6xj47sazgh",768,"194.csv","","null","resources/images/fishbone.png","null","",NA,NA,NA,NA,""
"image-keyboard-response",405,303301,"0.0-4.131-0.131","d5gog6xj47sazgh",768,"194.csv","","177.79999999981374","resources/trios/L4T4A2.jpg","39","restless",0.4,0.4,0.2,0.25518787608575,"false"
"image-keyboard-response",406,303704,"0.0-4.131-1.131","d5gog6xj47sazgh",768,"194.csv","","null","resources/maskTrios/BBA2.jpg","null","",NA,NA,NA,NA,""
"image-keyboard-response",407,304906,"0.0-4.131-2.131","d5gog6xj47sazgh",768,"194.csv","","null","resources/images/fishbone.png","null","",NA,NA,NA,NA,""
"image-keyboard-response",408,304943,"0.0-4.132-0.132","d5gog6xj47sazgh",768,"194.csv","","34.89999999990687","resources/trios/L4T4A2.jpg","37","restless",0.5,0.4,0.2,0.45169908214497,"true"
"image-keyboard-response",409,305346,"0.0-4.132-1.132","d5gog6xj47sazgh",768,"194.csv","","null","resources/maskTrios/L4BB.jpg","null","",NA,NA,NA,NA,""
"image-keyboard-response",410,306549,"0.0-4.132-2.132","d5gog6xj47sazgh",768,"194.csv","","null","resources/images/coin2.png","null","",NA,NA,NA,NA,""
"image-keyboard-response",411,306996,"0.0-4.133-0.133","d5gog6xj47sazgh",768,"194.csv","","444.79999999981374","resources/trios/L4T4A2.jpg","37","restless",0.5,0.4,0.2,0.42657796960301,"true"
"image-keyboard-response",412,307399,"0.0-4.133-1.133","d5gog6xj47sazgh",768,"194.csv","","null","resources/maskTrios/L4BB.jpg","null","",NA,NA,NA,NA,""
"image-keyboard-response",413,308601,"0.0-4.133-2.133","d5gog6xj47sazgh",768,"194.csv","","null","resources/images/coin2.png","null","",NA,NA,NA,NA,""
"image-keyboard-response",414,308834,"0.0-4.134-0.134","d5gog6xj47sazgh",768,"194.csv","","230.20000000018626","resources/trios/L4T4A2.jpg","37","restless",0.5,0.4,0.2,0.918860350615905,"false"
"image-keyboard-response",415,309236,"0.0-4.134-1.134","d5gog6xj47sazgh",768,"194.csv","","null","resources/maskTrios/L4BB.jpg","null","",NA,NA,NA,NA,""
"image-keyboard-response",416,310438,"0.0-4.134-2.134","d5gog6xj47sazgh",768,"194.csv","","null","resources/images/fishbone.png","null","",NA,NA,NA,NA,""
"image-keyboard-response",417,310522,"0.0-4.135-0.135","d5gog6xj47sazgh",768,"194.csv","","81.60000000009313","resources/trios/L4T4A2.jpg","38","restless",0.5,0.4,0.2,0.748438597602994,"false"
"image-keyboard-response",418,310925,"0.0-4.135-1.135","d5gog6xj47sazgh",768,"194.csv","","null","resources/maskTrios/BT4B.jpg","null","",NA,NA,NA,NA,""
"image-keyboard-response",419,312126,"0.0-4.135-2.135","d5gog6xj47sazgh",768,"194.csv","","null","resources/images/fishbone.png","null","",NA,NA,NA,NA,""
"image-keyboard-response",420,312451,"0.0-4.136-0.136","d5gog6xj47sazgh",768,"194.csv","","322.29999999981374","resources/trios/L4T4A2.jpg","38","restless",0.5,0.4,0.2,0.862854318881172,"false"
"image-keyboard-response",421,312855,"0.0-4.136-1.136","d5gog6xj47sazgh",768,"194.csv","","null","resources/maskTrios/BT4B.jpg","null","",NA,NA,NA,NA,""
"image-keyboard-response",422,314057,"0.0-4.136-2.136","d5gog6xj47sazgh",768,"194.csv","","null","resources/images/fishbone.png","null","",NA,NA,NA,NA,""
"image-keyboard-response",423,314113,"0.0-4.137-0.137","d5gog6xj47sazgh",768,"194.csv","","53","resources/trios/L4T4A2.jpg","38","restless",0.5,0.4,0.2,0.0550252046874706,"true"
"image-keyboard-response",424,314516,"0.0-4.137-1.137","d5gog6xj47sazgh",768,"194.csv","","null","resources/maskTrios/BT4B.jpg","null","",NA,NA,NA,NA,""
"image-keyboard-response",425,315718,"0.0-4.137-2.137","d5gog6xj47sazgh",768,"194.csv","","null","resources/images/coin2.png","null","",NA,NA,NA,NA,""
"image-keyboard-response",426,315758,"0.0-4.138-0.138","d5gog6xj47sazgh",768,"194.csv","","37.39999999990687","resources/trios/L4T4A2.jpg","38","restless",0.5,0.4,0.2,0.625215540304285,"false"
"image-keyboard-response",427,316160,"0.0-4.138-1.138","d5gog6xj47sazgh",768,"194.csv","","null","resources/maskTrios/BT4B.jpg","null","",NA,NA,NA,NA,""
"image-keyboard-response",428,317362,"0.0-4.138-2.138","d5gog6xj47sazgh",768,"194.csv","","null","resources/images/fishbone.png","null","",NA,NA,NA,NA,""
"image-keyboard-response",429,317549,"0.0-4.139-0.139","d5gog6xj47sazgh",768,"194.csv","","184.59999999962747","resources/trios/L4T4A2.jpg","39","restless",0.5,0.5,0.2,0.246698645555719,"false"
"image-keyboard-response",430,317952,"0.0-4.139-1.139","d5gog6xj47sazgh",768,"194.csv","","null","resources/maskTrios/BBA2.jpg","null","",NA,NA,NA,NA,""
"image-keyboard-response",431,319153,"0.0-4.139-2.139","d5gog6xj47sazgh",768,"194.csv","","null","resources/images/fishbone.png","null","",NA,NA,NA,NA,""
"image-keyboard-response",432,319330,"0.0-4.140-0.140","d5gog6xj47sazgh",768,"194.csv","","174.20000000018626","resources/trios/L4T4A2.jpg","38","restless",0.5,0.5,0.2,0.59800486904557,"false"
"image-keyboard-response",433,319732,"0.0-4.140-1.140","d5gog6xj47sazgh",768,"194.csv","","null","resources/maskTrios/BT4B.jpg","null","",NA,NA,NA,NA,""
"image-keyboard-response",434,320934,"0.0-4.140-2.140","d5gog6xj47sazgh",768,"194.csv","","null","resources/images/fishbone.png","null","",NA,NA,NA,NA,""
"image-keyboard-response",435,321147,"0.0-4.141-0.141","d5gog6xj47sazgh",768,"194.csv","","210.70000000018626","resources/trios/L4T4A2.jpg","37","restless",0.5,0.5,0.2,0.880572885722575,"false"
"image-keyboard-response",436,321550,"0.0-4.141-1.141","d5gog6xj47sazgh",768,"194.csv","","null","resources/maskTrios/L4BB.jpg","null","",NA,NA,NA,NA,""
"image-keyboard-response",437,322752,"0.0-4.141-2.141","d5gog6xj47sazgh",768,"194.csv","","null","resources/images/fishbone.png","null","",NA,NA,NA,NA,""
"image-keyboard-response",438,322807,"0.0-4.142-0.142","d5gog6xj47sazgh",768,"194.csv","","52.5","resources/trios/L4T4A2.jpg","38","restless",0.5,0.6,0.2,0.761416705527723,"false"
"image-keyboard-response",439,323210,"0.0-4.142-1.142","d5gog6xj47sazgh",768,"194.csv","","null","resources/maskTrios/BT4B.jpg","null","",NA,NA,NA,NA,""
"image-keyboard-response",440,324412,"0.0-4.142-2.142","d5gog6xj47sazgh",768,"194.csv","","null","resources/images/fishbone.png","null","",NA,NA,NA,NA,""
"image-keyboard-response",441,324732,"0.0-4.143-0.143","d5gog6xj47sazgh",768,"194.csv","","317.6999999997206","resources/trios/L4T4A2.jpg","39","restless",0.5,0.6,0.2,0.376147703856482,"false"
"image-keyboard-response",442,325136,"0.0-4.143-1.143","d5gog6xj47sazgh",768,"194.csv","","null","resources/maskTrios/BBA2.jpg","null","",NA,NA,NA,NA,""
"image-keyboard-response",443,326338,"0.0-4.143-2.143","d5gog6xj47sazgh",768,"194.csv","","null","resources/images/fishbone.png","null","",NA,NA,NA,NA,""
"image-keyboard-response",444,326722,"0.0-4.144-0.144","d5gog6xj47sazgh",768,"194.csv","","382","resources/trios/L4T4A2.jpg","38","restless",0.5,0.6,0.2,0.590211221739425,"true"
"image-keyboard-response",445,327125,"0.0-4.144-1.144","d5gog6xj47sazgh",768,"194.csv","","null","resources/maskTrios/BT4B.jpg","null","",NA,NA,NA,NA,""
"image-keyboard-response",446,328327,"0.0-4.144-2.144","d5gog6xj47sazgh",768,"194.csv","","null","resources/images/coin2.png","null","",NA,NA,NA,NA,""
"image-keyboard-response",447,328608,"0.0-4.145-0.145","d5gog6xj47sazgh",768,"194.csv","","279","resources/trios/L4T4A2.jpg","39","restless",0.4,0.6,0.2,0.0803686747281833,"true"
"image-keyboard-response",448,329011,"0.0-4.145-1.145","d5gog6xj47sazgh",768,"194.csv","","null","resources/maskTrios/BBA2.jpg","null","",NA,NA,NA,NA,""
"image-keyboard-response",449,330214,"0.0-4.145-2.145","d5gog6xj47sazgh",768,"194.csv","","null","resources/images/coin2.png","null","",NA,NA,NA,NA,""
"image-keyboard-response",450,330523,"0.0-4.146-0.146","d5gog6xj47sazgh",768,"194.csv","","306.70000000018626","resources/trios/L4T4A2.jpg","39","restless",0.4,0.6,0.2,0.334549370427499,"false"
"image-keyboard-response",451,330925,"0.0-4.146-1.146","d5gog6xj47sazgh",768,"194.csv","","null","resources/maskTrios/BBA2.jpg","null","",NA,NA,NA,NA,""
"image-keyboard-response",452,332127,"0.0-4.146-2.146","d5gog6xj47sazgh",768,"194.csv","","null","resources/images/fishbone.png","null","",NA,NA,NA,NA,""
"image-keyboard-response",453,332540,"0.0-4.147-0.147","d5gog6xj47sazgh",768,"194.csv","","411.10000000009313","resources/trios/L4T4A2.jpg","38","restless",0.4,0.6,0.2,0.650124750923873,"false"
"image-keyboard-response",454,332943,"0.0-4.147-1.147","d5gog6xj47sazgh",768,"194.csv","","null","resources/maskTrios/BT4B.jpg","null","",NA,NA,NA,NA,""
"image-keyboard-response",455,334145,"0.0-4.147-2.147","d5gog6xj47sazgh",768,"194.csv","","null","resources/images/fishbone.png","null","",NA,NA,NA,NA,""
"image-keyboard-response",456,334453,"0.0-4.148-0.148","d5gog6xj47sazgh",768,"194.csv","","305.39999999990687","resources/trios/L4T4A2.jpg","37","restless",0.5,0.6,0.1,0.799239697431987,"false"
"image-keyboard-response",457,334855,"0.0-4.148-1.148","d5gog6xj47sazgh",768,"194.csv","","null","resources/maskTrios/L4BB.jpg","null","",NA,NA,NA,NA,""
"image-keyboard-response",458,336057,"0.0-4.148-2.148","d5gog6xj47sazgh",768,"194.csv","","null","resources/images/fishbone.png","null","",NA,NA,NA,NA,""
"image-keyboard-response",459,336119,"0.0-4.149-0.149","d5gog6xj47sazgh",768,"194.csv","","59.200000000186265","resources/trios/L4T4A2.jpg","37","restless",0.5,0.6,0.1,0.109507808026177,"true"
"image-keyboard-response",460,336522,"0.0-4.149-1.149","d5gog6xj47sazgh",768,"194.csv","","null","resources/maskTrios/L4BB.jpg","null","",NA,NA,NA,NA,""
"image-keyboard-response",461,337724,"0.0-4.149-2.149","d5gog6xj47sazgh",768,"194.csv","","null","resources/images/coin2.png","null","",NA,NA,NA,NA,""
"image-keyboard-response",462,337922,"0.0-4.150-0.150","d5gog6xj47sazgh",768,"194.csv","","196","resources/trios/L4T4A2.jpg","38","restless",0.5,0.6,0.1,0.692783341378337,"false"
"image-keyboard-response",463,338325,"0.0-4.150-1.150","d5gog6xj47sazgh",768,"194.csv","","null","resources/maskTrios/BT4B.jpg","null","",NA,NA,NA,NA,""
"image-keyboard-response",464,339527,"0.0-4.150-2.150","d5gog6xj47sazgh",768,"194.csv","","null","resources/images/fishbone.png","null","",NA,NA,NA,NA,""
"image-keyboard-response",465,340099,"0.0-4.151-0.151","d5gog6xj47sazgh",768,"194.csv","","569.2999999998137","resources/trios/L4T4A2.jpg","37","restless",0.5,0.6,0.1,0.411279409320671,"true"
"image-keyboard-response",466,340502,"0.0-4.151-1.151","d5gog6xj47sazgh",768,"194.csv","","null","resources/maskTrios/L4BB.jpg","null","",NA,NA,NA,NA,""
"image-keyboard-response",467,341705,"0.0-4.151-2.151","d5gog6xj47sazgh",768,"194.csv","","null","resources/images/coin2.png","null","",NA,NA,NA,NA,""
"image-keyboard-response",468,341734,"0.0-4.152-0.152","d5gog6xj47sazgh",768,"194.csv","","27.199999999720603","resources/trios/L4T4A2.jpg","38","restless",0.5,0.6,0.1,0.302087312369752,"true"
"image-keyboard-response",469,342137,"0.0-4.152-1.152","d5gog6xj47sazgh",768,"194.csv","","null","resources/maskTrios/BT4B.jpg","null","",NA,NA,NA,NA,""
"image-keyboard-response",470,343339,"0.0-4.152-2.152","d5gog6xj47sazgh",768,"194.csv","","null","resources/images/coin2.png","null","",NA,NA,NA,NA,""
"image-keyboard-response",471,343843,"0.0-4.153-0.153","d5gog6xj47sazgh",768,"194.csv","","500.89999999990687","resources/trios/L4T4A2.jpg","39","restless",0.5,0.6,0.1,0.958592684012161,"false"
"image-keyboard-response",472,344246,"0.0-4.153-1.153","d5gog6xj47sazgh",768,"194.csv","","null","resources/maskTrios/BBA2.jpg","null","",NA,NA,NA,NA,""
"image-keyboard-response",473,345448,"0.0-4.153-2.153","d5gog6xj47sazgh",768,"194.csv","","null","resources/images/fishbone.png","null","",NA,NA,NA,NA,""
"image-keyboard-response",474,345594,"0.0-4.154-0.154","d5gog6xj47sazgh",768,"194.csv","","143.89999999990687","resources/trios/L4T4A2.jpg","38","restless",0.5,0.6,0.1,0.676210341576018,"false"
"image-keyboard-response",475,345997,"0.0-4.154-1.154","d5gog6xj47sazgh",768,"194.csv","","null","resources/maskTrios/BT4B.jpg","null","",NA,NA,NA,NA,""
"image-keyboard-response",476,347199,"0.0-4.154-2.154","d5gog6xj47sazgh",768,"194.csv","","null","resources/images/fishbone.png","null","",NA,NA,NA,NA,""
"image-keyboard-response",477,347435,"0.0-4.155-0.155","d5gog6xj47sazgh",768,"194.csv","","234","resources/trios/L4T4A2.jpg","37","restless",0.5,0.6,0.1,0.213307741990407,"true"
"image-keyboard-response",478,347837,"0.0-4.155-1.155","d5gog6xj47sazgh",768,"194.csv","","null","resources/maskTrios/L4BB.jpg","null","",NA,NA,NA,NA,""
"image-keyboard-response",479,349039,"0.0-4.155-2.155","d5gog6xj47sazgh",768,"194.csv","","null","resources/images/coin2.png","null","",NA,NA,NA,NA,""
"image-keyboard-response",480,349134,"0.0-4.156-0.156","d5gog6xj47sazgh",768,"194.csv","","92.29999999981374","resources/trios/L4T4A2.jpg","37","restless",0.5,0.6,0.1,0.0791505645956694,"true"
"image-keyboard-response",481,349537,"0.0-4.156-1.156","d5gog6xj47sazgh",768,"194.csv","","null","resources/maskTrios/L4BB.jpg","null","",NA,NA,NA,NA,""
"image-keyboard-response",482,350739,"0.0-4.156-2.156","d5gog6xj47sazgh",768,"194.csv","","null","resources/images/coin2.png","null","",NA,NA,NA,NA,""
"image-keyboard-response",483,350982,"0.0-4.157-0.157","d5gog6xj47sazgh",768,"194.csv","","240.29999999981374","resources/trios/L4T4A2.jpg","38","restless",0.5,0.6,0.1,0.0700347351791129,"true"
"image-keyboard-response",484,351384,"0.0-4.157-1.157","d5gog6xj47sazgh",768,"194.csv","","null","resources/maskTrios/BT4B.jpg","null","",NA,NA,NA,NA,""
"image-keyboard-response",485,352587,"0.0-4.157-2.157","d5gog6xj47sazgh",768,"194.csv","","null","resources/images/coin2.png","null","",NA,NA,NA,NA,""
"image-keyboard-response",486,352760,"0.0-4.158-0.158","d5gog6xj47sazgh",768,"194.csv","","170.5","resources/trios/L4T4A2.jpg","38","restless",0.5,0.6,0.1,0.399474699933713,"true"
"image-keyboard-response",487,353162,"0.0-4.158-1.158","d5gog6xj47sazgh",768,"194.csv","","null","resources/maskTrios/BT4B.jpg","null","",NA,NA,NA,NA,""
"image-keyboard-response",488,354365,"0.0-4.158-2.158","d5gog6xj47sazgh",768,"194.csv","","null","resources/images/coin2.png","null","",NA,NA,NA,NA,""
"image-keyboard-response",489,354423,"0.0-4.159-0.159","d5gog6xj47sazgh",768,"194.csv","","55.89999999990687","resources/trios/L4T4A2.jpg","39","restless",0.5,0.6,0.1,0.814757800800707,"false"
"image-keyboard-response",490,354826,"0.0-4.159-1.159","d5gog6xj47sazgh",768,"194.csv","","null","resources/maskTrios/BBA2.jpg","null","",NA,NA,NA,NA,""
"image-keyboard-response",491,356028,"0.0-4.159-2.159","d5gog6xj47sazgh",768,"194.csv","","null","resources/images/fishbone.png","null","",NA,NA,NA,NA,""
"image-keyboard-response",492,356323,"0.0-4.160-0.160","d5gog6xj47sazgh",768,"194.csv","","294.10000000009313","resources/trios/L4T4A2.jpg","39","restless",0.4,0.6,0.2,0.335585328500667,"false"
"image-keyboard-response",493,356725,"0.0-4.160-1.160","d5gog6xj47sazgh",768,"194.csv","","null","resources/maskTrios/BBA2.jpg","null","",NA,NA,NA,NA,""
"image-keyboard-response",494,357926,"0.0-4.160-2.160","d5gog6xj47sazgh",768,"194.csv","","null","resources/images/fishbone.png","null","",NA,NA,NA,NA,""
"image-keyboard-response",495,358087,"0.0-4.161-0.161","d5gog6xj47sazgh",768,"194.csv","","158.39999999990687","resources/trios/L4T4A2.jpg","38","restless",0.4,0.6,0.2,0.925105078273919,"false"
"image-keyboard-response",496,358490,"0.0-4.161-1.161","d5gog6xj47sazgh",768,"194.csv","","null","resources/maskTrios/BT4B.jpg","null","",NA,NA,NA,NA,""
"image-keyboard-response",497,359692,"0.0-4.161-2.161","d5gog6xj47sazgh",768,"194.csv","","null","resources/images/fishbone.png","null","",NA,NA,NA,NA,""
"image-keyboard-response",498,359831,"0.0-4.162-0.162","d5gog6xj47sazgh",768,"194.csv","","136.8000000002794","resources/trios/L4T4A2.jpg","39","restless",0.4,0.6,0.2,0.320776077189101,"false"
"image-keyboard-response",499,360234,"0.0-4.162-1.162","d5gog6xj47sazgh",768,"194.csv","","null","resources/maskTrios/BBA2.jpg","null","",NA,NA,NA,NA,""
"image-keyboard-response",500,361436,"0.0-4.162-2.162","d5gog6xj47sazgh",768,"194.csv","","null","resources/images/fishbone.png","null","",NA,NA,NA,NA,""
"image-keyboard-response",501,361496,"0.0-4.163-0.163","d5gog6xj47sazgh",768,"194.csv","","57.200000000186265","resources/trios/L4T4A2.jpg","39","restless",0.5,0.6,0.2,0.624485034199042,"false"
"image-keyboard-response",502,361899,"0.0-4.163-1.163","d5gog6xj47sazgh",768,"194.csv","","null","resources/maskTrios/BBA2.jpg","null","",NA,NA,NA,NA,""
"image-keyboard-response",503,363101,"0.0-4.163-2.163","d5gog6xj47sazgh",768,"194.csv","","null","resources/images/fishbone.png","null","",NA,NA,NA,NA,""
"image-keyboard-response",504,363282,"0.0-4.164-0.164","d5gog6xj47sazgh",768,"194.csv","","178.5","resources/trios/L4T4A2.jpg","39","restless",0.5,0.6,0.2,0.0554302951939503,"true"
"image-keyboard-response",505,363687,"0.0-4.164-1.164","d5gog6xj47sazgh",768,"194.csv","","null","resources/maskTrios/BBA2.jpg","null","",NA,NA,NA,NA,""
"image-keyboard-response",506,364889,"0.0-4.164-2.164","d5gog6xj47sazgh",768,"194.csv","","null","resources/images/coin2.png","null","",NA,NA,NA,NA,""
"image-keyboard-response",507,365276,"0.0-4.165-0.165","d5gog6xj47sazgh",768,"194.csv","","384.3000000002794","resources/trios/L4T4A2.jpg","37","restless",0.5,0.6,0.2,0.255029559765999,"true"
"image-keyboard-response",508,365679,"0.0-4.165-1.165","d5gog6xj47sazgh",768,"194.csv","","null","resources/maskTrios/L4BB.jpg","null","",NA,NA,NA,NA,""
"image-keyboard-response",509,366882,"0.0-4.165-2.165","d5gog6xj47sazgh",768,"194.csv","","null","resources/images/coin2.png","null","",NA,NA,NA,NA,""
"image-keyboard-response",510,367094,"0.0-4.166-0.166","d5gog6xj47sazgh",768,"194.csv","","209.59999999962747","resources/trios/L4T4A2.jpg","37","restless",0.6,0.6,0.2,0.362438253634819,"true"
"image-keyboard-response",511,367497,"0.0-4.166-1.166","d5gog6xj47sazgh",768,"194.csv","","null","resources/maskTrios/L4BB.jpg","null","",NA,NA,NA,NA,""
"image-keyboard-response",512,368700,"0.0-4.166-2.166","d5gog6xj47sazgh",768,"194.csv","","null","resources/images/coin2.png","null","",NA,NA,NA,NA,""
"image-keyboard-response",513,369029,"0.0-4.167-0.167","d5gog6xj47sazgh",768,"194.csv","","327","resources/trios/L4T4A2.jpg","38","restless",0.6,0.6,0.1,0.238049736183668,"true"
"image-keyboard-response",514,369433,"0.0-4.167-1.167","d5gog6xj47sazgh",768,"194.csv","","null","resources/maskTrios/BT4B.jpg","null","",NA,NA,NA,NA,""
"image-keyboard-response",515,370636,"0.0-4.167-2.167","d5gog6xj47sazgh",768,"194.csv","","null","resources/images/coin2.png","null","",NA,NA,NA,NA,""
"image-keyboard-response",516,370780,"0.0-4.168-0.168","d5gog6xj47sazgh",768,"194.csv","","140.59999999962747","resources/trios/L4T4A2.jpg","38","restless",0.6,0.6,0.1,0.344230363488038,"true"
"image-keyboard-response",517,371182,"0.0-4.168-1.168","d5gog6xj47sazgh",768,"194.csv","","null","resources/maskTrios/BT4B.jpg","null","",NA,NA,NA,NA,""
"image-keyboard-response",518,372385,"0.0-4.168-2.168","d5gog6xj47sazgh",768,"194.csv","","null","resources/images/coin2.png","null","",NA,NA,NA,NA,""
"image-keyboard-response",519,372539,"0.0-4.169-0.169","d5gog6xj47sazgh",768,"194.csv","","152","resources/trios/L4T4A2.jpg","37","restless",0.6,0.6,0.1,0.842446497967201,"false"
"image-keyboard-response",520,372942,"0.0-4.169-1.169","d5gog6xj47sazgh",768,"194.csv","","null","resources/maskTrios/L4BB.jpg","null","",NA,NA,NA,NA,""
"image-keyboard-response",521,374144,"0.0-4.169-2.169","d5gog6xj47sazgh",768,"194.csv","","null","resources/images/fishbone.png","null","",NA,NA,NA,NA,""
"image-keyboard-response",522,374408,"0.0-4.170-0.170","d5gog6xj47sazgh",768,"194.csv","","261.09999999962747","resources/trios/L4T4A2.jpg","38","restless",0.6,0.6,0.2,0.353429069364559,"true"
"image-keyboard-response",523,374810,"0.0-4.170-1.170","d5gog6xj47sazgh",768,"194.csv","","null","resources/maskTrios/BT4B.jpg","null","",NA,NA,NA,NA,""
"image-keyboard-response",524,376013,"0.0-4.170-2.170","d5gog6xj47sazgh",768,"194.csv","","null","resources/images/coin2.png","null","",NA,NA,NA,NA,""
"image-keyboard-response",525,376108,"0.0-4.171-0.171","d5gog6xj47sazgh",768,"194.csv","","92.59999999962747","resources/trios/L4T4A2.jpg","39","restless",0.6,0.6,0.2,0.733855915132532,"false"
"image-keyboard-response",526,376510,"0.0-4.171-1.171","d5gog6xj47sazgh",768,"194.csv","","null","resources/maskTrios/BBA2.jpg","null","",NA,NA,NA,NA,""
"image-keyboard-response",527,377713,"0.0-4.171-2.171","d5gog6xj47sazgh",768,"194.csv","","null","resources/images/fishbone.png","null","",NA,NA,NA,NA,""
"image-keyboard-response",528,377974,"0.0-4.172-0.172","d5gog6xj47sazgh",768,"194.csv","","258.90000000037253","resources/trios/L4T4A2.jpg","37","restless",0.6,0.6,0.2,0.670755964209569,"false"
"image-keyboard-response",529,378377,"0.0-4.172-1.172","d5gog6xj47sazgh",768,"194.csv","","null","resources/maskTrios/L4BB.jpg","null","",NA,NA,NA,NA,""
"image-keyboard-response",530,379579,"0.0-4.172-2.172","d5gog6xj47sazgh",768,"194.csv","","null","resources/images/fishbone.png","null","",NA,NA,NA,NA,""
"image-keyboard-response",531,379805,"0.0-4.173-0.173","d5gog6xj47sazgh",768,"194.csv","","224","resources/trios/L4T4A2.jpg","37","restless",0.6,0.6,0.2,0.537418607818749,"true"
"image-keyboard-response",532,380208,"0.0-4.173-1.173","d5gog6xj47sazgh",768,"194.csv","","null","resources/maskTrios/L4BB.jpg","null","",NA,NA,NA,NA,""
"image-keyboard-response",533,381411,"0.0-4.173-2.173","d5gog6xj47sazgh",768,"194.csv","","null","resources/images/coin2.png","null","",NA,NA,NA,NA,""
"image-keyboard-response",534,381699,"0.0-4.174-0.174","d5gog6xj47sazgh",768,"194.csv","","285.39999999990687","resources/trios/L4T4A2.jpg","37","restless",0.6,0.6,0.3,0.30808842120485,"true"
"image-keyboard-response",535,382102,"0.0-4.174-1.174","d5gog6xj47sazgh",768,"194.csv","","null","resources/maskTrios/L4BB.jpg","null","",NA,NA,NA,NA,""
"image-keyboard-response",536,383304,"0.0-4.174-2.174","d5gog6xj47sazgh",768,"194.csv","","null","resources/images/coin2.png","null","",NA,NA,NA,NA,""
"image-keyboard-response",537,383566,"0.0-4.175-0.175","d5gog6xj47sazgh",768,"194.csv","","259.5","resources/trios/L4T4A2.jpg","38","restless",0.6,0.6,0.4,0.597478573094791,"true"
"image-keyboard-response",538,383969,"0.0-4.175-1.175","d5gog6xj47sazgh",768,"194.csv","","null","resources/maskTrios/BT4B.jpg","null","",NA,NA,NA,NA,""
"image-keyboard-response",539,385172,"0.0-4.175-2.175","d5gog6xj47sazgh",768,"194.csv","","null","resources/images/coin2.png","null","",NA,NA,NA,NA,""
"image-keyboard-response",540,385560,"0.0-4.176-0.176","d5gog6xj47sazgh",768,"194.csv","","385.5","resources/trios/L4T4A2.jpg","38","restless",0.6,0.6,0.4,0.617270228427538,"false"
"image-keyboard-response",541,385963,"0.0-4.176-1.176","d5gog6xj47sazgh",768,"194.csv","","null","resources/maskTrios/BT4B.jpg","null","",NA,NA,NA,NA,""
"image-keyboard-response",542,387165,"0.0-4.176-2.176","d5gog6xj47sazgh",768,"194.csv","","null","resources/images/fishbone.png","null","",NA,NA,NA,NA,""
"image-keyboard-response",543,387330,"0.0-4.177-0.177","d5gog6xj47sazgh",768,"194.csv","","163","resources/trios/L4T4A2.jpg","39","restless",0.6,0.7,0.4,0.572230015015549,"false"
"image-keyboard-response",544,387734,"0.0-4.177-1.177","d5gog6xj47sazgh",768,"194.csv","","null","resources/maskTrios/BBA2.jpg","null","",NA,NA,NA,NA,""
"image-keyboard-response",545,388936,"0.0-4.177-2.177","d5gog6xj47sazgh",768,"194.csv","","null","resources/images/fishbone.png","null","",NA,NA,NA,NA,""
"image-keyboard-response",546,389209,"0.0-4.178-0.178","d5gog6xj47sazgh",768,"194.csv","","270.39999999990687","resources/trios/L4T4A2.jpg","38","restless",0.6,0.7,0.4,0.584436644769363,"true"
"image-keyboard-response",547,389612,"0.0-4.178-1.178","d5gog6xj47sazgh",768,"194.csv","","null","resources/maskTrios/BT4B.jpg","null","",NA,NA,NA,NA,""
"image-keyboard-response",548,390815,"0.0-4.178-2.178","d5gog6xj47sazgh",768,"194.csv","","null","resources/images/coin2.png","null","",NA,NA,NA,NA,""
"image-keyboard-response",549,390957,"0.0-4.179-0.179","d5gog6xj47sazgh",768,"194.csv","","139.60000000009313","resources/trios/L4T4A2.jpg","37","restless",0.5,0.8,0.4,0.321468117280369,"true"
"image-keyboard-response",550,391360,"0.0-4.179-1.179","d5gog6xj47sazgh",768,"194.csv","","null","resources/maskTrios/L4BB.jpg","null","",NA,NA,NA,NA,""
"image-keyboard-response",551,392562,"0.0-4.179-2.179","d5gog6xj47sazgh",768,"194.csv","","null","resources/images/coin2.png","null","",NA,NA,NA,NA,""
"image-keyboard-response",552,392733,"0.0-4.180-0.180","d5gog6xj47sazgh",768,"194.csv","","168.39999999990687","resources/trios/L4T4A2.jpg","37","restless",0.5,0.8,0.4,0.919448699868581,"false"
"image-keyboard-response",553,393136,"0.0-4.180-1.180","d5gog6xj47sazgh",768,"194.csv","","null","resources/maskTrios/L4BB.jpg","null","",NA,NA,NA,NA,""
"image-keyboard-response",554,394339,"0.0-4.180-2.180","d5gog6xj47sazgh",768,"194.csv","","null","resources/images/fishbone.png","null","",NA,NA,NA,NA,""
"image-keyboard-response",555,394439,"0.0-4.181-0.181","d5gog6xj47sazgh",768,"194.csv","","97.39999999990687","resources/trios/L4T4A2.jpg","38","restless",0.5,0.8,0.4,0.0671653256238878,"true"
"image-keyboard-response",556,394842,"0.0-4.181-1.181","d5gog6xj47sazgh",768,"194.csv","","null","resources/maskTrios/BT4B.jpg","null","",NA,NA,NA,NA,""
"image-keyboard-response",557,396044,"0.0-4.181-2.181","d5gog6xj47sazgh",768,"194.csv","","null","resources/images/coin2.png","null","",NA,NA,NA,NA,""
"image-keyboard-response",558,396257,"0.0-4.182-0.182","d5gog6xj47sazgh",768,"194.csv","","210.70000000018626","resources/trios/L4T4A2.jpg","39","restless",0.5,0.8,0.4,0.796068870922475,"false"
"image-keyboard-response",559,396660,"0.0-4.182-1.182","d5gog6xj47sazgh",768,"194.csv","","null","resources/maskTrios/BBA2.jpg","null","",NA,NA,NA,NA,""
"image-keyboard-response",560,397862,"0.0-4.182-2.182","d5gog6xj47sazgh",768,"194.csv","","null","resources/images/fishbone.png","null","",NA,NA,NA,NA,""
"image-keyboard-response",561,398008,"0.0-4.183-0.183","d5gog6xj47sazgh",768,"194.csv","","143.5","resources/trios/L4T4A2.jpg","37","restless",0.5,0.8,0.5,0.627001507246039,"false"
"image-keyboard-response",562,398411,"0.0-4.183-1.183","d5gog6xj47sazgh",768,"194.csv","","null","resources/maskTrios/L4BB.jpg","null","",NA,NA,NA,NA,""
"image-keyboard-response",563,399613,"0.0-4.183-2.183","d5gog6xj47sazgh",768,"194.csv","","null","resources/images/fishbone.png","null","",NA,NA,NA,NA,""
"image-keyboard-response",564,399776,"0.0-4.184-0.184","d5gog6xj47sazgh",768,"194.csv","","160.79999999981374","resources/trios/L4T4A2.jpg","37","restless",0.5,0.8,0.5,0.272122706406518,"true"
"image-keyboard-response",565,400179,"0.0-4.184-1.184","d5gog6xj47sazgh",768,"194.csv","","null","resources/maskTrios/L4BB.jpg","null","",NA,NA,NA,NA,""
"image-keyboard-response",566,401381,"0.0-4.184-2.184","d5gog6xj47sazgh",768,"194.csv","","null","resources/images/coin2.png","null","",NA,NA,NA,NA,""
"image-keyboard-response",567,401609,"0.0-4.185-0.185","d5gog6xj47sazgh",768,"194.csv","","225.89999999990687","resources/trios/L4T4A2.jpg","38","restless",0.5,0.8,0.5,0.107876106497851,"true"
"image-keyboard-response",568,402012,"0.0-4.185-1.185","d5gog6xj47sazgh",768,"194.csv","","null","resources/maskTrios/BT4B.jpg","null","",NA,NA,NA,NA,""
"image-keyboard-response",569,403215,"0.0-4.185-2.185","d5gog6xj47sazgh",768,"194.csv","","null","resources/images/coin2.png","null","",NA,NA,NA,NA,""
"image-keyboard-response",570,403395,"0.0-4.186-0.186","d5gog6xj47sazgh",768,"194.csv","","177.5","resources/trios/L4T4A2.jpg","39","restless",0.6,0.7,0.5,0.705283824831775,"false"
"image-keyboard-response",571,403797,"0.0-4.186-1.186","d5gog6xj47sazgh",768,"194.csv","","null","resources/maskTrios/BBA2.jpg","null","",NA,NA,NA,NA,""
"image-keyboard-response",572,404999,"0.0-4.186-2.186","d5gog6xj47sazgh",768,"194.csv","","null","resources/images/fishbone.png","null","",NA,NA,NA,NA,""
"image-keyboard-response",573,405160,"0.0-4.187-0.187","d5gog6xj47sazgh",768,"194.csv","","158.5","resources/trios/L4T4A2.jpg","38","restless",0.6,0.7,0.5,0.07833929495321,"true"
"image-keyboard-response",574,405563,"0.0-4.187-1.187","d5gog6xj47sazgh",768,"194.csv","","null","resources/maskTrios/BT4B.jpg","null","",NA,NA,NA,NA,""
"image-keyboard-response",575,406766,"0.0-4.187-2.187","d5gog6xj47sazgh",768,"194.csv","","null","resources/images/coin2.png","null","",NA,NA,NA,NA,""
"image-keyboard-response",576,406967,"0.0-4.188-0.188","d5gog6xj47sazgh",768,"194.csv","","198.60000000009313","resources/trios/L4T4A2.jpg","38","restless",0.7,0.7,0.5,0.814696332196072,"false"
"image-keyboard-response",577,407370,"0.0-4.188-1.188","d5gog6xj47sazgh",768,"194.csv","","null","resources/maskTrios/BT4B.jpg","null","",NA,NA,NA,NA,""
"image-keyboard-response",578,408572,"0.0-4.188-2.188","d5gog6xj47sazgh",768,"194.csv","","null","resources/images/fishbone.png","null","",NA,NA,NA,NA,""
"image-keyboard-response",579,409075,"0.0-4.189-0.189","d5gog6xj47sazgh",768,"194.csv","","500.3000000002794","resources/trios/L4T4A2.jpg","38","restless",0.7,0.7,0.5,0.470217494437984,"true"
"image-keyboard-response",580,409477,"0.0-4.189-1.189","d5gog6xj47sazgh",768,"194.csv","","null","resources/maskTrios/BT4B.jpg","null","",NA,NA,NA,NA,""
"image-keyboard-response",581,410680,"0.0-4.189-2.189","d5gog6xj47sazgh",768,"194.csv","","null","resources/images/coin2.png","null","",NA,NA,NA,NA,""
"image-keyboard-response",582,410905,"0.0-4.190-0.190","d5gog6xj47sazgh",768,"194.csv","","223.10000000009313","resources/trios/L4T4A2.jpg","37","restless",0.7,0.7,0.5,0.126289597697564,"true"
"image-keyboard-response",583,411308,"0.0-4.190-1.190","d5gog6xj47sazgh",768,"194.csv","","null","resources/maskTrios/L4BB.jpg","null","",NA,NA,NA,NA,""
"image-keyboard-response",584,412510,"0.0-4.190-2.190","d5gog6xj47sazgh",768,"194.csv","","null","resources/images/coin2.png","null","",NA,NA,NA,NA,""
"image-keyboard-response",585,412896,"0.0-4.191-0.191","d5gog6xj47sazgh",768,"194.csv","","383.70000000018626","resources/trios/L4T4A2.jpg","38","restless",0.7,0.7,0.5,0.0308585310088894,"true"
"image-keyboard-response",586,413299,"0.0-4.191-1.191","d5gog6xj47sazgh",768,"194.csv","","null","resources/maskTrios/BT4B.jpg","null","",NA,NA,NA,NA,""
"image-keyboard-response",587,414502,"0.0-4.191-2.191","d5gog6xj47sazgh",768,"194.csv","","null","resources/images/coin2.png","null","",NA,NA,NA,NA,""
"image-keyboard-response",588,414508,"0.0-4.192-0.192","d5gog6xj47sazgh",768,"194.csv","","4.5","resources/trios/L4T4A2.jpg","38","restless",0.7,0.7,0.5,0.343705840286979,"true"
"image-keyboard-response",589,414911,"0.0-4.192-1.192","d5gog6xj47sazgh",768,"194.csv","","null","resources/maskTrios/BT4B.jpg","null","",NA,NA,NA,NA,""
"image-keyboard-response",590,416114,"0.0-4.192-2.192","d5gog6xj47sazgh",768,"194.csv","","null","resources/images/coin2.png","null","",NA,NA,NA,NA,""
"image-keyboard-response",591,416743,"0.0-4.193-0.193","d5gog6xj47sazgh",768,"194.csv","","626.5","resources/trios/L4T4A2.jpg","38","restless",0.7,0.7,0.5,0.39261190518355,"true"
"image-keyboard-response",592,417146,"0.0-4.193-1.193","d5gog6xj47sazgh",768,"194.csv","","null","resources/maskTrios/BT4B.jpg","null","",NA,NA,NA,NA,""
"image-keyboard-response",593,418349,"0.0-4.193-2.193","d5gog6xj47sazgh",768,"194.csv","","null","resources/images/coin2.png","null","",NA,NA,NA,NA,""
"image-keyboard-response",594,418871,"0.0-4.194-0.194","d5gog6xj47sazgh",768,"194.csv","","518.8999999999069","resources/trios/L4T4A2.jpg","38","restless",0.7,0.7,0.5,0.199549858881701,"true"
"image-keyboard-response",595,419274,"0.0-4.194-1.194","d5gog6xj47sazgh",768,"194.csv","","null","resources/maskTrios/BT4B.jpg","null","",NA,NA,NA,NA,""
"image-keyboard-response",596,420476,"0.0-4.194-2.194","d5gog6xj47sazgh",768,"194.csv","","null","resources/images/coin2.png","null","",NA,NA,NA,NA,""
"image-keyboard-response",597,420781,"0.0-4.195-0.195","d5gog6xj47sazgh",768,"194.csv","","302.29999999981374","resources/trios/L4T4A2.jpg","38","restless",0.7,0.7,0.5,0.460996095241579,"true"
"image-keyboard-response",598,421184,"0.0-4.195-1.195","d5gog6xj47sazgh",768,"194.csv","","null","resources/maskTrios/BT4B.jpg","null","",NA,NA,NA,NA,""
"image-keyboard-response",599,422386,"0.0-4.195-2.195","d5gog6xj47sazgh",768,"194.csv","","null","resources/images/coin2.png","null","",NA,NA,NA,NA,""
"image-keyboard-response",600,422777,"0.0-4.196-0.196","d5gog6xj47sazgh",768,"194.csv","","389.60000000009313","resources/trios/L4T4A2.jpg","38","restless",0.7,0.7,0.5,0.337282276864997,"true"
"image-keyboard-response",601,423179,"0.0-4.196-1.196","d5gog6xj47sazgh",768,"194.csv","","null","resources/maskTrios/BT4B.jpg","null","",NA,NA,NA,NA,""
"image-keyboard-response",602,424382,"0.0-4.196-2.196","d5gog6xj47sazgh",768,"194.csv","","null","resources/images/coin2.png","null","",NA,NA,NA,NA,""
"image-keyboard-response",603,424685,"0.0-4.197-0.197","d5gog6xj47sazgh",768,"194.csv","","301.20000000018626","resources/trios/L4T4A2.jpg","38","restless",0.7,0.7,0.5,0.887081360197155,"false"
"image-keyboard-response",604,425088,"0.0-4.197-1.197","d5gog6xj47sazgh",768,"194.csv","","null","resources/maskTrios/BT4B.jpg","null","",NA,NA,NA,NA,""
"image-keyboard-response",605,426290,"0.0-4.197-2.197","d5gog6xj47sazgh",768,"194.csv","","null","resources/images/fishbone.png","null","",NA,NA,NA,NA,""
"image-keyboard-response",606,426614,"0.0-4.198-0.198","d5gog6xj47sazgh",768,"194.csv","","321.20000000018626","resources/trios/L4T4A2.jpg","38","restless",0.7,0.7,0.5,0.396979417349263,"true"
"image-keyboard-response",607,427017,"0.0-4.198-1.198","d5gog6xj47sazgh",768,"194.csv","","null","resources/maskTrios/BT4B.jpg","null","",NA,NA,NA,NA,""
"image-keyboard-response",608,428219,"0.0-4.198-2.198","d5gog6xj47sazgh",768,"194.csv","","null","resources/images/coin2.png","null","",NA,NA,NA,NA,""
