"trial_type","trial_index","time_elapsed","internal_node_id","subject","participantCode","walkNumber","success","rt","stimulus","key_press","test_part","leftProb","midProb","rightProb","generatedNum","correct"
"pavlovia",0,1146,"0.0-0.0","0x6h2fn074zf3uz",579,"45.csv","","","","","",NA,NA,NA,NA,""
"fullscreen",1,3594,"0.0-1.0","0x6h2fn074zf3uz",579,"45.csv","true","","","","",NA,NA,NA,NA,""
"survey-html-form",2,19164,"0.0-2.0","0x6h2fn074zf3uz",579,"45.csv","","15569.800000011921","","","",NA,NA,NA,NA,""
"image-keyboard-response",3,25739,"0.0-3.0-0.0","0x6h2fn074zf3uz",579,"45.csv","","6573.5","resources/images/parrot_nobg.png","13","",NA,NA,NA,NA,""
"image-keyboard-response",4,28740,"0.0-3.0-1.0","0x6h2fn074zf3uz",579,"45.csv","","null","resources/image_sets/111.png","null","",NA,NA,NA,NA,""
"image-keyboard-response",5,31611,"0.0-3.0-2.0","0x6h2fn074zf3uz",579,"45.csv","","2871","resources/image_sets/left_highlight.png","37","",NA,NA,NA,NA,""
"image-keyboard-response",6,33067,"0.0-3.0-3.0","0x6h2fn074zf3uz",579,"45.csv","","1455.800000011921","resources/image_sets/mid_highlight.png","38","",NA,NA,NA,NA,""
"image-keyboard-response",7,33523,"0.0-3.0-4.0","0x6h2fn074zf3uz",579,"45.csv","","455.5","resources/image_sets/right_highlight.png","39","",NA,NA,NA,NA,""
"image-keyboard-response",8,34523,"0.0-3.0-5.0","0x6h2fn074zf3uz",579,"45.csv","","999","resources/image_sets/111.png","13","",NA,NA,NA,NA,""
"image-keyboard-response",9,36107,"0.0-3.0-6.0","0x6h2fn074zf3uz",579,"45.csv","","1583.7999999821186","resources/images/coin2.png","13","",NA,NA,NA,NA,""
"image-keyboard-response",10,36899,"0.0-3.0-7.0","0x6h2fn074zf3uz",579,"45.csv","","791.5","resources/images/fishbone.png","13","",NA,NA,NA,NA,""
"html-keyboard-response",11,38540,"0.0-3.0-8.0","0x6h2fn074zf3uz",579,"45.csv","","1640.4000000059605","<p>You can track your coin total on the top right of your screen. </p><p>At the end of your journey you will be directed to a survey, so please click on the link before exiting the task</p><p>Press Enter to begin</p>","13","",NA,NA,NA,NA,""
"image-keyboard-response",12,39131,"0.0-4.0-0.0","0x6h2fn074zf3uz",579,"45.csv","","590.5999999940395","resources/trios/L1T2A3.jpg","38","restless",0.9,0.3,0.7,0.156198179784328,"true"
"image-keyboard-response",13,39533,"0.0-4.0-1.0","0x6h2fn074zf3uz",579,"45.csv","","null","resources/maskTrios/BT2B.jpg","null","",NA,NA,NA,NA,""
"image-keyboard-response",14,40735,"0.0-4.0-2.0","0x6h2fn074zf3uz",579,"45.csv","","null","resources/images/coin2.png","null","",NA,NA,NA,NA,""
"image-keyboard-response",15,41227,"0.0-4.1-0.1","0x6h2fn074zf3uz",579,"45.csv","","491.69999998807907","resources/trios/L1T2A3.jpg","37","restless",0.8,0.3,0.7,0.0391705881657014,"true"
"image-keyboard-response",16,41629,"0.0-4.1-1.1","0x6h2fn074zf3uz",579,"45.csv","","null","resources/maskTrios/L1BB.jpg","null","",NA,NA,NA,NA,""
"image-keyboard-response",17,43427,"0.0-4.1-2.1","0x6h2fn074zf3uz",579,"45.csv","","null","resources/images/coin2.png","null","",NA,NA,NA,NA,""
"image-keyboard-response",18,43691,"0.0-4.2-0.2","0x6h2fn074zf3uz",579,"45.csv","","263.80000001192093","resources/trios/L1T2A3.jpg","39","restless",0.8,0.3,0.7,0.924116451121464,"false"
"image-keyboard-response",19,44092,"0.0-4.2-1.2","0x6h2fn074zf3uz",579,"45.csv","","null","resources/maskTrios/BBA3.jpg","null","",NA,NA,NA,NA,""
"image-keyboard-response",20,45294,"0.0-4.2-2.2","0x6h2fn074zf3uz",579,"45.csv","","null","resources/images/fishbone.png","null","",NA,NA,NA,NA,""
"image-keyboard-response",21,45754,"0.0-4.3-0.3","0x6h2fn074zf3uz",579,"45.csv","","459.7000000178814","resources/trios/L1T2A3.jpg","38","restless",0.8,0.3,0.7,0.504403794370009,"false"
"image-keyboard-response",22,46156,"0.0-4.3-1.3","0x6h2fn074zf3uz",579,"45.csv","","null","resources/maskTrios/BT2B.jpg","null","",NA,NA,NA,NA,""
"image-keyboard-response",23,47357,"0.0-4.3-2.3","0x6h2fn074zf3uz",579,"45.csv","","null","resources/images/fishbone.png","null","",NA,NA,NA,NA,""
"image-keyboard-response",24,47635,"0.0-4.4-0.4","0x6h2fn074zf3uz",579,"45.csv","","277.30000001192093","resources/trios/L1T2A3.jpg","38","restless",0.8,0.3,0.7,0.654054670124455,"false"
"image-keyboard-response",25,48037,"0.0-4.4-1.4","0x6h2fn074zf3uz",579,"45.csv","","null","resources/maskTrios/BT2B.jpg","null","",NA,NA,NA,NA,""
"image-keyboard-response",26,49425,"0.0-4.4-2.4","0x6h2fn074zf3uz",579,"45.csv","","null","resources/images/fishbone.png","null","",NA,NA,NA,NA,""
"image-keyboard-response",27,49483,"0.0-4.5-0.5","0x6h2fn074zf3uz",579,"45.csv","","57.400000005960464","resources/trios/L1T2A3.jpg","38","restless",0.7,0.3,0.7,0.113443476544187,"true"
"image-keyboard-response",28,49884,"0.0-4.5-1.5","0x6h2fn074zf3uz",579,"45.csv","","null","resources/maskTrios/BT2B.jpg","null","",NA,NA,NA,NA,""
"image-keyboard-response",29,51086,"0.0-4.5-2.5","0x6h2fn074zf3uz",579,"45.csv","","null","resources/images/coin2.png","null","",NA,NA,NA,NA,""
"image-keyboard-response",30,51371,"0.0-4.6-0.6","0x6h2fn074zf3uz",579,"45.csv","","285","resources/trios/L1T2A3.jpg","37","restless",0.7,0.3,0.8,0.568409813947801,"true"
"image-keyboard-response",31,51773,"0.0-4.6-1.6","0x6h2fn074zf3uz",579,"45.csv","","null","resources/maskTrios/L1BB.jpg","null","",NA,NA,NA,NA,""
"image-keyboard-response",32,52974,"0.0-4.6-2.6","0x6h2fn074zf3uz",579,"45.csv","","null","resources/images/coin2.png","null","",NA,NA,NA,NA,""
"image-keyboard-response",33,53235,"0.0-4.7-0.7","0x6h2fn074zf3uz",579,"45.csv","","260.69999998807907","resources/trios/L1T2A3.jpg","39","restless",0.6,0.3,0.9,0.127314485101794,"true"
"image-keyboard-response",34,53637,"0.0-4.7-1.7","0x6h2fn074zf3uz",579,"45.csv","","null","resources/maskTrios/BBA3.jpg","null","",NA,NA,NA,NA,""
"image-keyboard-response",35,55155,"0.0-4.7-2.7","0x6h2fn074zf3uz",579,"45.csv","","null","resources/images/coin2.png","null","",NA,NA,NA,NA,""
"image-keyboard-response",36,55714,"0.0-4.8-0.8","0x6h2fn074zf3uz",579,"45.csv","","559","resources/trios/L1T2A3.jpg","38","restless",0.6,0.3,0.9,0.2294678160686,"true"
"image-keyboard-response",37,56116,"0.0-4.8-1.8","0x6h2fn074zf3uz",579,"45.csv","","null","resources/maskTrios/BT2B.jpg","null","",NA,NA,NA,NA,""
"image-keyboard-response",38,57318,"0.0-4.8-2.8","0x6h2fn074zf3uz",579,"45.csv","","null","resources/images/coin2.png","null","",NA,NA,NA,NA,""
"image-keyboard-response",39,57611,"0.0-4.9-0.9","0x6h2fn074zf3uz",579,"45.csv","","292.2999999821186","resources/trios/L1T2A3.jpg","37","restless",0.6,0.3,0.8,0.901627893594761,"false"
"image-keyboard-response",40,58012,"0.0-4.9-1.9","0x6h2fn074zf3uz",579,"45.csv","","null","resources/maskTrios/L1BB.jpg","null","",NA,NA,NA,NA,""
"image-keyboard-response",41,59214,"0.0-4.9-2.9","0x6h2fn074zf3uz",579,"45.csv","","null","resources/images/fishbone.png","null","",NA,NA,NA,NA,""
"image-keyboard-response",42,60701,"0.0-4.10-0.10","0x6h2fn074zf3uz",579,"45.csv","","1485.9000000059605","resources/trios/L1T2A3.jpg","37","restless",0.6,0.3,0.8,0.315082203373483,"true"
"image-keyboard-response",43,61102,"0.0-4.10-1.10","0x6h2fn074zf3uz",579,"45.csv","","null","resources/maskTrios/L1BB.jpg","null","",NA,NA,NA,NA,""
"image-keyboard-response",44,62304,"0.0-4.10-2.10","0x6h2fn074zf3uz",579,"45.csv","","null","resources/images/coin2.png","null","",NA,NA,NA,NA,""
"image-keyboard-response",45,62883,"0.0-4.11-0.11","0x6h2fn074zf3uz",579,"45.csv","","578.6000000238419","resources/trios/L1T2A3.jpg","38","restless",0.6,0.3,0.8,0.863800879117021,"false"
"image-keyboard-response",46,63285,"0.0-4.11-1.11","0x6h2fn074zf3uz",579,"45.csv","","null","resources/maskTrios/BT2B.jpg","null","",NA,NA,NA,NA,""
"image-keyboard-response",47,64487,"0.0-4.11-2.11","0x6h2fn074zf3uz",579,"45.csv","","null","resources/images/fishbone.png","null","",NA,NA,NA,NA,""
"image-keyboard-response",48,64827,"0.0-4.12-0.12","0x6h2fn074zf3uz",579,"45.csv","","339.40000000596046","resources/trios/L1T2A3.jpg","37","restless",0.6,0.3,0.7,0.969001930443218,"false"
"image-keyboard-response",49,65229,"0.0-4.12-1.12","0x6h2fn074zf3uz",579,"45.csv","","null","resources/maskTrios/L1BB.jpg","null","",NA,NA,NA,NA,""
"image-keyboard-response",50,66867,"0.0-4.12-2.12","0x6h2fn074zf3uz",579,"45.csv","","null","resources/images/fishbone.png","null","",NA,NA,NA,NA,""
"image-keyboard-response",51,67283,"0.0-4.13-0.13","0x6h2fn074zf3uz",579,"45.csv","","415.69999998807907","resources/trios/L1T2A3.jpg","37","restless",0.5,0.3,0.7,0.357235273258699,"true"
"image-keyboard-response",52,67685,"0.0-4.13-1.13","0x6h2fn074zf3uz",579,"45.csv","","null","resources/maskTrios/L1BB.jpg","null","",NA,NA,NA,NA,""
"image-keyboard-response",53,68886,"0.0-4.13-2.13","0x6h2fn074zf3uz",579,"45.csv","","null","resources/images/coin2.png","null","",NA,NA,NA,NA,""
"image-keyboard-response",54,69203,"0.0-4.14-0.14","0x6h2fn074zf3uz",579,"45.csv","","316.09999999403954","resources/trios/L1T2A3.jpg","38","restless",0.5,0.3,0.7,0.953336924524298,"false"
"image-keyboard-response",55,69604,"0.0-4.14-1.14","0x6h2fn074zf3uz",579,"45.csv","","null","resources/maskTrios/BT2B.jpg","null","",NA,NA,NA,NA,""
"image-keyboard-response",56,70806,"0.0-4.14-2.14","0x6h2fn074zf3uz",579,"45.csv","","null","resources/images/fishbone.png","null","",NA,NA,NA,NA,""
"image-keyboard-response",57,71132,"0.0-4.15-0.15","0x6h2fn074zf3uz",579,"45.csv","","326","resources/trios/L1T2A3.jpg","37","restless",0.5,0.3,0.7,0.546268683480044,"false"
"image-keyboard-response",58,71534,"0.0-4.15-1.15","0x6h2fn074zf3uz",579,"45.csv","","null","resources/maskTrios/L1BB.jpg","null","",NA,NA,NA,NA,""
"image-keyboard-response",59,72987,"0.0-4.15-2.15","0x6h2fn074zf3uz",579,"45.csv","","null","resources/images/fishbone.png","null","",NA,NA,NA,NA,""
"image-keyboard-response",60,73355,"0.0-4.16-0.16","0x6h2fn074zf3uz",579,"45.csv","","366.90000000596046","resources/trios/L1T2A3.jpg","39","restless",0.5,0.3,0.7,0.551117126052072,"true"
"image-keyboard-response",61,73757,"0.0-4.16-1.16","0x6h2fn074zf3uz",579,"45.csv","","null","resources/maskTrios/BBA3.jpg","null","",NA,NA,NA,NA,""
"image-keyboard-response",62,74958,"0.0-4.16-2.16","0x6h2fn074zf3uz",579,"45.csv","","null","resources/images/coin2.png","null","",NA,NA,NA,NA,""
"image-keyboard-response",63,75883,"0.0-4.17-0.17","0x6h2fn074zf3uz",579,"45.csv","","924.8999999761581","resources/trios/L1T2A3.jpg","37","restless",0.5,0.3,0.7,0.0916183660300967,"true"
"image-keyboard-response",64,76284,"0.0-4.17-1.17","0x6h2fn074zf3uz",579,"45.csv","","null","resources/maskTrios/L1BB.jpg","null","",NA,NA,NA,NA,""
"image-keyboard-response",65,77485,"0.0-4.17-2.17","0x6h2fn074zf3uz",579,"45.csv","","null","resources/images/coin2.png","null","",NA,NA,NA,NA,""
"image-keyboard-response",66,77851,"0.0-4.18-0.18","0x6h2fn074zf3uz",579,"45.csv","","365.7999999821186","resources/trios/L1T2A3.jpg","38","restless",0.5,0.3,0.7,0.789247994328168,"false"
"image-keyboard-response",67,78427,"0.0-4.18-1.18","0x6h2fn074zf3uz",579,"45.csv","","null","resources/maskTrios/BT2B.jpg","null","",NA,NA,NA,NA,""
"image-keyboard-response",68,80426,"0.0-4.18-2.18","0x6h2fn074zf3uz",579,"45.csv","","null","resources/images/fishbone.png","null","",NA,NA,NA,NA,""
"image-keyboard-response",69,80819,"0.0-4.19-0.19","0x6h2fn074zf3uz",579,"45.csv","","391.90000000596046","resources/trios/L1T2A3.jpg","37","restless",0.5,0.3,0.8,0.019713888880375,"true"
"image-keyboard-response",70,81220,"0.0-4.19-1.19","0x6h2fn074zf3uz",579,"45.csv","","null","resources/maskTrios/L1BB.jpg","null","",NA,NA,NA,NA,""
"image-keyboard-response",71,82422,"0.0-4.19-2.19","0x6h2fn074zf3uz",579,"45.csv","","null","resources/images/coin2.png","null","",NA,NA,NA,NA,""
"image-keyboard-response",72,83348,"0.0-4.20-0.20","0x6h2fn074zf3uz",579,"45.csv","","925.5999999940395","resources/trios/L1T2A3.jpg","37","restless",0.5,0.3,0.8,0.401366052466836,"true"
"image-keyboard-response",73,83749,"0.0-4.20-1.20","0x6h2fn074zf3uz",579,"45.csv","","null","resources/maskTrios/L1BB.jpg","null","",NA,NA,NA,NA,""
"image-keyboard-response",74,84951,"0.0-4.20-2.20","0x6h2fn074zf3uz",579,"45.csv","","null","resources/images/coin2.png","null","",NA,NA,NA,NA,""
"image-keyboard-response",75,85403,"0.0-4.21-0.21","0x6h2fn074zf3uz",579,"45.csv","","451.09999999403954","resources/trios/L1T2A3.jpg","38","restless",0.6,0.3,0.8,0.883622804341203,"false"
"image-keyboard-response",76,85805,"0.0-4.21-1.21","0x6h2fn074zf3uz",579,"45.csv","","null","resources/maskTrios/BT2B.jpg","null","",NA,NA,NA,NA,""
"image-keyboard-response",77,87426,"0.0-4.21-2.21","0x6h2fn074zf3uz",579,"45.csv","","null","resources/images/fishbone.png","null","",NA,NA,NA,NA,""
"image-keyboard-response",78,87643,"0.0-4.22-0.22","0x6h2fn074zf3uz",579,"45.csv","","216.80000001192093","resources/trios/L1T2A3.jpg","38","restless",0.6,0.2,0.8,0.264457695841905,"false"
"image-keyboard-response",79,88045,"0.0-4.22-1.22","0x6h2fn074zf3uz",579,"45.csv","","null","resources/maskTrios/BT2B.jpg","null","",NA,NA,NA,NA,""
"image-keyboard-response",80,89246,"0.0-4.22-2.22","0x6h2fn074zf3uz",579,"45.csv","","null","resources/images/fishbone.png","null","",NA,NA,NA,NA,""
"image-keyboard-response",81,89523,"0.0-4.23-0.23","0x6h2fn074zf3uz",579,"45.csv","","276.2999999821186","resources/trios/L1T2A3.jpg","38","restless",0.6,0.2,0.8,0.472502133195999,"false"
"image-keyboard-response",82,89925,"0.0-4.23-1.23","0x6h2fn074zf3uz",579,"45.csv","","null","resources/maskTrios/BT2B.jpg","null","",NA,NA,NA,NA,""
"image-keyboard-response",83,91126,"0.0-4.23-2.23","0x6h2fn074zf3uz",579,"45.csv","","null","resources/images/fishbone.png","null","",NA,NA,NA,NA,""
"image-keyboard-response",84,91883,"0.0-4.24-0.24","0x6h2fn074zf3uz",579,"45.csv","","756.8000000119209","resources/trios/L1T2A3.jpg","37","restless",0.6,0.3,0.8,0.725711786029387,"false"
"image-keyboard-response",85,92286,"0.0-4.24-1.24","0x6h2fn074zf3uz",579,"45.csv","","null","resources/maskTrios/L1BB.jpg","null","",NA,NA,NA,NA,""
"image-keyboard-response",86,94180,"0.0-4.24-2.24","0x6h2fn074zf3uz",579,"45.csv","","null","resources/images/fishbone.png","null","",NA,NA,NA,NA,""
"image-keyboard-response",87,94618,"0.0-4.25-0.25","0x6h2fn074zf3uz",579,"45.csv","","438","resources/trios/L1T2A3.jpg","37","restless",0.6,0.3,0.8,0.639841462197322,"false"
"image-keyboard-response",88,95020,"0.0-4.25-1.25","0x6h2fn074zf3uz",579,"45.csv","","null","resources/maskTrios/L1BB.jpg","null","",NA,NA,NA,NA,""
"image-keyboard-response",89,96222,"0.0-4.25-2.25","0x6h2fn074zf3uz",579,"45.csv","","null","resources/images/fishbone.png","null","",NA,NA,NA,NA,""
"image-keyboard-response",90,96683,"0.0-4.26-0.26","0x6h2fn074zf3uz",579,"45.csv","","460.90000000596046","resources/trios/L1T2A3.jpg","39","restless",0.6,0.2,0.8,0.704105559265089,"true"
"image-keyboard-response",91,97084,"0.0-4.26-1.26","0x6h2fn074zf3uz",579,"45.csv","","null","resources/maskTrios/BBA3.jpg","null","",NA,NA,NA,NA,""
"image-keyboard-response",92,98286,"0.0-4.26-2.26","0x6h2fn074zf3uz",579,"45.csv","","null","resources/images/coin2.png","null","",NA,NA,NA,NA,""
"image-keyboard-response",93,99811,"0.0-4.27-0.27","0x6h2fn074zf3uz",579,"45.csv","","1524.9000000059605","resources/trios/L1T2A3.jpg","37","restless",0.6,0.2,0.8,0.451045586131934,"true"
"image-keyboard-response",94,100213,"0.0-4.27-1.27","0x6h2fn074zf3uz",579,"45.csv","","null","resources/maskTrios/L1BB.jpg","null","",NA,NA,NA,NA,""
"image-keyboard-response",95,101414,"0.0-4.27-2.27","0x6h2fn074zf3uz",579,"45.csv","","null","resources/images/coin2.png","null","",NA,NA,NA,NA,""
"image-keyboard-response",96,102267,"0.0-4.28-0.28","0x6h2fn074zf3uz",579,"45.csv","","852.2999999821186","resources/trios/L1T2A3.jpg","38","restless",0.6,0.3,0.8,0.4623851626347,"false"
"image-keyboard-response",97,102669,"0.0-4.28-1.28","0x6h2fn074zf3uz",579,"45.csv","","null","resources/maskTrios/BT2B.jpg","null","",NA,NA,NA,NA,""
"image-keyboard-response",98,103870,"0.0-4.28-2.28","0x6h2fn074zf3uz",579,"45.csv","","null","resources/images/fishbone.png","null","",NA,NA,NA,NA,""
"image-keyboard-response",99,104540,"0.0-4.29-0.29","0x6h2fn074zf3uz",579,"45.csv","","669.1000000238419","resources/trios/L1T2A3.jpg","38","restless",0.6,0.4,0.8,0.679551786485881,"false"
"image-keyboard-response",100,105426,"0.0-4.29-1.29","0x6h2fn074zf3uz",579,"45.csv","","null","resources/maskTrios/BT2B.jpg","null","",NA,NA,NA,NA,""
"image-keyboard-response",101,107426,"0.0-4.29-2.29","0x6h2fn074zf3uz",579,"45.csv","","null","resources/images/fishbone.png","null","",NA,NA,NA,NA,""
"image-keyboard-response",102,107724,"0.0-4.30-0.30","0x6h2fn074zf3uz",579,"45.csv","","296.7000000178814","resources/trios/L1T2A3.jpg","38","restless",0.6,0.4,0.8,0.982659895372193,"false"
"image-keyboard-response",103,108126,"0.0-4.30-1.30","0x6h2fn074zf3uz",579,"45.csv","","null","resources/maskTrios/BT2B.jpg","null","",NA,NA,NA,NA,""
"image-keyboard-response",104,109327,"0.0-4.30-2.30","0x6h2fn074zf3uz",579,"45.csv","","null","resources/images/fishbone.png","null","",NA,NA,NA,NA,""
"image-keyboard-response",105,109923,"0.0-4.31-0.31","0x6h2fn074zf3uz",579,"45.csv","","595.4000000059605","resources/trios/L1T2A3.jpg","38","restless",0.6,0.4,0.8,0.152784675263196,"true"
"image-keyboard-response",106,110324,"0.0-4.31-1.31","0x6h2fn074zf3uz",579,"45.csv","","null","resources/maskTrios/BT2B.jpg","null","",NA,NA,NA,NA,""
"image-keyboard-response",107,111526,"0.0-4.31-2.31","0x6h2fn074zf3uz",579,"45.csv","","null","resources/images/coin2.png","null","",NA,NA,NA,NA,""
"image-keyboard-response",108,112379,"0.0-4.32-0.32","0x6h2fn074zf3uz",579,"45.csv","","852.9000000059605","resources/trios/L1T2A3.jpg","37","restless",0.6,0.4,0.8,0.82561397299073,"false"
"image-keyboard-response",109,113427,"0.0-4.32-1.32","0x6h2fn074zf3uz",579,"45.csv","","null","resources/maskTrios/L1BB.jpg","null","",NA,NA,NA,NA,""
"image-keyboard-response",110,115427,"0.0-4.32-2.32","0x6h2fn074zf3uz",579,"45.csv","","null","resources/images/fishbone.png","null","",NA,NA,NA,NA,""
"image-keyboard-response",111,115756,"0.0-4.33-0.33","0x6h2fn074zf3uz",579,"45.csv","","328.7000000178814","resources/trios/L1T2A3.jpg","37","restless",0.6,0.4,0.8,0.874581651669845,"false"
"image-keyboard-response",112,116158,"0.0-4.33-1.33","0x6h2fn074zf3uz",579,"45.csv","","null","resources/maskTrios/L1BB.jpg","null","",NA,NA,NA,NA,""
"image-keyboard-response",113,117360,"0.0-4.33-2.33","0x6h2fn074zf3uz",579,"45.csv","","null","resources/images/fishbone.png","null","",NA,NA,NA,NA,""
"image-keyboard-response",114,117907,"0.0-4.34-0.34","0x6h2fn074zf3uz",579,"45.csv","","547.0999999940395","resources/trios/L1T2A3.jpg","37","restless",0.6,0.3,0.8,0.175054001725862,"true"
"image-keyboard-response",115,118308,"0.0-4.34-1.34","0x6h2fn074zf3uz",579,"45.csv","","null","resources/maskTrios/L1BB.jpg","null","",NA,NA,NA,NA,""
"image-keyboard-response",116,119509,"0.0-4.34-2.34","0x6h2fn074zf3uz",579,"45.csv","","null","resources/images/coin2.png","null","",NA,NA,NA,NA,""
"image-keyboard-response",117,119972,"0.0-4.35-0.35","0x6h2fn074zf3uz",579,"45.csv","","461.7000000178814","resources/trios/L1T2A3.jpg","37","restless",0.6,0.3,0.8,0.302214215045079,"true"
"image-keyboard-response",118,120373,"0.0-4.35-1.35","0x6h2fn074zf3uz",579,"45.csv","","null","resources/maskTrios/L1BB.jpg","null","",NA,NA,NA,NA,""
"image-keyboard-response",119,122426,"0.0-4.35-2.35","0x6h2fn074zf3uz",579,"45.csv","","null","resources/images/coin2.png","null","",NA,NA,NA,NA,""
"image-keyboard-response",120,123419,"0.0-4.36-0.36","0x6h2fn074zf3uz",579,"45.csv","","992.6000000238419","resources/trios/L1T2A3.jpg","38","restless",0.6,0.3,0.8,0.3479199278436,"false"
"image-keyboard-response",121,123820,"0.0-4.36-1.36","0x6h2fn074zf3uz",579,"45.csv","","null","resources/maskTrios/BT2B.jpg","null","",NA,NA,NA,NA,""
"image-keyboard-response",122,125022,"0.0-4.36-2.36","0x6h2fn074zf3uz",579,"45.csv","","null","resources/images/fishbone.png","null","",NA,NA,NA,NA,""
"image-keyboard-response",123,126508,"0.0-4.37-0.37","0x6h2fn074zf3uz",579,"45.csv","","1485.9000000059605","resources/trios/L1T2A3.jpg","39","restless",0.6,0.4,0.8,0.27691870787204,"true"
"image-keyboard-response",124,126910,"0.0-4.37-1.37","0x6h2fn074zf3uz",579,"45.csv","","null","resources/maskTrios/BBA3.jpg","null","",NA,NA,NA,NA,""
"image-keyboard-response",125,128426,"0.0-4.37-2.37","0x6h2fn074zf3uz",579,"45.csv","","null","resources/images/coin2.png","null","",NA,NA,NA,NA,""
"image-keyboard-response",126,128900,"0.0-4.38-0.38","0x6h2fn074zf3uz",579,"45.csv","","473.30000001192093","resources/trios/L1T2A3.jpg","39","restless",0.6,0.4,0.8,0.876538136553352,"false"
"image-keyboard-response",127,129302,"0.0-4.38-1.38","0x6h2fn074zf3uz",579,"45.csv","","null","resources/maskTrios/BBA3.jpg","null","",NA,NA,NA,NA,""
"image-keyboard-response",128,130503,"0.0-4.38-2.38","0x6h2fn074zf3uz",579,"45.csv","","null","resources/images/fishbone.png","null","",NA,NA,NA,NA,""
"image-keyboard-response",129,131443,"0.0-4.39-0.39","0x6h2fn074zf3uz",579,"45.csv","","939.8000000119209","resources/trios/L1T2A3.jpg","38","restless",0.6,0.4,0.9,0.644728454307284,"false"
"image-keyboard-response",130,131844,"0.0-4.39-1.39","0x6h2fn074zf3uz",579,"45.csv","","null","resources/maskTrios/BT2B.jpg","null","",NA,NA,NA,NA,""
"image-keyboard-response",131,133046,"0.0-4.39-2.39","0x6h2fn074zf3uz",579,"45.csv","","null","resources/images/fishbone.png","null","",NA,NA,NA,NA,""
"image-keyboard-response",132,133348,"0.0-4.40-0.40","0x6h2fn074zf3uz",579,"45.csv","","301.5","resources/trios/L1T2A3.jpg","38","restless",0.6,0.4,0.9,0.704733334553836,"false"
"image-keyboard-response",133,133750,"0.0-4.40-1.40","0x6h2fn074zf3uz",579,"45.csv","","null","resources/maskTrios/BT2B.jpg","null","",NA,NA,NA,NA,""
"image-keyboard-response",134,135426,"0.0-4.40-2.40","0x6h2fn074zf3uz",579,"45.csv","","null","resources/images/fishbone.png","null","",NA,NA,NA,NA,""
"image-keyboard-response",135,136628,"0.0-4.41-0.41","0x6h2fn074zf3uz",579,"45.csv","","1201.300000011921","resources/trios/L1T2A3.jpg","37","restless",0.6,0.4,0.9,0.765987934405119,"false"
"image-keyboard-response",136,137029,"0.0-4.41-1.41","0x6h2fn074zf3uz",579,"45.csv","","null","resources/maskTrios/L1BB.jpg","null","",NA,NA,NA,NA,""
"image-keyboard-response",137,138231,"0.0-4.41-2.41","0x6h2fn074zf3uz",579,"45.csv","","null","resources/images/fishbone.png","null","",NA,NA,NA,NA,""
"image-keyboard-response",138,138747,"0.0-4.42-0.42","0x6h2fn074zf3uz",579,"45.csv","","516.3000000119209","resources/trios/L1T2A3.jpg","37","restless",0.6,0.4,0.9,0.127286576069213,"true"
"image-keyboard-response",139,139149,"0.0-4.42-1.42","0x6h2fn074zf3uz",579,"45.csv","","null","resources/maskTrios/L1BB.jpg","null","",NA,NA,NA,NA,""
"image-keyboard-response",140,140351,"0.0-4.42-2.42","0x6h2fn074zf3uz",579,"45.csv","","null","resources/images/coin2.png","null","",NA,NA,NA,NA,""
"image-keyboard-response",141,142212,"0.0-4.43-0.43","0x6h2fn074zf3uz",579,"45.csv","","1860.1000000238419","resources/trios/L1T2A3.jpg","38","restless",0.5,0.4,0.9,0.597517360884981,"false"
"image-keyboard-response",142,142613,"0.0-4.43-1.43","0x6h2fn074zf3uz",579,"45.csv","","null","resources/maskTrios/BT2B.jpg","null","",NA,NA,NA,NA,""
"image-keyboard-response",143,143815,"0.0-4.43-2.43","0x6h2fn074zf3uz",579,"45.csv","","null","resources/images/fishbone.png","null","",NA,NA,NA,NA,""
"image-keyboard-response",144,144259,"0.0-4.44-0.44","0x6h2fn074zf3uz",579,"45.csv","","443.2000000178814","resources/trios/L1T2A3.jpg","38","restless",0.5,0.4,0.9,0.820287019945033,"false"
"image-keyboard-response",145,144660,"0.0-4.44-1.44","0x6h2fn074zf3uz",579,"45.csv","","null","resources/maskTrios/BT2B.jpg","null","",NA,NA,NA,NA,""
"image-keyboard-response",146,145861,"0.0-4.44-2.44","0x6h2fn074zf3uz",579,"45.csv","","null","resources/images/fishbone.png","null","",NA,NA,NA,NA,""
"image-keyboard-response",147,146219,"0.0-4.45-0.45","0x6h2fn074zf3uz",579,"45.csv","","357.69999998807907","resources/trios/L1T2A3.jpg","37","restless",0.5,0.4,0.9,0.744263475491999,"false"
"image-keyboard-response",148,146621,"0.0-4.45-1.45","0x6h2fn074zf3uz",579,"45.csv","","null","resources/maskTrios/L1BB.jpg","null","",NA,NA,NA,NA,""
"image-keyboard-response",149,148426,"0.0-4.45-2.45","0x6h2fn074zf3uz",579,"45.csv","","null","resources/images/fishbone.png","null","",NA,NA,NA,NA,""
"image-keyboard-response",150,148772,"0.0-4.46-0.46","0x6h2fn074zf3uz",579,"45.csv","","345.7999999821186","resources/trios/L1T2A3.jpg","37","restless",0.5,0.4,0.9,0.128793020494729,"true"
"image-keyboard-response",151,149174,"0.0-4.46-1.46","0x6h2fn074zf3uz",579,"45.csv","","null","resources/maskTrios/L1BB.jpg","null","",NA,NA,NA,NA,""
"image-keyboard-response",152,150376,"0.0-4.46-2.46","0x6h2fn074zf3uz",579,"45.csv","","null","resources/images/coin2.png","null","",NA,NA,NA,NA,""
"image-keyboard-response",153,150755,"0.0-4.47-0.47","0x6h2fn074zf3uz",579,"45.csv","","378.30000001192093","resources/trios/L1T2A3.jpg","39","restless",0.4,0.4,0.9,0.791588274800715,"true"
"image-keyboard-response",154,151157,"0.0-4.47-1.47","0x6h2fn074zf3uz",579,"45.csv","","null","resources/maskTrios/BBA3.jpg","null","",NA,NA,NA,NA,""
"image-keyboard-response",155,152358,"0.0-4.47-2.47","0x6h2fn074zf3uz",579,"45.csv","","null","resources/images/coin2.png","null","",NA,NA,NA,NA,""
"image-keyboard-response",156,152636,"0.0-4.48-0.48","0x6h2fn074zf3uz",579,"45.csv","","276.7999999821186","resources/trios/L1T2A3.jpg","38","restless",0.4,0.4,0.9,0.69422330184608,"false"
"image-keyboard-response",157,153037,"0.0-4.48-1.48","0x6h2fn074zf3uz",579,"45.csv","","null","resources/maskTrios/BT2B.jpg","null","",NA,NA,NA,NA,""
"image-keyboard-response",158,154427,"0.0-4.48-2.48","0x6h2fn074zf3uz",579,"45.csv","","null","resources/images/fishbone.png","null","",NA,NA,NA,NA,""
"image-keyboard-response",159,154963,"0.0-4.49-0.49","0x6h2fn074zf3uz",579,"45.csv","","535.7000000178814","resources/trios/L1T2A3.jpg","39","restless",0.4,0.4,0.9,0.470053608503257,"true"
"image-keyboard-response",160,155364,"0.0-4.49-1.49","0x6h2fn074zf3uz",579,"45.csv","","null","resources/maskTrios/BBA3.jpg","null","",NA,NA,NA,NA,""
"image-keyboard-response",161,156566,"0.0-4.49-2.49","0x6h2fn074zf3uz",579,"45.csv","","null","resources/images/coin2.png","null","",NA,NA,NA,NA,""
"image-keyboard-response",162,156868,"0.0-4.50-0.50","0x6h2fn074zf3uz",579,"45.csv","","301.19999998807907","resources/trios/L1T2A3.jpg","37","restless",0.4,0.4,0.9,0.0471387614683607,"true"
"image-keyboard-response",163,157268,"0.0-4.50-1.50","0x6h2fn074zf3uz",579,"45.csv","","null","resources/maskTrios/L1BB.jpg","null","",NA,NA,NA,NA,""
"image-keyboard-response",164,158469,"0.0-4.50-2.50","0x6h2fn074zf3uz",579,"45.csv","","null","resources/images/coin2.png","null","",NA,NA,NA,NA,""
"image-keyboard-response",165,158763,"0.0-4.51-0.51","0x6h2fn074zf3uz",579,"45.csv","","293.10000002384186","resources/trios/L1T2A3.jpg","38","restless",0.3,0.4,0.9,0.306638646379428,"true"
"image-keyboard-response",166,159165,"0.0-4.51-1.51","0x6h2fn074zf3uz",579,"45.csv","","null","resources/maskTrios/BT2B.jpg","null","",NA,NA,NA,NA,""
"image-keyboard-response",167,160427,"0.0-4.51-2.51","0x6h2fn074zf3uz",579,"45.csv","","null","resources/images/coin2.png","null","",NA,NA,NA,NA,""
"image-keyboard-response",168,160733,"0.0-4.52-0.52","0x6h2fn074zf3uz",579,"45.csv","","305","resources/trios/L1T2A3.jpg","39","restless",0.2,0.5,0.9,0.0338789370194117,"true"
"image-keyboard-response",169,161134,"0.0-4.52-1.52","0x6h2fn074zf3uz",579,"45.csv","","null","resources/maskTrios/BBA3.jpg","null","",NA,NA,NA,NA,""
"image-keyboard-response",170,162335,"0.0-4.52-2.52","0x6h2fn074zf3uz",579,"45.csv","","null","resources/images/coin2.png","null","",NA,NA,NA,NA,""
"image-keyboard-response",171,162643,"0.0-4.53-0.53","0x6h2fn074zf3uz",579,"45.csv","","307.7000000178814","resources/trios/L1T2A3.jpg","37","restless",0.3,0.5,0.9,0.100522099696411,"true"
"image-keyboard-response",172,163044,"0.0-4.53-1.53","0x6h2fn074zf3uz",579,"45.csv","","null","resources/maskTrios/L1BB.jpg","null","",NA,NA,NA,NA,""
"image-keyboard-response",173,164246,"0.0-4.53-2.53","0x6h2fn074zf3uz",579,"45.csv","","null","resources/images/coin2.png","null","",NA,NA,NA,NA,""
"image-keyboard-response",174,164579,"0.0-4.54-0.54","0x6h2fn074zf3uz",579,"45.csv","","332.5","resources/trios/L1T2A3.jpg","38","restless",0.3,0.6,0.9,0.952597391706227,"false"
"image-keyboard-response",175,164980,"0.0-4.54-1.54","0x6h2fn074zf3uz",579,"45.csv","","null","resources/maskTrios/BT2B.jpg","null","",NA,NA,NA,NA,""
"image-keyboard-response",176,166426,"0.0-4.54-2.54","0x6h2fn074zf3uz",579,"45.csv","","null","resources/images/fishbone.png","null","",NA,NA,NA,NA,""
"image-keyboard-response",177,166859,"0.0-4.55-0.55","0x6h2fn074zf3uz",579,"45.csv","","432.40000000596046","resources/trios/L1T2A3.jpg","38","restless",0.2,0.6,0.8,0.913764995870492,"false"
"image-keyboard-response",178,167261,"0.0-4.55-1.55","0x6h2fn074zf3uz",579,"45.csv","","null","resources/maskTrios/BT2B.jpg","null","",NA,NA,NA,NA,""
"image-keyboard-response",179,168462,"0.0-4.55-2.55","0x6h2fn074zf3uz",579,"45.csv","","null","resources/images/fishbone.png","null","",NA,NA,NA,NA,""
"image-keyboard-response",180,168723,"0.0-4.56-0.56","0x6h2fn074zf3uz",579,"45.csv","","260.5","resources/trios/L1T2A3.jpg","38","restless",0.2,0.6,0.8,0.940572871766487,"false"
"image-keyboard-response",181,169125,"0.0-4.56-1.56","0x6h2fn074zf3uz",579,"45.csv","","null","resources/maskTrios/BT2B.jpg","null","",NA,NA,NA,NA,""
"image-keyboard-response",182,170325,"0.0-4.56-2.56","0x6h2fn074zf3uz",579,"45.csv","","null","resources/images/fishbone.png","null","",NA,NA,NA,NA,""
"image-keyboard-response",183,171164,"0.0-4.57-0.57","0x6h2fn074zf3uz",579,"45.csv","","838.5","resources/trios/L1T2A3.jpg","39","restless",0.2,0.6,0.8,0.841582387318706,"false"
"image-keyboard-response",184,171566,"0.0-4.57-1.57","0x6h2fn074zf3uz",579,"45.csv","","null","resources/maskTrios/BBA3.jpg","null","",NA,NA,NA,NA,""
"image-keyboard-response",185,173426,"0.0-4.57-2.57","0x6h2fn074zf3uz",579,"45.csv","","null","resources/images/fishbone.png","null","",NA,NA,NA,NA,""
"image-keyboard-response",186,174387,"0.0-4.58-0.58","0x6h2fn074zf3uz",579,"45.csv","","960","resources/trios/L1T2A3.jpg","37","restless",0.1,0.7,0.8,0.511800358564148,"false"
"image-keyboard-response",187,174788,"0.0-4.58-1.58","0x6h2fn074zf3uz",579,"45.csv","","null","resources/maskTrios/L1BB.jpg","null","",NA,NA,NA,NA,""
"image-keyboard-response",188,175990,"0.0-4.58-2.58","0x6h2fn074zf3uz",579,"45.csv","","null","resources/images/fishbone.png","null","",NA,NA,NA,NA,""
"image-keyboard-response",189,176323,"0.0-4.59-0.59","0x6h2fn074zf3uz",579,"45.csv","","333.2999999821186","resources/trios/L1T2A3.jpg","37","restless",0.2,0.7,0.8,0.238511258031717,"false"
"image-keyboard-response",190,176724,"0.0-4.59-1.59","0x6h2fn074zf3uz",579,"45.csv","","null","resources/maskTrios/L1BB.jpg","null","",NA,NA,NA,NA,""
"image-keyboard-response",191,177926,"0.0-4.59-2.59","0x6h2fn074zf3uz",579,"45.csv","","null","resources/images/fishbone.png","null","",NA,NA,NA,NA,""
"image-keyboard-response",192,178203,"0.0-4.60-0.60","0x6h2fn074zf3uz",579,"45.csv","","276.60000002384186","resources/trios/L1T2A3.jpg","37","restless",0.2,0.7,0.8,0.510828627705459,"false"
"image-keyboard-response",193,178605,"0.0-4.60-1.60","0x6h2fn074zf3uz",579,"45.csv","","null","resources/maskTrios/L1BB.jpg","null","",NA,NA,NA,NA,""
"image-keyboard-response",194,180426,"0.0-4.60-2.60","0x6h2fn074zf3uz",579,"45.csv","","null","resources/images/fishbone.png","null","",NA,NA,NA,NA,""
"image-keyboard-response",195,180779,"0.0-4.61-0.61","0x6h2fn074zf3uz",579,"45.csv","","352.80000001192093","resources/trios/L1T2A3.jpg","38","restless",0.2,0.7,0.8,0.0594451328109193,"true"
"image-keyboard-response",196,181181,"0.0-4.61-1.61","0x6h2fn074zf3uz",579,"45.csv","","null","resources/maskTrios/BT2B.jpg","null","",NA,NA,NA,NA,""
"image-keyboard-response",197,182382,"0.0-4.61-2.61","0x6h2fn074zf3uz",579,"45.csv","","null","resources/images/coin2.png","null","",NA,NA,NA,NA,""
"image-keyboard-response",198,182692,"0.0-4.62-0.62","0x6h2fn074zf3uz",579,"45.csv","","309.2000000178814","resources/trios/L1T2A3.jpg","39","restless",0.3,0.7,0.8,0.7066913705497,"true"
"image-keyboard-response",199,183093,"0.0-4.62-1.62","0x6h2fn074zf3uz",579,"45.csv","","null","resources/maskTrios/BBA3.jpg","null","",NA,NA,NA,NA,""
"image-keyboard-response",200,184295,"0.0-4.62-2.62","0x6h2fn074zf3uz",579,"45.csv","","null","resources/images/coin2.png","null","",NA,NA,NA,NA,""
"image-keyboard-response",201,184659,"0.0-4.63-0.63","0x6h2fn074zf3uz",579,"45.csv","","364.30000001192093","resources/trios/L1T2A3.jpg","39","restless",0.2,0.7,0.8,0.333877224153958,"true"
"image-keyboard-response",202,185060,"0.0-4.63-1.63","0x6h2fn074zf3uz",579,"45.csv","","null","resources/maskTrios/BBA3.jpg","null","",NA,NA,NA,NA,""
"image-keyboard-response",203,186427,"0.0-4.63-2.63","0x6h2fn074zf3uz",579,"45.csv","","null","resources/images/coin2.png","null","",NA,NA,NA,NA,""
"image-keyboard-response",204,186787,"0.0-4.64-0.64","0x6h2fn074zf3uz",579,"45.csv","","359.2000000178814","resources/trios/L1T2A3.jpg","39","restless",0.2,0.7,0.8,0.113536194023007,"true"
"image-keyboard-response",205,187188,"0.0-4.64-1.64","0x6h2fn074zf3uz",579,"45.csv","","null","resources/maskTrios/BBA3.jpg","null","",NA,NA,NA,NA,""
"image-keyboard-response",206,188389,"0.0-4.64-2.64","0x6h2fn074zf3uz",579,"45.csv","","null","resources/images/coin2.png","null","",NA,NA,NA,NA,""
"image-keyboard-response",207,188691,"0.0-4.65-0.65","0x6h2fn074zf3uz",579,"45.csv","","301.59999999403954","resources/trios/L1T2A3.jpg","37","restless",0.2,0.7,0.8,0.863995036915494,"false"
"image-keyboard-response",208,189092,"0.0-4.65-1.65","0x6h2fn074zf3uz",579,"45.csv","","null","resources/maskTrios/L1BB.jpg","null","",NA,NA,NA,NA,""
"image-keyboard-response",209,190294,"0.0-4.65-2.65","0x6h2fn074zf3uz",579,"45.csv","","null","resources/images/fishbone.png","null","",NA,NA,NA,NA,""
"image-keyboard-response",210,190571,"0.0-4.66-0.66","0x6h2fn074zf3uz",579,"45.csv","","276.90000000596046","resources/trios/L1T2A3.jpg","39","restless",0.3,0.7,0.8,0.917629157599125,"false"
"image-keyboard-response",211,190972,"0.0-4.66-1.66","0x6h2fn074zf3uz",579,"45.csv","","null","resources/maskTrios/BBA3.jpg","null","",NA,NA,NA,NA,""
"image-keyboard-response",212,192426,"0.0-4.66-2.66","0x6h2fn074zf3uz",579,"45.csv","","null","resources/images/fishbone.png","null","",NA,NA,NA,NA,""
"image-keyboard-response",213,192555,"0.0-4.67-0.67","0x6h2fn074zf3uz",579,"45.csv","","128.2000000178814","resources/trios/L1T2A3.jpg","38","restless",0.3,0.7,0.9,0.0824201793912711,"true"
"image-keyboard-response",214,192956,"0.0-4.67-1.67","0x6h2fn074zf3uz",579,"45.csv","","null","resources/maskTrios/BT2B.jpg","null","",NA,NA,NA,NA,""
"image-keyboard-response",215,194158,"0.0-4.67-2.67","0x6h2fn074zf3uz",579,"45.csv","","null","resources/images/coin2.png","null","",NA,NA,NA,NA,""
"image-keyboard-response",216,194459,"0.0-4.68-0.68","0x6h2fn074zf3uz",579,"45.csv","","301","resources/trios/L1T2A3.jpg","37","restless",0.3,0.7,0.9,0.872341789976115,"false"
"image-keyboard-response",217,194861,"0.0-4.68-1.68","0x6h2fn074zf3uz",579,"45.csv","","null","resources/maskTrios/L1BB.jpg","null","",NA,NA,NA,NA,""
"image-keyboard-response",218,196062,"0.0-4.68-2.68","0x6h2fn074zf3uz",579,"45.csv","","null","resources/images/fishbone.png","null","",NA,NA,NA,NA,""
"image-keyboard-response",219,196339,"0.0-4.69-0.69","0x6h2fn074zf3uz",579,"45.csv","","276.60000002384186","resources/trios/L1T2A3.jpg","39","restless",0.3,0.7,0.8,0.745984790032967,"true"
"image-keyboard-response",220,196741,"0.0-4.69-1.69","0x6h2fn074zf3uz",579,"45.csv","","null","resources/maskTrios/BBA3.jpg","null","",NA,NA,NA,NA,""
"image-keyboard-response",221,198427,"0.0-4.69-2.69","0x6h2fn074zf3uz",579,"45.csv","","null","resources/images/coin2.png","null","",NA,NA,NA,NA,""
"image-keyboard-response",222,198763,"0.0-4.70-0.70","0x6h2fn074zf3uz",579,"45.csv","","335.5","resources/trios/L1T2A3.jpg","37","restless",0.3,0.7,0.8,0.964254268822907,"false"
"image-keyboard-response",223,199165,"0.0-4.70-1.70","0x6h2fn074zf3uz",579,"45.csv","","null","resources/maskTrios/L1BB.jpg","null","",NA,NA,NA,NA,""
"image-keyboard-response",224,200367,"0.0-4.70-2.70","0x6h2fn074zf3uz",579,"45.csv","","null","resources/images/fishbone.png","null","",NA,NA,NA,NA,""
"image-keyboard-response",225,200891,"0.0-4.71-0.71","0x6h2fn074zf3uz",579,"45.csv","","523.8000000119209","resources/trios/L1T2A3.jpg","38","restless",0.4,0.7,0.8,0.0972371996123143,"true"
"image-keyboard-response",226,201293,"0.0-4.71-1.71","0x6h2fn074zf3uz",579,"45.csv","","null","resources/maskTrios/BT2B.jpg","null","",NA,NA,NA,NA,""
"image-keyboard-response",227,202495,"0.0-4.71-2.71","0x6h2fn074zf3uz",579,"45.csv","","null","resources/images/coin2.png","null","",NA,NA,NA,NA,""
"image-keyboard-response",228,202763,"0.0-4.72-0.72","0x6h2fn074zf3uz",579,"45.csv","","267.7000000178814","resources/trios/L1T2A3.jpg","39","restless",0.4,0.7,0.8,0.0253023286044149,"true"
"image-keyboard-response",229,203165,"0.0-4.72-1.72","0x6h2fn074zf3uz",579,"45.csv","","null","resources/maskTrios/BBA3.jpg","null","",NA,NA,NA,NA,""
"image-keyboard-response",230,204427,"0.0-4.72-2.72","0x6h2fn074zf3uz",579,"45.csv","","null","resources/images/coin2.png","null","",NA,NA,NA,NA,""
"image-keyboard-response",231,205108,"0.0-4.73-0.73","0x6h2fn074zf3uz",579,"45.csv","","681","resources/trios/L1T2A3.jpg","37","restless",0.4,0.7,0.8,0.452797553685017,"false"
"image-keyboard-response",232,205510,"0.0-4.73-1.73","0x6h2fn074zf3uz",579,"45.csv","","null","resources/maskTrios/L1BB.jpg","null","",NA,NA,NA,NA,""
"image-keyboard-response",233,206711,"0.0-4.73-2.73","0x6h2fn074zf3uz",579,"45.csv","","null","resources/images/fishbone.png","null","",NA,NA,NA,NA,""
"image-keyboard-response",234,207139,"0.0-4.74-0.74","0x6h2fn074zf3uz",579,"45.csv","","427.09999999403954","resources/trios/L1T2A3.jpg","37","restless",0.4,0.7,0.8,0.293339690968089,"true"
"image-keyboard-response",235,207540,"0.0-4.74-1.74","0x6h2fn074zf3uz",579,"45.csv","","null","resources/maskTrios/L1BB.jpg","null","",NA,NA,NA,NA,""
"image-keyboard-response",236,208741,"0.0-4.74-2.74","0x6h2fn074zf3uz",579,"45.csv","","null","resources/images/coin2.png","null","",NA,NA,NA,NA,""
"image-keyboard-response",237,209075,"0.0-4.75-0.75","0x6h2fn074zf3uz",579,"45.csv","","333.80000001192093","resources/trios/L1T2A3.jpg","38","restless",0.4,0.7,0.8,0.929551524456941,"false"
"image-keyboard-response",238,209476,"0.0-4.75-1.75","0x6h2fn074zf3uz",579,"45.csv","","null","resources/maskTrios/BT2B.jpg","null","",NA,NA,NA,NA,""
"image-keyboard-response",239,211427,"0.0-4.75-2.75","0x6h2fn074zf3uz",579,"45.csv","","null","resources/images/fishbone.png","null","",NA,NA,NA,NA,""
"image-keyboard-response",240,211739,"0.0-4.76-0.76","0x6h2fn074zf3uz",579,"45.csv","","311.69999998807907","resources/trios/L1T2A3.jpg","37","restless",0.4,0.7,0.8,0.221542030244528,"true"
"image-keyboard-response",241,212140,"0.0-4.76-1.76","0x6h2fn074zf3uz",579,"45.csv","","null","resources/maskTrios/L1BB.jpg","null","",NA,NA,NA,NA,""
"image-keyboard-response",242,213341,"0.0-4.76-2.76","0x6h2fn074zf3uz",579,"45.csv","","null","resources/images/coin2.png","null","",NA,NA,NA,NA,""
"image-keyboard-response",243,213659,"0.0-4.77-0.77","0x6h2fn074zf3uz",579,"45.csv","","317.30000001192093","resources/trios/L1T2A3.jpg","39","restless",0.4,0.7,0.8,0.507289301447512,"true"
"image-keyboard-response",244,214061,"0.0-4.77-1.77","0x6h2fn074zf3uz",579,"45.csv","","null","resources/maskTrios/BBA3.jpg","null","",NA,NA,NA,NA,""
"image-keyboard-response",245,215262,"0.0-4.77-2.77","0x6h2fn074zf3uz",579,"45.csv","","null","resources/images/coin2.png","null","",NA,NA,NA,NA,""
"image-keyboard-response",246,215700,"0.0-4.78-0.78","0x6h2fn074zf3uz",579,"45.csv","","437.80000001192093","resources/trios/L1T2A3.jpg","39","restless",0.4,0.7,0.8,0.222600286047554,"true"
"image-keyboard-response",247,216102,"0.0-4.78-1.78","0x6h2fn074zf3uz",579,"45.csv","","null","resources/maskTrios/BBA3.jpg","null","",NA,NA,NA,NA,""
"image-keyboard-response",248,217427,"0.0-4.78-2.78","0x6h2fn074zf3uz",579,"45.csv","","null","resources/images/coin2.png","null","",NA,NA,NA,NA,""
"image-keyboard-response",249,217691,"0.0-4.79-0.79","0x6h2fn074zf3uz",579,"45.csv","","264.09999999403954","resources/trios/L1T2A3.jpg","37","restless",0.4,0.7,0.8,0.116468688292758,"true"
"image-keyboard-response",250,218093,"0.0-4.79-1.79","0x6h2fn074zf3uz",579,"45.csv","","null","resources/maskTrios/L1BB.jpg","null","",NA,NA,NA,NA,""
"image-keyboard-response",251,219294,"0.0-4.79-2.79","0x6h2fn074zf3uz",579,"45.csv","","null","resources/images/coin2.png","null","",NA,NA,NA,NA,""
"image-keyboard-response",252,219594,"0.0-4.80-0.80","0x6h2fn074zf3uz",579,"45.csv","","300.09999999403954","resources/trios/L1T2A3.jpg","38","restless",0.4,0.7,0.8,0.19613140940267,"true"
"image-keyboard-response",253,219996,"0.0-4.80-1.80","0x6h2fn074zf3uz",579,"45.csv","","null","resources/maskTrios/BT2B.jpg","null","",NA,NA,NA,NA,""
"image-keyboard-response",254,221198,"0.0-4.80-2.80","0x6h2fn074zf3uz",579,"45.csv","","null","resources/images/coin2.png","null","",NA,NA,NA,NA,""
"image-keyboard-response",255,221451,"0.0-4.81-0.81","0x6h2fn074zf3uz",579,"45.csv","","252.7000000178814","resources/trios/L1T2A3.jpg","39","restless",0.4,0.7,0.8,0.802147771763492,"false"
"image-keyboard-response",256,221853,"0.0-4.81-1.81","0x6h2fn074zf3uz",579,"45.csv","","null","resources/maskTrios/BBA3.jpg","null","",NA,NA,NA,NA,""
"image-keyboard-response",257,223426,"0.0-4.81-2.81","0x6h2fn074zf3uz",579,"45.csv","","null","resources/images/fishbone.png","null","",NA,NA,NA,NA,""
"image-keyboard-response",258,223755,"0.0-4.82-0.82","0x6h2fn074zf3uz",579,"45.csv","","328.40000000596046","resources/trios/L1T2A3.jpg","37","restless",0.4,0.7,0.8,0.224706595691222,"true"
"image-keyboard-response",259,224156,"0.0-4.82-1.82","0x6h2fn074zf3uz",579,"45.csv","","null","resources/maskTrios/L1BB.jpg","null","",NA,NA,NA,NA,""
"image-keyboard-response",260,225357,"0.0-4.82-2.82","0x6h2fn074zf3uz",579,"45.csv","","null","resources/images/coin2.png","null","",NA,NA,NA,NA,""
"image-keyboard-response",261,225859,"0.0-4.83-0.83","0x6h2fn074zf3uz",579,"45.csv","","502","resources/trios/L1T2A3.jpg","38","restless",0.4,0.7,0.8,0.929539747133769,"false"
"image-keyboard-response",262,226261,"0.0-4.83-1.83","0x6h2fn074zf3uz",579,"45.csv","","null","resources/maskTrios/BT2B.jpg","null","",NA,NA,NA,NA,""
"image-keyboard-response",263,227462,"0.0-4.83-2.83","0x6h2fn074zf3uz",579,"45.csv","","null","resources/images/fishbone.png","null","",NA,NA,NA,NA,""
"image-keyboard-response",264,227771,"0.0-4.84-0.84","0x6h2fn074zf3uz",579,"45.csv","","307.80000001192093","resources/trios/L1T2A3.jpg","37","restless",0.4,0.7,0.8,0.415886932198517,"false"
"image-keyboard-response",265,228172,"0.0-4.84-1.84","0x6h2fn074zf3uz",579,"45.csv","","null","resources/maskTrios/L1BB.jpg","null","",NA,NA,NA,NA,""
"image-keyboard-response",266,229427,"0.0-4.84-2.84","0x6h2fn074zf3uz",579,"45.csv","","null","resources/images/fishbone.png","null","",NA,NA,NA,NA,""
"image-keyboard-response",267,229699,"0.0-4.85-0.85","0x6h2fn074zf3uz",579,"45.csv","","271.40000000596046","resources/trios/L1T2A3.jpg","37","restless",0.5,0.7,0.8,0.771239947135961,"false"
"image-keyboard-response",268,230101,"0.0-4.85-1.85","0x6h2fn074zf3uz",579,"45.csv","","null","resources/maskTrios/L1BB.jpg","null","",NA,NA,NA,NA,""
"image-keyboard-response",269,231303,"0.0-4.85-2.85","0x6h2fn074zf3uz",579,"45.csv","","null","resources/images/fishbone.png","null","",NA,NA,NA,NA,""
"image-keyboard-response",270,231595,"0.0-4.86-0.86","0x6h2fn074zf3uz",579,"45.csv","","291.40000000596046","resources/trios/L1T2A3.jpg","37","restless",0.5,0.7,0.8,0.15309820081849,"true"
"image-keyboard-response",271,231997,"0.0-4.86-1.86","0x6h2fn074zf3uz",579,"45.csv","","null","resources/maskTrios/L1BB.jpg","null","",NA,NA,NA,NA,""
"image-keyboard-response",272,233198,"0.0-4.86-2.86","0x6h2fn074zf3uz",579,"45.csv","","null","resources/images/coin2.png","null","",NA,NA,NA,NA,""
"image-keyboard-response",273,233611,"0.0-4.87-0.87","0x6h2fn074zf3uz",579,"45.csv","","412.7000000178814","resources/trios/L1T2A3.jpg","37","restless",0.6,0.7,0.8,0.536247243410707,"true"
"image-keyboard-response",274,234012,"0.0-4.87-1.87","0x6h2fn074zf3uz",579,"45.csv","","null","resources/maskTrios/L1BB.jpg","null","",NA,NA,NA,NA,""
"image-keyboard-response",275,235427,"0.0-4.87-2.87","0x6h2fn074zf3uz",579,"45.csv","","null","resources/images/coin2.png","null","",NA,NA,NA,NA,""
"image-keyboard-response",276,235747,"0.0-4.88-0.88","0x6h2fn074zf3uz",579,"45.csv","","319.19999998807907","resources/trios/L1T2A3.jpg","38","restless",0.6,0.7,0.8,0.484489229072559,"true"
"image-keyboard-response",277,236148,"0.0-4.88-1.88","0x6h2fn074zf3uz",579,"45.csv","","null","resources/maskTrios/BT2B.jpg","null","",NA,NA,NA,NA,""
"image-keyboard-response",278,237350,"0.0-4.88-2.88","0x6h2fn074zf3uz",579,"45.csv","","null","resources/images/coin2.png","null","",NA,NA,NA,NA,""
"image-keyboard-response",279,237644,"0.0-4.89-0.89","0x6h2fn074zf3uz",579,"45.csv","","293.09999999403954","resources/trios/L1T2A3.jpg","39","restless",0.6,0.8,0.8,0.439916689917925,"true"
"image-keyboard-response",280,238046,"0.0-4.89-1.89","0x6h2fn074zf3uz",579,"45.csv","","null","resources/maskTrios/BBA3.jpg","null","",NA,NA,NA,NA,""
"image-keyboard-response",281,239247,"0.0-4.89-2.89","0x6h2fn074zf3uz",579,"45.csv","","null","resources/images/coin2.png","null","",NA,NA,NA,NA,""
"image-keyboard-response",282,239539,"0.0-4.90-0.90","0x6h2fn074zf3uz",579,"45.csv","","291.2000000178814","resources/trios/L1T2A3.jpg","37","restless",0.6,0.7,0.8,0.523877448882271,"true"
"image-keyboard-response",283,239940,"0.0-4.90-1.90","0x6h2fn074zf3uz",579,"45.csv","","null","resources/maskTrios/L1BB.jpg","null","",NA,NA,NA,NA,""
"image-keyboard-response",284,241426,"0.0-4.90-2.90","0x6h2fn074zf3uz",579,"45.csv","","null","resources/images/coin2.png","null","",NA,NA,NA,NA,""
"image-keyboard-response",285,241490,"0.0-4.91-0.91","0x6h2fn074zf3uz",579,"45.csv","","63.80000001192093","resources/trios/L1T2A3.jpg","37","restless",0.6,0.7,0.8,0.495914139839792,"true"
"image-keyboard-response",286,241891,"0.0-4.91-1.91","0x6h2fn074zf3uz",579,"45.csv","","null","resources/maskTrios/L1BB.jpg","null","",NA,NA,NA,NA,""
"image-keyboard-response",287,243092,"0.0-4.91-2.91","0x6h2fn074zf3uz",579,"45.csv","","null","resources/images/coin2.png","null","",NA,NA,NA,NA,""
"image-keyboard-response",288,243347,"0.0-4.92-0.92","0x6h2fn074zf3uz",579,"45.csv","","254.5","resources/trios/L1T2A3.jpg","37","restless",0.6,0.7,0.8,0.754028431716985,"false"
"image-keyboard-response",289,243750,"0.0-4.92-1.92","0x6h2fn074zf3uz",579,"45.csv","","null","resources/maskTrios/L1BB.jpg","null","",NA,NA,NA,NA,""
"image-keyboard-response",290,244951,"0.0-4.92-2.92","0x6h2fn074zf3uz",579,"45.csv","","null","resources/images/fishbone.png","null","",NA,NA,NA,NA,""
"image-keyboard-response",291,245195,"0.0-4.93-0.93","0x6h2fn074zf3uz",579,"45.csv","","243","resources/trios/L1T2A3.jpg","39","restless",0.6,0.7,0.8,0.660833799490729,"true"
"image-keyboard-response",292,245597,"0.0-4.93-1.93","0x6h2fn074zf3uz",579,"45.csv","","null","resources/maskTrios/BBA3.jpg","null","",NA,NA,NA,NA,""
"image-keyboard-response",293,247267,"0.0-4.93-2.93","0x6h2fn074zf3uz",579,"45.csv","","null","resources/images/coin2.png","null","",NA,NA,NA,NA,""
"image-keyboard-response",294,248563,"0.0-4.94-0.94","0x6h2fn074zf3uz",579,"45.csv","","1295","resources/trios/L1T2A3.jpg","39","restless",0.6,0.7,0.7,0.931812455024466,"false"
"image-keyboard-response",295,248964,"0.0-4.94-1.94","0x6h2fn074zf3uz",579,"45.csv","","null","resources/maskTrios/BBA3.jpg","null","",NA,NA,NA,NA,""
"image-keyboard-response",296,250165,"0.0-4.94-2.94","0x6h2fn074zf3uz",579,"45.csv","","null","resources/images/fishbone.png","null","",NA,NA,NA,NA,""
"image-keyboard-response",297,250491,"0.0-4.95-0.95","0x6h2fn074zf3uz",579,"45.csv","","325.59999999403954","resources/trios/L1T2A3.jpg","37","restless",0.6,0.6,0.7,0.191874529593301,"true"
"image-keyboard-response",298,250893,"0.0-4.95-1.95","0x6h2fn074zf3uz",579,"45.csv","","null","resources/maskTrios/L1BB.jpg","null","",NA,NA,NA,NA,""
"image-keyboard-response",299,252095,"0.0-4.95-2.95","0x6h2fn074zf3uz",579,"45.csv","","null","resources/images/coin2.png","null","",NA,NA,NA,NA,""
"image-keyboard-response",300,252411,"0.0-4.96-0.96","0x6h2fn074zf3uz",579,"45.csv","","315.59999999403954","resources/trios/L1T2A3.jpg","37","restless",0.6,0.6,0.7,0.0424975018214719,"true"
"image-keyboard-response",301,252812,"0.0-4.96-1.96","0x6h2fn074zf3uz",579,"45.csv","","null","resources/maskTrios/L1BB.jpg","null","",NA,NA,NA,NA,""
"image-keyboard-response",302,254013,"0.0-4.96-2.96","0x6h2fn074zf3uz",579,"45.csv","","null","resources/images/coin2.png","null","",NA,NA,NA,NA,""
"image-keyboard-response",303,254299,"0.0-4.97-0.97","0x6h2fn074zf3uz",579,"45.csv","","285.59999999403954","resources/trios/L1T2A3.jpg","38","restless",0.6,0.6,0.7,0.519835224309745,"true"
"image-keyboard-response",304,254700,"0.0-4.97-1.97","0x6h2fn074zf3uz",579,"45.csv","","null","resources/maskTrios/BT2B.jpg","null","",NA,NA,NA,NA,""
"image-keyboard-response",305,255903,"0.0-4.97-2.97","0x6h2fn074zf3uz",579,"45.csv","","null","resources/images/coin2.png","null","",NA,NA,NA,NA,""
"image-keyboard-response",306,256154,"0.0-4.98-0.98","0x6h2fn074zf3uz",579,"45.csv","","251.19999998807907","resources/trios/L1T2A3.jpg","38","restless",0.7,0.6,0.7,0.308435053375662,"true"
"image-keyboard-response",307,256557,"0.0-4.98-1.98","0x6h2fn074zf3uz",579,"45.csv","","null","resources/maskTrios/BT2B.jpg","null","",NA,NA,NA,NA,""
"image-keyboard-response",308,258427,"0.0-4.98-2.98","0x6h2fn074zf3uz",579,"45.csv","","null","resources/images/coin2.png","null","",NA,NA,NA,NA,""
"image-keyboard-response",309,258716,"0.0-4.99-0.99","0x6h2fn074zf3uz",579,"45.csv","","289.39999997615814","resources/trios/L1T2A3.jpg","39","restless",0.7,0.6,0.7,0.170517348132182,"true"
"image-keyboard-response",310,259118,"0.0-4.99-1.99","0x6h2fn074zf3uz",579,"45.csv","","null","resources/maskTrios/BBA3.jpg","null","",NA,NA,NA,NA,""
"image-keyboard-response",311,260320,"0.0-4.99-2.99","0x6h2fn074zf3uz",579,"45.csv","","null","resources/images/coin2.png","null","",NA,NA,NA,NA,""
"image-keyboard-response",312,260611,"0.0-4.100-0.100","0x6h2fn074zf3uz",579,"45.csv","","290.7999999821186","resources/trios/L1T2A3.jpg","39","restless",0.6,0.6,0.7,0.349437069086627,"true"
"image-keyboard-response",313,261013,"0.0-4.100-1.100","0x6h2fn074zf3uz",579,"45.csv","","null","resources/maskTrios/BBA3.jpg","null","",NA,NA,NA,NA,""
"image-keyboard-response",314,262214,"0.0-4.100-2.100","0x6h2fn074zf3uz",579,"45.csv","","null","resources/images/coin2.png","null","",NA,NA,NA,NA,""
"image-keyboard-response",315,262555,"0.0-4.101-0.101","0x6h2fn074zf3uz",579,"45.csv","","340.30000001192093","resources/trios/L1T2A3.jpg","37","restless",0.6,0.6,0.7,0.713386984770103,"false"
"image-keyboard-response",316,262956,"0.0-4.101-1.101","0x6h2fn074zf3uz",579,"45.csv","","null","resources/maskTrios/L1BB.jpg","null","",NA,NA,NA,NA,""
"image-keyboard-response",317,264426,"0.0-4.101-2.101","0x6h2fn074zf3uz",579,"45.csv","","null","resources/images/fishbone.png","null","",NA,NA,NA,NA,""
"image-keyboard-response",318,265643,"0.0-4.102-0.102","0x6h2fn074zf3uz",579,"45.csv","","1216.4000000059605","resources/trios/L1T2A3.jpg","37","restless",0.6,0.5,0.7,0.0514894002267416,"true"
"image-keyboard-response",319,266044,"0.0-4.102-1.102","0x6h2fn074zf3uz",579,"45.csv","","null","resources/maskTrios/L1BB.jpg","null","",NA,NA,NA,NA,""
"image-keyboard-response",320,267246,"0.0-4.102-2.102","0x6h2fn074zf3uz",579,"45.csv","","null","resources/images/coin2.png","null","",NA,NA,NA,NA,""
"image-keyboard-response",321,267554,"0.0-4.103-0.103","0x6h2fn074zf3uz",579,"45.csv","","308.19999998807907","resources/trios/L1T2A3.jpg","37","restless",0.6,0.5,0.7,0.653359031908345,"false"
"image-keyboard-response",322,267956,"0.0-4.103-1.103","0x6h2fn074zf3uz",579,"45.csv","","null","resources/maskTrios/L1BB.jpg","null","",NA,NA,NA,NA,""
"image-keyboard-response",323,269158,"0.0-4.103-2.103","0x6h2fn074zf3uz",579,"45.csv","","null","resources/images/fishbone.png","null","",NA,NA,NA,NA,""
"image-keyboard-response",324,269396,"0.0-4.104-0.104","0x6h2fn074zf3uz",579,"45.csv","","237.69999998807907","resources/trios/L1T2A3.jpg","38","restless",0.6,0.5,0.6,0.086663291925358,"true"
"image-keyboard-response",325,269798,"0.0-4.104-1.104","0x6h2fn074zf3uz",579,"45.csv","","null","resources/maskTrios/BT2B.jpg","null","",NA,NA,NA,NA,""
"image-keyboard-response",326,271426,"0.0-4.104-2.104","0x6h2fn074zf3uz",579,"45.csv","","null","resources/images/coin2.png","null","",NA,NA,NA,NA,""
"image-keyboard-response",327,271675,"0.0-4.105-0.105","0x6h2fn074zf3uz",579,"45.csv","","249","resources/trios/L1T2A3.jpg","39","restless",0.5,0.5,0.6,0.16979568166349,"true"
"image-keyboard-response",328,272077,"0.0-4.105-1.105","0x6h2fn074zf3uz",579,"45.csv","","null","resources/maskTrios/BBA3.jpg","null","",NA,NA,NA,NA,""
"image-keyboard-response",329,273279,"0.0-4.105-2.105","0x6h2fn074zf3uz",579,"45.csv","","null","resources/images/coin2.png","null","",NA,NA,NA,NA,""
"image-keyboard-response",330,273531,"0.0-4.106-0.106","0x6h2fn074zf3uz",579,"45.csv","","251.40000000596046","resources/trios/L1T2A3.jpg","37","restless",0.5,0.5,0.6,0.86408733642915,"false"
"image-keyboard-response",331,273932,"0.0-4.106-1.106","0x6h2fn074zf3uz",579,"45.csv","","null","resources/maskTrios/L1BB.jpg","null","",NA,NA,NA,NA,""
"image-keyboard-response",332,275133,"0.0-4.106-2.106","0x6h2fn074zf3uz",579,"45.csv","","null","resources/images/fishbone.png","null","",NA,NA,NA,NA,""
"image-keyboard-response",333,275355,"0.0-4.107-0.107","0x6h2fn074zf3uz",579,"45.csv","","221.90000000596046","resources/trios/L1T2A3.jpg","37","restless",0.5,0.5,0.6,0.652462148295427,"false"
"image-keyboard-response",334,275756,"0.0-4.107-1.107","0x6h2fn074zf3uz",579,"45.csv","","null","resources/maskTrios/L1BB.jpg","null","",NA,NA,NA,NA,""
"image-keyboard-response",335,277427,"0.0-4.107-2.107","0x6h2fn074zf3uz",579,"45.csv","","null","resources/images/fishbone.png","null","",NA,NA,NA,NA,""
"image-keyboard-response",336,277675,"0.0-4.108-0.108","0x6h2fn074zf3uz",579,"45.csv","","248","resources/trios/L1T2A3.jpg","37","restless",0.5,0.5,0.6,0.922542622488557,"false"
"image-keyboard-response",337,278077,"0.0-4.108-1.108","0x6h2fn074zf3uz",579,"45.csv","","null","resources/maskTrios/L1BB.jpg","null","",NA,NA,NA,NA,""
"image-keyboard-response",338,279278,"0.0-4.108-2.108","0x6h2fn074zf3uz",579,"45.csv","","null","resources/images/fishbone.png","null","",NA,NA,NA,NA,""
"image-keyboard-response",339,279580,"0.0-4.109-0.109","0x6h2fn074zf3uz",579,"45.csv","","301.69999998807907","resources/trios/L1T2A3.jpg","37","restless",0.5,0.5,0.6,0.0932640418605288,"true"
"image-keyboard-response",340,279981,"0.0-4.109-1.109","0x6h2fn074zf3uz",579,"45.csv","","null","resources/maskTrios/L1BB.jpg","null","",NA,NA,NA,NA,""
"image-keyboard-response",341,281182,"0.0-4.109-2.109","0x6h2fn074zf3uz",579,"45.csv","","null","resources/images/coin2.png","null","",NA,NA,NA,NA,""
"image-keyboard-response",342,281443,"0.0-4.110-0.110","0x6h2fn074zf3uz",579,"45.csv","","260.90000000596046","resources/trios/L1T2A3.jpg","37","restless",0.5,0.6,0.6,0.00163270510158497,"true"
"image-keyboard-response",343,281845,"0.0-4.110-1.110","0x6h2fn074zf3uz",579,"45.csv","","null","resources/maskTrios/L1BB.jpg","null","",NA,NA,NA,NA,""
"image-keyboard-response",344,283426,"0.0-4.110-2.110","0x6h2fn074zf3uz",579,"45.csv","","null","resources/images/coin2.png","null","",NA,NA,NA,NA,""
"image-keyboard-response",345,283659,"0.0-4.111-0.111","0x6h2fn074zf3uz",579,"45.csv","","232.40000000596046","resources/trios/L1T2A3.jpg","37","restless",0.5,0.6,0.6,0.161597957463524,"true"
"image-keyboard-response",346,284060,"0.0-4.111-1.111","0x6h2fn074zf3uz",579,"45.csv","","null","resources/maskTrios/L1BB.jpg","null","",NA,NA,NA,NA,""
"image-keyboard-response",347,285261,"0.0-4.111-2.111","0x6h2fn074zf3uz",579,"45.csv","","null","resources/images/coin2.png","null","",NA,NA,NA,NA,""
"image-keyboard-response",348,285507,"0.0-4.112-0.112","0x6h2fn074zf3uz",579,"45.csv","","245.59999999403954","resources/trios/L1T2A3.jpg","38","restless",0.5,0.6,0.6,0.318288165021902,"true"
"image-keyboard-response",349,285909,"0.0-4.112-1.112","0x6h2fn074zf3uz",579,"45.csv","","null","resources/maskTrios/BT2B.jpg","null","",NA,NA,NA,NA,""
"image-keyboard-response",350,287111,"0.0-4.112-2.112","0x6h2fn074zf3uz",579,"45.csv","","null","resources/images/coin2.png","null","",NA,NA,NA,NA,""
"image-keyboard-response",351,287372,"0.0-4.113-0.113","0x6h2fn074zf3uz",579,"45.csv","","260.09999999403954","resources/trios/L1T2A3.jpg","38","restless",0.5,0.6,0.6,0.611520690167502,"false"
"image-keyboard-response",352,287773,"0.0-4.113-1.113","0x6h2fn074zf3uz",579,"45.csv","","null","resources/maskTrios/BT2B.jpg","null","",NA,NA,NA,NA,""
"image-keyboard-response",353,289426,"0.0-4.113-2.113","0x6h2fn074zf3uz",579,"45.csv","","null","resources/images/fishbone.png","null","",NA,NA,NA,NA,""
"image-keyboard-response",354,289724,"0.0-4.114-0.114","0x6h2fn074zf3uz",579,"45.csv","","296.7000000178814","resources/trios/L1T2A3.jpg","39","restless",0.5,0.6,0.6,0.586315317681589,"true"
"image-keyboard-response",355,290126,"0.0-4.114-1.114","0x6h2fn074zf3uz",579,"45.csv","","null","resources/maskTrios/BBA3.jpg","null","",NA,NA,NA,NA,""
"image-keyboard-response",356,291326,"0.0-4.114-2.114","0x6h2fn074zf3uz",579,"45.csv","","null","resources/images/coin2.png","null","",NA,NA,NA,NA,""
"image-keyboard-response",357,291619,"0.0-4.115-0.115","0x6h2fn074zf3uz",579,"45.csv","","291.90000000596046","resources/trios/L1T2A3.jpg","39","restless",0.5,0.6,0.6,0.256637539741521,"true"
"image-keyboard-response",358,292020,"0.0-4.115-1.115","0x6h2fn074zf3uz",579,"45.csv","","null","resources/maskTrios/BBA3.jpg","null","",NA,NA,NA,NA,""
"image-keyboard-response",359,293222,"0.0-4.115-2.115","0x6h2fn074zf3uz",579,"45.csv","","null","resources/images/coin2.png","null","",NA,NA,NA,NA,""
"image-keyboard-response",360,294058,"0.0-4.116-0.116","0x6h2fn074zf3uz",579,"45.csv","","835.9000000059605","resources/trios/L1T2A3.jpg","39","restless",0.5,0.7,0.6,0.357761352712576,"true"
"image-keyboard-response",361,294460,"0.0-4.116-1.116","0x6h2fn074zf3uz",579,"45.csv","","null","resources/maskTrios/BBA3.jpg","null","",NA,NA,NA,NA,""
"image-keyboard-response",362,296426,"0.0-4.116-2.116","0x6h2fn074zf3uz",579,"45.csv","","null","resources/images/coin2.png","null","",NA,NA,NA,NA,""
"image-keyboard-response",363,296683,"0.0-4.117-0.117","0x6h2fn074zf3uz",579,"45.csv","","256.60000002384186","resources/trios/L1T2A3.jpg","39","restless",0.5,0.6,0.6,0.208615688527352,"true"
"image-keyboard-response",364,297084,"0.0-4.117-1.117","0x6h2fn074zf3uz",579,"45.csv","","null","resources/maskTrios/BBA3.jpg","null","",NA,NA,NA,NA,""
"image-keyboard-response",365,298286,"0.0-4.117-2.117","0x6h2fn074zf3uz",579,"45.csv","","null","resources/images/coin2.png","null","",NA,NA,NA,NA,""
"image-keyboard-response",366,298699,"0.0-4.118-0.118","0x6h2fn074zf3uz",579,"45.csv","","412.90000000596046","resources/trios/L1T2A3.jpg","39","restless",0.5,0.6,0.6,0.435378350333236,"true"
"image-keyboard-response",367,299101,"0.0-4.118-1.118","0x6h2fn074zf3uz",579,"45.csv","","null","resources/maskTrios/BBA3.jpg","null","",NA,NA,NA,NA,""
"image-keyboard-response",368,300302,"0.0-4.118-2.118","0x6h2fn074zf3uz",579,"45.csv","","null","resources/images/coin2.png","null","",NA,NA,NA,NA,""
"image-keyboard-response",369,300756,"0.0-4.119-0.119","0x6h2fn074zf3uz",579,"45.csv","","452.80000001192093","resources/trios/L1T2A3.jpg","37","restless",0.5,0.6,0.6,0.257028305862498,"true"
"image-keyboard-response",370,301157,"0.0-4.119-1.119","0x6h2fn074zf3uz",579,"45.csv","","null","resources/maskTrios/L1BB.jpg","null","",NA,NA,NA,NA,""
"image-keyboard-response",371,302427,"0.0-4.119-2.119","0x6h2fn074zf3uz",579,"45.csv","","null","resources/images/coin2.png","null","",NA,NA,NA,NA,""
"image-keyboard-response",372,302772,"0.0-4.120-0.120","0x6h2fn074zf3uz",579,"45.csv","","344.5","resources/trios/L1T2A3.jpg","37","restless",0.5,0.6,0.6,0.0612468103800585,"true"
"image-keyboard-response",373,303173,"0.0-4.120-1.120","0x6h2fn074zf3uz",579,"45.csv","","null","resources/maskTrios/L1BB.jpg","null","",NA,NA,NA,NA,""
"image-keyboard-response",374,304375,"0.0-4.120-2.120","0x6h2fn074zf3uz",579,"45.csv","","null","resources/images/coin2.png","null","",NA,NA,NA,NA,""
"image-keyboard-response",375,304723,"0.0-4.121-0.121","0x6h2fn074zf3uz",579,"45.csv","","347.40000000596046","resources/trios/L1T2A3.jpg","37","restless",0.5,0.6,0.6,0.730868250863115,"false"
"image-keyboard-response",376,305125,"0.0-4.121-1.121","0x6h2fn074zf3uz",579,"45.csv","","null","resources/maskTrios/L1BB.jpg","null","",NA,NA,NA,NA,""
"image-keyboard-response",377,306326,"0.0-4.121-2.121","0x6h2fn074zf3uz",579,"45.csv","","null","resources/images/fishbone.png","null","",NA,NA,NA,NA,""
"image-keyboard-response",378,306563,"0.0-4.122-0.122","0x6h2fn074zf3uz",579,"45.csv","","236.5","resources/trios/L1T2A3.jpg","38","restless",0.5,0.6,0.5,0.570993008045509,"true"
"image-keyboard-response",379,306965,"0.0-4.122-1.122","0x6h2fn074zf3uz",579,"45.csv","","null","resources/maskTrios/BT2B.jpg","null","",NA,NA,NA,NA,""
"image-keyboard-response",380,308411,"0.0-4.122-2.122","0x6h2fn074zf3uz",579,"45.csv","","null","resources/images/coin2.png","null","",NA,NA,NA,NA,""
"image-keyboard-response",381,308755,"0.0-4.123-0.123","0x6h2fn074zf3uz",579,"45.csv","","343.5","resources/trios/L1T2A3.jpg","38","restless",0.5,0.6,0.5,0.270699627799518,"true"
"image-keyboard-response",382,309157,"0.0-4.123-1.123","0x6h2fn074zf3uz",579,"45.csv","","null","resources/maskTrios/BT2B.jpg","null","",NA,NA,NA,NA,""
"image-keyboard-response",383,310358,"0.0-4.123-2.123","0x6h2fn074zf3uz",579,"45.csv","","null","resources/images/coin2.png","null","",NA,NA,NA,NA,""
"image-keyboard-response",384,310578,"0.0-4.124-0.124","0x6h2fn074zf3uz",579,"45.csv","","220.19999998807907","resources/trios/L1T2A3.jpg","39","restless",0.5,0.6,0.5,0.985610293565174,"false"
"image-keyboard-response",385,310979,"0.0-4.124-1.124","0x6h2fn074zf3uz",579,"45.csv","","null","resources/maskTrios/BBA3.jpg","null","",NA,NA,NA,NA,""
"image-keyboard-response",386,312181,"0.0-4.124-2.124","0x6h2fn074zf3uz",579,"45.csv","","null","resources/images/fishbone.png","null","",NA,NA,NA,NA,""
"image-keyboard-response",387,312459,"0.0-4.125-0.125","0x6h2fn074zf3uz",579,"45.csv","","278","resources/trios/L1T2A3.jpg","39","restless",0.5,0.6,0.5,0.38520655234729,"true"
"image-keyboard-response",388,312862,"0.0-4.125-1.125","0x6h2fn074zf3uz",579,"45.csv","","null","resources/maskTrios/BBA3.jpg","null","",NA,NA,NA,NA,""
"image-keyboard-response",389,314426,"0.0-4.125-2.125","0x6h2fn074zf3uz",579,"45.csv","","null","resources/images/coin2.png","null","",NA,NA,NA,NA,""
"image-keyboard-response",390,314739,"0.0-4.126-0.126","0x6h2fn074zf3uz",579,"45.csv","","313","resources/trios/L1T2A3.jpg","39","restless",0.5,0.6,0.5,0.424074772401511,"true"
"image-keyboard-response",391,315142,"0.0-4.126-1.126","0x6h2fn074zf3uz",579,"45.csv","","null","resources/maskTrios/BBA3.jpg","null","",NA,NA,NA,NA,""
"image-keyboard-response",392,316343,"0.0-4.126-2.126","0x6h2fn074zf3uz",579,"45.csv","","null","resources/images/coin2.png","null","",NA,NA,NA,NA,""
"image-keyboard-response",393,316611,"0.0-4.127-0.127","0x6h2fn074zf3uz",579,"45.csv","","267.60000002384186","resources/trios/L1T2A3.jpg","39","restless",0.5,0.6,0.5,0.642169566261558,"false"
"image-keyboard-response",394,317013,"0.0-4.127-1.127","0x6h2fn074zf3uz",579,"45.csv","","null","resources/maskTrios/BBA3.jpg","null","",NA,NA,NA,NA,""
"image-keyboard-response",395,318215,"0.0-4.127-2.127","0x6h2fn074zf3uz",579,"45.csv","","null","resources/images/fishbone.png","null","",NA,NA,NA,NA,""
"image-keyboard-response",396,318443,"0.0-4.128-0.128","0x6h2fn074zf3uz",579,"45.csv","","228","resources/trios/L1T2A3.jpg","37","restless",0.5,0.6,0.6,0.920621243917509,"false"
"image-keyboard-response",397,318844,"0.0-4.128-1.128","0x6h2fn074zf3uz",579,"45.csv","","null","resources/maskTrios/L1BB.jpg","null","",NA,NA,NA,NA,""
"image-keyboard-response",398,320426,"0.0-4.128-2.128","0x6h2fn074zf3uz",579,"45.csv","","null","resources/images/fishbone.png","null","",NA,NA,NA,NA,""
"image-keyboard-response",399,320435,"0.0-4.129-0.129","0x6h2fn074zf3uz",579,"45.csv","","7.399999976158142","resources/trios/L1T2A3.jpg","38","restless",0.4,0.6,0.6,0.482881301050748,"true"
"image-keyboard-response",400,320836,"0.0-4.129-1.129","0x6h2fn074zf3uz",579,"45.csv","","null","resources/maskTrios/BT2B.jpg","null","",NA,NA,NA,NA,""
"image-keyboard-response",401,322037,"0.0-4.129-2.129","0x6h2fn074zf3uz",579,"45.csv","","null","resources/images/coin2.png","null","",NA,NA,NA,NA,""
"image-keyboard-response",402,322283,"0.0-4.130-0.130","0x6h2fn074zf3uz",579,"45.csv","","245.7999999821186","resources/trios/L1T2A3.jpg","38","restless",0.4,0.6,0.6,0.559890095469952,"true"
"image-keyboard-response",403,322685,"0.0-4.130-1.130","0x6h2fn074zf3uz",579,"45.csv","","null","resources/maskTrios/BT2B.jpg","null","",NA,NA,NA,NA,""
"image-keyboard-response",404,323886,"0.0-4.130-2.130","0x6h2fn074zf3uz",579,"45.csv","","null","resources/images/coin2.png","null","",NA,NA,NA,NA,""
"image-keyboard-response",405,324164,"0.0-4.131-0.131","0x6h2fn074zf3uz",579,"45.csv","","277.90000000596046","resources/trios/L1T2A3.jpg","39","restless",0.4,0.6,0.6,0.510844001696779,"true"
"image-keyboard-response",406,324566,"0.0-4.131-1.131","0x6h2fn074zf3uz",579,"45.csv","","null","resources/maskTrios/BBA3.jpg","null","",NA,NA,NA,NA,""
"image-keyboard-response",407,326426,"0.0-4.131-2.131","0x6h2fn074zf3uz",579,"45.csv","","null","resources/images/coin2.png","null","",NA,NA,NA,NA,""
"image-keyboard-response",408,326707,"0.0-4.132-0.132","0x6h2fn074zf3uz",579,"45.csv","","280.7000000178814","resources/trios/L1T2A3.jpg","39","restless",0.4,0.5,0.6,0.676432077304408,"false"
"image-keyboard-response",409,327109,"0.0-4.132-1.132","0x6h2fn074zf3uz",579,"45.csv","","null","resources/maskTrios/BBA3.jpg","null","",NA,NA,NA,NA,""
"image-keyboard-response",410,328310,"0.0-4.132-2.132","0x6h2fn074zf3uz",579,"45.csv","","null","resources/images/fishbone.png","null","",NA,NA,NA,NA,""
"image-keyboard-response",411,328594,"0.0-4.133-0.133","0x6h2fn074zf3uz",579,"45.csv","","283.2000000178814","resources/trios/L1T2A3.jpg","37","restless",0.4,0.5,0.6,0.0784777262827034,"true"
"image-keyboard-response",412,328995,"0.0-4.133-1.133","0x6h2fn074zf3uz",579,"45.csv","","null","resources/maskTrios/L1BB.jpg","null","",NA,NA,NA,NA,""
"image-keyboard-response",413,330198,"0.0-4.133-2.133","0x6h2fn074zf3uz",579,"45.csv","","null","resources/images/coin2.png","null","",NA,NA,NA,NA,""
"image-keyboard-response",414,330435,"0.0-4.134-0.134","0x6h2fn074zf3uz",579,"45.csv","","237.09999999403954","resources/trios/L1T2A3.jpg","37","restless",0.4,0.4,0.5,0.474194084427609,"false"
"image-keyboard-response",415,330837,"0.0-4.134-1.134","0x6h2fn074zf3uz",579,"45.csv","","null","resources/maskTrios/L1BB.jpg","null","",NA,NA,NA,NA,""
"image-keyboard-response",416,332427,"0.0-4.134-2.134","0x6h2fn074zf3uz",579,"45.csv","","null","resources/images/fishbone.png","null","",NA,NA,NA,NA,""
"image-keyboard-response",417,332707,"0.0-4.135-0.135","0x6h2fn074zf3uz",579,"45.csv","","279.2000000178814","resources/trios/L1T2A3.jpg","38","restless",0.4,0.4,0.5,0.547349720105708,"false"
"image-keyboard-response",418,333108,"0.0-4.135-1.135","0x6h2fn074zf3uz",579,"45.csv","","null","resources/maskTrios/BT2B.jpg","null","",NA,NA,NA,NA,""
"image-keyboard-response",419,334309,"0.0-4.135-2.135","0x6h2fn074zf3uz",579,"45.csv","","null","resources/images/fishbone.png","null","",NA,NA,NA,NA,""
"image-keyboard-response",420,334620,"0.0-4.136-0.136","0x6h2fn074zf3uz",579,"45.csv","","310.30000001192093","resources/trios/L1T2A3.jpg","38","restless",0.4,0.4,0.5,0.810102902471072,"false"
"image-keyboard-response",421,335021,"0.0-4.136-1.136","0x6h2fn074zf3uz",579,"45.csv","","null","resources/maskTrios/BT2B.jpg","null","",NA,NA,NA,NA,""
"image-keyboard-response",422,336222,"0.0-4.136-2.136","0x6h2fn074zf3uz",579,"45.csv","","null","resources/images/fishbone.png","null","",NA,NA,NA,NA,""
"image-keyboard-response",423,336835,"0.0-4.137-0.137","0x6h2fn074zf3uz",579,"45.csv","","612.1000000238419","resources/trios/L1T2A3.jpg","39","restless",0.5,0.5,0.5,0.776209106678525,"false"
"image-keyboard-response",424,337236,"0.0-4.137-1.137","0x6h2fn074zf3uz",579,"45.csv","","null","resources/maskTrios/BBA3.jpg","null","",NA,NA,NA,NA,""
"image-keyboard-response",425,339426,"0.0-4.137-2.137","0x6h2fn074zf3uz",579,"45.csv","","null","resources/images/fishbone.png","null","",NA,NA,NA,NA,""
"image-keyboard-response",426,339707,"0.0-4.138-0.138","0x6h2fn074zf3uz",579,"45.csv","","281.19999998807907","resources/trios/L1T2A3.jpg","39","restless",0.5,0.6,0.4,0.481039717034351,"false"
"image-keyboard-response",427,340110,"0.0-4.138-1.138","0x6h2fn074zf3uz",579,"45.csv","","null","resources/maskTrios/BBA3.jpg","null","",NA,NA,NA,NA,""
"image-keyboard-response",428,341310,"0.0-4.138-2.138","0x6h2fn074zf3uz",579,"45.csv","","null","resources/images/fishbone.png","null","",NA,NA,NA,NA,""
"image-keyboard-response",429,341594,"0.0-4.139-0.139","0x6h2fn074zf3uz",579,"45.csv","","283.5","resources/trios/L1T2A3.jpg","39","restless",0.5,0.6,0.4,0.508211816087616,"false"
"image-keyboard-response",430,341996,"0.0-4.139-1.139","0x6h2fn074zf3uz",579,"45.csv","","null","resources/maskTrios/BBA3.jpg","null","",NA,NA,NA,NA,""
"image-keyboard-response",431,343198,"0.0-4.139-2.139","0x6h2fn074zf3uz",579,"45.csv","","null","resources/images/fishbone.png","null","",NA,NA,NA,NA,""
"image-keyboard-response",432,343451,"0.0-4.140-0.140","0x6h2fn074zf3uz",579,"45.csv","","252.7999999821186","resources/trios/L1T2A3.jpg","39","restless",0.6,0.6,0.4,0.302240818442374,"true"
"image-keyboard-response",433,343853,"0.0-4.140-1.140","0x6h2fn074zf3uz",579,"45.csv","","null","resources/maskTrios/BBA3.jpg","null","",NA,NA,NA,NA,""
"image-keyboard-response",434,345426,"0.0-4.140-2.140","0x6h2fn074zf3uz",579,"45.csv","","null","resources/images/coin2.png","null","",NA,NA,NA,NA,""
"image-keyboard-response",435,345668,"0.0-4.141-0.141","0x6h2fn074zf3uz",579,"45.csv","","241.19999998807907","resources/trios/L1T2A3.jpg","39","restless",0.6,0.6,0.4,0.920018233429045,"false"
"image-keyboard-response",436,346069,"0.0-4.141-1.141","0x6h2fn074zf3uz",579,"45.csv","","null","resources/maskTrios/BBA3.jpg","null","",NA,NA,NA,NA,""
"image-keyboard-response",437,347271,"0.0-4.141-2.141","0x6h2fn074zf3uz",579,"45.csv","","null","resources/images/fishbone.png","null","",NA,NA,NA,NA,""
"image-keyboard-response",438,347563,"0.0-4.142-0.142","0x6h2fn074zf3uz",579,"45.csv","","291.69999998807907","resources/trios/L1T2A3.jpg","38","restless",0.6,0.7,0.4,0.614473680896524,"true"
"image-keyboard-response",439,347965,"0.0-4.142-1.142","0x6h2fn074zf3uz",579,"45.csv","","null","resources/maskTrios/BT2B.jpg","null","",NA,NA,NA,NA,""
"image-keyboard-response",440,349166,"0.0-4.142-2.142","0x6h2fn074zf3uz",579,"45.csv","","null","resources/images/coin2.png","null","",NA,NA,NA,NA,""
"image-keyboard-response",441,349459,"0.0-4.143-0.143","0x6h2fn074zf3uz",579,"45.csv","","291.80000001192093","resources/trios/L1T2A3.jpg","38","restless",0.6,0.7,0.4,0.374104010724874,"true"
"image-keyboard-response",442,349860,"0.0-4.143-1.143","0x6h2fn074zf3uz",579,"45.csv","","null","resources/maskTrios/BT2B.jpg","null","",NA,NA,NA,NA,""
"image-keyboard-response",443,351426,"0.0-4.143-2.143","0x6h2fn074zf3uz",579,"45.csv","","null","resources/images/coin2.png","null","",NA,NA,NA,NA,""
"image-keyboard-response",444,351891,"0.0-4.144-0.144","0x6h2fn074zf3uz",579,"45.csv","","463.90000000596046","resources/trios/L1T2A3.jpg","37","restless",0.6,0.7,0.4,0.355622684702343,"true"
"image-keyboard-response",445,352292,"0.0-4.144-1.144","0x6h2fn074zf3uz",579,"45.csv","","null","resources/maskTrios/L1BB.jpg","null","",NA,NA,NA,NA,""
"image-keyboard-response",446,353493,"0.0-4.144-2.144","0x6h2fn074zf3uz",579,"45.csv","","null","resources/images/coin2.png","null","",NA,NA,NA,NA,""
"image-keyboard-response",447,353779,"0.0-4.145-0.145","0x6h2fn074zf3uz",579,"45.csv","","285.59999999403954","resources/trios/L1T2A3.jpg","37","restless",0.5,0.7,0.4,0.828260928715549,"false"
"image-keyboard-response",448,354180,"0.0-4.145-1.145","0x6h2fn074zf3uz",579,"45.csv","","null","resources/maskTrios/L1BB.jpg","null","",NA,NA,NA,NA,""
"image-keyboard-response",449,355382,"0.0-4.145-2.145","0x6h2fn074zf3uz",579,"45.csv","","null","resources/images/fishbone.png","null","",NA,NA,NA,NA,""
"image-keyboard-response",450,355651,"0.0-4.146-0.146","0x6h2fn074zf3uz",579,"45.csv","","268.89999997615814","resources/trios/L1T2A3.jpg","39","restless",0.5,0.7,0.4,0.171375941129576,"true"
"image-keyboard-response",451,356053,"0.0-4.146-1.146","0x6h2fn074zf3uz",579,"45.csv","","null","resources/maskTrios/BBA3.jpg","null","",NA,NA,NA,NA,""
"image-keyboard-response",452,357426,"0.0-4.146-2.146","0x6h2fn074zf3uz",579,"45.csv","","null","resources/images/coin2.png","null","",NA,NA,NA,NA,""
"image-keyboard-response",453,357700,"0.0-4.147-0.147","0x6h2fn074zf3uz",579,"45.csv","","273.5","resources/trios/L1T2A3.jpg","39","restless",0.5,0.7,0.4,0.663314678686963,"false"
"image-keyboard-response",454,358102,"0.0-4.147-1.147","0x6h2fn074zf3uz",579,"45.csv","","null","resources/maskTrios/BBA3.jpg","null","",NA,NA,NA,NA,""
"image-keyboard-response",455,359304,"0.0-4.147-2.147","0x6h2fn074zf3uz",579,"45.csv","","null","resources/images/fishbone.png","null","",NA,NA,NA,NA,""
"image-keyboard-response",456,359571,"0.0-4.148-0.148","0x6h2fn074zf3uz",579,"45.csv","","267.2999999821186","resources/trios/L1T2A3.jpg","38","restless",0.5,0.7,0.4,0.875147793714835,"false"
"image-keyboard-response",457,359973,"0.0-4.148-1.148","0x6h2fn074zf3uz",579,"45.csv","","null","resources/maskTrios/BT2B.jpg","null","",NA,NA,NA,NA,""
"image-keyboard-response",458,361176,"0.0-4.148-2.148","0x6h2fn074zf3uz",579,"45.csv","","null","resources/images/fishbone.png","null","",NA,NA,NA,NA,""
"image-keyboard-response",459,361483,"0.0-4.149-0.149","0x6h2fn074zf3uz",579,"45.csv","","307","resources/trios/L1T2A3.jpg","39","restless",0.5,0.8,0.4,0.0287284377244601,"true"
"image-keyboard-response",460,361885,"0.0-4.149-1.149","0x6h2fn074zf3uz",579,"45.csv","","null","resources/maskTrios/BBA3.jpg","null","",NA,NA,NA,NA,""
"image-keyboard-response",461,363425,"0.0-4.149-2.149","0x6h2fn074zf3uz",579,"45.csv","","null","resources/images/coin2.png","null","",NA,NA,NA,NA,""
"image-keyboard-response",462,363659,"0.0-4.150-0.150","0x6h2fn074zf3uz",579,"45.csv","","233.2000000178814","resources/trios/L1T2A3.jpg","39","restless",0.5,0.8,0.3,0.663651790918408,"false"
"image-keyboard-response",463,364060,"0.0-4.150-1.150","0x6h2fn074zf3uz",579,"45.csv","","null","resources/maskTrios/BBA3.jpg","null","",NA,NA,NA,NA,""
"image-keyboard-response",464,365261,"0.0-4.150-2.150","0x6h2fn074zf3uz",579,"45.csv","","null","resources/images/fishbone.png","null","",NA,NA,NA,NA,""
"image-keyboard-response",465,365555,"0.0-4.151-0.151","0x6h2fn074zf3uz",579,"45.csv","","292.90000000596046","resources/trios/L1T2A3.jpg","37","restless",0.5,0.8,0.2,0.269482679583947,"true"
"image-keyboard-response",466,365956,"0.0-4.151-1.151","0x6h2fn074zf3uz",579,"45.csv","","null","resources/maskTrios/L1BB.jpg","null","",NA,NA,NA,NA,""
"image-keyboard-response",467,367157,"0.0-4.151-2.151","0x6h2fn074zf3uz",579,"45.csv","","null","resources/images/coin2.png","null","",NA,NA,NA,NA,""
"image-keyboard-response",468,367435,"0.0-4.152-0.152","0x6h2fn074zf3uz",579,"45.csv","","277.2000000178814","resources/trios/L1T2A3.jpg","38","restless",0.5,0.8,0.2,0.178749409286337,"true"
"image-keyboard-response",469,367837,"0.0-4.152-1.152","0x6h2fn074zf3uz",579,"45.csv","","null","resources/maskTrios/BT2B.jpg","null","",NA,NA,NA,NA,""
"image-keyboard-response",470,369426,"0.0-4.152-2.152","0x6h2fn074zf3uz",579,"45.csv","","null","resources/images/coin2.png","null","",NA,NA,NA,NA,""
"image-keyboard-response",471,369692,"0.0-4.153-0.153","0x6h2fn074zf3uz",579,"45.csv","","265.2999999821186","resources/trios/L1T2A3.jpg","39","restless",0.5,0.8,0.2,0.747912782795408,"false"
"image-keyboard-response",472,370093,"0.0-4.153-1.153","0x6h2fn074zf3uz",579,"45.csv","","null","resources/maskTrios/BBA3.jpg","null","",NA,NA,NA,NA,""
"image-keyboard-response",473,371296,"0.0-4.153-2.153","0x6h2fn074zf3uz",579,"45.csv","","null","resources/images/fishbone.png","null","",NA,NA,NA,NA,""
"image-keyboard-response",474,371587,"0.0-4.154-0.154","0x6h2fn074zf3uz",579,"45.csv","","290.80000001192093","resources/trios/L1T2A3.jpg","39","restless",0.6,0.7,0.2,0.377130412903689,"false"
"image-keyboard-response",475,371989,"0.0-4.154-1.154","0x6h2fn074zf3uz",579,"45.csv","","null","resources/maskTrios/BBA3.jpg","null","",NA,NA,NA,NA,""
"image-keyboard-response",476,373190,"0.0-4.154-2.154","0x6h2fn074zf3uz",579,"45.csv","","null","resources/images/fishbone.png","null","",NA,NA,NA,NA,""
"image-keyboard-response",477,373748,"0.0-4.155-0.155","0x6h2fn074zf3uz",579,"45.csv","","557","resources/trios/L1T2A3.jpg","39","restless",0.6,0.7,0.2,0.426046640746725,"false"
"image-keyboard-response",478,374149,"0.0-4.155-1.155","0x6h2fn074zf3uz",579,"45.csv","","null","resources/maskTrios/BBA3.jpg","null","",NA,NA,NA,NA,""
"image-keyboard-response",479,375426,"0.0-4.155-2.155","0x6h2fn074zf3uz",579,"45.csv","","null","resources/images/fishbone.png","null","",NA,NA,NA,NA,""
"image-keyboard-response",480,375683,"0.0-4.156-0.156","0x6h2fn074zf3uz",579,"45.csv","","256.2999999821186","resources/trios/L1T2A3.jpg","38","restless",0.6,0.6,0.2,0.683776353960193,"false"
"image-keyboard-response",481,376084,"0.0-4.156-1.156","0x6h2fn074zf3uz",579,"45.csv","","null","resources/maskTrios/BT2B.jpg","null","",NA,NA,NA,NA,""
"image-keyboard-response",482,377286,"0.0-4.156-2.156","0x6h2fn074zf3uz",579,"45.csv","","null","resources/images/fishbone.png","null","",NA,NA,NA,NA,""
"image-keyboard-response",483,377507,"0.0-4.157-0.157","0x6h2fn074zf3uz",579,"45.csv","","220.89999997615814","resources/trios/L1T2A3.jpg","39","restless",0.6,0.6,0.2,0.479803427313166,"false"
"image-keyboard-response",484,377909,"0.0-4.157-1.157","0x6h2fn074zf3uz",579,"45.csv","","null","resources/maskTrios/BBA3.jpg","null","",NA,NA,NA,NA,""
"image-keyboard-response",485,379110,"0.0-4.157-2.157","0x6h2fn074zf3uz",579,"45.csv","","null","resources/images/fishbone.png","null","",NA,NA,NA,NA,""
"image-keyboard-response",486,379435,"0.0-4.158-0.158","0x6h2fn074zf3uz",579,"45.csv","","324.69999998807907","resources/trios/L1T2A3.jpg","39","restless",0.6,0.6,0.2,0.22321857105387,"false"
"image-keyboard-response",487,379838,"0.0-4.158-1.158","0x6h2fn074zf3uz",579,"45.csv","","null","resources/maskTrios/BBA3.jpg","null","",NA,NA,NA,NA,""
"image-keyboard-response",488,381426,"0.0-4.158-2.158","0x6h2fn074zf3uz",579,"45.csv","","null","resources/images/fishbone.png","null","",NA,NA,NA,NA,""
"image-keyboard-response",489,381732,"0.0-4.159-0.159","0x6h2fn074zf3uz",579,"45.csv","","305.39999997615814","resources/trios/L1T2A3.jpg","39","restless",0.5,0.6,0.2,0.676693092441214,"false"
"image-keyboard-response",490,382133,"0.0-4.159-1.159","0x6h2fn074zf3uz",579,"45.csv","","null","resources/maskTrios/BBA3.jpg","null","",NA,NA,NA,NA,""
"image-keyboard-response",491,383334,"0.0-4.159-2.159","0x6h2fn074zf3uz",579,"45.csv","","null","resources/images/fishbone.png","null","",NA,NA,NA,NA,""
"image-keyboard-response",492,383603,"0.0-4.160-0.160","0x6h2fn074zf3uz",579,"45.csv","","268.5","resources/trios/L1T2A3.jpg","37","restless",0.5,0.6,0.2,0.826027056864131,"false"
"image-keyboard-response",493,384004,"0.0-4.160-1.160","0x6h2fn074zf3uz",579,"45.csv","","null","resources/maskTrios/L1BB.jpg","null","",NA,NA,NA,NA,""
"image-keyboard-response",494,385205,"0.0-4.160-2.160","0x6h2fn074zf3uz",579,"45.csv","","null","resources/images/fishbone.png","null","",NA,NA,NA,NA,""
"image-keyboard-response",495,385419,"0.0-4.161-0.161","0x6h2fn074zf3uz",579,"45.csv","","213.09999999403954","resources/trios/L1T2A3.jpg","38","restless",0.5,0.6,0.2,0.598199948855859,"true"
"image-keyboard-response",496,385821,"0.0-4.161-1.161","0x6h2fn074zf3uz",579,"45.csv","","null","resources/maskTrios/BT2B.jpg","null","",NA,NA,NA,NA,""
"image-keyboard-response",497,387131,"0.0-4.161-2.161","0x6h2fn074zf3uz",579,"45.csv","","null","resources/images/coin2.png","null","",NA,NA,NA,NA,""
"image-keyboard-response",498,387507,"0.0-4.162-0.162","0x6h2fn074zf3uz",579,"45.csv","","375.2999999821186","resources/trios/L1T2A3.jpg","38","restless",0.5,0.6,0.2,0.043336050893696,"true"
"image-keyboard-response",499,387909,"0.0-4.162-1.162","0x6h2fn074zf3uz",579,"45.csv","","null","resources/maskTrios/BT2B.jpg","null","",NA,NA,NA,NA,""
"image-keyboard-response",500,389110,"0.0-4.162-2.162","0x6h2fn074zf3uz",579,"45.csv","","null","resources/images/coin2.png","null","",NA,NA,NA,NA,""
"image-keyboard-response",501,389395,"0.0-4.163-0.163","0x6h2fn074zf3uz",579,"45.csv","","283.90000000596046","resources/trios/L1T2A3.jpg","39","restless",0.5,0.6,0.2,0.161602606244179,"true"
"image-keyboard-response",502,389797,"0.0-4.163-1.163","0x6h2fn074zf3uz",579,"45.csv","","null","resources/maskTrios/BBA3.jpg","null","",NA,NA,NA,NA,""
"image-keyboard-response",503,390999,"0.0-4.163-2.163","0x6h2fn074zf3uz",579,"45.csv","","null","resources/images/coin2.png","null","",NA,NA,NA,NA,""
"image-keyboard-response",504,391115,"0.0-4.164-0.164","0x6h2fn074zf3uz",579,"45.csv","","115.7000000178814","resources/trios/L1T2A3.jpg","39","restless",0.5,0.6,0.3,0.299180282884536,"true"
"image-keyboard-response",505,391517,"0.0-4.164-1.164","0x6h2fn074zf3uz",579,"45.csv","","null","resources/maskTrios/BBA3.jpg","null","",NA,NA,NA,NA,""
"image-keyboard-response",506,393260,"0.0-4.164-2.164","0x6h2fn074zf3uz",579,"45.csv","","null","resources/images/coin2.png","null","",NA,NA,NA,NA,""
"image-keyboard-response",507,393651,"0.0-4.165-0.165","0x6h2fn074zf3uz",579,"45.csv","","390.5","resources/trios/L1T2A3.jpg","37","restless",0.5,0.6,0.3,0.241060333584387,"true"
"image-keyboard-response",508,394053,"0.0-4.165-1.165","0x6h2fn074zf3uz",579,"45.csv","","null","resources/maskTrios/L1BB.jpg","null","",NA,NA,NA,NA,""
"image-keyboard-response",509,395254,"0.0-4.165-2.165","0x6h2fn074zf3uz",579,"45.csv","","null","resources/images/coin2.png","null","",NA,NA,NA,NA,""
"image-keyboard-response",510,395555,"0.0-4.166-0.166","0x6h2fn074zf3uz",579,"45.csv","","300.5","resources/trios/L1T2A3.jpg","37","restless",0.5,0.6,0.3,0.951786770430659,"false"
"image-keyboard-response",511,395957,"0.0-4.166-1.166","0x6h2fn074zf3uz",579,"45.csv","","null","resources/maskTrios/L1BB.jpg","null","",NA,NA,NA,NA,""
"image-keyboard-response",512,397159,"0.0-4.166-2.166","0x6h2fn074zf3uz",579,"45.csv","","null","resources/images/fishbone.png","null","",NA,NA,NA,NA,""
"image-keyboard-response",513,397458,"0.0-4.167-0.167","0x6h2fn074zf3uz",579,"45.csv","","299.19999998807907","resources/trios/L1T2A3.jpg","38","restless",0.5,0.6,0.2,0.152698163205415,"true"
"image-keyboard-response",514,397860,"0.0-4.167-1.167","0x6h2fn074zf3uz",579,"45.csv","","null","resources/maskTrios/BT2B.jpg","null","",NA,NA,NA,NA,""
"image-keyboard-response",515,399371,"0.0-4.167-2.167","0x6h2fn074zf3uz",579,"45.csv","","null","resources/images/coin2.png","null","",NA,NA,NA,NA,""
"image-keyboard-response",516,399739,"0.0-4.168-0.168","0x6h2fn074zf3uz",579,"45.csv","","367","resources/trios/L1T2A3.jpg","38","restless",0.5,0.6,0.2,0.644762593955717,"false"
"image-keyboard-response",517,400140,"0.0-4.168-1.168","0x6h2fn074zf3uz",579,"45.csv","","null","resources/maskTrios/BT2B.jpg","null","",NA,NA,NA,NA,""
"image-keyboard-response",518,401342,"0.0-4.168-2.168","0x6h2fn074zf3uz",579,"45.csv","","null","resources/images/fishbone.png","null","",NA,NA,NA,NA,""
"image-keyboard-response",519,401563,"0.0-4.169-0.169","0x6h2fn074zf3uz",579,"45.csv","","220.40000000596046","resources/trios/L1T2A3.jpg","39","restless",0.5,0.6,0.2,0.528815815877061,"false"
"image-keyboard-response",520,401965,"0.0-4.169-1.169","0x6h2fn074zf3uz",579,"45.csv","","null","resources/maskTrios/BBA3.jpg","null","",NA,NA,NA,NA,""
"image-keyboard-response",521,403167,"0.0-4.169-2.169","0x6h2fn074zf3uz",579,"45.csv","","null","resources/images/fishbone.png","null","",NA,NA,NA,NA,""
"image-keyboard-response",522,403420,"0.0-4.170-0.170","0x6h2fn074zf3uz",579,"45.csv","","252.5","resources/trios/L1T2A3.jpg","39","restless",0.5,0.6,0.2,0.496995455113672,"false"
"image-keyboard-response",523,403822,"0.0-4.170-1.170","0x6h2fn074zf3uz",579,"45.csv","","null","resources/maskTrios/BBA3.jpg","null","",NA,NA,NA,NA,""
"image-keyboard-response",524,405315,"0.0-4.170-2.170","0x6h2fn074zf3uz",579,"45.csv","","null","resources/images/fishbone.png","null","",NA,NA,NA,NA,""
"image-keyboard-response",525,405931,"0.0-4.171-0.171","0x6h2fn074zf3uz",579,"45.csv","","615.5","resources/trios/L1T2A3.jpg","39","restless",0.5,0.6,0.2,0.441129298960712,"false"
"image-keyboard-response",526,406332,"0.0-4.171-1.171","0x6h2fn074zf3uz",579,"45.csv","","null","resources/maskTrios/BBA3.jpg","null","",NA,NA,NA,NA,""
"image-keyboard-response",527,407534,"0.0-4.171-2.171","0x6h2fn074zf3uz",579,"45.csv","","null","resources/images/fishbone.png","null","",NA,NA,NA,NA,""
"image-keyboard-response",528,407939,"0.0-4.172-0.172","0x6h2fn074zf3uz",579,"45.csv","","404.5","resources/trios/L1T2A3.jpg","39","restless",0.5,0.6,0.2,0.478431372190754,"false"
"image-keyboard-response",529,408340,"0.0-4.172-1.172","0x6h2fn074zf3uz",579,"45.csv","","null","resources/maskTrios/BBA3.jpg","null","",NA,NA,NA,NA,""
"image-keyboard-response",530,409542,"0.0-4.172-2.172","0x6h2fn074zf3uz",579,"45.csv","","null","resources/images/fishbone.png","null","",NA,NA,NA,NA,""
"image-keyboard-response",531,409770,"0.0-4.173-0.173","0x6h2fn074zf3uz",579,"45.csv","","228","resources/trios/L1T2A3.jpg","39","restless",0.5,0.6,0.2,0.331344905213741,"false"
"image-keyboard-response",532,410173,"0.0-4.173-1.173","0x6h2fn074zf3uz",579,"45.csv","","null","resources/maskTrios/BBA3.jpg","null","",NA,NA,NA,NA,""
"image-keyboard-response",533,411426,"0.0-4.173-2.173","0x6h2fn074zf3uz",579,"45.csv","","null","resources/images/fishbone.png","null","",NA,NA,NA,NA,""
"image-keyboard-response",534,411748,"0.0-4.174-0.174","0x6h2fn074zf3uz",579,"45.csv","","321.40000000596046","resources/trios/L1T2A3.jpg","37","restless",0.5,0.6,0.2,0.67236824141198,"false"
"image-keyboard-response",535,412149,"0.0-4.174-1.174","0x6h2fn074zf3uz",579,"45.csv","","null","resources/maskTrios/L1BB.jpg","null","",NA,NA,NA,NA,""
"image-keyboard-response",536,413351,"0.0-4.174-2.174","0x6h2fn074zf3uz",579,"45.csv","","null","resources/images/fishbone.png","null","",NA,NA,NA,NA,""
"image-keyboard-response",537,413556,"0.0-4.175-0.175","0x6h2fn074zf3uz",579,"45.csv","","205.19999998807907","resources/trios/L1T2A3.jpg","38","restless",0.5,0.6,0.2,0.45002731858997,"true"
"image-keyboard-response",538,413958,"0.0-4.175-1.175","0x6h2fn074zf3uz",579,"45.csv","","null","resources/maskTrios/BT2B.jpg","null","",NA,NA,NA,NA,""
"image-keyboard-response",539,415159,"0.0-4.175-2.175","0x6h2fn074zf3uz",579,"45.csv","","null","resources/images/coin2.png","null","",NA,NA,NA,NA,""
"image-keyboard-response",540,415370,"0.0-4.176-0.176","0x6h2fn074zf3uz",579,"45.csv","","210.59999999403954","resources/trios/L1T2A3.jpg","39","restless",0.5,0.6,0.3,0.654798818009525,"false"
"image-keyboard-response",541,415773,"0.0-4.176-1.176","0x6h2fn074zf3uz",579,"45.csv","","null","resources/maskTrios/BBA3.jpg","null","",NA,NA,NA,NA,""
"image-keyboard-response",542,417059,"0.0-4.176-2.176","0x6h2fn074zf3uz",579,"45.csv","","null","resources/images/fishbone.png","null","",NA,NA,NA,NA,""
"image-keyboard-response",543,417371,"0.0-4.177-0.177","0x6h2fn074zf3uz",579,"45.csv","","311.59999999403954","resources/trios/L1T2A3.jpg","39","restless",0.4,0.6,0.3,0.727330480610342,"false"
"image-keyboard-response",544,417773,"0.0-4.177-1.177","0x6h2fn074zf3uz",579,"45.csv","","null","resources/maskTrios/BBA3.jpg","null","",NA,NA,NA,NA,""
"image-keyboard-response",545,418974,"0.0-4.177-2.177","0x6h2fn074zf3uz",579,"45.csv","","null","resources/images/fishbone.png","null","",NA,NA,NA,NA,""
"image-keyboard-response",546,419171,"0.0-4.178-0.178","0x6h2fn074zf3uz",579,"45.csv","","196.5","resources/trios/L1T2A3.jpg","39","restless",0.4,0.6,0.3,0.992486297444014,"false"
"image-keyboard-response",547,419572,"0.0-4.178-1.178","0x6h2fn074zf3uz",579,"45.csv","","null","resources/maskTrios/BBA3.jpg","null","",NA,NA,NA,NA,""
"image-keyboard-response",548,420773,"0.0-4.178-2.178","0x6h2fn074zf3uz",579,"45.csv","","null","resources/images/fishbone.png","null","",NA,NA,NA,NA,""
"image-keyboard-response",549,420979,"0.0-4.179-0.179","0x6h2fn074zf3uz",579,"45.csv","","205.69999998807907","resources/trios/L1T2A3.jpg","39","restless",0.4,0.6,0.3,0.715122396019833,"false"
"image-keyboard-response",550,421381,"0.0-4.179-1.179","0x6h2fn074zf3uz",579,"45.csv","","null","resources/maskTrios/BBA3.jpg","null","",NA,NA,NA,NA,""
"image-keyboard-response",551,423035,"0.0-4.179-2.179","0x6h2fn074zf3uz",579,"45.csv","","null","resources/images/fishbone.png","null","",NA,NA,NA,NA,""
"image-keyboard-response",552,423355,"0.0-4.180-0.180","0x6h2fn074zf3uz",579,"45.csv","","319.2999999821186","resources/trios/L1T2A3.jpg","39","restless",0.4,0.6,0.3,0.579538557594518,"false"
"image-keyboard-response",553,423757,"0.0-4.180-1.180","0x6h2fn074zf3uz",579,"45.csv","","null","resources/maskTrios/BBA3.jpg","null","",NA,NA,NA,NA,""
"image-keyboard-response",554,424958,"0.0-4.180-2.180","0x6h2fn074zf3uz",579,"45.csv","","null","resources/images/fishbone.png","null","",NA,NA,NA,NA,""
"image-keyboard-response",555,425188,"0.0-4.181-0.181","0x6h2fn074zf3uz",579,"45.csv","","229.19999998807907","resources/trios/L1T2A3.jpg","39","restless",0.4,0.6,0.3,0.587837237740633,"false"
"image-keyboard-response",556,425589,"0.0-4.181-1.181","0x6h2fn074zf3uz",579,"45.csv","","null","resources/maskTrios/BBA3.jpg","null","",NA,NA,NA,NA,""
"image-keyboard-response",557,426791,"0.0-4.181-2.181","0x6h2fn074zf3uz",579,"45.csv","","null","resources/images/fishbone.png","null","",NA,NA,NA,NA,""
"image-keyboard-response",558,427995,"0.0-4.182-0.182","0x6h2fn074zf3uz",579,"45.csv","","1203.800000011921","resources/trios/L1T2A3.jpg","39","restless",0.4,0.6,0.3,0.432292822335826,"false"
"image-keyboard-response",559,428426,"0.0-4.182-1.182","0x6h2fn074zf3uz",579,"45.csv","","null","resources/maskTrios/BBA3.jpg","null","",NA,NA,NA,NA,""
"image-keyboard-response",560,429674,"0.0-4.182-2.182","0x6h2fn074zf3uz",579,"45.csv","","null","resources/images/fishbone.png","null","",NA,NA,NA,NA,""
"image-keyboard-response",561,430090,"0.0-4.183-0.183","0x6h2fn074zf3uz",579,"45.csv","","415.40000000596046","resources/trios/L1T2A3.jpg","39","restless",0.4,0.6,0.3,0.554963398090824,"false"
"image-keyboard-response",562,430492,"0.0-4.183-1.183","0x6h2fn074zf3uz",579,"45.csv","","null","resources/maskTrios/BBA3.jpg","null","",NA,NA,NA,NA,""
"image-keyboard-response",563,431693,"0.0-4.183-2.183","0x6h2fn074zf3uz",579,"45.csv","","null","resources/images/fishbone.png","null","",NA,NA,NA,NA,""
"image-keyboard-response",564,432595,"0.0-4.184-0.184","0x6h2fn074zf3uz",579,"45.csv","","901.6999999880791","resources/trios/L1T2A3.jpg","39","restless",0.3,0.5,0.3,0.454440714279132,"false"
"image-keyboard-response",565,432996,"0.0-4.184-1.184","0x6h2fn074zf3uz",579,"45.csv","","null","resources/maskTrios/BBA3.jpg","null","",NA,NA,NA,NA,""
"image-keyboard-response",566,434198,"0.0-4.184-2.184","0x6h2fn074zf3uz",579,"45.csv","","null","resources/images/fishbone.png","null","",NA,NA,NA,NA,""
"image-keyboard-response",567,434475,"0.0-4.185-0.185","0x6h2fn074zf3uz",579,"45.csv","","276.7999999821186","resources/trios/L1T2A3.jpg","39","restless",0.3,0.5,0.2,0.950863323058238,"false"
"image-keyboard-response",568,435425,"0.0-4.185-1.185","0x6h2fn074zf3uz",579,"45.csv","","null","resources/maskTrios/BBA3.jpg","null","",NA,NA,NA,NA,""
"image-keyboard-response",569,437292,"0.0-4.185-2.185","0x6h2fn074zf3uz",579,"45.csv","","null","resources/images/fishbone.png","null","",NA,NA,NA,NA,""
"image-keyboard-response",570,437611,"0.0-4.186-0.186","0x6h2fn074zf3uz",579,"45.csv","","318.39999997615814","resources/trios/L1T2A3.jpg","39","restless",0.3,0.5,0.2,0.308307728019904,"false"
"image-keyboard-response",571,438013,"0.0-4.186-1.186","0x6h2fn074zf3uz",579,"45.csv","","null","resources/maskTrios/BBA3.jpg","null","",NA,NA,NA,NA,""
"image-keyboard-response",572,439214,"0.0-4.186-2.186","0x6h2fn074zf3uz",579,"45.csv","","null","resources/images/fishbone.png","null","",NA,NA,NA,NA,""
"image-keyboard-response",573,440931,"0.0-4.187-0.187","0x6h2fn074zf3uz",579,"45.csv","","1716.0999999940395","resources/trios/L1T2A3.jpg","39","restless",0.3,0.5,0.2,0.641032761810356,"false"
"image-keyboard-response",574,441332,"0.0-4.187-1.187","0x6h2fn074zf3uz",579,"45.csv","","null","resources/maskTrios/BBA3.jpg","null","",NA,NA,NA,NA,""
"image-keyboard-response",575,443426,"0.0-4.187-2.187","0x6h2fn074zf3uz",579,"45.csv","","null","resources/images/fishbone.png","null","",NA,NA,NA,NA,""
"image-keyboard-response",576,443787,"0.0-4.188-0.188","0x6h2fn074zf3uz",579,"45.csv","","360.90000000596046","resources/trios/L1T2A3.jpg","39","restless",0.3,0.5,0.2,0.994915606704191,"false"
"image-keyboard-response",577,444189,"0.0-4.188-1.188","0x6h2fn074zf3uz",579,"45.csv","","null","resources/maskTrios/BBA3.jpg","null","",NA,NA,NA,NA,""
"image-keyboard-response",578,445390,"0.0-4.188-2.188","0x6h2fn074zf3uz",579,"45.csv","","null","resources/images/fishbone.png","null","",NA,NA,NA,NA,""
"image-keyboard-response",579,445779,"0.0-4.189-0.189","0x6h2fn074zf3uz",579,"45.csv","","389","resources/trios/L1T2A3.jpg","39","restless",0.3,0.5,0.2,0.83234540107208,"false"
"image-keyboard-response",580,446181,"0.0-4.189-1.189","0x6h2fn074zf3uz",579,"45.csv","","null","resources/maskTrios/BBA3.jpg","null","",NA,NA,NA,NA,""
"image-keyboard-response",581,447382,"0.0-4.189-2.189","0x6h2fn074zf3uz",579,"45.csv","","null","resources/images/fishbone.png","null","",NA,NA,NA,NA,""
"image-keyboard-response",582,447932,"0.0-4.190-0.190","0x6h2fn074zf3uz",579,"45.csv","","549.2999999821186","resources/trios/L1T2A3.jpg","39","restless",0.3,0.5,0.2,0.668602447433697,"false"
"image-keyboard-response",583,448333,"0.0-4.190-1.190","0x6h2fn074zf3uz",579,"45.csv","","null","resources/maskTrios/BBA3.jpg","null","",NA,NA,NA,NA,""
"image-keyboard-response",584,450211,"0.0-4.190-2.190","0x6h2fn074zf3uz",579,"45.csv","","null","resources/images/fishbone.png","null","",NA,NA,NA,NA,""
"image-keyboard-response",585,450787,"0.0-4.191-0.191","0x6h2fn074zf3uz",579,"45.csv","","575.5","resources/trios/L1T2A3.jpg","39","restless",0.3,0.5,0.2,0.118130579041538,"true"
"image-keyboard-response",586,451189,"0.0-4.191-1.191","0x6h2fn074zf3uz",579,"45.csv","","null","resources/maskTrios/BBA3.jpg","null","",NA,NA,NA,NA,""
"image-keyboard-response",587,452390,"0.0-4.191-2.191","0x6h2fn074zf3uz",579,"45.csv","","null","resources/images/coin2.png","null","",NA,NA,NA,NA,""
"image-keyboard-response",588,452715,"0.0-4.192-0.192","0x6h2fn074zf3uz",579,"45.csv","","324.80000001192093","resources/trios/L1T2A3.jpg","39","restless",0.3,0.5,0.2,0.0991864996992635,"true"
"image-keyboard-response",589,453118,"0.0-4.192-1.192","0x6h2fn074zf3uz",579,"45.csv","","null","resources/maskTrios/BBA3.jpg","null","",NA,NA,NA,NA,""
"image-keyboard-response",590,454319,"0.0-4.192-2.192","0x6h2fn074zf3uz",579,"45.csv","","null","resources/images/coin2.png","null","",NA,NA,NA,NA,""
"image-keyboard-response",591,454883,"0.0-4.193-0.193","0x6h2fn074zf3uz",579,"45.csv","","563.5","resources/trios/L1T2A3.jpg","37","restless",0.3,0.5,0.2,0.594948455468362,"false"
"image-keyboard-response",592,455427,"0.0-4.193-1.193","0x6h2fn074zf3uz",579,"45.csv","","null","resources/maskTrios/L1BB.jpg","null","",NA,NA,NA,NA,""
"image-keyboard-response",593,457427,"0.0-4.193-2.193","0x6h2fn074zf3uz",579,"45.csv","","null","resources/images/fishbone.png","null","",NA,NA,NA,NA,""
"image-keyboard-response",594,457723,"0.0-4.194-0.194","0x6h2fn074zf3uz",579,"45.csv","","295.59999999403954","resources/trios/L1T2A3.jpg","37","restless",0.3,0.5,0.2,0.777444615884554,"false"
"image-keyboard-response",595,458123,"0.0-4.194-1.194","0x6h2fn074zf3uz",579,"45.csv","","null","resources/maskTrios/L1BB.jpg","null","",NA,NA,NA,NA,""
"image-keyboard-response",596,459325,"0.0-4.194-2.194","0x6h2fn074zf3uz",579,"45.csv","","null","resources/images/fishbone.png","null","",NA,NA,NA,NA,""
"image-keyboard-response",597,459780,"0.0-4.195-0.195","0x6h2fn074zf3uz",579,"45.csv","","453.7000000178814","resources/trios/L1T2A3.jpg","37","restless",0.4,0.5,0.2,0.606979698925195,"false"
"image-keyboard-response",598,460182,"0.0-4.195-1.195","0x6h2fn074zf3uz",579,"45.csv","","null","resources/maskTrios/L1BB.jpg","null","",NA,NA,NA,NA,""
"image-keyboard-response",599,461382,"0.0-4.195-2.195","0x6h2fn074zf3uz",579,"45.csv","","null","resources/images/fishbone.png","null","",NA,NA,NA,NA,""
"image-keyboard-response",600,461715,"0.0-4.196-0.196","0x6h2fn074zf3uz",579,"45.csv","","331.90000000596046","resources/trios/L1T2A3.jpg","37","restless",0.5,0.5,0.2,0.11573644619482,"true"
"image-keyboard-response",601,462117,"0.0-4.196-1.196","0x6h2fn074zf3uz",579,"45.csv","","null","resources/maskTrios/L1BB.jpg","null","",NA,NA,NA,NA,""
"image-keyboard-response",602,463427,"0.0-4.196-2.196","0x6h2fn074zf3uz",579,"45.csv","","null","resources/images/coin2.png","null","",NA,NA,NA,NA,""
"image-keyboard-response",603,463731,"0.0-4.197-0.197","0x6h2fn074zf3uz",579,"45.csv","","304.09999999403954","resources/trios/L1T2A3.jpg","37","restless",0.5,0.5,0.2,0.0072694128033346,"true"
"image-keyboard-response",604,464134,"0.0-4.197-1.197","0x6h2fn074zf3uz",579,"45.csv","","null","resources/maskTrios/L1BB.jpg","null","",NA,NA,NA,NA,""
"image-keyboard-response",605,465335,"0.0-4.197-2.197","0x6h2fn074zf3uz",579,"45.csv","","null","resources/images/coin2.png","null","",NA,NA,NA,NA,""
"image-keyboard-response",606,465802,"0.0-4.198-0.198","0x6h2fn074zf3uz",579,"45.csv","","466.7999999821186","resources/trios/L1T2A3.jpg","38","restless",0.5,0.5,0.3,0.564700489230078,"false"
"image-keyboard-response",607,466204,"0.0-4.198-1.198","0x6h2fn074zf3uz",579,"45.csv","","null","resources/maskTrios/BT2B.jpg","null","",NA,NA,NA,NA,""
"image-keyboard-response",608,467406,"0.0-4.198-2.198","0x6h2fn074zf3uz",579,"45.csv","","null","resources/images/fishbone.png","null","",NA,NA,NA,NA,""
"image-keyboard-response",609,467635,"0.0-4.199-0.199","0x6h2fn074zf3uz",579,"45.csv","","228.2999999821186","resources/trios/L1T2A3.jpg","38","restless",0.5,0.5,0.4,0.633114878849281,"false"
"image-keyboard-response",610,468036,"0.0-4.199-1.199","0x6h2fn074zf3uz",579,"45.csv","","null","resources/maskTrios/BT2B.jpg","null","",NA,NA,NA,NA,""
"image-keyboard-response",611,469426,"0.0-4.199-2.199","0x6h2fn074zf3uz",579,"45.csv","","null","resources/images/fishbone.png","null","",NA,NA,NA,NA,""
"survey-text",612,502695,"0.0-5.0","0x6h2fn074zf3uz",579,"45.csv","","33267.09999999404","","","",NA,NA,NA,NA,""
