"trial_type","trial_index","time_elapsed","internal_node_id","subject","participantCode","walkNumber","success","rt","stimulus","key_press","test_part","leftProb","midProb","rightProb","generatedNum","correct"
"pavlovia",0,1036,"0.0-0.0","x7gmd25pcmmhab5",785,"107.csv","","","","","",NA,NA,NA,NA,""
"fullscreen",1,8469,"0.0-1.0","x7gmd25pcmmhab5",785,"107.csv","true","","","","",NA,NA,NA,NA,""
"survey-html-form",2,19895,"0.0-2.0","x7gmd25pcmmhab5",785,"107.csv","","11421.5","","","",NA,NA,NA,NA,""
"image-keyboard-response",3,46741,"0.0-3.0-0.0","x7gmd25pcmmhab5",785,"107.csv","","26844.59999999404","resources/images/parrot_nobg.png","13","",NA,NA,NA,NA,""
"image-keyboard-response",4,49743,"0.0-3.0-1.0","x7gmd25pcmmhab5",785,"107.csv","","null","resources/image_sets/111.png","null","",NA,NA,NA,NA,""
"image-keyboard-response",5,110959,"0.0-3.0-2.0","x7gmd25pcmmhab5",785,"107.csv","","61213","resources/image_sets/left_highlight.png","37","",NA,NA,NA,NA,""
"image-keyboard-response",6,113895,"0.0-3.0-3.0","x7gmd25pcmmhab5",785,"107.csv","","2936","resources/image_sets/mid_highlight.png","38","",NA,NA,NA,NA,""
"image-keyboard-response",7,120959,"0.0-3.0-4.0","x7gmd25pcmmhab5",785,"107.csv","","7063.299999982119","resources/image_sets/right_highlight.png","39","",NA,NA,NA,NA,""
"image-keyboard-response",8,125359,"0.0-3.0-5.0","x7gmd25pcmmhab5",785,"107.csv","","4399.199999988079","resources/image_sets/111.png","13","",NA,NA,NA,NA,""
"image-keyboard-response",9,128327,"0.0-3.0-6.0","x7gmd25pcmmhab5",785,"107.csv","","2967.5","resources/images/coin2.png","13","",NA,NA,NA,NA,""
"image-keyboard-response",10,131232,"0.0-3.0-7.0","x7gmd25pcmmhab5",785,"107.csv","","2903.5","resources/images/fishbone.png","13","",NA,NA,NA,NA,""
"html-keyboard-response",11,136272,"0.0-3.0-8.0","x7gmd25pcmmhab5",785,"107.csv","","5039.700000017881","<p>You can track your coin total on the top right of your screen. </p><p>At the end of your journey you will be directed to a survey, so please click on the link before exiting the task</p><p>Press Enter to begin</p>","13","",NA,NA,NA,NA,""
"image-keyboard-response",12,140664,"0.0-4.0-0.0","x7gmd25pcmmhab5",785,"107.csv","","4390.699999988079","resources/trios/L4T2A3.jpg","39","restless",0.9,0.7,0.3,0.872064227961257,"false"
"image-keyboard-response",13,141067,"0.0-4.0-1.0","x7gmd25pcmmhab5",785,"107.csv","","null","resources/maskTrios/BBA3.jpg","null","",NA,NA,NA,NA,""
"image-keyboard-response",14,142270,"0.0-4.0-2.0","x7gmd25pcmmhab5",785,"107.csv","","null","resources/images/fishbone.png","null","",NA,NA,NA,NA,""
"image-keyboard-response",15,144240,"0.0-4.1-0.1","x7gmd25pcmmhab5",785,"107.csv","","1968.9000000059605","resources/trios/L4T2A3.jpg","37","restless",0.9,0.7,0.3,0.658593818896718,"true"
"image-keyboard-response",16,144642,"0.0-4.1-1.1","x7gmd25pcmmhab5",785,"107.csv","","null","resources/maskTrios/L4BB.jpg","null","",NA,NA,NA,NA,""
"image-keyboard-response",17,145846,"0.0-4.1-2.1","x7gmd25pcmmhab5",785,"107.csv","","null","resources/images/coin2.png","null","",NA,NA,NA,NA,""
"image-keyboard-response",18,150696,"0.0-4.2-0.2","x7gmd25pcmmhab5",785,"107.csv","","4849.300000011921","resources/trios/L4T2A3.jpg","38","restless",0.9,0.7,0.3,0.540210495814774,"true"
"image-keyboard-response",19,151099,"0.0-4.2-1.2","x7gmd25pcmmhab5",785,"107.csv","","null","resources/maskTrios/BT2B.jpg","null","",NA,NA,NA,NA,""
"image-keyboard-response",20,152300,"0.0-4.2-2.2","x7gmd25pcmmhab5",785,"107.csv","","null","resources/images/coin2.png","null","",NA,NA,NA,NA,""
"image-keyboard-response",21,154480,"0.0-4.3-0.3","x7gmd25pcmmhab5",785,"107.csv","","2178.9000000059605","resources/trios/L4T2A3.jpg","38","restless",0.9,0.7,0.3,0.252026233478482,"true"
"image-keyboard-response",22,154882,"0.0-4.3-1.3","x7gmd25pcmmhab5",785,"107.csv","","null","resources/maskTrios/BT2B.jpg","null","",NA,NA,NA,NA,""
"image-keyboard-response",23,156085,"0.0-4.3-2.3","x7gmd25pcmmhab5",785,"107.csv","","null","resources/images/coin2.png","null","",NA,NA,NA,NA,""
"image-keyboard-response",24,160096,"0.0-4.4-0.4","x7gmd25pcmmhab5",785,"107.csv","","4010","resources/trios/L4T2A3.jpg","39","restless",0.8,0.7,0.3,0.577804032028297,"false"
"image-keyboard-response",25,160499,"0.0-4.4-1.4","x7gmd25pcmmhab5",785,"107.csv","","null","resources/maskTrios/BBA3.jpg","null","",NA,NA,NA,NA,""
"image-keyboard-response",26,161701,"0.0-4.4-2.4","x7gmd25pcmmhab5",785,"107.csv","","null","resources/images/fishbone.png","null","",NA,NA,NA,NA,""
"image-keyboard-response",27,162128,"0.0-4.5-0.5","x7gmd25pcmmhab5",785,"107.csv","","426.09999999403954","resources/trios/L4T2A3.jpg","38","restless",0.8,0.7,0.3,0.545034613041401,"true"
"image-keyboard-response",28,162530,"0.0-4.5-1.5","x7gmd25pcmmhab5",785,"107.csv","","null","resources/maskTrios/BT2B.jpg","null","",NA,NA,NA,NA,""
"image-keyboard-response",29,163732,"0.0-4.5-2.5","x7gmd25pcmmhab5",785,"107.csv","","null","resources/images/coin2.png","null","",NA,NA,NA,NA,""
"image-keyboard-response",30,164185,"0.0-4.6-0.6","x7gmd25pcmmhab5",785,"107.csv","","451.40000000596046","resources/trios/L4T2A3.jpg","37","restless",0.8,0.7,0.3,0.097409255244139,"true"
"image-keyboard-response",31,164587,"0.0-4.6-1.6","x7gmd25pcmmhab5",785,"107.csv","","null","resources/maskTrios/L4BB.jpg","null","",NA,NA,NA,NA,""
"image-keyboard-response",32,165789,"0.0-4.6-2.6","x7gmd25pcmmhab5",785,"107.csv","","null","resources/images/coin2.png","null","",NA,NA,NA,NA,""
"image-keyboard-response",33,166201,"0.0-4.7-0.7","x7gmd25pcmmhab5",785,"107.csv","","410.69999998807907","resources/trios/L4T2A3.jpg","39","restless",0.8,0.7,0.3,0.69786328336525,"false"
"image-keyboard-response",34,166603,"0.0-4.7-1.7","x7gmd25pcmmhab5",785,"107.csv","","null","resources/maskTrios/BBA3.jpg","null","",NA,NA,NA,NA,""
"image-keyboard-response",35,167805,"0.0-4.7-2.7","x7gmd25pcmmhab5",785,"107.csv","","null","resources/images/fishbone.png","null","",NA,NA,NA,NA,""
"image-keyboard-response",36,168105,"0.0-4.8-0.8","x7gmd25pcmmhab5",785,"107.csv","","298.59999999403954","resources/trios/L4T2A3.jpg","38","restless",0.8,0.7,0.3,0.603830395176081,"true"
"image-keyboard-response",37,168508,"0.0-4.8-1.8","x7gmd25pcmmhab5",785,"107.csv","","null","resources/maskTrios/BT2B.jpg","null","",NA,NA,NA,NA,""
"image-keyboard-response",38,169710,"0.0-4.8-2.8","x7gmd25pcmmhab5",785,"107.csv","","null","resources/images/coin2.png","null","",NA,NA,NA,NA,""
"image-keyboard-response",39,169968,"0.0-4.9-0.9","x7gmd25pcmmhab5",785,"107.csv","","257.30000001192093","resources/trios/L4T2A3.jpg","38","restless",0.8,0.7,0.2,0.902450749083807,"false"
"image-keyboard-response",40,170370,"0.0-4.9-1.9","x7gmd25pcmmhab5",785,"107.csv","","null","resources/maskTrios/BT2B.jpg","null","",NA,NA,NA,NA,""
"image-keyboard-response",41,171573,"0.0-4.9-2.9","x7gmd25pcmmhab5",785,"107.csv","","null","resources/images/fishbone.png","null","",NA,NA,NA,NA,""
"image-keyboard-response",42,171657,"0.0-4.10-0.10","x7gmd25pcmmhab5",785,"107.csv","","82.69999998807907","resources/trios/L4T2A3.jpg","39","restless",0.8,0.7,0.2,0.681917130406444,"false"
"image-keyboard-response",43,172059,"0.0-4.10-1.10","x7gmd25pcmmhab5",785,"107.csv","","null","resources/maskTrios/BBA3.jpg","null","",NA,NA,NA,NA,""
"image-keyboard-response",44,173261,"0.0-4.10-2.10","x7gmd25pcmmhab5",785,"107.csv","","null","resources/images/fishbone.png","null","",NA,NA,NA,NA,""
"image-keyboard-response",45,173617,"0.0-4.11-0.11","x7gmd25pcmmhab5",785,"107.csv","","354.5","resources/trios/L4T2A3.jpg","37","restless",0.8,0.7,0.2,0.1328844459149,"true"
"image-keyboard-response",46,174019,"0.0-4.11-1.11","x7gmd25pcmmhab5",785,"107.csv","","null","resources/maskTrios/L4BB.jpg","null","",NA,NA,NA,NA,""
"image-keyboard-response",47,175221,"0.0-4.11-2.11","x7gmd25pcmmhab5",785,"107.csv","","null","resources/images/coin2.png","null","",NA,NA,NA,NA,""
"image-keyboard-response",48,175497,"0.0-4.12-0.12","x7gmd25pcmmhab5",785,"107.csv","","274.2999999821186","resources/trios/L4T2A3.jpg","37","restless",0.8,0.7,0.2,0.936861968009619,"false"
"image-keyboard-response",49,175899,"0.0-4.12-1.12","x7gmd25pcmmhab5",785,"107.csv","","null","resources/maskTrios/L4BB.jpg","null","",NA,NA,NA,NA,""
"image-keyboard-response",50,177101,"0.0-4.12-2.12","x7gmd25pcmmhab5",785,"107.csv","","null","resources/images/fishbone.png","null","",NA,NA,NA,NA,""
"image-keyboard-response",51,177345,"0.0-4.13-0.13","x7gmd25pcmmhab5",785,"107.csv","","243.30000001192093","resources/trios/L4T2A3.jpg","37","restless",0.8,0.7,0.2,0.980466268921951,"false"
"image-keyboard-response",52,177747,"0.0-4.13-1.13","x7gmd25pcmmhab5",785,"107.csv","","null","resources/maskTrios/L4BB.jpg","null","",NA,NA,NA,NA,""
"image-keyboard-response",53,178949,"0.0-4.13-2.13","x7gmd25pcmmhab5",785,"107.csv","","null","resources/images/fishbone.png","null","",NA,NA,NA,NA,""
"image-keyboard-response",54,179121,"0.0-4.14-0.14","x7gmd25pcmmhab5",785,"107.csv","","171","resources/trios/L4T2A3.jpg","38","restless",0.8,0.7,0.2,0.379071204908787,"true"
"image-keyboard-response",55,179523,"0.0-4.14-1.14","x7gmd25pcmmhab5",785,"107.csv","","null","resources/maskTrios/BT2B.jpg","null","",NA,NA,NA,NA,""
"image-keyboard-response",56,180725,"0.0-4.14-2.14","x7gmd25pcmmhab5",785,"107.csv","","null","resources/images/coin2.png","null","",NA,NA,NA,NA,""
"image-keyboard-response",57,181201,"0.0-4.15-0.15","x7gmd25pcmmhab5",785,"107.csv","","474.30000001192093","resources/trios/L4T2A3.jpg","38","restless",0.7,0.7,0.2,0.782293595273553,"false"
"image-keyboard-response",58,181603,"0.0-4.15-1.15","x7gmd25pcmmhab5",785,"107.csv","","null","resources/maskTrios/BT2B.jpg","null","",NA,NA,NA,NA,""
"image-keyboard-response",59,182805,"0.0-4.15-2.15","x7gmd25pcmmhab5",785,"107.csv","","null","resources/images/fishbone.png","null","",NA,NA,NA,NA,""
"image-keyboard-response",60,183185,"0.0-4.16-0.16","x7gmd25pcmmhab5",785,"107.csv","","378.80000001192093","resources/trios/L4T2A3.jpg","37","restless",0.7,0.7,0.2,0.103035405043556,"true"
"image-keyboard-response",61,183588,"0.0-4.16-1.16","x7gmd25pcmmhab5",785,"107.csv","","null","resources/maskTrios/L4BB.jpg","null","",NA,NA,NA,NA,""
"image-keyboard-response",62,184790,"0.0-4.16-2.16","x7gmd25pcmmhab5",785,"107.csv","","null","resources/images/coin2.png","null","",NA,NA,NA,NA,""
"image-keyboard-response",63,185281,"0.0-4.17-0.17","x7gmd25pcmmhab5",785,"107.csv","","489.40000000596046","resources/trios/L4T2A3.jpg","39","restless",0.7,0.7,0.3,0.112361021181215,"true"
"image-keyboard-response",64,185683,"0.0-4.17-1.17","x7gmd25pcmmhab5",785,"107.csv","","null","resources/maskTrios/BBA3.jpg","null","",NA,NA,NA,NA,""
"image-keyboard-response",65,186885,"0.0-4.17-2.17","x7gmd25pcmmhab5",785,"107.csv","","null","resources/images/coin2.png","null","",NA,NA,NA,NA,""
"image-keyboard-response",66,187401,"0.0-4.18-0.18","x7gmd25pcmmhab5",785,"107.csv","","515.2999999821186","resources/trios/L4T2A3.jpg","39","restless",0.7,0.7,0.3,0.180578407169059,"true"
"image-keyboard-response",67,187804,"0.0-4.18-1.18","x7gmd25pcmmhab5",785,"107.csv","","null","resources/maskTrios/BBA3.jpg","null","",NA,NA,NA,NA,""
"image-keyboard-response",68,189007,"0.0-4.18-2.18","x7gmd25pcmmhab5",785,"107.csv","","null","resources/images/coin2.png","null","",NA,NA,NA,NA,""
"image-keyboard-response",69,189673,"0.0-4.19-0.19","x7gmd25pcmmhab5",785,"107.csv","","665.3000000119209","resources/trios/L4T2A3.jpg","39","restless",0.7,0.7,0.2,0.189237615969608,"true"
"image-keyboard-response",70,190076,"0.0-4.19-1.19","x7gmd25pcmmhab5",785,"107.csv","","null","resources/maskTrios/BBA3.jpg","null","",NA,NA,NA,NA,""
"image-keyboard-response",71,191279,"0.0-4.19-2.19","x7gmd25pcmmhab5",785,"107.csv","","null","resources/images/coin2.png","null","",NA,NA,NA,NA,""
"image-keyboard-response",72,192409,"0.0-4.20-0.20","x7gmd25pcmmhab5",785,"107.csv","","1129.300000011921","resources/trios/L4T2A3.jpg","38","restless",0.7,0.6,0.2,0.725357543803222,"false"
"image-keyboard-response",73,192812,"0.0-4.20-1.20","x7gmd25pcmmhab5",785,"107.csv","","null","resources/maskTrios/BT2B.jpg","null","",NA,NA,NA,NA,""
"image-keyboard-response",74,194014,"0.0-4.20-2.20","x7gmd25pcmmhab5",785,"107.csv","","null","resources/images/fishbone.png","null","",NA,NA,NA,NA,""
"image-keyboard-response",75,194473,"0.0-4.21-0.21","x7gmd25pcmmhab5",785,"107.csv","","458.40000000596046","resources/trios/L4T2A3.jpg","37","restless",0.6,0.5,0.2,0.8026921748284,"false"
"image-keyboard-response",76,194875,"0.0-4.21-1.21","x7gmd25pcmmhab5",785,"107.csv","","null","resources/maskTrios/L4BB.jpg","null","",NA,NA,NA,NA,""
"image-keyboard-response",77,196078,"0.0-4.21-2.21","x7gmd25pcmmhab5",785,"107.csv","","null","resources/images/fishbone.png","null","",NA,NA,NA,NA,""
"image-keyboard-response",78,196497,"0.0-4.22-0.22","x7gmd25pcmmhab5",785,"107.csv","","418.7999999821186","resources/trios/L4T2A3.jpg","37","restless",0.7,0.5,0.3,0.850310527969774,"false"
"image-keyboard-response",79,196899,"0.0-4.22-1.22","x7gmd25pcmmhab5",785,"107.csv","","null","resources/maskTrios/L4BB.jpg","null","",NA,NA,NA,NA,""
"image-keyboard-response",80,198102,"0.0-4.22-2.22","x7gmd25pcmmhab5",785,"107.csv","","null","resources/images/fishbone.png","null","",NA,NA,NA,NA,""
"image-keyboard-response",81,198618,"0.0-4.23-0.23","x7gmd25pcmmhab5",785,"107.csv","","514.9000000059605","resources/trios/L4T2A3.jpg","39","restless",0.7,0.5,0.3,0.156718966095731,"true"
"image-keyboard-response",82,199021,"0.0-4.23-1.23","x7gmd25pcmmhab5",785,"107.csv","","null","resources/maskTrios/BBA3.jpg","null","",NA,NA,NA,NA,""
"image-keyboard-response",83,200223,"0.0-4.23-2.23","x7gmd25pcmmhab5",785,"107.csv","","null","resources/images/coin2.png","null","",NA,NA,NA,NA,""
"image-keyboard-response",84,201265,"0.0-4.24-0.24","x7gmd25pcmmhab5",785,"107.csv","","1041","resources/trios/L4T2A3.jpg","38","restless",0.7,0.5,0.3,0.796318198584577,"false"
"image-keyboard-response",85,201668,"0.0-4.24-1.24","x7gmd25pcmmhab5",785,"107.csv","","null","resources/maskTrios/BT2B.jpg","null","",NA,NA,NA,NA,""
"image-keyboard-response",86,202870,"0.0-4.24-2.24","x7gmd25pcmmhab5",785,"107.csv","","null","resources/images/fishbone.png","null","",NA,NA,NA,NA,""
"image-keyboard-response",87,203330,"0.0-4.25-0.25","x7gmd25pcmmhab5",785,"107.csv","","458.59999999403954","resources/trios/L4T2A3.jpg","38","restless",0.7,0.5,0.3,0.129047624577487,"true"
"image-keyboard-response",88,203732,"0.0-4.25-1.25","x7gmd25pcmmhab5",785,"107.csv","","null","resources/maskTrios/BT2B.jpg","null","",NA,NA,NA,NA,""
"image-keyboard-response",89,204935,"0.0-4.25-2.25","x7gmd25pcmmhab5",785,"107.csv","","null","resources/images/coin2.png","null","",NA,NA,NA,NA,""
"image-keyboard-response",90,206633,"0.0-4.26-0.26","x7gmd25pcmmhab5",785,"107.csv","","1697.5999999940395","resources/trios/L4T2A3.jpg","38","restless",0.7,0.5,0.3,0.439652972993374,"true"
"image-keyboard-response",91,207036,"0.0-4.26-1.26","x7gmd25pcmmhab5",785,"107.csv","","null","resources/maskTrios/BT2B.jpg","null","",NA,NA,NA,NA,""
"image-keyboard-response",92,208238,"0.0-4.26-2.26","x7gmd25pcmmhab5",785,"107.csv","","null","resources/images/coin2.png","null","",NA,NA,NA,NA,""
"image-keyboard-response",93,209010,"0.0-4.27-0.27","x7gmd25pcmmhab5",785,"107.csv","","771.3000000119209","resources/trios/L4T2A3.jpg","39","restless",0.7,0.5,0.3,0.693868380246721,"false"
"image-keyboard-response",94,209413,"0.0-4.27-1.27","x7gmd25pcmmhab5",785,"107.csv","","null","resources/maskTrios/BBA3.jpg","null","",NA,NA,NA,NA,""
"image-keyboard-response",95,210615,"0.0-4.27-2.27","x7gmd25pcmmhab5",785,"107.csv","","null","resources/images/fishbone.png","null","",NA,NA,NA,NA,""
"image-keyboard-response",96,211497,"0.0-4.28-0.28","x7gmd25pcmmhab5",785,"107.csv","","881.9000000059605","resources/trios/L4T2A3.jpg","37","restless",0.7,0.5,0.4,0.425975900910068,"true"
"image-keyboard-response",97,211900,"0.0-4.28-1.28","x7gmd25pcmmhab5",785,"107.csv","","null","resources/maskTrios/L4BB.jpg","null","",NA,NA,NA,NA,""
"image-keyboard-response",98,213102,"0.0-4.28-2.28","x7gmd25pcmmhab5",785,"107.csv","","null","resources/images/coin2.png","null","",NA,NA,NA,NA,""
"image-keyboard-response",99,214818,"0.0-4.29-0.29","x7gmd25pcmmhab5",785,"107.csv","","1714.7999999821186","resources/trios/L4T2A3.jpg","37","restless",0.7,0.5,0.4,0.447178809194287,"true"
"image-keyboard-response",100,215220,"0.0-4.29-1.29","x7gmd25pcmmhab5",785,"107.csv","","null","resources/maskTrios/L4BB.jpg","null","",NA,NA,NA,NA,""
"image-keyboard-response",101,216422,"0.0-4.29-2.29","x7gmd25pcmmhab5",785,"107.csv","","null","resources/images/coin2.png","null","",NA,NA,NA,NA,""
"image-keyboard-response",102,216786,"0.0-4.30-0.30","x7gmd25pcmmhab5",785,"107.csv","","362.59999999403954","resources/trios/L4T2A3.jpg","39","restless",0.7,0.4,0.4,0.368318977632749,"true"
"image-keyboard-response",103,217188,"0.0-4.30-1.30","x7gmd25pcmmhab5",785,"107.csv","","null","resources/maskTrios/BBA3.jpg","null","",NA,NA,NA,NA,""
"image-keyboard-response",104,218391,"0.0-4.30-2.30","x7gmd25pcmmhab5",785,"107.csv","","null","resources/images/coin2.png","null","",NA,NA,NA,NA,""
"image-keyboard-response",105,218642,"0.0-4.31-0.31","x7gmd25pcmmhab5",785,"107.csv","","250.59999999403954","resources/trios/L4T2A3.jpg","38","restless",0.7,0.4,0.4,0.760741651608584,"false"
"image-keyboard-response",106,219044,"0.0-4.31-1.31","x7gmd25pcmmhab5",785,"107.csv","","null","resources/maskTrios/BT2B.jpg","null","",NA,NA,NA,NA,""
"image-keyboard-response",107,220247,"0.0-4.31-2.31","x7gmd25pcmmhab5",785,"107.csv","","null","resources/images/fishbone.png","null","",NA,NA,NA,NA,""
"image-keyboard-response",108,220514,"0.0-4.32-0.32","x7gmd25pcmmhab5",785,"107.csv","","266.19999998807907","resources/trios/L4T2A3.jpg","39","restless",0.7,0.4,0.4,0.090319947373285,"true"
"image-keyboard-response",109,220916,"0.0-4.32-1.32","x7gmd25pcmmhab5",785,"107.csv","","null","resources/maskTrios/BBA3.jpg","null","",NA,NA,NA,NA,""
"image-keyboard-response",110,222119,"0.0-4.32-2.32","x7gmd25pcmmhab5",785,"107.csv","","null","resources/images/coin2.png","null","",NA,NA,NA,NA,""
"image-keyboard-response",111,222338,"0.0-4.33-0.33","x7gmd25pcmmhab5",785,"107.csv","","217.7999999821186","resources/trios/L4T2A3.jpg","39","restless",0.7,0.4,0.4,0.909335846446613,"false"
"image-keyboard-response",112,222740,"0.0-4.33-1.33","x7gmd25pcmmhab5",785,"107.csv","","null","resources/maskTrios/BBA3.jpg","null","",NA,NA,NA,NA,""
"image-keyboard-response",113,223942,"0.0-4.33-2.33","x7gmd25pcmmhab5",785,"107.csv","","null","resources/images/fishbone.png","null","",NA,NA,NA,NA,""
"image-keyboard-response",114,224538,"0.0-4.34-0.34","x7gmd25pcmmhab5",785,"107.csv","","595","resources/trios/L4T2A3.jpg","38","restless",0.7,0.4,0.4,0.219625405038945,"true"
"image-keyboard-response",115,224940,"0.0-4.34-1.34","x7gmd25pcmmhab5",785,"107.csv","","null","resources/maskTrios/BT2B.jpg","null","",NA,NA,NA,NA,""
"image-keyboard-response",116,226142,"0.0-4.34-2.34","x7gmd25pcmmhab5",785,"107.csv","","null","resources/images/coin2.png","null","",NA,NA,NA,NA,""
"image-keyboard-response",117,227082,"0.0-4.35-0.35","x7gmd25pcmmhab5",785,"107.csv","","938.5999999940395","resources/trios/L4T2A3.jpg","39","restless",0.7,0.4,0.3,0.753596405859719,"false"
"image-keyboard-response",118,227485,"0.0-4.35-1.35","x7gmd25pcmmhab5",785,"107.csv","","null","resources/maskTrios/BBA3.jpg","null","",NA,NA,NA,NA,""
"image-keyboard-response",119,228686,"0.0-4.35-2.35","x7gmd25pcmmhab5",785,"107.csv","","null","resources/images/fishbone.png","null","",NA,NA,NA,NA,""
"image-keyboard-response",120,229186,"0.0-4.36-0.36","x7gmd25pcmmhab5",785,"107.csv","","499","resources/trios/L4T2A3.jpg","37","restless",0.7,0.4,0.2,0.393425262304387,"true"
"image-keyboard-response",121,229589,"0.0-4.36-1.36","x7gmd25pcmmhab5",785,"107.csv","","null","resources/maskTrios/L4BB.jpg","null","",NA,NA,NA,NA,""
"image-keyboard-response",122,230790,"0.0-4.36-2.36","x7gmd25pcmmhab5",785,"107.csv","","null","resources/images/coin2.png","null","",NA,NA,NA,NA,""
"image-keyboard-response",123,231186,"0.0-4.37-0.37","x7gmd25pcmmhab5",785,"107.csv","","394.69999998807907","resources/trios/L4T2A3.jpg","37","restless",0.7,0.4,0.2,0.698258048183641,"true"
"image-keyboard-response",124,231589,"0.0-4.37-1.37","x7gmd25pcmmhab5",785,"107.csv","","null","resources/maskTrios/L4BB.jpg","null","",NA,NA,NA,NA,""
"image-keyboard-response",125,232791,"0.0-4.37-2.37","x7gmd25pcmmhab5",785,"107.csv","","null","resources/images/coin2.png","null","",NA,NA,NA,NA,""
"image-keyboard-response",126,233074,"0.0-4.38-0.38","x7gmd25pcmmhab5",785,"107.csv","","282.19999998807907","resources/trios/L4T2A3.jpg","38","restless",0.7,0.4,0.3,0.681718064706117,"false"
"image-keyboard-response",127,233476,"0.0-4.38-1.38","x7gmd25pcmmhab5",785,"107.csv","","null","resources/maskTrios/BT2B.jpg","null","",NA,NA,NA,NA,""
"image-keyboard-response",128,234678,"0.0-4.38-2.38","x7gmd25pcmmhab5",785,"107.csv","","null","resources/images/fishbone.png","null","",NA,NA,NA,NA,""
"image-keyboard-response",129,235298,"0.0-4.39-0.39","x7gmd25pcmmhab5",785,"107.csv","","619.0999999940395","resources/trios/L4T2A3.jpg","39","restless",0.7,0.4,0.3,0.516276235432241,"false"
"image-keyboard-response",130,235701,"0.0-4.39-1.39","x7gmd25pcmmhab5",785,"107.csv","","null","resources/maskTrios/BBA3.jpg","null","",NA,NA,NA,NA,""
"image-keyboard-response",131,236903,"0.0-4.39-2.39","x7gmd25pcmmhab5",785,"107.csv","","null","resources/images/fishbone.png","null","",NA,NA,NA,NA,""
"image-keyboard-response",132,237034,"0.0-4.40-0.40","x7gmd25pcmmhab5",785,"107.csv","","130.40000000596046","resources/trios/L4T2A3.jpg","39","restless",0.7,0.4,0.3,0.456995018822283,"false"
"image-keyboard-response",133,237436,"0.0-4.40-1.40","x7gmd25pcmmhab5",785,"107.csv","","null","resources/maskTrios/BBA3.jpg","null","",NA,NA,NA,NA,""
"image-keyboard-response",134,238638,"0.0-4.40-2.40","x7gmd25pcmmhab5",785,"107.csv","","null","resources/images/fishbone.png","null","",NA,NA,NA,NA,""
"image-keyboard-response",135,240067,"0.0-4.41-0.41","x7gmd25pcmmhab5",785,"107.csv","","1427.5999999940395","resources/trios/L4T2A3.jpg","37","restless",0.6,0.4,0.3,0.885340387041149,"false"
"image-keyboard-response",136,240469,"0.0-4.41-1.41","x7gmd25pcmmhab5",785,"107.csv","","null","resources/maskTrios/L4BB.jpg","null","",NA,NA,NA,NA,""
"image-keyboard-response",137,241672,"0.0-4.41-2.41","x7gmd25pcmmhab5",785,"107.csv","","null","resources/images/fishbone.png","null","",NA,NA,NA,NA,""
"image-keyboard-response",138,242234,"0.0-4.42-0.42","x7gmd25pcmmhab5",785,"107.csv","","561.9000000059605","resources/trios/L4T2A3.jpg","37","restless",0.6,0.4,0.3,0.946069589441318,"false"
"image-keyboard-response",139,242637,"0.0-4.42-1.42","x7gmd25pcmmhab5",785,"107.csv","","null","resources/maskTrios/L4BB.jpg","null","",NA,NA,NA,NA,""
"image-keyboard-response",140,243839,"0.0-4.42-2.42","x7gmd25pcmmhab5",785,"107.csv","","null","resources/images/fishbone.png","null","",NA,NA,NA,NA,""
"image-keyboard-response",141,244106,"0.0-4.43-0.43","x7gmd25pcmmhab5",785,"107.csv","","266.09999999403954","resources/trios/L4T2A3.jpg","38","restless",0.6,0.4,0.3,0.665773366833059,"false"
"image-keyboard-response",142,244509,"0.0-4.43-1.43","x7gmd25pcmmhab5",785,"107.csv","","null","resources/maskTrios/BT2B.jpg","null","",NA,NA,NA,NA,""
"image-keyboard-response",143,245710,"0.0-4.43-2.43","x7gmd25pcmmhab5",785,"107.csv","","null","resources/images/fishbone.png","null","",NA,NA,NA,NA,""
"image-keyboard-response",144,246058,"0.0-4.44-0.44","x7gmd25pcmmhab5",785,"107.csv","","347.19999998807907","resources/trios/L4T2A3.jpg","39","restless",0.6,0.4,0.3,0.649589207126175,"false"
"image-keyboard-response",145,246461,"0.0-4.44-1.44","x7gmd25pcmmhab5",785,"107.csv","","null","resources/maskTrios/BBA3.jpg","null","",NA,NA,NA,NA,""
"image-keyboard-response",146,247663,"0.0-4.44-2.44","x7gmd25pcmmhab5",785,"107.csv","","null","resources/images/fishbone.png","null","",NA,NA,NA,NA,""
"image-keyboard-response",147,248059,"0.0-4.45-0.45","x7gmd25pcmmhab5",785,"107.csv","","394.69999998807907","resources/trios/L4T2A3.jpg","37","restless",0.6,0.4,0.3,0.465758417326256,"true"
"image-keyboard-response",148,248461,"0.0-4.45-1.45","x7gmd25pcmmhab5",785,"107.csv","","null","resources/maskTrios/L4BB.jpg","null","",NA,NA,NA,NA,""
"image-keyboard-response",149,249663,"0.0-4.45-2.45","x7gmd25pcmmhab5",785,"107.csv","","null","resources/images/coin2.png","null","",NA,NA,NA,NA,""
"image-keyboard-response",150,249683,"0.0-4.46-0.46","x7gmd25pcmmhab5",785,"107.csv","","18.69999998807907","resources/trios/L4T2A3.jpg","39","restless",0.6,0.4,0.3,0.7323564493227,"false"
"image-keyboard-response",151,250085,"0.0-4.46-1.46","x7gmd25pcmmhab5",785,"107.csv","","null","resources/maskTrios/BBA3.jpg","null","",NA,NA,NA,NA,""
"image-keyboard-response",152,251288,"0.0-4.46-2.46","x7gmd25pcmmhab5",785,"107.csv","","null","resources/images/fishbone.png","null","",NA,NA,NA,NA,""
"image-keyboard-response",153,251427,"0.0-4.47-0.47","x7gmd25pcmmhab5",785,"107.csv","","137.89999997615814","resources/trios/L4T2A3.jpg","38","restless",0.6,0.4,0.3,0.302930885106455,"true"
"image-keyboard-response",154,251829,"0.0-4.47-1.47","x7gmd25pcmmhab5",785,"107.csv","","null","resources/maskTrios/BT2B.jpg","null","",NA,NA,NA,NA,""
"image-keyboard-response",155,253031,"0.0-4.47-2.47","x7gmd25pcmmhab5",785,"107.csv","","null","resources/images/coin2.png","null","",NA,NA,NA,NA,""
"image-keyboard-response",156,253059,"0.0-4.48-0.48","x7gmd25pcmmhab5",785,"107.csv","","26.900000005960464","resources/trios/L4T2A3.jpg","38","restless",0.7,0.4,0.3,0.152237651130632,"true"
"image-keyboard-response",157,253462,"0.0-4.48-1.48","x7gmd25pcmmhab5",785,"107.csv","","null","resources/maskTrios/BT2B.jpg","null","",NA,NA,NA,NA,""
"image-keyboard-response",158,254665,"0.0-4.48-2.48","x7gmd25pcmmhab5",785,"107.csv","","null","resources/images/coin2.png","null","",NA,NA,NA,NA,""
"image-keyboard-response",159,254763,"0.0-4.49-0.49","x7gmd25pcmmhab5",785,"107.csv","","97.09999999403954","resources/trios/L4T2A3.jpg","38","restless",0.7,0.4,0.3,0.447284058985929,"false"
"image-keyboard-response",160,255165,"0.0-4.49-1.49","x7gmd25pcmmhab5",785,"107.csv","","null","resources/maskTrios/BT2B.jpg","null","",NA,NA,NA,NA,""
"image-keyboard-response",161,256367,"0.0-4.49-2.49","x7gmd25pcmmhab5",785,"107.csv","","null","resources/images/fishbone.png","null","",NA,NA,NA,NA,""
"image-keyboard-response",162,256731,"0.0-4.50-0.50","x7gmd25pcmmhab5",785,"107.csv","","363.30000001192093","resources/trios/L4T2A3.jpg","39","restless",0.7,0.4,0.3,0.785681076164198,"false"
"image-keyboard-response",163,257134,"0.0-4.50-1.50","x7gmd25pcmmhab5",785,"107.csv","","null","resources/maskTrios/BBA3.jpg","null","",NA,NA,NA,NA,""
"image-keyboard-response",164,258336,"0.0-4.50-2.50","x7gmd25pcmmhab5",785,"107.csv","","null","resources/images/fishbone.png","null","",NA,NA,NA,NA,""
"image-keyboard-response",165,258603,"0.0-4.51-0.51","x7gmd25pcmmhab5",785,"107.csv","","266","resources/trios/L4T2A3.jpg","37","restless",0.7,0.5,0.3,0.693359954116908,"true"
"image-keyboard-response",166,259005,"0.0-4.51-1.51","x7gmd25pcmmhab5",785,"107.csv","","null","resources/maskTrios/L4BB.jpg","null","",NA,NA,NA,NA,""
"image-keyboard-response",167,260207,"0.0-4.51-2.51","x7gmd25pcmmhab5",785,"107.csv","","null","resources/images/coin2.png","null","",NA,NA,NA,NA,""
"image-keyboard-response",168,260747,"0.0-4.52-0.52","x7gmd25pcmmhab5",785,"107.csv","","538.6999999880791","resources/trios/L4T2A3.jpg","37","restless",0.7,0.5,0.4,0.912365021441781,"false"
"image-keyboard-response",169,261149,"0.0-4.52-1.52","x7gmd25pcmmhab5",785,"107.csv","","null","resources/maskTrios/L4BB.jpg","null","",NA,NA,NA,NA,""
"image-keyboard-response",170,262351,"0.0-4.52-2.52","x7gmd25pcmmhab5",785,"107.csv","","null","resources/images/fishbone.png","null","",NA,NA,NA,NA,""
"image-keyboard-response",171,262491,"0.0-4.53-0.53","x7gmd25pcmmhab5",785,"107.csv","","139.19999998807907","resources/trios/L4T2A3.jpg","37","restless",0.7,0.5,0.4,0.798072640408783,"false"
"image-keyboard-response",172,262893,"0.0-4.53-1.53","x7gmd25pcmmhab5",785,"107.csv","","null","resources/maskTrios/L4BB.jpg","null","",NA,NA,NA,NA,""
"image-keyboard-response",173,264095,"0.0-4.53-2.53","x7gmd25pcmmhab5",785,"107.csv","","null","resources/images/fishbone.png","null","",NA,NA,NA,NA,""
"image-keyboard-response",174,264739,"0.0-4.54-0.54","x7gmd25pcmmhab5",785,"107.csv","","642.8000000119209","resources/trios/L4T2A3.jpg","37","restless",0.7,0.5,0.4,0.680532969675682,"true"
"image-keyboard-response",175,265141,"0.0-4.54-1.54","x7gmd25pcmmhab5",785,"107.csv","","null","resources/maskTrios/L4BB.jpg","null","",NA,NA,NA,NA,""
"image-keyboard-response",176,266344,"0.0-4.54-2.54","x7gmd25pcmmhab5",785,"107.csv","","null","resources/images/coin2.png","null","",NA,NA,NA,NA,""
"image-keyboard-response",177,266691,"0.0-4.55-0.55","x7gmd25pcmmhab5",785,"107.csv","","346.40000000596046","resources/trios/L4T2A3.jpg","37","restless",0.7,0.5,0.4,0.606503968540289,"true"
"image-keyboard-response",178,267093,"0.0-4.55-1.55","x7gmd25pcmmhab5",785,"107.csv","","null","resources/maskTrios/L4BB.jpg","null","",NA,NA,NA,NA,""
"image-keyboard-response",179,268296,"0.0-4.55-2.55","x7gmd25pcmmhab5",785,"107.csv","","null","resources/images/coin2.png","null","",NA,NA,NA,NA,""
"image-keyboard-response",180,269211,"0.0-4.56-0.56","x7gmd25pcmmhab5",785,"107.csv","","914.8000000119209","resources/trios/L4T2A3.jpg","39","restless",0.7,0.5,0.4,0.770009646226011,"false"
"image-keyboard-response",181,269613,"0.0-4.56-1.56","x7gmd25pcmmhab5",785,"107.csv","","null","resources/maskTrios/BBA3.jpg","null","",NA,NA,NA,NA,""
"image-keyboard-response",182,270815,"0.0-4.56-2.56","x7gmd25pcmmhab5",785,"107.csv","","null","resources/images/fishbone.png","null","",NA,NA,NA,NA,""
"image-keyboard-response",183,271067,"0.0-4.57-0.57","x7gmd25pcmmhab5",785,"107.csv","","251.10000002384186","resources/trios/L4T2A3.jpg","38","restless",0.7,0.5,0.4,0.59983670717943,"false"
"image-keyboard-response",184,271470,"0.0-4.57-1.57","x7gmd25pcmmhab5",785,"107.csv","","null","resources/maskTrios/BT2B.jpg","null","",NA,NA,NA,NA,""
"image-keyboard-response",185,272672,"0.0-4.57-2.57","x7gmd25pcmmhab5",785,"107.csv","","null","resources/images/fishbone.png","null","",NA,NA,NA,NA,""
"image-keyboard-response",186,273443,"0.0-4.58-0.58","x7gmd25pcmmhab5",785,"107.csv","","770.1000000238419","resources/trios/L4T2A3.jpg","39","restless",0.7,0.5,0.4,0.241923951652943,"true"
"image-keyboard-response",187,273846,"0.0-4.58-1.58","x7gmd25pcmmhab5",785,"107.csv","","null","resources/maskTrios/BBA3.jpg","null","",NA,NA,NA,NA,""
"image-keyboard-response",188,275048,"0.0-4.58-2.58","x7gmd25pcmmhab5",785,"107.csv","","null","resources/images/coin2.png","null","",NA,NA,NA,NA,""
"image-keyboard-response",189,275347,"0.0-4.59-0.59","x7gmd25pcmmhab5",785,"107.csv","","298","resources/trios/L4T2A3.jpg","38","restless",0.7,0.5,0.4,0.599757382660547,"false"
"image-keyboard-response",190,275750,"0.0-4.59-1.59","x7gmd25pcmmhab5",785,"107.csv","","null","resources/maskTrios/BT2B.jpg","null","",NA,NA,NA,NA,""
"image-keyboard-response",191,276953,"0.0-4.59-2.59","x7gmd25pcmmhab5",785,"107.csv","","null","resources/images/fishbone.png","null","",NA,NA,NA,NA,""
"image-keyboard-response",192,277011,"0.0-4.60-0.60","x7gmd25pcmmhab5",785,"107.csv","","57.599999994039536","resources/trios/L4T2A3.jpg","39","restless",0.7,0.5,0.4,0.516927957745497,"false"
"image-keyboard-response",193,277414,"0.0-4.60-1.60","x7gmd25pcmmhab5",785,"107.csv","","null","resources/maskTrios/BBA3.jpg","null","",NA,NA,NA,NA,""
"image-keyboard-response",194,278616,"0.0-4.60-2.60","x7gmd25pcmmhab5",785,"107.csv","","null","resources/images/fishbone.png","null","",NA,NA,NA,NA,""
"image-keyboard-response",195,279364,"0.0-4.61-0.61","x7gmd25pcmmhab5",785,"107.csv","","747","resources/trios/L4T2A3.jpg","37","restless",0.6,0.5,0.4,0.311276045424418,"true"
"image-keyboard-response",196,279765,"0.0-4.61-1.61","x7gmd25pcmmhab5",785,"107.csv","","null","resources/maskTrios/L4BB.jpg","null","",NA,NA,NA,NA,""
"image-keyboard-response",197,280967,"0.0-4.61-2.61","x7gmd25pcmmhab5",785,"107.csv","","null","resources/images/coin2.png","null","",NA,NA,NA,NA,""
"image-keyboard-response",198,282539,"0.0-4.62-0.62","x7gmd25pcmmhab5",785,"107.csv","","1571.199999988079","resources/trios/L4T2A3.jpg","38","restless",0.6,0.5,0.4,0.495450256489051,"true"
"image-keyboard-response",199,282941,"0.0-4.62-1.62","x7gmd25pcmmhab5",785,"107.csv","","null","resources/maskTrios/BT2B.jpg","null","",NA,NA,NA,NA,""
"image-keyboard-response",200,284144,"0.0-4.62-2.62","x7gmd25pcmmhab5",785,"107.csv","","null","resources/images/coin2.png","null","",NA,NA,NA,NA,""
"image-keyboard-response",201,284636,"0.0-4.63-0.63","x7gmd25pcmmhab5",785,"107.csv","","491.09999999403954","resources/trios/L4T2A3.jpg","37","restless",0.6,0.5,0.4,0.98108581656149,"false"
"image-keyboard-response",202,285038,"0.0-4.63-1.63","x7gmd25pcmmhab5",785,"107.csv","","null","resources/maskTrios/L4BB.jpg","null","",NA,NA,NA,NA,""
"image-keyboard-response",203,286241,"0.0-4.63-2.63","x7gmd25pcmmhab5",785,"107.csv","","null","resources/images/fishbone.png","null","",NA,NA,NA,NA,""
"image-keyboard-response",204,287276,"0.0-4.64-0.64","x7gmd25pcmmhab5",785,"107.csv","","1034.0999999940395","resources/trios/L4T2A3.jpg","38","restless",0.6,0.5,0.4,0.245709705344574,"true"
"image-keyboard-response",205,287678,"0.0-4.64-1.64","x7gmd25pcmmhab5",785,"107.csv","","null","resources/maskTrios/BT2B.jpg","null","",NA,NA,NA,NA,""
"image-keyboard-response",206,288881,"0.0-4.64-2.64","x7gmd25pcmmhab5",785,"107.csv","","null","resources/images/coin2.png","null","",NA,NA,NA,NA,""
"image-keyboard-response",207,289700,"0.0-4.65-0.65","x7gmd25pcmmhab5",785,"107.csv","","818.1999999880791","resources/trios/L4T2A3.jpg","37","restless",0.6,0.5,0.4,0.542842616543658,"true"
"image-keyboard-response",208,290102,"0.0-4.65-1.65","x7gmd25pcmmhab5",785,"107.csv","","null","resources/maskTrios/L4BB.jpg","null","",NA,NA,NA,NA,""
"image-keyboard-response",209,291305,"0.0-4.65-2.65","x7gmd25pcmmhab5",785,"107.csv","","null","resources/images/coin2.png","null","",NA,NA,NA,NA,""
"image-keyboard-response",210,291748,"0.0-4.66-0.66","x7gmd25pcmmhab5",785,"107.csv","","442.2999999821186","resources/trios/L4T2A3.jpg","37","restless",0.6,0.5,0.5,0.35199208648274,"true"
"image-keyboard-response",211,292150,"0.0-4.66-1.66","x7gmd25pcmmhab5",785,"107.csv","","null","resources/maskTrios/L4BB.jpg","null","",NA,NA,NA,NA,""
"image-keyboard-response",212,293352,"0.0-4.66-2.66","x7gmd25pcmmhab5",785,"107.csv","","null","resources/images/coin2.png","null","",NA,NA,NA,NA,""
"image-keyboard-response",213,293820,"0.0-4.67-0.67","x7gmd25pcmmhab5",785,"107.csv","","466.59999999403954","resources/trios/L4T2A3.jpg","39","restless",0.6,0.5,0.5,0.81509437297422,"false"
"image-keyboard-response",214,294222,"0.0-4.67-1.67","x7gmd25pcmmhab5",785,"107.csv","","null","resources/maskTrios/BBA3.jpg","null","",NA,NA,NA,NA,""
"image-keyboard-response",215,295425,"0.0-4.67-2.67","x7gmd25pcmmhab5",785,"107.csv","","null","resources/images/fishbone.png","null","",NA,NA,NA,NA,""
"image-keyboard-response",216,295788,"0.0-4.68-0.68","x7gmd25pcmmhab5",785,"107.csv","","361.7999999821186","resources/trios/L4T2A3.jpg","38","restless",0.6,0.5,0.5,0.881690123960452,"false"
"image-keyboard-response",217,296191,"0.0-4.68-1.68","x7gmd25pcmmhab5",785,"107.csv","","null","resources/maskTrios/BT2B.jpg","null","",NA,NA,NA,NA,""
"image-keyboard-response",218,297393,"0.0-4.68-2.68","x7gmd25pcmmhab5",785,"107.csv","","null","resources/images/fishbone.png","null","",NA,NA,NA,NA,""
"image-keyboard-response",219,297876,"0.0-4.69-0.69","x7gmd25pcmmhab5",785,"107.csv","","481.59999999403954","resources/trios/L4T2A3.jpg","39","restless",0.6,0.5,0.5,0.136478615568484,"true"
"image-keyboard-response",220,298278,"0.0-4.69-1.69","x7gmd25pcmmhab5",785,"107.csv","","null","resources/maskTrios/BBA3.jpg","null","",NA,NA,NA,NA,""
"image-keyboard-response",221,299481,"0.0-4.69-2.69","x7gmd25pcmmhab5",785,"107.csv","","null","resources/images/coin2.png","null","",NA,NA,NA,NA,""
"image-keyboard-response",222,300556,"0.0-4.70-0.70","x7gmd25pcmmhab5",785,"107.csv","","1073.699999988079","resources/trios/L4T2A3.jpg","38","restless",0.6,0.5,0.5,0.411773135557526,"true"
"image-keyboard-response",223,300958,"0.0-4.70-1.70","x7gmd25pcmmhab5",785,"107.csv","","null","resources/maskTrios/BT2B.jpg","null","",NA,NA,NA,NA,""
"image-keyboard-response",224,302161,"0.0-4.70-2.70","x7gmd25pcmmhab5",785,"107.csv","","null","resources/images/coin2.png","null","",NA,NA,NA,NA,""
"image-keyboard-response",225,302620,"0.0-4.71-0.71","x7gmd25pcmmhab5",785,"107.csv","","458.59999999403954","resources/trios/L4T2A3.jpg","37","restless",0.6,0.5,0.5,0.724099404947315,"false"
"image-keyboard-response",226,303023,"0.0-4.71-1.71","x7gmd25pcmmhab5",785,"107.csv","","null","resources/maskTrios/L4BB.jpg","null","",NA,NA,NA,NA,""
"image-keyboard-response",227,304225,"0.0-4.71-2.71","x7gmd25pcmmhab5",785,"107.csv","","null","resources/images/fishbone.png","null","",NA,NA,NA,NA,""
"image-keyboard-response",228,304660,"0.0-4.72-0.72","x7gmd25pcmmhab5",785,"107.csv","","433.7000000178814","resources/trios/L4T2A3.jpg","39","restless",0.6,0.5,0.5,0.818540660416668,"false"
"image-keyboard-response",229,305061,"0.0-4.72-1.72","x7gmd25pcmmhab5",785,"107.csv","","null","resources/maskTrios/BBA3.jpg","null","",NA,NA,NA,NA,""
"image-keyboard-response",230,306264,"0.0-4.72-2.72","x7gmd25pcmmhab5",785,"107.csv","","null","resources/images/fishbone.png","null","",NA,NA,NA,NA,""
"image-keyboard-response",231,306484,"0.0-4.73-0.73","x7gmd25pcmmhab5",785,"107.csv","","220.09999999403954","resources/trios/L4T2A3.jpg","38","restless",0.6,0.5,0.5,0.3474955199577,"true"
"image-keyboard-response",232,306887,"0.0-4.73-1.73","x7gmd25pcmmhab5",785,"107.csv","","null","resources/maskTrios/BT2B.jpg","null","",NA,NA,NA,NA,""
"image-keyboard-response",233,308089,"0.0-4.73-2.73","x7gmd25pcmmhab5",785,"107.csv","","null","resources/images/coin2.png","null","",NA,NA,NA,NA,""
"image-keyboard-response",234,309636,"0.0-4.74-0.74","x7gmd25pcmmhab5",785,"107.csv","","1546.0999999940395","resources/trios/L4T2A3.jpg","39","restless",0.6,0.5,0.5,0.765660361757866,"false"
"image-keyboard-response",235,310039,"0.0-4.74-1.74","x7gmd25pcmmhab5",785,"107.csv","","null","resources/maskTrios/BBA3.jpg","null","",NA,NA,NA,NA,""
"image-keyboard-response",236,311242,"0.0-4.74-2.74","x7gmd25pcmmhab5",785,"107.csv","","null","resources/images/fishbone.png","null","",NA,NA,NA,NA,""
"image-keyboard-response",237,311532,"0.0-4.75-0.75","x7gmd25pcmmhab5",785,"107.csv","","289.40000000596046","resources/trios/L4T2A3.jpg","37","restless",0.6,0.5,0.5,0.363672351358126,"true"
"image-keyboard-response",238,311934,"0.0-4.75-1.75","x7gmd25pcmmhab5",785,"107.csv","","null","resources/maskTrios/L4BB.jpg","null","",NA,NA,NA,NA,""
"image-keyboard-response",239,313137,"0.0-4.75-2.75","x7gmd25pcmmhab5",785,"107.csv","","null","resources/images/coin2.png","null","",NA,NA,NA,NA,""
"image-keyboard-response",240,313428,"0.0-4.76-0.76","x7gmd25pcmmhab5",785,"107.csv","","290.60000002384186","resources/trios/L4T2A3.jpg","38","restless",0.6,0.5,0.5,0.105052845345537,"true"
"image-keyboard-response",241,313831,"0.0-4.76-1.76","x7gmd25pcmmhab5",785,"107.csv","","null","resources/maskTrios/BT2B.jpg","null","",NA,NA,NA,NA,""
"image-keyboard-response",242,315033,"0.0-4.76-2.76","x7gmd25pcmmhab5",785,"107.csv","","null","resources/images/coin2.png","null","",NA,NA,NA,NA,""
"image-keyboard-response",243,315477,"0.0-4.77-0.77","x7gmd25pcmmhab5",785,"107.csv","","442.69999998807907","resources/trios/L4T2A3.jpg","38","restless",0.6,0.5,0.5,0.552842069111454,"false"
"image-keyboard-response",244,315879,"0.0-4.77-1.77","x7gmd25pcmmhab5",785,"107.csv","","null","resources/maskTrios/BT2B.jpg","null","",NA,NA,NA,NA,""
"image-keyboard-response",245,317081,"0.0-4.77-2.77","x7gmd25pcmmhab5",785,"107.csv","","null","resources/images/fishbone.png","null","",NA,NA,NA,NA,""
"image-keyboard-response",246,317324,"0.0-4.78-0.78","x7gmd25pcmmhab5",785,"107.csv","","242.59999999403954","resources/trios/L4T2A3.jpg","39","restless",0.6,0.5,0.5,0.547878282273872,"false"
"image-keyboard-response",247,317726,"0.0-4.78-1.78","x7gmd25pcmmhab5",785,"107.csv","","null","resources/maskTrios/BBA3.jpg","null","",NA,NA,NA,NA,""
"image-keyboard-response",248,318928,"0.0-4.78-2.78","x7gmd25pcmmhab5",785,"107.csv","","null","resources/images/fishbone.png","null","",NA,NA,NA,NA,""
"image-keyboard-response",249,319284,"0.0-4.79-0.79","x7gmd25pcmmhab5",785,"107.csv","","355.19999998807907","resources/trios/L4T2A3.jpg","37","restless",0.6,0.5,0.5,0.0942090197752812,"true"
"image-keyboard-response",250,319687,"0.0-4.79-1.79","x7gmd25pcmmhab5",785,"107.csv","","null","resources/maskTrios/L4BB.jpg","null","",NA,NA,NA,NA,""
"image-keyboard-response",251,320889,"0.0-4.79-2.79","x7gmd25pcmmhab5",785,"107.csv","","null","resources/images/coin2.png","null","",NA,NA,NA,NA,""
"image-keyboard-response",252,321253,"0.0-4.80-0.80","x7gmd25pcmmhab5",785,"107.csv","","362.89999997615814","resources/trios/L4T2A3.jpg","37","restless",0.6,0.5,0.5,0.20958259628225,"true"
"image-keyboard-response",253,321655,"0.0-4.80-1.80","x7gmd25pcmmhab5",785,"107.csv","","null","resources/maskTrios/L4BB.jpg","null","",NA,NA,NA,NA,""
"image-keyboard-response",254,322857,"0.0-4.80-2.80","x7gmd25pcmmhab5",785,"107.csv","","null","resources/images/coin2.png","null","",NA,NA,NA,NA,""
"image-keyboard-response",255,323229,"0.0-4.81-0.81","x7gmd25pcmmhab5",785,"107.csv","","371.5","resources/trios/L4T2A3.jpg","38","restless",0.6,0.5,0.5,0.594969463583327,"false"
"image-keyboard-response",256,323631,"0.0-4.81-1.81","x7gmd25pcmmhab5",785,"107.csv","","null","resources/maskTrios/BT2B.jpg","null","",NA,NA,NA,NA,""
"image-keyboard-response",257,324834,"0.0-4.81-2.81","x7gmd25pcmmhab5",785,"107.csv","","null","resources/images/fishbone.png","null","",NA,NA,NA,NA,""
"image-keyboard-response",258,325109,"0.0-4.82-0.82","x7gmd25pcmmhab5",785,"107.csv","","274.2000000178814","resources/trios/L4T2A3.jpg","39","restless",0.6,0.5,0.5,0.775591529196096,"false"
"image-keyboard-response",259,325511,"0.0-4.82-1.82","x7gmd25pcmmhab5",785,"107.csv","","null","resources/maskTrios/BBA3.jpg","null","",NA,NA,NA,NA,""
"image-keyboard-response",260,326713,"0.0-4.82-2.82","x7gmd25pcmmhab5",785,"107.csv","","null","resources/images/fishbone.png","null","",NA,NA,NA,NA,""
"image-keyboard-response",261,327125,"0.0-4.83-0.83","x7gmd25pcmmhab5",785,"107.csv","","410.5","resources/trios/L4T2A3.jpg","39","restless",0.6,0.5,0.5,0.635587801139639,"false"
"image-keyboard-response",262,327527,"0.0-4.83-1.83","x7gmd25pcmmhab5",785,"107.csv","","null","resources/maskTrios/BBA3.jpg","null","",NA,NA,NA,NA,""
"image-keyboard-response",263,328729,"0.0-4.83-2.83","x7gmd25pcmmhab5",785,"107.csv","","null","resources/images/fishbone.png","null","",NA,NA,NA,NA,""
"image-keyboard-response",264,328957,"0.0-4.84-0.84","x7gmd25pcmmhab5",785,"107.csv","","226.60000002384186","resources/trios/L4T2A3.jpg","38","restless",0.7,0.5,0.5,0.85318561973279,"false"
"image-keyboard-response",265,329358,"0.0-4.84-1.84","x7gmd25pcmmhab5",785,"107.csv","","null","resources/maskTrios/BT2B.jpg","null","",NA,NA,NA,NA,""
"image-keyboard-response",266,330561,"0.0-4.84-2.84","x7gmd25pcmmhab5",785,"107.csv","","null","resources/images/fishbone.png","null","",NA,NA,NA,NA,""
"image-keyboard-response",267,330949,"0.0-4.85-0.85","x7gmd25pcmmhab5",785,"107.csv","","387.2999999821186","resources/trios/L4T2A3.jpg","37","restless",0.7,0.5,0.5,0.84980834988331,"false"
"image-keyboard-response",268,331351,"0.0-4.85-1.85","x7gmd25pcmmhab5",785,"107.csv","","null","resources/maskTrios/L4BB.jpg","null","",NA,NA,NA,NA,""
"image-keyboard-response",269,332552,"0.0-4.85-2.85","x7gmd25pcmmhab5",785,"107.csv","","null","resources/images/fishbone.png","null","",NA,NA,NA,NA,""
"image-keyboard-response",270,332797,"0.0-4.86-0.86","x7gmd25pcmmhab5",785,"107.csv","","244.2000000178814","resources/trios/L4T2A3.jpg","38","restless",0.7,0.5,0.5,0.536930307947015,"false"
"image-keyboard-response",271,333200,"0.0-4.86-1.86","x7gmd25pcmmhab5",785,"107.csv","","null","resources/maskTrios/BT2B.jpg","null","",NA,NA,NA,NA,""
"image-keyboard-response",272,334402,"0.0-4.86-2.86","x7gmd25pcmmhab5",785,"107.csv","","null","resources/images/fishbone.png","null","",NA,NA,NA,NA,""
"image-keyboard-response",273,334557,"0.0-4.87-0.87","x7gmd25pcmmhab5",785,"107.csv","","153.90000000596046","resources/trios/L4T2A3.jpg","38","restless",0.7,0.5,0.5,0.271930543864676,"true"
"image-keyboard-response",274,334959,"0.0-4.87-1.87","x7gmd25pcmmhab5",785,"107.csv","","null","resources/maskTrios/BT2B.jpg","null","",NA,NA,NA,NA,""
"image-keyboard-response",275,336162,"0.0-4.87-2.87","x7gmd25pcmmhab5",785,"107.csv","","null","resources/images/coin2.png","null","",NA,NA,NA,NA,""
"image-keyboard-response",276,336805,"0.0-4.88-0.88","x7gmd25pcmmhab5",785,"107.csv","","642.2999999821186","resources/trios/L4T2A3.jpg","38","restless",0.7,0.5,0.5,0.684417870185507,"false"
"image-keyboard-response",277,337208,"0.0-4.88-1.88","x7gmd25pcmmhab5",785,"107.csv","","null","resources/maskTrios/BT2B.jpg","null","",NA,NA,NA,NA,""
"image-keyboard-response",278,338411,"0.0-4.88-2.88","x7gmd25pcmmhab5",785,"107.csv","","null","resources/images/fishbone.png","null","",NA,NA,NA,NA,""
"image-keyboard-response",279,338869,"0.0-4.89-0.89","x7gmd25pcmmhab5",785,"107.csv","","457.59999999403954","resources/trios/L4T2A3.jpg","39","restless",0.7,0.5,0.5,0.496932087129005,"true"
"image-keyboard-response",280,339271,"0.0-4.89-1.89","x7gmd25pcmmhab5",785,"107.csv","","null","resources/maskTrios/BBA3.jpg","null","",NA,NA,NA,NA,""
"image-keyboard-response",281,340473,"0.0-4.89-2.89","x7gmd25pcmmhab5",785,"107.csv","","null","resources/images/coin2.png","null","",NA,NA,NA,NA,""
"image-keyboard-response",282,340557,"0.0-4.90-0.90","x7gmd25pcmmhab5",785,"107.csv","","83.59999999403954","resources/trios/L4T2A3.jpg","37","restless",0.7,0.6,0.5,0.962774467580968,"false"
"image-keyboard-response",283,340959,"0.0-4.90-1.90","x7gmd25pcmmhab5",785,"107.csv","","null","resources/maskTrios/L4BB.jpg","null","",NA,NA,NA,NA,""
"image-keyboard-response",284,342162,"0.0-4.90-2.90","x7gmd25pcmmhab5",785,"107.csv","","null","resources/images/fishbone.png","null","",NA,NA,NA,NA,""
"image-keyboard-response",285,342693,"0.0-4.91-0.91","x7gmd25pcmmhab5",785,"107.csv","","530.9000000059605","resources/trios/L4T2A3.jpg","37","restless",0.7,0.6,0.5,0.380464302001363,"true"
"image-keyboard-response",286,343094,"0.0-4.91-1.91","x7gmd25pcmmhab5",785,"107.csv","","null","resources/maskTrios/L4BB.jpg","null","",NA,NA,NA,NA,""
"image-keyboard-response",287,344297,"0.0-4.91-2.91","x7gmd25pcmmhab5",785,"107.csv","","null","resources/images/coin2.png","null","",NA,NA,NA,NA,""
"image-keyboard-response",288,344741,"0.0-4.92-0.92","x7gmd25pcmmhab5",785,"107.csv","","443.2999999821186","resources/trios/L4T2A3.jpg","37","restless",0.7,0.6,0.5,0.482735314078899,"true"
"image-keyboard-response",289,345144,"0.0-4.92-1.92","x7gmd25pcmmhab5",785,"107.csv","","null","resources/maskTrios/L4BB.jpg","null","",NA,NA,NA,NA,""
"image-keyboard-response",290,346346,"0.0-4.92-2.92","x7gmd25pcmmhab5",785,"107.csv","","null","resources/images/coin2.png","null","",NA,NA,NA,NA,""
"image-keyboard-response",291,346805,"0.0-4.93-0.93","x7gmd25pcmmhab5",785,"107.csv","","458.40000000596046","resources/trios/L4T2A3.jpg","38","restless",0.7,0.7,0.5,0.432607089277288,"true"
"image-keyboard-response",292,347208,"0.0-4.93-1.93","x7gmd25pcmmhab5",785,"107.csv","","null","resources/maskTrios/BT2B.jpg","null","",NA,NA,NA,NA,""
"image-keyboard-response",293,348410,"0.0-4.93-2.93","x7gmd25pcmmhab5",785,"107.csv","","null","resources/images/coin2.png","null","",NA,NA,NA,NA,""
"image-keyboard-response",294,348741,"0.0-4.94-0.94","x7gmd25pcmmhab5",785,"107.csv","","330.2000000178814","resources/trios/L4T2A3.jpg","38","restless",0.7,0.8,0.5,0.247175660822614,"true"
"image-keyboard-response",295,349143,"0.0-4.94-1.94","x7gmd25pcmmhab5",785,"107.csv","","null","resources/maskTrios/BT2B.jpg","null","",NA,NA,NA,NA,""
"image-keyboard-response",296,350344,"0.0-4.94-2.94","x7gmd25pcmmhab5",785,"107.csv","","null","resources/images/coin2.png","null","",NA,NA,NA,NA,""
"image-keyboard-response",297,350773,"0.0-4.95-0.95","x7gmd25pcmmhab5",785,"107.csv","","428.69999998807907","resources/trios/L4T2A3.jpg","37","restless",0.7,0.8,0.5,0.528135832915613,"true"
"image-keyboard-response",298,351176,"0.0-4.95-1.95","x7gmd25pcmmhab5",785,"107.csv","","null","resources/maskTrios/L4BB.jpg","null","",NA,NA,NA,NA,""
"image-keyboard-response",299,352378,"0.0-4.95-2.95","x7gmd25pcmmhab5",785,"107.csv","","null","resources/images/coin2.png","null","",NA,NA,NA,NA,""
"image-keyboard-response",300,353029,"0.0-4.96-0.96","x7gmd25pcmmhab5",785,"107.csv","","650.1999999880791","resources/trios/L4T2A3.jpg","37","restless",0.7,0.9,0.5,0.0966603138903721,"true"
"image-keyboard-response",301,353432,"0.0-4.96-1.96","x7gmd25pcmmhab5",785,"107.csv","","null","resources/maskTrios/L4BB.jpg","null","",NA,NA,NA,NA,""
"image-keyboard-response",302,354635,"0.0-4.96-2.96","x7gmd25pcmmhab5",785,"107.csv","","null","resources/images/coin2.png","null","",NA,NA,NA,NA,""
"image-keyboard-response",303,354973,"0.0-4.97-0.97","x7gmd25pcmmhab5",785,"107.csv","","337.69999998807907","resources/trios/L4T2A3.jpg","38","restless",0.7,0.9,0.5,0.673491293671748,"true"
"image-keyboard-response",304,355376,"0.0-4.97-1.97","x7gmd25pcmmhab5",785,"107.csv","","null","resources/maskTrios/BT2B.jpg","null","",NA,NA,NA,NA,""
"image-keyboard-response",305,356578,"0.0-4.97-2.97","x7gmd25pcmmhab5",785,"107.csv","","null","resources/images/coin2.png","null","",NA,NA,NA,NA,""
"image-keyboard-response",306,357149,"0.0-4.98-0.98","x7gmd25pcmmhab5",785,"107.csv","","570.5","resources/trios/L4T2A3.jpg","39","restless",0.7,0.9,0.5,0.353583920184888,"true"
"image-keyboard-response",307,357552,"0.0-4.98-1.98","x7gmd25pcmmhab5",785,"107.csv","","null","resources/maskTrios/BBA3.jpg","null","",NA,NA,NA,NA,""
"image-keyboard-response",308,358754,"0.0-4.98-2.98","x7gmd25pcmmhab5",785,"107.csv","","null","resources/images/coin2.png","null","",NA,NA,NA,NA,""
"image-keyboard-response",309,359133,"0.0-4.99-0.99","x7gmd25pcmmhab5",785,"107.csv","","378.2999999821186","resources/trios/L4T2A3.jpg","37","restless",0.7,0.9,0.5,0.433113498922495,"true"
"image-keyboard-response",310,359536,"0.0-4.99-1.99","x7gmd25pcmmhab5",785,"107.csv","","null","resources/maskTrios/L4BB.jpg","null","",NA,NA,NA,NA,""
"image-keyboard-response",311,360738,"0.0-4.99-2.99","x7gmd25pcmmhab5",785,"107.csv","","null","resources/images/coin2.png","null","",NA,NA,NA,NA,""
"image-keyboard-response",312,361126,"0.0-4.100-0.100","x7gmd25pcmmhab5",785,"107.csv","","386.7999999821186","resources/trios/L4T2A3.jpg","39","restless",0.7,0.9,0.5,0.059032175877916,"true"
"image-keyboard-response",313,361528,"0.0-4.100-1.100","x7gmd25pcmmhab5",785,"107.csv","","null","resources/maskTrios/BBA3.jpg","null","",NA,NA,NA,NA,""
"image-keyboard-response",314,362731,"0.0-4.100-2.100","x7gmd25pcmmhab5",785,"107.csv","","null","resources/images/coin2.png","null","",NA,NA,NA,NA,""
"image-keyboard-response",315,363038,"0.0-4.101-0.101","x7gmd25pcmmhab5",785,"107.csv","","305.90000000596046","resources/trios/L4T2A3.jpg","38","restless",0.7,0.9,0.5,0.104179214688738,"true"
"image-keyboard-response",316,363440,"0.0-4.101-1.101","x7gmd25pcmmhab5",785,"107.csv","","null","resources/maskTrios/BT2B.jpg","null","",NA,NA,NA,NA,""
"image-keyboard-response",317,364642,"0.0-4.101-2.101","x7gmd25pcmmhab5",785,"107.csv","","null","resources/images/coin2.png","null","",NA,NA,NA,NA,""
"image-keyboard-response",318,364950,"0.0-4.102-0.102","x7gmd25pcmmhab5",785,"107.csv","","306.59999999403954","resources/trios/L4T2A3.jpg","37","restless",0.7,0.9,0.6,0.613517566049337,"true"
"image-keyboard-response",319,365352,"0.0-4.102-1.102","x7gmd25pcmmhab5",785,"107.csv","","null","resources/maskTrios/L4BB.jpg","null","",NA,NA,NA,NA,""
"image-keyboard-response",320,366555,"0.0-4.102-2.102","x7gmd25pcmmhab5",785,"107.csv","","null","resources/images/coin2.png","null","",NA,NA,NA,NA,""
"image-keyboard-response",321,366822,"0.0-4.103-0.103","x7gmd25pcmmhab5",785,"107.csv","","266.2999999821186","resources/trios/L4T2A3.jpg","39","restless",0.7,0.9,0.6,0.592857845552968,"true"
"image-keyboard-response",322,367224,"0.0-4.103-1.103","x7gmd25pcmmhab5",785,"107.csv","","null","resources/maskTrios/BBA3.jpg","null","",NA,NA,NA,NA,""
"image-keyboard-response",323,368426,"0.0-4.103-2.103","x7gmd25pcmmhab5",785,"107.csv","","null","resources/images/coin2.png","null","",NA,NA,NA,NA,""
"image-keyboard-response",324,368662,"0.0-4.104-0.104","x7gmd25pcmmhab5",785,"107.csv","","234.89999997615814","resources/trios/L4T2A3.jpg","38","restless",0.7,0.8,0.6,0.883669940849066,"false"
"image-keyboard-response",325,369064,"0.0-4.104-1.104","x7gmd25pcmmhab5",785,"107.csv","","null","resources/maskTrios/BT2B.jpg","null","",NA,NA,NA,NA,""
"image-keyboard-response",326,370266,"0.0-4.104-2.104","x7gmd25pcmmhab5",785,"107.csv","","null","resources/images/fishbone.png","null","",NA,NA,NA,NA,""
"image-keyboard-response",327,384271,"0.0-4.105-0.105","x7gmd25pcmmhab5",785,"107.csv","","14003.40000000596","resources/trios/L4T2A3.jpg","38","restless",0.7,0.7,0.6,0.739007485617326,"false"
"image-keyboard-response",328,384673,"0.0-4.105-1.105","x7gmd25pcmmhab5",785,"107.csv","","null","resources/maskTrios/BT2B.jpg","null","",NA,NA,NA,NA,""
"image-keyboard-response",329,385876,"0.0-4.105-2.105","x7gmd25pcmmhab5",785,"107.csv","","null","resources/images/fishbone.png","null","",NA,NA,NA,NA,""
"image-keyboard-response",330,391230,"0.0-4.106-0.106","x7gmd25pcmmhab5",785,"107.csv","","5353.699999988079","resources/trios/L4T2A3.jpg","39","restless",0.7,0.7,0.6,0.665706025065102,"false"
"image-keyboard-response",331,391633,"0.0-4.106-1.106","x7gmd25pcmmhab5",785,"107.csv","","null","resources/maskTrios/BBA3.jpg","null","",NA,NA,NA,NA,""
"image-keyboard-response",332,392835,"0.0-4.106-2.106","x7gmd25pcmmhab5",785,"107.csv","","null","resources/images/fishbone.png","null","",NA,NA,NA,NA,""
"image-keyboard-response",333,393150,"0.0-4.107-0.107","x7gmd25pcmmhab5",785,"107.csv","","314.09999999403954","resources/trios/L4T2A3.jpg","37","restless",0.7,0.7,0.6,0.80595535695353,"false"
"image-keyboard-response",334,393552,"0.0-4.107-1.107","x7gmd25pcmmhab5",785,"107.csv","","null","resources/maskTrios/L4BB.jpg","null","",NA,NA,NA,NA,""
"image-keyboard-response",335,394755,"0.0-4.107-2.107","x7gmd25pcmmhab5",785,"107.csv","","null","resources/images/fishbone.png","null","",NA,NA,NA,NA,""
"image-keyboard-response",336,394775,"0.0-4.108-0.108","x7gmd25pcmmhab5",785,"107.csv","","18.80000001192093","resources/trios/L4T2A3.jpg","37","restless",0.7,0.7,0.6,0.652270127698275,"true"
"image-keyboard-response",337,395176,"0.0-4.108-1.108","x7gmd25pcmmhab5",785,"107.csv","","null","resources/maskTrios/L4BB.jpg","null","",NA,NA,NA,NA,""
"image-keyboard-response",338,396378,"0.0-4.108-2.108","x7gmd25pcmmhab5",785,"107.csv","","null","resources/images/coin2.png","null","",NA,NA,NA,NA,""
"image-keyboard-response",339,397295,"0.0-4.109-0.109","x7gmd25pcmmhab5",785,"107.csv","","915.5999999940395","resources/trios/L4T2A3.jpg","37","restless",0.7,0.7,0.6,0.67264080048177,"true"
"image-keyboard-response",340,397697,"0.0-4.109-1.109","x7gmd25pcmmhab5",785,"107.csv","","null","resources/maskTrios/L4BB.jpg","null","",NA,NA,NA,NA,""
"image-keyboard-response",341,398900,"0.0-4.109-2.109","x7gmd25pcmmhab5",785,"107.csv","","null","resources/images/coin2.png","null","",NA,NA,NA,NA,""
"image-keyboard-response",342,409655,"0.0-4.110-0.110","x7gmd25pcmmhab5",785,"107.csv","","10753.90000000596","resources/trios/L4T2A3.jpg","38","restless",0.7,0.7,0.6,0.815298998351993,"false"
"image-keyboard-response",343,410058,"0.0-4.110-1.110","x7gmd25pcmmhab5",785,"107.csv","","null","resources/maskTrios/BT2B.jpg","null","",NA,NA,NA,NA,""
"image-keyboard-response",344,411260,"0.0-4.110-2.110","x7gmd25pcmmhab5",785,"107.csv","","null","resources/images/fishbone.png","null","",NA,NA,NA,NA,""
"image-keyboard-response",345,412807,"0.0-4.111-0.111","x7gmd25pcmmhab5",785,"107.csv","","1546.0999999940395","resources/trios/L4T2A3.jpg","39","restless",0.7,0.7,0.6,0.586362813274777,"true"
"image-keyboard-response",346,413210,"0.0-4.111-1.111","x7gmd25pcmmhab5",785,"107.csv","","null","resources/maskTrios/BBA3.jpg","null","",NA,NA,NA,NA,""
"image-keyboard-response",347,414411,"0.0-4.111-2.111","x7gmd25pcmmhab5",785,"107.csv","","null","resources/images/coin2.png","null","",NA,NA,NA,NA,""
"image-keyboard-response",348,415191,"0.0-4.112-0.112","x7gmd25pcmmhab5",785,"107.csv","","778.6999999880791","resources/trios/L4T2A3.jpg","37","restless",0.7,0.7,0.6,0.19155642197742,"true"
"image-keyboard-response",349,415593,"0.0-4.112-1.112","x7gmd25pcmmhab5",785,"107.csv","","null","resources/maskTrios/L4BB.jpg","null","",NA,NA,NA,NA,""
"image-keyboard-response",350,416795,"0.0-4.112-2.112","x7gmd25pcmmhab5",785,"107.csv","","null","resources/images/coin2.png","null","",NA,NA,NA,NA,""
"image-keyboard-response",351,417071,"0.0-4.113-0.113","x7gmd25pcmmhab5",785,"107.csv","","274.69999998807907","resources/trios/L4T2A3.jpg","38","restless",0.7,0.7,0.6,0.307831323656375,"true"
"image-keyboard-response",352,417473,"0.0-4.113-1.113","x7gmd25pcmmhab5",785,"107.csv","","null","resources/maskTrios/BT2B.jpg","null","",NA,NA,NA,NA,""
"image-keyboard-response",353,418675,"0.0-4.113-2.113","x7gmd25pcmmhab5",785,"107.csv","","null","resources/images/coin2.png","null","",NA,NA,NA,NA,""
"image-keyboard-response",354,418871,"0.0-4.114-0.114","x7gmd25pcmmhab5",785,"107.csv","","195.09999999403954","resources/trios/L4T2A3.jpg","37","restless",0.7,0.7,0.6,0.0848101504795955,"true"
"image-keyboard-response",355,419273,"0.0-4.114-1.114","x7gmd25pcmmhab5",785,"107.csv","","null","resources/maskTrios/L4BB.jpg","null","",NA,NA,NA,NA,""
"image-keyboard-response",356,420475,"0.0-4.114-2.114","x7gmd25pcmmhab5",785,"107.csv","","null","resources/images/coin2.png","null","",NA,NA,NA,NA,""
"image-keyboard-response",357,420495,"0.0-4.115-0.115","x7gmd25pcmmhab5",785,"107.csv","","19.69999998807907","resources/trios/L4T2A3.jpg","39","restless",0.7,0.7,0.6,0.0890121123870686,"true"
"image-keyboard-response",358,420897,"0.0-4.115-1.115","x7gmd25pcmmhab5",785,"107.csv","","null","resources/maskTrios/BBA3.jpg","null","",NA,NA,NA,NA,""
"image-keyboard-response",359,422100,"0.0-4.115-2.115","x7gmd25pcmmhab5",785,"107.csv","","null","resources/images/coin2.png","null","",NA,NA,NA,NA,""
"image-keyboard-response",360,422543,"0.0-4.116-0.116","x7gmd25pcmmhab5",785,"107.csv","","442.09999999403954","resources/trios/L4T2A3.jpg","39","restless",0.7,0.7,0.7,0.579624814762508,"true"
"image-keyboard-response",361,422945,"0.0-4.116-1.116","x7gmd25pcmmhab5",785,"107.csv","","null","resources/maskTrios/BBA3.jpg","null","",NA,NA,NA,NA,""
"image-keyboard-response",362,424147,"0.0-4.116-2.116","x7gmd25pcmmhab5",785,"107.csv","","null","resources/images/coin2.png","null","",NA,NA,NA,NA,""
"image-keyboard-response",363,424840,"0.0-4.117-0.117","x7gmd25pcmmhab5",785,"107.csv","","691.9000000059605","resources/trios/L4T2A3.jpg","38","restless",0.6,0.6,0.7,0.839233936593743,"false"
"image-keyboard-response",364,425242,"0.0-4.117-1.117","x7gmd25pcmmhab5",785,"107.csv","","null","resources/maskTrios/BT2B.jpg","null","",NA,NA,NA,NA,""
"image-keyboard-response",365,426445,"0.0-4.117-2.117","x7gmd25pcmmhab5",785,"107.csv","","null","resources/images/fishbone.png","null","",NA,NA,NA,NA,""
"image-keyboard-response",366,426799,"0.0-4.118-0.118","x7gmd25pcmmhab5",785,"107.csv","","353.89999997615814","resources/trios/L4T2A3.jpg","39","restless",0.6,0.6,0.7,0.672778267951367,"true"
"image-keyboard-response",367,427202,"0.0-4.118-1.118","x7gmd25pcmmhab5",785,"107.csv","","null","resources/maskTrios/BBA3.jpg","null","",NA,NA,NA,NA,""
"image-keyboard-response",368,428404,"0.0-4.118-2.118","x7gmd25pcmmhab5",785,"107.csv","","null","resources/images/coin2.png","null","",NA,NA,NA,NA,""
"image-keyboard-response",369,428903,"0.0-4.119-0.119","x7gmd25pcmmhab5",785,"107.csv","","498","resources/trios/L4T2A3.jpg","37","restless",0.6,0.6,0.7,0.261092120176289,"true"
"image-keyboard-response",370,429305,"0.0-4.119-1.119","x7gmd25pcmmhab5",785,"107.csv","","null","resources/maskTrios/L4BB.jpg","null","",NA,NA,NA,NA,""
"image-keyboard-response",371,430508,"0.0-4.119-2.119","x7gmd25pcmmhab5",785,"107.csv","","null","resources/images/coin2.png","null","",NA,NA,NA,NA,""
"image-keyboard-response",372,431040,"0.0-4.120-0.120","x7gmd25pcmmhab5",785,"107.csv","","531.1000000238419","resources/trios/L4T2A3.jpg","38","restless",0.6,0.6,0.7,0.432524638056888,"true"
"image-keyboard-response",373,431442,"0.0-4.120-1.120","x7gmd25pcmmhab5",785,"107.csv","","null","resources/maskTrios/BT2B.jpg","null","",NA,NA,NA,NA,""
"image-keyboard-response",374,432644,"0.0-4.120-2.120","x7gmd25pcmmhab5",785,"107.csv","","null","resources/images/coin2.png","null","",NA,NA,NA,NA,""
"image-keyboard-response",375,432919,"0.0-4.121-0.121","x7gmd25pcmmhab5",785,"107.csv","","274.40000000596046","resources/trios/L4T2A3.jpg","37","restless",0.6,0.6,0.7,0.690616808140035,"false"
"image-keyboard-response",376,433322,"0.0-4.121-1.121","x7gmd25pcmmhab5",785,"107.csv","","null","resources/maskTrios/L4BB.jpg","null","",NA,NA,NA,NA,""
"image-keyboard-response",377,434525,"0.0-4.121-2.121","x7gmd25pcmmhab5",785,"107.csv","","null","resources/images/fishbone.png","null","",NA,NA,NA,NA,""
"image-keyboard-response",378,435096,"0.0-4.122-0.122","x7gmd25pcmmhab5",785,"107.csv","","570.3000000119209","resources/trios/L4T2A3.jpg","38","restless",0.6,0.6,0.7,0.370285740420969,"true"
"image-keyboard-response",379,435498,"0.0-4.122-1.122","x7gmd25pcmmhab5",785,"107.csv","","null","resources/maskTrios/BT2B.jpg","null","",NA,NA,NA,NA,""
"image-keyboard-response",380,436701,"0.0-4.122-2.122","x7gmd25pcmmhab5",785,"107.csv","","null","resources/images/coin2.png","null","",NA,NA,NA,NA,""
"image-keyboard-response",381,437063,"0.0-4.123-0.123","x7gmd25pcmmhab5",785,"107.csv","","362","resources/trios/L4T2A3.jpg","39","restless",0.7,0.6,0.7,0.00396901444594011,"true"
"image-keyboard-response",382,437465,"0.0-4.123-1.123","x7gmd25pcmmhab5",785,"107.csv","","null","resources/maskTrios/BBA3.jpg","null","",NA,NA,NA,NA,""
"image-keyboard-response",383,438668,"0.0-4.123-2.123","x7gmd25pcmmhab5",785,"107.csv","","null","resources/images/coin2.png","null","",NA,NA,NA,NA,""
"image-keyboard-response",384,439583,"0.0-4.124-0.124","x7gmd25pcmmhab5",785,"107.csv","","915","resources/trios/L4T2A3.jpg","37","restless",0.7,0.5,0.7,0.865303372011931,"false"
"image-keyboard-response",385,439986,"0.0-4.124-1.124","x7gmd25pcmmhab5",785,"107.csv","","null","resources/maskTrios/L4BB.jpg","null","",NA,NA,NA,NA,""
"image-keyboard-response",386,441188,"0.0-4.124-2.124","x7gmd25pcmmhab5",785,"107.csv","","null","resources/images/fishbone.png","null","",NA,NA,NA,NA,""
"image-keyboard-response",387,442967,"0.0-4.125-0.125","x7gmd25pcmmhab5",785,"107.csv","","1778.3999999761581","resources/trios/L4T2A3.jpg","38","restless",0.7,0.5,0.7,0.155343990105573,"true"
"image-keyboard-response",388,443370,"0.0-4.125-1.125","x7gmd25pcmmhab5",785,"107.csv","","null","resources/maskTrios/BT2B.jpg","null","",NA,NA,NA,NA,""
"image-keyboard-response",389,444572,"0.0-4.125-2.125","x7gmd25pcmmhab5",785,"107.csv","","null","resources/images/coin2.png","null","",NA,NA,NA,NA,""
"image-keyboard-response",390,446416,"0.0-4.126-0.126","x7gmd25pcmmhab5",785,"107.csv","","1842.699999988079","resources/trios/L4T2A3.jpg","39","restless",0.7,0.5,0.7,0.514068127352514,"true"
"image-keyboard-response",391,446818,"0.0-4.126-1.126","x7gmd25pcmmhab5",785,"107.csv","","null","resources/maskTrios/BBA3.jpg","null","",NA,NA,NA,NA,""
"image-keyboard-response",392,448021,"0.0-4.126-2.126","x7gmd25pcmmhab5",785,"107.csv","","null","resources/images/coin2.png","null","",NA,NA,NA,NA,""
"image-keyboard-response",393,448728,"0.0-4.127-0.127","x7gmd25pcmmhab5",785,"107.csv","","706.5","resources/trios/L4T2A3.jpg","37","restless",0.6,0.5,0.7,0.617551033287013,"false"
"image-keyboard-response",394,449131,"0.0-4.127-1.127","x7gmd25pcmmhab5",785,"107.csv","","null","resources/maskTrios/L4BB.jpg","null","",NA,NA,NA,NA,""
"image-keyboard-response",395,450332,"0.0-4.127-2.127","x7gmd25pcmmhab5",785,"107.csv","","null","resources/images/fishbone.png","null","",NA,NA,NA,NA,""
"image-keyboard-response",396,450360,"0.0-4.128-0.128","x7gmd25pcmmhab5",785,"107.csv","","27","resources/trios/L4T2A3.jpg","38","restless",0.6,0.5,0.7,0.286905072205397,"true"
"image-keyboard-response",397,450761,"0.0-4.128-1.128","x7gmd25pcmmhab5",785,"107.csv","","null","resources/maskTrios/BT2B.jpg","null","",NA,NA,NA,NA,""
"image-keyboard-response",398,451964,"0.0-4.128-2.128","x7gmd25pcmmhab5",785,"107.csv","","null","resources/images/coin2.png","null","",NA,NA,NA,NA,""
"image-keyboard-response",399,459745,"0.0-4.129-0.129","x7gmd25pcmmhab5",785,"107.csv","","7779.799999982119","resources/trios/L4T2A3.jpg","38","restless",0.6,0.5,0.7,0.593834369130819,"false"
"image-keyboard-response",400,460147,"0.0-4.129-1.129","x7gmd25pcmmhab5",785,"107.csv","","null","resources/maskTrios/BT2B.jpg","null","",NA,NA,NA,NA,""
"image-keyboard-response",401,461350,"0.0-4.129-2.129","x7gmd25pcmmhab5",785,"107.csv","","null","resources/images/fishbone.png","null","",NA,NA,NA,NA,""
"image-keyboard-response",402,461744,"0.0-4.130-0.130","x7gmd25pcmmhab5",785,"107.csv","","393.59999999403954","resources/trios/L4T2A3.jpg","37","restless",0.6,0.5,0.7,0.901251483716942,"false"
"image-keyboard-response",403,462146,"0.0-4.130-1.130","x7gmd25pcmmhab5",785,"107.csv","","null","resources/maskTrios/L4BB.jpg","null","",NA,NA,NA,NA,""
"image-keyboard-response",404,463349,"0.0-4.130-2.130","x7gmd25pcmmhab5",785,"107.csv","","null","resources/images/fishbone.png","null","",NA,NA,NA,NA,""
"image-keyboard-response",405,463576,"0.0-4.131-0.131","x7gmd25pcmmhab5",785,"107.csv","","226.59999999403954","resources/trios/L4T2A3.jpg","37","restless",0.5,0.5,0.8,0.311504826804418,"true"
"image-keyboard-response",406,463979,"0.0-4.131-1.131","x7gmd25pcmmhab5",785,"107.csv","","null","resources/maskTrios/L4BB.jpg","null","",NA,NA,NA,NA,""
"image-keyboard-response",407,465181,"0.0-4.131-2.131","x7gmd25pcmmhab5",785,"107.csv","","null","resources/images/coin2.png","null","",NA,NA,NA,NA,""
"image-keyboard-response",408,465624,"0.0-4.132-0.132","x7gmd25pcmmhab5",785,"107.csv","","442.5","resources/trios/L4T2A3.jpg","39","restless",0.5,0.5,0.8,0.385563455662938,"true"
"image-keyboard-response",409,466027,"0.0-4.132-1.132","x7gmd25pcmmhab5",785,"107.csv","","null","resources/maskTrios/BBA3.jpg","null","",NA,NA,NA,NA,""
"image-keyboard-response",410,467230,"0.0-4.132-2.132","x7gmd25pcmmhab5",785,"107.csv","","null","resources/images/coin2.png","null","",NA,NA,NA,NA,""
"image-keyboard-response",411,467705,"0.0-4.133-0.133","x7gmd25pcmmhab5",785,"107.csv","","474.09999999403954","resources/trios/L4T2A3.jpg","38","restless",0.5,0.5,0.8,0.758997538339499,"false"
"image-keyboard-response",412,468107,"0.0-4.133-1.133","x7gmd25pcmmhab5",785,"107.csv","","null","resources/maskTrios/BT2B.jpg","null","",NA,NA,NA,NA,""
"image-keyboard-response",413,469309,"0.0-4.133-2.133","x7gmd25pcmmhab5",785,"107.csv","","null","resources/images/fishbone.png","null","",NA,NA,NA,NA,""
"image-keyboard-response",414,469664,"0.0-4.134-0.134","x7gmd25pcmmhab5",785,"107.csv","","353.80000001192093","resources/trios/L4T2A3.jpg","38","restless",0.5,0.5,0.8,0.342105349861288,"true"
"image-keyboard-response",415,470066,"0.0-4.134-1.134","x7gmd25pcmmhab5",785,"107.csv","","null","resources/maskTrios/BT2B.jpg","null","",NA,NA,NA,NA,""
"image-keyboard-response",416,471269,"0.0-4.134-2.134","x7gmd25pcmmhab5",785,"107.csv","","null","resources/images/coin2.png","null","",NA,NA,NA,NA,""
"image-keyboard-response",417,471536,"0.0-4.135-0.135","x7gmd25pcmmhab5",785,"107.csv","","266.80000001192093","resources/trios/L4T2A3.jpg","37","restless",0.5,0.5,0.8,0.209242170823754,"true"
"image-keyboard-response",418,471939,"0.0-4.135-1.135","x7gmd25pcmmhab5",785,"107.csv","","null","resources/maskTrios/L4BB.jpg","null","",NA,NA,NA,NA,""
"image-keyboard-response",419,473141,"0.0-4.135-2.135","x7gmd25pcmmhab5",785,"107.csv","","null","resources/images/coin2.png","null","",NA,NA,NA,NA,""
"image-keyboard-response",420,473328,"0.0-4.136-0.136","x7gmd25pcmmhab5",785,"107.csv","","186.2999999821186","resources/trios/L4T2A3.jpg","39","restless",0.5,0.5,0.8,0.747162339542252,"true"
"image-keyboard-response",421,473731,"0.0-4.136-1.136","x7gmd25pcmmhab5",785,"107.csv","","null","resources/maskTrios/BBA3.jpg","null","",NA,NA,NA,NA,""
"image-keyboard-response",422,474933,"0.0-4.136-2.136","x7gmd25pcmmhab5",785,"107.csv","","null","resources/images/coin2.png","null","",NA,NA,NA,NA,""
"image-keyboard-response",423,475025,"0.0-4.137-0.137","x7gmd25pcmmhab5",785,"107.csv","","90.7999999821186","resources/trios/L4T2A3.jpg","37","restless",0.5,0.5,0.8,0.0254556937005412,"true"
"image-keyboard-response",424,475427,"0.0-4.137-1.137","x7gmd25pcmmhab5",785,"107.csv","","null","resources/maskTrios/L4BB.jpg","null","",NA,NA,NA,NA,""
"image-keyboard-response",425,476630,"0.0-4.137-2.137","x7gmd25pcmmhab5",785,"107.csv","","null","resources/images/coin2.png","null","",NA,NA,NA,NA,""
"image-keyboard-response",426,477065,"0.0-4.138-0.138","x7gmd25pcmmhab5",785,"107.csv","","433.89999997615814","resources/trios/L4T2A3.jpg","38","restless",0.5,0.5,0.8,0.747076293728155,"false"
"image-keyboard-response",427,477467,"0.0-4.138-1.138","x7gmd25pcmmhab5",785,"107.csv","","null","resources/maskTrios/BT2B.jpg","null","",NA,NA,NA,NA,""
"image-keyboard-response",428,478670,"0.0-4.138-2.138","x7gmd25pcmmhab5",785,"107.csv","","null","resources/images/fishbone.png","null","",NA,NA,NA,NA,""
"image-keyboard-response",429,479033,"0.0-4.139-0.139","x7gmd25pcmmhab5",785,"107.csv","","362.5","resources/trios/L4T2A3.jpg","37","restless",0.5,0.4,0.8,0.520533304681016,"false"
"image-keyboard-response",430,479435,"0.0-4.139-1.139","x7gmd25pcmmhab5",785,"107.csv","","null","resources/maskTrios/L4BB.jpg","null","",NA,NA,NA,NA,""
"image-keyboard-response",431,480637,"0.0-4.139-2.139","x7gmd25pcmmhab5",785,"107.csv","","null","resources/images/fishbone.png","null","",NA,NA,NA,NA,""
"image-keyboard-response",432,480911,"0.0-4.140-0.140","x7gmd25pcmmhab5",785,"107.csv","","273.09999999403954","resources/trios/L4T2A3.jpg","37","restless",0.5,0.4,0.8,0.931163205542278,"false"
"image-keyboard-response",433,481314,"0.0-4.140-1.140","x7gmd25pcmmhab5",785,"107.csv","","null","resources/maskTrios/L4BB.jpg","null","",NA,NA,NA,NA,""
"image-keyboard-response",434,482516,"0.0-4.140-2.140","x7gmd25pcmmhab5",785,"107.csv","","null","resources/images/fishbone.png","null","",NA,NA,NA,NA,""
"image-keyboard-response",435,482761,"0.0-4.141-0.141","x7gmd25pcmmhab5",785,"107.csv","","244","resources/trios/L4T2A3.jpg","37","restless",0.5,0.4,0.8,0.309026806611024,"true"
"image-keyboard-response",436,483163,"0.0-4.141-1.141","x7gmd25pcmmhab5",785,"107.csv","","null","resources/maskTrios/L4BB.jpg","null","",NA,NA,NA,NA,""
"image-keyboard-response",437,484365,"0.0-4.141-2.141","x7gmd25pcmmhab5",785,"107.csv","","null","resources/images/coin2.png","null","",NA,NA,NA,NA,""
"image-keyboard-response",438,484673,"0.0-4.142-0.142","x7gmd25pcmmhab5",785,"107.csv","","306.69999998807907","resources/trios/L4T2A3.jpg","39","restless",0.4,0.4,0.8,0.416337407798944,"true"
"image-keyboard-response",439,485076,"0.0-4.142-1.142","x7gmd25pcmmhab5",785,"107.csv","","null","resources/maskTrios/BBA3.jpg","null","",NA,NA,NA,NA,""
"image-keyboard-response",440,486279,"0.0-4.142-2.142","x7gmd25pcmmhab5",785,"107.csv","","null","resources/images/coin2.png","null","",NA,NA,NA,NA,""
"image-keyboard-response",441,486552,"0.0-4.143-0.143","x7gmd25pcmmhab5",785,"107.csv","","273","resources/trios/L4T2A3.jpg","39","restless",0.4,0.4,0.8,0.693571134325375,"true"
"image-keyboard-response",442,486954,"0.0-4.143-1.143","x7gmd25pcmmhab5",785,"107.csv","","null","resources/maskTrios/BBA3.jpg","null","",NA,NA,NA,NA,""
"image-keyboard-response",443,488156,"0.0-4.143-2.143","x7gmd25pcmmhab5",785,"107.csv","","null","resources/images/coin2.png","null","",NA,NA,NA,NA,""
"image-keyboard-response",444,488881,"0.0-4.144-0.144","x7gmd25pcmmhab5",785,"107.csv","","723.7000000178814","resources/trios/L4T2A3.jpg","37","restless",0.4,0.4,0.8,0.103336213602879,"true"
"image-keyboard-response",445,489283,"0.0-4.144-1.144","x7gmd25pcmmhab5",785,"107.csv","","null","resources/maskTrios/L4BB.jpg","null","",NA,NA,NA,NA,""
"image-keyboard-response",446,490486,"0.0-4.144-2.144","x7gmd25pcmmhab5",785,"107.csv","","null","resources/images/coin2.png","null","",NA,NA,NA,NA,""
"image-keyboard-response",447,490761,"0.0-4.145-0.145","x7gmd25pcmmhab5",785,"107.csv","","274","resources/trios/L4T2A3.jpg","38","restless",0.4,0.4,0.8,0.426565439320425,"false"
"image-keyboard-response",448,491162,"0.0-4.145-1.145","x7gmd25pcmmhab5",785,"107.csv","","null","resources/maskTrios/BT2B.jpg","null","",NA,NA,NA,NA,""
"image-keyboard-response",449,492364,"0.0-4.145-2.145","x7gmd25pcmmhab5",785,"107.csv","","null","resources/images/fishbone.png","null","",NA,NA,NA,NA,""
"image-keyboard-response",450,492601,"0.0-4.146-0.146","x7gmd25pcmmhab5",785,"107.csv","","236","resources/trios/L4T2A3.jpg","39","restless",0.4,0.4,0.8,0.15338474633916,"true"
"image-keyboard-response",451,493004,"0.0-4.146-1.146","x7gmd25pcmmhab5",785,"107.csv","","null","resources/maskTrios/BBA3.jpg","null","",NA,NA,NA,NA,""
"image-keyboard-response",452,494206,"0.0-4.146-2.146","x7gmd25pcmmhab5",785,"107.csv","","null","resources/images/coin2.png","null","",NA,NA,NA,NA,""
"image-keyboard-response",453,494489,"0.0-4.147-0.147","x7gmd25pcmmhab5",785,"107.csv","","282.19999998807907","resources/trios/L4T2A3.jpg","37","restless",0.4,0.4,0.8,0.775031530764662,"false"
"image-keyboard-response",454,494891,"0.0-4.147-1.147","x7gmd25pcmmhab5",785,"107.csv","","null","resources/maskTrios/L4BB.jpg","null","",NA,NA,NA,NA,""
"image-keyboard-response",455,496093,"0.0-4.147-2.147","x7gmd25pcmmhab5",785,"107.csv","","null","resources/images/fishbone.png","null","",NA,NA,NA,NA,""
"image-keyboard-response",456,496161,"0.0-4.148-0.148","x7gmd25pcmmhab5",785,"107.csv","","66.7999999821186","resources/trios/L4T2A3.jpg","37","restless",0.4,0.4,0.8,0.781299228790184,"false"
"image-keyboard-response",457,496563,"0.0-4.148-1.148","x7gmd25pcmmhab5",785,"107.csv","","null","resources/maskTrios/L4BB.jpg","null","",NA,NA,NA,NA,""
"image-keyboard-response",458,497765,"0.0-4.148-2.148","x7gmd25pcmmhab5",785,"107.csv","","null","resources/images/fishbone.png","null","",NA,NA,NA,NA,""
"image-keyboard-response",459,498001,"0.0-4.149-0.149","x7gmd25pcmmhab5",785,"107.csv","","235.59999999403954","resources/trios/L4T2A3.jpg","37","restless",0.4,0.4,0.8,0.24593530257077,"true"
"image-keyboard-response",460,498404,"0.0-4.149-1.149","x7gmd25pcmmhab5",785,"107.csv","","null","resources/maskTrios/L4BB.jpg","null","",NA,NA,NA,NA,""
"image-keyboard-response",461,499605,"0.0-4.149-2.149","x7gmd25pcmmhab5",785,"107.csv","","null","resources/images/coin2.png","null","",NA,NA,NA,NA,""
"image-keyboard-response",462,500450,"0.0-4.150-0.150","x7gmd25pcmmhab5",785,"107.csv","","843.2000000178814","resources/trios/L4T2A3.jpg","38","restless",0.4,0.4,0.8,0.0753583540883571,"true"
"image-keyboard-response",463,500851,"0.0-4.150-1.150","x7gmd25pcmmhab5",785,"107.csv","","null","resources/maskTrios/BT2B.jpg","null","",NA,NA,NA,NA,""
"image-keyboard-response",464,502053,"0.0-4.150-2.150","x7gmd25pcmmhab5",785,"107.csv","","null","resources/images/coin2.png","null","",NA,NA,NA,NA,""
"image-keyboard-response",465,502353,"0.0-4.151-0.151","x7gmd25pcmmhab5",785,"107.csv","","299.40000000596046","resources/trios/L4T2A3.jpg","38","restless",0.4,0.4,0.8,0.155920751559377,"true"
"image-keyboard-response",466,502756,"0.0-4.151-1.151","x7gmd25pcmmhab5",785,"107.csv","","null","resources/maskTrios/BT2B.jpg","null","",NA,NA,NA,NA,""
"image-keyboard-response",467,503958,"0.0-4.151-2.151","x7gmd25pcmmhab5",785,"107.csv","","null","resources/images/coin2.png","null","",NA,NA,NA,NA,""
"image-keyboard-response",468,504297,"0.0-4.152-0.152","x7gmd25pcmmhab5",785,"107.csv","","338.7999999821186","resources/trios/L4T2A3.jpg","37","restless",0.3,0.4,0.8,0.601368601831048,"false"
"image-keyboard-response",469,504700,"0.0-4.152-1.152","x7gmd25pcmmhab5",785,"107.csv","","null","resources/maskTrios/L4BB.jpg","null","",NA,NA,NA,NA,""
"image-keyboard-response",470,505902,"0.0-4.152-2.152","x7gmd25pcmmhab5",785,"107.csv","","null","resources/images/fishbone.png","null","",NA,NA,NA,NA,""
"image-keyboard-response",471,506362,"0.0-4.153-0.153","x7gmd25pcmmhab5",785,"107.csv","","458.39999997615814","resources/trios/L4T2A3.jpg","37","restless",0.3,0.4,0.7,0.186063996616866,"true"
"image-keyboard-response",472,506764,"0.0-4.153-1.153","x7gmd25pcmmhab5",785,"107.csv","","null","resources/maskTrios/L4BB.jpg","null","",NA,NA,NA,NA,""
"image-keyboard-response",473,507966,"0.0-4.153-2.153","x7gmd25pcmmhab5",785,"107.csv","","null","resources/images/coin2.png","null","",NA,NA,NA,NA,""
"image-keyboard-response",474,508457,"0.0-4.154-0.154","x7gmd25pcmmhab5",785,"107.csv","","490.80000001192093","resources/trios/L4T2A3.jpg","39","restless",0.3,0.4,0.7,0.155308323221097,"true"
"image-keyboard-response",475,508859,"0.0-4.154-1.154","x7gmd25pcmmhab5",785,"107.csv","","null","resources/maskTrios/BBA3.jpg","null","",NA,NA,NA,NA,""
"image-keyboard-response",476,510062,"0.0-4.154-2.154","x7gmd25pcmmhab5",785,"107.csv","","null","resources/images/coin2.png","null","",NA,NA,NA,NA,""
"image-keyboard-response",477,510401,"0.0-4.155-0.155","x7gmd25pcmmhab5",785,"107.csv","","338.2999999821186","resources/trios/L4T2A3.jpg","38","restless",0.3,0.4,0.7,0.314653121651261,"true"
"image-keyboard-response",478,510803,"0.0-4.155-1.155","x7gmd25pcmmhab5",785,"107.csv","","null","resources/maskTrios/BT2B.jpg","null","",NA,NA,NA,NA,""
"image-keyboard-response",479,512006,"0.0-4.155-2.155","x7gmd25pcmmhab5",785,"107.csv","","null","resources/images/coin2.png","null","",NA,NA,NA,NA,""
"image-keyboard-response",480,512201,"0.0-4.156-0.156","x7gmd25pcmmhab5",785,"107.csv","","194.69999998807907","resources/trios/L4T2A3.jpg","38","restless",0.3,0.4,0.7,0.0620932281412447,"true"
"image-keyboard-response",481,512604,"0.0-4.156-1.156","x7gmd25pcmmhab5",785,"107.csv","","null","resources/maskTrios/BT2B.jpg","null","",NA,NA,NA,NA,""
"image-keyboard-response",482,513806,"0.0-4.156-2.156","x7gmd25pcmmhab5",785,"107.csv","","null","resources/images/coin2.png","null","",NA,NA,NA,NA,""
"image-keyboard-response",483,514194,"0.0-4.157-0.157","x7gmd25pcmmhab5",785,"107.csv","","386.40000000596046","resources/trios/L4T2A3.jpg","38","restless",0.3,0.4,0.6,0.65439807428052,"false"
"image-keyboard-response",484,514595,"0.0-4.157-1.157","x7gmd25pcmmhab5",785,"107.csv","","null","resources/maskTrios/BT2B.jpg","null","",NA,NA,NA,NA,""
"image-keyboard-response",485,515798,"0.0-4.157-2.157","x7gmd25pcmmhab5",785,"107.csv","","null","resources/images/fishbone.png","null","",NA,NA,NA,NA,""
"image-keyboard-response",486,515962,"0.0-4.158-0.158","x7gmd25pcmmhab5",785,"107.csv","","162.90000000596046","resources/trios/L4T2A3.jpg","39","restless",0.3,0.4,0.6,0.437527571110833,"true"
"image-keyboard-response",487,516364,"0.0-4.158-1.158","x7gmd25pcmmhab5",785,"107.csv","","null","resources/maskTrios/BBA3.jpg","null","",NA,NA,NA,NA,""
"image-keyboard-response",488,517566,"0.0-4.158-2.158","x7gmd25pcmmhab5",785,"107.csv","","null","resources/images/coin2.png","null","",NA,NA,NA,NA,""
"image-keyboard-response",489,517674,"0.0-4.159-0.159","x7gmd25pcmmhab5",785,"107.csv","","107.19999998807907","resources/trios/L4T2A3.jpg","37","restless",0.3,0.4,0.7,0.623425783434432,"false"
"image-keyboard-response",490,518075,"0.0-4.159-1.159","x7gmd25pcmmhab5",785,"107.csv","","null","resources/maskTrios/L4BB.jpg","null","",NA,NA,NA,NA,""
"image-keyboard-response",491,519277,"0.0-4.159-2.159","x7gmd25pcmmhab5",785,"107.csv","","null","resources/images/fishbone.png","null","",NA,NA,NA,NA,""
"image-keyboard-response",492,519434,"0.0-4.160-0.160","x7gmd25pcmmhab5",785,"107.csv","","155.59999999403954","resources/trios/L4T2A3.jpg","38","restless",0.3,0.4,0.6,0.034566234606163,"true"
"image-keyboard-response",493,519836,"0.0-4.160-1.160","x7gmd25pcmmhab5",785,"107.csv","","null","resources/maskTrios/BT2B.jpg","null","",NA,NA,NA,NA,""
"image-keyboard-response",494,521039,"0.0-4.160-2.160","x7gmd25pcmmhab5",785,"107.csv","","null","resources/images/coin2.png","null","",NA,NA,NA,NA,""
"image-keyboard-response",495,521274,"0.0-4.161-0.161","x7gmd25pcmmhab5",785,"107.csv","","234","resources/trios/L4T2A3.jpg","39","restless",0.3,0.4,0.6,0.579594971894582,"true"
"image-keyboard-response",496,521677,"0.0-4.161-1.161","x7gmd25pcmmhab5",785,"107.csv","","null","resources/maskTrios/BBA3.jpg","null","",NA,NA,NA,NA,""
"image-keyboard-response",497,522879,"0.0-4.161-2.161","x7gmd25pcmmhab5",785,"107.csv","","null","resources/images/coin2.png","null","",NA,NA,NA,NA,""
"image-keyboard-response",498,523842,"0.0-4.162-0.162","x7gmd25pcmmhab5",785,"107.csv","","961.5999999940395","resources/trios/L4T2A3.jpg","38","restless",0.3,0.4,0.6,0.609044853091651,"false"
"image-keyboard-response",499,524244,"0.0-4.162-1.162","x7gmd25pcmmhab5",785,"107.csv","","null","resources/maskTrios/BT2B.jpg","null","",NA,NA,NA,NA,""
"image-keyboard-response",500,525446,"0.0-4.162-2.162","x7gmd25pcmmhab5",785,"107.csv","","null","resources/images/fishbone.png","null","",NA,NA,NA,NA,""
"image-keyboard-response",501,525554,"0.0-4.163-0.163","x7gmd25pcmmhab5",785,"107.csv","","106.69999998807907","resources/trios/L4T2A3.jpg","37","restless",0.3,0.4,0.6,0.0288804892557457,"true"
"image-keyboard-response",502,525957,"0.0-4.163-1.163","x7gmd25pcmmhab5",785,"107.csv","","null","resources/maskTrios/L4BB.jpg","null","",NA,NA,NA,NA,""
"image-keyboard-response",503,527159,"0.0-4.163-2.163","x7gmd25pcmmhab5",785,"107.csv","","null","resources/images/coin2.png","null","",NA,NA,NA,NA,""
"image-keyboard-response",504,530354,"0.0-4.164-0.164","x7gmd25pcmmhab5",785,"107.csv","","3194.5999999940395","resources/trios/L4T2A3.jpg","39","restless",0.3,0.4,0.5,0.396470046018971,"true"
"image-keyboard-response",505,530757,"0.0-4.164-1.164","x7gmd25pcmmhab5",785,"107.csv","","null","resources/maskTrios/BBA3.jpg","null","",NA,NA,NA,NA,""
"image-keyboard-response",506,531958,"0.0-4.164-2.164","x7gmd25pcmmhab5",785,"107.csv","","null","resources/images/coin2.png","null","",NA,NA,NA,NA,""
"image-keyboard-response",507,532538,"0.0-4.165-0.165","x7gmd25pcmmhab5",785,"107.csv","","579.1000000238419","resources/trios/L4T2A3.jpg","37","restless",0.3,0.4,0.5,0.710662941625645,"false"
"image-keyboard-response",508,532941,"0.0-4.165-1.165","x7gmd25pcmmhab5",785,"107.csv","","null","resources/maskTrios/L4BB.jpg","null","",NA,NA,NA,NA,""
"image-keyboard-response",509,534144,"0.0-4.165-2.165","x7gmd25pcmmhab5",785,"107.csv","","null","resources/images/fishbone.png","null","",NA,NA,NA,NA,""
"image-keyboard-response",510,534226,"0.0-4.166-0.166","x7gmd25pcmmhab5",785,"107.csv","","81.30000001192093","resources/trios/L4T2A3.jpg","37","restless",0.3,0.4,0.5,0.28697000615806,"true"
"image-keyboard-response",511,534629,"0.0-4.166-1.166","x7gmd25pcmmhab5",785,"107.csv","","null","resources/maskTrios/L4BB.jpg","null","",NA,NA,NA,NA,""
"image-keyboard-response",512,535830,"0.0-4.166-2.166","x7gmd25pcmmhab5",785,"107.csv","","null","resources/images/coin2.png","null","",NA,NA,NA,NA,""
"image-keyboard-response",513,535914,"0.0-4.167-0.167","x7gmd25pcmmhab5",785,"107.csv","","82.80000001192093","resources/trios/L4T2A3.jpg","38","restless",0.3,0.4,0.5,0.268219155829901,"true"
"image-keyboard-response",514,536316,"0.0-4.167-1.167","x7gmd25pcmmhab5",785,"107.csv","","null","resources/maskTrios/BT2B.jpg","null","",NA,NA,NA,NA,""
"image-keyboard-response",515,537518,"0.0-4.167-2.167","x7gmd25pcmmhab5",785,"107.csv","","null","resources/images/coin2.png","null","",NA,NA,NA,NA,""
"image-keyboard-response",516,537634,"0.0-4.168-0.168","x7gmd25pcmmhab5",785,"107.csv","","114.59999999403954","resources/trios/L4T2A3.jpg","37","restless",0.3,0.4,0.5,0.642896972579301,"false"
"image-keyboard-response",517,538036,"0.0-4.168-1.168","x7gmd25pcmmhab5",785,"107.csv","","null","resources/maskTrios/L4BB.jpg","null","",NA,NA,NA,NA,""
"image-keyboard-response",518,539238,"0.0-4.168-2.168","x7gmd25pcmmhab5",785,"107.csv","","null","resources/images/fishbone.png","null","",NA,NA,NA,NA,""
"image-keyboard-response",519,539794,"0.0-4.169-0.169","x7gmd25pcmmhab5",785,"107.csv","","555.1999999880791","resources/trios/L4T2A3.jpg","37","restless",0.4,0.4,0.5,0.233034795908585,"true"
"image-keyboard-response",520,540197,"0.0-4.169-1.169","x7gmd25pcmmhab5",785,"107.csv","","null","resources/maskTrios/L4BB.jpg","null","",NA,NA,NA,NA,""
"image-keyboard-response",521,541398,"0.0-4.169-2.169","x7gmd25pcmmhab5",785,"107.csv","","null","resources/images/coin2.png","null","",NA,NA,NA,NA,""
"image-keyboard-response",522,541410,"0.0-4.170-0.170","x7gmd25pcmmhab5",785,"107.csv","","11.200000017881393","resources/trios/L4T2A3.jpg","39","restless",0.4,0.4,0.5,0.633511325442579,"false"
"image-keyboard-response",523,541813,"0.0-4.170-1.170","x7gmd25pcmmhab5",785,"107.csv","","null","resources/maskTrios/BBA3.jpg","null","",NA,NA,NA,NA,""
"image-keyboard-response",524,543016,"0.0-4.170-2.170","x7gmd25pcmmhab5",785,"107.csv","","null","resources/images/fishbone.png","null","",NA,NA,NA,NA,""
"image-keyboard-response",525,543275,"0.0-4.171-0.171","x7gmd25pcmmhab5",785,"107.csv","","257.80000001192093","resources/trios/L4T2A3.jpg","38","restless",0.4,0.5,0.5,0.906133442725665,"false"
"image-keyboard-response",526,543677,"0.0-4.171-1.171","x7gmd25pcmmhab5",785,"107.csv","","null","resources/maskTrios/BT2B.jpg","null","",NA,NA,NA,NA,""
"image-keyboard-response",527,544879,"0.0-4.171-2.171","x7gmd25pcmmhab5",785,"107.csv","","null","resources/images/fishbone.png","null","",NA,NA,NA,NA,""
"image-keyboard-response",528,544979,"0.0-4.172-0.172","x7gmd25pcmmhab5",785,"107.csv","","98.59999999403954","resources/trios/L4T2A3.jpg","38","restless",0.4,0.5,0.4,0.546427330605901,"false"
"image-keyboard-response",529,545380,"0.0-4.172-1.172","x7gmd25pcmmhab5",785,"107.csv","","null","resources/maskTrios/BT2B.jpg","null","",NA,NA,NA,NA,""
"image-keyboard-response",530,546582,"0.0-4.172-2.172","x7gmd25pcmmhab5",785,"107.csv","","null","resources/images/fishbone.png","null","",NA,NA,NA,NA,""
"image-keyboard-response",531,546827,"0.0-4.173-0.173","x7gmd25pcmmhab5",785,"107.csv","","243.5","resources/trios/L4T2A3.jpg","38","restless",0.4,0.5,0.4,0.654626451442755,"false"
"image-keyboard-response",532,547229,"0.0-4.173-1.173","x7gmd25pcmmhab5",785,"107.csv","","null","resources/maskTrios/BT2B.jpg","null","",NA,NA,NA,NA,""
"image-keyboard-response",533,548432,"0.0-4.173-2.173","x7gmd25pcmmhab5",785,"107.csv","","null","resources/images/fishbone.png","null","",NA,NA,NA,NA,""
"image-keyboard-response",534,548682,"0.0-4.174-0.174","x7gmd25pcmmhab5",785,"107.csv","","249.5","resources/trios/L4T2A3.jpg","38","restless",0.4,0.5,0.4,0.274384692258736,"true"
"image-keyboard-response",535,549085,"0.0-4.174-1.174","x7gmd25pcmmhab5",785,"107.csv","","null","resources/maskTrios/BT2B.jpg","null","",NA,NA,NA,NA,""
"image-keyboard-response",536,550286,"0.0-4.174-2.174","x7gmd25pcmmhab5",785,"107.csv","","null","resources/images/coin2.png","null","",NA,NA,NA,NA,""
"image-keyboard-response",537,550562,"0.0-4.175-0.175","x7gmd25pcmmhab5",785,"107.csv","","275.69999998807907","resources/trios/L4T2A3.jpg","38","restless",0.4,0.5,0.4,0.439941392789328,"true"
"image-keyboard-response",538,550965,"0.0-4.175-1.175","x7gmd25pcmmhab5",785,"107.csv","","null","resources/maskTrios/BT2B.jpg","null","",NA,NA,NA,NA,""
"image-keyboard-response",539,552167,"0.0-4.175-2.175","x7gmd25pcmmhab5",785,"107.csv","","null","resources/images/coin2.png","null","",NA,NA,NA,NA,""
"image-keyboard-response",540,552339,"0.0-4.176-0.176","x7gmd25pcmmhab5",785,"107.csv","","170.5","resources/trios/L4T2A3.jpg","37","restless",0.4,0.5,0.4,0.463246696418091,"false"
"image-keyboard-response",541,552741,"0.0-4.176-1.176","x7gmd25pcmmhab5",785,"107.csv","","null","resources/maskTrios/L4BB.jpg","null","",NA,NA,NA,NA,""
"image-keyboard-response",542,553943,"0.0-4.176-2.176","x7gmd25pcmmhab5",785,"107.csv","","null","resources/images/fishbone.png","null","",NA,NA,NA,NA,""
"image-keyboard-response",543,554171,"0.0-4.177-0.177","x7gmd25pcmmhab5",785,"107.csv","","226.40000000596046","resources/trios/L4T2A3.jpg","37","restless",0.4,0.6,0.4,0.448088402472572,"false"
"image-keyboard-response",544,554573,"0.0-4.177-1.177","x7gmd25pcmmhab5",785,"107.csv","","null","resources/maskTrios/L4BB.jpg","null","",NA,NA,NA,NA,""
"image-keyboard-response",545,555775,"0.0-4.177-2.177","x7gmd25pcmmhab5",785,"107.csv","","null","resources/images/fishbone.png","null","",NA,NA,NA,NA,""
"image-keyboard-response",546,555811,"0.0-4.178-0.178","x7gmd25pcmmhab5",785,"107.csv","","34.69999998807907","resources/trios/L4T2A3.jpg","38","restless",0.3,0.6,0.4,0.692331740198941,"false"
"image-keyboard-response",547,556213,"0.0-4.178-1.178","x7gmd25pcmmhab5",785,"107.csv","","null","resources/maskTrios/BT2B.jpg","null","",NA,NA,NA,NA,""
"image-keyboard-response",548,557415,"0.0-4.178-2.178","x7gmd25pcmmhab5",785,"107.csv","","null","resources/images/fishbone.png","null","",NA,NA,NA,NA,""
"image-keyboard-response",549,557947,"0.0-4.179-0.179","x7gmd25pcmmhab5",785,"107.csv","","530.2000000178814","resources/trios/L4T2A3.jpg","37","restless",0.3,0.6,0.4,0.0142591411112694,"true"
"image-keyboard-response",550,558349,"0.0-4.179-1.179","x7gmd25pcmmhab5",785,"107.csv","","null","resources/maskTrios/L4BB.jpg","null","",NA,NA,NA,NA,""
"image-keyboard-response",551,559551,"0.0-4.179-2.179","x7gmd25pcmmhab5",785,"107.csv","","null","resources/images/coin2.png","null","",NA,NA,NA,NA,""
"image-keyboard-response",552,559611,"0.0-4.180-0.180","x7gmd25pcmmhab5",785,"107.csv","","58.5","resources/trios/L4T2A3.jpg","39","restless",0.3,0.6,0.4,0.0942103820062716,"true"
"image-keyboard-response",553,560013,"0.0-4.180-1.180","x7gmd25pcmmhab5",785,"107.csv","","null","resources/maskTrios/BBA3.jpg","null","",NA,NA,NA,NA,""
"image-keyboard-response",554,561215,"0.0-4.180-2.180","x7gmd25pcmmhab5",785,"107.csv","","null","resources/images/coin2.png","null","",NA,NA,NA,NA,""
"image-keyboard-response",555,561283,"0.0-4.181-0.181","x7gmd25pcmmhab5",785,"107.csv","","66.5","resources/trios/L4T2A3.jpg","37","restless",0.3,0.6,0.4,0.399098137696123,"false"
"image-keyboard-response",556,561686,"0.0-4.181-1.181","x7gmd25pcmmhab5",785,"107.csv","","null","resources/maskTrios/L4BB.jpg","null","",NA,NA,NA,NA,""
"image-keyboard-response",557,562888,"0.0-4.181-2.181","x7gmd25pcmmhab5",785,"107.csv","","null","resources/images/fishbone.png","null","",NA,NA,NA,NA,""
"image-keyboard-response",558,563235,"0.0-4.182-0.182","x7gmd25pcmmhab5",785,"107.csv","","345.90000000596046","resources/trios/L4T2A3.jpg","37","restless",0.3,0.6,0.4,0.00112255590165811,"true"
"image-keyboard-response",559,563637,"0.0-4.182-1.182","x7gmd25pcmmhab5",785,"107.csv","","null","resources/maskTrios/L4BB.jpg","null","",NA,NA,NA,NA,""
"image-keyboard-response",560,564839,"0.0-4.182-2.182","x7gmd25pcmmhab5",785,"107.csv","","null","resources/images/coin2.png","null","",NA,NA,NA,NA,""
"image-keyboard-response",561,564947,"0.0-4.183-0.183","x7gmd25pcmmhab5",785,"107.csv","","106.80000001192093","resources/trios/L4T2A3.jpg","38","restless",0.3,0.5,0.5,0.678756589801236,"false"
"image-keyboard-response",562,565349,"0.0-4.183-1.183","x7gmd25pcmmhab5",785,"107.csv","","null","resources/maskTrios/BT2B.jpg","null","",NA,NA,NA,NA,""
"image-keyboard-response",563,566550,"0.0-4.183-2.183","x7gmd25pcmmhab5",785,"107.csv","","null","resources/images/fishbone.png","null","",NA,NA,NA,NA,""
"image-keyboard-response",564,566643,"0.0-4.184-0.184","x7gmd25pcmmhab5",785,"107.csv","","92","resources/trios/L4T2A3.jpg","39","restless",0.3,0.5,0.5,0.496767477110629,"true"
"image-keyboard-response",565,567045,"0.0-4.184-1.184","x7gmd25pcmmhab5",785,"107.csv","","null","resources/maskTrios/BBA3.jpg","null","",NA,NA,NA,NA,""
"image-keyboard-response",566,568248,"0.0-4.184-2.184","x7gmd25pcmmhab5",785,"107.csv","","null","resources/images/coin2.png","null","",NA,NA,NA,NA,""
"image-keyboard-response",567,568491,"0.0-4.185-0.185","x7gmd25pcmmhab5",785,"107.csv","","241.90000000596046","resources/trios/L4T2A3.jpg","37","restless",0.3,0.5,0.5,0.741426486905669,"false"
"image-keyboard-response",568,568893,"0.0-4.185-1.185","x7gmd25pcmmhab5",785,"107.csv","","null","resources/maskTrios/L4BB.jpg","null","",NA,NA,NA,NA,""
"image-keyboard-response",569,570095,"0.0-4.185-2.185","x7gmd25pcmmhab5",785,"107.csv","","null","resources/images/fishbone.png","null","",NA,NA,NA,NA,""
"image-keyboard-response",570,570435,"0.0-4.186-0.186","x7gmd25pcmmhab5",785,"107.csv","","339.10000002384186","resources/trios/L4T2A3.jpg","37","restless",0.3,0.5,0.5,0.124010272541826,"true"
"image-keyboard-response",571,570836,"0.0-4.186-1.186","x7gmd25pcmmhab5",785,"107.csv","","null","resources/maskTrios/L4BB.jpg","null","",NA,NA,NA,NA,""
"image-keyboard-response",572,572039,"0.0-4.186-2.186","x7gmd25pcmmhab5",785,"107.csv","","null","resources/images/coin2.png","null","",NA,NA,NA,NA,""
"image-keyboard-response",573,572235,"0.0-4.187-0.187","x7gmd25pcmmhab5",785,"107.csv","","194.7999999821186","resources/trios/L4T2A3.jpg","38","restless",0.3,0.5,0.5,0.514763170650911,"false"
"image-keyboard-response",574,572637,"0.0-4.187-1.187","x7gmd25pcmmhab5",785,"107.csv","","null","resources/maskTrios/BT2B.jpg","null","",NA,NA,NA,NA,""
"image-keyboard-response",575,573839,"0.0-4.187-2.187","x7gmd25pcmmhab5",785,"107.csv","","null","resources/images/fishbone.png","null","",NA,NA,NA,NA,""
"image-keyboard-response",576,573851,"0.0-4.188-0.188","x7gmd25pcmmhab5",785,"107.csv","","12","resources/trios/L4T2A3.jpg","39","restless",0.2,0.5,0.5,0.153364872457652,"true"
"image-keyboard-response",577,574254,"0.0-4.188-1.188","x7gmd25pcmmhab5",785,"107.csv","","null","resources/maskTrios/BBA3.jpg","null","",NA,NA,NA,NA,""
"image-keyboard-response",578,575456,"0.0-4.188-2.188","x7gmd25pcmmhab5",785,"107.csv","","null","resources/images/coin2.png","null","",NA,NA,NA,NA,""
"image-keyboard-response",579,575523,"0.0-4.189-0.189","x7gmd25pcmmhab5",785,"107.csv","","66.09999999403954","resources/trios/L4T2A3.jpg","37","restless",0.2,0.5,0.5,0.629580924617732,"false"
"image-keyboard-response",580,575926,"0.0-4.189-1.189","x7gmd25pcmmhab5",785,"107.csv","","null","resources/maskTrios/L4BB.jpg","null","",NA,NA,NA,NA,""
"image-keyboard-response",581,577129,"0.0-4.189-2.189","x7gmd25pcmmhab5",785,"107.csv","","null","resources/images/fishbone.png","null","",NA,NA,NA,NA,""
"image-keyboard-response",582,577315,"0.0-4.190-0.190","x7gmd25pcmmhab5",785,"107.csv","","185.5","resources/trios/L4T2A3.jpg","38","restless",0.2,0.5,0.5,0.420901206376591,"true"
"image-keyboard-response",583,577718,"0.0-4.190-1.190","x7gmd25pcmmhab5",785,"107.csv","","null","resources/maskTrios/BT2B.jpg","null","",NA,NA,NA,NA,""
"image-keyboard-response",584,578920,"0.0-4.190-2.190","x7gmd25pcmmhab5",785,"107.csv","","null","resources/images/coin2.png","null","",NA,NA,NA,NA,""
"image-keyboard-response",585,579035,"0.0-4.191-0.191","x7gmd25pcmmhab5",785,"107.csv","","114.7999999821186","resources/trios/L4T2A3.jpg","39","restless",0.2,0.5,0.5,0.89019734501728,"false"
"image-keyboard-response",586,579438,"0.0-4.191-1.191","x7gmd25pcmmhab5",785,"107.csv","","null","resources/maskTrios/BBA3.jpg","null","",NA,NA,NA,NA,""
"image-keyboard-response",587,580640,"0.0-4.191-2.191","x7gmd25pcmmhab5",785,"107.csv","","null","resources/images/fishbone.png","null","",NA,NA,NA,NA,""
"image-keyboard-response",588,580731,"0.0-4.192-0.192","x7gmd25pcmmhab5",785,"107.csv","","90.59999999403954","resources/trios/L4T2A3.jpg","38","restless",0.2,0.5,0.5,0.465281438133178,"true"
"image-keyboard-response",589,581133,"0.0-4.192-1.192","x7gmd25pcmmhab5",785,"107.csv","","null","resources/maskTrios/BT2B.jpg","null","",NA,NA,NA,NA,""
"image-keyboard-response",590,582336,"0.0-4.192-2.192","x7gmd25pcmmhab5",785,"107.csv","","null","resources/images/coin2.png","null","",NA,NA,NA,NA,""
"image-keyboard-response",591,582835,"0.0-4.193-0.193","x7gmd25pcmmhab5",785,"107.csv","","498.90000000596046","resources/trios/L4T2A3.jpg","37","restless",0.2,0.5,0.5,0.219309522328331,"false"
"image-keyboard-response",592,583237,"0.0-4.193-1.193","x7gmd25pcmmhab5",785,"107.csv","","null","resources/maskTrios/L4BB.jpg","null","",NA,NA,NA,NA,""
"image-keyboard-response",593,584440,"0.0-4.193-2.193","x7gmd25pcmmhab5",785,"107.csv","","null","resources/images/fishbone.png","null","",NA,NA,NA,NA,""
"image-keyboard-response",594,584644,"0.0-4.194-0.194","x7gmd25pcmmhab5",785,"107.csv","","202.5","resources/trios/L4T2A3.jpg","38","restless",0.2,0.5,0.5,0.10399448215231,"true"
"image-keyboard-response",595,585046,"0.0-4.194-1.194","x7gmd25pcmmhab5",785,"107.csv","","null","resources/maskTrios/BT2B.jpg","null","",NA,NA,NA,NA,""
"image-keyboard-response",596,586249,"0.0-4.194-2.194","x7gmd25pcmmhab5",785,"107.csv","","null","resources/images/coin2.png","null","",NA,NA,NA,NA,""
"image-keyboard-response",597,586452,"0.0-4.195-0.195","x7gmd25pcmmhab5",785,"107.csv","","202","resources/trios/L4T2A3.jpg","39","restless",0.2,0.5,0.5,0.530613438866063,"false"
"image-keyboard-response",598,586854,"0.0-4.195-1.195","x7gmd25pcmmhab5",785,"107.csv","","null","resources/maskTrios/BBA3.jpg","null","",NA,NA,NA,NA,""
"image-keyboard-response",599,588055,"0.0-4.195-2.195","x7gmd25pcmmhab5",785,"107.csv","","null","resources/images/fishbone.png","null","",NA,NA,NA,NA,""
"image-keyboard-response",600,588219,"0.0-4.196-0.196","x7gmd25pcmmhab5",785,"107.csv","","163.2000000178814","resources/trios/L4T2A3.jpg","38","restless",0.2,0.5,0.5,0.106824321680453,"true"
"image-keyboard-response",601,588621,"0.0-4.196-1.196","x7gmd25pcmmhab5",785,"107.csv","","null","resources/maskTrios/BT2B.jpg","null","",NA,NA,NA,NA,""
"image-keyboard-response",602,589824,"0.0-4.196-2.196","x7gmd25pcmmhab5",785,"107.csv","","null","resources/images/coin2.png","null","",NA,NA,NA,NA,""
"image-keyboard-response",603,590099,"0.0-4.197-0.197","x7gmd25pcmmhab5",785,"107.csv","","274.5","resources/trios/L4T2A3.jpg","38","restless",0.2,0.5,0.5,0.63335769670337,"false"
"image-keyboard-response",604,590502,"0.0-4.197-1.197","x7gmd25pcmmhab5",785,"107.csv","","null","resources/maskTrios/BT2B.jpg","null","",NA,NA,NA,NA,""
"image-keyboard-response",605,591705,"0.0-4.197-2.197","x7gmd25pcmmhab5",785,"107.csv","","null","resources/images/fishbone.png","null","",NA,NA,NA,NA,""
"image-keyboard-response",606,591980,"0.0-4.198-0.198","x7gmd25pcmmhab5",785,"107.csv","","274","resources/trios/L4T2A3.jpg","37","restless",0.2,0.4,0.5,0.325014515839139,"false"
"image-keyboard-response",607,592382,"0.0-4.198-1.198","x7gmd25pcmmhab5",785,"107.csv","","null","resources/maskTrios/L4BB.jpg","null","",NA,NA,NA,NA,""
