"trial_type","trial_index","time_elapsed","internal_node_id","subject","participantCode","walkNumber","success","rt","stimulus","key_press","test_part","leftProb","midProb","rightProb","generatedNum","correct"
"pavlovia",0,1537,"0.0-0.0","qz8cgch5nkp9j2p",966,"18.csv","","","","","",NA,NA,NA,NA,""
"fullscreen",1,6682,"0.0-1.0","qz8cgch5nkp9j2p",966,"18.csv","true","","","","",NA,NA,NA,NA,""
"survey-html-form",2,31467,"0.0-2.0","qz8cgch5nkp9j2p",966,"18.csv","","24780.600000000093","","","",NA,NA,NA,NA,""
"image-keyboard-response",3,81789,"0.0-3.0-0.0","qz8cgch5nkp9j2p",966,"18.csv","","50319.19999999972","resources/images/parrot_nobg.png","13","",NA,NA,NA,NA,""
"image-keyboard-response",4,84792,"0.0-3.0-1.0","qz8cgch5nkp9j2p",966,"18.csv","","null","resources/image_sets/111.png","null","",NA,NA,NA,NA,""
"image-keyboard-response",5,95038,"0.0-3.0-2.0","qz8cgch5nkp9j2p",966,"18.csv","","10243.799999999814","resources/image_sets/left_highlight.png","37","",NA,NA,NA,NA,""
"image-keyboard-response",6,98620,"0.0-3.0-3.0","qz8cgch5nkp9j2p",966,"18.csv","","3580.8000000002794","resources/image_sets/mid_highlight.png","38","",NA,NA,NA,NA,""
"image-keyboard-response",7,100747,"0.0-3.0-4.0","qz8cgch5nkp9j2p",966,"18.csv","","2125.5","resources/image_sets/right_highlight.png","39","",NA,NA,NA,NA,""
"image-keyboard-response",8,106346,"0.0-3.0-5.0","qz8cgch5nkp9j2p",966,"18.csv","","5598.200000000186","resources/image_sets/111.png","13","",NA,NA,NA,NA,""
"image-keyboard-response",9,111393,"0.0-3.0-6.0","qz8cgch5nkp9j2p",966,"18.csv","","5046.899999999907","resources/images/coin2.png","13","",NA,NA,NA,NA,""
"image-keyboard-response",10,113979,"0.0-3.0-7.0","qz8cgch5nkp9j2p",966,"18.csv","","2585.1999999997206","resources/images/fishbone.png","13","",NA,NA,NA,NA,""
"html-keyboard-response",11,128001,"0.0-3.0-8.0","qz8cgch5nkp9j2p",966,"18.csv","","14021","<p>You can track your coin total on the top right of your screen. </p><p>At the end of your journey you will be directed to a survey, so please click on the link before exiting the task</p><p>Press Enter to begin</p>","13","",NA,NA,NA,NA,""
"image-keyboard-response",12,131685,"0.0-4.0-0.0","qz8cgch5nkp9j2p",966,"18.csv","","3683.2000000001863","resources/trios/L4T2A3.jpg","39","restless",0.9,0.3,0.7,0.744217109984507,"false"
"image-keyboard-response",13,132095,"0.0-4.0-1.0","qz8cgch5nkp9j2p",966,"18.csv","","null","resources/maskTrios/BBA3.jpg","null","",NA,NA,NA,NA,""
"image-keyboard-response",14,133303,"0.0-4.0-2.0","qz8cgch5nkp9j2p",966,"18.csv","","null","resources/images/fishbone.png","null","",NA,NA,NA,NA,""
"image-keyboard-response",15,134638,"0.0-4.1-0.1","qz8cgch5nkp9j2p",966,"18.csv","","1332.5","resources/trios/L4T2A3.jpg","38","restless",0.9,0.3,0.7,0.434637503669192,"false"
"image-keyboard-response",16,135046,"0.0-4.1-1.1","qz8cgch5nkp9j2p",966,"18.csv","","null","resources/maskTrios/BT2B.jpg","null","",NA,NA,NA,NA,""
"image-keyboard-response",17,136247,"0.0-4.1-2.1","qz8cgch5nkp9j2p",966,"18.csv","","null","resources/images/fishbone.png","null","",NA,NA,NA,NA,""
"image-keyboard-response",18,136887,"0.0-4.2-0.2","qz8cgch5nkp9j2p",966,"18.csv","","638.2000000001863","resources/trios/L4T2A3.jpg","37","restless",0.8,0.3,0.7,0.809513227367481,"false"
"image-keyboard-response",19,137289,"0.0-4.2-1.2","qz8cgch5nkp9j2p",966,"18.csv","","null","resources/maskTrios/L4BB.jpg","null","",NA,NA,NA,NA,""
"image-keyboard-response",20,138497,"0.0-4.2-2.2","qz8cgch5nkp9j2p",966,"18.csv","","null","resources/images/fishbone.png","null","",NA,NA,NA,NA,""
"image-keyboard-response",21,142889,"0.0-4.3-0.3","qz8cgch5nkp9j2p",966,"18.csv","","4390.199999999721","resources/trios/L4T2A3.jpg","37","restless",0.8,0.3,0.7,0.0865688507732469,"true"
"image-keyboard-response",22,143294,"0.0-4.3-1.3","qz8cgch5nkp9j2p",966,"18.csv","","null","resources/maskTrios/L4BB.jpg","null","",NA,NA,NA,NA,""
"image-keyboard-response",23,144516,"0.0-4.3-2.3","qz8cgch5nkp9j2p",966,"18.csv","","null","resources/images/coin2.png","null","",NA,NA,NA,NA,""
"image-keyboard-response",24,150601,"0.0-4.4-0.4","qz8cgch5nkp9j2p",966,"18.csv","","6082.800000000279","resources/trios/L4T2A3.jpg","38","restless",0.8,0.3,0.7,0.524396809193845,"false"
"image-keyboard-response",25,151008,"0.0-4.4-1.4","qz8cgch5nkp9j2p",966,"18.csv","","null","resources/maskTrios/BT2B.jpg","null","",NA,NA,NA,NA,""
"image-keyboard-response",26,152216,"0.0-4.4-2.4","qz8cgch5nkp9j2p",966,"18.csv","","null","resources/images/fishbone.png","null","",NA,NA,NA,NA,""
"image-keyboard-response",27,153051,"0.0-4.5-0.5","qz8cgch5nkp9j2p",966,"18.csv","","833.2999999998137","resources/trios/L4T2A3.jpg","37","restless",0.8,0.3,0.6,0.881459483498543,"false"
"image-keyboard-response",28,153459,"0.0-4.5-1.5","qz8cgch5nkp9j2p",966,"18.csv","","null","resources/maskTrios/L4BB.jpg","null","",NA,NA,NA,NA,""
"image-keyboard-response",29,154660,"0.0-4.5-2.5","qz8cgch5nkp9j2p",966,"18.csv","","null","resources/images/fishbone.png","null","",NA,NA,NA,NA,""
"image-keyboard-response",30,155137,"0.0-4.6-0.6","qz8cgch5nkp9j2p",966,"18.csv","","474.60000000009313","resources/trios/L4T2A3.jpg","37","restless",0.8,0.3,0.6,0.892577786664855,"false"
"image-keyboard-response",31,155542,"0.0-4.6-1.6","qz8cgch5nkp9j2p",966,"18.csv","","null","resources/maskTrios/L4BB.jpg","null","",NA,NA,NA,NA,""
"image-keyboard-response",32,156744,"0.0-4.6-2.6","qz8cgch5nkp9j2p",966,"18.csv","","null","resources/images/fishbone.png","null","",NA,NA,NA,NA,""
"image-keyboard-response",33,160645,"0.0-4.7-0.7","qz8cgch5nkp9j2p",966,"18.csv","","3900.2000000001863","resources/trios/L4T2A3.jpg","38","restless",0.8,0.3,0.6,0.538883347366178,"false"
"image-keyboard-response",34,161048,"0.0-4.7-1.7","qz8cgch5nkp9j2p",966,"18.csv","","null","resources/maskTrios/BT2B.jpg","null","",NA,NA,NA,NA,""
"image-keyboard-response",35,162249,"0.0-4.7-2.7","qz8cgch5nkp9j2p",966,"18.csv","","null","resources/images/fishbone.png","null","",NA,NA,NA,NA,""
"image-keyboard-response",36,165089,"0.0-4.8-0.8","qz8cgch5nkp9j2p",966,"18.csv","","2837.899999999907","resources/trios/L4T2A3.jpg","39","restless",0.8,0.3,0.6,0.215909784192777,"true"
"image-keyboard-response",37,165491,"0.0-4.8-1.8","qz8cgch5nkp9j2p",966,"18.csv","","null","resources/maskTrios/BBA3.jpg","null","",NA,NA,NA,NA,""
"image-keyboard-response",38,166695,"0.0-4.8-2.8","qz8cgch5nkp9j2p",966,"18.csv","","null","resources/images/coin2.png","null","",NA,NA,NA,NA,""
"image-keyboard-response",39,168111,"0.0-4.9-0.9","qz8cgch5nkp9j2p",966,"18.csv","","1415.3999999999069","resources/trios/L4T2A3.jpg","37","restless",0.8,0.3,0.6,0.584419978712655,"true"
"image-keyboard-response",40,168518,"0.0-4.9-1.9","qz8cgch5nkp9j2p",966,"18.csv","","null","resources/maskTrios/L4BB.jpg","null","",NA,NA,NA,NA,""
"image-keyboard-response",41,169719,"0.0-4.9-2.9","qz8cgch5nkp9j2p",966,"18.csv","","null","resources/images/coin2.png","null","",NA,NA,NA,NA,""
"image-keyboard-response",42,170138,"0.0-4.10-0.10","qz8cgch5nkp9j2p",966,"18.csv","","418","resources/trios/L4T2A3.jpg","38","restless",0.8,0.3,0.6,0.0865822140020083,"true"
"image-keyboard-response",43,170539,"0.0-4.10-1.10","qz8cgch5nkp9j2p",966,"18.csv","","null","resources/maskTrios/BT2B.jpg","null","",NA,NA,NA,NA,""
"image-keyboard-response",44,171740,"0.0-4.10-2.10","qz8cgch5nkp9j2p",966,"18.csv","","null","resources/images/coin2.png","null","",NA,NA,NA,NA,""
"image-keyboard-response",45,172091,"0.0-4.11-0.11","qz8cgch5nkp9j2p",966,"18.csv","","350.20000000018626","resources/trios/L4T2A3.jpg","39","restless",0.8,0.3,0.6,0.273794980471046,"true"
"image-keyboard-response",46,172496,"0.0-4.11-1.11","qz8cgch5nkp9j2p",966,"18.csv","","null","resources/maskTrios/BBA3.jpg","null","",NA,NA,NA,NA,""
"image-keyboard-response",47,173698,"0.0-4.11-2.11","qz8cgch5nkp9j2p",966,"18.csv","","null","resources/images/coin2.png","null","",NA,NA,NA,NA,""
"image-keyboard-response",48,174483,"0.0-4.12-0.12","qz8cgch5nkp9j2p",966,"18.csv","","784.6000000000931","resources/trios/L4T2A3.jpg","37","restless",0.7,0.3,0.6,0.516240192701982,"true"
"image-keyboard-response",49,174885,"0.0-4.12-1.12","qz8cgch5nkp9j2p",966,"18.csv","","null","resources/maskTrios/L4BB.jpg","null","",NA,NA,NA,NA,""
"image-keyboard-response",50,176093,"0.0-4.12-2.12","qz8cgch5nkp9j2p",966,"18.csv","","null","resources/images/coin2.png","null","",NA,NA,NA,NA,""
"image-keyboard-response",51,176582,"0.0-4.13-0.13","qz8cgch5nkp9j2p",966,"18.csv","","486.89999999990687","resources/trios/L4T2A3.jpg","38","restless",0.7,0.2,0.6,0.387791741931883,"false"
"image-keyboard-response",52,176989,"0.0-4.13-1.13","qz8cgch5nkp9j2p",966,"18.csv","","null","resources/maskTrios/BT2B.jpg","null","",NA,NA,NA,NA,""
"image-keyboard-response",53,178191,"0.0-4.13-2.13","qz8cgch5nkp9j2p",966,"18.csv","","null","resources/images/fishbone.png","null","",NA,NA,NA,NA,""
"image-keyboard-response",54,179641,"0.0-4.14-0.14","qz8cgch5nkp9j2p",966,"18.csv","","1448.5","resources/trios/L4T2A3.jpg","37","restless",0.7,0.2,0.6,0.279052556914363,"true"
"image-keyboard-response",55,180044,"0.0-4.14-1.14","qz8cgch5nkp9j2p",966,"18.csv","","null","resources/maskTrios/L4BB.jpg","null","",NA,NA,NA,NA,""
"image-keyboard-response",56,181245,"0.0-4.14-2.14","qz8cgch5nkp9j2p",966,"18.csv","","null","resources/images/coin2.png","null","",NA,NA,NA,NA,""
"image-keyboard-response",57,182377,"0.0-4.15-0.15","qz8cgch5nkp9j2p",966,"18.csv","","1130.5","resources/trios/L4T2A3.jpg","39","restless",0.8,0.2,0.6,0.94278748736887,"false"
"image-keyboard-response",58,182780,"0.0-4.15-1.15","qz8cgch5nkp9j2p",966,"18.csv","","null","resources/maskTrios/BBA3.jpg","null","",NA,NA,NA,NA,""
"image-keyboard-response",59,183981,"0.0-4.15-2.15","qz8cgch5nkp9j2p",966,"18.csv","","null","resources/images/fishbone.png","null","",NA,NA,NA,NA,""
"image-keyboard-response",60,185492,"0.0-4.16-0.16","qz8cgch5nkp9j2p",966,"18.csv","","1509.6000000000931","resources/trios/L4T2A3.jpg","38","restless",0.7,0.2,0.6,0.715140366015167,"false"
"image-keyboard-response",61,185897,"0.0-4.16-1.16","qz8cgch5nkp9j2p",966,"18.csv","","null","resources/maskTrios/BT2B.jpg","null","",NA,NA,NA,NA,""
"image-keyboard-response",62,187099,"0.0-4.16-2.16","qz8cgch5nkp9j2p",966,"18.csv","","null","resources/images/fishbone.png","null","",NA,NA,NA,NA,""
"image-keyboard-response",63,187510,"0.0-4.17-0.17","qz8cgch5nkp9j2p",966,"18.csv","","409.60000000009313","resources/trios/L4T2A3.jpg","38","restless",0.7,0.2,0.6,0.407989833111059,"false"
"image-keyboard-response",64,187918,"0.0-4.17-1.17","qz8cgch5nkp9j2p",966,"18.csv","","null","resources/maskTrios/BT2B.jpg","null","",NA,NA,NA,NA,""
"image-keyboard-response",65,189126,"0.0-4.17-2.17","qz8cgch5nkp9j2p",966,"18.csv","","null","resources/images/fishbone.png","null","",NA,NA,NA,NA,""
"image-keyboard-response",66,190556,"0.0-4.18-0.18","qz8cgch5nkp9j2p",966,"18.csv","","1428.8999999999069","resources/trios/L4T2A3.jpg","38","restless",0.7,0.2,0.6,0.400913530921953,"false"
"image-keyboard-response",67,190959,"0.0-4.18-1.18","qz8cgch5nkp9j2p",966,"18.csv","","null","resources/maskTrios/BT2B.jpg","null","",NA,NA,NA,NA,""
"image-keyboard-response",68,192160,"0.0-4.18-2.18","qz8cgch5nkp9j2p",966,"18.csv","","null","resources/images/fishbone.png","null","",NA,NA,NA,NA,""
"image-keyboard-response",69,192512,"0.0-4.19-0.19","qz8cgch5nkp9j2p",966,"18.csv","","350.29999999981374","resources/trios/L4T2A3.jpg","39","restless",0.7,0.2,0.6,0.521866895652477,"true"
"image-keyboard-response",70,192917,"0.0-4.19-1.19","qz8cgch5nkp9j2p",966,"18.csv","","null","resources/maskTrios/BBA3.jpg","null","",NA,NA,NA,NA,""
"image-keyboard-response",71,194125,"0.0-4.19-2.19","qz8cgch5nkp9j2p",966,"18.csv","","null","resources/images/coin2.png","null","",NA,NA,NA,NA,""
"image-keyboard-response",72,195008,"0.0-4.20-0.20","qz8cgch5nkp9j2p",966,"18.csv","","881.1000000000931","resources/trios/L4T2A3.jpg","38","restless",0.7,0.2,0.6,0.19144240226203,"true"
"image-keyboard-response",73,195416,"0.0-4.20-1.20","qz8cgch5nkp9j2p",966,"18.csv","","null","resources/maskTrios/BT2B.jpg","null","",NA,NA,NA,NA,""
"image-keyboard-response",74,196624,"0.0-4.20-2.20","qz8cgch5nkp9j2p",966,"18.csv","","null","resources/images/coin2.png","null","",NA,NA,NA,NA,""
"image-keyboard-response",75,197112,"0.0-4.21-0.21","qz8cgch5nkp9j2p",966,"18.csv","","486.60000000009313","resources/trios/L4T2A3.jpg","37","restless",0.7,0.2,0.6,0.688306379297313,"true"
"image-keyboard-response",76,197520,"0.0-4.21-1.21","qz8cgch5nkp9j2p",966,"18.csv","","null","resources/maskTrios/L4BB.jpg","null","",NA,NA,NA,NA,""
"image-keyboard-response",77,198728,"0.0-4.21-2.21","qz8cgch5nkp9j2p",966,"18.csv","","null","resources/images/coin2.png","null","",NA,NA,NA,NA,""
"image-keyboard-response",78,199167,"0.0-4.22-0.22","qz8cgch5nkp9j2p",966,"18.csv","","437.70000000018626","resources/trios/L4T2A3.jpg","39","restless",0.7,0.2,0.6,0.0905912317983488,"true"
"image-keyboard-response",79,199568,"0.0-4.22-1.22","qz8cgch5nkp9j2p",966,"18.csv","","null","resources/maskTrios/BBA3.jpg","null","",NA,NA,NA,NA,""
"image-keyboard-response",80,200770,"0.0-4.22-2.22","qz8cgch5nkp9j2p",966,"18.csv","","null","resources/images/coin2.png","null","",NA,NA,NA,NA,""
"image-keyboard-response",81,201211,"0.0-4.23-0.23","qz8cgch5nkp9j2p",966,"18.csv","","438.89999999990687","resources/trios/L4T2A3.jpg","38","restless",0.6,0.2,0.5,0.46196239633348,"false"
"image-keyboard-response",82,201616,"0.0-4.23-1.23","qz8cgch5nkp9j2p",966,"18.csv","","null","resources/maskTrios/BT2B.jpg","null","",NA,NA,NA,NA,""
"image-keyboard-response",83,202818,"0.0-4.23-2.23","qz8cgch5nkp9j2p",966,"18.csv","","null","resources/images/fishbone.png","null","",NA,NA,NA,NA,""
"image-keyboard-response",84,208198,"0.0-4.24-0.24","qz8cgch5nkp9j2p",966,"18.csv","","5378.799999999814","resources/trios/L4T2A3.jpg","38","restless",0.6,0.2,0.5,0.81121317227105,"false"
"image-keyboard-response",85,208601,"0.0-4.24-1.24","qz8cgch5nkp9j2p",966,"18.csv","","null","resources/maskTrios/BT2B.jpg","null","",NA,NA,NA,NA,""
"image-keyboard-response",86,209806,"0.0-4.24-2.24","qz8cgch5nkp9j2p",966,"18.csv","","null","resources/images/fishbone.png","null","",NA,NA,NA,NA,""
"image-keyboard-response",87,211632,"0.0-4.25-0.25","qz8cgch5nkp9j2p",966,"18.csv","","1825.8999999999069","resources/trios/L4T2A3.jpg","37","restless",0.5,0.3,0.6,0.443068728448506,"true"
"image-keyboard-response",88,212038,"0.0-4.25-1.25","qz8cgch5nkp9j2p",966,"18.csv","","null","resources/maskTrios/L4BB.jpg","null","",NA,NA,NA,NA,""
"image-keyboard-response",89,213246,"0.0-4.25-2.25","qz8cgch5nkp9j2p",966,"18.csv","","null","resources/images/coin2.png","null","",NA,NA,NA,NA,""
"image-keyboard-response",90,213576,"0.0-4.26-0.26","qz8cgch5nkp9j2p",966,"18.csv","","328.10000000009313","resources/trios/L4T2A3.jpg","38","restless",0.5,0.3,0.6,0.115551373612499,"true"
"image-keyboard-response",91,213982,"0.0-4.26-1.26","qz8cgch5nkp9j2p",966,"18.csv","","null","resources/maskTrios/BT2B.jpg","null","",NA,NA,NA,NA,""
"image-keyboard-response",92,215183,"0.0-4.26-2.26","qz8cgch5nkp9j2p",966,"18.csv","","null","resources/images/coin2.png","null","",NA,NA,NA,NA,""
"image-keyboard-response",93,215606,"0.0-4.27-0.27","qz8cgch5nkp9j2p",966,"18.csv","","420.89999999990687","resources/trios/L4T2A3.jpg","39","restless",0.5,0.3,0.6,0.417443871514447,"true"
"image-keyboard-response",94,216010,"0.0-4.27-1.27","qz8cgch5nkp9j2p",966,"18.csv","","null","resources/maskTrios/BBA3.jpg","null","",NA,NA,NA,NA,""
"image-keyboard-response",95,217218,"0.0-4.27-2.27","qz8cgch5nkp9j2p",966,"18.csv","","null","resources/images/coin2.png","null","",NA,NA,NA,NA,""
"image-keyboard-response",96,217506,"0.0-4.28-0.28","qz8cgch5nkp9j2p",966,"18.csv","","286.79999999981374","resources/trios/L4T2A3.jpg","38","restless",0.5,0.3,0.6,0.736885872357302,"false"
"image-keyboard-response",97,217912,"0.0-4.28-1.28","qz8cgch5nkp9j2p",966,"18.csv","","null","resources/maskTrios/BT2B.jpg","null","",NA,NA,NA,NA,""
"image-keyboard-response",98,219113,"0.0-4.28-2.28","qz8cgch5nkp9j2p",966,"18.csv","","null","resources/images/fishbone.png","null","",NA,NA,NA,NA,""
"image-keyboard-response",99,219752,"0.0-4.29-0.29","qz8cgch5nkp9j2p",966,"18.csv","","637.3999999999069","resources/trios/L4T2A3.jpg","39","restless",0.5,0.3,0.6,0.0820382370125912,"true"
"image-keyboard-response",100,220154,"0.0-4.29-1.29","qz8cgch5nkp9j2p",966,"18.csv","","null","resources/maskTrios/BBA3.jpg","null","",NA,NA,NA,NA,""
"image-keyboard-response",101,221356,"0.0-4.29-2.29","qz8cgch5nkp9j2p",966,"18.csv","","null","resources/images/coin2.png","null","",NA,NA,NA,NA,""
"image-keyboard-response",102,221861,"0.0-4.30-0.30","qz8cgch5nkp9j2p",966,"18.csv","","503.20000000018626","resources/trios/L4T2A3.jpg","38","restless",0.5,0.3,0.6,0.544394062503702,"false"
"image-keyboard-response",103,222265,"0.0-4.30-1.30","qz8cgch5nkp9j2p",966,"18.csv","","null","resources/maskTrios/BT2B.jpg","null","",NA,NA,NA,NA,""
"image-keyboard-response",104,223467,"0.0-4.30-2.30","qz8cgch5nkp9j2p",966,"18.csv","","null","resources/images/fishbone.png","null","",NA,NA,NA,NA,""
"image-keyboard-response",105,223887,"0.0-4.31-0.31","qz8cgch5nkp9j2p",966,"18.csv","","418.8000000002794","resources/trios/L4T2A3.jpg","39","restless",0.5,0.3,0.6,0.901435405627049,"false"
"image-keyboard-response",106,224293,"0.0-4.31-1.31","qz8cgch5nkp9j2p",966,"18.csv","","null","resources/maskTrios/BBA3.jpg","null","",NA,NA,NA,NA,""
"image-keyboard-response",107,225494,"0.0-4.31-2.31","qz8cgch5nkp9j2p",966,"18.csv","","null","resources/images/fishbone.png","null","",NA,NA,NA,NA,""
"image-keyboard-response",108,225761,"0.0-4.32-0.32","qz8cgch5nkp9j2p",966,"18.csv","","264.60000000009313","resources/trios/L4T2A3.jpg","37","restless",0.5,0.3,0.6,0.769345277917103,"false"
"image-keyboard-response",109,226167,"0.0-4.32-1.32","qz8cgch5nkp9j2p",966,"18.csv","","null","resources/maskTrios/L4BB.jpg","null","",NA,NA,NA,NA,""
"image-keyboard-response",110,227369,"0.0-4.32-2.32","qz8cgch5nkp9j2p",966,"18.csv","","null","resources/images/fishbone.png","null","",NA,NA,NA,NA,""
"image-keyboard-response",111,227815,"0.0-4.33-0.33","qz8cgch5nkp9j2p",966,"18.csv","","444.3000000002794","resources/trios/L4T2A3.jpg","37","restless",0.5,0.3,0.6,0.490177340675543,"true"
"image-keyboard-response",112,228223,"0.0-4.33-1.33","qz8cgch5nkp9j2p",966,"18.csv","","null","resources/maskTrios/L4BB.jpg","null","",NA,NA,NA,NA,""
"image-keyboard-response",113,229431,"0.0-4.33-2.33","qz8cgch5nkp9j2p",966,"18.csv","","null","resources/images/coin2.png","null","",NA,NA,NA,NA,""
"image-keyboard-response",114,229726,"0.0-4.34-0.34","qz8cgch5nkp9j2p",966,"18.csv","","293.5","resources/trios/L4T2A3.jpg","38","restless",0.5,0.3,0.6,0.14676765408998,"true"
"image-keyboard-response",115,230132,"0.0-4.34-1.34","qz8cgch5nkp9j2p",966,"18.csv","","null","resources/maskTrios/BT2B.jpg","null","",NA,NA,NA,NA,""
"image-keyboard-response",116,231340,"0.0-4.34-2.34","qz8cgch5nkp9j2p",966,"18.csv","","null","resources/images/coin2.png","null","",NA,NA,NA,NA,""
"image-keyboard-response",117,232005,"0.0-4.35-0.35","qz8cgch5nkp9j2p",966,"18.csv","","663.5999999996275","resources/trios/L4T2A3.jpg","39","restless",0.5,0.3,0.6,0.258246024393275,"true"
"image-keyboard-response",118,232409,"0.0-4.35-1.35","qz8cgch5nkp9j2p",966,"18.csv","","null","resources/maskTrios/BBA3.jpg","null","",NA,NA,NA,NA,""
"image-keyboard-response",119,233617,"0.0-4.35-2.35","qz8cgch5nkp9j2p",966,"18.csv","","null","resources/images/coin2.png","null","",NA,NA,NA,NA,""
"image-keyboard-response",120,234166,"0.0-4.36-0.36","qz8cgch5nkp9j2p",966,"18.csv","","547.3000000002794","resources/trios/L4T2A3.jpg","37","restless",0.5,0.3,0.6,0.676317067629133,"false"
"image-keyboard-response",121,234568,"0.0-4.36-1.36","qz8cgch5nkp9j2p",966,"18.csv","","null","resources/maskTrios/L4BB.jpg","null","",NA,NA,NA,NA,""
"image-keyboard-response",122,235770,"0.0-4.36-2.36","qz8cgch5nkp9j2p",966,"18.csv","","null","resources/images/fishbone.png","null","",NA,NA,NA,NA,""
"image-keyboard-response",123,240903,"0.0-4.37-0.37","qz8cgch5nkp9j2p",966,"18.csv","","5131.700000000186","resources/trios/L4T2A3.jpg","38","restless",0.5,0.3,0.6,0.0746883868167656,"true"
"image-keyboard-response",124,241311,"0.0-4.37-1.37","qz8cgch5nkp9j2p",966,"18.csv","","null","resources/maskTrios/BT2B.jpg","null","",NA,NA,NA,NA,""
"image-keyboard-response",125,242512,"0.0-4.37-2.37","qz8cgch5nkp9j2p",966,"18.csv","","null","resources/images/coin2.png","null","",NA,NA,NA,NA,""
"image-keyboard-response",126,242907,"0.0-4.38-0.38","qz8cgch5nkp9j2p",966,"18.csv","","393.20000000018626","resources/trios/L4T2A3.jpg","37","restless",0.5,0.4,0.6,0.354189106560056,"true"
"image-keyboard-response",127,243310,"0.0-4.38-1.38","qz8cgch5nkp9j2p",966,"18.csv","","null","resources/maskTrios/L4BB.jpg","null","",NA,NA,NA,NA,""
"image-keyboard-response",128,244511,"0.0-4.38-2.38","qz8cgch5nkp9j2p",966,"18.csv","","null","resources/images/coin2.png","null","",NA,NA,NA,NA,""
"image-keyboard-response",129,246450,"0.0-4.39-0.39","qz8cgch5nkp9j2p",966,"18.csv","","1936.7000000001863","resources/trios/L4T2A3.jpg","37","restless",0.5,0.4,0.6,0.741115692336878,"false"
"image-keyboard-response",130,246858,"0.0-4.39-1.39","qz8cgch5nkp9j2p",966,"18.csv","","null","resources/maskTrios/L4BB.jpg","null","",NA,NA,NA,NA,""
"image-keyboard-response",131,248066,"0.0-4.39-2.39","qz8cgch5nkp9j2p",966,"18.csv","","null","resources/images/fishbone.png","null","",NA,NA,NA,NA,""
"image-keyboard-response",132,250189,"0.0-4.40-0.40","qz8cgch5nkp9j2p",966,"18.csv","","2120.7000000001863","resources/trios/L4T2A3.jpg","38","restless",0.5,0.4,0.6,0.536722176711147,"false"
"image-keyboard-response",133,250593,"0.0-4.40-1.40","qz8cgch5nkp9j2p",966,"18.csv","","null","resources/maskTrios/BT2B.jpg","null","",NA,NA,NA,NA,""
"image-keyboard-response",134,251794,"0.0-4.40-2.40","qz8cgch5nkp9j2p",966,"18.csv","","null","resources/images/fishbone.png","null","",NA,NA,NA,NA,""
"image-keyboard-response",135,252453,"0.0-4.41-0.41","qz8cgch5nkp9j2p",966,"18.csv","","656.7999999998137","resources/trios/L4T2A3.jpg","38","restless",0.5,0.4,0.6,0.931282757729451,"false"
"image-keyboard-response",136,252856,"0.0-4.41-1.41","qz8cgch5nkp9j2p",966,"18.csv","","null","resources/maskTrios/BT2B.jpg","null","",NA,NA,NA,NA,""
"image-keyboard-response",137,254058,"0.0-4.41-2.41","qz8cgch5nkp9j2p",966,"18.csv","","null","resources/images/fishbone.png","null","",NA,NA,NA,NA,""
"image-keyboard-response",138,255889,"0.0-4.42-0.42","qz8cgch5nkp9j2p",966,"18.csv","","1829","resources/trios/L4T2A3.jpg","37","restless",0.5,0.4,0.6,0.388952759038184,"true"
"image-keyboard-response",139,256293,"0.0-4.42-1.42","qz8cgch5nkp9j2p",966,"18.csv","","null","resources/maskTrios/L4BB.jpg","null","",NA,NA,NA,NA,""
"image-keyboard-response",140,257501,"0.0-4.42-2.42","qz8cgch5nkp9j2p",966,"18.csv","","null","resources/images/coin2.png","null","",NA,NA,NA,NA,""
"image-keyboard-response",141,257800,"0.0-4.43-0.43","qz8cgch5nkp9j2p",966,"18.csv","","296.60000000009313","resources/trios/L4T2A3.jpg","38","restless",0.5,0.4,0.5,0.673486954390871,"false"
"image-keyboard-response",142,258202,"0.0-4.43-1.43","qz8cgch5nkp9j2p",966,"18.csv","","null","resources/maskTrios/BT2B.jpg","null","",NA,NA,NA,NA,""
"image-keyboard-response",143,259404,"0.0-4.43-2.43","qz8cgch5nkp9j2p",966,"18.csv","","null","resources/images/fishbone.png","null","",NA,NA,NA,NA,""
"image-keyboard-response",144,260880,"0.0-4.44-0.44","qz8cgch5nkp9j2p",966,"18.csv","","1476","resources/trios/L4T2A3.jpg","37","restless",0.5,0.4,0.5,0.82309936345185,"false"
"image-keyboard-response",145,261285,"0.0-4.44-1.44","qz8cgch5nkp9j2p",966,"18.csv","","null","resources/maskTrios/L4BB.jpg","null","",NA,NA,NA,NA,""
"image-keyboard-response",146,262487,"0.0-4.44-2.44","qz8cgch5nkp9j2p",966,"18.csv","","null","resources/images/fishbone.png","null","",NA,NA,NA,NA,""
"image-keyboard-response",147,262804,"0.0-4.45-0.45","qz8cgch5nkp9j2p",966,"18.csv","","315.59999999962747","resources/trios/L4T2A3.jpg","38","restless",0.6,0.5,0.5,0.0383227227941234,"true"
"image-keyboard-response",148,263208,"0.0-4.45-1.45","qz8cgch5nkp9j2p",966,"18.csv","","null","resources/maskTrios/BT2B.jpg","null","",NA,NA,NA,NA,""
"image-keyboard-response",149,264410,"0.0-4.45-2.45","qz8cgch5nkp9j2p",966,"18.csv","","null","resources/images/coin2.png","null","",NA,NA,NA,NA,""
"image-keyboard-response",150,265809,"0.0-4.46-0.46","qz8cgch5nkp9j2p",966,"18.csv","","1396.9000000003725","resources/trios/L4T2A3.jpg","39","restless",0.6,0.5,0.5,0.548547932455187,"false"
"image-keyboard-response",151,266215,"0.0-4.46-1.46","qz8cgch5nkp9j2p",966,"18.csv","","null","resources/maskTrios/BBA3.jpg","null","",NA,NA,NA,NA,""
"image-keyboard-response",152,267423,"0.0-4.46-2.46","qz8cgch5nkp9j2p",966,"18.csv","","null","resources/images/fishbone.png","null","",NA,NA,NA,NA,""
"image-keyboard-response",153,268505,"0.0-4.47-0.47","qz8cgch5nkp9j2p",966,"18.csv","","1080.1000000000931","resources/trios/L4T2A3.jpg","39","restless",0.6,0.5,0.5,0.920831487057722,"false"
"image-keyboard-response",154,268909,"0.0-4.47-1.47","qz8cgch5nkp9j2p",966,"18.csv","","null","resources/maskTrios/BBA3.jpg","null","",NA,NA,NA,NA,""
"image-keyboard-response",155,270111,"0.0-4.47-2.47","qz8cgch5nkp9j2p",966,"18.csv","","null","resources/images/fishbone.png","null","",NA,NA,NA,NA,""
"image-keyboard-response",156,271095,"0.0-4.48-0.48","qz8cgch5nkp9j2p",966,"18.csv","","983.3999999999069","resources/trios/L4T2A3.jpg","38","restless",0.6,0.5,0.5,0.77028307432237,"false"
"image-keyboard-response",157,271499,"0.0-4.48-1.48","qz8cgch5nkp9j2p",966,"18.csv","","null","resources/maskTrios/BT2B.jpg","null","",NA,NA,NA,NA,""
"image-keyboard-response",158,272700,"0.0-4.48-2.48","qz8cgch5nkp9j2p",966,"18.csv","","null","resources/images/fishbone.png","null","",NA,NA,NA,NA,""
"image-keyboard-response",159,273053,"0.0-4.49-0.49","qz8cgch5nkp9j2p",966,"18.csv","","351.29999999981374","resources/trios/L4T2A3.jpg","39","restless",0.6,0.5,0.5,0.266440141735764,"true"
"image-keyboard-response",160,273457,"0.0-4.49-1.49","qz8cgch5nkp9j2p",966,"18.csv","","null","resources/maskTrios/BBA3.jpg","null","",NA,NA,NA,NA,""
"image-keyboard-response",161,274665,"0.0-4.49-2.49","qz8cgch5nkp9j2p",966,"18.csv","","null","resources/images/coin2.png","null","",NA,NA,NA,NA,""
"image-keyboard-response",162,275022,"0.0-4.50-0.50","qz8cgch5nkp9j2p",966,"18.csv","","355","resources/trios/L4T2A3.jpg","38","restless",0.6,0.5,0.5,0.71612665471005,"false"
"image-keyboard-response",163,275429,"0.0-4.50-1.50","qz8cgch5nkp9j2p",966,"18.csv","","null","resources/maskTrios/BT2B.jpg","null","",NA,NA,NA,NA,""
"image-keyboard-response",164,276630,"0.0-4.50-2.50","qz8cgch5nkp9j2p",966,"18.csv","","null","resources/images/fishbone.png","null","",NA,NA,NA,NA,""
"image-keyboard-response",165,279154,"0.0-4.51-0.51","qz8cgch5nkp9j2p",966,"18.csv","","2522.7000000001863","resources/trios/L4T2A3.jpg","37","restless",0.6,0.5,0.5,0.156689255639041,"true"
"image-keyboard-response",166,279559,"0.0-4.51-1.51","qz8cgch5nkp9j2p",966,"18.csv","","null","resources/maskTrios/L4BB.jpg","null","",NA,NA,NA,NA,""
"image-keyboard-response",167,280761,"0.0-4.51-2.51","qz8cgch5nkp9j2p",966,"18.csv","","null","resources/images/coin2.png","null","",NA,NA,NA,NA,""
"image-keyboard-response",168,282279,"0.0-4.52-0.52","qz8cgch5nkp9j2p",966,"18.csv","","1516.2000000001863","resources/trios/L4T2A3.jpg","39","restless",0.6,0.5,0.5,0.759674988447339,"false"
"image-keyboard-response",169,282684,"0.0-4.52-1.52","qz8cgch5nkp9j2p",966,"18.csv","","null","resources/maskTrios/BBA3.jpg","null","",NA,NA,NA,NA,""
"image-keyboard-response",170,283885,"0.0-4.52-2.52","qz8cgch5nkp9j2p",966,"18.csv","","null","resources/images/fishbone.png","null","",NA,NA,NA,NA,""
"image-keyboard-response",171,285149,"0.0-4.53-0.53","qz8cgch5nkp9j2p",966,"18.csv","","1262.2000000001863","resources/trios/L4T2A3.jpg","37","restless",0.6,0.5,0.5,0.796127085160251,"false"
"image-keyboard-response",172,285552,"0.0-4.53-1.53","qz8cgch5nkp9j2p",966,"18.csv","","null","resources/maskTrios/L4BB.jpg","null","",NA,NA,NA,NA,""
"image-keyboard-response",173,286753,"0.0-4.53-2.53","qz8cgch5nkp9j2p",966,"18.csv","","null","resources/images/fishbone.png","null","",NA,NA,NA,NA,""
"image-keyboard-response",174,287559,"0.0-4.54-0.54","qz8cgch5nkp9j2p",966,"18.csv","","804.5999999996275","resources/trios/L4T2A3.jpg","37","restless",0.6,0.5,0.5,0.0113213035251252,"true"
"image-keyboard-response",175,287961,"0.0-4.54-1.54","qz8cgch5nkp9j2p",966,"18.csv","","null","resources/maskTrios/L4BB.jpg","null","",NA,NA,NA,NA,""
"image-keyboard-response",176,289169,"0.0-4.54-2.54","qz8cgch5nkp9j2p",966,"18.csv","","null","resources/images/coin2.png","null","",NA,NA,NA,NA,""
"image-keyboard-response",177,289534,"0.0-4.55-0.55","qz8cgch5nkp9j2p",966,"18.csv","","363.59999999962747","resources/trios/L4T2A3.jpg","38","restless",0.6,0.5,0.5,0.973715892839409,"false"
"image-keyboard-response",178,289937,"0.0-4.55-1.55","qz8cgch5nkp9j2p",966,"18.csv","","null","resources/maskTrios/BT2B.jpg","null","",NA,NA,NA,NA,""
"image-keyboard-response",179,291141,"0.0-4.55-2.55","qz8cgch5nkp9j2p",966,"18.csv","","null","resources/images/fishbone.png","null","",NA,NA,NA,NA,""
"image-keyboard-response",180,291655,"0.0-4.56-0.56","qz8cgch5nkp9j2p",966,"18.csv","","512.5","resources/trios/L4T2A3.jpg","39","restless",0.6,0.5,0.5,0.213909844095034,"true"
"image-keyboard-response",181,292057,"0.0-4.56-1.56","qz8cgch5nkp9j2p",966,"18.csv","","null","resources/maskTrios/BBA3.jpg","null","",NA,NA,NA,NA,""
"image-keyboard-response",182,293259,"0.0-4.56-2.56","qz8cgch5nkp9j2p",966,"18.csv","","null","resources/images/coin2.png","null","",NA,NA,NA,NA,""
"image-keyboard-response",183,309357,"0.0-4.57-0.57","qz8cgch5nkp9j2p",966,"18.csv","","16096.80000000028","resources/trios/L4T2A3.jpg","37","restless",0.7,0.5,0.4,0.360006169438861,"true"
"image-keyboard-response",184,309759,"0.0-4.57-1.57","qz8cgch5nkp9j2p",966,"18.csv","","null","resources/maskTrios/L4BB.jpg","null","",NA,NA,NA,NA,""
"image-keyboard-response",185,310963,"0.0-4.57-2.57","qz8cgch5nkp9j2p",966,"18.csv","","null","resources/images/coin2.png","null","",NA,NA,NA,NA,""
"image-keyboard-response",186,312659,"0.0-4.58-0.58","qz8cgch5nkp9j2p",966,"18.csv","","1695","resources/trios/L4T2A3.jpg","38","restless",0.7,0.5,0.4,0.407957012919433,"true"
"image-keyboard-response",187,313060,"0.0-4.58-1.58","qz8cgch5nkp9j2p",966,"18.csv","","null","resources/maskTrios/BT2B.jpg","null","",NA,NA,NA,NA,""
"image-keyboard-response",188,314268,"0.0-4.58-2.58","qz8cgch5nkp9j2p",966,"18.csv","","null","resources/images/coin2.png","null","",NA,NA,NA,NA,""
"image-keyboard-response",189,317067,"0.0-4.59-0.59","qz8cgch5nkp9j2p",966,"18.csv","","2798.7999999998137","resources/trios/L4T2A3.jpg","37","restless",0.7,0.5,0.4,0.667649225182263,"true"
"image-keyboard-response",190,317469,"0.0-4.59-1.59","qz8cgch5nkp9j2p",966,"18.csv","","null","resources/maskTrios/L4BB.jpg","null","",NA,NA,NA,NA,""
"image-keyboard-response",191,318670,"0.0-4.59-2.59","qz8cgch5nkp9j2p",966,"18.csv","","null","resources/images/coin2.png","null","",NA,NA,NA,NA,""
"image-keyboard-response",192,319401,"0.0-4.60-0.60","qz8cgch5nkp9j2p",966,"18.csv","","729.2000000001863","resources/trios/L4T2A3.jpg","38","restless",0.7,0.5,0.4,0.110856346873715,"true"
"image-keyboard-response",193,319809,"0.0-4.60-1.60","qz8cgch5nkp9j2p",966,"18.csv","","null","resources/maskTrios/BT2B.jpg","null","",NA,NA,NA,NA,""
"image-keyboard-response",194,321010,"0.0-4.60-2.60","qz8cgch5nkp9j2p",966,"18.csv","","null","resources/images/coin2.png","null","",NA,NA,NA,NA,""
"image-keyboard-response",195,322157,"0.0-4.61-0.61","qz8cgch5nkp9j2p",966,"18.csv","","1144.8000000002794","resources/trios/L4T2A3.jpg","37","restless",0.7,0.5,0.4,0.80102578948646,"false"
"image-keyboard-response",196,322558,"0.0-4.61-1.61","qz8cgch5nkp9j2p",966,"18.csv","","null","resources/maskTrios/L4BB.jpg","null","",NA,NA,NA,NA,""
"image-keyboard-response",197,323759,"0.0-4.61-2.61","qz8cgch5nkp9j2p",966,"18.csv","","null","resources/images/fishbone.png","null","",NA,NA,NA,NA,""
"image-keyboard-response",198,327330,"0.0-4.62-0.62","qz8cgch5nkp9j2p",966,"18.csv","","3570.100000000093","resources/trios/L4T2A3.jpg","38","restless",0.7,0.5,0.4,0.268512998161875,"true"
"image-keyboard-response",199,327737,"0.0-4.62-1.62","qz8cgch5nkp9j2p",966,"18.csv","","null","resources/maskTrios/BT2B.jpg","null","",NA,NA,NA,NA,""
"image-keyboard-response",200,328939,"0.0-4.62-2.62","qz8cgch5nkp9j2p",966,"18.csv","","null","resources/images/coin2.png","null","",NA,NA,NA,NA,""
"image-keyboard-response",201,329387,"0.0-4.63-0.63","qz8cgch5nkp9j2p",966,"18.csv","","447.5","resources/trios/L4T2A3.jpg","39","restless",0.7,0.5,0.4,0.506186578572489,"false"
"image-keyboard-response",202,329793,"0.0-4.63-1.63","qz8cgch5nkp9j2p",966,"18.csv","","null","resources/maskTrios/BBA3.jpg","null","",NA,NA,NA,NA,""
"image-keyboard-response",203,330994,"0.0-4.63-2.63","qz8cgch5nkp9j2p",966,"18.csv","","null","resources/images/fishbone.png","null","",NA,NA,NA,NA,""
"image-keyboard-response",204,341614,"0.0-4.64-0.64","qz8cgch5nkp9j2p",966,"18.csv","","10619.399999999907","resources/trios/L4T2A3.jpg","37","restless",0.7,0.5,0.4,0.193350886562504,"true"
"image-keyboard-response",205,342020,"0.0-4.64-1.64","qz8cgch5nkp9j2p",966,"18.csv","","null","resources/maskTrios/L4BB.jpg","null","",NA,NA,NA,NA,""
"image-keyboard-response",206,343221,"0.0-4.64-2.64","qz8cgch5nkp9j2p",966,"18.csv","","null","resources/images/coin2.png","null","",NA,NA,NA,NA,""
"image-keyboard-response",207,343579,"0.0-4.65-0.65","qz8cgch5nkp9j2p",966,"18.csv","","355.79999999981374","resources/trios/L4T2A3.jpg","38","restless",0.7,0.5,0.4,0.912029470514704,"false"
"image-keyboard-response",208,343985,"0.0-4.65-1.65","qz8cgch5nkp9j2p",966,"18.csv","","null","resources/maskTrios/BT2B.jpg","null","",NA,NA,NA,NA,""
"image-keyboard-response",209,345193,"0.0-4.65-2.65","qz8cgch5nkp9j2p",966,"18.csv","","null","resources/images/fishbone.png","null","",NA,NA,NA,NA,""
"image-keyboard-response",210,345468,"0.0-4.66-0.66","qz8cgch5nkp9j2p",966,"18.csv","","273.20000000018626","resources/trios/L4T2A3.jpg","39","restless",0.7,0.5,0.4,0.30797477213636,"true"
"image-keyboard-response",211,345873,"0.0-4.66-1.66","qz8cgch5nkp9j2p",966,"18.csv","","null","resources/maskTrios/BBA3.jpg","null","",NA,NA,NA,NA,""
"image-keyboard-response",212,347075,"0.0-4.66-2.66","qz8cgch5nkp9j2p",966,"18.csv","","null","resources/images/coin2.png","null","",NA,NA,NA,NA,""
"image-keyboard-response",213,348971,"0.0-4.67-0.67","qz8cgch5nkp9j2p",966,"18.csv","","1895.1000000000931","resources/trios/L4T2A3.jpg","37","restless",0.7,0.5,0.4,0.341050777404615,"true"
"image-keyboard-response",214,349373,"0.0-4.67-1.67","qz8cgch5nkp9j2p",966,"18.csv","","null","resources/maskTrios/L4BB.jpg","null","",NA,NA,NA,NA,""
"image-keyboard-response",215,350581,"0.0-4.67-2.67","qz8cgch5nkp9j2p",966,"18.csv","","null","resources/images/coin2.png","null","",NA,NA,NA,NA,""
"image-keyboard-response",216,350922,"0.0-4.68-0.68","qz8cgch5nkp9j2p",966,"18.csv","","339.20000000018626","resources/trios/L4T2A3.jpg","39","restless",0.7,0.5,0.4,0.224705137010809,"true"
"image-keyboard-response",217,351324,"0.0-4.68-1.68","qz8cgch5nkp9j2p",966,"18.csv","","null","resources/maskTrios/BBA3.jpg","null","",NA,NA,NA,NA,""
"image-keyboard-response",218,352532,"0.0-4.68-2.68","qz8cgch5nkp9j2p",966,"18.csv","","null","resources/images/coin2.png","null","",NA,NA,NA,NA,""
"image-keyboard-response",219,352901,"0.0-4.69-0.69","qz8cgch5nkp9j2p",966,"18.csv","","367.8000000002794","resources/trios/L4T2A3.jpg","37","restless",0.7,0.5,0.4,0.285562475201445,"true"
"image-keyboard-response",220,353303,"0.0-4.69-1.69","qz8cgch5nkp9j2p",966,"18.csv","","null","resources/maskTrios/L4BB.jpg","null","",NA,NA,NA,NA,""
"image-keyboard-response",221,354510,"0.0-4.69-2.69","qz8cgch5nkp9j2p",966,"18.csv","","null","resources/images/coin2.png","null","",NA,NA,NA,NA,""
"image-keyboard-response",222,354965,"0.0-4.70-0.70","qz8cgch5nkp9j2p",966,"18.csv","","452.89999999990687","resources/trios/L4T2A3.jpg","39","restless",0.7,0.5,0.4,0.768888663879888,"false"
"image-keyboard-response",223,355372,"0.0-4.70-1.70","qz8cgch5nkp9j2p",966,"18.csv","","null","resources/maskTrios/BBA3.jpg","null","",NA,NA,NA,NA,""
"image-keyboard-response",224,356579,"0.0-4.70-2.70","qz8cgch5nkp9j2p",966,"18.csv","","null","resources/images/fishbone.png","null","",NA,NA,NA,NA,""
"image-keyboard-response",225,357777,"0.0-4.71-0.71","qz8cgch5nkp9j2p",966,"18.csv","","1195.8999999999069","resources/trios/L4T2A3.jpg","38","restless",0.7,0.6,0.4,0.314321355376258,"true"
"image-keyboard-response",226,358184,"0.0-4.71-1.71","qz8cgch5nkp9j2p",966,"18.csv","","null","resources/maskTrios/BT2B.jpg","null","",NA,NA,NA,NA,""
"image-keyboard-response",227,359391,"0.0-4.71-2.71","qz8cgch5nkp9j2p",966,"18.csv","","null","resources/images/coin2.png","null","",NA,NA,NA,NA,""
"image-keyboard-response",228,359688,"0.0-4.72-0.72","qz8cgch5nkp9j2p",966,"18.csv","","295.39999999990687","resources/trios/L4T2A3.jpg","39","restless",0.6,0.6,0.4,0.083218744392566,"true"
"image-keyboard-response",229,360092,"0.0-4.72-1.72","qz8cgch5nkp9j2p",966,"18.csv","","null","resources/maskTrios/BBA3.jpg","null","",NA,NA,NA,NA,""
"image-keyboard-response",230,361294,"0.0-4.72-2.72","qz8cgch5nkp9j2p",966,"18.csv","","null","resources/images/coin2.png","null","",NA,NA,NA,NA,""
"image-keyboard-response",231,361296,"0.0-4.73-0.73","qz8cgch5nkp9j2p",966,"18.csv","","0.2999999998137355","resources/trios/L4T2A3.jpg","38","restless",0.6,0.6,0.4,0.897282509951632,"false"
"image-keyboard-response",232,361703,"0.0-4.73-1.73","qz8cgch5nkp9j2p",966,"18.csv","","null","resources/maskTrios/BT2B.jpg","null","",NA,NA,NA,NA,""
"image-keyboard-response",233,362905,"0.0-4.73-2.73","qz8cgch5nkp9j2p",966,"18.csv","","null","resources/images/fishbone.png","null","",NA,NA,NA,NA,""
"image-keyboard-response",234,364465,"0.0-4.74-0.74","qz8cgch5nkp9j2p",966,"18.csv","","1558.7000000001863","resources/trios/L4T2A3.jpg","37","restless",0.6,0.6,0.4,0.202927504347833,"true"
"image-keyboard-response",235,364870,"0.0-4.74-1.74","qz8cgch5nkp9j2p",966,"18.csv","","null","resources/maskTrios/L4BB.jpg","null","",NA,NA,NA,NA,""
"image-keyboard-response",236,366071,"0.0-4.74-2.74","qz8cgch5nkp9j2p",966,"18.csv","","null","resources/images/coin2.png","null","",NA,NA,NA,NA,""
"image-keyboard-response",237,366395,"0.0-4.75-0.75","qz8cgch5nkp9j2p",966,"18.csv","","322.1999999997206","resources/trios/L4T2A3.jpg","38","restless",0.6,0.6,0.4,0.576380539367213,"true"
"image-keyboard-response",238,366800,"0.0-4.75-1.75","qz8cgch5nkp9j2p",966,"18.csv","","null","resources/maskTrios/BT2B.jpg","null","",NA,NA,NA,NA,""
"image-keyboard-response",239,368001,"0.0-4.75-2.75","qz8cgch5nkp9j2p",966,"18.csv","","null","resources/images/coin2.png","null","",NA,NA,NA,NA,""
"image-keyboard-response",240,368453,"0.0-4.76-0.76","qz8cgch5nkp9j2p",966,"18.csv","","449.39999999990687","resources/trios/L4T2A3.jpg","37","restless",0.6,0.6,0.4,0.521016109733589,"true"
"image-keyboard-response",241,368855,"0.0-4.76-1.76","qz8cgch5nkp9j2p",966,"18.csv","","null","resources/maskTrios/L4BB.jpg","null","",NA,NA,NA,NA,""
"image-keyboard-response",242,370058,"0.0-4.76-2.76","qz8cgch5nkp9j2p",966,"18.csv","","null","resources/images/coin2.png","null","",NA,NA,NA,NA,""
"image-keyboard-response",243,370450,"0.0-4.77-0.77","qz8cgch5nkp9j2p",966,"18.csv","","389.89999999990687","resources/trios/L4T2A3.jpg","38","restless",0.6,0.6,0.4,0.318661277222541,"true"
"image-keyboard-response",244,370855,"0.0-4.77-1.77","qz8cgch5nkp9j2p",966,"18.csv","","null","resources/maskTrios/BT2B.jpg","null","",NA,NA,NA,NA,""
"image-keyboard-response",245,372056,"0.0-4.77-2.77","qz8cgch5nkp9j2p",966,"18.csv","","null","resources/images/coin2.png","null","",NA,NA,NA,NA,""
"image-keyboard-response",246,374677,"0.0-4.78-0.78","qz8cgch5nkp9j2p",966,"18.csv","","2618.7000000001863","resources/trios/L4T2A3.jpg","38","restless",0.5,0.6,0.4,0.235347696662777,"true"
"image-keyboard-response",247,375083,"0.0-4.78-1.78","qz8cgch5nkp9j2p",966,"18.csv","","null","resources/maskTrios/BT2B.jpg","null","",NA,NA,NA,NA,""
"image-keyboard-response",248,376285,"0.0-4.78-2.78","qz8cgch5nkp9j2p",966,"18.csv","","null","resources/images/coin2.png","null","",NA,NA,NA,NA,""
"image-keyboard-response",249,376741,"0.0-4.79-0.79","qz8cgch5nkp9j2p",966,"18.csv","","454.60000000009313","resources/trios/L4T2A3.jpg","39","restless",0.5,0.6,0.4,0.847385419175259,"false"
"image-keyboard-response",250,377145,"0.0-4.79-1.79","qz8cgch5nkp9j2p",966,"18.csv","","null","resources/maskTrios/BBA3.jpg","null","",NA,NA,NA,NA,""
"image-keyboard-response",251,378346,"0.0-4.79-2.79","qz8cgch5nkp9j2p",966,"18.csv","","null","resources/images/fishbone.png","null","",NA,NA,NA,NA,""
"image-keyboard-response",252,379415,"0.0-4.80-0.80","qz8cgch5nkp9j2p",966,"18.csv","","1067.4000000003725","resources/trios/L4T2A3.jpg","37","restless",0.5,0.6,0.4,0.654557596515266,"false"
"image-keyboard-response",253,379818,"0.0-4.80-1.80","qz8cgch5nkp9j2p",966,"18.csv","","null","resources/maskTrios/L4BB.jpg","null","",NA,NA,NA,NA,""
"image-keyboard-response",254,381020,"0.0-4.80-2.80","qz8cgch5nkp9j2p",966,"18.csv","","null","resources/images/fishbone.png","null","",NA,NA,NA,NA,""
"image-keyboard-response",255,381333,"0.0-4.81-0.81","qz8cgch5nkp9j2p",966,"18.csv","","312.10000000009313","resources/trios/L4T2A3.jpg","37","restless",0.5,0.6,0.4,0.829599317844525,"false"
"image-keyboard-response",256,381741,"0.0-4.81-1.81","qz8cgch5nkp9j2p",966,"18.csv","","null","resources/maskTrios/L4BB.jpg","null","",NA,NA,NA,NA,""
"image-keyboard-response",257,382943,"0.0-4.81-2.81","qz8cgch5nkp9j2p",966,"18.csv","","null","resources/images/fishbone.png","null","",NA,NA,NA,NA,""
"image-keyboard-response",258,383656,"0.0-4.82-0.82","qz8cgch5nkp9j2p",966,"18.csv","","712","resources/trios/L4T2A3.jpg","38","restless",0.4,0.6,0.4,0.524510770831732,"true"
"image-keyboard-response",259,384058,"0.0-4.82-1.82","qz8cgch5nkp9j2p",966,"18.csv","","null","resources/maskTrios/BT2B.jpg","null","",NA,NA,NA,NA,""
"image-keyboard-response",260,385262,"0.0-4.82-2.82","qz8cgch5nkp9j2p",966,"18.csv","","null","resources/images/coin2.png","null","",NA,NA,NA,NA,""
"image-keyboard-response",261,386169,"0.0-4.83-0.83","qz8cgch5nkp9j2p",966,"18.csv","","905.2000000001863","resources/trios/L4T2A3.jpg","39","restless",0.4,0.6,0.4,0.756058034749789,"false"
"image-keyboard-response",262,386574,"0.0-4.83-1.83","qz8cgch5nkp9j2p",966,"18.csv","","null","resources/maskTrios/BBA3.jpg","null","",NA,NA,NA,NA,""
"image-keyboard-response",263,387775,"0.0-4.83-2.83","qz8cgch5nkp9j2p",966,"18.csv","","null","resources/images/fishbone.png","null","",NA,NA,NA,NA,""
"image-keyboard-response",264,388134,"0.0-4.84-0.84","qz8cgch5nkp9j2p",966,"18.csv","","357.39999999990687","resources/trios/L4T2A3.jpg","38","restless",0.3,0.6,0.4,0.510475924359641,"true"
"image-keyboard-response",265,388539,"0.0-4.84-1.84","qz8cgch5nkp9j2p",966,"18.csv","","null","resources/maskTrios/BT2B.jpg","null","",NA,NA,NA,NA,""
"image-keyboard-response",266,389740,"0.0-4.84-2.84","qz8cgch5nkp9j2p",966,"18.csv","","null","resources/images/coin2.png","null","",NA,NA,NA,NA,""
"image-keyboard-response",267,390080,"0.0-4.85-0.85","qz8cgch5nkp9j2p",966,"18.csv","","337.8000000002794","resources/trios/L4T2A3.jpg","38","restless",0.3,0.6,0.4,0.547559510004388,"true"
"image-keyboard-response",268,390483,"0.0-4.85-1.85","qz8cgch5nkp9j2p",966,"18.csv","","null","resources/maskTrios/BT2B.jpg","null","",NA,NA,NA,NA,""
"image-keyboard-response",269,391684,"0.0-4.85-2.85","qz8cgch5nkp9j2p",966,"18.csv","","null","resources/images/coin2.png","null","",NA,NA,NA,NA,""
"image-keyboard-response",270,392165,"0.0-4.86-0.86","qz8cgch5nkp9j2p",966,"18.csv","","478.60000000009313","resources/trios/L4T2A3.jpg","38","restless",0.3,0.7,0.4,0.297889750068798,"true"
"image-keyboard-response",271,392572,"0.0-4.86-1.86","qz8cgch5nkp9j2p",966,"18.csv","","null","resources/maskTrios/BT2B.jpg","null","",NA,NA,NA,NA,""
"image-keyboard-response",272,393774,"0.0-4.86-2.86","qz8cgch5nkp9j2p",966,"18.csv","","null","resources/images/coin2.png","null","",NA,NA,NA,NA,""
"image-keyboard-response",273,394439,"0.0-4.87-0.87","qz8cgch5nkp9j2p",966,"18.csv","","663.2999999998137","resources/trios/L4T2A3.jpg","38","restless",0.3,0.7,0.4,0.471237379724134,"true"
"image-keyboard-response",274,394844,"0.0-4.87-1.87","qz8cgch5nkp9j2p",966,"18.csv","","null","resources/maskTrios/BT2B.jpg","null","",NA,NA,NA,NA,""
"image-keyboard-response",275,396052,"0.0-4.87-2.87","qz8cgch5nkp9j2p",966,"18.csv","","null","resources/images/coin2.png","null","",NA,NA,NA,NA,""
"image-keyboard-response",276,396499,"0.0-4.88-0.88","qz8cgch5nkp9j2p",966,"18.csv","","445.5","resources/trios/L4T2A3.jpg","38","restless",0.2,0.7,0.4,0.933966808194797,"false"
"image-keyboard-response",277,396905,"0.0-4.88-1.88","qz8cgch5nkp9j2p",966,"18.csv","","null","resources/maskTrios/BT2B.jpg","null","",NA,NA,NA,NA,""
"image-keyboard-response",278,398107,"0.0-4.88-2.88","qz8cgch5nkp9j2p",966,"18.csv","","null","resources/images/fishbone.png","null","",NA,NA,NA,NA,""
"image-keyboard-response",279,398572,"0.0-4.89-0.89","qz8cgch5nkp9j2p",966,"18.csv","","463.59999999962747","resources/trios/L4T2A3.jpg","37","restless",0.2,0.7,0.4,0.449865492470423,"false"
"image-keyboard-response",280,398974,"0.0-4.89-1.89","qz8cgch5nkp9j2p",966,"18.csv","","null","resources/maskTrios/L4BB.jpg","null","",NA,NA,NA,NA,""
"image-keyboard-response",281,400176,"0.0-4.89-2.89","qz8cgch5nkp9j2p",966,"18.csv","","null","resources/images/fishbone.png","null","",NA,NA,NA,NA,""
"image-keyboard-response",282,400667,"0.0-4.90-0.90","qz8cgch5nkp9j2p",966,"18.csv","","489.20000000018626","resources/trios/L4T2A3.jpg","39","restless",0.2,0.7,0.4,0.0109858732161836,"true"
"image-keyboard-response",283,401071,"0.0-4.90-1.90","qz8cgch5nkp9j2p",966,"18.csv","","null","resources/maskTrios/BBA3.jpg","null","",NA,NA,NA,NA,""
"image-keyboard-response",284,402279,"0.0-4.90-2.90","qz8cgch5nkp9j2p",966,"18.csv","","null","resources/images/coin2.png","null","",NA,NA,NA,NA,""
"image-keyboard-response",285,402632,"0.0-4.91-0.91","qz8cgch5nkp9j2p",966,"18.csv","","351.39999999990687","resources/trios/L4T2A3.jpg","39","restless",0.2,0.7,0.4,0.104043022312034,"true"
"image-keyboard-response",286,403036,"0.0-4.91-1.91","qz8cgch5nkp9j2p",966,"18.csv","","null","resources/maskTrios/BBA3.jpg","null","",NA,NA,NA,NA,""
"image-keyboard-response",287,404237,"0.0-4.91-2.91","qz8cgch5nkp9j2p",966,"18.csv","","null","resources/images/coin2.png","null","",NA,NA,NA,NA,""
"image-keyboard-response",288,404566,"0.0-4.92-0.92","qz8cgch5nkp9j2p",966,"18.csv","","327","resources/trios/L4T2A3.jpg","39","restless",0.2,0.6,0.3,0.30885033501678,"false"
"image-keyboard-response",289,404973,"0.0-4.92-1.92","qz8cgch5nkp9j2p",966,"18.csv","","null","resources/maskTrios/BBA3.jpg","null","",NA,NA,NA,NA,""
"image-keyboard-response",290,406175,"0.0-4.92-2.92","qz8cgch5nkp9j2p",966,"18.csv","","null","resources/images/fishbone.png","null","",NA,NA,NA,NA,""
"image-keyboard-response",291,406721,"0.0-4.93-0.93","qz8cgch5nkp9j2p",966,"18.csv","","544.6000000000931","resources/trios/L4T2A3.jpg","38","restless",0.2,0.6,0.3,0.0278390763218801,"true"
"image-keyboard-response",292,407125,"0.0-4.93-1.93","qz8cgch5nkp9j2p",966,"18.csv","","null","resources/maskTrios/BT2B.jpg","null","",NA,NA,NA,NA,""
"image-keyboard-response",293,408327,"0.0-4.93-2.93","qz8cgch5nkp9j2p",966,"18.csv","","null","resources/images/coin2.png","null","",NA,NA,NA,NA,""
"image-keyboard-response",294,408625,"0.0-4.94-0.94","qz8cgch5nkp9j2p",966,"18.csv","","296.89999999990687","resources/trios/L4T2A3.jpg","39","restless",0.2,0.6,0.3,0.244293074855309,"true"
"image-keyboard-response",295,409028,"0.0-4.94-1.94","qz8cgch5nkp9j2p",966,"18.csv","","null","resources/maskTrios/BBA3.jpg","null","",NA,NA,NA,NA,""
"image-keyboard-response",296,410236,"0.0-4.94-2.94","qz8cgch5nkp9j2p",966,"18.csv","","null","resources/images/coin2.png","null","",NA,NA,NA,NA,""
"image-keyboard-response",297,410554,"0.0-4.95-0.95","qz8cgch5nkp9j2p",966,"18.csv","","317.10000000009313","resources/trios/L4T2A3.jpg","38","restless",0.2,0.6,0.3,0.12373190394217,"true"
"image-keyboard-response",298,410958,"0.0-4.95-1.95","qz8cgch5nkp9j2p",966,"18.csv","","null","resources/maskTrios/BT2B.jpg","null","",NA,NA,NA,NA,""
"image-keyboard-response",299,412166,"0.0-4.95-2.95","qz8cgch5nkp9j2p",966,"18.csv","","null","resources/images/coin2.png","null","",NA,NA,NA,NA,""
"image-keyboard-response",300,412423,"0.0-4.96-0.96","qz8cgch5nkp9j2p",966,"18.csv","","255","resources/trios/L4T2A3.jpg","39","restless",0.2,0.6,0.3,0.063980505485481,"true"
"image-keyboard-response",301,412826,"0.0-4.96-1.96","qz8cgch5nkp9j2p",966,"18.csv","","null","resources/maskTrios/BBA3.jpg","null","",NA,NA,NA,NA,""
"image-keyboard-response",302,414034,"0.0-4.96-2.96","qz8cgch5nkp9j2p",966,"18.csv","","null","resources/images/coin2.png","null","",NA,NA,NA,NA,""
"image-keyboard-response",303,414340,"0.0-4.97-0.97","qz8cgch5nkp9j2p",966,"18.csv","","304.60000000009313","resources/trios/L4T2A3.jpg","38","restless",0.2,0.6,0.3,0.612695618007728,"false"
"image-keyboard-response",304,414749,"0.0-4.97-1.97","qz8cgch5nkp9j2p",966,"18.csv","","null","resources/maskTrios/BT2B.jpg","null","",NA,NA,NA,NA,""
"image-keyboard-response",305,415954,"0.0-4.97-2.97","qz8cgch5nkp9j2p",966,"18.csv","","null","resources/images/fishbone.png","null","",NA,NA,NA,NA,""
"image-keyboard-response",306,416553,"0.0-4.98-0.98","qz8cgch5nkp9j2p",966,"18.csv","","598.3000000002794","resources/trios/L4T2A3.jpg","37","restless",0.2,0.6,0.2,0.136020493558369,"true"
"image-keyboard-response",307,416957,"0.0-4.98-1.98","qz8cgch5nkp9j2p",966,"18.csv","","null","resources/maskTrios/L4BB.jpg","null","",NA,NA,NA,NA,""
"image-keyboard-response",308,418159,"0.0-4.98-2.98","qz8cgch5nkp9j2p",966,"18.csv","","null","resources/images/coin2.png","null","",NA,NA,NA,NA,""
"image-keyboard-response",309,418433,"0.0-4.99-0.99","qz8cgch5nkp9j2p",966,"18.csv","","272.89999999990687","resources/trios/L4T2A3.jpg","38","restless",0.2,0.6,0.2,0.295979347732473,"true"
"image-keyboard-response",310,418839,"0.0-4.99-1.99","qz8cgch5nkp9j2p",966,"18.csv","","null","resources/maskTrios/BT2B.jpg","null","",NA,NA,NA,NA,""
"image-keyboard-response",311,420047,"0.0-4.99-2.99","qz8cgch5nkp9j2p",966,"18.csv","","null","resources/images/coin2.png","null","",NA,NA,NA,NA,""
"image-keyboard-response",312,420347,"0.0-4.100-0.100","qz8cgch5nkp9j2p",966,"18.csv","","299.10000000009313","resources/trios/L4T2A3.jpg","37","restless",0.2,0.6,0.2,0.858583971988996,"false"
"image-keyboard-response",313,420755,"0.0-4.100-1.100","qz8cgch5nkp9j2p",966,"18.csv","","null","resources/maskTrios/L4BB.jpg","null","",NA,NA,NA,NA,""
"image-keyboard-response",314,421956,"0.0-4.100-2.100","qz8cgch5nkp9j2p",966,"18.csv","","null","resources/images/fishbone.png","null","",NA,NA,NA,NA,""
"image-keyboard-response",315,424595,"0.0-4.101-0.101","qz8cgch5nkp9j2p",966,"18.csv","","2637.5","resources/trios/L4T2A3.jpg","38","restless",0.2,0.6,0.2,0.203412169826414,"true"
"image-keyboard-response",316,424997,"0.0-4.101-1.101","qz8cgch5nkp9j2p",966,"18.csv","","null","resources/maskTrios/BT2B.jpg","null","",NA,NA,NA,NA,""
"image-keyboard-response",317,426205,"0.0-4.101-2.101","qz8cgch5nkp9j2p",966,"18.csv","","null","resources/images/coin2.png","null","",NA,NA,NA,NA,""
"image-keyboard-response",318,426507,"0.0-4.102-0.102","qz8cgch5nkp9j2p",966,"18.csv","","300.60000000009313","resources/trios/L4T2A3.jpg","39","restless",0.2,0.6,0.2,0.183570274020071,"true"
"image-keyboard-response",319,426913,"0.0-4.102-1.102","qz8cgch5nkp9j2p",966,"18.csv","","null","resources/maskTrios/BBA3.jpg","null","",NA,NA,NA,NA,""
"image-keyboard-response",320,428115,"0.0-4.102-2.102","qz8cgch5nkp9j2p",966,"18.csv","","null","resources/images/coin2.png","null","",NA,NA,NA,NA,""
"image-keyboard-response",321,428416,"0.0-4.103-0.103","qz8cgch5nkp9j2p",966,"18.csv","","299.89999999990687","resources/trios/L4T2A3.jpg","37","restless",0.2,0.5,0.2,0.102325115036497,"true"
"image-keyboard-response",322,428823,"0.0-4.103-1.103","qz8cgch5nkp9j2p",966,"18.csv","","null","resources/maskTrios/L4BB.jpg","null","",NA,NA,NA,NA,""
"image-keyboard-response",323,430024,"0.0-4.103-2.103","qz8cgch5nkp9j2p",966,"18.csv","","null","resources/images/coin2.png","null","",NA,NA,NA,NA,""
"image-keyboard-response",324,430311,"0.0-4.104-0.104","qz8cgch5nkp9j2p",966,"18.csv","","285.5","resources/trios/L4T2A3.jpg","38","restless",0.3,0.5,0.2,0.549759654042892,"false"
"image-keyboard-response",325,430718,"0.0-4.104-1.104","qz8cgch5nkp9j2p",966,"18.csv","","null","resources/maskTrios/BT2B.jpg","null","",NA,NA,NA,NA,""
"image-keyboard-response",326,431919,"0.0-4.104-2.104","qz8cgch5nkp9j2p",966,"18.csv","","null","resources/images/fishbone.png","null","",NA,NA,NA,NA,""
"image-keyboard-response",327,433661,"0.0-4.105-0.105","qz8cgch5nkp9j2p",966,"18.csv","","1739.7999999998137","resources/trios/L4T2A3.jpg","37","restless",0.3,0.6,0.2,0.056202618952075,"true"
"image-keyboard-response",328,434064,"0.0-4.105-1.105","qz8cgch5nkp9j2p",966,"18.csv","","null","resources/maskTrios/L4BB.jpg","null","",NA,NA,NA,NA,""
"image-keyboard-response",329,435266,"0.0-4.105-2.105","qz8cgch5nkp9j2p",966,"18.csv","","null","resources/images/coin2.png","null","",NA,NA,NA,NA,""
"image-keyboard-response",330,435594,"0.0-4.106-0.106","qz8cgch5nkp9j2p",966,"18.csv","","326.89999999990687","resources/trios/L4T2A3.jpg","39","restless",0.3,0.6,0.2,0.271367004864672,"false"
"image-keyboard-response",331,436002,"0.0-4.106-1.106","qz8cgch5nkp9j2p",966,"18.csv","","null","resources/maskTrios/BBA3.jpg","null","",NA,NA,NA,NA,""
"image-keyboard-response",332,437203,"0.0-4.106-2.106","qz8cgch5nkp9j2p",966,"18.csv","","null","resources/images/fishbone.png","null","",NA,NA,NA,NA,""
"image-keyboard-response",333,438138,"0.0-4.107-0.107","qz8cgch5nkp9j2p",966,"18.csv","","932.8000000002794","resources/trios/L4T2A3.jpg","38","restless",0.4,0.6,0.2,0.0644362093590471,"true"
"image-keyboard-response",334,438543,"0.0-4.107-1.107","qz8cgch5nkp9j2p",966,"18.csv","","null","resources/maskTrios/BT2B.jpg","null","",NA,NA,NA,NA,""
"image-keyboard-response",335,439744,"0.0-4.107-2.107","qz8cgch5nkp9j2p",966,"18.csv","","null","resources/images/coin2.png","null","",NA,NA,NA,NA,""
"image-keyboard-response",336,440294,"0.0-4.108-0.108","qz8cgch5nkp9j2p",966,"18.csv","","548.3999999999069","resources/trios/L4T2A3.jpg","37","restless",0.4,0.6,0.2,0.211058977962311,"true"
"image-keyboard-response",337,440702,"0.0-4.108-1.108","qz8cgch5nkp9j2p",966,"18.csv","","null","resources/maskTrios/L4BB.jpg","null","",NA,NA,NA,NA,""
"image-keyboard-response",338,441910,"0.0-4.108-2.108","qz8cgch5nkp9j2p",966,"18.csv","","null","resources/images/coin2.png","null","",NA,NA,NA,NA,""
"image-keyboard-response",339,442259,"0.0-4.109-0.109","qz8cgch5nkp9j2p",966,"18.csv","","347.29999999981374","resources/trios/L4T2A3.jpg","38","restless",0.3,0.6,0.2,0.914843994333862,"false"
"image-keyboard-response",340,442660,"0.0-4.109-1.109","qz8cgch5nkp9j2p",966,"18.csv","","null","resources/maskTrios/BT2B.jpg","null","",NA,NA,NA,NA,""
"image-keyboard-response",341,443868,"0.0-4.109-2.109","qz8cgch5nkp9j2p",966,"18.csv","","null","resources/images/fishbone.png","null","",NA,NA,NA,NA,""
"image-keyboard-response",342,445271,"0.0-4.110-0.110","qz8cgch5nkp9j2p",966,"18.csv","","1400.7999999998137","resources/trios/L4T2A3.jpg","39","restless",0.3,0.6,0.2,0.568717410751487,"false"
"image-keyboard-response",343,445674,"0.0-4.110-1.110","qz8cgch5nkp9j2p",966,"18.csv","","null","resources/maskTrios/BBA3.jpg","null","",NA,NA,NA,NA,""
"image-keyboard-response",344,446882,"0.0-4.110-2.110","qz8cgch5nkp9j2p",966,"18.csv","","null","resources/images/fishbone.png","null","",NA,NA,NA,NA,""
"image-keyboard-response",345,448848,"0.0-4.111-0.111","qz8cgch5nkp9j2p",966,"18.csv","","1964.6000000000931","resources/trios/L4T2A3.jpg","38","restless",0.3,0.6,0.2,0.580536012759287,"true"
"image-keyboard-response",346,449251,"0.0-4.111-1.111","qz8cgch5nkp9j2p",966,"18.csv","","null","resources/maskTrios/BT2B.jpg","null","",NA,NA,NA,NA,""
"image-keyboard-response",347,450457,"0.0-4.111-2.111","qz8cgch5nkp9j2p",966,"18.csv","","null","resources/images/coin2.png","null","",NA,NA,NA,NA,""
"image-keyboard-response",348,450723,"0.0-4.112-0.112","qz8cgch5nkp9j2p",966,"18.csv","","265","resources/trios/L4T2A3.jpg","39","restless",0.3,0.6,0.2,0.877903527896684,"false"
"image-keyboard-response",349,451131,"0.0-4.112-1.112","qz8cgch5nkp9j2p",966,"18.csv","","null","resources/maskTrios/BBA3.jpg","null","",NA,NA,NA,NA,""
"image-keyboard-response",350,452339,"0.0-4.112-2.112","qz8cgch5nkp9j2p",966,"18.csv","","null","resources/images/fishbone.png","null","",NA,NA,NA,NA,""
"image-keyboard-response",351,453073,"0.0-4.113-0.113","qz8cgch5nkp9j2p",966,"18.csv","","732.3999999999069","resources/trios/L4T2A3.jpg","37","restless",0.3,0.6,0.2,0.0320677332596557,"true"
"image-keyboard-response",352,453478,"0.0-4.113-1.113","qz8cgch5nkp9j2p",966,"18.csv","","null","resources/maskTrios/L4BB.jpg","null","",NA,NA,NA,NA,""
"image-keyboard-response",353,454686,"0.0-4.113-2.113","qz8cgch5nkp9j2p",966,"18.csv","","null","resources/images/coin2.png","null","",NA,NA,NA,NA,""
"image-keyboard-response",354,455081,"0.0-4.114-0.114","qz8cgch5nkp9j2p",966,"18.csv","","394","resources/trios/L4T2A3.jpg","38","restless",0.3,0.6,0.2,0.533241619784604,"true"
"image-keyboard-response",355,455484,"0.0-4.114-1.114","qz8cgch5nkp9j2p",966,"18.csv","","null","resources/maskTrios/BT2B.jpg","null","",NA,NA,NA,NA,""
"image-keyboard-response",356,456692,"0.0-4.114-2.114","qz8cgch5nkp9j2p",966,"18.csv","","null","resources/images/coin2.png","null","",NA,NA,NA,NA,""
"image-keyboard-response",357,457047,"0.0-4.115-0.115","qz8cgch5nkp9j2p",966,"18.csv","","353","resources/trios/L4T2A3.jpg","37","restless",0.3,0.6,0.2,0.708410890816884,"false"
"image-keyboard-response",358,457449,"0.0-4.115-1.115","qz8cgch5nkp9j2p",966,"18.csv","","null","resources/maskTrios/L4BB.jpg","null","",NA,NA,NA,NA,""
"image-keyboard-response",359,458650,"0.0-4.115-2.115","qz8cgch5nkp9j2p",966,"18.csv","","null","resources/images/fishbone.png","null","",NA,NA,NA,NA,""
"image-keyboard-response",360,462406,"0.0-4.116-0.116","qz8cgch5nkp9j2p",966,"18.csv","","3753.899999999907","resources/trios/L4T2A3.jpg","39","restless",0.3,0.6,0.2,0.331232507261461,"false"
"image-keyboard-response",361,462809,"0.0-4.116-1.116","qz8cgch5nkp9j2p",966,"18.csv","","null","resources/maskTrios/BBA3.jpg","null","",NA,NA,NA,NA,""
"image-keyboard-response",362,464010,"0.0-4.116-2.116","qz8cgch5nkp9j2p",966,"18.csv","","null","resources/images/fishbone.png","null","",NA,NA,NA,NA,""
"image-keyboard-response",363,464388,"0.0-4.117-0.117","qz8cgch5nkp9j2p",966,"18.csv","","375.60000000009313","resources/trios/L4T2A3.jpg","38","restless",0.4,0.5,0.2,0.384525497051089,"true"
"image-keyboard-response",364,464795,"0.0-4.117-1.117","qz8cgch5nkp9j2p",966,"18.csv","","null","resources/maskTrios/BT2B.jpg","null","",NA,NA,NA,NA,""
"image-keyboard-response",365,465996,"0.0-4.117-2.117","qz8cgch5nkp9j2p",966,"18.csv","","null","resources/images/coin2.png","null","",NA,NA,NA,NA,""
"image-keyboard-response",366,466274,"0.0-4.118-0.118","qz8cgch5nkp9j2p",966,"18.csv","","276","resources/trios/L4T2A3.jpg","39","restless",0.4,0.5,0.2,0.74768288906692,"false"
"image-keyboard-response",367,466677,"0.0-4.118-1.118","qz8cgch5nkp9j2p",966,"18.csv","","null","resources/maskTrios/BBA3.jpg","null","",NA,NA,NA,NA,""
"image-keyboard-response",368,467885,"0.0-4.118-2.118","qz8cgch5nkp9j2p",966,"18.csv","","null","resources/images/fishbone.png","null","",NA,NA,NA,NA,""
"image-keyboard-response",369,468280,"0.0-4.119-0.119","qz8cgch5nkp9j2p",966,"18.csv","","393.79999999981374","resources/trios/L4T2A3.jpg","38","restless",0.4,0.5,0.2,0.645174922350518,"false"
"image-keyboard-response",370,468683,"0.0-4.119-1.119","qz8cgch5nkp9j2p",966,"18.csv","","null","resources/maskTrios/BT2B.jpg","null","",NA,NA,NA,NA,""
"image-keyboard-response",371,469890,"0.0-4.119-2.119","qz8cgch5nkp9j2p",966,"18.csv","","null","resources/images/fishbone.png","null","",NA,NA,NA,NA,""
"image-keyboard-response",372,470226,"0.0-4.120-0.120","qz8cgch5nkp9j2p",966,"18.csv","","335.60000000009313","resources/trios/L4T2A3.jpg","39","restless",0.4,0.4,0.2,0.348601802539217,"false"
"image-keyboard-response",373,470634,"0.0-4.120-1.120","qz8cgch5nkp9j2p",966,"18.csv","","null","resources/maskTrios/BBA3.jpg","null","",NA,NA,NA,NA,""
"image-keyboard-response",374,471835,"0.0-4.120-2.120","qz8cgch5nkp9j2p",966,"18.csv","","null","resources/images/fishbone.png","null","",NA,NA,NA,NA,""
"image-keyboard-response",375,472087,"0.0-4.121-0.121","qz8cgch5nkp9j2p",966,"18.csv","","249.89999999990687","resources/trios/L4T2A3.jpg","37","restless",0.4,0.4,0.2,0.949584043935351,"false"
"image-keyboard-response",376,472495,"0.0-4.121-1.121","qz8cgch5nkp9j2p",966,"18.csv","","null","resources/maskTrios/L4BB.jpg","null","",NA,NA,NA,NA,""
"image-keyboard-response",377,473696,"0.0-4.121-2.121","qz8cgch5nkp9j2p",966,"18.csv","","null","resources/images/fishbone.png","null","",NA,NA,NA,NA,""
"image-keyboard-response",378,473902,"0.0-4.122-0.122","qz8cgch5nkp9j2p",966,"18.csv","","204.60000000009313","resources/trios/L4T2A3.jpg","38","restless",0.4,0.4,0.2,0.405123149685933,"false"
"image-keyboard-response",379,474304,"0.0-4.122-1.122","qz8cgch5nkp9j2p",966,"18.csv","","null","resources/maskTrios/BT2B.jpg","null","",NA,NA,NA,NA,""
"image-keyboard-response",380,475508,"0.0-4.122-2.122","qz8cgch5nkp9j2p",966,"18.csv","","null","resources/images/fishbone.png","null","",NA,NA,NA,NA,""
"image-keyboard-response",381,475789,"0.0-4.123-0.123","qz8cgch5nkp9j2p",966,"18.csv","","278.89999999990687","resources/trios/L4T2A3.jpg","37","restless",0.4,0.4,0.2,0.362185473226428,"true"
"image-keyboard-response",382,476196,"0.0-4.123-1.123","qz8cgch5nkp9j2p",966,"18.csv","","null","resources/maskTrios/L4BB.jpg","null","",NA,NA,NA,NA,""
"image-keyboard-response",383,477403,"0.0-4.123-2.123","qz8cgch5nkp9j2p",966,"18.csv","","null","resources/images/coin2.png","null","",NA,NA,NA,NA,""
"image-keyboard-response",384,477730,"0.0-4.124-0.124","qz8cgch5nkp9j2p",966,"18.csv","","325","resources/trios/L4T2A3.jpg","37","restless",0.4,0.4,0.2,0.715116069272725,"false"
"image-keyboard-response",385,478132,"0.0-4.124-1.124","qz8cgch5nkp9j2p",966,"18.csv","","null","resources/maskTrios/L4BB.jpg","null","",NA,NA,NA,NA,""
"image-keyboard-response",386,479334,"0.0-4.124-2.124","qz8cgch5nkp9j2p",966,"18.csv","","null","resources/images/fishbone.png","null","",NA,NA,NA,NA,""
"image-keyboard-response",387,479678,"0.0-4.125-0.125","qz8cgch5nkp9j2p",966,"18.csv","","342.29999999981374","resources/trios/L4T2A3.jpg","39","restless",0.4,0.4,0.2,0.031018454914747,"true"
"image-keyboard-response",388,480080,"0.0-4.125-1.125","qz8cgch5nkp9j2p",966,"18.csv","","null","resources/maskTrios/BBA3.jpg","null","",NA,NA,NA,NA,""
"image-keyboard-response",389,481282,"0.0-4.125-2.125","qz8cgch5nkp9j2p",966,"18.csv","","null","resources/images/coin2.png","null","",NA,NA,NA,NA,""
"image-keyboard-response",390,481596,"0.0-4.126-0.126","qz8cgch5nkp9j2p",966,"18.csv","","312.89999999990687","resources/trios/L4T2A3.jpg","37","restless",0.4,0.4,0.2,0.0569413153893945,"true"
"image-keyboard-response",391,482000,"0.0-4.126-1.126","qz8cgch5nkp9j2p",966,"18.csv","","null","resources/maskTrios/L4BB.jpg","null","",NA,NA,NA,NA,""
"image-keyboard-response",392,483208,"0.0-4.126-2.126","qz8cgch5nkp9j2p",966,"18.csv","","null","resources/images/coin2.png","null","",NA,NA,NA,NA,""
"image-keyboard-response",393,483516,"0.0-4.127-0.127","qz8cgch5nkp9j2p",966,"18.csv","","306.3000000002794","resources/trios/L4T2A3.jpg","38","restless",0.5,0.4,0.2,0.130934503841576,"true"
"image-keyboard-response",394,483923,"0.0-4.127-1.127","qz8cgch5nkp9j2p",966,"18.csv","","null","resources/maskTrios/BT2B.jpg","null","",NA,NA,NA,NA,""
"image-keyboard-response",395,485131,"0.0-4.127-2.127","qz8cgch5nkp9j2p",966,"18.csv","","null","resources/images/coin2.png","null","",NA,NA,NA,NA,""
"image-keyboard-response",396,485483,"0.0-4.128-0.128","qz8cgch5nkp9j2p",966,"18.csv","","350.29999999981374","resources/trios/L4T2A3.jpg","39","restless",0.5,0.4,0.2,0.0133660675099099,"true"
"image-keyboard-response",397,485888,"0.0-4.128-1.128","qz8cgch5nkp9j2p",966,"18.csv","","null","resources/maskTrios/BBA3.jpg","null","",NA,NA,NA,NA,""
"image-keyboard-response",398,487089,"0.0-4.128-2.128","qz8cgch5nkp9j2p",966,"18.csv","","null","resources/images/coin2.png","null","",NA,NA,NA,NA,""
"image-keyboard-response",399,487406,"0.0-4.129-0.129","qz8cgch5nkp9j2p",966,"18.csv","","315.09999999962747","resources/trios/L4T2A3.jpg","37","restless",0.5,0.4,0.2,0.848330625422948,"false"
"image-keyboard-response",400,487811,"0.0-4.129-1.129","qz8cgch5nkp9j2p",966,"18.csv","","null","resources/maskTrios/L4BB.jpg","null","",NA,NA,NA,NA,""
"image-keyboard-response",401,489019,"0.0-4.129-2.129","qz8cgch5nkp9j2p",966,"18.csv","","null","resources/images/fishbone.png","null","",NA,NA,NA,NA,""
"image-keyboard-response",402,489776,"0.0-4.130-0.130","qz8cgch5nkp9j2p",966,"18.csv","","755.1000000000931","resources/trios/L4T2A3.jpg","38","restless",0.5,0.4,0.2,0.328507919256376,"true"
"image-keyboard-response",403,490179,"0.0-4.130-1.130","qz8cgch5nkp9j2p",966,"18.csv","","null","resources/maskTrios/BT2B.jpg","null","",NA,NA,NA,NA,""
"image-keyboard-response",404,491387,"0.0-4.130-2.130","qz8cgch5nkp9j2p",966,"18.csv","","null","resources/images/coin2.png","null","",NA,NA,NA,NA,""
"image-keyboard-response",405,491680,"0.0-4.131-0.131","qz8cgch5nkp9j2p",966,"18.csv","","291.20000000018626","resources/trios/L4T2A3.jpg","37","restless",0.6,0.5,0.2,0.80332232589695,"false"
"image-keyboard-response",406,492082,"0.0-4.131-1.131","qz8cgch5nkp9j2p",966,"18.csv","","null","resources/maskTrios/L4BB.jpg","null","",NA,NA,NA,NA,""
"image-keyboard-response",407,493289,"0.0-4.131-2.131","qz8cgch5nkp9j2p",966,"18.csv","","null","resources/images/fishbone.png","null","",NA,NA,NA,NA,""
"image-keyboard-response",408,493590,"0.0-4.132-0.132","qz8cgch5nkp9j2p",966,"18.csv","","299","resources/trios/L4T2A3.jpg","38","restless",0.6,0.5,0.2,0.250854195592923,"true"
"image-keyboard-response",409,493997,"0.0-4.132-1.132","qz8cgch5nkp9j2p",966,"18.csv","","null","resources/maskTrios/BT2B.jpg","null","",NA,NA,NA,NA,""
"image-keyboard-response",410,495198,"0.0-4.132-2.132","qz8cgch5nkp9j2p",966,"18.csv","","null","resources/images/coin2.png","null","",NA,NA,NA,NA,""
"image-keyboard-response",411,495508,"0.0-4.133-0.133","qz8cgch5nkp9j2p",966,"18.csv","","309.60000000009313","resources/trios/L4T2A3.jpg","39","restless",0.6,0.5,0.2,0.530752703711044,"false"
"image-keyboard-response",412,495913,"0.0-4.133-1.133","qz8cgch5nkp9j2p",966,"18.csv","","null","resources/maskTrios/BBA3.jpg","null","",NA,NA,NA,NA,""
"image-keyboard-response",413,497115,"0.0-4.133-2.133","qz8cgch5nkp9j2p",966,"18.csv","","null","resources/images/fishbone.png","null","",NA,NA,NA,NA,""
"image-keyboard-response",414,497383,"0.0-4.134-0.134","qz8cgch5nkp9j2p",966,"18.csv","","267.39999999990687","resources/trios/L4T2A3.jpg","38","restless",0.6,0.5,0.2,0.230680271989515,"true"
"image-keyboard-response",415,497788,"0.0-4.134-1.134","qz8cgch5nkp9j2p",966,"18.csv","","null","resources/maskTrios/BT2B.jpg","null","",NA,NA,NA,NA,""
"image-keyboard-response",416,498989,"0.0-4.134-2.134","qz8cgch5nkp9j2p",966,"18.csv","","null","resources/images/coin2.png","null","",NA,NA,NA,NA,""
"image-keyboard-response",417,499333,"0.0-4.135-0.135","qz8cgch5nkp9j2p",966,"18.csv","","343.5","resources/trios/L4T2A3.jpg","38","restless",0.6,0.5,0.3,0.382803139990546,"true"
"image-keyboard-response",418,499739,"0.0-4.135-1.135","qz8cgch5nkp9j2p",966,"18.csv","","null","resources/maskTrios/BT2B.jpg","null","",NA,NA,NA,NA,""
"image-keyboard-response",419,500940,"0.0-4.135-2.135","qz8cgch5nkp9j2p",966,"18.csv","","null","resources/images/coin2.png","null","",NA,NA,NA,NA,""
"image-keyboard-response",420,501264,"0.0-4.136-0.136","qz8cgch5nkp9j2p",966,"18.csv","","323.39999999990687","resources/trios/L4T2A3.jpg","38","restless",0.6,0.5,0.3,0.104049499612489,"true"
"image-keyboard-response",421,501669,"0.0-4.136-1.136","qz8cgch5nkp9j2p",966,"18.csv","","null","resources/maskTrios/BT2B.jpg","null","",NA,NA,NA,NA,""
"image-keyboard-response",422,502870,"0.0-4.136-2.136","qz8cgch5nkp9j2p",966,"18.csv","","null","resources/images/coin2.png","null","",NA,NA,NA,NA,""
"image-keyboard-response",423,503186,"0.0-4.137-0.137","qz8cgch5nkp9j2p",966,"18.csv","","314.60000000009313","resources/trios/L4T2A3.jpg","38","restless",0.6,0.5,0.3,0.777784899100459,"false"
"image-keyboard-response",424,503592,"0.0-4.137-1.137","qz8cgch5nkp9j2p",966,"18.csv","","null","resources/maskTrios/BT2B.jpg","null","",NA,NA,NA,NA,""
"image-keyboard-response",425,504794,"0.0-4.137-2.137","qz8cgch5nkp9j2p",966,"18.csv","","null","resources/images/fishbone.png","null","",NA,NA,NA,NA,""
"image-keyboard-response",426,505346,"0.0-4.138-0.138","qz8cgch5nkp9j2p",966,"18.csv","","551.2999999998137","resources/trios/L4T2A3.jpg","37","restless",0.6,0.5,0.3,0.67967626930615,"false"
"image-keyboard-response",427,505752,"0.0-4.138-1.138","qz8cgch5nkp9j2p",966,"18.csv","","null","resources/maskTrios/L4BB.jpg","null","",NA,NA,NA,NA,""
"image-keyboard-response",428,506953,"0.0-4.138-2.138","qz8cgch5nkp9j2p",966,"18.csv","","null","resources/images/fishbone.png","null","",NA,NA,NA,NA,""
"image-keyboard-response",429,507797,"0.0-4.139-0.139","qz8cgch5nkp9j2p",966,"18.csv","","843.8999999999069","resources/trios/L4T2A3.jpg","39","restless",0.6,0.5,0.3,0.276114624585372,"true"
"image-keyboard-response",430,508202,"0.0-4.139-1.139","qz8cgch5nkp9j2p",966,"18.csv","","null","resources/maskTrios/BBA3.jpg","null","",NA,NA,NA,NA,""
"image-keyboard-response",431,509404,"0.0-4.139-2.139","qz8cgch5nkp9j2p",966,"18.csv","","null","resources/images/coin2.png","null","",NA,NA,NA,NA,""
"image-keyboard-response",432,509768,"0.0-4.140-0.140","qz8cgch5nkp9j2p",966,"18.csv","","363.8999999994412","resources/trios/L4T2A3.jpg","37","restless",0.6,0.5,0.3,0.929735576663126,"false"
"image-keyboard-response",433,510174,"0.0-4.140-1.140","qz8cgch5nkp9j2p",966,"18.csv","","null","resources/maskTrios/L4BB.jpg","null","",NA,NA,NA,NA,""
"image-keyboard-response",434,511376,"0.0-4.140-2.140","qz8cgch5nkp9j2p",966,"18.csv","","null","resources/images/fishbone.png","null","",NA,NA,NA,NA,""
"image-keyboard-response",435,511669,"0.0-4.141-0.141","qz8cgch5nkp9j2p",966,"18.csv","","293.09999999962747","resources/trios/L4T2A3.jpg","39","restless",0.6,0.5,0.3,0.499930176635572,"false"
"image-keyboard-response",436,512077,"0.0-4.141-1.141","qz8cgch5nkp9j2p",966,"18.csv","","null","resources/maskTrios/BBA3.jpg","null","",NA,NA,NA,NA,""
"image-keyboard-response",437,513278,"0.0-4.141-2.141","qz8cgch5nkp9j2p",966,"18.csv","","null","resources/images/fishbone.png","null","",NA,NA,NA,NA,""
"image-keyboard-response",438,513520,"0.0-4.142-0.142","qz8cgch5nkp9j2p",966,"18.csv","","241.8999999994412","resources/trios/L4T2A3.jpg","38","restless",0.6,0.5,0.3,0.356375485640029,"true"
"image-keyboard-response",439,513924,"0.0-4.142-1.142","qz8cgch5nkp9j2p",966,"18.csv","","null","resources/maskTrios/BT2B.jpg","null","",NA,NA,NA,NA,""
"image-keyboard-response",440,515125,"0.0-4.142-2.142","qz8cgch5nkp9j2p",966,"18.csv","","null","resources/images/coin2.png","null","",NA,NA,NA,NA,""
"image-keyboard-response",441,515515,"0.0-4.143-0.143","qz8cgch5nkp9j2p",966,"18.csv","","389.5","resources/trios/L4T2A3.jpg","39","restless",0.6,0.5,0.3,0.424841633206575,"false"
"image-keyboard-response",442,515917,"0.0-4.143-1.143","qz8cgch5nkp9j2p",966,"18.csv","","null","resources/maskTrios/BBA3.jpg","null","",NA,NA,NA,NA,""
"image-keyboard-response",443,517125,"0.0-4.143-2.143","qz8cgch5nkp9j2p",966,"18.csv","","null","resources/images/fishbone.png","null","",NA,NA,NA,NA,""
"image-keyboard-response",444,517370,"0.0-4.144-0.144","qz8cgch5nkp9j2p",966,"18.csv","","244.8999999994412","resources/trios/L4T2A3.jpg","38","restless",0.6,0.5,0.3,0.595819452999401,"false"
"image-keyboard-response",445,517777,"0.0-4.144-1.144","qz8cgch5nkp9j2p",966,"18.csv","","null","resources/maskTrios/BT2B.jpg","null","",NA,NA,NA,NA,""
"image-keyboard-response",446,518978,"0.0-4.144-2.144","qz8cgch5nkp9j2p",966,"18.csv","","null","resources/images/fishbone.png","null","",NA,NA,NA,NA,""
"image-keyboard-response",447,519473,"0.0-4.145-0.145","qz8cgch5nkp9j2p",966,"18.csv","","494.3999999994412","resources/trios/L4T2A3.jpg","37","restless",0.7,0.5,0.3,0.9400804371137,"false"
"image-keyboard-response",448,519874,"0.0-4.145-1.145","qz8cgch5nkp9j2p",966,"18.csv","","null","resources/maskTrios/L4BB.jpg","null","",NA,NA,NA,NA,""
"image-keyboard-response",449,521075,"0.0-4.145-2.145","qz8cgch5nkp9j2p",966,"18.csv","","null","resources/images/fishbone.png","null","",NA,NA,NA,NA,""
"image-keyboard-response",450,521713,"0.0-4.146-0.146","qz8cgch5nkp9j2p",966,"18.csv","","637.7000000001863","resources/trios/L4T2A3.jpg","38","restless",0.7,0.5,0.4,0.264952813204341,"true"
"image-keyboard-response",451,522117,"0.0-4.146-1.146","qz8cgch5nkp9j2p",966,"18.csv","","null","resources/maskTrios/BT2B.jpg","null","",NA,NA,NA,NA,""
"image-keyboard-response",452,523318,"0.0-4.146-2.146","qz8cgch5nkp9j2p",966,"18.csv","","null","resources/images/coin2.png","null","",NA,NA,NA,NA,""
"image-keyboard-response",453,525818,"0.0-4.147-0.147","qz8cgch5nkp9j2p",966,"18.csv","","2498.9000000003725","resources/trios/L4T2A3.jpg","37","restless",0.7,0.5,0.4,0.286026266818852,"true"
"image-keyboard-response",454,526220,"0.0-4.147-1.147","qz8cgch5nkp9j2p",966,"18.csv","","null","resources/maskTrios/L4BB.jpg","null","",NA,NA,NA,NA,""
"image-keyboard-response",455,527421,"0.0-4.147-2.147","qz8cgch5nkp9j2p",966,"18.csv","","null","resources/images/coin2.png","null","",NA,NA,NA,NA,""
"image-keyboard-response",456,527710,"0.0-4.148-0.148","qz8cgch5nkp9j2p",966,"18.csv","","288.59999999962747","resources/trios/L4T2A3.jpg","38","restless",0.7,0.5,0.4,0.89045586404908,"false"
"image-keyboard-response",457,528115,"0.0-4.148-1.148","qz8cgch5nkp9j2p",966,"18.csv","","null","resources/maskTrios/BT2B.jpg","null","",NA,NA,NA,NA,""
"image-keyboard-response",458,529316,"0.0-4.148-2.148","qz8cgch5nkp9j2p",966,"18.csv","","null","resources/images/fishbone.png","null","",NA,NA,NA,NA,""
"image-keyboard-response",459,529722,"0.0-4.149-0.149","qz8cgch5nkp9j2p",966,"18.csv","","405.40000000037253","resources/trios/L4T2A3.jpg","39","restless",0.8,0.5,0.4,0.0531694102690767,"true"
"image-keyboard-response",460,530129,"0.0-4.149-1.149","qz8cgch5nkp9j2p",966,"18.csv","","null","resources/maskTrios/BBA3.jpg","null","",NA,NA,NA,NA,""
"image-keyboard-response",461,531330,"0.0-4.149-2.149","qz8cgch5nkp9j2p",966,"18.csv","","null","resources/images/coin2.png","null","",NA,NA,NA,NA,""
"image-keyboard-response",462,531626,"0.0-4.150-0.150","qz8cgch5nkp9j2p",966,"18.csv","","295.1000000005588","resources/trios/L4T2A3.jpg","38","restless",0.8,0.6,0.4,0.812720256486351,"false"
"image-keyboard-response",463,532032,"0.0-4.150-1.150","qz8cgch5nkp9j2p",966,"18.csv","","null","resources/maskTrios/BT2B.jpg","null","",NA,NA,NA,NA,""
"image-keyboard-response",464,533233,"0.0-4.150-2.150","qz8cgch5nkp9j2p",966,"18.csv","","null","resources/images/fishbone.png","null","",NA,NA,NA,NA,""
"image-keyboard-response",465,533515,"0.0-4.151-0.151","qz8cgch5nkp9j2p",966,"18.csv","","281.8999999994412","resources/trios/L4T2A3.jpg","39","restless",0.8,0.6,0.4,0.229915284576859,"true"
"image-keyboard-response",466,533920,"0.0-4.151-1.151","qz8cgch5nkp9j2p",966,"18.csv","","null","resources/maskTrios/BBA3.jpg","null","",NA,NA,NA,NA,""
"image-keyboard-response",467,535128,"0.0-4.151-2.151","qz8cgch5nkp9j2p",966,"18.csv","","null","resources/images/coin2.png","null","",NA,NA,NA,NA,""
"image-keyboard-response",468,535432,"0.0-4.152-0.152","qz8cgch5nkp9j2p",966,"18.csv","","301.90000000037253","resources/trios/L4T2A3.jpg","39","restless",0.8,0.6,0.5,0.762066713456869,"false"
"image-keyboard-response",469,535837,"0.0-4.152-1.152","qz8cgch5nkp9j2p",966,"18.csv","","null","resources/maskTrios/BBA3.jpg","null","",NA,NA,NA,NA,""
"image-keyboard-response",470,537045,"0.0-4.152-2.152","qz8cgch5nkp9j2p",966,"18.csv","","null","resources/images/fishbone.png","null","",NA,NA,NA,NA,""
"image-keyboard-response",471,537318,"0.0-4.153-0.153","qz8cgch5nkp9j2p",966,"18.csv","","271.40000000037253","resources/trios/L4T2A3.jpg","37","restless",0.8,0.6,0.6,0.637506844220799,"true"
"image-keyboard-response",472,537724,"0.0-4.153-1.153","qz8cgch5nkp9j2p",966,"18.csv","","null","resources/maskTrios/L4BB.jpg","null","",NA,NA,NA,NA,""
"image-keyboard-response",473,538926,"0.0-4.153-2.153","qz8cgch5nkp9j2p",966,"18.csv","","null","resources/images/coin2.png","null","",NA,NA,NA,NA,""
"image-keyboard-response",474,539678,"0.0-4.154-0.154","qz8cgch5nkp9j2p",966,"18.csv","","751.0999999996275","resources/trios/L4T2A3.jpg","38","restless",0.7,0.6,0.6,0.824468474935648,"false"
"image-keyboard-response",475,540085,"0.0-4.154-1.154","qz8cgch5nkp9j2p",966,"18.csv","","null","resources/maskTrios/BT2B.jpg","null","",NA,NA,NA,NA,""
"image-keyboard-response",476,541286,"0.0-4.154-2.154","qz8cgch5nkp9j2p",966,"18.csv","","null","resources/images/fishbone.png","null","",NA,NA,NA,NA,""
"image-keyboard-response",477,541739,"0.0-4.155-0.155","qz8cgch5nkp9j2p",966,"18.csv","","452.5","resources/trios/L4T2A3.jpg","37","restless",0.7,0.7,0.6,0.421121365134534,"true"
"image-keyboard-response",478,542140,"0.0-4.155-1.155","qz8cgch5nkp9j2p",966,"18.csv","","null","resources/maskTrios/L4BB.jpg","null","",NA,NA,NA,NA,""
"image-keyboard-response",479,543341,"0.0-4.155-2.155","qz8cgch5nkp9j2p",966,"18.csv","","null","resources/images/coin2.png","null","",NA,NA,NA,NA,""
"image-keyboard-response",480,543683,"0.0-4.156-0.156","qz8cgch5nkp9j2p",966,"18.csv","","341.30000000074506","resources/trios/L4T2A3.jpg","39","restless",0.7,0.7,0.6,0.875708982230146,"false"
"image-keyboard-response",481,544084,"0.0-4.156-1.156","qz8cgch5nkp9j2p",966,"18.csv","","null","resources/maskTrios/BBA3.jpg","null","",NA,NA,NA,NA,""
"image-keyboard-response",482,545286,"0.0-4.156-2.156","qz8cgch5nkp9j2p",966,"18.csv","","null","resources/images/fishbone.png","null","",NA,NA,NA,NA,""
"image-keyboard-response",483,545601,"0.0-4.157-0.157","qz8cgch5nkp9j2p",966,"18.csv","","313.09999999962747","resources/trios/L4T2A3.jpg","37","restless",0.7,0.7,0.6,0.530475372726667,"true"
"image-keyboard-response",484,546008,"0.0-4.157-1.157","qz8cgch5nkp9j2p",966,"18.csv","","null","resources/maskTrios/L4BB.jpg","null","",NA,NA,NA,NA,""
"image-keyboard-response",485,547210,"0.0-4.157-2.157","qz8cgch5nkp9j2p",966,"18.csv","","null","resources/images/coin2.png","null","",NA,NA,NA,NA,""
"image-keyboard-response",486,547550,"0.0-4.158-0.158","qz8cgch5nkp9j2p",966,"18.csv","","338.5","resources/trios/L4T2A3.jpg","37","restless",0.7,0.7,0.6,0.462484208952326,"true"
"image-keyboard-response",487,547952,"0.0-4.158-1.158","qz8cgch5nkp9j2p",966,"18.csv","","null","resources/maskTrios/L4BB.jpg","null","",NA,NA,NA,NA,""
"image-keyboard-response",488,549154,"0.0-4.158-2.158","qz8cgch5nkp9j2p",966,"18.csv","","null","resources/images/coin2.png","null","",NA,NA,NA,NA,""
"image-keyboard-response",489,549558,"0.0-4.159-0.159","qz8cgch5nkp9j2p",966,"18.csv","","402.1000000005588","resources/trios/L4T2A3.jpg","37","restless",0.7,0.7,0.6,0.359242514543171,"true"
"image-keyboard-response",490,549966,"0.0-4.159-1.159","qz8cgch5nkp9j2p",966,"18.csv","","null","resources/maskTrios/L4BB.jpg","null","",NA,NA,NA,NA,""
"image-keyboard-response",491,551167,"0.0-4.159-2.159","qz8cgch5nkp9j2p",966,"18.csv","","null","resources/images/coin2.png","null","",NA,NA,NA,NA,""
"image-keyboard-response",492,551594,"0.0-4.160-0.160","qz8cgch5nkp9j2p",966,"18.csv","","425.59999999962747","resources/trios/L4T2A3.jpg","37","restless",0.7,0.7,0.6,0.205214322033429,"true"
"image-keyboard-response",493,552000,"0.0-4.160-1.160","qz8cgch5nkp9j2p",966,"18.csv","","null","resources/maskTrios/L4BB.jpg","null","",NA,NA,NA,NA,""
"image-keyboard-response",494,553202,"0.0-4.160-2.160","qz8cgch5nkp9j2p",966,"18.csv","","null","resources/images/coin2.png","null","",NA,NA,NA,NA,""
"image-keyboard-response",495,553577,"0.0-4.161-0.161","qz8cgch5nkp9j2p",966,"18.csv","","373.3999999994412","resources/trios/L4T2A3.jpg","37","restless",0.7,0.7,0.6,0.407134945268543,"true"
"image-keyboard-response",496,553979,"0.0-4.161-1.161","qz8cgch5nkp9j2p",966,"18.csv","","null","resources/maskTrios/L4BB.jpg","null","",NA,NA,NA,NA,""
"image-keyboard-response",497,555187,"0.0-4.161-2.161","qz8cgch5nkp9j2p",966,"18.csv","","null","resources/images/coin2.png","null","",NA,NA,NA,NA,""
"image-keyboard-response",498,555555,"0.0-4.162-0.162","qz8cgch5nkp9j2p",966,"18.csv","","365.70000000018626","resources/trios/L4T2A3.jpg","37","restless",0.7,0.7,0.6,0.830035209386697,"false"
"image-keyboard-response",499,555958,"0.0-4.162-1.162","qz8cgch5nkp9j2p",966,"18.csv","","null","resources/maskTrios/L4BB.jpg","null","",NA,NA,NA,NA,""
"image-keyboard-response",500,557159,"0.0-4.162-2.162","qz8cgch5nkp9j2p",966,"18.csv","","null","resources/images/fishbone.png","null","",NA,NA,NA,NA,""
"image-keyboard-response",501,557515,"0.0-4.163-0.163","qz8cgch5nkp9j2p",966,"18.csv","","353.8999999994412","resources/trios/L4T2A3.jpg","38","restless",0.7,0.8,0.6,0.766292504846327,"true"
"image-keyboard-response",502,557923,"0.0-4.163-1.163","qz8cgch5nkp9j2p",966,"18.csv","","null","resources/maskTrios/BT2B.jpg","null","",NA,NA,NA,NA,""
"image-keyboard-response",503,559130,"0.0-4.163-2.163","qz8cgch5nkp9j2p",966,"18.csv","","null","resources/images/coin2.png","null","",NA,NA,NA,NA,""
"image-keyboard-response",504,560462,"0.0-4.164-0.164","qz8cgch5nkp9j2p",966,"18.csv","","1329.7999999998137","resources/trios/L4T2A3.jpg","39","restless",0.7,0.8,0.6,0.281143561161665,"true"
"image-keyboard-response",505,560866,"0.0-4.164-1.164","qz8cgch5nkp9j2p",966,"18.csv","","null","resources/maskTrios/BBA3.jpg","null","",NA,NA,NA,NA,""
"image-keyboard-response",506,562069,"0.0-4.164-2.164","qz8cgch5nkp9j2p",966,"18.csv","","null","resources/images/coin2.png","null","",NA,NA,NA,NA,""
"image-keyboard-response",507,562398,"0.0-4.165-0.165","qz8cgch5nkp9j2p",966,"18.csv","","327.09999999962747","resources/trios/L4T2A3.jpg","38","restless",0.7,0.8,0.6,0.575585185009045,"true"
"image-keyboard-response",508,562803,"0.0-4.165-1.165","qz8cgch5nkp9j2p",966,"18.csv","","null","resources/maskTrios/BT2B.jpg","null","",NA,NA,NA,NA,""
"image-keyboard-response",509,564005,"0.0-4.165-2.165","qz8cgch5nkp9j2p",966,"18.csv","","null","resources/images/coin2.png","null","",NA,NA,NA,NA,""
"image-keyboard-response",510,564355,"0.0-4.166-0.166","qz8cgch5nkp9j2p",966,"18.csv","","348.5","resources/trios/L4T2A3.jpg","39","restless",0.7,0.8,0.6,0.724532589823332,"false"
"image-keyboard-response",511,564761,"0.0-4.166-1.166","qz8cgch5nkp9j2p",966,"18.csv","","null","resources/maskTrios/BBA3.jpg","null","",NA,NA,NA,NA,""
"image-keyboard-response",512,565962,"0.0-4.166-2.166","qz8cgch5nkp9j2p",966,"18.csv","","null","resources/images/fishbone.png","null","",NA,NA,NA,NA,""
"image-keyboard-response",513,566615,"0.0-4.167-0.167","qz8cgch5nkp9j2p",966,"18.csv","","650.6000000005588","resources/trios/L4T2A3.jpg","38","restless",0.7,0.8,0.6,0.652995530993054,"true"
"image-keyboard-response",514,567018,"0.0-4.167-1.167","qz8cgch5nkp9j2p",966,"18.csv","","null","resources/maskTrios/BT2B.jpg","null","",NA,NA,NA,NA,""
"image-keyboard-response",515,568226,"0.0-4.167-2.167","qz8cgch5nkp9j2p",966,"18.csv","","null","resources/images/coin2.png","null","",NA,NA,NA,NA,""
"image-keyboard-response",516,568480,"0.0-4.168-0.168","qz8cgch5nkp9j2p",966,"18.csv","","252","resources/trios/L4T2A3.jpg","38","restless",0.7,0.8,0.6,0.0315001130114521,"true"
"image-keyboard-response",517,568886,"0.0-4.168-1.168","qz8cgch5nkp9j2p",966,"18.csv","","null","resources/maskTrios/BT2B.jpg","null","",NA,NA,NA,NA,""
"image-keyboard-response",518,570087,"0.0-4.168-2.168","qz8cgch5nkp9j2p",966,"18.csv","","null","resources/images/coin2.png","null","",NA,NA,NA,NA,""
"image-keyboard-response",519,570440,"0.0-4.169-0.169","qz8cgch5nkp9j2p",966,"18.csv","","351.29999999981374","resources/trios/L4T2A3.jpg","38","restless",0.6,0.8,0.7,0.0729540342476853,"true"
"image-keyboard-response",520,570843,"0.0-4.169-1.169","qz8cgch5nkp9j2p",966,"18.csv","","null","resources/maskTrios/BT2B.jpg","null","",NA,NA,NA,NA,""
"image-keyboard-response",521,572045,"0.0-4.169-2.169","qz8cgch5nkp9j2p",966,"18.csv","","null","resources/images/coin2.png","null","",NA,NA,NA,NA,""
"image-keyboard-response",522,572311,"0.0-4.170-0.170","qz8cgch5nkp9j2p",966,"18.csv","","263.8999999994412","resources/trios/L4T2A3.jpg","38","restless",0.6,0.7,0.8,0.405658922940269,"true"
"image-keyboard-response",523,572718,"0.0-4.170-1.170","qz8cgch5nkp9j2p",966,"18.csv","","null","resources/maskTrios/BT2B.jpg","null","",NA,NA,NA,NA,""
"image-keyboard-response",524,573920,"0.0-4.170-2.170","qz8cgch5nkp9j2p",966,"18.csv","","null","resources/images/coin2.png","null","",NA,NA,NA,NA,""
"image-keyboard-response",525,574261,"0.0-4.171-0.171","qz8cgch5nkp9j2p",966,"18.csv","","339.40000000037253","resources/trios/L4T2A3.jpg","38","restless",0.6,0.7,0.8,0.302885168447742,"true"
"image-keyboard-response",526,574663,"0.0-4.171-1.171","qz8cgch5nkp9j2p",966,"18.csv","","null","resources/maskTrios/BT2B.jpg","null","",NA,NA,NA,NA,""
"image-keyboard-response",527,575870,"0.0-4.171-2.171","qz8cgch5nkp9j2p",966,"18.csv","","null","resources/images/coin2.png","null","",NA,NA,NA,NA,""
"image-keyboard-response",528,576180,"0.0-4.172-0.172","qz8cgch5nkp9j2p",966,"18.csv","","308","resources/trios/L4T2A3.jpg","38","restless",0.6,0.7,0.8,0.141114838508713,"true"
"image-keyboard-response",529,576585,"0.0-4.172-1.172","qz8cgch5nkp9j2p",966,"18.csv","","null","resources/maskTrios/BT2B.jpg","null","",NA,NA,NA,NA,""
"image-keyboard-response",530,577787,"0.0-4.172-2.172","qz8cgch5nkp9j2p",966,"18.csv","","null","resources/images/coin2.png","null","",NA,NA,NA,NA,""
"image-keyboard-response",531,578099,"0.0-4.173-0.173","qz8cgch5nkp9j2p",966,"18.csv","","310.5","resources/trios/L4T2A3.jpg","38","restless",0.6,0.7,0.7,0.0160696396155426,"true"
"image-keyboard-response",532,578502,"0.0-4.173-1.173","qz8cgch5nkp9j2p",966,"18.csv","","null","resources/maskTrios/BT2B.jpg","null","",NA,NA,NA,NA,""
"image-keyboard-response",533,579703,"0.0-4.173-2.173","qz8cgch5nkp9j2p",966,"18.csv","","null","resources/images/coin2.png","null","",NA,NA,NA,NA,""
"image-keyboard-response",534,580087,"0.0-4.174-0.174","qz8cgch5nkp9j2p",966,"18.csv","","381.90000000037253","resources/trios/L4T2A3.jpg","38","restless",0.6,0.7,0.7,0.622313494437637,"true"
"image-keyboard-response",535,580495,"0.0-4.174-1.174","qz8cgch5nkp9j2p",966,"18.csv","","null","resources/maskTrios/BT2B.jpg","null","",NA,NA,NA,NA,""
"image-keyboard-response",536,581696,"0.0-4.174-2.174","qz8cgch5nkp9j2p",966,"18.csv","","null","resources/images/coin2.png","null","",NA,NA,NA,NA,""
"image-keyboard-response",537,582171,"0.0-4.175-0.175","qz8cgch5nkp9j2p",966,"18.csv","","473.6000000005588","resources/trios/L4T2A3.jpg","38","restless",0.6,0.7,0.7,0.361637477501654,"true"
"image-keyboard-response",538,582577,"0.0-4.175-1.175","qz8cgch5nkp9j2p",966,"18.csv","","null","resources/maskTrios/BT2B.jpg","null","",NA,NA,NA,NA,""
"image-keyboard-response",539,583779,"0.0-4.175-2.175","qz8cgch5nkp9j2p",966,"18.csv","","null","resources/images/coin2.png","null","",NA,NA,NA,NA,""
"image-keyboard-response",540,584116,"0.0-4.176-0.176","qz8cgch5nkp9j2p",966,"18.csv","","335.09999999962747","resources/trios/L4T2A3.jpg","38","restless",0.6,0.7,0.7,0.778364411101614,"false"
"image-keyboard-response",541,584521,"0.0-4.176-1.176","qz8cgch5nkp9j2p",966,"18.csv","","null","resources/maskTrios/BT2B.jpg","null","",NA,NA,NA,NA,""
"image-keyboard-response",542,585723,"0.0-4.176-2.176","qz8cgch5nkp9j2p",966,"18.csv","","null","resources/images/fishbone.png","null","",NA,NA,NA,NA,""
"image-keyboard-response",543,586049,"0.0-4.177-0.177","qz8cgch5nkp9j2p",966,"18.csv","","324.79999999981374","resources/trios/L4T2A3.jpg","37","restless",0.6,0.7,0.7,0.813715256150018,"false"
"image-keyboard-response",544,586452,"0.0-4.177-1.177","qz8cgch5nkp9j2p",966,"18.csv","","null","resources/maskTrios/L4BB.jpg","null","",NA,NA,NA,NA,""
"image-keyboard-response",545,587659,"0.0-4.177-2.177","qz8cgch5nkp9j2p",966,"18.csv","","null","resources/images/fishbone.png","null","",NA,NA,NA,NA,""
"image-keyboard-response",546,588419,"0.0-4.178-0.178","qz8cgch5nkp9j2p",966,"18.csv","","757.6000000005588","resources/trios/L4T2A3.jpg","39","restless",0.6,0.7,0.7,0.0675628117799816,"true"
"image-keyboard-response",547,588826,"0.0-4.178-1.178","qz8cgch5nkp9j2p",966,"18.csv","","null","resources/maskTrios/BBA3.jpg","null","",NA,NA,NA,NA,""
"image-keyboard-response",548,590028,"0.0-4.178-2.178","qz8cgch5nkp9j2p",966,"18.csv","","null","resources/images/coin2.png","null","",NA,NA,NA,NA,""
"image-keyboard-response",549,591443,"0.0-4.179-0.179","qz8cgch5nkp9j2p",966,"18.csv","","1413.3999999994412","resources/trios/L4T2A3.jpg","37","restless",0.6,0.7,0.7,0.772849481889541,"false"
"image-keyboard-response",550,591847,"0.0-4.179-1.179","qz8cgch5nkp9j2p",966,"18.csv","","null","resources/maskTrios/L4BB.jpg","null","",NA,NA,NA,NA,""
"image-keyboard-response",551,593055,"0.0-4.179-2.179","qz8cgch5nkp9j2p",966,"18.csv","","null","resources/images/fishbone.png","null","",NA,NA,NA,NA,""
"image-keyboard-response",552,593485,"0.0-4.180-0.180","qz8cgch5nkp9j2p",966,"18.csv","","428.5","resources/trios/L4T2A3.jpg","38","restless",0.6,0.7,0.7,0.52353986114974,"true"
"image-keyboard-response",553,593888,"0.0-4.180-1.180","qz8cgch5nkp9j2p",966,"18.csv","","null","resources/maskTrios/BT2B.jpg","null","",NA,NA,NA,NA,""
"image-keyboard-response",554,595096,"0.0-4.180-2.180","qz8cgch5nkp9j2p",966,"18.csv","","null","resources/images/coin2.png","null","",NA,NA,NA,NA,""
"image-keyboard-response",555,595410,"0.0-4.181-0.181","qz8cgch5nkp9j2p",966,"18.csv","","312.09999999962747","resources/trios/L4T2A3.jpg","39","restless",0.6,0.6,0.7,0.234285996552309,"true"
"image-keyboard-response",556,595818,"0.0-4.181-1.181","qz8cgch5nkp9j2p",966,"18.csv","","null","resources/maskTrios/BBA3.jpg","null","",NA,NA,NA,NA,""
"image-keyboard-response",557,597026,"0.0-4.181-2.181","qz8cgch5nkp9j2p",966,"18.csv","","null","resources/images/coin2.png","null","",NA,NA,NA,NA,""
"image-keyboard-response",558,597366,"0.0-4.182-0.182","qz8cgch5nkp9j2p",966,"18.csv","","338.80000000074506","resources/trios/L4T2A3.jpg","38","restless",0.6,0.6,0.6,0.339486685810809,"true"
"image-keyboard-response",559,597769,"0.0-4.182-1.182","qz8cgch5nkp9j2p",966,"18.csv","","null","resources/maskTrios/BT2B.jpg","null","",NA,NA,NA,NA,""
"image-keyboard-response",560,598977,"0.0-4.182-2.182","qz8cgch5nkp9j2p",966,"18.csv","","null","resources/images/coin2.png","null","",NA,NA,NA,NA,""
"image-keyboard-response",561,599303,"0.0-4.183-0.183","qz8cgch5nkp9j2p",966,"18.csv","","323.6000000005588","resources/trios/L4T2A3.jpg","39","restless",0.6,0.6,0.6,0.443449007444988,"true"
"image-keyboard-response",562,599705,"0.0-4.183-1.183","qz8cgch5nkp9j2p",966,"18.csv","","null","resources/maskTrios/BBA3.jpg","null","",NA,NA,NA,NA,""
"image-keyboard-response",563,600907,"0.0-4.183-2.183","qz8cgch5nkp9j2p",966,"18.csv","","null","resources/images/coin2.png","null","",NA,NA,NA,NA,""
"image-keyboard-response",564,601233,"0.0-4.184-0.184","qz8cgch5nkp9j2p",966,"18.csv","","324.29999999981374","resources/trios/L4T2A3.jpg","38","restless",0.6,0.6,0.6,0.843026739910097,"false"
"image-keyboard-response",565,601636,"0.0-4.184-1.184","qz8cgch5nkp9j2p",966,"18.csv","","null","resources/maskTrios/BT2B.jpg","null","",NA,NA,NA,NA,""
"image-keyboard-response",566,602838,"0.0-4.184-2.184","qz8cgch5nkp9j2p",966,"18.csv","","null","resources/images/fishbone.png","null","",NA,NA,NA,NA,""
"image-keyboard-response",567,603119,"0.0-4.185-0.185","qz8cgch5nkp9j2p",966,"18.csv","","279.70000000018626","resources/trios/L4T2A3.jpg","37","restless",0.6,0.6,0.6,0.493264482322675,"true"
"image-keyboard-response",568,603525,"0.0-4.185-1.185","qz8cgch5nkp9j2p",966,"18.csv","","null","resources/maskTrios/L4BB.jpg","null","",NA,NA,NA,NA,""
"image-keyboard-response",569,604733,"0.0-4.185-2.185","qz8cgch5nkp9j2p",966,"18.csv","","null","resources/images/coin2.png","null","",NA,NA,NA,NA,""
"image-keyboard-response",570,606148,"0.0-4.186-0.186","qz8cgch5nkp9j2p",966,"18.csv","","1413","resources/trios/L4T2A3.jpg","38","restless",0.6,0.6,0.6,0.675138906885672,"false"
"image-keyboard-response",571,606552,"0.0-4.186-1.186","qz8cgch5nkp9j2p",966,"18.csv","","null","resources/maskTrios/BT2B.jpg","null","",NA,NA,NA,NA,""
"image-keyboard-response",572,607753,"0.0-4.186-2.186","qz8cgch5nkp9j2p",966,"18.csv","","null","resources/images/fishbone.png","null","",NA,NA,NA,NA,""
"image-keyboard-response",573,607991,"0.0-4.187-0.187","qz8cgch5nkp9j2p",966,"18.csv","","235.79999999981374","resources/trios/L4T2A3.jpg","37","restless",0.6,0.6,0.6,0.413181716372566,"true"
"image-keyboard-response",574,608392,"0.0-4.187-1.187","qz8cgch5nkp9j2p",966,"18.csv","","null","resources/maskTrios/L4BB.jpg","null","",NA,NA,NA,NA,""
"image-keyboard-response",575,609600,"0.0-4.187-2.187","qz8cgch5nkp9j2p",966,"18.csv","","null","resources/images/coin2.png","null","",NA,NA,NA,NA,""
"image-keyboard-response",576,609861,"0.0-4.188-0.188","qz8cgch5nkp9j2p",966,"18.csv","","259.79999999981374","resources/trios/L4T2A3.jpg","37","restless",0.6,0.6,0.6,0.376961475575934,"true"
"image-keyboard-response",577,610267,"0.0-4.188-1.188","qz8cgch5nkp9j2p",966,"18.csv","","null","resources/maskTrios/L4BB.jpg","null","",NA,NA,NA,NA,""
"image-keyboard-response",578,611475,"0.0-4.188-2.188","qz8cgch5nkp9j2p",966,"18.csv","","null","resources/images/coin2.png","null","",NA,NA,NA,NA,""
"image-keyboard-response",579,611891,"0.0-4.189-0.189","qz8cgch5nkp9j2p",966,"18.csv","","414.5","resources/trios/L4T2A3.jpg","37","restless",0.6,0.5,0.6,0.129737577642982,"true"
"image-keyboard-response",580,612294,"0.0-4.189-1.189","qz8cgch5nkp9j2p",966,"18.csv","","null","resources/maskTrios/L4BB.jpg","null","",NA,NA,NA,NA,""
"image-keyboard-response",581,613496,"0.0-4.189-2.189","qz8cgch5nkp9j2p",966,"18.csv","","null","resources/images/coin2.png","null","",NA,NA,NA,NA,""
"image-keyboard-response",582,613865,"0.0-4.190-0.190","qz8cgch5nkp9j2p",966,"18.csv","","367.8999999994412","resources/trios/L4T2A3.jpg","37","restless",0.6,0.5,0.6,0.958964663684959,"false"
"image-keyboard-response",583,614273,"0.0-4.190-1.190","qz8cgch5nkp9j2p",966,"18.csv","","null","resources/maskTrios/L4BB.jpg","null","",NA,NA,NA,NA,""
"image-keyboard-response",584,615474,"0.0-4.190-2.190","qz8cgch5nkp9j2p",966,"18.csv","","null","resources/images/fishbone.png","null","",NA,NA,NA,NA,""
"image-keyboard-response",585,615634,"0.0-4.191-0.191","qz8cgch5nkp9j2p",966,"18.csv","","158","resources/trios/L4T2A3.jpg","39","restless",0.6,0.4,0.7,0.0172326069419686,"true"
"image-keyboard-response",586,616037,"0.0-4.191-1.191","qz8cgch5nkp9j2p",966,"18.csv","","null","resources/maskTrios/BBA3.jpg","null","",NA,NA,NA,NA,""
"image-keyboard-response",587,617244,"0.0-4.191-2.191","qz8cgch5nkp9j2p",966,"18.csv","","null","resources/images/coin2.png","null","",NA,NA,NA,NA,""
"image-keyboard-response",588,617922,"0.0-4.192-0.192","qz8cgch5nkp9j2p",966,"18.csv","","676.3999999994412","resources/trios/L4T2A3.jpg","37","restless",0.6,0.4,0.7,0.713240987976352,"false"
"image-keyboard-response",589,618327,"0.0-4.192-1.192","qz8cgch5nkp9j2p",966,"18.csv","","null","resources/maskTrios/L4BB.jpg","null","",NA,NA,NA,NA,""
"image-keyboard-response",590,619529,"0.0-4.192-2.192","qz8cgch5nkp9j2p",966,"18.csv","","null","resources/images/fishbone.png","null","",NA,NA,NA,NA,""
"image-keyboard-response",591,619893,"0.0-4.193-0.193","qz8cgch5nkp9j2p",966,"18.csv","","362.90000000037253","resources/trios/L4T2A3.jpg","38","restless",0.6,0.4,0.7,0.14624438502083,"true"
"image-keyboard-response",592,620300,"0.0-4.193-1.193","qz8cgch5nkp9j2p",966,"18.csv","","null","resources/maskTrios/BT2B.jpg","null","",NA,NA,NA,NA,""
"image-keyboard-response",593,621508,"0.0-4.193-2.193","qz8cgch5nkp9j2p",966,"18.csv","","null","resources/images/coin2.png","null","",NA,NA,NA,NA,""
"image-keyboard-response",594,621796,"0.0-4.194-0.194","qz8cgch5nkp9j2p",966,"18.csv","","286.40000000037253","resources/trios/L4T2A3.jpg","39","restless",0.6,0.4,0.7,0.694701968232068,"true"
"image-keyboard-response",595,622202,"0.0-4.194-1.194","qz8cgch5nkp9j2p",966,"18.csv","","null","resources/maskTrios/BBA3.jpg","null","",NA,NA,NA,NA,""
"image-keyboard-response",596,623403,"0.0-4.194-2.194","qz8cgch5nkp9j2p",966,"18.csv","","null","resources/images/coin2.png","null","",NA,NA,NA,NA,""
"image-keyboard-response",597,623675,"0.0-4.195-0.195","qz8cgch5nkp9j2p",966,"18.csv","","270.20000000018626","resources/trios/L4T2A3.jpg","38","restless",0.6,0.4,0.7,0.642799730119952,"false"
"image-keyboard-response",598,624077,"0.0-4.195-1.195","qz8cgch5nkp9j2p",966,"18.csv","","null","resources/maskTrios/BT2B.jpg","null","",NA,NA,NA,NA,""
"image-keyboard-response",599,625284,"0.0-4.195-2.195","qz8cgch5nkp9j2p",966,"18.csv","","null","resources/images/fishbone.png","null","",NA,NA,NA,NA,""
"image-keyboard-response",600,625546,"0.0-4.196-0.196","qz8cgch5nkp9j2p",966,"18.csv","","260.1000000005588","resources/trios/L4T2A3.jpg","37","restless",0.6,0.4,0.7,0.0144089757582166,"true"
"image-keyboard-response",601,625951,"0.0-4.196-1.196","qz8cgch5nkp9j2p",966,"18.csv","","null","resources/maskTrios/L4BB.jpg","null","",NA,NA,NA,NA,""
"image-keyboard-response",602,627153,"0.0-4.196-2.196","qz8cgch5nkp9j2p",966,"18.csv","","null","resources/images/coin2.png","null","",NA,NA,NA,NA,""
"image-keyboard-response",603,627539,"0.0-4.197-0.197","qz8cgch5nkp9j2p",966,"18.csv","","385.20000000018626","resources/trios/L4T2A3.jpg","38","restless",0.6,0.4,0.7,0.305664132483925,"true"
"image-keyboard-response",604,627944,"0.0-4.197-1.197","qz8cgch5nkp9j2p",966,"18.csv","","null","resources/maskTrios/BT2B.jpg","null","",NA,NA,NA,NA,""
"image-keyboard-response",605,629145,"0.0-4.197-2.197","qz8cgch5nkp9j2p",966,"18.csv","","null","resources/images/coin2.png","null","",NA,NA,NA,NA,""
"image-keyboard-response",606,629587,"0.0-4.198-0.198","qz8cgch5nkp9j2p",966,"18.csv","","440","resources/trios/L4T2A3.jpg","39","restless",0.6,0.4,0.7,0.974744250631389,"false"
"image-keyboard-response",607,629992,"0.0-4.198-1.198","qz8cgch5nkp9j2p",966,"18.csv","","null","resources/maskTrios/BBA3.jpg","null","",NA,NA,NA,NA,""
"image-keyboard-response",608,631200,"0.0-4.198-2.198","qz8cgch5nkp9j2p",966,"18.csv","","null","resources/images/fishbone.png","null","",NA,NA,NA,NA,""
"image-keyboard-response",609,631725,"0.0-4.199-0.199","qz8cgch5nkp9j2p",966,"18.csv","","523.4000000003725","resources/trios/L4T2A3.jpg","37","restless",0.6,0.4,0.7,0.999574770786984,"false"
"image-keyboard-response",610,632130,"0.0-4.199-1.199","qz8cgch5nkp9j2p",966,"18.csv","","null","resources/maskTrios/L4BB.jpg","null","",NA,NA,NA,NA,""
"image-keyboard-response",611,633332,"0.0-4.199-2.199","qz8cgch5nkp9j2p",966,"18.csv","","null","resources/images/fishbone.png","null","",NA,NA,NA,NA,""
