"trial_type","trial_index","time_elapsed","internal_node_id","subject","participantCode","walkNumber","success","rt","stimulus","key_press","test_part","leftProb","midProb","rightProb","generatedNum","correct"
"pavlovia",0,1181,"0.0-0.0","6l3d04mlxk63b6n",149,"53.csv","","","","","",NA,NA,NA,NA,""
"fullscreen",1,4650,"0.0-1.0","6l3d04mlxk63b6n",149,"53.csv","true","","","","",NA,NA,NA,NA,""
"survey-html-form",2,13262,"0.0-2.0","6l3d04mlxk63b6n",149,"53.csv","","8610.599999904633","","","",NA,NA,NA,NA,""
"image-keyboard-response",3,15467,"0.0-3.0-0.0","6l3d04mlxk63b6n",149,"53.csv","","2204.600000143051","resources/images/parrot_nobg.png","13","",NA,NA,NA,NA,""
"image-keyboard-response",4,18471,"0.0-3.0-1.0","6l3d04mlxk63b6n",149,"53.csv","","null","resources/image_sets/111.png","null","",NA,NA,NA,NA,""
"image-keyboard-response",5,46546,"0.0-3.0-2.0","6l3d04mlxk63b6n",149,"53.csv","","28074.89999985695","resources/image_sets/left_highlight.png","37","",NA,NA,NA,NA,""
"image-keyboard-response",6,47964,"0.0-3.0-3.0","6l3d04mlxk63b6n",149,"53.csv","","1417","resources/image_sets/mid_highlight.png","38","",NA,NA,NA,NA,""
"image-keyboard-response",7,48723,"0.0-3.0-4.0","6l3d04mlxk63b6n",149,"53.csv","","758.2000000476837","resources/image_sets/right_highlight.png","39","",NA,NA,NA,NA,""
"image-keyboard-response",8,50962,"0.0-3.0-5.0","6l3d04mlxk63b6n",149,"53.csv","","2238.7999999523163","resources/image_sets/111.png","13","",NA,NA,NA,NA,""
"image-keyboard-response",9,52671,"0.0-3.0-6.0","6l3d04mlxk63b6n",149,"53.csv","","1709.0999999046326","resources/images/coin2.png","13","",NA,NA,NA,NA,""
"image-keyboard-response",10,53456,"0.0-3.0-7.0","6l3d04mlxk63b6n",149,"53.csv","","784.2000000476837","resources/images/fishbone.png","13","",NA,NA,NA,NA,""
"html-keyboard-response",11,54458,"0.0-3.0-8.0","6l3d04mlxk63b6n",149,"53.csv","","1001.5","<p>You can track your coin total on the top right of your screen. </p><p>At the end of your journey you will be directed to a survey, so please click on the link before exiting the task</p><p>Press Enter to begin</p>","13","",NA,NA,NA,NA,""
"image-keyboard-response",12,56913,"0.0-4.0-0.0","6l3d04mlxk63b6n",149,"53.csv","","2463.2999999523163","resources/trios/L1T4A3.jpg","38","restless",0.3,0.9,0.7,0.932143511515626,"false"
"image-keyboard-response",13,57318,"0.0-4.0-1.0","6l3d04mlxk63b6n",149,"53.csv","","null","resources/maskTrios/BT4B.jpg","null","",NA,NA,NA,NA,""
"image-keyboard-response",14,58525,"0.0-4.0-2.0","6l3d04mlxk63b6n",149,"53.csv","","null","resources/images/fishbone.png","null","",NA,NA,NA,NA,""
"image-keyboard-response",15,59214,"0.0-4.1-0.1","6l3d04mlxk63b6n",149,"53.csv","","688","resources/trios/L1T4A3.jpg","39","restless",0.3,0.9,0.7,0.717918561222694,"false"
"image-keyboard-response",16,59623,"0.0-4.1-1.1","6l3d04mlxk63b6n",149,"53.csv","","null","resources/maskTrios/BBA3.jpg","null","",NA,NA,NA,NA,""
"image-keyboard-response",17,60830,"0.0-4.1-2.1","6l3d04mlxk63b6n",149,"53.csv","","null","resources/images/fishbone.png","null","",NA,NA,NA,NA,""
"image-keyboard-response",18,61161,"0.0-4.2-0.2","6l3d04mlxk63b6n",149,"53.csv","","329.7999999523163","resources/trios/L1T4A3.jpg","37","restless",0.3,0.8,0.7,0.919155698195887,"false"
"image-keyboard-response",19,61576,"0.0-4.2-1.2","6l3d04mlxk63b6n",149,"53.csv","","null","resources/maskTrios/L1BB.jpg","null","",NA,NA,NA,NA,""
"image-keyboard-response",20,62784,"0.0-4.2-2.2","6l3d04mlxk63b6n",149,"53.csv","","null","resources/images/fishbone.png","null","",NA,NA,NA,NA,""
"image-keyboard-response",21,64826,"0.0-4.3-0.3","6l3d04mlxk63b6n",149,"53.csv","","2041.0999999046326","resources/trios/L1T4A3.jpg","38","restless",0.3,0.8,0.7,0.325124511545224,"true"
"image-keyboard-response",22,65237,"0.0-4.3-1.3","6l3d04mlxk63b6n",149,"53.csv","","null","resources/maskTrios/BT4B.jpg","null","",NA,NA,NA,NA,""
"image-keyboard-response",23,66446,"0.0-4.3-2.3","6l3d04mlxk63b6n",149,"53.csv","","null","resources/images/coin2.png","null","",NA,NA,NA,NA,""
"image-keyboard-response",24,66908,"0.0-4.4-0.4","6l3d04mlxk63b6n",149,"53.csv","","461.2999999523163","resources/trios/L1T4A3.jpg","39","restless",0.3,0.8,0.7,0.405458595529038,"true"
"image-keyboard-response",25,67309,"0.0-4.4-1.4","6l3d04mlxk63b6n",149,"53.csv","","null","resources/maskTrios/BBA3.jpg","null","",NA,NA,NA,NA,""
"image-keyboard-response",26,68513,"0.0-4.4-2.4","6l3d04mlxk63b6n",149,"53.csv","","null","resources/images/coin2.png","null","",NA,NA,NA,NA,""
"image-keyboard-response",27,68756,"0.0-4.5-0.5","6l3d04mlxk63b6n",149,"53.csv","","242","resources/trios/L1T4A3.jpg","37","restless",0.3,0.8,0.7,0.257595743937413,"true"
"image-keyboard-response",28,69165,"0.0-4.5-1.5","6l3d04mlxk63b6n",149,"53.csv","","null","resources/maskTrios/L1BB.jpg","null","",NA,NA,NA,NA,""
"image-keyboard-response",29,70380,"0.0-4.5-2.5","6l3d04mlxk63b6n",149,"53.csv","","null","resources/images/coin2.png","null","",NA,NA,NA,NA,""
"image-keyboard-response",30,70710,"0.0-4.6-0.6","6l3d04mlxk63b6n",149,"53.csv","","328.5","resources/trios/L1T4A3.jpg","37","restless",0.3,0.8,0.7,0.270916562113384,"true"
"image-keyboard-response",31,71118,"0.0-4.6-1.6","6l3d04mlxk63b6n",149,"53.csv","","null","resources/maskTrios/L1BB.jpg","null","",NA,NA,NA,NA,""
"image-keyboard-response",32,72333,"0.0-4.6-2.6","6l3d04mlxk63b6n",149,"53.csv","","null","resources/images/coin2.png","null","",NA,NA,NA,NA,""
"image-keyboard-response",33,72654,"0.0-4.7-0.7","6l3d04mlxk63b6n",149,"53.csv","","321.09999990463257","resources/trios/L1T4A3.jpg","38","restless",0.3,0.8,0.7,0.2117110953669,"true"
"image-keyboard-response",34,73060,"0.0-4.7-1.7","6l3d04mlxk63b6n",149,"53.csv","","null","resources/maskTrios/BT4B.jpg","null","",NA,NA,NA,NA,""
"image-keyboard-response",35,74272,"0.0-4.7-2.7","6l3d04mlxk63b6n",149,"53.csv","","null","resources/images/coin2.png","null","",NA,NA,NA,NA,""
"image-keyboard-response",36,74774,"0.0-4.8-0.8","6l3d04mlxk63b6n",149,"53.csv","","501.7999999523163","resources/trios/L1T4A3.jpg","39","restless",0.3,0.8,0.7,0.347034765398717,"true"
"image-keyboard-response",37,75185,"0.0-4.8-1.8","6l3d04mlxk63b6n",149,"53.csv","","null","resources/maskTrios/BBA3.jpg","null","",NA,NA,NA,NA,""
"image-keyboard-response",38,76397,"0.0-4.8-2.8","6l3d04mlxk63b6n",149,"53.csv","","null","resources/images/coin2.png","null","",NA,NA,NA,NA,""
"image-keyboard-response",39,76626,"0.0-4.9-0.9","6l3d04mlxk63b6n",149,"53.csv","","228.59999990463257","resources/trios/L1T4A3.jpg","38","restless",0.3,0.8,0.7,0.753428398613507,"true"
"image-keyboard-response",40,77032,"0.0-4.9-1.9","6l3d04mlxk63b6n",149,"53.csv","","null","resources/maskTrios/BT4B.jpg","null","",NA,NA,NA,NA,""
"image-keyboard-response",41,78241,"0.0-4.9-2.9","6l3d04mlxk63b6n",149,"53.csv","","null","resources/images/coin2.png","null","",NA,NA,NA,NA,""
"image-keyboard-response",42,78782,"0.0-4.10-0.10","6l3d04mlxk63b6n",149,"53.csv","","540.2000000476837","resources/trios/L1T4A3.jpg","37","restless",0.3,0.8,0.7,0.0436385291645482,"true"
"image-keyboard-response",43,79195,"0.0-4.10-1.10","6l3d04mlxk63b6n",149,"53.csv","","null","resources/maskTrios/L1BB.jpg","null","",NA,NA,NA,NA,""
"image-keyboard-response",44,80410,"0.0-4.10-2.10","6l3d04mlxk63b6n",149,"53.csv","","null","resources/images/coin2.png","null","",NA,NA,NA,NA,""
"image-keyboard-response",45,80838,"0.0-4.11-0.11","6l3d04mlxk63b6n",149,"53.csv","","428.2000000476837","resources/trios/L1T4A3.jpg","38","restless",0.3,0.8,0.7,0.705216299720145,"true"
"image-keyboard-response",46,81253,"0.0-4.11-1.11","6l3d04mlxk63b6n",149,"53.csv","","null","resources/maskTrios/BT4B.jpg","null","",NA,NA,NA,NA,""
"image-keyboard-response",47,82457,"0.0-4.11-2.11","6l3d04mlxk63b6n",149,"53.csv","","null","resources/images/coin2.png","null","",NA,NA,NA,NA,""
"image-keyboard-response",48,82753,"0.0-4.12-0.12","6l3d04mlxk63b6n",149,"53.csv","","294.40000009536743","resources/trios/L1T4A3.jpg","39","restless",0.3,0.8,0.7,0.402779883367504,"true"
"image-keyboard-response",49,83162,"0.0-4.12-1.12","6l3d04mlxk63b6n",149,"53.csv","","null","resources/maskTrios/BBA3.jpg","null","",NA,NA,NA,NA,""
"image-keyboard-response",50,84366,"0.0-4.12-2.12","6l3d04mlxk63b6n",149,"53.csv","","null","resources/images/coin2.png","null","",NA,NA,NA,NA,""
"image-keyboard-response",51,84670,"0.0-4.13-0.13","6l3d04mlxk63b6n",149,"53.csv","","302.7999999523163","resources/trios/L1T4A3.jpg","38","restless",0.3,0.8,0.8,0.739895196151388,"true"
"image-keyboard-response",52,85081,"0.0-4.13-1.13","6l3d04mlxk63b6n",149,"53.csv","","null","resources/maskTrios/BT4B.jpg","null","",NA,NA,NA,NA,""
"image-keyboard-response",53,86296,"0.0-4.13-2.13","6l3d04mlxk63b6n",149,"53.csv","","null","resources/images/coin2.png","null","",NA,NA,NA,NA,""
"image-keyboard-response",54,86625,"0.0-4.14-0.14","6l3d04mlxk63b6n",149,"53.csv","","328.2000000476837","resources/trios/L1T4A3.jpg","37","restless",0.3,0.7,0.8,0.103034677478392,"true"
"image-keyboard-response",55,87039,"0.0-4.14-1.14","6l3d04mlxk63b6n",149,"53.csv","","null","resources/maskTrios/L1BB.jpg","null","",NA,NA,NA,NA,""
"image-keyboard-response",56,88256,"0.0-4.14-2.14","6l3d04mlxk63b6n",149,"53.csv","","null","resources/images/coin2.png","null","",NA,NA,NA,NA,""
"image-keyboard-response",57,88614,"0.0-4.15-0.15","6l3d04mlxk63b6n",149,"53.csv","","357.7000000476837","resources/trios/L1T4A3.jpg","38","restless",0.3,0.7,0.9,0.0457674974283047,"true"
"image-keyboard-response",58,89028,"0.0-4.15-1.15","6l3d04mlxk63b6n",149,"53.csv","","null","resources/maskTrios/BT4B.jpg","null","",NA,NA,NA,NA,""
"image-keyboard-response",59,90241,"0.0-4.15-2.15","6l3d04mlxk63b6n",149,"53.csv","","null","resources/images/coin2.png","null","",NA,NA,NA,NA,""
"image-keyboard-response",60,90540,"0.0-4.16-0.16","6l3d04mlxk63b6n",149,"53.csv","","298.10000014305115","resources/trios/L1T4A3.jpg","39","restless",0.3,0.7,0.9,0.841805573370803,"true"
"image-keyboard-response",61,90953,"0.0-4.16-1.16","6l3d04mlxk63b6n",149,"53.csv","","null","resources/maskTrios/BBA3.jpg","null","",NA,NA,NA,NA,""
"image-keyboard-response",62,92158,"0.0-4.16-2.16","6l3d04mlxk63b6n",149,"53.csv","","null","resources/images/coin2.png","null","",NA,NA,NA,NA,""
"image-keyboard-response",63,92440,"0.0-4.17-0.17","6l3d04mlxk63b6n",149,"53.csv","","281.09999990463257","resources/trios/L1T4A3.jpg","38","restless",0.3,0.7,0.9,0.522525640626313,"true"
"image-keyboard-response",64,92850,"0.0-4.17-1.17","6l3d04mlxk63b6n",149,"53.csv","","null","resources/maskTrios/BT4B.jpg","null","",NA,NA,NA,NA,""
"image-keyboard-response",65,94053,"0.0-4.17-2.17","6l3d04mlxk63b6n",149,"53.csv","","null","resources/images/coin2.png","null","",NA,NA,NA,NA,""
"image-keyboard-response",66,94516,"0.0-4.18-0.18","6l3d04mlxk63b6n",149,"53.csv","","463","resources/trios/L1T4A3.jpg","37","restless",0.3,0.7,0.8,0.132032504401721,"true"
"image-keyboard-response",67,94926,"0.0-4.18-1.18","6l3d04mlxk63b6n",149,"53.csv","","null","resources/maskTrios/L1BB.jpg","null","",NA,NA,NA,NA,""
"image-keyboard-response",68,96139,"0.0-4.18-2.18","6l3d04mlxk63b6n",149,"53.csv","","null","resources/images/coin2.png","null","",NA,NA,NA,NA,""
"image-keyboard-response",69,96281,"0.0-4.19-0.19","6l3d04mlxk63b6n",149,"53.csv","","141.5","resources/trios/L1T4A3.jpg","39","restless",0.3,0.7,0.8,0.845895495890602,"false"
"image-keyboard-response",70,96691,"0.0-4.19-1.19","6l3d04mlxk63b6n",149,"53.csv","","null","resources/maskTrios/BBA3.jpg","null","",NA,NA,NA,NA,""
"image-keyboard-response",71,97905,"0.0-4.19-2.19","6l3d04mlxk63b6n",149,"53.csv","","null","resources/images/fishbone.png","null","",NA,NA,NA,NA,""
"image-keyboard-response",72,98131,"0.0-4.20-0.20","6l3d04mlxk63b6n",149,"53.csv","","226","resources/trios/L1T4A3.jpg","38","restless",0.3,0.7,0.8,0.37149128095495,"true"
"image-keyboard-response",73,98538,"0.0-4.20-1.20","6l3d04mlxk63b6n",149,"53.csv","","null","resources/maskTrios/BT4B.jpg","null","",NA,NA,NA,NA,""
"image-keyboard-response",74,99746,"0.0-4.20-2.20","6l3d04mlxk63b6n",149,"53.csv","","null","resources/images/coin2.png","null","",NA,NA,NA,NA,""
"image-keyboard-response",75,100087,"0.0-4.21-0.21","6l3d04mlxk63b6n",149,"53.csv","","340.60000014305115","resources/trios/L1T4A3.jpg","37","restless",0.3,0.7,0.7,0.410439931229998,"false"
"image-keyboard-response",76,100499,"0.0-4.21-1.21","6l3d04mlxk63b6n",149,"53.csv","","null","resources/maskTrios/L1BB.jpg","null","",NA,NA,NA,NA,""
"image-keyboard-response",77,101709,"0.0-4.21-2.21","6l3d04mlxk63b6n",149,"53.csv","","null","resources/images/fishbone.png","null","",NA,NA,NA,NA,""
"image-keyboard-response",78,102008,"0.0-4.22-0.22","6l3d04mlxk63b6n",149,"53.csv","","298.40000009536743","resources/trios/L1T4A3.jpg","38","restless",0.3,0.7,0.7,0.0107183706288079,"true"
"image-keyboard-response",79,102412,"0.0-4.22-1.22","6l3d04mlxk63b6n",149,"53.csv","","null","resources/maskTrios/BT4B.jpg","null","",NA,NA,NA,NA,""
"image-keyboard-response",80,103626,"0.0-4.22-2.22","6l3d04mlxk63b6n",149,"53.csv","","null","resources/images/coin2.png","null","",NA,NA,NA,NA,""
"image-keyboard-response",81,104016,"0.0-4.23-0.23","6l3d04mlxk63b6n",149,"53.csv","","388.39999985694885","resources/trios/L1T4A3.jpg","39","restless",0.3,0.7,0.7,0.119301151193314,"true"
"image-keyboard-response",82,104424,"0.0-4.23-1.23","6l3d04mlxk63b6n",149,"53.csv","","null","resources/maskTrios/BBA3.jpg","null","",NA,NA,NA,NA,""
"image-keyboard-response",83,105629,"0.0-4.23-2.23","6l3d04mlxk63b6n",149,"53.csv","","null","resources/images/coin2.png","null","",NA,NA,NA,NA,""
"image-keyboard-response",84,106006,"0.0-4.24-0.24","6l3d04mlxk63b6n",149,"53.csv","","376.2999999523163","resources/trios/L1T4A3.jpg","38","restless",0.3,0.7,0.7,0.420624117147112,"true"
"image-keyboard-response",85,106419,"0.0-4.24-1.24","6l3d04mlxk63b6n",149,"53.csv","","null","resources/maskTrios/BT4B.jpg","null","",NA,NA,NA,NA,""
"image-keyboard-response",86,107631,"0.0-4.24-2.24","6l3d04mlxk63b6n",149,"53.csv","","null","resources/images/coin2.png","null","",NA,NA,NA,NA,""
"image-keyboard-response",87,107733,"0.0-4.25-0.25","6l3d04mlxk63b6n",149,"53.csv","","101","resources/trios/L1T4A3.jpg","37","restless",0.4,0.7,0.7,0.0422762094221809,"true"
"image-keyboard-response",88,108143,"0.0-4.25-1.25","6l3d04mlxk63b6n",149,"53.csv","","null","resources/maskTrios/L1BB.jpg","null","",NA,NA,NA,NA,""
"image-keyboard-response",89,109349,"0.0-4.25-2.25","6l3d04mlxk63b6n",149,"53.csv","","null","resources/images/coin2.png","null","",NA,NA,NA,NA,""
"image-keyboard-response",90,110018,"0.0-4.26-0.26","6l3d04mlxk63b6n",149,"53.csv","","668.5999999046326","resources/trios/L1T4A3.jpg","37","restless",0.4,0.7,0.7,0.349020390382935,"true"
"image-keyboard-response",91,110419,"0.0-4.26-1.26","6l3d04mlxk63b6n",149,"53.csv","","null","resources/maskTrios/L1BB.jpg","null","",NA,NA,NA,NA,""
"image-keyboard-response",92,111627,"0.0-4.26-2.26","6l3d04mlxk63b6n",149,"53.csv","","null","resources/images/coin2.png","null","",NA,NA,NA,NA,""
"image-keyboard-response",93,111815,"0.0-4.27-0.27","6l3d04mlxk63b6n",149,"53.csv","","187.89999985694885","resources/trios/L1T4A3.jpg","38","restless",0.4,0.7,0.7,0.182971451980628,"true"
"image-keyboard-response",94,112229,"0.0-4.27-1.27","6l3d04mlxk63b6n",149,"53.csv","","null","resources/maskTrios/BT4B.jpg","null","",NA,NA,NA,NA,""
"image-keyboard-response",95,113435,"0.0-4.27-2.27","6l3d04mlxk63b6n",149,"53.csv","","null","resources/images/coin2.png","null","",NA,NA,NA,NA,""
"image-keyboard-response",96,114186,"0.0-4.28-0.28","6l3d04mlxk63b6n",149,"53.csv","","750.6000001430511","resources/trios/L1T4A3.jpg","39","restless",0.4,0.7,0.7,0.310034355453281,"true"
"image-keyboard-response",97,114594,"0.0-4.28-1.28","6l3d04mlxk63b6n",149,"53.csv","","null","resources/maskTrios/BBA3.jpg","null","",NA,NA,NA,NA,""
"image-keyboard-response",98,115805,"0.0-4.28-2.28","6l3d04mlxk63b6n",149,"53.csv","","null","resources/images/coin2.png","null","",NA,NA,NA,NA,""
"image-keyboard-response",99,116559,"0.0-4.29-0.29","6l3d04mlxk63b6n",149,"53.csv","","752.4000000953674","resources/trios/L1T4A3.jpg","38","restless",0.4,0.7,0.8,0.237606745307509,"true"
"image-keyboard-response",100,116986,"0.0-4.29-1.29","6l3d04mlxk63b6n",149,"53.csv","","null","resources/maskTrios/BT4B.jpg","null","",NA,NA,NA,NA,""
"image-keyboard-response",101,118192,"0.0-4.29-2.29","6l3d04mlxk63b6n",149,"53.csv","","null","resources/images/coin2.png","null","",NA,NA,NA,NA,""
"image-keyboard-response",102,118474,"0.0-4.30-0.30","6l3d04mlxk63b6n",149,"53.csv","","282","resources/trios/L1T4A3.jpg","37","restless",0.4,0.7,0.8,0.811926789395494,"false"
"image-keyboard-response",103,118879,"0.0-4.30-1.30","6l3d04mlxk63b6n",149,"53.csv","","null","resources/maskTrios/L1BB.jpg","null","",NA,NA,NA,NA,""
"image-keyboard-response",104,120087,"0.0-4.30-2.30","6l3d04mlxk63b6n",149,"53.csv","","null","resources/images/fishbone.png","null","",NA,NA,NA,NA,""
"image-keyboard-response",105,120242,"0.0-4.31-0.31","6l3d04mlxk63b6n",149,"53.csv","","154.09999990463257","resources/trios/L1T4A3.jpg","38","restless",0.4,0.7,0.8,0.790992889694347,"false"
"image-keyboard-response",106,120656,"0.0-4.31-1.31","6l3d04mlxk63b6n",149,"53.csv","","null","resources/maskTrios/BT4B.jpg","null","",NA,NA,NA,NA,""
"image-keyboard-response",107,121859,"0.0-4.31-2.31","6l3d04mlxk63b6n",149,"53.csv","","null","resources/images/fishbone.png","null","",NA,NA,NA,NA,""
"image-keyboard-response",108,122816,"0.0-4.32-0.32","6l3d04mlxk63b6n",149,"53.csv","","957.4000000953674","resources/trios/L1T4A3.jpg","39","restless",0.4,0.7,0.8,0.308145297678353,"true"
"image-keyboard-response",109,123220,"0.0-4.32-1.32","6l3d04mlxk63b6n",149,"53.csv","","null","resources/maskTrios/BBA3.jpg","null","",NA,NA,NA,NA,""
"image-keyboard-response",110,124429,"0.0-4.32-2.32","6l3d04mlxk63b6n",149,"53.csv","","null","resources/images/coin2.png","null","",NA,NA,NA,NA,""
"image-keyboard-response",111,124719,"0.0-4.33-0.33","6l3d04mlxk63b6n",149,"53.csv","","288.89999985694885","resources/trios/L1T4A3.jpg","39","restless",0.4,0.8,0.8,0.230384658114738,"true"
"image-keyboard-response",112,125126,"0.0-4.33-1.33","6l3d04mlxk63b6n",149,"53.csv","","null","resources/maskTrios/BBA3.jpg","null","",NA,NA,NA,NA,""
"image-keyboard-response",113,126334,"0.0-4.33-2.33","6l3d04mlxk63b6n",149,"53.csv","","null","resources/images/coin2.png","null","",NA,NA,NA,NA,""
"image-keyboard-response",114,126675,"0.0-4.34-0.34","6l3d04mlxk63b6n",149,"53.csv","","340.19999980926514","resources/trios/L1T4A3.jpg","37","restless",0.4,0.7,0.8,0.529349998363208,"false"
"image-keyboard-response",115,127088,"0.0-4.34-1.34","6l3d04mlxk63b6n",149,"53.csv","","null","resources/maskTrios/L1BB.jpg","null","",NA,NA,NA,NA,""
"image-keyboard-response",116,128291,"0.0-4.34-2.34","6l3d04mlxk63b6n",149,"53.csv","","null","resources/images/fishbone.png","null","",NA,NA,NA,NA,""
"image-keyboard-response",117,128737,"0.0-4.35-0.35","6l3d04mlxk63b6n",149,"53.csv","","445.30000019073486","resources/trios/L1T4A3.jpg","37","restless",0.4,0.7,0.8,0.329250021561658,"true"
"image-keyboard-response",118,129142,"0.0-4.35-1.35","6l3d04mlxk63b6n",149,"53.csv","","null","resources/maskTrios/L1BB.jpg","null","",NA,NA,NA,NA,""
"image-keyboard-response",119,130353,"0.0-4.35-2.35","6l3d04mlxk63b6n",149,"53.csv","","null","resources/images/coin2.png","null","",NA,NA,NA,NA,""
"image-keyboard-response",120,130597,"0.0-4.36-0.36","6l3d04mlxk63b6n",149,"53.csv","","243.09999990463257","resources/trios/L1T4A3.jpg","38","restless",0.4,0.6,0.8,0.406217403580622,"true"
"image-keyboard-response",121,131013,"0.0-4.36-1.36","6l3d04mlxk63b6n",149,"53.csv","","null","resources/maskTrios/BT4B.jpg","null","",NA,NA,NA,NA,""
"image-keyboard-response",122,132221,"0.0-4.36-2.36","6l3d04mlxk63b6n",149,"53.csv","","null","resources/images/coin2.png","null","",NA,NA,NA,NA,""
"image-keyboard-response",123,132577,"0.0-4.37-0.37","6l3d04mlxk63b6n",149,"53.csv","","355.59999990463257","resources/trios/L1T4A3.jpg","38","restless",0.4,0.6,0.8,0.525245980589641,"true"
"image-keyboard-response",124,132988,"0.0-4.37-1.37","6l3d04mlxk63b6n",149,"53.csv","","null","resources/maskTrios/BT4B.jpg","null","",NA,NA,NA,NA,""
"image-keyboard-response",125,134201,"0.0-4.37-2.37","6l3d04mlxk63b6n",149,"53.csv","","null","resources/images/coin2.png","null","",NA,NA,NA,NA,""
"image-keyboard-response",126,134679,"0.0-4.38-0.38","6l3d04mlxk63b6n",149,"53.csv","","477","resources/trios/L1T4A3.jpg","39","restless",0.4,0.6,0.8,0.897438298237059,"false"
"image-keyboard-response",127,135090,"0.0-4.38-1.38","6l3d04mlxk63b6n",149,"53.csv","","null","resources/maskTrios/BBA3.jpg","null","",NA,NA,NA,NA,""
"image-keyboard-response",128,136298,"0.0-4.38-2.38","6l3d04mlxk63b6n",149,"53.csv","","null","resources/images/fishbone.png","null","",NA,NA,NA,NA,""
"image-keyboard-response",129,136639,"0.0-4.39-0.39","6l3d04mlxk63b6n",149,"53.csv","","340.7999999523163","resources/trios/L1T4A3.jpg","38","restless",0.3,0.6,0.8,0.353534680122148,"true"
"image-keyboard-response",130,137051,"0.0-4.39-1.39","6l3d04mlxk63b6n",149,"53.csv","","null","resources/maskTrios/BT4B.jpg","null","",NA,NA,NA,NA,""
"image-keyboard-response",131,138259,"0.0-4.39-2.39","6l3d04mlxk63b6n",149,"53.csv","","null","resources/images/coin2.png","null","",NA,NA,NA,NA,""
"image-keyboard-response",132,138593,"0.0-4.40-0.40","6l3d04mlxk63b6n",149,"53.csv","","333.39999985694885","resources/trios/L1T4A3.jpg","37","restless",0.3,0.5,0.8,0.33276613722923,"false"
"image-keyboard-response",133,139004,"0.0-4.40-1.40","6l3d04mlxk63b6n",149,"53.csv","","null","resources/maskTrios/L1BB.jpg","null","",NA,NA,NA,NA,""
"image-keyboard-response",134,140208,"0.0-4.40-2.40","6l3d04mlxk63b6n",149,"53.csv","","null","resources/images/fishbone.png","null","",NA,NA,NA,NA,""
"image-keyboard-response",135,140485,"0.0-4.41-0.41","6l3d04mlxk63b6n",149,"53.csv","","276.7000000476837","resources/trios/L1T4A3.jpg","37","restless",0.3,0.5,0.7,0.144888188842223,"true"
"image-keyboard-response",136,140895,"0.0-4.41-1.41","6l3d04mlxk63b6n",149,"53.csv","","null","resources/maskTrios/L1BB.jpg","null","",NA,NA,NA,NA,""
"image-keyboard-response",137,142107,"0.0-4.41-2.41","6l3d04mlxk63b6n",149,"53.csv","","null","resources/images/coin2.png","null","",NA,NA,NA,NA,""
"image-keyboard-response",138,142363,"0.0-4.42-0.42","6l3d04mlxk63b6n",149,"53.csv","","254.69999980926514","resources/trios/L1T4A3.jpg","38","restless",0.3,0.5,0.7,0.506177870221851,"false"
"image-keyboard-response",139,142769,"0.0-4.42-1.42","6l3d04mlxk63b6n",149,"53.csv","","null","resources/maskTrios/BT4B.jpg","null","",NA,NA,NA,NA,""
"image-keyboard-response",140,143977,"0.0-4.42-2.42","6l3d04mlxk63b6n",149,"53.csv","","null","resources/images/fishbone.png","null","",NA,NA,NA,NA,""
"image-keyboard-response",141,144252,"0.0-4.43-0.43","6l3d04mlxk63b6n",149,"53.csv","","274.60000014305115","resources/trios/L1T4A3.jpg","39","restless",0.3,0.5,0.7,0.36437158927414,"true"
"image-keyboard-response",142,144667,"0.0-4.43-1.43","6l3d04mlxk63b6n",149,"53.csv","","null","resources/maskTrios/BBA3.jpg","null","",NA,NA,NA,NA,""
"image-keyboard-response",143,145875,"0.0-4.43-2.43","6l3d04mlxk63b6n",149,"53.csv","","null","resources/images/coin2.png","null","",NA,NA,NA,NA,""
"image-keyboard-response",144,147211,"0.0-4.44-0.44","6l3d04mlxk63b6n",149,"53.csv","","1335.6000001430511","resources/trios/L1T4A3.jpg","39","restless",0.3,0.5,0.7,0.534401381425375,"true"
"image-keyboard-response",145,147619,"0.0-4.44-1.44","6l3d04mlxk63b6n",149,"53.csv","","null","resources/maskTrios/BBA3.jpg","null","",NA,NA,NA,NA,""
"image-keyboard-response",146,148822,"0.0-4.44-2.44","6l3d04mlxk63b6n",149,"53.csv","","null","resources/images/coin2.png","null","",NA,NA,NA,NA,""
"image-keyboard-response",147,149171,"0.0-4.45-0.45","6l3d04mlxk63b6n",149,"53.csv","","348.10000014305115","resources/trios/L1T4A3.jpg","38","restless",0.3,0.5,0.7,0.0569701027214145,"true"
"image-keyboard-response",148,149585,"0.0-4.45-1.45","6l3d04mlxk63b6n",149,"53.csv","","null","resources/maskTrios/BT4B.jpg","null","",NA,NA,NA,NA,""
"image-keyboard-response",149,150795,"0.0-4.45-2.45","6l3d04mlxk63b6n",149,"53.csv","","null","resources/images/coin2.png","null","",NA,NA,NA,NA,""
"image-keyboard-response",150,151197,"0.0-4.46-0.46","6l3d04mlxk63b6n",149,"53.csv","","401.5","resources/trios/L1T4A3.jpg","37","restless",0.3,0.5,0.7,0.716521548735623,"false"
"image-keyboard-response",151,151606,"0.0-4.46-1.46","6l3d04mlxk63b6n",149,"53.csv","","null","resources/maskTrios/L1BB.jpg","null","",NA,NA,NA,NA,""
"image-keyboard-response",152,152814,"0.0-4.46-2.46","6l3d04mlxk63b6n",149,"53.csv","","null","resources/images/fishbone.png","null","",NA,NA,NA,NA,""
"image-keyboard-response",153,155323,"0.0-4.47-0.47","6l3d04mlxk63b6n",149,"53.csv","","2508.5999999046326","resources/trios/L1T4A3.jpg","37","restless",0.3,0.5,0.7,0.602799928435032,"false"
"image-keyboard-response",154,155737,"0.0-4.47-1.47","6l3d04mlxk63b6n",149,"53.csv","","null","resources/maskTrios/L1BB.jpg","null","",NA,NA,NA,NA,""
"image-keyboard-response",155,156944,"0.0-4.47-2.47","6l3d04mlxk63b6n",149,"53.csv","","null","resources/images/fishbone.png","null","",NA,NA,NA,NA,""
"image-keyboard-response",156,157367,"0.0-4.48-0.48","6l3d04mlxk63b6n",149,"53.csv","","422.40000009536743","resources/trios/L1T4A3.jpg","38","restless",0.3,0.5,0.7,0.914498420359232,"false"
"image-keyboard-response",157,157772,"0.0-4.48-1.48","6l3d04mlxk63b6n",149,"53.csv","","null","resources/maskTrios/BT4B.jpg","null","",NA,NA,NA,NA,""
"image-keyboard-response",158,158981,"0.0-4.48-2.48","6l3d04mlxk63b6n",149,"53.csv","","null","resources/images/fishbone.png","null","",NA,NA,NA,NA,""
"image-keyboard-response",159,159288,"0.0-4.49-0.49","6l3d04mlxk63b6n",149,"53.csv","","306.40000009536743","resources/trios/L1T4A3.jpg","39","restless",0.3,0.5,0.7,0.0807400763872894,"true"
"image-keyboard-response",160,159699,"0.0-4.49-1.49","6l3d04mlxk63b6n",149,"53.csv","","null","resources/maskTrios/BBA3.jpg","null","",NA,NA,NA,NA,""
"image-keyboard-response",161,160912,"0.0-4.49-2.49","6l3d04mlxk63b6n",149,"53.csv","","null","resources/images/coin2.png","null","",NA,NA,NA,NA,""
"image-keyboard-response",162,161216,"0.0-4.50-0.50","6l3d04mlxk63b6n",149,"53.csv","","303.59999990463257","resources/trios/L1T4A3.jpg","38","restless",0.3,0.4,0.7,0.59225375522465,"false"
"image-keyboard-response",163,161622,"0.0-4.50-1.50","6l3d04mlxk63b6n",149,"53.csv","","null","resources/maskTrios/BT4B.jpg","null","",NA,NA,NA,NA,""
"image-keyboard-response",164,162830,"0.0-4.50-2.50","6l3d04mlxk63b6n",149,"53.csv","","null","resources/images/fishbone.png","null","",NA,NA,NA,NA,""
"image-keyboard-response",165,163171,"0.0-4.51-0.51","6l3d04mlxk63b6n",149,"53.csv","","340.2000000476837","resources/trios/L1T4A3.jpg","39","restless",0.3,0.4,0.7,0.880733176430149,"false"
"image-keyboard-response",166,163584,"0.0-4.51-1.51","6l3d04mlxk63b6n",149,"53.csv","","null","resources/maskTrios/BBA3.jpg","null","",NA,NA,NA,NA,""
"image-keyboard-response",167,164789,"0.0-4.51-2.51","6l3d04mlxk63b6n",149,"53.csv","","null","resources/images/fishbone.png","null","",NA,NA,NA,NA,""
"image-keyboard-response",168,165274,"0.0-4.52-0.52","6l3d04mlxk63b6n",149,"53.csv","","484.89999985694885","resources/trios/L1T4A3.jpg","39","restless",0.3,0.4,0.7,0.142354286743591,"true"
"image-keyboard-response",169,165679,"0.0-4.52-1.52","6l3d04mlxk63b6n",149,"53.csv","","null","resources/maskTrios/BBA3.jpg","null","",NA,NA,NA,NA,""
"image-keyboard-response",170,166889,"0.0-4.52-2.52","6l3d04mlxk63b6n",149,"53.csv","","null","resources/images/coin2.png","null","",NA,NA,NA,NA,""
"image-keyboard-response",171,167174,"0.0-4.53-0.53","6l3d04mlxk63b6n",149,"53.csv","","285.2999999523163","resources/trios/L1T4A3.jpg","38","restless",0.3,0.4,0.7,0.209162250341209,"true"
"image-keyboard-response",172,167577,"0.0-4.53-1.53","6l3d04mlxk63b6n",149,"53.csv","","null","resources/maskTrios/BT4B.jpg","null","",NA,NA,NA,NA,""
"image-keyboard-response",173,168785,"0.0-4.53-2.53","6l3d04mlxk63b6n",149,"53.csv","","null","resources/images/coin2.png","null","",NA,NA,NA,NA,""
"image-keyboard-response",174,171369,"0.0-4.54-0.54","6l3d04mlxk63b6n",149,"53.csv","","2583.0999999046326","resources/trios/L1T4A3.jpg","37","restless",0.3,0.3,0.7,0.278446178856362,"true"
"image-keyboard-response",175,171771,"0.0-4.54-1.54","6l3d04mlxk63b6n",149,"53.csv","","null","resources/maskTrios/L1BB.jpg","null","",NA,NA,NA,NA,""
"image-keyboard-response",176,172975,"0.0-4.54-2.54","6l3d04mlxk63b6n",149,"53.csv","","null","resources/images/coin2.png","null","",NA,NA,NA,NA,""
"image-keyboard-response",177,173315,"0.0-4.55-0.55","6l3d04mlxk63b6n",149,"53.csv","","339.7000000476837","resources/trios/L1T4A3.jpg","37","restless",0.3,0.3,0.7,0.0849976986980618,"true"
"image-keyboard-response",178,173731,"0.0-4.55-1.55","6l3d04mlxk63b6n",149,"53.csv","","null","resources/maskTrios/L1BB.jpg","null","",NA,NA,NA,NA,""
"image-keyboard-response",179,174939,"0.0-4.55-2.55","6l3d04mlxk63b6n",149,"53.csv","","null","resources/images/coin2.png","null","",NA,NA,NA,NA,""
"image-keyboard-response",180,175002,"0.0-4.56-0.56","6l3d04mlxk63b6n",149,"53.csv","","63.09999990463257","resources/trios/L1T4A3.jpg","37","restless",0.3,0.3,0.7,0.959731249284868,"false"
"image-keyboard-response",181,175416,"0.0-4.56-1.56","6l3d04mlxk63b6n",149,"53.csv","","null","resources/maskTrios/L1BB.jpg","null","",NA,NA,NA,NA,""
"image-keyboard-response",182,176620,"0.0-4.56-2.56","6l3d04mlxk63b6n",149,"53.csv","","null","resources/images/fishbone.png","null","",NA,NA,NA,NA,""
"image-keyboard-response",183,177136,"0.0-4.57-0.57","6l3d04mlxk63b6n",149,"53.csv","","519.5999999046326","resources/trios/L1T4A3.jpg","38","restless",0.4,0.3,0.7,0.750148012368949,"false"
"image-keyboard-response",184,177542,"0.0-4.57-1.57","6l3d04mlxk63b6n",149,"53.csv","","null","resources/maskTrios/BT4B.jpg","null","",NA,NA,NA,NA,""
"image-keyboard-response",185,178751,"0.0-4.57-2.57","6l3d04mlxk63b6n",149,"53.csv","","null","resources/images/fishbone.png","null","",NA,NA,NA,NA,""
"image-keyboard-response",186,179179,"0.0-4.58-0.58","6l3d04mlxk63b6n",149,"53.csv","","428.10000014305115","resources/trios/L1T4A3.jpg","38","restless",0.4,0.3,0.7,0.0794534300243481,"true"
"image-keyboard-response",187,179587,"0.0-4.58-1.58","6l3d04mlxk63b6n",149,"53.csv","","null","resources/maskTrios/BT4B.jpg","null","",NA,NA,NA,NA,""
"image-keyboard-response",188,180797,"0.0-4.58-2.58","6l3d04mlxk63b6n",149,"53.csv","","null","resources/images/coin2.png","null","",NA,NA,NA,NA,""
"image-keyboard-response",189,181712,"0.0-4.59-0.59","6l3d04mlxk63b6n",149,"53.csv","","914.5","resources/trios/L1T4A3.jpg","39","restless",0.4,0.3,0.7,0.508907515235763,"true"
"image-keyboard-response",190,182127,"0.0-4.59-1.59","6l3d04mlxk63b6n",149,"53.csv","","null","resources/maskTrios/BBA3.jpg","null","",NA,NA,NA,NA,""
"image-keyboard-response",191,183335,"0.0-4.59-2.59","6l3d04mlxk63b6n",149,"53.csv","","null","resources/images/coin2.png","null","",NA,NA,NA,NA,""
"image-keyboard-response",192,183693,"0.0-4.60-0.60","6l3d04mlxk63b6n",149,"53.csv","","356.5","resources/trios/L1T4A3.jpg","39","restless",0.4,0.3,0.7,0.831531874809395,"false"
"image-keyboard-response",193,184100,"0.0-4.60-1.60","6l3d04mlxk63b6n",149,"53.csv","","null","resources/maskTrios/BBA3.jpg","null","",NA,NA,NA,NA,""
"image-keyboard-response",194,185314,"0.0-4.60-2.60","6l3d04mlxk63b6n",149,"53.csv","","null","resources/images/fishbone.png","null","",NA,NA,NA,NA,""
"image-keyboard-response",195,185616,"0.0-4.61-0.61","6l3d04mlxk63b6n",149,"53.csv","","301.40000009536743","resources/trios/L1T4A3.jpg","38","restless",0.4,0.3,0.7,0.770042855603931,"false"
"image-keyboard-response",196,186027,"0.0-4.61-1.61","6l3d04mlxk63b6n",149,"53.csv","","null","resources/maskTrios/BT4B.jpg","null","",NA,NA,NA,NA,""
"image-keyboard-response",197,187238,"0.0-4.61-2.61","6l3d04mlxk63b6n",149,"53.csv","","null","resources/images/fishbone.png","null","",NA,NA,NA,NA,""
"image-keyboard-response",198,211301,"0.0-4.62-0.62","6l3d04mlxk63b6n",149,"53.csv","","24062.400000095367","resources/trios/L1T4A3.jpg","38","restless",0.4,0.4,0.7,0.415537835426368,"false"
"image-keyboard-response",199,211703,"0.0-4.62-1.62","6l3d04mlxk63b6n",149,"53.csv","","null","resources/maskTrios/BT4B.jpg","null","",NA,NA,NA,NA,""
"image-keyboard-response",200,212913,"0.0-4.62-2.62","6l3d04mlxk63b6n",149,"53.csv","","null","resources/images/fishbone.png","null","",NA,NA,NA,NA,""
"image-keyboard-response",201,213063,"0.0-4.63-0.63","6l3d04mlxk63b6n",149,"53.csv","","149.39999985694885","resources/trios/L1T4A3.jpg","39","restless",0.4,0.4,0.7,0.485643846737563,"true"
"image-keyboard-response",202,213476,"0.0-4.63-1.63","6l3d04mlxk63b6n",149,"53.csv","","null","resources/maskTrios/BBA3.jpg","null","",NA,NA,NA,NA,""
"image-keyboard-response",203,214684,"0.0-4.63-2.63","6l3d04mlxk63b6n",149,"53.csv","","null","resources/images/coin2.png","null","",NA,NA,NA,NA,""
"image-keyboard-response",204,229983,"0.0-4.64-0.64","6l3d04mlxk63b6n",149,"53.csv","","15298.400000095367","resources/trios/L1T4A3.jpg","39","restless",0.4,0.4,0.7,0.347377677102985,"true"
"image-keyboard-response",205,230395,"0.0-4.64-1.64","6l3d04mlxk63b6n",149,"53.csv","","null","resources/maskTrios/BBA3.jpg","null","",NA,NA,NA,NA,""
"image-keyboard-response",206,231605,"0.0-4.64-2.64","6l3d04mlxk63b6n",149,"53.csv","","null","resources/images/coin2.png","null","",NA,NA,NA,NA,""
"image-keyboard-response",207,232271,"0.0-4.65-0.65","6l3d04mlxk63b6n",149,"53.csv","","665","resources/trios/L1T4A3.jpg","38","restless",0.4,0.4,0.7,0.925377178703261,"false"
"image-keyboard-response",208,232686,"0.0-4.65-1.65","6l3d04mlxk63b6n",149,"53.csv","","null","resources/maskTrios/BT4B.jpg","null","",NA,NA,NA,NA,""
"image-keyboard-response",209,233900,"0.0-4.65-2.65","6l3d04mlxk63b6n",149,"53.csv","","null","resources/images/fishbone.png","null","",NA,NA,NA,NA,""
"image-keyboard-response",210,234221,"0.0-4.66-0.66","6l3d04mlxk63b6n",149,"53.csv","","320.7999999523163","resources/trios/L1T4A3.jpg","37","restless",0.4,0.4,0.7,0.291331013984609,"true"
"image-keyboard-response",211,234629,"0.0-4.66-1.66","6l3d04mlxk63b6n",149,"53.csv","","null","resources/maskTrios/L1BB.jpg","null","",NA,NA,NA,NA,""
"image-keyboard-response",212,235839,"0.0-4.66-2.66","6l3d04mlxk63b6n",149,"53.csv","","null","resources/images/coin2.png","null","",NA,NA,NA,NA,""
"image-keyboard-response",213,236155,"0.0-4.67-0.67","6l3d04mlxk63b6n",149,"53.csv","","315.59999990463257","resources/trios/L1T4A3.jpg","39","restless",0.4,0.4,0.6,0.735162177520077,"false"
"image-keyboard-response",214,236563,"0.0-4.67-1.67","6l3d04mlxk63b6n",149,"53.csv","","null","resources/maskTrios/BBA3.jpg","null","",NA,NA,NA,NA,""
"image-keyboard-response",215,237771,"0.0-4.67-2.67","6l3d04mlxk63b6n",149,"53.csv","","null","resources/images/fishbone.png","null","",NA,NA,NA,NA,""
"image-keyboard-response",216,237991,"0.0-4.68-0.68","6l3d04mlxk63b6n",149,"53.csv","","219.20000004768372","resources/trios/L1T4A3.jpg","37","restless",0.4,0.4,0.6,0.043300159789061,"true"
"image-keyboard-response",217,238404,"0.0-4.68-1.68","6l3d04mlxk63b6n",149,"53.csv","","null","resources/maskTrios/L1BB.jpg","null","",NA,NA,NA,NA,""
"image-keyboard-response",218,239607,"0.0-4.68-2.68","6l3d04mlxk63b6n",149,"53.csv","","null","resources/images/coin2.png","null","",NA,NA,NA,NA,""
"image-keyboard-response",219,240017,"0.0-4.69-0.69","6l3d04mlxk63b6n",149,"53.csv","","409.7999999523163","resources/trios/L1T4A3.jpg","38","restless",0.4,0.4,0.7,0.725667240491253,"false"
"image-keyboard-response",220,240422,"0.0-4.69-1.69","6l3d04mlxk63b6n",149,"53.csv","","null","resources/maskTrios/BT4B.jpg","null","",NA,NA,NA,NA,""
"image-keyboard-response",221,241625,"0.0-4.69-2.69","6l3d04mlxk63b6n",149,"53.csv","","null","resources/images/fishbone.png","null","",NA,NA,NA,NA,""
"image-keyboard-response",222,242263,"0.0-4.70-0.70","6l3d04mlxk63b6n",149,"53.csv","","637.5999999046326","resources/trios/L1T4A3.jpg","38","restless",0.4,0.4,0.7,0.879398420597313,"false"
"image-keyboard-response",223,242677,"0.0-4.70-1.70","6l3d04mlxk63b6n",149,"53.csv","","null","resources/maskTrios/BT4B.jpg","null","",NA,NA,NA,NA,""
"image-keyboard-response",224,243890,"0.0-4.70-2.70","6l3d04mlxk63b6n",149,"53.csv","","null","resources/images/fishbone.png","null","",NA,NA,NA,NA,""
"image-keyboard-response",225,244241,"0.0-4.71-0.71","6l3d04mlxk63b6n",149,"53.csv","","350.2000000476837","resources/trios/L1T4A3.jpg","39","restless",0.4,0.4,0.7,0.680726416839353,"true"
"image-keyboard-response",226,244647,"0.0-4.71-1.71","6l3d04mlxk63b6n",149,"53.csv","","null","resources/maskTrios/BBA3.jpg","null","",NA,NA,NA,NA,""
"image-keyboard-response",227,245856,"0.0-4.71-2.71","6l3d04mlxk63b6n",149,"53.csv","","null","resources/images/coin2.png","null","",NA,NA,NA,NA,""
"image-keyboard-response",228,246901,"0.0-4.72-0.72","6l3d04mlxk63b6n",149,"53.csv","","1044","resources/trios/L1T4A3.jpg","39","restless",0.4,0.4,0.7,0.482056293922722,"true"
"image-keyboard-response",229,247314,"0.0-4.72-1.72","6l3d04mlxk63b6n",149,"53.csv","","null","resources/maskTrios/BBA3.jpg","null","",NA,NA,NA,NA,""
"image-keyboard-response",230,248523,"0.0-4.72-2.72","6l3d04mlxk63b6n",149,"53.csv","","null","resources/images/coin2.png","null","",NA,NA,NA,NA,""
"image-keyboard-response",231,249939,"0.0-4.73-0.73","6l3d04mlxk63b6n",149,"53.csv","","1415.9000000953674","resources/trios/L1T4A3.jpg","37","restless",0.4,0.3,0.6,0.486090914435895,"false"
"image-keyboard-response",232,250346,"0.0-4.73-1.73","6l3d04mlxk63b6n",149,"53.csv","","null","resources/maskTrios/L1BB.jpg","null","",NA,NA,NA,NA,""
"image-keyboard-response",233,251552,"0.0-4.73-2.73","6l3d04mlxk63b6n",149,"53.csv","","null","resources/images/fishbone.png","null","",NA,NA,NA,NA,""
"image-keyboard-response",234,252008,"0.0-4.74-0.74","6l3d04mlxk63b6n",149,"53.csv","","455","resources/trios/L1T4A3.jpg","37","restless",0.4,0.3,0.6,0.310552709959952,"true"
"image-keyboard-response",235,252415,"0.0-4.74-1.74","6l3d04mlxk63b6n",149,"53.csv","","null","resources/maskTrios/L1BB.jpg","null","",NA,NA,NA,NA,""
"image-keyboard-response",236,253630,"0.0-4.74-2.74","6l3d04mlxk63b6n",149,"53.csv","","null","resources/images/coin2.png","null","",NA,NA,NA,NA,""
"image-keyboard-response",237,253759,"0.0-4.75-0.75","6l3d04mlxk63b6n",149,"53.csv","","127.70000004768372","resources/trios/L1T4A3.jpg","38","restless",0.4,0.3,0.6,0.964378314104642,"false"
"image-keyboard-response",238,254169,"0.0-4.75-1.75","6l3d04mlxk63b6n",149,"53.csv","","null","resources/maskTrios/BT4B.jpg","null","",NA,NA,NA,NA,""
"image-keyboard-response",239,255381,"0.0-4.75-2.75","6l3d04mlxk63b6n",149,"53.csv","","null","resources/images/fishbone.png","null","",NA,NA,NA,NA,""
"image-keyboard-response",240,255638,"0.0-4.76-0.76","6l3d04mlxk63b6n",149,"53.csv","","256.09999990463257","resources/trios/L1T4A3.jpg","38","restless",0.3,0.3,0.6,0.207850947807162,"true"
"image-keyboard-response",241,256043,"0.0-4.76-1.76","6l3d04mlxk63b6n",149,"53.csv","","null","resources/maskTrios/BT4B.jpg","null","",NA,NA,NA,NA,""
"image-keyboard-response",242,257251,"0.0-4.76-2.76","6l3d04mlxk63b6n",149,"53.csv","","null","resources/images/coin2.png","null","",NA,NA,NA,NA,""
"image-keyboard-response",243,257659,"0.0-4.77-0.77","6l3d04mlxk63b6n",149,"53.csv","","408.40000009536743","resources/trios/L1T4A3.jpg","38","restless",0.3,0.3,0.5,0.35556389872195,"false"
"image-keyboard-response",244,258065,"0.0-4.77-1.77","6l3d04mlxk63b6n",149,"53.csv","","null","resources/maskTrios/BT4B.jpg","null","",NA,NA,NA,NA,""
"image-keyboard-response",245,259273,"0.0-4.77-2.77","6l3d04mlxk63b6n",149,"53.csv","","null","resources/images/fishbone.png","null","",NA,NA,NA,NA,""
"image-keyboard-response",246,260571,"0.0-4.78-0.78","6l3d04mlxk63b6n",149,"53.csv","","1296.9000000953674","resources/trios/L1T4A3.jpg","39","restless",0.3,0.3,0.4,0.260278454942165,"true"
"image-keyboard-response",247,260982,"0.0-4.78-1.78","6l3d04mlxk63b6n",149,"53.csv","","null","resources/maskTrios/BBA3.jpg","null","",NA,NA,NA,NA,""
"image-keyboard-response",248,262194,"0.0-4.78-2.78","6l3d04mlxk63b6n",149,"53.csv","","null","resources/images/coin2.png","null","",NA,NA,NA,NA,""
"image-keyboard-response",249,262448,"0.0-4.79-0.79","6l3d04mlxk63b6n",149,"53.csv","","253.40000009536743","resources/trios/L1T4A3.jpg","39","restless",0.3,0.3,0.4,0.134379851599132,"true"
"image-keyboard-response",250,262860,"0.0-4.79-1.79","6l3d04mlxk63b6n",149,"53.csv","","null","resources/maskTrios/BBA3.jpg","null","",NA,NA,NA,NA,""
"image-keyboard-response",251,264066,"0.0-4.79-2.79","6l3d04mlxk63b6n",149,"53.csv","","null","resources/images/coin2.png","null","",NA,NA,NA,NA,""
"image-keyboard-response",252,264415,"0.0-4.80-0.80","6l3d04mlxk63b6n",149,"53.csv","","347.60000014305115","resources/trios/L1T4A3.jpg","37","restless",0.3,0.4,0.4,0.548511069408263,"false"
"image-keyboard-response",253,264825,"0.0-4.80-1.80","6l3d04mlxk63b6n",149,"53.csv","","null","resources/maskTrios/L1BB.jpg","null","",NA,NA,NA,NA,""
"image-keyboard-response",254,266033,"0.0-4.80-2.80","6l3d04mlxk63b6n",149,"53.csv","","null","resources/images/fishbone.png","null","",NA,NA,NA,NA,""
"image-keyboard-response",255,266143,"0.0-4.81-0.81","6l3d04mlxk63b6n",149,"53.csv","","109.29999995231628","resources/trios/L1T4A3.jpg","37","restless",0.3,0.4,0.4,0.073992354328648,"true"
"image-keyboard-response",256,266545,"0.0-4.81-1.81","6l3d04mlxk63b6n",149,"53.csv","","null","resources/maskTrios/L1BB.jpg","null","",NA,NA,NA,NA,""
"image-keyboard-response",257,267755,"0.0-4.81-2.81","6l3d04mlxk63b6n",149,"53.csv","","null","resources/images/coin2.png","null","",NA,NA,NA,NA,""
"image-keyboard-response",258,268088,"0.0-4.82-0.82","6l3d04mlxk63b6n",149,"53.csv","","332.59999990463257","resources/trios/L1T4A3.jpg","38","restless",0.4,0.4,0.4,0.208323989289027,"true"
"image-keyboard-response",259,268497,"0.0-4.82-1.82","6l3d04mlxk63b6n",149,"53.csv","","null","resources/maskTrios/BT4B.jpg","null","",NA,NA,NA,NA,""
"image-keyboard-response",260,269713,"0.0-4.82-2.82","6l3d04mlxk63b6n",149,"53.csv","","null","resources/images/coin2.png","null","",NA,NA,NA,NA,""
"image-keyboard-response",261,271412,"0.0-4.83-0.83","6l3d04mlxk63b6n",149,"53.csv","","1698.2000000476837","resources/trios/L1T4A3.jpg","39","restless",0.5,0.4,0.4,0.927438260525581,"false"
"image-keyboard-response",262,271820,"0.0-4.83-1.83","6l3d04mlxk63b6n",149,"53.csv","","null","resources/maskTrios/BBA3.jpg","null","",NA,NA,NA,NA,""
"image-keyboard-response",263,273023,"0.0-4.83-2.83","6l3d04mlxk63b6n",149,"53.csv","","null","resources/images/fishbone.png","null","",NA,NA,NA,NA,""
"image-keyboard-response",264,273407,"0.0-4.84-0.84","6l3d04mlxk63b6n",149,"53.csv","","384.19999980926514","resources/trios/L1T4A3.jpg","39","restless",0.5,0.4,0.4,0.826150218679785,"false"
"image-keyboard-response",265,273818,"0.0-4.84-1.84","6l3d04mlxk63b6n",149,"53.csv","","null","resources/maskTrios/BBA3.jpg","null","",NA,NA,NA,NA,""
"image-keyboard-response",266,275023,"0.0-4.84-2.84","6l3d04mlxk63b6n",149,"53.csv","","null","resources/images/fishbone.png","null","",NA,NA,NA,NA,""
"image-keyboard-response",267,275173,"0.0-4.85-0.85","6l3d04mlxk63b6n",149,"53.csv","","149.5","resources/trios/L1T4A3.jpg","37","restless",0.5,0.4,0.4,0.10781910227477,"true"
"image-keyboard-response",268,275584,"0.0-4.85-1.85","6l3d04mlxk63b6n",149,"53.csv","","null","resources/maskTrios/L1BB.jpg","null","",NA,NA,NA,NA,""
"image-keyboard-response",269,276797,"0.0-4.85-2.85","6l3d04mlxk63b6n",149,"53.csv","","null","resources/images/coin2.png","null","",NA,NA,NA,NA,""
"image-keyboard-response",270,277045,"0.0-4.86-0.86","6l3d04mlxk63b6n",149,"53.csv","","247.30000019073486","resources/trios/L1T4A3.jpg","37","restless",0.5,0.5,0.4,0.367021870735293,"true"
"image-keyboard-response",271,277452,"0.0-4.86-1.86","6l3d04mlxk63b6n",149,"53.csv","","null","resources/maskTrios/L1BB.jpg","null","",NA,NA,NA,NA,""
"image-keyboard-response",272,278660,"0.0-4.86-2.86","6l3d04mlxk63b6n",149,"53.csv","","null","resources/images/coin2.png","null","",NA,NA,NA,NA,""
"image-keyboard-response",273,278904,"0.0-4.87-0.87","6l3d04mlxk63b6n",149,"53.csv","","243.10000014305115","resources/trios/L1T4A3.jpg","38","restless",0.5,0.5,0.4,0.92533376753268,"false"
"image-keyboard-response",274,279316,"0.0-4.87-1.87","6l3d04mlxk63b6n",149,"53.csv","","null","resources/maskTrios/BT4B.jpg","null","",NA,NA,NA,NA,""
"image-keyboard-response",275,280527,"0.0-4.87-2.87","6l3d04mlxk63b6n",149,"53.csv","","null","resources/images/fishbone.png","null","",NA,NA,NA,NA,""
"image-keyboard-response",276,280903,"0.0-4.88-0.88","6l3d04mlxk63b6n",149,"53.csv","","374.60000014305115","resources/trios/L1T4A3.jpg","38","restless",0.5,0.6,0.4,0.456361216570803,"true"
"image-keyboard-response",277,281308,"0.0-4.88-1.88","6l3d04mlxk63b6n",149,"53.csv","","null","resources/maskTrios/BT4B.jpg","null","",NA,NA,NA,NA,""
"image-keyboard-response",278,282522,"0.0-4.88-2.88","6l3d04mlxk63b6n",149,"53.csv","","null","resources/images/coin2.png","null","",NA,NA,NA,NA,""
"image-keyboard-response",279,282891,"0.0-4.89-0.89","6l3d04mlxk63b6n",149,"53.csv","","369.19999980926514","resources/trios/L1T4A3.jpg","39","restless",0.5,0.7,0.4,0.454928442218407,"false"
"image-keyboard-response",280,283293,"0.0-4.89-1.89","6l3d04mlxk63b6n",149,"53.csv","","null","resources/maskTrios/BBA3.jpg","null","",NA,NA,NA,NA,""
"image-keyboard-response",281,284505,"0.0-4.89-2.89","6l3d04mlxk63b6n",149,"53.csv","","null","resources/images/fishbone.png","null","",NA,NA,NA,NA,""
"image-keyboard-response",282,284723,"0.0-4.90-0.90","6l3d04mlxk63b6n",149,"53.csv","","218","resources/trios/L1T4A3.jpg","38","restless",0.5,0.7,0.4,0.583617885308038,"true"
"image-keyboard-response",283,285131,"0.0-4.90-1.90","6l3d04mlxk63b6n",149,"53.csv","","null","resources/maskTrios/BT4B.jpg","null","",NA,NA,NA,NA,""
"image-keyboard-response",284,286338,"0.0-4.90-2.90","6l3d04mlxk63b6n",149,"53.csv","","null","resources/images/coin2.png","null","",NA,NA,NA,NA,""
"image-keyboard-response",285,286620,"0.0-4.91-0.91","6l3d04mlxk63b6n",149,"53.csv","","281.40000009536743","resources/trios/L1T4A3.jpg","37","restless",0.5,0.7,0.4,0.246235789382933,"true"
"image-keyboard-response",286,287029,"0.0-4.91-1.91","6l3d04mlxk63b6n",149,"53.csv","","null","resources/maskTrios/L1BB.jpg","null","",NA,NA,NA,NA,""
"image-keyboard-response",287,288235,"0.0-4.91-2.91","6l3d04mlxk63b6n",149,"53.csv","","null","resources/images/coin2.png","null","",NA,NA,NA,NA,""
"image-keyboard-response",288,288623,"0.0-4.92-0.92","6l3d04mlxk63b6n",149,"53.csv","","387.40000009536743","resources/trios/L1T4A3.jpg","38","restless",0.6,0.7,0.4,0.922181394294831,"false"
"image-keyboard-response",289,289028,"0.0-4.92-1.92","6l3d04mlxk63b6n",149,"53.csv","","null","resources/maskTrios/BT4B.jpg","null","",NA,NA,NA,NA,""
"image-keyboard-response",290,290236,"0.0-4.92-2.92","6l3d04mlxk63b6n",149,"53.csv","","null","resources/images/fishbone.png","null","",NA,NA,NA,NA,""
"image-keyboard-response",291,290608,"0.0-4.93-0.93","6l3d04mlxk63b6n",149,"53.csv","","371.2999999523163","resources/trios/L1T4A3.jpg","39","restless",0.6,0.6,0.4,0.991840647507639,"false"
"image-keyboard-response",292,291020,"0.0-4.93-1.93","6l3d04mlxk63b6n",149,"53.csv","","null","resources/maskTrios/BBA3.jpg","null","",NA,NA,NA,NA,""
"image-keyboard-response",293,292229,"0.0-4.93-2.93","6l3d04mlxk63b6n",149,"53.csv","","null","resources/images/fishbone.png","null","",NA,NA,NA,NA,""
"image-keyboard-response",294,293236,"0.0-4.94-0.94","6l3d04mlxk63b6n",149,"53.csv","","1005.6000001430511","resources/trios/L1T4A3.jpg","38","restless",0.6,0.6,0.4,0.193362620234752,"true"
"image-keyboard-response",295,293648,"0.0-4.94-1.94","6l3d04mlxk63b6n",149,"53.csv","","null","resources/maskTrios/BT4B.jpg","null","",NA,NA,NA,NA,""
"image-keyboard-response",296,294862,"0.0-4.94-2.94","6l3d04mlxk63b6n",149,"53.csv","","null","resources/images/coin2.png","null","",NA,NA,NA,NA,""
"image-keyboard-response",297,295121,"0.0-4.95-0.95","6l3d04mlxk63b6n",149,"53.csv","","258.59999990463257","resources/trios/L1T4A3.jpg","38","restless",0.6,0.6,0.4,0.143870447991821,"true"
"image-keyboard-response",298,295533,"0.0-4.95-1.95","6l3d04mlxk63b6n",149,"53.csv","","null","resources/maskTrios/BT4B.jpg","null","",NA,NA,NA,NA,""
"image-keyboard-response",299,296746,"0.0-4.95-2.95","6l3d04mlxk63b6n",149,"53.csv","","null","resources/images/coin2.png","null","",NA,NA,NA,NA,""
"image-keyboard-response",300,297049,"0.0-4.96-0.96","6l3d04mlxk63b6n",149,"53.csv","","302.5","resources/trios/L1T4A3.jpg","38","restless",0.6,0.6,0.4,0.0186865912160445,"true"
"image-keyboard-response",301,297462,"0.0-4.96-1.96","6l3d04mlxk63b6n",149,"53.csv","","null","resources/maskTrios/BT4B.jpg","null","",NA,NA,NA,NA,""
"image-keyboard-response",302,298671,"0.0-4.96-2.96","6l3d04mlxk63b6n",149,"53.csv","","null","resources/images/coin2.png","null","",NA,NA,NA,NA,""
"image-keyboard-response",303,298999,"0.0-4.97-0.97","6l3d04mlxk63b6n",149,"53.csv","","327","resources/trios/L1T4A3.jpg","38","restless",0.6,0.6,0.4,0.703587452033439,"false"
"image-keyboard-response",304,299410,"0.0-4.97-1.97","6l3d04mlxk63b6n",149,"53.csv","","null","resources/maskTrios/BT4B.jpg","null","",NA,NA,NA,NA,""
"image-keyboard-response",305,300620,"0.0-4.97-2.97","6l3d04mlxk63b6n",149,"53.csv","","null","resources/images/fishbone.png","null","",NA,NA,NA,NA,""
"image-keyboard-response",306,300833,"0.0-4.98-0.98","6l3d04mlxk63b6n",149,"53.csv","","212.29999995231628","resources/trios/L1T4A3.jpg","39","restless",0.6,0.6,0.4,0.369597382340828,"true"
"image-keyboard-response",307,301243,"0.0-4.98-1.98","6l3d04mlxk63b6n",149,"53.csv","","null","resources/maskTrios/BBA3.jpg","null","",NA,NA,NA,NA,""
"image-keyboard-response",308,302458,"0.0-4.98-2.98","6l3d04mlxk63b6n",149,"53.csv","","null","resources/images/coin2.png","null","",NA,NA,NA,NA,""
"image-keyboard-response",309,302834,"0.0-4.99-0.99","6l3d04mlxk63b6n",149,"53.csv","","375.30000019073486","resources/trios/L1T4A3.jpg","37","restless",0.6,0.6,0.4,0.843505557215509,"false"
"image-keyboard-response",310,303246,"0.0-4.99-1.99","6l3d04mlxk63b6n",149,"53.csv","","null","resources/maskTrios/L1BB.jpg","null","",NA,NA,NA,NA,""
"image-keyboard-response",311,304448,"0.0-4.99-2.99","6l3d04mlxk63b6n",149,"53.csv","","null","resources/images/fishbone.png","null","",NA,NA,NA,NA,""
"image-keyboard-response",312,304727,"0.0-4.100-0.100","6l3d04mlxk63b6n",149,"53.csv","","278.2000000476837","resources/trios/L1T4A3.jpg","39","restless",0.7,0.6,0.4,0.205378188830736,"true"
"image-keyboard-response",313,305132,"0.0-4.100-1.100","6l3d04mlxk63b6n",149,"53.csv","","null","resources/maskTrios/BBA3.jpg","null","",NA,NA,NA,NA,""
"image-keyboard-response",314,306341,"0.0-4.100-2.100","6l3d04mlxk63b6n",149,"53.csv","","null","resources/images/coin2.png","null","",NA,NA,NA,NA,""
"image-keyboard-response",315,306674,"0.0-4.101-0.101","6l3d04mlxk63b6n",149,"53.csv","","332.60000014305115","resources/trios/L1T4A3.jpg","37","restless",0.7,0.5,0.4,0.897072346559208,"false"
"image-keyboard-response",316,307090,"0.0-4.101-1.101","6l3d04mlxk63b6n",149,"53.csv","","null","resources/maskTrios/L1BB.jpg","null","",NA,NA,NA,NA,""
"image-keyboard-response",317,308300,"0.0-4.101-2.101","6l3d04mlxk63b6n",149,"53.csv","","null","resources/images/fishbone.png","null","",NA,NA,NA,NA,""
"image-keyboard-response",318,308577,"0.0-4.102-0.102","6l3d04mlxk63b6n",149,"53.csv","","275.7999999523163","resources/trios/L1T4A3.jpg","38","restless",0.8,0.5,0.3,0.298107766263026,"true"
"image-keyboard-response",319,308990,"0.0-4.102-1.102","6l3d04mlxk63b6n",149,"53.csv","","null","resources/maskTrios/BT4B.jpg","null","",NA,NA,NA,NA,""
"image-keyboard-response",320,310200,"0.0-4.102-2.102","6l3d04mlxk63b6n",149,"53.csv","","null","resources/images/coin2.png","null","",NA,NA,NA,NA,""
"image-keyboard-response",321,310325,"0.0-4.103-0.103","6l3d04mlxk63b6n",149,"53.csv","","123.70000004768372","resources/trios/L1T4A3.jpg","39","restless",0.8,0.5,0.2,0.283949918904002,"false"
"image-keyboard-response",322,310737,"0.0-4.103-1.103","6l3d04mlxk63b6n",149,"53.csv","","null","resources/maskTrios/BBA3.jpg","null","",NA,NA,NA,NA,""
"image-keyboard-response",323,311941,"0.0-4.103-2.103","6l3d04mlxk63b6n",149,"53.csv","","null","resources/images/fishbone.png","null","",NA,NA,NA,NA,""
"image-keyboard-response",324,312242,"0.0-4.104-0.104","6l3d04mlxk63b6n",149,"53.csv","","300.60000014305115","resources/trios/L1T4A3.jpg","38","restless",0.8,0.5,0.2,0.0338941003330242,"true"
"image-keyboard-response",325,312653,"0.0-4.104-1.104","6l3d04mlxk63b6n",149,"53.csv","","null","resources/maskTrios/BT4B.jpg","null","",NA,NA,NA,NA,""
"image-keyboard-response",326,313866,"0.0-4.104-2.104","6l3d04mlxk63b6n",149,"53.csv","","null","resources/images/coin2.png","null","",NA,NA,NA,NA,""
"image-keyboard-response",327,314096,"0.0-4.105-0.105","6l3d04mlxk63b6n",149,"53.csv","","229.79999995231628","resources/trios/L1T4A3.jpg","38","restless",0.8,0.5,0.2,0.477131906653134,"true"
"image-keyboard-response",328,314510,"0.0-4.105-1.105","6l3d04mlxk63b6n",149,"53.csv","","null","resources/maskTrios/BT4B.jpg","null","",NA,NA,NA,NA,""
"image-keyboard-response",329,315724,"0.0-4.105-2.105","6l3d04mlxk63b6n",149,"53.csv","","null","resources/images/coin2.png","null","",NA,NA,NA,NA,""
"image-keyboard-response",330,316015,"0.0-4.106-0.106","6l3d04mlxk63b6n",149,"53.csv","","290.09999990463257","resources/trios/L1T4A3.jpg","37","restless",0.7,0.5,0.2,0.0169886841305129,"true"
"image-keyboard-response",331,316423,"0.0-4.106-1.106","6l3d04mlxk63b6n",149,"53.csv","","null","resources/maskTrios/L1BB.jpg","null","",NA,NA,NA,NA,""
"image-keyboard-response",332,317631,"0.0-4.106-2.106","6l3d04mlxk63b6n",149,"53.csv","","null","resources/images/coin2.png","null","",NA,NA,NA,NA,""
"image-keyboard-response",333,318040,"0.0-4.107-0.107","6l3d04mlxk63b6n",149,"53.csv","","409","resources/trios/L1T4A3.jpg","37","restless",0.7,0.5,0.2,0.91969930337546,"false"
"image-keyboard-response",334,318445,"0.0-4.107-1.107","6l3d04mlxk63b6n",149,"53.csv","","null","resources/maskTrios/L1BB.jpg","null","",NA,NA,NA,NA,""
"image-keyboard-response",335,319654,"0.0-4.107-2.107","6l3d04mlxk63b6n",149,"53.csv","","null","resources/images/fishbone.png","null","",NA,NA,NA,NA,""
"image-keyboard-response",336,320001,"0.0-4.108-0.108","6l3d04mlxk63b6n",149,"53.csv","","345.7999999523163","resources/trios/L1T4A3.jpg","39","restless",0.7,0.5,0.2,0.535446464050386,"false"
"image-keyboard-response",337,320413,"0.0-4.108-1.108","6l3d04mlxk63b6n",149,"53.csv","","null","resources/maskTrios/BBA3.jpg","null","",NA,NA,NA,NA,""
"image-keyboard-response",338,321628,"0.0-4.108-2.108","6l3d04mlxk63b6n",149,"53.csv","","null","resources/images/fishbone.png","null","",NA,NA,NA,NA,""
"image-keyboard-response",339,321674,"0.0-4.109-0.109","6l3d04mlxk63b6n",149,"53.csv","","45.90000009536743","resources/trios/L1T4A3.jpg","39","restless",0.6,0.5,0.3,0.489907659554869,"false"
"image-keyboard-response",340,322084,"0.0-4.109-1.109","6l3d04mlxk63b6n",149,"53.csv","","null","resources/maskTrios/BBA3.jpg","null","",NA,NA,NA,NA,""
"image-keyboard-response",341,323295,"0.0-4.109-2.109","6l3d04mlxk63b6n",149,"53.csv","","null","resources/images/fishbone.png","null","",NA,NA,NA,NA,""
"image-keyboard-response",342,323585,"0.0-4.110-0.110","6l3d04mlxk63b6n",149,"53.csv","","289.80000019073486","resources/trios/L1T4A3.jpg","38","restless",0.6,0.5,0.3,0.663817256573706,"false"
"image-keyboard-response",343,323987,"0.0-4.110-1.110","6l3d04mlxk63b6n",149,"53.csv","","null","resources/maskTrios/BT4B.jpg","null","",NA,NA,NA,NA,""
"image-keyboard-response",344,325200,"0.0-4.110-2.110","6l3d04mlxk63b6n",149,"53.csv","","null","resources/images/fishbone.png","null","",NA,NA,NA,NA,""
"image-keyboard-response",345,325429,"0.0-4.111-0.111","6l3d04mlxk63b6n",149,"53.csv","","228.60000014305115","resources/trios/L1T4A3.jpg","38","restless",0.6,0.5,0.3,0.291966025182788,"true"
"image-keyboard-response",346,325842,"0.0-4.111-1.111","6l3d04mlxk63b6n",149,"53.csv","","null","resources/maskTrios/BT4B.jpg","null","",NA,NA,NA,NA,""
"image-keyboard-response",347,327056,"0.0-4.111-2.111","6l3d04mlxk63b6n",149,"53.csv","","null","resources/images/coin2.png","null","",NA,NA,NA,NA,""
"image-keyboard-response",348,327057,"0.0-4.112-0.112","6l3d04mlxk63b6n",149,"53.csv","","0","resources/trios/L1T4A3.jpg","38","restless",0.6,0.5,0.3,0.839120293898999,"false"
"image-keyboard-response",349,327469,"0.0-4.112-1.112","6l3d04mlxk63b6n",149,"53.csv","","null","resources/maskTrios/BT4B.jpg","null","",NA,NA,NA,NA,""
"image-keyboard-response",350,328677,"0.0-4.112-2.112","6l3d04mlxk63b6n",149,"53.csv","","null","resources/images/fishbone.png","null","",NA,NA,NA,NA,""
"image-keyboard-response",351,329123,"0.0-4.113-0.113","6l3d04mlxk63b6n",149,"53.csv","","445.7999999523163","resources/trios/L1T4A3.jpg","37","restless",0.6,0.5,0.3,0.495697665069511,"true"
"image-keyboard-response",352,329538,"0.0-4.113-1.113","6l3d04mlxk63b6n",149,"53.csv","","null","resources/maskTrios/L1BB.jpg","null","",NA,NA,NA,NA,""
"image-keyboard-response",353,330751,"0.0-4.113-2.113","6l3d04mlxk63b6n",149,"53.csv","","null","resources/images/coin2.png","null","",NA,NA,NA,NA,""
"image-keyboard-response",354,331668,"0.0-4.114-0.114","6l3d04mlxk63b6n",149,"53.csv","","916.6999998092651","resources/trios/L1T4A3.jpg","37","restless",0.6,0.5,0.3,0.079938509575374,"true"
"image-keyboard-response",355,332084,"0.0-4.114-1.114","6l3d04mlxk63b6n",149,"53.csv","","null","resources/maskTrios/L1BB.jpg","null","",NA,NA,NA,NA,""
"image-keyboard-response",356,333289,"0.0-4.114-2.114","6l3d04mlxk63b6n",149,"53.csv","","null","resources/images/coin2.png","null","",NA,NA,NA,NA,""
"image-keyboard-response",357,333543,"0.0-4.115-0.115","6l3d04mlxk63b6n",149,"53.csv","","253.39999985694885","resources/trios/L1T4A3.jpg","37","restless",0.6,0.5,0.3,0.496021474957929,"true"
"image-keyboard-response",358,333957,"0.0-4.115-1.115","6l3d04mlxk63b6n",149,"53.csv","","null","resources/maskTrios/L1BB.jpg","null","",NA,NA,NA,NA,""
"image-keyboard-response",359,335163,"0.0-4.115-2.115","6l3d04mlxk63b6n",149,"53.csv","","null","resources/images/coin2.png","null","",NA,NA,NA,NA,""
"image-keyboard-response",360,335518,"0.0-4.116-0.116","6l3d04mlxk63b6n",149,"53.csv","","354.2000000476837","resources/trios/L1T4A3.jpg","39","restless",0.6,0.5,0.3,0.476790688674867,"false"
"image-keyboard-response",361,335929,"0.0-4.116-1.116","6l3d04mlxk63b6n",149,"53.csv","","null","resources/maskTrios/BBA3.jpg","null","",NA,NA,NA,NA,""
"image-keyboard-response",362,337135,"0.0-4.116-2.116","6l3d04mlxk63b6n",149,"53.csv","","null","resources/images/fishbone.png","null","",NA,NA,NA,NA,""
"image-keyboard-response",363,337455,"0.0-4.117-0.117","6l3d04mlxk63b6n",149,"53.csv","","319.7999999523163","resources/trios/L1T4A3.jpg","39","restless",0.6,0.5,0.3,0.470992709807469,"false"
"image-keyboard-response",364,337868,"0.0-4.117-1.117","6l3d04mlxk63b6n",149,"53.csv","","null","resources/maskTrios/BBA3.jpg","null","",NA,NA,NA,NA,""
"image-keyboard-response",365,339073,"0.0-4.117-2.117","6l3d04mlxk63b6n",149,"53.csv","","null","resources/images/fishbone.png","null","",NA,NA,NA,NA,""
"image-keyboard-response",366,339663,"0.0-4.118-0.118","6l3d04mlxk63b6n",149,"53.csv","","589.5999999046326","resources/trios/L1T4A3.jpg","38","restless",0.6,0.5,0.3,0.520023458380217,"false"
"image-keyboard-response",367,340077,"0.0-4.118-1.118","6l3d04mlxk63b6n",149,"53.csv","","null","resources/maskTrios/BT4B.jpg","null","",NA,NA,NA,NA,""
"image-keyboard-response",368,341291,"0.0-4.118-2.118","6l3d04mlxk63b6n",149,"53.csv","","null","resources/images/fishbone.png","null","",NA,NA,NA,NA,""
"image-keyboard-response",369,341429,"0.0-4.119-0.119","6l3d04mlxk63b6n",149,"53.csv","","137.5","resources/trios/L1T4A3.jpg","38","restless",0.6,0.5,0.3,0.0532749272450452,"true"
"image-keyboard-response",370,341840,"0.0-4.119-1.119","6l3d04mlxk63b6n",149,"53.csv","","null","resources/maskTrios/BT4B.jpg","null","",NA,NA,NA,NA,""
"image-keyboard-response",371,343048,"0.0-4.119-2.119","6l3d04mlxk63b6n",149,"53.csv","","null","resources/images/coin2.png","null","",NA,NA,NA,NA,""
"image-keyboard-response",372,343074,"0.0-4.120-0.120","6l3d04mlxk63b6n",149,"53.csv","","24.899999856948853","resources/trios/L1T4A3.jpg","38","restless",0.6,0.5,0.3,0.52457455746977,"false"
"image-keyboard-response",373,343476,"0.0-4.120-1.120","6l3d04mlxk63b6n",149,"53.csv","","null","resources/maskTrios/BT4B.jpg","null","",NA,NA,NA,NA,""
"image-keyboard-response",374,344691,"0.0-4.120-2.120","6l3d04mlxk63b6n",149,"53.csv","","null","resources/images/fishbone.png","null","",NA,NA,NA,NA,""
"image-keyboard-response",375,344961,"0.0-4.121-0.121","6l3d04mlxk63b6n",149,"53.csv","","269.40000009536743","resources/trios/L1T4A3.jpg","37","restless",0.6,0.5,0.3,0.119426601417051,"true"
"image-keyboard-response",376,345364,"0.0-4.121-1.121","6l3d04mlxk63b6n",149,"53.csv","","null","resources/maskTrios/L1BB.jpg","null","",NA,NA,NA,NA,""
"image-keyboard-response",377,346577,"0.0-4.121-2.121","6l3d04mlxk63b6n",149,"53.csv","","null","resources/images/coin2.png","null","",NA,NA,NA,NA,""
"image-keyboard-response",378,346853,"0.0-4.122-0.122","6l3d04mlxk63b6n",149,"53.csv","","275.59999990463257","resources/trios/L1T4A3.jpg","37","restless",0.6,0.5,0.3,0.131584182036164,"true"
"image-keyboard-response",379,347267,"0.0-4.122-1.122","6l3d04mlxk63b6n",149,"53.csv","","null","resources/maskTrios/L1BB.jpg","null","",NA,NA,NA,NA,""
"image-keyboard-response",380,348480,"0.0-4.122-2.122","6l3d04mlxk63b6n",149,"53.csv","","null","resources/images/coin2.png","null","",NA,NA,NA,NA,""
"image-keyboard-response",381,349325,"0.0-4.123-0.123","6l3d04mlxk63b6n",149,"53.csv","","843.2000000476837","resources/trios/L1T4A3.jpg","38","restless",0.6,0.5,0.3,0.666605463190759,"false"
"image-keyboard-response",382,349737,"0.0-4.123-1.123","6l3d04mlxk63b6n",149,"53.csv","","null","resources/maskTrios/BT4B.jpg","null","",NA,NA,NA,NA,""
"image-keyboard-response",383,350945,"0.0-4.123-2.123","6l3d04mlxk63b6n",149,"53.csv","","null","resources/images/fishbone.png","null","",NA,NA,NA,NA,""
"image-keyboard-response",384,351098,"0.0-4.124-0.124","6l3d04mlxk63b6n",149,"53.csv","","151.40000009536743","resources/trios/L1T4A3.jpg","38","restless",0.6,0.5,0.3,0.810298767718222,"false"
"image-keyboard-response",385,351510,"0.0-4.124-1.124","6l3d04mlxk63b6n",149,"53.csv","","null","resources/maskTrios/BT4B.jpg","null","",NA,NA,NA,NA,""
"image-keyboard-response",386,352721,"0.0-4.124-2.124","6l3d04mlxk63b6n",149,"53.csv","","null","resources/images/fishbone.png","null","",NA,NA,NA,NA,""
"image-keyboard-response",387,353071,"0.0-4.125-0.125","6l3d04mlxk63b6n",149,"53.csv","","349.2000000476837","resources/trios/L1T4A3.jpg","39","restless",0.6,0.5,0.2,0.199166416357393,"true"
"image-keyboard-response",388,353485,"0.0-4.125-1.125","6l3d04mlxk63b6n",149,"53.csv","","null","resources/maskTrios/BBA3.jpg","null","",NA,NA,NA,NA,""
"image-keyboard-response",389,354697,"0.0-4.125-2.125","6l3d04mlxk63b6n",149,"53.csv","","null","resources/images/coin2.png","null","",NA,NA,NA,NA,""
"image-keyboard-response",390,354895,"0.0-4.126-0.126","6l3d04mlxk63b6n",149,"53.csv","","197.29999995231628","resources/trios/L1T4A3.jpg","39","restless",0.6,0.5,0.2,0.375161732376169,"false"
"image-keyboard-response",391,355302,"0.0-4.126-1.126","6l3d04mlxk63b6n",149,"53.csv","","null","resources/maskTrios/BBA3.jpg","null","",NA,NA,NA,NA,""
"image-keyboard-response",392,356511,"0.0-4.126-2.126","6l3d04mlxk63b6n",149,"53.csv","","null","resources/images/fishbone.png","null","",NA,NA,NA,NA,""
"image-keyboard-response",393,357457,"0.0-4.127-0.127","6l3d04mlxk63b6n",149,"53.csv","","945.2000000476837","resources/trios/L1T4A3.jpg","38","restless",0.6,0.5,0.2,0.102767266822406,"true"
"image-keyboard-response",394,357871,"0.0-4.127-1.127","6l3d04mlxk63b6n",149,"53.csv","","null","resources/maskTrios/BT4B.jpg","null","",NA,NA,NA,NA,""
"image-keyboard-response",395,359081,"0.0-4.127-2.127","6l3d04mlxk63b6n",149,"53.csv","","null","resources/images/coin2.png","null","",NA,NA,NA,NA,""
"image-keyboard-response",396,359230,"0.0-4.128-0.128","6l3d04mlxk63b6n",149,"53.csv","","148.39999985694885","resources/trios/L1T4A3.jpg","37","restless",0.6,0.5,0.2,0.931121740791045,"false"
"image-keyboard-response",397,359645,"0.0-4.128-1.128","6l3d04mlxk63b6n",149,"53.csv","","null","resources/maskTrios/L1BB.jpg","null","",NA,NA,NA,NA,""
"image-keyboard-response",398,360859,"0.0-4.128-2.128","6l3d04mlxk63b6n",149,"53.csv","","null","resources/images/fishbone.png","null","",NA,NA,NA,NA,""
"image-keyboard-response",399,361127,"0.0-4.129-0.129","6l3d04mlxk63b6n",149,"53.csv","","268","resources/trios/L1T4A3.jpg","39","restless",0.6,0.5,0.2,0.674902452912022,"false"
"image-keyboard-response",400,361537,"0.0-4.129-1.129","6l3d04mlxk63b6n",149,"53.csv","","null","resources/maskTrios/BBA3.jpg","null","",NA,NA,NA,NA,""
"image-keyboard-response",401,362747,"0.0-4.129-2.129","6l3d04mlxk63b6n",149,"53.csv","","null","resources/images/fishbone.png","null","",NA,NA,NA,NA,""
"image-keyboard-response",402,363073,"0.0-4.130-0.130","6l3d04mlxk63b6n",149,"53.csv","","325.5","resources/trios/L1T4A3.jpg","38","restless",0.5,0.5,0.2,0.0995078121506736,"true"
"image-keyboard-response",403,363479,"0.0-4.130-1.130","6l3d04mlxk63b6n",149,"53.csv","","null","resources/maskTrios/BT4B.jpg","null","",NA,NA,NA,NA,""
"image-keyboard-response",404,364687,"0.0-4.130-2.130","6l3d04mlxk63b6n",149,"53.csv","","null","resources/images/coin2.png","null","",NA,NA,NA,NA,""
"image-keyboard-response",405,364916,"0.0-4.131-0.131","6l3d04mlxk63b6n",149,"53.csv","","228.20000004768372","resources/trios/L1T4A3.jpg","39","restless",0.5,0.5,0.2,0.731290517525392,"false"
"image-keyboard-response",406,365330,"0.0-4.131-1.131","6l3d04mlxk63b6n",149,"53.csv","","null","resources/maskTrios/BBA3.jpg","null","",NA,NA,NA,NA,""
"image-keyboard-response",407,366543,"0.0-4.131-2.131","6l3d04mlxk63b6n",149,"53.csv","","null","resources/images/fishbone.png","null","",NA,NA,NA,NA,""
"image-keyboard-response",408,366695,"0.0-4.132-0.132","6l3d04mlxk63b6n",149,"53.csv","","151.29999995231628","resources/trios/L1T4A3.jpg","37","restless",0.5,0.5,0.2,0.0760312355221904,"true"
"image-keyboard-response",409,367107,"0.0-4.132-1.132","6l3d04mlxk63b6n",149,"53.csv","","null","resources/maskTrios/L1BB.jpg","null","",NA,NA,NA,NA,""
"image-keyboard-response",410,368315,"0.0-4.132-2.132","6l3d04mlxk63b6n",149,"53.csv","","null","resources/images/coin2.png","null","",NA,NA,NA,NA,""
"image-keyboard-response",411,368759,"0.0-4.133-0.133","6l3d04mlxk63b6n",149,"53.csv","","443.7999999523163","resources/trios/L1T4A3.jpg","38","restless",0.5,0.5,0.2,0.847773892970624,"false"
"image-keyboard-response",412,369173,"0.0-4.133-1.133","6l3d04mlxk63b6n",149,"53.csv","","null","resources/maskTrios/BT4B.jpg","null","",NA,NA,NA,NA,""
"image-keyboard-response",413,370381,"0.0-4.133-2.133","6l3d04mlxk63b6n",149,"53.csv","","null","resources/images/fishbone.png","null","",NA,NA,NA,NA,""
"image-keyboard-response",414,370627,"0.0-4.134-0.134","6l3d04mlxk63b6n",149,"53.csv","","244.59999990463257","resources/trios/L1T4A3.jpg","39","restless",0.5,0.5,0.2,0.375201972971394,"false"
"image-keyboard-response",415,371034,"0.0-4.134-1.134","6l3d04mlxk63b6n",149,"53.csv","","null","resources/maskTrios/BBA3.jpg","null","",NA,NA,NA,NA,""
"image-keyboard-response",416,372247,"0.0-4.134-2.134","6l3d04mlxk63b6n",149,"53.csv","","null","resources/images/fishbone.png","null","",NA,NA,NA,NA,""
"image-keyboard-response",417,373164,"0.0-4.135-0.135","6l3d04mlxk63b6n",149,"53.csv","","916.4000000953674","resources/trios/L1T4A3.jpg","38","restless",0.5,0.5,0.2,0.645046140370253,"false"
"image-keyboard-response",418,373576,"0.0-4.135-1.135","6l3d04mlxk63b6n",149,"53.csv","","null","resources/maskTrios/BT4B.jpg","null","",NA,NA,NA,NA,""
"image-keyboard-response",419,374782,"0.0-4.135-2.135","6l3d04mlxk63b6n",149,"53.csv","","null","resources/images/fishbone.png","null","",NA,NA,NA,NA,""
"image-keyboard-response",420,375044,"0.0-4.136-0.136","6l3d04mlxk63b6n",149,"53.csv","","261","resources/trios/L1T4A3.jpg","37","restless",0.5,0.5,0.2,0.808345089588027,"false"
"image-keyboard-response",421,375453,"0.0-4.136-1.136","6l3d04mlxk63b6n",149,"53.csv","","null","resources/maskTrios/L1BB.jpg","null","",NA,NA,NA,NA,""
"image-keyboard-response",422,376662,"0.0-4.136-2.136","6l3d04mlxk63b6n",149,"53.csv","","null","resources/images/fishbone.png","null","",NA,NA,NA,NA,""
"image-keyboard-response",423,376689,"0.0-4.137-0.137","6l3d04mlxk63b6n",149,"53.csv","","26.700000047683716","resources/trios/L1T4A3.jpg","39","restless",0.5,0.5,0.2,0.421850704107126,"false"
"image-keyboard-response",424,377102,"0.0-4.137-1.137","6l3d04mlxk63b6n",149,"53.csv","","null","resources/maskTrios/BBA3.jpg","null","",NA,NA,NA,NA,""
"image-keyboard-response",425,378305,"0.0-4.137-2.137","6l3d04mlxk63b6n",149,"53.csv","","null","resources/images/fishbone.png","null","",NA,NA,NA,NA,""
"image-keyboard-response",426,378704,"0.0-4.138-0.138","6l3d04mlxk63b6n",149,"53.csv","","398.2000000476837","resources/trios/L1T4A3.jpg","39","restless",0.5,0.5,0.3,0.566322603732073,"false"
"image-keyboard-response",427,379117,"0.0-4.138-1.138","6l3d04mlxk63b6n",149,"53.csv","","null","resources/maskTrios/BBA3.jpg","null","",NA,NA,NA,NA,""
"image-keyboard-response",428,380322,"0.0-4.138-2.138","6l3d04mlxk63b6n",149,"53.csv","","null","resources/images/fishbone.png","null","",NA,NA,NA,NA,""
"image-keyboard-response",429,380643,"0.0-4.139-0.139","6l3d04mlxk63b6n",149,"53.csv","","320.7999999523163","resources/trios/L1T4A3.jpg","38","restless",0.5,0.5,0.3,0.0374288457858687,"true"
"image-keyboard-response",430,381055,"0.0-4.139-1.139","6l3d04mlxk63b6n",149,"53.csv","","null","resources/maskTrios/BT4B.jpg","null","",NA,NA,NA,NA,""
"image-keyboard-response",431,382262,"0.0-4.139-2.139","6l3d04mlxk63b6n",149,"53.csv","","null","resources/images/coin2.png","null","",NA,NA,NA,NA,""
"image-keyboard-response",432,382377,"0.0-4.140-0.140","6l3d04mlxk63b6n",149,"53.csv","","113.79999995231628","resources/trios/L1T4A3.jpg","38","restless",0.5,0.5,0.3,0.814609661758901,"false"
"image-keyboard-response",433,382787,"0.0-4.140-1.140","6l3d04mlxk63b6n",149,"53.csv","","null","resources/maskTrios/BT4B.jpg","null","",NA,NA,NA,NA,""
"image-keyboard-response",434,384002,"0.0-4.140-2.140","6l3d04mlxk63b6n",149,"53.csv","","null","resources/images/fishbone.png","null","",NA,NA,NA,NA,""
"image-keyboard-response",435,384351,"0.0-4.141-0.141","6l3d04mlxk63b6n",149,"53.csv","","348.5","resources/trios/L1T4A3.jpg","37","restless",0.5,0.5,0.3,0.647926500286219,"false"
"image-keyboard-response",436,384758,"0.0-4.141-1.141","6l3d04mlxk63b6n",149,"53.csv","","null","resources/maskTrios/L1BB.jpg","null","",NA,NA,NA,NA,""
"image-keyboard-response",437,385967,"0.0-4.141-2.141","6l3d04mlxk63b6n",149,"53.csv","","null","resources/images/fishbone.png","null","",NA,NA,NA,NA,""
"image-keyboard-response",438,386105,"0.0-4.142-0.142","6l3d04mlxk63b6n",149,"53.csv","","137","resources/trios/L1T4A3.jpg","37","restless",0.5,0.5,0.3,0.135613519065108,"true"
"image-keyboard-response",439,386509,"0.0-4.142-1.142","6l3d04mlxk63b6n",149,"53.csv","","null","resources/maskTrios/L1BB.jpg","null","",NA,NA,NA,NA,""
"image-keyboard-response",440,387721,"0.0-4.142-2.142","6l3d04mlxk63b6n",149,"53.csv","","null","resources/images/coin2.png","null","",NA,NA,NA,NA,""
"image-keyboard-response",441,388103,"0.0-4.143-0.143","6l3d04mlxk63b6n",149,"53.csv","","380.7999999523163","resources/trios/L1T4A3.jpg","37","restless",0.5,0.5,0.3,0.168950127051413,"true"
"image-keyboard-response",442,388519,"0.0-4.143-1.143","6l3d04mlxk63b6n",149,"53.csv","","null","resources/maskTrios/L1BB.jpg","null","",NA,NA,NA,NA,""
"image-keyboard-response",443,389732,"0.0-4.143-2.143","6l3d04mlxk63b6n",149,"53.csv","","null","resources/images/coin2.png","null","",NA,NA,NA,NA,""
"image-keyboard-response",444,389991,"0.0-4.144-0.144","6l3d04mlxk63b6n",149,"53.csv","","257.7000000476837","resources/trios/L1T4A3.jpg","38","restless",0.5,0.5,0.3,0.761236998198527,"false"
"image-keyboard-response",445,390402,"0.0-4.144-1.144","6l3d04mlxk63b6n",149,"53.csv","","null","resources/maskTrios/BT4B.jpg","null","",NA,NA,NA,NA,""
"image-keyboard-response",446,391607,"0.0-4.144-2.144","6l3d04mlxk63b6n",149,"53.csv","","null","resources/images/fishbone.png","null","",NA,NA,NA,NA,""
"image-keyboard-response",447,391751,"0.0-4.145-0.145","6l3d04mlxk63b6n",149,"53.csv","","143","resources/trios/L1T4A3.jpg","39","restless",0.6,0.5,0.3,0.907674335695879,"false"
"image-keyboard-response",448,392168,"0.0-4.145-1.145","6l3d04mlxk63b6n",149,"53.csv","","null","resources/maskTrios/BBA3.jpg","null","",NA,NA,NA,NA,""
"image-keyboard-response",449,393383,"0.0-4.145-2.145","6l3d04mlxk63b6n",149,"53.csv","","null","resources/images/fishbone.png","null","",NA,NA,NA,NA,""
"image-keyboard-response",450,393414,"0.0-4.146-0.146","6l3d04mlxk63b6n",149,"53.csv","","30.799999952316284","resources/trios/L1T4A3.jpg","37","restless",0.6,0.5,0.3,0.882196484191677,"false"
"image-keyboard-response",451,393825,"0.0-4.146-1.146","6l3d04mlxk63b6n",149,"53.csv","","null","resources/maskTrios/L1BB.jpg","null","",NA,NA,NA,NA,""
"image-keyboard-response",452,395036,"0.0-4.146-2.146","6l3d04mlxk63b6n",149,"53.csv","","null","resources/images/fishbone.png","null","",NA,NA,NA,NA,""
"image-keyboard-response",453,395680,"0.0-4.147-0.147","6l3d04mlxk63b6n",149,"53.csv","","643.6000001430511","resources/trios/L1T4A3.jpg","38","restless",0.6,0.5,0.3,0.366609870726003,"true"
"image-keyboard-response",454,396081,"0.0-4.147-1.147","6l3d04mlxk63b6n",149,"53.csv","","null","resources/maskTrios/BT4B.jpg","null","",NA,NA,NA,NA,""
"image-keyboard-response",455,397292,"0.0-4.147-2.147","6l3d04mlxk63b6n",149,"53.csv","","null","resources/images/coin2.png","null","",NA,NA,NA,NA,""
"image-keyboard-response",456,397596,"0.0-4.148-0.148","6l3d04mlxk63b6n",149,"53.csv","","303.59999990463257","resources/trios/L1T4A3.jpg","39","restless",0.6,0.5,0.3,0.579769945014996,"false"
"image-keyboard-response",457,398006,"0.0-4.148-1.148","6l3d04mlxk63b6n",149,"53.csv","","null","resources/maskTrios/BBA3.jpg","null","",NA,NA,NA,NA,""
"image-keyboard-response",458,399219,"0.0-4.148-2.148","6l3d04mlxk63b6n",149,"53.csv","","null","resources/images/fishbone.png","null","",NA,NA,NA,NA,""
"image-keyboard-response",459,399516,"0.0-4.149-0.149","6l3d04mlxk63b6n",149,"53.csv","","295.7999999523163","resources/trios/L1T4A3.jpg","37","restless",0.6,0.6,0.3,0.512014368219126,"true"
"image-keyboard-response",460,399931,"0.0-4.149-1.149","6l3d04mlxk63b6n",149,"53.csv","","null","resources/maskTrios/L1BB.jpg","null","",NA,NA,NA,NA,""
"image-keyboard-response",461,401142,"0.0-4.149-2.149","6l3d04mlxk63b6n",149,"53.csv","","null","resources/images/coin2.png","null","",NA,NA,NA,NA,""
"image-keyboard-response",462,401526,"0.0-4.150-0.150","6l3d04mlxk63b6n",149,"53.csv","","383.2999999523163","resources/trios/L1T4A3.jpg","38","restless",0.6,0.6,0.3,0.356412723453167,"true"
"image-keyboard-response",463,401937,"0.0-4.150-1.150","6l3d04mlxk63b6n",149,"53.csv","","null","resources/maskTrios/BT4B.jpg","null","",NA,NA,NA,NA,""
"image-keyboard-response",464,403152,"0.0-4.150-2.150","6l3d04mlxk63b6n",149,"53.csv","","null","resources/images/coin2.png","null","",NA,NA,NA,NA,""
"image-keyboard-response",465,403571,"0.0-4.151-0.151","6l3d04mlxk63b6n",149,"53.csv","","419.30000019073486","resources/trios/L1T4A3.jpg","39","restless",0.6,0.6,0.3,0.741317605338307,"false"
"image-keyboard-response",466,403983,"0.0-4.151-1.151","6l3d04mlxk63b6n",149,"53.csv","","null","resources/maskTrios/BBA3.jpg","null","",NA,NA,NA,NA,""
"image-keyboard-response",467,405185,"0.0-4.151-2.151","6l3d04mlxk63b6n",149,"53.csv","","null","resources/images/fishbone.png","null","",NA,NA,NA,NA,""
"image-keyboard-response",468,405559,"0.0-4.152-0.152","6l3d04mlxk63b6n",149,"53.csv","","373.2000000476837","resources/trios/L1T4A3.jpg","39","restless",0.6,0.6,0.3,0.606983002052591,"false"
"image-keyboard-response",469,405970,"0.0-4.152-1.152","6l3d04mlxk63b6n",149,"53.csv","","null","resources/maskTrios/BBA3.jpg","null","",NA,NA,NA,NA,""
"image-keyboard-response",470,407173,"0.0-4.152-2.152","6l3d04mlxk63b6n",149,"53.csv","","null","resources/images/fishbone.png","null","",NA,NA,NA,NA,""
"image-keyboard-response",471,407472,"0.0-4.153-0.153","6l3d04mlxk63b6n",149,"53.csv","","298.40000009536743","resources/trios/L1T4A3.jpg","38","restless",0.6,0.5,0.3,0.47098886480501,"true"
"image-keyboard-response",472,407878,"0.0-4.153-1.153","6l3d04mlxk63b6n",149,"53.csv","","null","resources/maskTrios/BT4B.jpg","null","",NA,NA,NA,NA,""
"image-keyboard-response",473,409094,"0.0-4.153-2.153","6l3d04mlxk63b6n",149,"53.csv","","null","resources/images/coin2.png","null","",NA,NA,NA,NA,""
"image-keyboard-response",474,409461,"0.0-4.154-0.154","6l3d04mlxk63b6n",149,"53.csv","","367","resources/trios/L1T4A3.jpg","37","restless",0.6,0.5,0.3,0.918929145372652,"false"
"image-keyboard-response",475,409875,"0.0-4.154-1.154","6l3d04mlxk63b6n",149,"53.csv","","null","resources/maskTrios/L1BB.jpg","null","",NA,NA,NA,NA,""
"image-keyboard-response",476,411077,"0.0-4.154-2.154","6l3d04mlxk63b6n",149,"53.csv","","null","resources/images/fishbone.png","null","",NA,NA,NA,NA,""
"image-keyboard-response",477,413993,"0.0-4.155-0.155","6l3d04mlxk63b6n",149,"53.csv","","2916.4000000953674","resources/trios/L1T4A3.jpg","37","restless",0.6,0.5,0.3,0.734913082772021,"false"
"image-keyboard-response",478,414396,"0.0-4.155-1.155","6l3d04mlxk63b6n",149,"53.csv","","null","resources/maskTrios/L1BB.jpg","null","",NA,NA,NA,NA,""
"image-keyboard-response",479,415609,"0.0-4.155-2.155","6l3d04mlxk63b6n",149,"53.csv","","null","resources/images/fishbone.png","null","",NA,NA,NA,NA,""
"image-keyboard-response",480,415924,"0.0-4.156-0.156","6l3d04mlxk63b6n",149,"53.csv","","314.5","resources/trios/L1T4A3.jpg","38","restless",0.7,0.5,0.3,0.800077573369604,"false"
"image-keyboard-response",481,416334,"0.0-4.156-1.156","6l3d04mlxk63b6n",149,"53.csv","","null","resources/maskTrios/BT4B.jpg","null","",NA,NA,NA,NA,""
"image-keyboard-response",482,417535,"0.0-4.156-2.156","6l3d04mlxk63b6n",149,"53.csv","","null","resources/images/fishbone.png","null","",NA,NA,NA,NA,""
"image-keyboard-response",483,418229,"0.0-4.157-0.157","6l3d04mlxk63b6n",149,"53.csv","","692.6999998092651","resources/trios/L1T4A3.jpg","38","restless",0.7,0.5,0.3,0.409098107852791,"true"
"image-keyboard-response",484,418639,"0.0-4.157-1.157","6l3d04mlxk63b6n",149,"53.csv","","null","resources/maskTrios/BT4B.jpg","null","",NA,NA,NA,NA,""
"image-keyboard-response",485,419854,"0.0-4.157-2.157","6l3d04mlxk63b6n",149,"53.csv","","null","resources/images/coin2.png","null","",NA,NA,NA,NA,""
"image-keyboard-response",486,420085,"0.0-4.158-0.158","6l3d04mlxk63b6n",149,"53.csv","","230.20000004768372","resources/trios/L1T4A3.jpg","39","restless",0.8,0.5,0.3,0.216855797525862,"true"
"image-keyboard-response",487,420494,"0.0-4.158-1.158","6l3d04mlxk63b6n",149,"53.csv","","null","resources/maskTrios/BBA3.jpg","null","",NA,NA,NA,NA,""
"image-keyboard-response",488,421709,"0.0-4.158-2.158","6l3d04mlxk63b6n",149,"53.csv","","null","resources/images/coin2.png","null","",NA,NA,NA,NA,""
"image-keyboard-response",489,422388,"0.0-4.159-0.159","6l3d04mlxk63b6n",149,"53.csv","","679.2000000476837","resources/trios/L1T4A3.jpg","37","restless",0.8,0.5,0.3,0.829634833633609,"false"
"image-keyboard-response",490,422790,"0.0-4.159-1.159","6l3d04mlxk63b6n",149,"53.csv","","null","resources/maskTrios/L1BB.jpg","null","",NA,NA,NA,NA,""
"image-keyboard-response",491,423999,"0.0-4.159-2.159","6l3d04mlxk63b6n",149,"53.csv","","null","resources/images/fishbone.png","null","",NA,NA,NA,NA,""
"image-keyboard-response",492,424001,"0.0-4.160-0.160","6l3d04mlxk63b6n",149,"53.csv","","0.7000000476837158","resources/trios/L1T4A3.jpg","38","restless",0.9,0.5,0.3,0.511602256511662,"false"
"image-keyboard-response",493,424412,"0.0-4.160-1.160","6l3d04mlxk63b6n",149,"53.csv","","null","resources/maskTrios/BT4B.jpg","null","",NA,NA,NA,NA,""
"image-keyboard-response",494,425626,"0.0-4.160-2.160","6l3d04mlxk63b6n",149,"53.csv","","null","resources/images/fishbone.png","null","",NA,NA,NA,NA,""
"image-keyboard-response",495,426260,"0.0-4.161-0.161","6l3d04mlxk63b6n",149,"53.csv","","633.7000000476837","resources/trios/L1T4A3.jpg","39","restless",0.9,0.5,0.3,0.386623782704451,"false"
"image-keyboard-response",496,426661,"0.0-4.161-1.161","6l3d04mlxk63b6n",149,"53.csv","","null","resources/maskTrios/BBA3.jpg","null","",NA,NA,NA,NA,""
"image-keyboard-response",497,427876,"0.0-4.161-2.161","6l3d04mlxk63b6n",149,"53.csv","","null","resources/images/fishbone.png","null","",NA,NA,NA,NA,""
"image-keyboard-response",498,428147,"0.0-4.162-0.162","6l3d04mlxk63b6n",149,"53.csv","","270.2000000476837","resources/trios/L1T4A3.jpg","37","restless",0.9,0.5,0.3,0.937441629727464,"false"
"image-keyboard-response",499,428551,"0.0-4.162-1.162","6l3d04mlxk63b6n",149,"53.csv","","null","resources/maskTrios/L1BB.jpg","null","",NA,NA,NA,NA,""
"image-keyboard-response",500,429764,"0.0-4.162-2.162","6l3d04mlxk63b6n",149,"53.csv","","null","resources/images/fishbone.png","null","",NA,NA,NA,NA,""
"image-keyboard-response",501,430071,"0.0-4.163-0.163","6l3d04mlxk63b6n",149,"53.csv","","306.30000019073486","resources/trios/L1T4A3.jpg","38","restless",0.9,0.5,0.4,0.460317683175545,"true"
"image-keyboard-response",502,430472,"0.0-4.163-1.163","6l3d04mlxk63b6n",149,"53.csv","","null","resources/maskTrios/BT4B.jpg","null","",NA,NA,NA,NA,""
"image-keyboard-response",503,431685,"0.0-4.163-2.163","6l3d04mlxk63b6n",149,"53.csv","","null","resources/images/coin2.png","null","",NA,NA,NA,NA,""
"image-keyboard-response",504,431920,"0.0-4.164-0.164","6l3d04mlxk63b6n",149,"53.csv","","234.39999985694885","resources/trios/L1T4A3.jpg","38","restless",0.9,0.5,0.4,0.0210686069227528,"true"
"image-keyboard-response",505,432325,"0.0-4.164-1.164","6l3d04mlxk63b6n",149,"53.csv","","null","resources/maskTrios/BT4B.jpg","null","",NA,NA,NA,NA,""
"image-keyboard-response",506,433541,"0.0-4.164-2.164","6l3d04mlxk63b6n",149,"53.csv","","null","resources/images/coin2.png","null","",NA,NA,NA,NA,""
"image-keyboard-response",507,433701,"0.0-4.165-0.165","6l3d04mlxk63b6n",149,"53.csv","","160","resources/trios/L1T4A3.jpg","39","restless",0.9,0.5,0.4,0.999585423808092,"false"
"image-keyboard-response",508,434110,"0.0-4.165-1.165","6l3d04mlxk63b6n",149,"53.csv","","null","resources/maskTrios/BBA3.jpg","null","",NA,NA,NA,NA,""
"image-keyboard-response",509,435316,"0.0-4.165-2.165","6l3d04mlxk63b6n",149,"53.csv","","null","resources/images/fishbone.png","null","",NA,NA,NA,NA,""
"image-keyboard-response",510,435620,"0.0-4.166-0.166","6l3d04mlxk63b6n",149,"53.csv","","303.2999999523163","resources/trios/L1T4A3.jpg","37","restless",0.9,0.5,0.4,0.625566678530894,"true"
"image-keyboard-response",511,436024,"0.0-4.166-1.166","6l3d04mlxk63b6n",149,"53.csv","","null","resources/maskTrios/L1BB.jpg","null","",NA,NA,NA,NA,""
"image-keyboard-response",512,437232,"0.0-4.166-2.166","6l3d04mlxk63b6n",149,"53.csv","","null","resources/images/coin2.png","null","",NA,NA,NA,NA,""
"image-keyboard-response",513,437389,"0.0-4.167-0.167","6l3d04mlxk63b6n",149,"53.csv","","156.79999995231628","resources/trios/L1T4A3.jpg","37","restless",0.8,0.5,0.4,0.398851128775462,"true"
"image-keyboard-response",514,437793,"0.0-4.167-1.167","6l3d04mlxk63b6n",149,"53.csv","","null","resources/maskTrios/L1BB.jpg","null","",NA,NA,NA,NA,""
"image-keyboard-response",515,439002,"0.0-4.167-2.167","6l3d04mlxk63b6n",149,"53.csv","","null","resources/images/coin2.png","null","",NA,NA,NA,NA,""
"image-keyboard-response",516,439176,"0.0-4.168-0.168","6l3d04mlxk63b6n",149,"53.csv","","173.19999980926514","resources/trios/L1T4A3.jpg","39","restless",0.8,0.5,0.4,0.959889336426744,"false"
"image-keyboard-response",517,439580,"0.0-4.168-1.168","6l3d04mlxk63b6n",149,"53.csv","","null","resources/maskTrios/BBA3.jpg","null","",NA,NA,NA,NA,""
"image-keyboard-response",518,440788,"0.0-4.168-2.168","6l3d04mlxk63b6n",149,"53.csv","","null","resources/images/fishbone.png","null","",NA,NA,NA,NA,""
"image-keyboard-response",519,441039,"0.0-4.169-0.169","6l3d04mlxk63b6n",149,"53.csv","","250","resources/trios/L1T4A3.jpg","38","restless",0.8,0.5,0.5,0.0468983737529554,"true"
"image-keyboard-response",520,441454,"0.0-4.169-1.169","6l3d04mlxk63b6n",149,"53.csv","","null","resources/maskTrios/BT4B.jpg","null","",NA,NA,NA,NA,""
"image-keyboard-response",521,442665,"0.0-4.169-2.169","6l3d04mlxk63b6n",149,"53.csv","","null","resources/images/coin2.png","null","",NA,NA,NA,NA,""
"image-keyboard-response",522,442788,"0.0-4.170-0.170","6l3d04mlxk63b6n",149,"53.csv","","123.20000004768372","resources/trios/L1T4A3.jpg","38","restless",0.8,0.5,0.5,0.88703205154449,"false"
"image-keyboard-response",523,443202,"0.0-4.170-1.170","6l3d04mlxk63b6n",149,"53.csv","","null","resources/maskTrios/BT4B.jpg","null","",NA,NA,NA,NA,""
"image-keyboard-response",524,444411,"0.0-4.170-2.170","6l3d04mlxk63b6n",149,"53.csv","","null","resources/images/fishbone.png","null","",NA,NA,NA,NA,""
"image-keyboard-response",525,444581,"0.0-4.171-0.171","6l3d04mlxk63b6n",149,"53.csv","","168.40000009536743","resources/trios/L1T4A3.jpg","39","restless",0.8,0.5,0.5,0.676200153687919,"false"
"image-keyboard-response",526,444990,"0.0-4.171-1.171","6l3d04mlxk63b6n",149,"53.csv","","null","resources/maskTrios/BBA3.jpg","null","",NA,NA,NA,NA,""
"image-keyboard-response",527,446197,"0.0-4.171-2.171","6l3d04mlxk63b6n",149,"53.csv","","null","resources/images/fishbone.png","null","",NA,NA,NA,NA,""
"image-keyboard-response",528,446445,"0.0-4.172-0.172","6l3d04mlxk63b6n",149,"53.csv","","247.39999985694885","resources/trios/L1T4A3.jpg","39","restless",0.8,0.4,0.5,0.389265430973057,"true"
"image-keyboard-response",529,446860,"0.0-4.172-1.172","6l3d04mlxk63b6n",149,"53.csv","","null","resources/maskTrios/BBA3.jpg","null","",NA,NA,NA,NA,""
"image-keyboard-response",530,448065,"0.0-4.172-2.172","6l3d04mlxk63b6n",149,"53.csv","","null","resources/images/coin2.png","null","",NA,NA,NA,NA,""
"image-keyboard-response",531,448661,"0.0-4.173-0.173","6l3d04mlxk63b6n",149,"53.csv","","595.3000001907349","resources/trios/L1T4A3.jpg","37","restless",0.8,0.4,0.5,0.528849148878568,"true"
"image-keyboard-response",532,449064,"0.0-4.173-1.173","6l3d04mlxk63b6n",149,"53.csv","","null","resources/maskTrios/L1BB.jpg","null","",NA,NA,NA,NA,""
"image-keyboard-response",533,450266,"0.0-4.173-2.173","6l3d04mlxk63b6n",149,"53.csv","","null","resources/images/coin2.png","null","",NA,NA,NA,NA,""
"image-keyboard-response",534,450400,"0.0-4.174-0.174","6l3d04mlxk63b6n",149,"53.csv","","133.90000009536743","resources/trios/L1T4A3.jpg","37","restless",0.8,0.4,0.5,0.815062536839341,"false"
"image-keyboard-response",535,450805,"0.0-4.174-1.174","6l3d04mlxk63b6n",149,"53.csv","","null","resources/maskTrios/L1BB.jpg","null","",NA,NA,NA,NA,""
"image-keyboard-response",536,452012,"0.0-4.174-2.174","6l3d04mlxk63b6n",149,"53.csv","","null","resources/images/fishbone.png","null","",NA,NA,NA,NA,""
"image-keyboard-response",537,452553,"0.0-4.175-0.175","6l3d04mlxk63b6n",149,"53.csv","","541","resources/trios/L1T4A3.jpg","38","restless",0.8,0.4,0.5,0.884615796173384,"false"
"image-keyboard-response",538,452958,"0.0-4.175-1.175","6l3d04mlxk63b6n",149,"53.csv","","null","resources/maskTrios/BT4B.jpg","null","",NA,NA,NA,NA,""
"image-keyboard-response",539,454163,"0.0-4.175-2.175","6l3d04mlxk63b6n",149,"53.csv","","null","resources/images/fishbone.png","null","",NA,NA,NA,NA,""
"image-keyboard-response",540,454526,"0.0-4.176-0.176","6l3d04mlxk63b6n",149,"53.csv","","362.09999990463257","resources/trios/L1T4A3.jpg","38","restless",0.8,0.4,0.5,0.305509204440281,"true"
"image-keyboard-response",541,454932,"0.0-4.176-1.176","6l3d04mlxk63b6n",149,"53.csv","","null","resources/maskTrios/BT4B.jpg","null","",NA,NA,NA,NA,""
"image-keyboard-response",542,456139,"0.0-4.176-2.176","6l3d04mlxk63b6n",149,"53.csv","","null","resources/images/coin2.png","null","",NA,NA,NA,NA,""
"image-keyboard-response",543,456270,"0.0-4.177-0.177","6l3d04mlxk63b6n",149,"53.csv","","129.70000004768372","resources/trios/L1T4A3.jpg","39","restless",0.8,0.4,0.5,0.144874139987769,"true"
"image-keyboard-response",544,456678,"0.0-4.177-1.177","6l3d04mlxk63b6n",149,"53.csv","","null","resources/maskTrios/BBA3.jpg","null","",NA,NA,NA,NA,""
"image-keyboard-response",545,457885,"0.0-4.177-2.177","6l3d04mlxk63b6n",149,"53.csv","","null","resources/images/coin2.png","null","",NA,NA,NA,NA,""
"image-keyboard-response",546,458122,"0.0-4.178-0.178","6l3d04mlxk63b6n",149,"53.csv","","237","resources/trios/L1T4A3.jpg","39","restless",0.7,0.4,0.5,0.820578200368629,"false"
"image-keyboard-response",547,458536,"0.0-4.178-1.178","6l3d04mlxk63b6n",149,"53.csv","","null","resources/maskTrios/BBA3.jpg","null","",NA,NA,NA,NA,""
"image-keyboard-response",548,459739,"0.0-4.178-2.178","6l3d04mlxk63b6n",149,"53.csv","","null","resources/images/fishbone.png","null","",NA,NA,NA,NA,""
"image-keyboard-response",549,460099,"0.0-4.179-0.179","6l3d04mlxk63b6n",149,"53.csv","","359.2000000476837","resources/trios/L1T4A3.jpg","37","restless",0.7,0.4,0.5,0.0417517944354371,"true"
"image-keyboard-response",550,460500,"0.0-4.179-1.179","6l3d04mlxk63b6n",149,"53.csv","","null","resources/maskTrios/L1BB.jpg","null","",NA,NA,NA,NA,""
"image-keyboard-response",551,461706,"0.0-4.179-2.179","6l3d04mlxk63b6n",149,"53.csv","","null","resources/images/coin2.png","null","",NA,NA,NA,NA,""
"image-keyboard-response",552,461967,"0.0-4.180-0.180","6l3d04mlxk63b6n",149,"53.csv","","260.09999990463257","resources/trios/L1T4A3.jpg","38","restless",0.7,0.4,0.5,0.464314216972868,"false"
"image-keyboard-response",553,462377,"0.0-4.180-1.180","6l3d04mlxk63b6n",149,"53.csv","","null","resources/maskTrios/BT4B.jpg","null","",NA,NA,NA,NA,""
"image-keyboard-response",554,463583,"0.0-4.180-2.180","6l3d04mlxk63b6n",149,"53.csv","","null","resources/images/fishbone.png","null","",NA,NA,NA,NA,""
"image-keyboard-response",555,463613,"0.0-4.181-0.181","6l3d04mlxk63b6n",149,"53.csv","","29.700000047683716","resources/trios/L1T4A3.jpg","39","restless",0.7,0.4,0.5,0.788951331563539,"false"
"image-keyboard-response",556,464025,"0.0-4.181-1.181","6l3d04mlxk63b6n",149,"53.csv","","null","resources/maskTrios/BBA3.jpg","null","",NA,NA,NA,NA,""
"image-keyboard-response",557,465232,"0.0-4.181-2.181","6l3d04mlxk63b6n",149,"53.csv","","null","resources/images/fishbone.png","null","",NA,NA,NA,NA,""
"image-keyboard-response",558,465344,"0.0-4.182-0.182","6l3d04mlxk63b6n",149,"53.csv","","110.89999985694885","resources/trios/L1T4A3.jpg","37","restless",0.7,0.4,0.5,0.547275577604058,"true"
"image-keyboard-response",559,465745,"0.0-4.182-1.182","6l3d04mlxk63b6n",149,"53.csv","","null","resources/maskTrios/L1BB.jpg","null","",NA,NA,NA,NA,""
"image-keyboard-response",560,466958,"0.0-4.182-2.182","6l3d04mlxk63b6n",149,"53.csv","","null","resources/images/coin2.png","null","",NA,NA,NA,NA,""
"image-keyboard-response",561,467288,"0.0-4.183-0.183","6l3d04mlxk63b6n",149,"53.csv","","330","resources/trios/L1T4A3.jpg","37","restless",0.7,0.5,0.5,0.325016272238056,"true"
"image-keyboard-response",562,467693,"0.0-4.183-1.183","6l3d04mlxk63b6n",149,"53.csv","","null","resources/maskTrios/L1BB.jpg","null","",NA,NA,NA,NA,""
"image-keyboard-response",563,468902,"0.0-4.183-2.183","6l3d04mlxk63b6n",149,"53.csv","","null","resources/images/coin2.png","null","",NA,NA,NA,NA,""
"image-keyboard-response",564,469135,"0.0-4.184-0.184","6l3d04mlxk63b6n",149,"53.csv","","232.09999990463257","resources/trios/L1T4A3.jpg","38","restless",0.7,0.5,0.5,0.426648250815992,"true"
"image-keyboard-response",565,469544,"0.0-4.184-1.184","6l3d04mlxk63b6n",149,"53.csv","","null","resources/maskTrios/BT4B.jpg","null","",NA,NA,NA,NA,""
"image-keyboard-response",566,470748,"0.0-4.184-2.184","6l3d04mlxk63b6n",149,"53.csv","","null","resources/images/coin2.png","null","",NA,NA,NA,NA,""
"image-keyboard-response",567,471000,"0.0-4.185-0.185","6l3d04mlxk63b6n",149,"53.csv","","251.5","resources/trios/L1T4A3.jpg","39","restless",0.7,0.5,0.5,0.726764972655598,"false"
"image-keyboard-response",568,471406,"0.0-4.185-1.185","6l3d04mlxk63b6n",149,"53.csv","","null","resources/maskTrios/BBA3.jpg","null","",NA,NA,NA,NA,""
"image-keyboard-response",569,472619,"0.0-4.185-2.185","6l3d04mlxk63b6n",149,"53.csv","","null","resources/images/fishbone.png","null","",NA,NA,NA,NA,""
"image-keyboard-response",570,473039,"0.0-4.186-0.186","6l3d04mlxk63b6n",149,"53.csv","","419.2000000476837","resources/trios/L1T4A3.jpg","39","restless",0.7,0.5,0.5,0.467576852876478,"true"
"image-keyboard-response",571,473455,"0.0-4.186-1.186","6l3d04mlxk63b6n",149,"53.csv","","null","resources/maskTrios/BBA3.jpg","null","",NA,NA,NA,NA,""
"image-keyboard-response",572,474670,"0.0-4.186-2.186","6l3d04mlxk63b6n",149,"53.csv","","null","resources/images/coin2.png","null","",NA,NA,NA,NA,""
"image-keyboard-response",573,474993,"0.0-4.187-0.187","6l3d04mlxk63b6n",149,"53.csv","","322.40000009536743","resources/trios/L1T4A3.jpg","38","restless",0.7,0.5,0.5,0.250048062003125,"true"
"image-keyboard-response",574,475399,"0.0-4.187-1.187","6l3d04mlxk63b6n",149,"53.csv","","null","resources/maskTrios/BT4B.jpg","null","",NA,NA,NA,NA,""
"image-keyboard-response",575,476608,"0.0-4.187-2.187","6l3d04mlxk63b6n",149,"53.csv","","null","resources/images/coin2.png","null","",NA,NA,NA,NA,""
"image-keyboard-response",576,477014,"0.0-4.188-0.188","6l3d04mlxk63b6n",149,"53.csv","","406.40000009536743","resources/trios/L1T4A3.jpg","37","restless",0.6,0.5,0.5,0.0647025064321227,"true"
"image-keyboard-response",577,477418,"0.0-4.188-1.188","6l3d04mlxk63b6n",149,"53.csv","","null","resources/maskTrios/L1BB.jpg","null","",NA,NA,NA,NA,""
"image-keyboard-response",578,478628,"0.0-4.188-2.188","6l3d04mlxk63b6n",149,"53.csv","","null","resources/images/coin2.png","null","",NA,NA,NA,NA,""
"image-keyboard-response",579,478902,"0.0-4.189-0.189","6l3d04mlxk63b6n",149,"53.csv","","274.09999990463257","resources/trios/L1T4A3.jpg","37","restless",0.6,0.5,0.5,0.525325599724434,"true"
"image-keyboard-response",580,479307,"0.0-4.189-1.189","6l3d04mlxk63b6n",149,"53.csv","","null","resources/maskTrios/L1BB.jpg","null","",NA,NA,NA,NA,""
"image-keyboard-response",581,480522,"0.0-4.189-2.189","6l3d04mlxk63b6n",149,"53.csv","","null","resources/images/coin2.png","null","",NA,NA,NA,NA,""
"image-keyboard-response",582,481655,"0.0-4.190-0.190","6l3d04mlxk63b6n",149,"53.csv","","1132.2999999523163","resources/trios/L1T4A3.jpg","38","restless",0.6,0.5,0.5,0.0638648431929609,"true"
"image-keyboard-response",583,482068,"0.0-4.190-1.190","6l3d04mlxk63b6n",149,"53.csv","","null","resources/maskTrios/BT4B.jpg","null","",NA,NA,NA,NA,""
"image-keyboard-response",584,483272,"0.0-4.190-2.190","6l3d04mlxk63b6n",149,"53.csv","","null","resources/images/coin2.png","null","",NA,NA,NA,NA,""
"image-keyboard-response",585,483371,"0.0-4.191-0.191","6l3d04mlxk63b6n",149,"53.csv","","98","resources/trios/L1T4A3.jpg","39","restless",0.6,0.5,0.5,0.550494987355006,"false"
"image-keyboard-response",586,483775,"0.0-4.191-1.191","6l3d04mlxk63b6n",149,"53.csv","","null","resources/maskTrios/BBA3.jpg","null","",NA,NA,NA,NA,""
"image-keyboard-response",587,484990,"0.0-4.191-2.191","6l3d04mlxk63b6n",149,"53.csv","","null","resources/images/fishbone.png","null","",NA,NA,NA,NA,""
"image-keyboard-response",588,485478,"0.0-4.192-0.192","6l3d04mlxk63b6n",149,"53.csv","","488","resources/trios/L1T4A3.jpg","38","restless",0.6,0.5,0.6,0.658179455716912,"false"
"image-keyboard-response",589,485890,"0.0-4.192-1.192","6l3d04mlxk63b6n",149,"53.csv","","null","resources/maskTrios/BT4B.jpg","null","",NA,NA,NA,NA,""
"image-keyboard-response",590,487094,"0.0-4.192-2.192","6l3d04mlxk63b6n",149,"53.csv","","null","resources/images/fishbone.png","null","",NA,NA,NA,NA,""
"image-keyboard-response",591,487181,"0.0-4.193-0.193","6l3d04mlxk63b6n",149,"53.csv","","86.70000004768372","resources/trios/L1T4A3.jpg","38","restless",0.5,0.6,0.6,0.22416317494072,"true"
"image-keyboard-response",592,487593,"0.0-4.193-1.193","6l3d04mlxk63b6n",149,"53.csv","","null","resources/maskTrios/BT4B.jpg","null","",NA,NA,NA,NA,""
"image-keyboard-response",593,488800,"0.0-4.193-2.193","6l3d04mlxk63b6n",149,"53.csv","","null","resources/images/coin2.png","null","",NA,NA,NA,NA,""
"image-keyboard-response",594,489243,"0.0-4.194-0.194","6l3d04mlxk63b6n",149,"53.csv","","442.40000009536743","resources/trios/L1T4A3.jpg","37","restless",0.5,0.6,0.6,0.322955005577016,"true"
"image-keyboard-response",595,489658,"0.0-4.194-1.194","6l3d04mlxk63b6n",149,"53.csv","","null","resources/maskTrios/L1BB.jpg","null","",NA,NA,NA,NA,""
"image-keyboard-response",596,490872,"0.0-4.194-2.194","6l3d04mlxk63b6n",149,"53.csv","","null","resources/images/coin2.png","null","",NA,NA,NA,NA,""
"image-keyboard-response",597,491554,"0.0-4.195-0.195","6l3d04mlxk63b6n",149,"53.csv","","681.4000000953674","resources/trios/L1T4A3.jpg","37","restless",0.5,0.6,0.6,0.0912848605762504,"true"
"image-keyboard-response",598,491969,"0.0-4.195-1.195","6l3d04mlxk63b6n",149,"53.csv","","null","resources/maskTrios/L1BB.jpg","null","",NA,NA,NA,NA,""
"image-keyboard-response",599,493184,"0.0-4.195-2.195","6l3d04mlxk63b6n",149,"53.csv","","null","resources/images/coin2.png","null","",NA,NA,NA,NA,""
"image-keyboard-response",600,493349,"0.0-4.196-0.196","6l3d04mlxk63b6n",149,"53.csv","","164.89999985694885","resources/trios/L1T4A3.jpg","39","restless",0.5,0.6,0.6,0.383522947198782,"true"
"image-keyboard-response",601,493754,"0.0-4.196-1.196","6l3d04mlxk63b6n",149,"53.csv","","null","resources/maskTrios/BBA3.jpg","null","",NA,NA,NA,NA,""
"image-keyboard-response",602,494962,"0.0-4.196-2.196","6l3d04mlxk63b6n",149,"53.csv","","null","resources/images/coin2.png","null","",NA,NA,NA,NA,""
"image-keyboard-response",603,495269,"0.0-4.197-0.197","6l3d04mlxk63b6n",149,"53.csv","","306.39999985694885","resources/trios/L1T4A3.jpg","39","restless",0.5,0.6,0.6,0.683491794067133,"false"
"image-keyboard-response",604,495680,"0.0-4.197-1.197","6l3d04mlxk63b6n",149,"53.csv","","null","resources/maskTrios/BBA3.jpg","null","",NA,NA,NA,NA,""
"image-keyboard-response",605,496888,"0.0-4.197-2.197","6l3d04mlxk63b6n",149,"53.csv","","null","resources/images/fishbone.png","null","",NA,NA,NA,NA,""
"image-keyboard-response",606,497208,"0.0-4.198-0.198","6l3d04mlxk63b6n",149,"53.csv","","319.7999999523163","resources/trios/L1T4A3.jpg","38","restless",0.5,0.6,0.6,0.751569786383494,"false"
"image-keyboard-response",607,497623,"0.0-4.198-1.198","6l3d04mlxk63b6n",149,"53.csv","","null","resources/maskTrios/BT4B.jpg","null","",NA,NA,NA,NA,""
"image-keyboard-response",608,498830,"0.0-4.198-2.198","6l3d04mlxk63b6n",149,"53.csv","","null","resources/images/fishbone.png","null","",NA,NA,NA,NA,""
"image-keyboard-response",609,499173,"0.0-4.199-0.199","6l3d04mlxk63b6n",149,"53.csv","","343","resources/trios/L1T4A3.jpg","38","restless",0.5,0.6,0.6,0.439828468479813,"true"
"image-keyboard-response",610,499586,"0.0-4.199-1.199","6l3d04mlxk63b6n",149,"53.csv","","null","resources/maskTrios/BT4B.jpg","null","",NA,NA,NA,NA,""
"image-keyboard-response",611,500790,"0.0-4.199-2.199","6l3d04mlxk63b6n",149,"53.csv","","null","resources/images/coin2.png","null","",NA,NA,NA,NA,""
"survey-text",612,587674,"0.0-5.0","6l3d04mlxk63b6n",149,"53.csv","","86881.60000014305","","","",NA,NA,NA,NA,""
