"trial_type","trial_index","time_elapsed","internal_node_id","subject","participantCode","walkNumber","success","rt","stimulus","key_press","test_part","leftProb","midProb","rightProb","generatedNum","correct"
"pavlovia",0,1245,"0.0-0.0","7uou8eg87tbx5u0",176,"4.csv","","","","","",NA,NA,NA,NA,""
"fullscreen",1,4137,"0.0-1.0","7uou8eg87tbx5u0",176,"4.csv","true","","","","",NA,NA,NA,NA,""
"survey-html-form",2,10116,"0.0-2.0","7uou8eg87tbx5u0",176,"4.csv","","5971.800000190735","","","",NA,NA,NA,NA,""
"image-keyboard-response",3,12416,"0.0-3.0-0.0","7uou8eg87tbx5u0",176,"4.csv","","2298.199999809265","resources/images/parrot_nobg.png","13","",NA,NA,NA,NA,""
"image-keyboard-response",4,15420,"0.0-3.0-1.0","7uou8eg87tbx5u0",176,"4.csv","","null","resources/image_sets/111.png","null","",NA,NA,NA,NA,""
"image-keyboard-response",5,19420,"0.0-3.0-2.0","7uou8eg87tbx5u0",176,"4.csv","","3998.7999997138977","resources/image_sets/left_highlight.png","37","",NA,NA,NA,NA,""
"image-keyboard-response",6,20845,"0.0-3.0-3.0","7uou8eg87tbx5u0",176,"4.csv","","1424.4000000953674","resources/image_sets/mid_highlight.png","38","",NA,NA,NA,NA,""
"image-keyboard-response",7,21355,"0.0-3.0-4.0","7uou8eg87tbx5u0",176,"4.csv","","509.3999996185303","resources/image_sets/right_highlight.png","39","",NA,NA,NA,NA,""
"image-keyboard-response",8,22629,"0.0-3.0-5.0","7uou8eg87tbx5u0",176,"4.csv","","1272.6000003814697","resources/image_sets/111.png","13","",NA,NA,NA,NA,""
"image-keyboard-response",9,24465,"0.0-3.0-6.0","7uou8eg87tbx5u0",176,"4.csv","","1835.7999997138977","resources/images/coin2.png","13","",NA,NA,NA,NA,""
"image-keyboard-response",10,25405,"0.0-3.0-7.0","7uou8eg87tbx5u0",176,"4.csv","","939","resources/images/fishbone.png","13","",NA,NA,NA,NA,""
"html-keyboard-response",11,26902,"0.0-3.0-8.0","7uou8eg87tbx5u0",176,"4.csv","","1496.5999999046326","<p>You can track your coin total on the top right of your screen. </p><p>At the end of your journey you will be directed to a survey, so please click on the link before exiting the task</p><p>Press Enter to begin</p>","13","",NA,NA,NA,NA,""
"image-keyboard-response",12,32126,"0.0-4.0-0.0","7uou8eg87tbx5u0",176,"4.csv","","5223","resources/trios/L4T4A2.jpg","37","restless",0.9,0.7,0.3,0.106093740120539,"true"
"image-keyboard-response",13,32544,"0.0-4.0-1.0","7uou8eg87tbx5u0",176,"4.csv","","null","resources/maskTrios/L4BB.jpg","null","",NA,NA,NA,NA,""
"image-keyboard-response",14,33756,"0.0-4.0-2.0","7uou8eg87tbx5u0",176,"4.csv","","null","resources/images/coin2.png","null","",NA,NA,NA,NA,""
"image-keyboard-response",15,35396,"0.0-4.1-0.1","7uou8eg87tbx5u0",176,"4.csv","","1639","resources/trios/L4T4A2.jpg","37","restless",0.9,0.7,0.3,0.142464033812643,"true"
"image-keyboard-response",16,35807,"0.0-4.1-1.1","7uou8eg87tbx5u0",176,"4.csv","","null","resources/maskTrios/L4BB.jpg","null","",NA,NA,NA,NA,""
"image-keyboard-response",17,37024,"0.0-4.1-2.1","7uou8eg87tbx5u0",176,"4.csv","","null","resources/images/coin2.png","null","",NA,NA,NA,NA,""
"image-keyboard-response",18,37543,"0.0-4.2-0.2","7uou8eg87tbx5u0",176,"4.csv","","517.7999997138977","resources/trios/L4T4A2.jpg","37","restless",0.9,0.7,0.2,0.360696213793535,"true"
"image-keyboard-response",19,37957,"0.0-4.2-1.2","7uou8eg87tbx5u0",176,"4.csv","","null","resources/maskTrios/L4BB.jpg","null","",NA,NA,NA,NA,""
"image-keyboard-response",20,39173,"0.0-4.2-2.2","7uou8eg87tbx5u0",176,"4.csv","","null","resources/images/coin2.png","null","",NA,NA,NA,NA,""
"image-keyboard-response",21,39679,"0.0-4.3-0.3","7uou8eg87tbx5u0",176,"4.csv","","505","resources/trios/L4T4A2.jpg","37","restless",0.9,0.7,0.2,0.512895480180916,"true"
"image-keyboard-response",22,40092,"0.0-4.3-1.3","7uou8eg87tbx5u0",176,"4.csv","","null","resources/maskTrios/L4BB.jpg","null","",NA,NA,NA,NA,""
"image-keyboard-response",23,41293,"0.0-4.3-2.3","7uou8eg87tbx5u0",176,"4.csv","","null","resources/images/coin2.png","null","",NA,NA,NA,NA,""
"image-keyboard-response",24,41694,"0.0-4.4-0.4","7uou8eg87tbx5u0",176,"4.csv","","399.90000009536743","resources/trios/L4T4A2.jpg","37","restless",0.9,0.7,0.2,0.666437828194835,"true"
"image-keyboard-response",25,42107,"0.0-4.4-1.4","7uou8eg87tbx5u0",176,"4.csv","","null","resources/maskTrios/L4BB.jpg","null","",NA,NA,NA,NA,""
"image-keyboard-response",26,43324,"0.0-4.4-2.4","7uou8eg87tbx5u0",176,"4.csv","","null","resources/images/coin2.png","null","",NA,NA,NA,NA,""
"image-keyboard-response",27,43747,"0.0-4.5-0.5","7uou8eg87tbx5u0",176,"4.csv","","422.19999980926514","resources/trios/L4T4A2.jpg","37","restless",0.9,0.7,0.2,0.818804044200268,"true"
"image-keyboard-response",28,44157,"0.0-4.5-1.5","7uou8eg87tbx5u0",176,"4.csv","","null","resources/maskTrios/L4BB.jpg","null","",NA,NA,NA,NA,""
"image-keyboard-response",29,45359,"0.0-4.5-2.5","7uou8eg87tbx5u0",176,"4.csv","","null","resources/images/coin2.png","null","",NA,NA,NA,NA,""
"image-keyboard-response",30,45608,"0.0-4.6-0.6","7uou8eg87tbx5u0",176,"4.csv","","248.5","resources/trios/L4T4A2.jpg","37","restless",0.9,0.7,0.2,0.841527471918271,"true"
"image-keyboard-response",31,46020,"0.0-4.6-1.6","7uou8eg87tbx5u0",176,"4.csv","","null","resources/maskTrios/L4BB.jpg","null","",NA,NA,NA,NA,""
"image-keyboard-response",32,47225,"0.0-4.6-2.6","7uou8eg87tbx5u0",176,"4.csv","","null","resources/images/coin2.png","null","",NA,NA,NA,NA,""
"image-keyboard-response",33,47429,"0.0-4.7-0.7","7uou8eg87tbx5u0",176,"4.csv","","203.09999990463257","resources/trios/L4T4A2.jpg","37","restless",0.9,0.7,0.2,0.419436452203813,"true"
"image-keyboard-response",34,47842,"0.0-4.7-1.7","7uou8eg87tbx5u0",176,"4.csv","","null","resources/maskTrios/L4BB.jpg","null","",NA,NA,NA,NA,""
"image-keyboard-response",35,49056,"0.0-4.7-2.7","7uou8eg87tbx5u0",176,"4.csv","","null","resources/images/coin2.png","null","",NA,NA,NA,NA,""
"image-keyboard-response",36,49551,"0.0-4.8-0.8","7uou8eg87tbx5u0",176,"4.csv","","493.59999990463257","resources/trios/L4T4A2.jpg","37","restless",0.9,0.7,0.2,0.975743085690601,"false"
"image-keyboard-response",37,49956,"0.0-4.8-1.8","7uou8eg87tbx5u0",176,"4.csv","","null","resources/maskTrios/L4BB.jpg","null","",NA,NA,NA,NA,""
"image-keyboard-response",38,51172,"0.0-4.8-2.8","7uou8eg87tbx5u0",176,"4.csv","","null","resources/images/fishbone.png","null","",NA,NA,NA,NA,""
"image-keyboard-response",39,51652,"0.0-4.9-0.9","7uou8eg87tbx5u0",176,"4.csv","","478.40000009536743","resources/trios/L4T4A2.jpg","39","restless",0.9,0.7,0.2,0.194140568824536,"true"
"image-keyboard-response",40,52056,"0.0-4.9-1.9","7uou8eg87tbx5u0",176,"4.csv","","null","resources/maskTrios/BBA2.jpg","null","",NA,NA,NA,NA,""
"image-keyboard-response",41,53272,"0.0-4.9-2.9","7uou8eg87tbx5u0",176,"4.csv","","null","resources/images/coin2.png","null","",NA,NA,NA,NA,""
"image-keyboard-response",42,53533,"0.0-4.10-0.10","7uou8eg87tbx5u0",176,"4.csv","","260.2000002861023","resources/trios/L4T4A2.jpg","39","restless",0.9,0.6,0.2,0.883495251191106,"false"
"image-keyboard-response",43,53939,"0.0-4.10-1.10","7uou8eg87tbx5u0",176,"4.csv","","null","resources/maskTrios/BBA2.jpg","null","",NA,NA,NA,NA,""
"image-keyboard-response",44,55153,"0.0-4.10-2.10","7uou8eg87tbx5u0",176,"4.csv","","null","resources/images/fishbone.png","null","",NA,NA,NA,NA,""
"image-keyboard-response",45,55515,"0.0-4.11-0.11","7uou8eg87tbx5u0",176,"4.csv","","361.59999990463257","resources/trios/L4T4A2.jpg","37","restless",0.9,0.6,0.2,0.829338699858684,"true"
"image-keyboard-response",46,55923,"0.0-4.11-1.11","7uou8eg87tbx5u0",176,"4.csv","","null","resources/maskTrios/L4BB.jpg","null","",NA,NA,NA,NA,""
"image-keyboard-response",47,57137,"0.0-4.11-2.11","7uou8eg87tbx5u0",176,"4.csv","","null","resources/images/coin2.png","null","",NA,NA,NA,NA,""
"image-keyboard-response",48,57581,"0.0-4.12-0.12","7uou8eg87tbx5u0",176,"4.csv","","443.09999990463257","resources/trios/L4T4A2.jpg","39","restless",0.9,0.6,0.2,0.116401249966393,"true"
"image-keyboard-response",49,57991,"0.0-4.12-1.12","7uou8eg87tbx5u0",176,"4.csv","","null","resources/maskTrios/BBA2.jpg","null","",NA,NA,NA,NA,""
"image-keyboard-response",50,59204,"0.0-4.12-2.12","7uou8eg87tbx5u0",176,"4.csv","","null","resources/images/coin2.png","null","",NA,NA,NA,NA,""
"image-keyboard-response",51,59481,"0.0-4.13-0.13","7uou8eg87tbx5u0",176,"4.csv","","276.40000009536743","resources/trios/L4T4A2.jpg","37","restless",0.8,0.6,0.2,0.90084425143559,"false"
"image-keyboard-response",52,59891,"0.0-4.13-1.13","7uou8eg87tbx5u0",176,"4.csv","","null","resources/maskTrios/L4BB.jpg","null","",NA,NA,NA,NA,""
"image-keyboard-response",53,61105,"0.0-4.13-2.13","7uou8eg87tbx5u0",176,"4.csv","","null","resources/images/fishbone.png","null","",NA,NA,NA,NA,""
"image-keyboard-response",54,61363,"0.0-4.14-0.14","7uou8eg87tbx5u0",176,"4.csv","","257.2999997138977","resources/trios/L4T4A2.jpg","38","restless",0.8,0.6,0.2,0.982091272439275,"false"
"image-keyboard-response",55,61775,"0.0-4.14-1.14","7uou8eg87tbx5u0",176,"4.csv","","null","resources/maskTrios/BT4B.jpg","null","",NA,NA,NA,NA,""
"image-keyboard-response",56,62990,"0.0-4.14-2.14","7uou8eg87tbx5u0",176,"4.csv","","null","resources/images/fishbone.png","null","",NA,NA,NA,NA,""
"image-keyboard-response",57,63207,"0.0-4.15-0.15","7uou8eg87tbx5u0",176,"4.csv","","216.7000002861023","resources/trios/L4T4A2.jpg","39","restless",0.8,0.6,0.2,0.692940140717364,"false"
"image-keyboard-response",58,63624,"0.0-4.15-1.15","7uou8eg87tbx5u0",176,"4.csv","","null","resources/maskTrios/BBA2.jpg","null","",NA,NA,NA,NA,""
"image-keyboard-response",59,64836,"0.0-4.15-2.15","7uou8eg87tbx5u0",176,"4.csv","","null","resources/images/fishbone.png","null","",NA,NA,NA,NA,""
"image-keyboard-response",60,64984,"0.0-4.16-0.16","7uou8eg87tbx5u0",176,"4.csv","","146.39999961853027","resources/trios/L4T4A2.jpg","37","restless",0.8,0.6,0.2,0.560204843749352,"true"
"image-keyboard-response",61,65390,"0.0-4.16-1.16","7uou8eg87tbx5u0",176,"4.csv","","null","resources/maskTrios/L4BB.jpg","null","",NA,NA,NA,NA,""
"image-keyboard-response",62,66605,"0.0-4.16-2.16","7uou8eg87tbx5u0",176,"4.csv","","null","resources/images/coin2.png","null","",NA,NA,NA,NA,""
"image-keyboard-response",63,67068,"0.0-4.17-0.17","7uou8eg87tbx5u0",176,"4.csv","","462.6000003814697","resources/trios/L4T4A2.jpg","39","restless",0.8,0.6,0.2,0.222479358071566,"false"
"image-keyboard-response",64,67475,"0.0-4.17-1.17","7uou8eg87tbx5u0",176,"4.csv","","null","resources/maskTrios/BBA2.jpg","null","",NA,NA,NA,NA,""
"image-keyboard-response",65,68682,"0.0-4.17-2.17","7uou8eg87tbx5u0",176,"4.csv","","null","resources/images/fishbone.png","null","",NA,NA,NA,NA,""
"image-keyboard-response",66,69182,"0.0-4.18-0.18","7uou8eg87tbx5u0",176,"4.csv","","499","resources/trios/L4T4A2.jpg","37","restless",0.8,0.6,0.2,0.601448251421858,"true"
"image-keyboard-response",67,69591,"0.0-4.18-1.18","7uou8eg87tbx5u0",176,"4.csv","","null","resources/maskTrios/L4BB.jpg","null","",NA,NA,NA,NA,""
"image-keyboard-response",68,70804,"0.0-4.18-2.18","7uou8eg87tbx5u0",176,"4.csv","","null","resources/images/coin2.png","null","",NA,NA,NA,NA,""
"image-keyboard-response",69,71048,"0.0-4.19-0.19","7uou8eg87tbx5u0",176,"4.csv","","243","resources/trios/L4T4A2.jpg","38","restless",0.8,0.5,0.3,0.962060418898625,"false"
"image-keyboard-response",70,71457,"0.0-4.19-1.19","7uou8eg87tbx5u0",176,"4.csv","","null","resources/maskTrios/BT4B.jpg","null","",NA,NA,NA,NA,""
"image-keyboard-response",71,72668,"0.0-4.19-2.19","7uou8eg87tbx5u0",176,"4.csv","","null","resources/images/fishbone.png","null","",NA,NA,NA,NA,""
"image-keyboard-response",72,72954,"0.0-4.20-0.20","7uou8eg87tbx5u0",176,"4.csv","","284.8999996185303","resources/trios/L4T4A2.jpg","37","restless",0.8,0.5,0.3,0.110844504866707,"true"
"image-keyboard-response",73,73356,"0.0-4.20-1.20","7uou8eg87tbx5u0",176,"4.csv","","null","resources/maskTrios/L4BB.jpg","null","",NA,NA,NA,NA,""
"image-keyboard-response",74,74571,"0.0-4.20-2.20","7uou8eg87tbx5u0",176,"4.csv","","null","resources/images/coin2.png","null","",NA,NA,NA,NA,""
"image-keyboard-response",75,74665,"0.0-4.21-0.21","7uou8eg87tbx5u0",176,"4.csv","","92.7999997138977","resources/trios/L4T4A2.jpg","39","restless",0.7,0.5,0.3,0.456534361733263,"false"
"image-keyboard-response",76,75072,"0.0-4.21-1.21","7uou8eg87tbx5u0",176,"4.csv","","null","resources/maskTrios/BBA2.jpg","null","",NA,NA,NA,NA,""
"image-keyboard-response",77,76288,"0.0-4.21-2.21","7uou8eg87tbx5u0",176,"4.csv","","null","resources/images/fishbone.png","null","",NA,NA,NA,NA,""
"image-keyboard-response",78,76646,"0.0-4.22-0.22","7uou8eg87tbx5u0",176,"4.csv","","357.6000003814697","resources/trios/L4T4A2.jpg","37","restless",0.7,0.4,0.3,0.240514583792359,"true"
"image-keyboard-response",79,77054,"0.0-4.22-1.22","7uou8eg87tbx5u0",176,"4.csv","","null","resources/maskTrios/L4BB.jpg","null","",NA,NA,NA,NA,""
"image-keyboard-response",80,78257,"0.0-4.22-2.22","7uou8eg87tbx5u0",176,"4.csv","","null","resources/images/coin2.png","null","",NA,NA,NA,NA,""
"image-keyboard-response",81,164279,"0.0-4.23-0.23","7uou8eg87tbx5u0",176,"4.csv","","86026.30000019073","resources/trios/L4T4A2.jpg","37","restless",0.7,0.4,0.3,0.145892510289275,"true"
"image-keyboard-response",82,164686,"0.0-4.23-1.23","7uou8eg87tbx5u0",176,"4.csv","","null","resources/maskTrios/L4BB.jpg","null","",NA,NA,NA,NA,""
"image-keyboard-response",83,165893,"0.0-4.23-2.23","7uou8eg87tbx5u0",176,"4.csv","","null","resources/images/coin2.png","null","",NA,NA,NA,NA,""
"image-keyboard-response",84,166461,"0.0-4.24-0.24","7uou8eg87tbx5u0",176,"4.csv","","566.5","resources/trios/L4T4A2.jpg","39","restless",0.7,0.4,0.4,0.776025552281447,"false"
"image-keyboard-response",85,166871,"0.0-4.24-1.24","7uou8eg87tbx5u0",176,"4.csv","","null","resources/maskTrios/BBA2.jpg","null","",NA,NA,NA,NA,""
"image-keyboard-response",86,168083,"0.0-4.24-2.24","7uou8eg87tbx5u0",176,"4.csv","","null","resources/images/fishbone.png","null","",NA,NA,NA,NA,""
"image-keyboard-response",87,168332,"0.0-4.25-0.25","7uou8eg87tbx5u0",176,"4.csv","","247.5","resources/trios/L4T4A2.jpg","37","restless",0.7,0.4,0.4,0.595285700135092,"true"
"image-keyboard-response",88,168738,"0.0-4.25-1.25","7uou8eg87tbx5u0",176,"4.csv","","null","resources/maskTrios/L4BB.jpg","null","",NA,NA,NA,NA,""
"image-keyboard-response",89,169951,"0.0-4.25-2.25","7uou8eg87tbx5u0",176,"4.csv","","null","resources/images/coin2.png","null","",NA,NA,NA,NA,""
"image-keyboard-response",90,170450,"0.0-4.26-0.26","7uou8eg87tbx5u0",176,"4.csv","","498.09999990463257","resources/trios/L4T4A2.jpg","39","restless",0.7,0.4,0.4,0.613146983787282,"false"
"image-keyboard-response",91,170857,"0.0-4.26-1.26","7uou8eg87tbx5u0",176,"4.csv","","null","resources/maskTrios/BBA2.jpg","null","",NA,NA,NA,NA,""
"image-keyboard-response",92,172071,"0.0-4.26-2.26","7uou8eg87tbx5u0",176,"4.csv","","null","resources/images/fishbone.png","null","",NA,NA,NA,NA,""
"image-keyboard-response",93,172305,"0.0-4.27-0.27","7uou8eg87tbx5u0",176,"4.csv","","233.39999961853027","resources/trios/L4T4A2.jpg","37","restless",0.7,0.4,0.4,0.0560718879396953,"true"
"image-keyboard-response",94,172721,"0.0-4.27-1.27","7uou8eg87tbx5u0",176,"4.csv","","null","resources/maskTrios/L4BB.jpg","null","",NA,NA,NA,NA,""
"image-keyboard-response",95,173936,"0.0-4.27-2.27","7uou8eg87tbx5u0",176,"4.csv","","null","resources/images/coin2.png","null","",NA,NA,NA,NA,""
"image-keyboard-response",96,174116,"0.0-4.28-0.28","7uou8eg87tbx5u0",176,"4.csv","","178.80000019073486","resources/trios/L4T4A2.jpg","38","restless",0.7,0.4,0.4,0.634021203957222,"false"
"image-keyboard-response",97,174521,"0.0-4.28-1.28","7uou8eg87tbx5u0",176,"4.csv","","null","resources/maskTrios/BT4B.jpg","null","",NA,NA,NA,NA,""
"image-keyboard-response",98,175733,"0.0-4.28-2.28","7uou8eg87tbx5u0",176,"4.csv","","null","resources/images/fishbone.png","null","",NA,NA,NA,NA,""
"image-keyboard-response",99,175756,"0.0-4.29-0.29","7uou8eg87tbx5u0",176,"4.csv","","22.09999990463257","resources/trios/L4T4A2.jpg","37","restless",0.7,0.4,0.4,0.606558783096431,"true"
"image-keyboard-response",100,176172,"0.0-4.29-1.29","7uou8eg87tbx5u0",176,"4.csv","","null","resources/maskTrios/L4BB.jpg","null","",NA,NA,NA,NA,""
"image-keyboard-response",101,177387,"0.0-4.29-2.29","7uou8eg87tbx5u0",176,"4.csv","","null","resources/images/coin2.png","null","",NA,NA,NA,NA,""
"image-keyboard-response",102,177654,"0.0-4.30-0.30","7uou8eg87tbx5u0",176,"4.csv","","266","resources/trios/L4T4A2.jpg","37","restless",0.7,0.4,0.4,0.107572433855216,"true"
"image-keyboard-response",103,178069,"0.0-4.30-1.30","7uou8eg87tbx5u0",176,"4.csv","","null","resources/maskTrios/L4BB.jpg","null","",NA,NA,NA,NA,""
"image-keyboard-response",104,179285,"0.0-4.30-2.30","7uou8eg87tbx5u0",176,"4.csv","","null","resources/images/coin2.png","null","",NA,NA,NA,NA,""
"image-keyboard-response",105,179530,"0.0-4.31-0.31","7uou8eg87tbx5u0",176,"4.csv","","243.69999980926514","resources/trios/L4T4A2.jpg","37","restless",0.7,0.4,0.4,0.0726349805704909,"true"
"image-keyboard-response",106,179937,"0.0-4.31-1.31","7uou8eg87tbx5u0",176,"4.csv","","null","resources/maskTrios/L4BB.jpg","null","",NA,NA,NA,NA,""
"image-keyboard-response",107,181151,"0.0-4.31-2.31","7uou8eg87tbx5u0",176,"4.csv","","null","resources/images/coin2.png","null","",NA,NA,NA,NA,""
"image-keyboard-response",108,181404,"0.0-4.32-0.32","7uou8eg87tbx5u0",176,"4.csv","","251.19999980926514","resources/trios/L4T4A2.jpg","37","restless",0.6,0.4,0.4,0.440385531714401,"true"
"image-keyboard-response",109,181819,"0.0-4.32-1.32","7uou8eg87tbx5u0",176,"4.csv","","null","resources/maskTrios/L4BB.jpg","null","",NA,NA,NA,NA,""
"image-keyboard-response",110,183034,"0.0-4.32-2.32","7uou8eg87tbx5u0",176,"4.csv","","null","resources/images/coin2.png","null","",NA,NA,NA,NA,""
"image-keyboard-response",111,183253,"0.0-4.33-0.33","7uou8eg87tbx5u0",176,"4.csv","","217.90000009536743","resources/trios/L4T4A2.jpg","37","restless",0.6,0.4,0.5,0.661115019354155,"false"
"image-keyboard-response",112,183669,"0.0-4.33-1.33","7uou8eg87tbx5u0",176,"4.csv","","null","resources/maskTrios/L4BB.jpg","null","",NA,NA,NA,NA,""
"image-keyboard-response",113,184885,"0.0-4.33-2.33","7uou8eg87tbx5u0",176,"4.csv","","null","resources/images/fishbone.png","null","",NA,NA,NA,NA,""
"image-keyboard-response",114,185285,"0.0-4.34-0.34","7uou8eg87tbx5u0",176,"4.csv","","398.09999990463257","resources/trios/L4T4A2.jpg","37","restless",0.6,0.4,0.5,0.0782801999536185,"true"
"image-keyboard-response",115,185687,"0.0-4.34-1.34","7uou8eg87tbx5u0",176,"4.csv","","null","resources/maskTrios/L4BB.jpg","null","",NA,NA,NA,NA,""
"image-keyboard-response",116,186899,"0.0-4.34-2.34","7uou8eg87tbx5u0",176,"4.csv","","null","resources/images/coin2.png","null","",NA,NA,NA,NA,""
"image-keyboard-response",117,187086,"0.0-4.35-0.35","7uou8eg87tbx5u0",176,"4.csv","","185.40000009536743","resources/trios/L4T4A2.jpg","37","restless",0.6,0.3,0.5,0.0454235141483701,"true"
"image-keyboard-response",118,187500,"0.0-4.35-1.35","7uou8eg87tbx5u0",176,"4.csv","","null","resources/maskTrios/L4BB.jpg","null","",NA,NA,NA,NA,""
"image-keyboard-response",119,188715,"0.0-4.35-2.35","7uou8eg87tbx5u0",176,"4.csv","","null","resources/images/coin2.png","null","",NA,NA,NA,NA,""
"image-keyboard-response",120,188963,"0.0-4.36-0.36","7uou8eg87tbx5u0",176,"4.csv","","247.7000002861023","resources/trios/L4T4A2.jpg","37","restless",0.6,0.3,0.5,0.385308459618327,"true"
"image-keyboard-response",121,189369,"0.0-4.36-1.36","7uou8eg87tbx5u0",176,"4.csv","","null","resources/maskTrios/L4BB.jpg","null","",NA,NA,NA,NA,""
"image-keyboard-response",122,190572,"0.0-4.36-2.36","7uou8eg87tbx5u0",176,"4.csv","","null","resources/images/coin2.png","null","",NA,NA,NA,NA,""
"image-keyboard-response",123,190769,"0.0-4.37-0.37","7uou8eg87tbx5u0",176,"4.csv","","195.30000019073486","resources/trios/L4T4A2.jpg","37","restless",0.6,0.3,0.5,0.687953795261971,"false"
"image-keyboard-response",124,191185,"0.0-4.37-1.37","7uou8eg87tbx5u0",176,"4.csv","","null","resources/maskTrios/L4BB.jpg","null","",NA,NA,NA,NA,""
"image-keyboard-response",125,192399,"0.0-4.37-2.37","7uou8eg87tbx5u0",176,"4.csv","","null","resources/images/fishbone.png","null","",NA,NA,NA,NA,""
"image-keyboard-response",126,192604,"0.0-4.38-0.38","7uou8eg87tbx5u0",176,"4.csv","","203.30000019073486","resources/trios/L4T4A2.jpg","37","restless",0.6,0.2,0.5,0.945341057825806,"false"
"image-keyboard-response",127,193018,"0.0-4.38-1.38","7uou8eg87tbx5u0",176,"4.csv","","null","resources/maskTrios/L4BB.jpg","null","",NA,NA,NA,NA,""
"image-keyboard-response",128,194233,"0.0-4.38-2.38","7uou8eg87tbx5u0",176,"4.csv","","null","resources/images/fishbone.png","null","",NA,NA,NA,NA,""
"image-keyboard-response",129,194450,"0.0-4.39-0.39","7uou8eg87tbx5u0",176,"4.csv","","216.30000019073486","resources/trios/L4T4A2.jpg","38","restless",0.6,0.2,0.5,0.586048040681295,"false"
"image-keyboard-response",130,194865,"0.0-4.39-1.39","7uou8eg87tbx5u0",176,"4.csv","","null","resources/maskTrios/BT4B.jpg","null","",NA,NA,NA,NA,""
"image-keyboard-response",131,196079,"0.0-4.39-2.39","7uou8eg87tbx5u0",176,"4.csv","","null","resources/images/fishbone.png","null","",NA,NA,NA,NA,""
"image-keyboard-response",132,196291,"0.0-4.40-0.40","7uou8eg87tbx5u0",176,"4.csv","","211","resources/trios/L4T4A2.jpg","37","restless",0.5,0.2,0.5,0.869550387510849,"false"
"image-keyboard-response",133,196701,"0.0-4.40-1.40","7uou8eg87tbx5u0",176,"4.csv","","null","resources/maskTrios/L4BB.jpg","null","",NA,NA,NA,NA,""
"image-keyboard-response",134,197918,"0.0-4.40-2.40","7uou8eg87tbx5u0",176,"4.csv","","null","resources/images/fishbone.png","null","",NA,NA,NA,NA,""
"image-keyboard-response",135,198131,"0.0-4.41-0.41","7uou8eg87tbx5u0",176,"4.csv","","212","resources/trios/L4T4A2.jpg","39","restless",0.5,0.2,0.5,0.132221225482978,"true"
"image-keyboard-response",136,198533,"0.0-4.41-1.41","7uou8eg87tbx5u0",176,"4.csv","","null","resources/maskTrios/BBA2.jpg","null","",NA,NA,NA,NA,""
"image-keyboard-response",137,199748,"0.0-4.41-2.41","7uou8eg87tbx5u0",176,"4.csv","","null","resources/images/coin2.png","null","",NA,NA,NA,NA,""
"image-keyboard-response",138,199853,"0.0-4.42-0.42","7uou8eg87tbx5u0",176,"4.csv","","104.09999990463257","resources/trios/L4T4A2.jpg","39","restless",0.5,0.2,0.5,0.552012685501464,"false"
"image-keyboard-response",139,200267,"0.0-4.42-1.42","7uou8eg87tbx5u0",176,"4.csv","","null","resources/maskTrios/BBA2.jpg","null","",NA,NA,NA,NA,""
"image-keyboard-response",140,201483,"0.0-4.42-2.42","7uou8eg87tbx5u0",176,"4.csv","","null","resources/images/fishbone.png","null","",NA,NA,NA,NA,""
"image-keyboard-response",141,201701,"0.0-4.43-0.43","7uou8eg87tbx5u0",176,"4.csv","","216.90000009536743","resources/trios/L4T4A2.jpg","38","restless",0.5,0.2,0.5,0.102557289199741,"true"
"image-keyboard-response",142,202117,"0.0-4.43-1.43","7uou8eg87tbx5u0",176,"4.csv","","null","resources/maskTrios/BT4B.jpg","null","",NA,NA,NA,NA,""
"image-keyboard-response",143,203331,"0.0-4.43-2.43","7uou8eg87tbx5u0",176,"4.csv","","null","resources/images/coin2.png","null","",NA,NA,NA,NA,""
"image-keyboard-response",144,203726,"0.0-4.44-0.44","7uou8eg87tbx5u0",176,"4.csv","","394.1000003814697","resources/trios/L4T4A2.jpg","38","restless",0.5,0.3,0.5,0.308033513432564,"false"
"image-keyboard-response",145,204135,"0.0-4.44-1.44","7uou8eg87tbx5u0",176,"4.csv","","null","resources/maskTrios/BT4B.jpg","null","",NA,NA,NA,NA,""
"image-keyboard-response",146,205347,"0.0-4.44-2.44","7uou8eg87tbx5u0",176,"4.csv","","null","resources/images/fishbone.png","null","",NA,NA,NA,NA,""
"image-keyboard-response",147,205517,"0.0-4.45-0.45","7uou8eg87tbx5u0",176,"4.csv","","168.7000002861023","resources/trios/L4T4A2.jpg","37","restless",0.5,0.3,0.5,0.847315921396442,"false"
"image-keyboard-response",148,205931,"0.0-4.45-1.45","7uou8eg87tbx5u0",176,"4.csv","","null","resources/maskTrios/L4BB.jpg","null","",NA,NA,NA,NA,""
"image-keyboard-response",149,207133,"0.0-4.45-2.45","7uou8eg87tbx5u0",176,"4.csv","","null","resources/images/fishbone.png","null","",NA,NA,NA,NA,""
"image-keyboard-response",150,207307,"0.0-4.46-0.46","7uou8eg87tbx5u0",176,"4.csv","","173.5","resources/trios/L4T4A2.jpg","37","restless",0.5,0.3,0.5,0.654251805966599,"false"
"image-keyboard-response",151,207717,"0.0-4.46-1.46","7uou8eg87tbx5u0",176,"4.csv","","null","resources/maskTrios/L4BB.jpg","null","",NA,NA,NA,NA,""
"image-keyboard-response",152,208931,"0.0-4.46-2.46","7uou8eg87tbx5u0",176,"4.csv","","null","resources/images/fishbone.png","null","",NA,NA,NA,NA,""
"image-keyboard-response",153,209263,"0.0-4.47-0.47","7uou8eg87tbx5u0",176,"4.csv","","330.40000009536743","resources/trios/L4T4A2.jpg","38","restless",0.5,0.2,0.6,0.0547440533772801,"true"
"image-keyboard-response",154,209667,"0.0-4.47-1.47","7uou8eg87tbx5u0",176,"4.csv","","null","resources/maskTrios/BT4B.jpg","null","",NA,NA,NA,NA,""
"image-keyboard-response",155,210879,"0.0-4.47-2.47","7uou8eg87tbx5u0",176,"4.csv","","null","resources/images/coin2.png","null","",NA,NA,NA,NA,""
"image-keyboard-response",156,211416,"0.0-4.48-0.48","7uou8eg87tbx5u0",176,"4.csv","","536.4000000953674","resources/trios/L4T4A2.jpg","37","restless",0.4,0.2,0.6,0.118601464053882,"true"
"image-keyboard-response",157,211834,"0.0-4.48-1.48","7uou8eg87tbx5u0",176,"4.csv","","null","resources/maskTrios/L4BB.jpg","null","",NA,NA,NA,NA,""
"image-keyboard-response",158,213049,"0.0-4.48-2.48","7uou8eg87tbx5u0",176,"4.csv","","null","resources/images/coin2.png","null","",NA,NA,NA,NA,""
"image-keyboard-response",159,213063,"0.0-4.49-0.49","7uou8eg87tbx5u0",176,"4.csv","","12.099999904632568","resources/trios/L4T4A2.jpg","37","restless",0.3,0.2,0.6,0.989063542350858,"false"
"image-keyboard-response",160,213467,"0.0-4.49-1.49","7uou8eg87tbx5u0",176,"4.csv","","null","resources/maskTrios/L4BB.jpg","null","",NA,NA,NA,NA,""
"image-keyboard-response",161,214680,"0.0-4.49-2.49","7uou8eg87tbx5u0",176,"4.csv","","null","resources/images/fishbone.png","null","",NA,NA,NA,NA,""
"image-keyboard-response",162,214916,"0.0-4.50-0.50","7uou8eg87tbx5u0",176,"4.csv","","235.10000038146973","resources/trios/L4T4A2.jpg","39","restless",0.3,0.2,0.6,0.926007371288245,"false"
"image-keyboard-response",163,215318,"0.0-4.50-1.50","7uou8eg87tbx5u0",176,"4.csv","","null","resources/maskTrios/BBA2.jpg","null","",NA,NA,NA,NA,""
"image-keyboard-response",164,216529,"0.0-4.50-2.50","7uou8eg87tbx5u0",176,"4.csv","","null","resources/images/fishbone.png","null","",NA,NA,NA,NA,""
"image-keyboard-response",165,216635,"0.0-4.51-0.51","7uou8eg87tbx5u0",176,"4.csv","","104.30000019073486","resources/trios/L4T4A2.jpg","37","restless",0.3,0.2,0.7,0.42497309965597,"false"
"image-keyboard-response",166,217049,"0.0-4.51-1.51","7uou8eg87tbx5u0",176,"4.csv","","null","resources/maskTrios/L4BB.jpg","null","",NA,NA,NA,NA,""
"image-keyboard-response",167,218265,"0.0-4.51-2.51","7uou8eg87tbx5u0",176,"4.csv","","null","resources/images/fishbone.png","null","",NA,NA,NA,NA,""
"image-keyboard-response",168,218480,"0.0-4.52-0.52","7uou8eg87tbx5u0",176,"4.csv","","214.30000019073486","resources/trios/L4T4A2.jpg","38","restless",0.3,0.2,0.7,0.614372721430152,"false"
"image-keyboard-response",169,218883,"0.0-4.52-1.52","7uou8eg87tbx5u0",176,"4.csv","","null","resources/maskTrios/BT4B.jpg","null","",NA,NA,NA,NA,""
"image-keyboard-response",170,220093,"0.0-4.52-2.52","7uou8eg87tbx5u0",176,"4.csv","","null","resources/images/fishbone.png","null","",NA,NA,NA,NA,""
"image-keyboard-response",171,220195,"0.0-4.53-0.53","7uou8eg87tbx5u0",176,"4.csv","","100.59999990463257","resources/trios/L4T4A2.jpg","38","restless",0.3,0.1,0.7,0.127478561960781,"false"
"image-keyboard-response",172,220599,"0.0-4.53-1.53","7uou8eg87tbx5u0",176,"4.csv","","null","resources/maskTrios/BT4B.jpg","null","",NA,NA,NA,NA,""
"image-keyboard-response",173,221813,"0.0-4.53-2.53","7uou8eg87tbx5u0",176,"4.csv","","null","resources/images/fishbone.png","null","",NA,NA,NA,NA,""
"image-keyboard-response",174,221974,"0.0-4.54-0.54","7uou8eg87tbx5u0",176,"4.csv","","160.30000019073486","resources/trios/L4T4A2.jpg","37","restless",0.3,0.1,0.8,0.544655104213084,"false"
"image-keyboard-response",175,222379,"0.0-4.54-1.54","7uou8eg87tbx5u0",176,"4.csv","","null","resources/maskTrios/L4BB.jpg","null","",NA,NA,NA,NA,""
"image-keyboard-response",176,223593,"0.0-4.54-2.54","7uou8eg87tbx5u0",176,"4.csv","","null","resources/images/fishbone.png","null","",NA,NA,NA,NA,""
"image-keyboard-response",177,223619,"0.0-4.55-0.55","7uou8eg87tbx5u0",176,"4.csv","","25.199999809265137","resources/trios/L4T4A2.jpg","39","restless",0.3,0.1,0.8,0.306507086207696,"true"
"image-keyboard-response",178,224032,"0.0-4.55-1.55","7uou8eg87tbx5u0",176,"4.csv","","null","resources/maskTrios/BBA2.jpg","null","",NA,NA,NA,NA,""
"image-keyboard-response",179,225251,"0.0-4.55-2.55","7uou8eg87tbx5u0",176,"4.csv","","null","resources/images/coin2.png","null","",NA,NA,NA,NA,""
"image-keyboard-response",180,225303,"0.0-4.56-0.56","7uou8eg87tbx5u0",176,"4.csv","","51.200000286102295","resources/trios/L4T4A2.jpg","38","restless",0.3,0.1,0.8,0.224229688307531,"false"
"image-keyboard-response",181,225718,"0.0-4.56-1.56","7uou8eg87tbx5u0",176,"4.csv","","null","resources/maskTrios/BT4B.jpg","null","",NA,NA,NA,NA,""
"image-keyboard-response",182,226935,"0.0-4.56-2.56","7uou8eg87tbx5u0",176,"4.csv","","null","resources/images/fishbone.png","null","",NA,NA,NA,NA,""
"image-keyboard-response",183,227136,"0.0-4.57-0.57","7uou8eg87tbx5u0",176,"4.csv","","200","resources/trios/L4T4A2.jpg","37","restless",0.3,0.1,0.8,0.709674134709706,"false"
"image-keyboard-response",184,227551,"0.0-4.57-1.57","7uou8eg87tbx5u0",176,"4.csv","","null","resources/maskTrios/L4BB.jpg","null","",NA,NA,NA,NA,""
"image-keyboard-response",185,228768,"0.0-4.57-2.57","7uou8eg87tbx5u0",176,"4.csv","","null","resources/images/fishbone.png","null","",NA,NA,NA,NA,""
"image-keyboard-response",186,228775,"0.0-4.58-0.58","7uou8eg87tbx5u0",176,"4.csv","","5.700000286102295","resources/trios/L4T4A2.jpg","39","restless",0.2,0.1,0.8,0.379955847606352,"true"
"image-keyboard-response",187,229186,"0.0-4.58-1.58","7uou8eg87tbx5u0",176,"4.csv","","null","resources/maskTrios/BBA2.jpg","null","",NA,NA,NA,NA,""
"image-keyboard-response",188,230400,"0.0-4.58-2.58","7uou8eg87tbx5u0",176,"4.csv","","null","resources/images/coin2.png","null","",NA,NA,NA,NA,""
"image-keyboard-response",189,230469,"0.0-4.59-0.59","7uou8eg87tbx5u0",176,"4.csv","","68.09999990463257","resources/trios/L4T4A2.jpg","39","restless",0.2,0.1,0.8,0.69669124767072,"true"
"image-keyboard-response",190,230883,"0.0-4.59-1.59","7uou8eg87tbx5u0",176,"4.csv","","null","resources/maskTrios/BBA2.jpg","null","",NA,NA,NA,NA,""
"image-keyboard-response",191,232098,"0.0-4.59-2.59","7uou8eg87tbx5u0",176,"4.csv","","null","resources/images/coin2.png","null","",NA,NA,NA,NA,""
"image-keyboard-response",192,232279,"0.0-4.60-0.60","7uou8eg87tbx5u0",176,"4.csv","","180.40000009536743","resources/trios/L4T4A2.jpg","39","restless",0.3,0.1,0.8,0.655759411531232,"true"
"image-keyboard-response",193,232686,"0.0-4.60-1.60","7uou8eg87tbx5u0",176,"4.csv","","null","resources/maskTrios/BBA2.jpg","null","",NA,NA,NA,NA,""
"image-keyboard-response",194,233900,"0.0-4.60-2.60","7uou8eg87tbx5u0",176,"4.csv","","null","resources/images/coin2.png","null","",NA,NA,NA,NA,""
"image-keyboard-response",195,234025,"0.0-4.61-0.61","7uou8eg87tbx5u0",176,"4.csv","","124.90000009536743","resources/trios/L4T4A2.jpg","39","restless",0.3,0.1,0.8,0.294418983122261,"true"
"image-keyboard-response",196,234434,"0.0-4.61-1.61","7uou8eg87tbx5u0",176,"4.csv","","null","resources/maskTrios/BBA2.jpg","null","",NA,NA,NA,NA,""
"image-keyboard-response",197,235649,"0.0-4.61-2.61","7uou8eg87tbx5u0",176,"4.csv","","null","resources/images/coin2.png","null","",NA,NA,NA,NA,""
"image-keyboard-response",198,235730,"0.0-4.62-0.62","7uou8eg87tbx5u0",176,"4.csv","","80.30000019073486","resources/trios/L4T4A2.jpg","39","restless",0.3,0.1,0.8,0.160153336433398,"true"
"image-keyboard-response",199,236134,"0.0-4.62-1.62","7uou8eg87tbx5u0",176,"4.csv","","null","resources/maskTrios/BBA2.jpg","null","",NA,NA,NA,NA,""
"image-keyboard-response",200,237336,"0.0-4.62-2.62","7uou8eg87tbx5u0",176,"4.csv","","null","resources/images/coin2.png","null","",NA,NA,NA,NA,""
"image-keyboard-response",201,237549,"0.0-4.63-0.63","7uou8eg87tbx5u0",176,"4.csv","","211.2999997138977","resources/trios/L4T4A2.jpg","39","restless",0.3,0.1,0.8,0.0776410730846373,"true"
"image-keyboard-response",202,237952,"0.0-4.63-1.63","7uou8eg87tbx5u0",176,"4.csv","","null","resources/maskTrios/BBA2.jpg","null","",NA,NA,NA,NA,""
"image-keyboard-response",203,239163,"0.0-4.63-2.63","7uou8eg87tbx5u0",176,"4.csv","","null","resources/images/coin2.png","null","",NA,NA,NA,NA,""
"image-keyboard-response",204,239406,"0.0-4.64-0.64","7uou8eg87tbx5u0",176,"4.csv","","241.2000002861023","resources/trios/L4T4A2.jpg","39","restless",0.3,0.1,0.8,0.863947638937693,"false"
"image-keyboard-response",205,239819,"0.0-4.64-1.64","7uou8eg87tbx5u0",176,"4.csv","","null","resources/maskTrios/BBA2.jpg","null","",NA,NA,NA,NA,""
"image-keyboard-response",206,241033,"0.0-4.64-2.64","7uou8eg87tbx5u0",176,"4.csv","","null","resources/images/fishbone.png","null","",NA,NA,NA,NA,""
"image-keyboard-response",207,241166,"0.0-4.65-0.65","7uou8eg87tbx5u0",176,"4.csv","","131.69999980926514","resources/trios/L4T4A2.jpg","39","restless",0.3,0.1,0.8,0.973348800988448,"false"
"image-keyboard-response",208,241568,"0.0-4.65-1.65","7uou8eg87tbx5u0",176,"4.csv","","null","resources/maskTrios/BBA2.jpg","null","",NA,NA,NA,NA,""
"image-keyboard-response",209,242780,"0.0-4.65-2.65","7uou8eg87tbx5u0",176,"4.csv","","null","resources/images/fishbone.png","null","",NA,NA,NA,NA,""
"image-keyboard-response",210,242936,"0.0-4.66-0.66","7uou8eg87tbx5u0",176,"4.csv","","155.2999997138977","resources/trios/L4T4A2.jpg","38","restless",0.3,0.1,0.8,0.074535246757905,"true"
"image-keyboard-response",211,243350,"0.0-4.66-1.66","7uou8eg87tbx5u0",176,"4.csv","","null","resources/maskTrios/BT4B.jpg","null","",NA,NA,NA,NA,""
"image-keyboard-response",212,244566,"0.0-4.66-2.66","7uou8eg87tbx5u0",176,"4.csv","","null","resources/images/coin2.png","null","",NA,NA,NA,NA,""
"image-keyboard-response",213,244594,"0.0-4.67-0.67","7uou8eg87tbx5u0",176,"4.csv","","26.800000190734863","resources/trios/L4T4A2.jpg","39","restless",0.4,0.1,0.8,0.862209368108037,"false"
"image-keyboard-response",214,245000,"0.0-4.67-1.67","7uou8eg87tbx5u0",176,"4.csv","","null","resources/maskTrios/BBA2.jpg","null","",NA,NA,NA,NA,""
"image-keyboard-response",215,246212,"0.0-4.67-2.67","7uou8eg87tbx5u0",176,"4.csv","","null","resources/images/fishbone.png","null","",NA,NA,NA,NA,""
"image-keyboard-response",216,246238,"0.0-4.68-0.68","7uou8eg87tbx5u0",176,"4.csv","","23.899999618530273","resources/trios/L4T4A2.jpg","38","restless",0.4,0.2,0.8,0.604839304519927,"false"
"image-keyboard-response",217,246652,"0.0-4.68-1.68","7uou8eg87tbx5u0",176,"4.csv","","null","resources/maskTrios/BT4B.jpg","null","",NA,NA,NA,NA,""
"image-keyboard-response",218,247864,"0.0-4.68-2.68","7uou8eg87tbx5u0",176,"4.csv","","null","resources/images/fishbone.png","null","",NA,NA,NA,NA,""
"image-keyboard-response",219,247990,"0.0-4.69-0.69","7uou8eg87tbx5u0",176,"4.csv","","124.7999997138977","resources/trios/L4T4A2.jpg","37","restless",0.4,0.2,0.8,0.54850864886024,"false"
"image-keyboard-response",220,248398,"0.0-4.69-1.69","7uou8eg87tbx5u0",176,"4.csv","","null","resources/maskTrios/L4BB.jpg","null","",NA,NA,NA,NA,""
"image-keyboard-response",221,249600,"0.0-4.69-2.69","7uou8eg87tbx5u0",176,"4.csv","","null","resources/images/fishbone.png","null","",NA,NA,NA,NA,""
"image-keyboard-response",222,249864,"0.0-4.70-0.70","7uou8eg87tbx5u0",176,"4.csv","","262.59999990463257","resources/trios/L4T4A2.jpg","38","restless",0.4,0.2,0.8,0.511727456768401,"false"
"image-keyboard-response",223,250267,"0.0-4.70-1.70","7uou8eg87tbx5u0",176,"4.csv","","null","resources/maskTrios/BT4B.jpg","null","",NA,NA,NA,NA,""
"image-keyboard-response",224,251468,"0.0-4.70-2.70","7uou8eg87tbx5u0",176,"4.csv","","null","resources/images/fishbone.png","null","",NA,NA,NA,NA,""
"image-keyboard-response",225,251562,"0.0-4.71-0.71","7uou8eg87tbx5u0",176,"4.csv","","93.09999990463257","resources/trios/L4T4A2.jpg","39","restless",0.4,0.2,0.8,0.120317621003001,"true"
"image-keyboard-response",226,251965,"0.0-4.71-1.71","7uou8eg87tbx5u0",176,"4.csv","","null","resources/maskTrios/BBA2.jpg","null","",NA,NA,NA,NA,""
"image-keyboard-response",227,253167,"0.0-4.71-2.71","7uou8eg87tbx5u0",176,"4.csv","","null","resources/images/coin2.png","null","",NA,NA,NA,NA,""
"image-keyboard-response",228,253226,"0.0-4.72-0.72","7uou8eg87tbx5u0",176,"4.csv","","58.90000009536743","resources/trios/L4T4A2.jpg","39","restless",0.4,0.2,0.8,0.690149755146699,"true"
"image-keyboard-response",229,253631,"0.0-4.72-1.72","7uou8eg87tbx5u0",176,"4.csv","","null","resources/maskTrios/BBA2.jpg","null","",NA,NA,NA,NA,""
"image-keyboard-response",230,254833,"0.0-4.72-2.72","7uou8eg87tbx5u0",176,"4.csv","","null","resources/images/coin2.png","null","",NA,NA,NA,NA,""
"image-keyboard-response",231,254878,"0.0-4.73-0.73","7uou8eg87tbx5u0",176,"4.csv","","43.39999961853027","resources/trios/L4T4A2.jpg","39","restless",0.3,0.2,0.8,0.647045683530611,"true"
"image-keyboard-response",232,255283,"0.0-4.73-1.73","7uou8eg87tbx5u0",176,"4.csv","","null","resources/maskTrios/BBA2.jpg","null","",NA,NA,NA,NA,""
"image-keyboard-response",233,256490,"0.0-4.73-2.73","7uou8eg87tbx5u0",176,"4.csv","","null","resources/images/coin2.png","null","",NA,NA,NA,NA,""
"image-keyboard-response",234,256516,"0.0-4.74-0.74","7uou8eg87tbx5u0",176,"4.csv","","24.899999618530273","resources/trios/L4T4A2.jpg","39","restless",0.3,0.2,0.8,0.470468658453254,"true"
"image-keyboard-response",235,256932,"0.0-4.74-1.74","7uou8eg87tbx5u0",176,"4.csv","","null","resources/maskTrios/BBA2.jpg","null","",NA,NA,NA,NA,""
"image-keyboard-response",236,258144,"0.0-4.74-2.74","7uou8eg87tbx5u0",176,"4.csv","","null","resources/images/coin2.png","null","",NA,NA,NA,NA,""
"image-keyboard-response",237,258186,"0.0-4.75-0.75","7uou8eg87tbx5u0",176,"4.csv","","41.200000286102295","resources/trios/L4T4A2.jpg","39","restless",0.3,0.2,0.8,0.213070531337937,"true"
"image-keyboard-response",238,258600,"0.0-4.75-1.75","7uou8eg87tbx5u0",176,"4.csv","","null","resources/maskTrios/BBA2.jpg","null","",NA,NA,NA,NA,""
"image-keyboard-response",239,259804,"0.0-4.75-2.75","7uou8eg87tbx5u0",176,"4.csv","","null","resources/images/coin2.png","null","",NA,NA,NA,NA,""
"image-keyboard-response",240,259986,"0.0-4.76-0.76","7uou8eg87tbx5u0",176,"4.csv","","180.80000019073486","resources/trios/L4T4A2.jpg","39","restless",0.3,0.2,0.7,0.458750789301701,"true"
"image-keyboard-response",241,260398,"0.0-4.76-1.76","7uou8eg87tbx5u0",176,"4.csv","","null","resources/maskTrios/BBA2.jpg","null","",NA,NA,NA,NA,""
"image-keyboard-response",242,261608,"0.0-4.76-2.76","7uou8eg87tbx5u0",176,"4.csv","","null","resources/images/coin2.png","null","",NA,NA,NA,NA,""
"image-keyboard-response",243,261977,"0.0-4.77-0.77","7uou8eg87tbx5u0",176,"4.csv","","368.19999980926514","resources/trios/L4T4A2.jpg","39","restless",0.3,0.2,0.7,0.770528540341103,"false"
"image-keyboard-response",244,262382,"0.0-4.77-1.77","7uou8eg87tbx5u0",176,"4.csv","","null","resources/maskTrios/BBA2.jpg","null","",NA,NA,NA,NA,""
"image-keyboard-response",245,263594,"0.0-4.77-2.77","7uou8eg87tbx5u0",176,"4.csv","","null","resources/images/fishbone.png","null","",NA,NA,NA,NA,""
"image-keyboard-response",246,263630,"0.0-4.78-0.78","7uou8eg87tbx5u0",176,"4.csv","","35.30000019073486","resources/trios/L4T4A2.jpg","38","restless",0.3,0.2,0.7,0.979370046713438,"false"
"image-keyboard-response",247,264032,"0.0-4.78-1.78","7uou8eg87tbx5u0",176,"4.csv","","null","resources/maskTrios/BT4B.jpg","null","",NA,NA,NA,NA,""
"image-keyboard-response",248,265248,"0.0-4.78-2.78","7uou8eg87tbx5u0",176,"4.csv","","null","resources/images/fishbone.png","null","",NA,NA,NA,NA,""
"image-keyboard-response",249,265326,"0.0-4.79-0.79","7uou8eg87tbx5u0",176,"4.csv","","77.7999997138977","resources/trios/L4T4A2.jpg","39","restless",0.3,0.3,0.6,0.0405360261530061,"true"
"image-keyboard-response",250,265732,"0.0-4.79-1.79","7uou8eg87tbx5u0",176,"4.csv","","null","resources/maskTrios/BBA2.jpg","null","",NA,NA,NA,NA,""
"image-keyboard-response",251,266946,"0.0-4.79-2.79","7uou8eg87tbx5u0",176,"4.csv","","null","resources/images/coin2.png","null","",NA,NA,NA,NA,""
"image-keyboard-response",252,266968,"0.0-4.80-0.80","7uou8eg87tbx5u0",176,"4.csv","","21","resources/trios/L4T4A2.jpg","39","restless",0.3,0.3,0.6,0.537807564157012,"true"
"image-keyboard-response",253,267381,"0.0-4.80-1.80","7uou8eg87tbx5u0",176,"4.csv","","null","resources/maskTrios/BBA2.jpg","null","",NA,NA,NA,NA,""
"image-keyboard-response",254,268596,"0.0-4.80-2.80","7uou8eg87tbx5u0",176,"4.csv","","null","resources/images/coin2.png","null","",NA,NA,NA,NA,""
"image-keyboard-response",255,268676,"0.0-4.81-0.81","7uou8eg87tbx5u0",176,"4.csv","","79.7000002861023","resources/trios/L4T4A2.jpg","39","restless",0.3,0.3,0.6,0.994118197661757,"false"
"image-keyboard-response",256,269082,"0.0-4.81-1.81","7uou8eg87tbx5u0",176,"4.csv","","null","resources/maskTrios/BBA2.jpg","null","",NA,NA,NA,NA,""
"image-keyboard-response",257,270294,"0.0-4.81-2.81","7uou8eg87tbx5u0",176,"4.csv","","null","resources/images/fishbone.png","null","",NA,NA,NA,NA,""
"image-keyboard-response",258,270427,"0.0-4.82-0.82","7uou8eg87tbx5u0",176,"4.csv","","131.39999961853027","resources/trios/L4T4A2.jpg","39","restless",0.3,0.3,0.6,0.0537980055784755,"true"
"image-keyboard-response",259,270830,"0.0-4.82-1.82","7uou8eg87tbx5u0",176,"4.csv","","null","resources/maskTrios/BBA2.jpg","null","",NA,NA,NA,NA,""
"image-keyboard-response",260,272046,"0.0-4.82-2.82","7uou8eg87tbx5u0",176,"4.csv","","null","resources/images/coin2.png","null","",NA,NA,NA,NA,""
"image-keyboard-response",261,272248,"0.0-4.83-0.83","7uou8eg87tbx5u0",176,"4.csv","","200.39999961853027","resources/trios/L4T4A2.jpg","39","restless",0.4,0.3,0.6,0.308999871187279,"true"
"image-keyboard-response",262,272664,"0.0-4.83-1.83","7uou8eg87tbx5u0",176,"4.csv","","null","resources/maskTrios/BBA2.jpg","null","",NA,NA,NA,NA,""
"image-keyboard-response",263,273879,"0.0-4.83-2.83","7uou8eg87tbx5u0",176,"4.csv","","null","resources/images/coin2.png","null","",NA,NA,NA,NA,""
"image-keyboard-response",264,274050,"0.0-4.84-0.84","7uou8eg87tbx5u0",176,"4.csv","","170","resources/trios/L4T4A2.jpg","39","restless",0.5,0.4,0.6,0.290719642678478,"true"
"image-keyboard-response",265,274463,"0.0-4.84-1.84","7uou8eg87tbx5u0",176,"4.csv","","null","resources/maskTrios/BBA2.jpg","null","",NA,NA,NA,NA,""
"image-keyboard-response",266,275678,"0.0-4.84-2.84","7uou8eg87tbx5u0",176,"4.csv","","null","resources/images/coin2.png","null","",NA,NA,NA,NA,""
"image-keyboard-response",267,275698,"0.0-4.85-0.85","7uou8eg87tbx5u0",176,"4.csv","","18.800000190734863","resources/trios/L4T4A2.jpg","39","restless",0.4,0.4,0.6,0.557392287700533,"true"
"image-keyboard-response",268,276112,"0.0-4.85-1.85","7uou8eg87tbx5u0",176,"4.csv","","null","resources/maskTrios/BBA2.jpg","null","",NA,NA,NA,NA,""
"image-keyboard-response",269,277326,"0.0-4.85-2.85","7uou8eg87tbx5u0",176,"4.csv","","null","resources/images/coin2.png","null","",NA,NA,NA,NA,""
"image-keyboard-response",270,277457,"0.0-4.86-0.86","7uou8eg87tbx5u0",176,"4.csv","","129.2000002861023","resources/trios/L4T4A2.jpg","39","restless",0.4,0.4,0.6,0.843477647026354,"false"
"image-keyboard-response",271,277863,"0.0-4.86-1.86","7uou8eg87tbx5u0",176,"4.csv","","null","resources/maskTrios/BBA2.jpg","null","",NA,NA,NA,NA,""
"image-keyboard-response",272,279078,"0.0-4.86-2.86","7uou8eg87tbx5u0",176,"4.csv","","null","resources/images/fishbone.png","null","",NA,NA,NA,NA,""
"image-keyboard-response",273,279200,"0.0-4.87-0.87","7uou8eg87tbx5u0",176,"4.csv","","121.40000009536743","resources/trios/L4T4A2.jpg","39","restless",0.4,0.4,0.6,0.192539857864876,"true"
"image-keyboard-response",274,279612,"0.0-4.87-1.87","7uou8eg87tbx5u0",176,"4.csv","","null","resources/maskTrios/BBA2.jpg","null","",NA,NA,NA,NA,""
"image-keyboard-response",275,280828,"0.0-4.87-2.87","7uou8eg87tbx5u0",176,"4.csv","","null","resources/images/coin2.png","null","",NA,NA,NA,NA,""
"image-keyboard-response",276,281826,"0.0-4.88-0.88","7uou8eg87tbx5u0",176,"4.csv","","996.9000000953674","resources/trios/L4T4A2.jpg","38","restless",0.4,0.4,0.6,0.936041651424359,"false"
"image-keyboard-response",277,282230,"0.0-4.88-1.88","7uou8eg87tbx5u0",176,"4.csv","","null","resources/maskTrios/BT4B.jpg","null","",NA,NA,NA,NA,""
"image-keyboard-response",278,283446,"0.0-4.88-2.88","7uou8eg87tbx5u0",176,"4.csv","","null","resources/images/fishbone.png","null","",NA,NA,NA,NA,""
"image-keyboard-response",279,283717,"0.0-4.89-0.89","7uou8eg87tbx5u0",176,"4.csv","","270.30000019073486","resources/trios/L4T4A2.jpg","37","restless",0.3,0.4,0.6,0.609109767203812,"false"
"image-keyboard-response",280,284128,"0.0-4.89-1.89","7uou8eg87tbx5u0",176,"4.csv","","null","resources/maskTrios/L4BB.jpg","null","",NA,NA,NA,NA,""
"image-keyboard-response",281,285344,"0.0-4.89-2.89","7uou8eg87tbx5u0",176,"4.csv","","null","resources/images/fishbone.png","null","",NA,NA,NA,NA,""
"image-keyboard-response",282,285634,"0.0-4.90-0.90","7uou8eg87tbx5u0",176,"4.csv","","289.2000002861023","resources/trios/L4T4A2.jpg","39","restless",0.3,0.4,0.6,0.0205712203833024,"true"
"image-keyboard-response",283,286043,"0.0-4.90-1.90","7uou8eg87tbx5u0",176,"4.csv","","null","resources/maskTrios/BBA2.jpg","null","",NA,NA,NA,NA,""
"image-keyboard-response",284,287257,"0.0-4.90-2.90","7uou8eg87tbx5u0",176,"4.csv","","null","resources/images/coin2.png","null","",NA,NA,NA,NA,""
"image-keyboard-response",285,287405,"0.0-4.91-0.91","7uou8eg87tbx5u0",176,"4.csv","","148","resources/trios/L4T4A2.jpg","39","restless",0.3,0.4,0.6,0.269596153407581,"true"
"image-keyboard-response",286,287815,"0.0-4.91-1.91","7uou8eg87tbx5u0",176,"4.csv","","null","resources/maskTrios/BBA2.jpg","null","",NA,NA,NA,NA,""
"image-keyboard-response",287,289031,"0.0-4.91-2.91","7uou8eg87tbx5u0",176,"4.csv","","null","resources/images/coin2.png","null","",NA,NA,NA,NA,""
"image-keyboard-response",288,289646,"0.0-4.92-0.92","7uou8eg87tbx5u0",176,"4.csv","","615.1000003814697","resources/trios/L4T4A2.jpg","39","restless",0.3,0.4,0.6,0.438437816180029,"true"
"image-keyboard-response",289,290063,"0.0-4.92-1.92","7uou8eg87tbx5u0",176,"4.csv","","null","resources/maskTrios/BBA2.jpg","null","",NA,NA,NA,NA,""
"image-keyboard-response",290,291278,"0.0-4.92-2.92","7uou8eg87tbx5u0",176,"4.csv","","null","resources/images/coin2.png","null","",NA,NA,NA,NA,""
"image-keyboard-response",291,291654,"0.0-4.93-0.93","7uou8eg87tbx5u0",176,"4.csv","","375.30000019073486","resources/trios/L4T4A2.jpg","39","restless",0.3,0.4,0.6,0.384624873699998,"true"
"image-keyboard-response",292,292060,"0.0-4.93-1.93","7uou8eg87tbx5u0",176,"4.csv","","null","resources/maskTrios/BBA2.jpg","null","",NA,NA,NA,NA,""
"image-keyboard-response",293,293276,"0.0-4.93-2.93","7uou8eg87tbx5u0",176,"4.csv","","null","resources/images/coin2.png","null","",NA,NA,NA,NA,""
"image-keyboard-response",294,293411,"0.0-4.94-0.94","7uou8eg87tbx5u0",176,"4.csv","","134.10000038146973","resources/trios/L4T4A2.jpg","39","restless",0.3,0.4,0.6,0.541935444153396,"true"
"image-keyboard-response",295,293827,"0.0-4.94-1.94","7uou8eg87tbx5u0",176,"4.csv","","null","resources/maskTrios/BBA2.jpg","null","",NA,NA,NA,NA,""
"image-keyboard-response",296,295040,"0.0-4.94-2.94","7uou8eg87tbx5u0",176,"4.csv","","null","resources/images/coin2.png","null","",NA,NA,NA,NA,""
"image-keyboard-response",297,295146,"0.0-4.95-0.95","7uou8eg87tbx5u0",176,"4.csv","","105","resources/trios/L4T4A2.jpg","39","restless",0.3,0.4,0.6,0.797030431073954,"false"
"image-keyboard-response",298,295557,"0.0-4.95-1.95","7uou8eg87tbx5u0",176,"4.csv","","null","resources/maskTrios/BBA2.jpg","null","",NA,NA,NA,NA,""
"image-keyboard-response",299,296762,"0.0-4.95-2.95","7uou8eg87tbx5u0",176,"4.csv","","null","resources/images/fishbone.png","null","",NA,NA,NA,NA,""
"image-keyboard-response",300,296886,"0.0-4.96-0.96","7uou8eg87tbx5u0",176,"4.csv","","122.59999990463257","resources/trios/L4T4A2.jpg","38","restless",0.3,0.5,0.6,0.792457486199956,"false"
"image-keyboard-response",301,297292,"0.0-4.96-1.96","7uou8eg87tbx5u0",176,"4.csv","","null","resources/maskTrios/BT4B.jpg","null","",NA,NA,NA,NA,""
"image-keyboard-response",302,298508,"0.0-4.96-2.96","7uou8eg87tbx5u0",176,"4.csv","","null","resources/images/fishbone.png","null","",NA,NA,NA,NA,""
"image-keyboard-response",303,298631,"0.0-4.97-0.97","7uou8eg87tbx5u0",176,"4.csv","","122.5","resources/trios/L4T4A2.jpg","39","restless",0.3,0.5,0.6,0.972045640438575,"false"
"image-keyboard-response",304,299044,"0.0-4.97-1.97","7uou8eg87tbx5u0",176,"4.csv","","null","resources/maskTrios/BBA2.jpg","null","",NA,NA,NA,NA,""
"image-keyboard-response",305,300257,"0.0-4.97-2.97","7uou8eg87tbx5u0",176,"4.csv","","null","resources/images/fishbone.png","null","",NA,NA,NA,NA,""
"image-keyboard-response",306,300477,"0.0-4.98-0.98","7uou8eg87tbx5u0",176,"4.csv","","219.30000019073486","resources/trios/L4T4A2.jpg","39","restless",0.3,0.5,0.6,0.842645522139206,"false"
"image-keyboard-response",307,300878,"0.0-4.98-1.98","7uou8eg87tbx5u0",176,"4.csv","","null","resources/maskTrios/BBA2.jpg","null","",NA,NA,NA,NA,""
"image-keyboard-response",308,302089,"0.0-4.98-2.98","7uou8eg87tbx5u0",176,"4.csv","","null","resources/images/fishbone.png","null","",NA,NA,NA,NA,""
"image-keyboard-response",309,302153,"0.0-4.99-0.99","7uou8eg87tbx5u0",176,"4.csv","","63.19999980926514","resources/trios/L4T4A2.jpg","39","restless",0.3,0.5,0.6,0.59028926426596,"true"
"image-keyboard-response",310,302560,"0.0-4.99-1.99","7uou8eg87tbx5u0",176,"4.csv","","null","resources/maskTrios/BBA2.jpg","null","",NA,NA,NA,NA,""
"image-keyboard-response",311,303775,"0.0-4.99-2.99","7uou8eg87tbx5u0",176,"4.csv","","null","resources/images/coin2.png","null","",NA,NA,NA,NA,""
"image-keyboard-response",312,303778,"0.0-4.100-0.100","7uou8eg87tbx5u0",176,"4.csv","","1.8000001907348633","resources/trios/L4T4A2.jpg","39","restless",0.3,0.5,0.6,0.66748346355606,"false"
"image-keyboard-response",313,304191,"0.0-4.100-1.100","7uou8eg87tbx5u0",176,"4.csv","","null","resources/maskTrios/BBA2.jpg","null","",NA,NA,NA,NA,""
"image-keyboard-response",314,305393,"0.0-4.100-2.100","7uou8eg87tbx5u0",176,"4.csv","","null","resources/images/fishbone.png","null","",NA,NA,NA,NA,""
"image-keyboard-response",315,305637,"0.0-4.101-0.101","7uou8eg87tbx5u0",176,"4.csv","","243.80000019073486","resources/trios/L4T4A2.jpg","39","restless",0.3,0.5,0.6,0.00171875815910605,"true"
"image-keyboard-response",316,306043,"0.0-4.101-1.101","7uou8eg87tbx5u0",176,"4.csv","","null","resources/maskTrios/BBA2.jpg","null","",NA,NA,NA,NA,""
"image-keyboard-response",317,307258,"0.0-4.101-2.101","7uou8eg87tbx5u0",176,"4.csv","","null","resources/images/coin2.png","null","",NA,NA,NA,NA,""
"image-keyboard-response",318,307525,"0.0-4.102-0.102","7uou8eg87tbx5u0",176,"4.csv","","265.30000019073486","resources/trios/L4T4A2.jpg","39","restless",0.3,0.5,0.6,0.64881997276757,"false"
"image-keyboard-response",319,307927,"0.0-4.102-1.102","7uou8eg87tbx5u0",176,"4.csv","","null","resources/maskTrios/BBA2.jpg","null","",NA,NA,NA,NA,""
"image-keyboard-response",320,309142,"0.0-4.102-2.102","7uou8eg87tbx5u0",176,"4.csv","","null","resources/images/fishbone.png","null","",NA,NA,NA,NA,""
"image-keyboard-response",321,309308,"0.0-4.103-0.103","7uou8eg87tbx5u0",176,"4.csv","","165","resources/trios/L4T4A2.jpg","37","restless",0.3,0.5,0.7,0.0856289379313437,"true"
"image-keyboard-response",322,309710,"0.0-4.103-1.103","7uou8eg87tbx5u0",176,"4.csv","","null","resources/maskTrios/L4BB.jpg","null","",NA,NA,NA,NA,""
"image-keyboard-response",323,310919,"0.0-4.103-2.103","7uou8eg87tbx5u0",176,"4.csv","","null","resources/images/coin2.png","null","",NA,NA,NA,NA,""
"image-keyboard-response",324,311096,"0.0-4.104-0.104","7uou8eg87tbx5u0",176,"4.csv","","176.09999990463257","resources/trios/L4T4A2.jpg","37","restless",0.3,0.5,0.7,0.819619115011474,"false"
"image-keyboard-response",325,311509,"0.0-4.104-1.104","7uou8eg87tbx5u0",176,"4.csv","","null","resources/maskTrios/L4BB.jpg","null","",NA,NA,NA,NA,""
"image-keyboard-response",326,312725,"0.0-4.104-2.104","7uou8eg87tbx5u0",176,"4.csv","","null","resources/images/fishbone.png","null","",NA,NA,NA,NA,""
"image-keyboard-response",327,312886,"0.0-4.105-0.105","7uou8eg87tbx5u0",176,"4.csv","","156.80000019073486","resources/trios/L4T4A2.jpg","38","restless",0.3,0.5,0.6,0.445068947088689,"true"
"image-keyboard-response",328,313293,"0.0-4.105-1.105","7uou8eg87tbx5u0",176,"4.csv","","null","resources/maskTrios/BT4B.jpg","null","",NA,NA,NA,NA,""
"image-keyboard-response",329,314505,"0.0-4.105-2.105","7uou8eg87tbx5u0",176,"4.csv","","null","resources/images/coin2.png","null","",NA,NA,NA,NA,""
"image-keyboard-response",330,314523,"0.0-4.106-0.106","7uou8eg87tbx5u0",176,"4.csv","","17.800000190734863","resources/trios/L4T4A2.jpg","39","restless",0.3,0.5,0.6,0.0679220466554651,"true"
"image-keyboard-response",331,314940,"0.0-4.106-1.106","7uou8eg87tbx5u0",176,"4.csv","","null","resources/maskTrios/BBA2.jpg","null","",NA,NA,NA,NA,""
"image-keyboard-response",332,316154,"0.0-4.106-2.106","7uou8eg87tbx5u0",176,"4.csv","","null","resources/images/coin2.png","null","",NA,NA,NA,NA,""
"image-keyboard-response",333,316397,"0.0-4.107-0.107","7uou8eg87tbx5u0",176,"4.csv","","242.09999990463257","resources/trios/L4T4A2.jpg","39","restless",0.3,0.5,0.6,0.0923759248479652,"true"
"image-keyboard-response",334,316805,"0.0-4.107-1.107","7uou8eg87tbx5u0",176,"4.csv","","null","resources/maskTrios/BBA2.jpg","null","",NA,NA,NA,NA,""
"image-keyboard-response",335,318021,"0.0-4.107-2.107","7uou8eg87tbx5u0",176,"4.csv","","null","resources/images/coin2.png","null","",NA,NA,NA,NA,""
"image-keyboard-response",336,318174,"0.0-4.108-0.108","7uou8eg87tbx5u0",176,"4.csv","","152","resources/trios/L4T4A2.jpg","39","restless",0.3,0.5,0.6,0.843451390999955,"false"
"image-keyboard-response",337,318588,"0.0-4.108-1.108","7uou8eg87tbx5u0",176,"4.csv","","null","resources/maskTrios/BBA2.jpg","null","",NA,NA,NA,NA,""
"image-keyboard-response",338,319792,"0.0-4.108-2.108","7uou8eg87tbx5u0",176,"4.csv","","null","resources/images/fishbone.png","null","",NA,NA,NA,NA,""
"image-keyboard-response",339,319897,"0.0-4.109-0.109","7uou8eg87tbx5u0",176,"4.csv","","103.40000009536743","resources/trios/L4T4A2.jpg","38","restless",0.3,0.5,0.6,0.282866436374551,"true"
"image-keyboard-response",340,320306,"0.0-4.109-1.109","7uou8eg87tbx5u0",176,"4.csv","","null","resources/maskTrios/BT4B.jpg","null","",NA,NA,NA,NA,""
"image-keyboard-response",341,321520,"0.0-4.109-2.109","7uou8eg87tbx5u0",176,"4.csv","","null","resources/images/coin2.png","null","",NA,NA,NA,NA,""
"image-keyboard-response",342,321668,"0.0-4.110-0.110","7uou8eg87tbx5u0",176,"4.csv","","146.80000019073486","resources/trios/L4T4A2.jpg","39","restless",0.3,0.5,0.6,0.102271941920772,"true"
"image-keyboard-response",343,322074,"0.0-4.110-1.110","7uou8eg87tbx5u0",176,"4.csv","","null","resources/maskTrios/BBA2.jpg","null","",NA,NA,NA,NA,""
"image-keyboard-response",344,323287,"0.0-4.110-2.110","7uou8eg87tbx5u0",176,"4.csv","","null","resources/images/coin2.png","null","",NA,NA,NA,NA,""
"image-keyboard-response",345,323477,"0.0-4.111-0.111","7uou8eg87tbx5u0",176,"4.csv","","189.40000009536743","resources/trios/L4T4A2.jpg","38","restless",0.4,0.5,0.6,0.623209321706522,"false"
"image-keyboard-response",346,323890,"0.0-4.111-1.111","7uou8eg87tbx5u0",176,"4.csv","","null","resources/maskTrios/BT4B.jpg","null","",NA,NA,NA,NA,""
"image-keyboard-response",347,325100,"0.0-4.111-2.111","7uou8eg87tbx5u0",176,"4.csv","","null","resources/images/fishbone.png","null","",NA,NA,NA,NA,""
"image-keyboard-response",348,325334,"0.0-4.112-0.112","7uou8eg87tbx5u0",176,"4.csv","","233","resources/trios/L4T4A2.jpg","39","restless",0.4,0.5,0.6,0.596613046669068,"true"
"image-keyboard-response",349,325740,"0.0-4.112-1.112","7uou8eg87tbx5u0",176,"4.csv","","null","resources/maskTrios/BBA2.jpg","null","",NA,NA,NA,NA,""
"image-keyboard-response",350,326953,"0.0-4.112-2.112","7uou8eg87tbx5u0",176,"4.csv","","null","resources/images/coin2.png","null","",NA,NA,NA,NA,""
"image-keyboard-response",351,327039,"0.0-4.113-0.113","7uou8eg87tbx5u0",176,"4.csv","","84.5","resources/trios/L4T4A2.jpg","37","restless",0.3,0.5,0.6,0.0318064645957417,"true"
"image-keyboard-response",352,327454,"0.0-4.113-1.113","7uou8eg87tbx5u0",176,"4.csv","","null","resources/maskTrios/L4BB.jpg","null","",NA,NA,NA,NA,""
"image-keyboard-response",353,328668,"0.0-4.113-2.113","7uou8eg87tbx5u0",176,"4.csv","","null","resources/images/coin2.png","null","",NA,NA,NA,NA,""
"image-keyboard-response",354,328864,"0.0-4.114-0.114","7uou8eg87tbx5u0",176,"4.csv","","194.59999990463257","resources/trios/L4T4A2.jpg","39","restless",0.3,0.5,0.6,0.958920560912988,"false"
"image-keyboard-response",355,329270,"0.0-4.114-1.114","7uou8eg87tbx5u0",176,"4.csv","","null","resources/maskTrios/BBA2.jpg","null","",NA,NA,NA,NA,""
"image-keyboard-response",356,330472,"0.0-4.114-2.114","7uou8eg87tbx5u0",176,"4.csv","","null","resources/images/fishbone.png","null","",NA,NA,NA,NA,""
"image-keyboard-response",357,330665,"0.0-4.115-0.115","7uou8eg87tbx5u0",176,"4.csv","","192","resources/trios/L4T4A2.jpg","38","restless",0.3,0.5,0.6,0.992315389962428,"false"
"image-keyboard-response",358,331071,"0.0-4.115-1.115","7uou8eg87tbx5u0",176,"4.csv","","null","resources/maskTrios/BT4B.jpg","null","",NA,NA,NA,NA,""
"image-keyboard-response",359,332284,"0.0-4.115-2.115","7uou8eg87tbx5u0",176,"4.csv","","null","resources/images/fishbone.png","null","",NA,NA,NA,NA,""
"image-keyboard-response",360,332494,"0.0-4.116-0.116","7uou8eg87tbx5u0",176,"4.csv","","209.30000019073486","resources/trios/L4T4A2.jpg","37","restless",0.3,0.5,0.6,0.858243715873171,"false"
"image-keyboard-response",361,332907,"0.0-4.116-1.116","7uou8eg87tbx5u0",176,"4.csv","","null","resources/maskTrios/L4BB.jpg","null","",NA,NA,NA,NA,""
"image-keyboard-response",362,334116,"0.0-4.116-2.116","7uou8eg87tbx5u0",176,"4.csv","","null","resources/images/fishbone.png","null","",NA,NA,NA,NA,""
"image-keyboard-response",363,334203,"0.0-4.117-0.117","7uou8eg87tbx5u0",176,"4.csv","","86.19999980926514","resources/trios/L4T4A2.jpg","39","restless",0.3,0.5,0.6,0.213278000292524,"true"
"image-keyboard-response",364,334620,"0.0-4.117-1.117","7uou8eg87tbx5u0",176,"4.csv","","null","resources/maskTrios/BBA2.jpg","null","",NA,NA,NA,NA,""
"image-keyboard-response",365,335834,"0.0-4.117-2.117","7uou8eg87tbx5u0",176,"4.csv","","null","resources/images/coin2.png","null","",NA,NA,NA,NA,""
"image-keyboard-response",366,336015,"0.0-4.118-0.118","7uou8eg87tbx5u0",176,"4.csv","","179.59999990463257","resources/trios/L4T4A2.jpg","38","restless",0.3,0.5,0.6,0.588451879996252,"false"
"image-keyboard-response",367,336420,"0.0-4.118-1.118","7uou8eg87tbx5u0",176,"4.csv","","null","resources/maskTrios/BT4B.jpg","null","",NA,NA,NA,NA,""
"image-keyboard-response",368,337635,"0.0-4.118-2.118","7uou8eg87tbx5u0",176,"4.csv","","null","resources/images/fishbone.png","null","",NA,NA,NA,NA,""
"image-keyboard-response",369,337840,"0.0-4.119-0.119","7uou8eg87tbx5u0",176,"4.csv","","204.5","resources/trios/L4T4A2.jpg","39","restless",0.3,0.5,0.6,0.236414882709681,"true"
"image-keyboard-response",370,338253,"0.0-4.119-1.119","7uou8eg87tbx5u0",176,"4.csv","","null","resources/maskTrios/BBA2.jpg","null","",NA,NA,NA,NA,""
"image-keyboard-response",371,339456,"0.0-4.119-2.119","7uou8eg87tbx5u0",176,"4.csv","","null","resources/images/coin2.png","null","",NA,NA,NA,NA,""
"image-keyboard-response",372,339786,"0.0-4.120-0.120","7uou8eg87tbx5u0",176,"4.csv","","328.40000009536743","resources/trios/L4T4A2.jpg","39","restless",0.3,0.6,0.6,0.0711042490043943,"true"
"image-keyboard-response",373,340188,"0.0-4.120-1.120","7uou8eg87tbx5u0",176,"4.csv","","null","resources/maskTrios/BBA2.jpg","null","",NA,NA,NA,NA,""
"image-keyboard-response",374,341402,"0.0-4.120-2.120","7uou8eg87tbx5u0",176,"4.csv","","null","resources/images/coin2.png","null","",NA,NA,NA,NA,""
"image-keyboard-response",375,341610,"0.0-4.121-0.121","7uou8eg87tbx5u0",176,"4.csv","","206.2999997138977","resources/trios/L4T4A2.jpg","39","restless",0.3,0.6,0.6,0.522338735231711,"true"
"image-keyboard-response",376,342020,"0.0-4.121-1.121","7uou8eg87tbx5u0",176,"4.csv","","null","resources/maskTrios/BBA2.jpg","null","",NA,NA,NA,NA,""
"image-keyboard-response",377,343222,"0.0-4.121-2.121","7uou8eg87tbx5u0",176,"4.csv","","null","resources/images/coin2.png","null","",NA,NA,NA,NA,""
"image-keyboard-response",378,343459,"0.0-4.122-0.122","7uou8eg87tbx5u0",176,"4.csv","","235.59999990463257","resources/trios/L4T4A2.jpg","39","restless",0.3,0.6,0.6,0.770274203655591,"false"
"image-keyboard-response",379,343868,"0.0-4.122-1.122","7uou8eg87tbx5u0",176,"4.csv","","null","resources/maskTrios/BBA2.jpg","null","",NA,NA,NA,NA,""
"image-keyboard-response",380,345084,"0.0-4.122-2.122","7uou8eg87tbx5u0",176,"4.csv","","null","resources/images/fishbone.png","null","",NA,NA,NA,NA,""
"image-keyboard-response",381,345124,"0.0-4.123-0.123","7uou8eg87tbx5u0",176,"4.csv","","38.59999990463257","resources/trios/L4T4A2.jpg","38","restless",0.2,0.6,0.6,0.268167046885271,"true"
"image-keyboard-response",382,345536,"0.0-4.123-1.123","7uou8eg87tbx5u0",176,"4.csv","","null","resources/maskTrios/BT4B.jpg","null","",NA,NA,NA,NA,""
"image-keyboard-response",383,346752,"0.0-4.123-2.123","7uou8eg87tbx5u0",176,"4.csv","","null","resources/images/coin2.png","null","",NA,NA,NA,NA,""
"image-keyboard-response",384,346956,"0.0-4.124-0.124","7uou8eg87tbx5u0",176,"4.csv","","203.30000019073486","resources/trios/L4T4A2.jpg","39","restless",0.2,0.6,0.6,0.269024517833369,"true"
"image-keyboard-response",385,347368,"0.0-4.124-1.124","7uou8eg87tbx5u0",176,"4.csv","","null","resources/maskTrios/BBA2.jpg","null","",NA,NA,NA,NA,""
"image-keyboard-response",386,348583,"0.0-4.124-2.124","7uou8eg87tbx5u0",176,"4.csv","","null","resources/images/coin2.png","null","",NA,NA,NA,NA,""
"image-keyboard-response",387,348758,"0.0-4.125-0.125","7uou8eg87tbx5u0",176,"4.csv","","174","resources/trios/L4T4A2.jpg","39","restless",0.2,0.6,0.6,0.798686734490464,"false"
"image-keyboard-response",388,349167,"0.0-4.125-1.125","7uou8eg87tbx5u0",176,"4.csv","","null","resources/maskTrios/BBA2.jpg","null","",NA,NA,NA,NA,""
"image-keyboard-response",389,350374,"0.0-4.125-2.125","7uou8eg87tbx5u0",176,"4.csv","","null","resources/images/fishbone.png","null","",NA,NA,NA,NA,""
"image-keyboard-response",390,350590,"0.0-4.126-0.126","7uou8eg87tbx5u0",176,"4.csv","","214.7000002861023","resources/trios/L4T4A2.jpg","38","restless",0.2,0.6,0.6,0.425537936349715,"true"
"image-keyboard-response",391,351002,"0.0-4.126-1.126","7uou8eg87tbx5u0",176,"4.csv","","null","resources/maskTrios/BT4B.jpg","null","",NA,NA,NA,NA,""
"image-keyboard-response",392,352214,"0.0-4.126-2.126","7uou8eg87tbx5u0",176,"4.csv","","null","resources/images/coin2.png","null","",NA,NA,NA,NA,""
"image-keyboard-response",393,352348,"0.0-4.127-0.127","7uou8eg87tbx5u0",176,"4.csv","","132.7999997138977","resources/trios/L4T4A2.jpg","39","restless",0.3,0.6,0.6,0.711497119500321,"false"
"image-keyboard-response",394,352753,"0.0-4.127-1.127","7uou8eg87tbx5u0",176,"4.csv","","null","resources/maskTrios/BBA2.jpg","null","",NA,NA,NA,NA,""
"image-keyboard-response",395,353969,"0.0-4.127-2.127","7uou8eg87tbx5u0",176,"4.csv","","null","resources/images/fishbone.png","null","",NA,NA,NA,NA,""
"image-keyboard-response",396,354067,"0.0-4.128-0.128","7uou8eg87tbx5u0",176,"4.csv","","96.69999980926514","resources/trios/L4T4A2.jpg","38","restless",0.3,0.6,0.6,0.159381987585687,"true"
"image-keyboard-response",397,354471,"0.0-4.128-1.128","7uou8eg87tbx5u0",176,"4.csv","","null","resources/maskTrios/BT4B.jpg","null","",NA,NA,NA,NA,""
"image-keyboard-response",398,355684,"0.0-4.128-2.128","7uou8eg87tbx5u0",176,"4.csv","","null","resources/images/coin2.png","null","",NA,NA,NA,NA,""
"image-keyboard-response",399,355695,"0.0-4.129-0.129","7uou8eg87tbx5u0",176,"4.csv","","9.699999809265137","resources/trios/L4T4A2.jpg","38","restless",0.3,0.6,0.6,0.0505725988570016,"true"
"image-keyboard-response",400,356103,"0.0-4.129-1.129","7uou8eg87tbx5u0",176,"4.csv","","null","resources/maskTrios/BT4B.jpg","null","",NA,NA,NA,NA,""
"image-keyboard-response",401,357316,"0.0-4.129-2.129","7uou8eg87tbx5u0",176,"4.csv","","null","resources/images/coin2.png","null","",NA,NA,NA,NA,""
"image-keyboard-response",402,357519,"0.0-4.130-0.130","7uou8eg87tbx5u0",176,"4.csv","","202.80000019073486","resources/trios/L4T4A2.jpg","38","restless",0.3,0.6,0.6,0.344853484861213,"true"
"image-keyboard-response",403,357933,"0.0-4.130-1.130","7uou8eg87tbx5u0",176,"4.csv","","null","resources/maskTrios/BT4B.jpg","null","",NA,NA,NA,NA,""
"image-keyboard-response",404,359136,"0.0-4.130-2.130","7uou8eg87tbx5u0",176,"4.csv","","null","resources/images/coin2.png","null","",NA,NA,NA,NA,""
"image-keyboard-response",405,359204,"0.0-4.131-0.131","7uou8eg87tbx5u0",176,"4.csv","","67.40000009536743","resources/trios/L4T4A2.jpg","38","restless",0.3,0.5,0.5,0.354578628271088,"true"
"image-keyboard-response",406,359618,"0.0-4.131-1.131","7uou8eg87tbx5u0",176,"4.csv","","null","resources/maskTrios/BT4B.jpg","null","",NA,NA,NA,NA,""
"image-keyboard-response",407,360834,"0.0-4.131-2.131","7uou8eg87tbx5u0",176,"4.csv","","null","resources/images/coin2.png","null","",NA,NA,NA,NA,""
"image-keyboard-response",408,362287,"0.0-4.132-0.132","7uou8eg87tbx5u0",176,"4.csv","","1451.7999997138977","resources/trios/L4T4A2.jpg","38","restless",0.3,0.5,0.5,0.00106006189380192,"true"
"image-keyboard-response",409,362701,"0.0-4.132-1.132","7uou8eg87tbx5u0",176,"4.csv","","null","resources/maskTrios/BT4B.jpg","null","",NA,NA,NA,NA,""
"image-keyboard-response",410,363914,"0.0-4.132-2.132","7uou8eg87tbx5u0",176,"4.csv","","null","resources/images/coin2.png","null","",NA,NA,NA,NA,""
"image-keyboard-response",411,367628,"0.0-4.133-0.133","7uou8eg87tbx5u0",176,"4.csv","","3713.2000002861023","resources/trios/L4T4A2.jpg","38","restless",0.3,0.5,0.5,0.363923334450479,"true"
"image-keyboard-response",412,368033,"0.0-4.133-1.133","7uou8eg87tbx5u0",176,"4.csv","","null","resources/maskTrios/BT4B.jpg","null","",NA,NA,NA,NA,""
"image-keyboard-response",413,369237,"0.0-4.133-2.133","7uou8eg87tbx5u0",176,"4.csv","","null","resources/images/coin2.png","null","",NA,NA,NA,NA,""
"image-keyboard-response",414,370508,"0.0-4.134-0.134","7uou8eg87tbx5u0",176,"4.csv","","1270.5","resources/trios/L4T4A2.jpg","38","restless",0.3,0.5,0.5,0.522596898176544,"false"
"image-keyboard-response",415,370917,"0.0-4.134-1.134","7uou8eg87tbx5u0",176,"4.csv","","null","resources/maskTrios/BT4B.jpg","null","",NA,NA,NA,NA,""
"image-keyboard-response",416,372132,"0.0-4.134-2.134","7uou8eg87tbx5u0",176,"4.csv","","null","resources/images/fishbone.png","null","",NA,NA,NA,NA,""
"image-keyboard-response",417,372176,"0.0-4.135-0.135","7uou8eg87tbx5u0",176,"4.csv","","43.10000038146973","resources/trios/L4T4A2.jpg","39","restless",0.3,0.5,0.5,0.670731731776527,"false"
"image-keyboard-response",418,372584,"0.0-4.135-1.135","7uou8eg87tbx5u0",176,"4.csv","","null","resources/maskTrios/BBA2.jpg","null","",NA,NA,NA,NA,""
"image-keyboard-response",419,373798,"0.0-4.135-2.135","7uou8eg87tbx5u0",176,"4.csv","","null","resources/images/fishbone.png","null","",NA,NA,NA,NA,""
"image-keyboard-response",420,374011,"0.0-4.136-0.136","7uou8eg87tbx5u0",176,"4.csv","","211.5","resources/trios/L4T4A2.jpg","37","restless",0.3,0.5,0.5,0.321450696016892,"false"
"image-keyboard-response",421,374416,"0.0-4.136-1.136","7uou8eg87tbx5u0",176,"4.csv","","null","resources/maskTrios/L4BB.jpg","null","",NA,NA,NA,NA,""
"image-keyboard-response",422,375630,"0.0-4.136-2.136","7uou8eg87tbx5u0",176,"4.csv","","null","resources/images/fishbone.png","null","",NA,NA,NA,NA,""
"image-keyboard-response",423,375747,"0.0-4.137-0.137","7uou8eg87tbx5u0",176,"4.csv","","116.39999961853027","resources/trios/L4T4A2.jpg","38","restless",0.4,0.5,0.5,0.838598174893028,"false"
"image-keyboard-response",424,376151,"0.0-4.137-1.137","7uou8eg87tbx5u0",176,"4.csv","","null","resources/maskTrios/BT4B.jpg","null","",NA,NA,NA,NA,""
"image-keyboard-response",425,377364,"0.0-4.137-2.137","7uou8eg87tbx5u0",176,"4.csv","","null","resources/images/fishbone.png","null","",NA,NA,NA,NA,""
"image-keyboard-response",426,377518,"0.0-4.138-0.138","7uou8eg87tbx5u0",176,"4.csv","","152.40000009536743","resources/trios/L4T4A2.jpg","39","restless",0.4,0.5,0.5,0.753463302524623,"false"
"image-keyboard-response",427,377932,"0.0-4.138-1.138","7uou8eg87tbx5u0",176,"4.csv","","null","resources/maskTrios/BBA2.jpg","null","",NA,NA,NA,NA,""
"image-keyboard-response",428,379134,"0.0-4.138-2.138","7uou8eg87tbx5u0",176,"4.csv","","null","resources/images/fishbone.png","null","",NA,NA,NA,NA,""
"image-keyboard-response",429,379160,"0.0-4.139-0.139","7uou8eg87tbx5u0",176,"4.csv","","25.40000009536743","resources/trios/L4T4A2.jpg","38","restless",0.4,0.6,0.5,0.495613471757101,"true"
"image-keyboard-response",430,379567,"0.0-4.139-1.139","7uou8eg87tbx5u0",176,"4.csv","","null","resources/maskTrios/BT4B.jpg","null","",NA,NA,NA,NA,""
"image-keyboard-response",431,380780,"0.0-4.139-2.139","7uou8eg87tbx5u0",176,"4.csv","","null","resources/images/coin2.png","null","",NA,NA,NA,NA,""
"image-keyboard-response",432,380812,"0.0-4.140-0.140","7uou8eg87tbx5u0",176,"4.csv","","31.40000009536743","resources/trios/L4T4A2.jpg","38","restless",0.3,0.6,0.5,0.940763323637923,"false"
"image-keyboard-response",433,381215,"0.0-4.140-1.140","7uou8eg87tbx5u0",176,"4.csv","","null","resources/maskTrios/BT4B.jpg","null","",NA,NA,NA,NA,""
"image-keyboard-response",434,382428,"0.0-4.140-2.140","7uou8eg87tbx5u0",176,"4.csv","","null","resources/images/fishbone.png","null","",NA,NA,NA,NA,""
"image-keyboard-response",435,382591,"0.0-4.141-0.141","7uou8eg87tbx5u0",176,"4.csv","","161.90000009536743","resources/trios/L4T4A2.jpg","39","restless",0.3,0.6,0.5,0.149869429660261,"true"
"image-keyboard-response",436,383000,"0.0-4.141-1.141","7uou8eg87tbx5u0",176,"4.csv","","null","resources/maskTrios/BBA2.jpg","null","",NA,NA,NA,NA,""
"image-keyboard-response",437,384211,"0.0-4.141-2.141","7uou8eg87tbx5u0",176,"4.csv","","null","resources/images/coin2.png","null","",NA,NA,NA,NA,""
"image-keyboard-response",438,384324,"0.0-4.142-0.142","7uou8eg87tbx5u0",176,"4.csv","","112.2999997138977","resources/trios/L4T4A2.jpg","39","restless",0.3,0.6,0.4,0.187726895817337,"true"
"image-keyboard-response",439,384731,"0.0-4.142-1.142","7uou8eg87tbx5u0",176,"4.csv","","null","resources/maskTrios/BBA2.jpg","null","",NA,NA,NA,NA,""
"image-keyboard-response",440,385941,"0.0-4.142-2.142","7uou8eg87tbx5u0",176,"4.csv","","null","resources/images/coin2.png","null","",NA,NA,NA,NA,""
"image-keyboard-response",441,386109,"0.0-4.143-0.143","7uou8eg87tbx5u0",176,"4.csv","","167","resources/trios/L4T4A2.jpg","39","restless",0.4,0.6,0.4,0.965704116827422,"false"
"image-keyboard-response",442,386515,"0.0-4.143-1.143","7uou8eg87tbx5u0",176,"4.csv","","null","resources/maskTrios/BBA2.jpg","null","",NA,NA,NA,NA,""
"image-keyboard-response",443,387725,"0.0-4.143-2.143","7uou8eg87tbx5u0",176,"4.csv","","null","resources/images/fishbone.png","null","",NA,NA,NA,NA,""
"image-keyboard-response",444,387901,"0.0-4.144-0.144","7uou8eg87tbx5u0",176,"4.csv","","175.09999990463257","resources/trios/L4T4A2.jpg","38","restless",0.4,0.6,0.4,0.315681703696365,"true"
"image-keyboard-response",445,388312,"0.0-4.144-1.144","7uou8eg87tbx5u0",176,"4.csv","","null","resources/maskTrios/BT4B.jpg","null","",NA,NA,NA,NA,""
"image-keyboard-response",446,389525,"0.0-4.144-2.144","7uou8eg87tbx5u0",176,"4.csv","","null","resources/images/coin2.png","null","",NA,NA,NA,NA,""
"image-keyboard-response",447,389627,"0.0-4.145-0.145","7uou8eg87tbx5u0",176,"4.csv","","102.2000002861023","resources/trios/L4T4A2.jpg","38","restless",0.4,0.6,0.4,0.415829328717715,"true"
"image-keyboard-response",448,390030,"0.0-4.145-1.145","7uou8eg87tbx5u0",176,"4.csv","","null","resources/maskTrios/BT4B.jpg","null","",NA,NA,NA,NA,""
"image-keyboard-response",449,391238,"0.0-4.145-2.145","7uou8eg87tbx5u0",176,"4.csv","","null","resources/images/coin2.png","null","",NA,NA,NA,NA,""
"image-keyboard-response",450,391609,"0.0-4.146-0.146","7uou8eg87tbx5u0",176,"4.csv","","370.3999996185303","resources/trios/L4T4A2.jpg","38","restless",0.3,0.6,0.4,0.751688528020827,"false"
"image-keyboard-response",451,392012,"0.0-4.146-1.146","7uou8eg87tbx5u0",176,"4.csv","","null","resources/maskTrios/BT4B.jpg","null","",NA,NA,NA,NA,""
"image-keyboard-response",452,393223,"0.0-4.146-2.146","7uou8eg87tbx5u0",176,"4.csv","","null","resources/images/fishbone.png","null","",NA,NA,NA,NA,""
"image-keyboard-response",453,393480,"0.0-4.147-0.147","7uou8eg87tbx5u0",176,"4.csv","","255.59999990463257","resources/trios/L4T4A2.jpg","37","restless",0.3,0.6,0.4,0.0939510067132547,"true"
"image-keyboard-response",454,393896,"0.0-4.147-1.147","7uou8eg87tbx5u0",176,"4.csv","","null","resources/maskTrios/L4BB.jpg","null","",NA,NA,NA,NA,""
"image-keyboard-response",455,395107,"0.0-4.147-2.147","7uou8eg87tbx5u0",176,"4.csv","","null","resources/images/coin2.png","null","",NA,NA,NA,NA,""
"image-keyboard-response",456,395616,"0.0-4.148-0.148","7uou8eg87tbx5u0",176,"4.csv","","508.19999980926514","resources/trios/L4T4A2.jpg","39","restless",0.3,0.6,0.4,0.656501006520959,"false"
"image-keyboard-response",457,396029,"0.0-4.148-1.148","7uou8eg87tbx5u0",176,"4.csv","","null","resources/maskTrios/BBA2.jpg","null","",NA,NA,NA,NA,""
"image-keyboard-response",458,397241,"0.0-4.148-2.148","7uou8eg87tbx5u0",176,"4.csv","","null","resources/images/fishbone.png","null","",NA,NA,NA,NA,""
"image-keyboard-response",459,397422,"0.0-4.149-0.149","7uou8eg87tbx5u0",176,"4.csv","","179.40000009536743","resources/trios/L4T4A2.jpg","38","restless",0.3,0.6,0.4,0.863852452884784,"false"
"image-keyboard-response",460,397829,"0.0-4.149-1.149","7uou8eg87tbx5u0",176,"4.csv","","null","resources/maskTrios/BT4B.jpg","null","",NA,NA,NA,NA,""
"image-keyboard-response",461,399042,"0.0-4.149-2.149","7uou8eg87tbx5u0",176,"4.csv","","null","resources/images/fishbone.png","null","",NA,NA,NA,NA,""
"image-keyboard-response",462,399261,"0.0-4.150-0.150","7uou8eg87tbx5u0",176,"4.csv","","218","resources/trios/L4T4A2.jpg","37","restless",0.3,0.6,0.4,0.204500121768115,"true"
"image-keyboard-response",463,399676,"0.0-4.150-1.150","7uou8eg87tbx5u0",176,"4.csv","","null","resources/maskTrios/L4BB.jpg","null","",NA,NA,NA,NA,""
"image-keyboard-response",464,400890,"0.0-4.150-2.150","7uou8eg87tbx5u0",176,"4.csv","","null","resources/images/coin2.png","null","",NA,NA,NA,NA,""
"image-keyboard-response",465,400957,"0.0-4.151-0.151","7uou8eg87tbx5u0",176,"4.csv","","66","resources/trios/L4T4A2.jpg","37","restless",0.3,0.6,0.4,0.909578606486891,"false"
"image-keyboard-response",466,401360,"0.0-4.151-1.151","7uou8eg87tbx5u0",176,"4.csv","","null","resources/maskTrios/L4BB.jpg","null","",NA,NA,NA,NA,""
"image-keyboard-response",467,402572,"0.0-4.151-2.151","7uou8eg87tbx5u0",176,"4.csv","","null","resources/images/fishbone.png","null","",NA,NA,NA,NA,""
"image-keyboard-response",468,402644,"0.0-4.152-0.152","7uou8eg87tbx5u0",176,"4.csv","","71.7999997138977","resources/trios/L4T4A2.jpg","38","restless",0.3,0.6,0.4,0.437024690039545,"true"
"image-keyboard-response",469,403062,"0.0-4.152-1.152","7uou8eg87tbx5u0",176,"4.csv","","null","resources/maskTrios/BT4B.jpg","null","",NA,NA,NA,NA,""
"image-keyboard-response",470,404262,"0.0-4.152-2.152","7uou8eg87tbx5u0",176,"4.csv","","null","resources/images/coin2.png","null","",NA,NA,NA,NA,""
"image-keyboard-response",471,404641,"0.0-4.153-0.153","7uou8eg87tbx5u0",176,"4.csv","","377.5","resources/trios/L4T4A2.jpg","38","restless",0.3,0.6,0.4,0.216878070486418,"true"
"image-keyboard-response",472,405046,"0.0-4.153-1.153","7uou8eg87tbx5u0",176,"4.csv","","null","resources/maskTrios/BT4B.jpg","null","",NA,NA,NA,NA,""
"image-keyboard-response",473,406260,"0.0-4.153-2.153","7uou8eg87tbx5u0",176,"4.csv","","null","resources/images/coin2.png","null","",NA,NA,NA,NA,""
"image-keyboard-response",474,406537,"0.0-4.154-0.154","7uou8eg87tbx5u0",176,"4.csv","","275.69999980926514","resources/trios/L4T4A2.jpg","38","restless",0.3,0.6,0.4,0.0368493842817303,"true"
"image-keyboard-response",475,406946,"0.0-4.154-1.154","7uou8eg87tbx5u0",176,"4.csv","","null","resources/maskTrios/BT4B.jpg","null","",NA,NA,NA,NA,""
"image-keyboard-response",476,408162,"0.0-4.154-2.154","7uou8eg87tbx5u0",176,"4.csv","","null","resources/images/coin2.png","null","",NA,NA,NA,NA,""
"image-keyboard-response",477,408253,"0.0-4.155-0.155","7uou8eg87tbx5u0",176,"4.csv","","89.7999997138977","resources/trios/L4T4A2.jpg","38","restless",0.3,0.7,0.4,0.209701498862593,"true"
"image-keyboard-response",478,408661,"0.0-4.155-1.155","7uou8eg87tbx5u0",176,"4.csv","","null","resources/maskTrios/BT4B.jpg","null","",NA,NA,NA,NA,""
"image-keyboard-response",479,409878,"0.0-4.155-2.155","7uou8eg87tbx5u0",176,"4.csv","","null","resources/images/coin2.png","null","",NA,NA,NA,NA,""
"image-keyboard-response",480,410123,"0.0-4.156-0.156","7uou8eg87tbx5u0",176,"4.csv","","244","resources/trios/L4T4A2.jpg","38","restless",0.3,0.6,0.4,0.433443783645268,"true"
"image-keyboard-response",481,410527,"0.0-4.156-1.156","7uou8eg87tbx5u0",176,"4.csv","","null","resources/maskTrios/BT4B.jpg","null","",NA,NA,NA,NA,""
"image-keyboard-response",482,411744,"0.0-4.156-2.156","7uou8eg87tbx5u0",176,"4.csv","","null","resources/images/coin2.png","null","",NA,NA,NA,NA,""
"image-keyboard-response",483,412125,"0.0-4.157-0.157","7uou8eg87tbx5u0",176,"4.csv","","379.30000019073486","resources/trios/L4T4A2.jpg","38","restless",0.3,0.6,0.4,0.284498238831089,"true"
"image-keyboard-response",484,412528,"0.0-4.157-1.157","7uou8eg87tbx5u0",176,"4.csv","","null","resources/maskTrios/BT4B.jpg","null","",NA,NA,NA,NA,""
"image-keyboard-response",485,413743,"0.0-4.157-2.157","7uou8eg87tbx5u0",176,"4.csv","","null","resources/images/coin2.png","null","",NA,NA,NA,NA,""
"image-keyboard-response",486,413794,"0.0-4.158-0.158","7uou8eg87tbx5u0",176,"4.csv","","50.30000019073486","resources/trios/L4T4A2.jpg","38","restless",0.3,0.6,0.4,0.438348530708427,"true"
"image-keyboard-response",487,414211,"0.0-4.158-1.158","7uou8eg87tbx5u0",176,"4.csv","","null","resources/maskTrios/BT4B.jpg","null","",NA,NA,NA,NA,""
"image-keyboard-response",488,415428,"0.0-4.158-2.158","7uou8eg87tbx5u0",176,"4.csv","","null","resources/images/coin2.png","null","",NA,NA,NA,NA,""
"image-keyboard-response",489,415612,"0.0-4.159-0.159","7uou8eg87tbx5u0",176,"4.csv","","183","resources/trios/L4T4A2.jpg","38","restless",0.4,0.6,0.4,0.0729118434461136,"true"
"image-keyboard-response",490,416029,"0.0-4.159-1.159","7uou8eg87tbx5u0",176,"4.csv","","null","resources/maskTrios/BT4B.jpg","null","",NA,NA,NA,NA,""
"image-keyboard-response",491,417241,"0.0-4.159-2.159","7uou8eg87tbx5u0",176,"4.csv","","null","resources/images/coin2.png","null","",NA,NA,NA,NA,""
"image-keyboard-response",492,417380,"0.0-4.160-0.160","7uou8eg87tbx5u0",176,"4.csv","","138.30000019073486","resources/trios/L4T4A2.jpg","38","restless",0.4,0.6,0.4,0.642295760179981,"false"
"image-keyboard-response",493,417794,"0.0-4.160-1.160","7uou8eg87tbx5u0",176,"4.csv","","null","resources/maskTrios/BT4B.jpg","null","",NA,NA,NA,NA,""
"image-keyboard-response",494,419005,"0.0-4.160-2.160","7uou8eg87tbx5u0",176,"4.csv","","null","resources/images/fishbone.png","null","",NA,NA,NA,NA,""
"image-keyboard-response",495,419205,"0.0-4.161-0.161","7uou8eg87tbx5u0",176,"4.csv","","199.7999997138977","resources/trios/L4T4A2.jpg","39","restless",0.4,0.6,0.4,0.82338258566363,"false"
"image-keyboard-response",496,419612,"0.0-4.161-1.161","7uou8eg87tbx5u0",176,"4.csv","","null","resources/maskTrios/BBA2.jpg","null","",NA,NA,NA,NA,""
"image-keyboard-response",497,420826,"0.0-4.161-2.161","7uou8eg87tbx5u0",176,"4.csv","","null","resources/images/fishbone.png","null","",NA,NA,NA,NA,""
"image-keyboard-response",498,421120,"0.0-4.162-0.162","7uou8eg87tbx5u0",176,"4.csv","","294","resources/trios/L4T4A2.jpg","37","restless",0.4,0.6,0.4,0.773970904077502,"false"
"image-keyboard-response",499,421526,"0.0-4.162-1.162","7uou8eg87tbx5u0",176,"4.csv","","null","resources/maskTrios/L4BB.jpg","null","",NA,NA,NA,NA,""
"image-keyboard-response",500,422729,"0.0-4.162-2.162","7uou8eg87tbx5u0",176,"4.csv","","null","resources/images/fishbone.png","null","",NA,NA,NA,NA,""
"image-keyboard-response",501,422866,"0.0-4.163-0.163","7uou8eg87tbx5u0",176,"4.csv","","136.2000002861023","resources/trios/L4T4A2.jpg","38","restless",0.4,0.6,0.4,0.247509455178674,"true"
"image-keyboard-response",502,423278,"0.0-4.163-1.163","7uou8eg87tbx5u0",176,"4.csv","","null","resources/maskTrios/BT4B.jpg","null","",NA,NA,NA,NA,""
"image-keyboard-response",503,424488,"0.0-4.163-2.163","7uou8eg87tbx5u0",176,"4.csv","","null","resources/images/coin2.png","null","",NA,NA,NA,NA,""
"image-keyboard-response",504,424608,"0.0-4.164-0.164","7uou8eg87tbx5u0",176,"4.csv","","118.40000009536743","resources/trios/L4T4A2.jpg","38","restless",0.4,0.6,0.4,0.666631855062237,"false"
"image-keyboard-response",505,425026,"0.0-4.164-1.164","7uou8eg87tbx5u0",176,"4.csv","","null","resources/maskTrios/BT4B.jpg","null","",NA,NA,NA,NA,""
"image-keyboard-response",506,426227,"0.0-4.164-2.164","7uou8eg87tbx5u0",176,"4.csv","","null","resources/images/fishbone.png","null","",NA,NA,NA,NA,""
"image-keyboard-response",507,426337,"0.0-4.165-0.165","7uou8eg87tbx5u0",176,"4.csv","","109.5","resources/trios/L4T4A2.jpg","39","restless",0.4,0.6,0.4,0.0463897482927538,"true"
"image-keyboard-response",508,426742,"0.0-4.165-1.165","7uou8eg87tbx5u0",176,"4.csv","","null","resources/maskTrios/BBA2.jpg","null","",NA,NA,NA,NA,""
"image-keyboard-response",509,427947,"0.0-4.165-2.165","7uou8eg87tbx5u0",176,"4.csv","","null","resources/images/coin2.png","null","",NA,NA,NA,NA,""
"image-keyboard-response",510,428137,"0.0-4.166-0.166","7uou8eg87tbx5u0",176,"4.csv","","188.7999997138977","resources/trios/L4T4A2.jpg","39","restless",0.3,0.6,0.4,0.710864859197559,"false"
"image-keyboard-response",511,428542,"0.0-4.166-1.166","7uou8eg87tbx5u0",176,"4.csv","","null","resources/maskTrios/BBA2.jpg","null","",NA,NA,NA,NA,""
"image-keyboard-response",512,429756,"0.0-4.166-2.166","7uou8eg87tbx5u0",176,"4.csv","","null","resources/images/fishbone.png","null","",NA,NA,NA,NA,""
"image-keyboard-response",513,429912,"0.0-4.167-0.167","7uou8eg87tbx5u0",176,"4.csv","","154.5","resources/trios/L4T4A2.jpg","37","restless",0.3,0.6,0.4,0.618528070173461,"false"
"image-keyboard-response",514,430324,"0.0-4.167-1.167","7uou8eg87tbx5u0",176,"4.csv","","null","resources/maskTrios/L4BB.jpg","null","",NA,NA,NA,NA,""
"image-keyboard-response",515,431540,"0.0-4.167-2.167","7uou8eg87tbx5u0",176,"4.csv","","null","resources/images/fishbone.png","null","",NA,NA,NA,NA,""
"image-keyboard-response",516,431679,"0.0-4.168-0.168","7uou8eg87tbx5u0",176,"4.csv","","138.2999997138977","resources/trios/L4T4A2.jpg","38","restless",0.3,0.6,0.4,0.613218117006074,"false"
"image-keyboard-response",517,432094,"0.0-4.168-1.168","7uou8eg87tbx5u0",176,"4.csv","","null","resources/maskTrios/BT4B.jpg","null","",NA,NA,NA,NA,""
"image-keyboard-response",518,433309,"0.0-4.168-2.168","7uou8eg87tbx5u0",176,"4.csv","","null","resources/images/fishbone.png","null","",NA,NA,NA,NA,""
"image-keyboard-response",519,433314,"0.0-4.169-0.169","7uou8eg87tbx5u0",176,"4.csv","","3.9000000953674316","resources/trios/L4T4A2.jpg","39","restless",0.3,0.6,0.4,0.21817201643203,"true"
"image-keyboard-response",520,433727,"0.0-4.169-1.169","7uou8eg87tbx5u0",176,"4.csv","","null","resources/maskTrios/BBA2.jpg","null","",NA,NA,NA,NA,""
"image-keyboard-response",521,434936,"0.0-4.169-2.169","7uou8eg87tbx5u0",176,"4.csv","","null","resources/images/coin2.png","null","",NA,NA,NA,NA,""
"image-keyboard-response",522,434955,"0.0-4.170-0.170","7uou8eg87tbx5u0",176,"4.csv","","18.299999713897705","resources/trios/L4T4A2.jpg","39","restless",0.3,0.6,0.4,0.733944789955235,"false"
"image-keyboard-response",523,435360,"0.0-4.170-1.170","7uou8eg87tbx5u0",176,"4.csv","","null","resources/maskTrios/BBA2.jpg","null","",NA,NA,NA,NA,""
"image-keyboard-response",524,436573,"0.0-4.170-2.170","7uou8eg87tbx5u0",176,"4.csv","","null","resources/images/fishbone.png","null","",NA,NA,NA,NA,""
"image-keyboard-response",525,436623,"0.0-4.171-0.171","7uou8eg87tbx5u0",176,"4.csv","","48.700000286102295","resources/trios/L4T4A2.jpg","38","restless",0.3,0.6,0.4,0.0365262290512638,"true"
"image-keyboard-response",526,437028,"0.0-4.171-1.171","7uou8eg87tbx5u0",176,"4.csv","","null","resources/maskTrios/BT4B.jpg","null","",NA,NA,NA,NA,""
"image-keyboard-response",527,438239,"0.0-4.171-2.171","7uou8eg87tbx5u0",176,"4.csv","","null","resources/images/coin2.png","null","",NA,NA,NA,NA,""
"image-keyboard-response",528,438241,"0.0-4.172-0.172","7uou8eg87tbx5u0",176,"4.csv","","1.1999998092651367","resources/trios/L4T4A2.jpg","38","restless",0.3,0.6,0.4,0.820076021185889,"false"
"image-keyboard-response",529,438658,"0.0-4.172-1.172","7uou8eg87tbx5u0",176,"4.csv","","null","resources/maskTrios/BT4B.jpg","null","",NA,NA,NA,NA,""
"image-keyboard-response",530,439870,"0.0-4.172-2.172","7uou8eg87tbx5u0",176,"4.csv","","null","resources/images/fishbone.png","null","",NA,NA,NA,NA,""
"image-keyboard-response",531,440080,"0.0-4.173-0.173","7uou8eg87tbx5u0",176,"4.csv","","209.40000009536743","resources/trios/L4T4A2.jpg","39","restless",0.3,0.6,0.4,0.335302657042273,"true"
"image-keyboard-response",532,440490,"0.0-4.173-1.173","7uou8eg87tbx5u0",176,"4.csv","","null","resources/maskTrios/BBA2.jpg","null","",NA,NA,NA,NA,""
"image-keyboard-response",533,441697,"0.0-4.173-2.173","7uou8eg87tbx5u0",176,"4.csv","","null","resources/images/coin2.png","null","",NA,NA,NA,NA,""
"image-keyboard-response",534,441944,"0.0-4.174-0.174","7uou8eg87tbx5u0",176,"4.csv","","245.90000009536743","resources/trios/L4T4A2.jpg","39","restless",0.3,0.6,0.4,0.674538136881689,"false"
"image-keyboard-response",535,442358,"0.0-4.174-1.174","7uou8eg87tbx5u0",176,"4.csv","","null","resources/maskTrios/BBA2.jpg","null","",NA,NA,NA,NA,""
"image-keyboard-response",536,443574,"0.0-4.174-2.174","7uou8eg87tbx5u0",176,"4.csv","","null","resources/images/fishbone.png","null","",NA,NA,NA,NA,""
"image-keyboard-response",537,443961,"0.0-4.175-0.175","7uou8eg87tbx5u0",176,"4.csv","","385.40000009536743","resources/trios/L4T4A2.jpg","39","restless",0.3,0.6,0.4,0.685283577384775,"false"
"image-keyboard-response",538,444374,"0.0-4.175-1.175","7uou8eg87tbx5u0",176,"4.csv","","null","resources/maskTrios/BBA2.jpg","null","",NA,NA,NA,NA,""
"image-keyboard-response",539,445584,"0.0-4.175-2.175","7uou8eg87tbx5u0",176,"4.csv","","null","resources/images/fishbone.png","null","",NA,NA,NA,NA,""
"image-keyboard-response",540,445649,"0.0-4.176-0.176","7uou8eg87tbx5u0",176,"4.csv","","64.19999980926514","resources/trios/L4T4A2.jpg","37","restless",0.4,0.6,0.5,0.781611990375179,"false"
"image-keyboard-response",541,446055,"0.0-4.176-1.176","7uou8eg87tbx5u0",176,"4.csv","","null","resources/maskTrios/L4BB.jpg","null","",NA,NA,NA,NA,""
"image-keyboard-response",542,447272,"0.0-4.176-2.176","7uou8eg87tbx5u0",176,"4.csv","","null","resources/images/fishbone.png","null","",NA,NA,NA,NA,""
"image-keyboard-response",543,447320,"0.0-4.177-0.177","7uou8eg87tbx5u0",176,"4.csv","","46.90000009536743","resources/trios/L4T4A2.jpg","38","restless",0.4,0.6,0.5,0.895750358817407,"false"
"image-keyboard-response",544,447724,"0.0-4.177-1.177","7uou8eg87tbx5u0",176,"4.csv","","null","resources/maskTrios/BT4B.jpg","null","",NA,NA,NA,NA,""
"image-keyboard-response",545,448938,"0.0-4.177-2.177","7uou8eg87tbx5u0",176,"4.csv","","null","resources/images/fishbone.png","null","",NA,NA,NA,NA,""
"image-keyboard-response",546,449195,"0.0-4.178-0.178","7uou8eg87tbx5u0",176,"4.csv","","256.5","resources/trios/L4T4A2.jpg","39","restless",0.4,0.6,0.5,0.104540959130312,"true"
"image-keyboard-response",547,449605,"0.0-4.178-1.178","7uou8eg87tbx5u0",176,"4.csv","","null","resources/maskTrios/BBA2.jpg","null","",NA,NA,NA,NA,""
"image-keyboard-response",548,450807,"0.0-4.178-2.178","7uou8eg87tbx5u0",176,"4.csv","","null","resources/images/coin2.png","null","",NA,NA,NA,NA,""
"image-keyboard-response",549,451070,"0.0-4.179-0.179","7uou8eg87tbx5u0",176,"4.csv","","261.7000002861023","resources/trios/L4T4A2.jpg","39","restless",0.4,0.5,0.5,0.652985699405625,"false"
"image-keyboard-response",550,451474,"0.0-4.179-1.179","7uou8eg87tbx5u0",176,"4.csv","","null","resources/maskTrios/BBA2.jpg","null","",NA,NA,NA,NA,""
"image-keyboard-response",551,452690,"0.0-4.179-2.179","7uou8eg87tbx5u0",176,"4.csv","","null","resources/images/fishbone.png","null","",NA,NA,NA,NA,""
"image-keyboard-response",552,452773,"0.0-4.180-0.180","7uou8eg87tbx5u0",176,"4.csv","","82.30000019073486","resources/trios/L4T4A2.jpg","38","restless",0.4,0.5,0.5,0.0207317885912492,"true"
"image-keyboard-response",553,453190,"0.0-4.180-1.180","7uou8eg87tbx5u0",176,"4.csv","","null","resources/maskTrios/BT4B.jpg","null","",NA,NA,NA,NA,""
"image-keyboard-response",554,454404,"0.0-4.180-2.180","7uou8eg87tbx5u0",176,"4.csv","","null","resources/images/coin2.png","null","",NA,NA,NA,NA,""
"image-keyboard-response",555,455020,"0.0-4.181-0.181","7uou8eg87tbx5u0",176,"4.csv","","615.4000000953674","resources/trios/L4T4A2.jpg","38","restless",0.4,0.5,0.5,0.948198175556649,"false"
"image-keyboard-response",556,455424,"0.0-4.181-1.181","7uou8eg87tbx5u0",176,"4.csv","","null","resources/maskTrios/BT4B.jpg","null","",NA,NA,NA,NA,""
"image-keyboard-response",557,456637,"0.0-4.181-2.181","7uou8eg87tbx5u0",176,"4.csv","","null","resources/images/fishbone.png","null","",NA,NA,NA,NA,""
"image-keyboard-response",558,456919,"0.0-4.182-0.182","7uou8eg87tbx5u0",176,"4.csv","","281.1000003814697","resources/trios/L4T4A2.jpg","37","restless",0.4,0.6,0.5,0.61859370256722,"false"
"image-keyboard-response",559,457322,"0.0-4.182-1.182","7uou8eg87tbx5u0",176,"4.csv","","null","resources/maskTrios/L4BB.jpg","null","",NA,NA,NA,NA,""
"image-keyboard-response",560,458536,"0.0-4.182-2.182","7uou8eg87tbx5u0",176,"4.csv","","null","resources/images/fishbone.png","null","",NA,NA,NA,NA,""
"image-keyboard-response",561,459141,"0.0-4.183-0.183","7uou8eg87tbx5u0",176,"4.csv","","604.2999997138977","resources/trios/L4T4A2.jpg","39","restless",0.4,0.6,0.5,0.53683862129082,"false"
"image-keyboard-response",562,459555,"0.0-4.183-1.183","7uou8eg87tbx5u0",176,"4.csv","","null","resources/maskTrios/BBA2.jpg","null","",NA,NA,NA,NA,""
"image-keyboard-response",563,460770,"0.0-4.183-2.183","7uou8eg87tbx5u0",176,"4.csv","","null","resources/images/fishbone.png","null","",NA,NA,NA,NA,""
"image-keyboard-response",564,466047,"0.0-4.184-0.184","7uou8eg87tbx5u0",176,"4.csv","","5276.400000095367","resources/trios/L4T4A2.jpg","38","restless",0.4,0.6,0.5,0.711370234692858,"false"
"image-keyboard-response",565,466454,"0.0-4.184-1.184","7uou8eg87tbx5u0",176,"4.csv","","null","resources/maskTrios/BT4B.jpg","null","",NA,NA,NA,NA,""
"image-keyboard-response",566,467655,"0.0-4.184-2.184","7uou8eg87tbx5u0",176,"4.csv","","null","resources/images/fishbone.png","null","",NA,NA,NA,NA,""
"image-keyboard-response",567,467853,"0.0-4.185-0.185","7uou8eg87tbx5u0",176,"4.csv","","197.2999997138977","resources/trios/L4T4A2.jpg","39","restless",0.4,0.6,0.5,0.694726898473341,"false"
"image-keyboard-response",568,468256,"0.0-4.185-1.185","7uou8eg87tbx5u0",176,"4.csv","","null","resources/maskTrios/BBA2.jpg","null","",NA,NA,NA,NA,""
"image-keyboard-response",569,469466,"0.0-4.185-2.185","7uou8eg87tbx5u0",176,"4.csv","","null","resources/images/fishbone.png","null","",NA,NA,NA,NA,""
"image-keyboard-response",570,469475,"0.0-4.186-0.186","7uou8eg87tbx5u0",176,"4.csv","","8.699999809265137","resources/trios/L4T4A2.jpg","37","restless",0.4,0.7,0.4,0.996255098445466,"false"
"image-keyboard-response",571,469888,"0.0-4.186-1.186","7uou8eg87tbx5u0",176,"4.csv","","null","resources/maskTrios/L4BB.jpg","null","",NA,NA,NA,NA,""
"image-keyboard-response",572,471099,"0.0-4.186-2.186","7uou8eg87tbx5u0",176,"4.csv","","null","resources/images/fishbone.png","null","",NA,NA,NA,NA,""
"image-keyboard-response",573,471158,"0.0-4.187-0.187","7uou8eg87tbx5u0",176,"4.csv","","57.700000286102295","resources/trios/L4T4A2.jpg","38","restless",0.5,0.7,0.4,0.821855901264074,"false"
"image-keyboard-response",574,471570,"0.0-4.187-1.187","7uou8eg87tbx5u0",176,"4.csv","","null","resources/maskTrios/BT4B.jpg","null","",NA,NA,NA,NA,""
"image-keyboard-response",575,472771,"0.0-4.187-2.187","7uou8eg87tbx5u0",176,"4.csv","","null","resources/images/fishbone.png","null","",NA,NA,NA,NA,""
"image-keyboard-response",576,472987,"0.0-4.188-0.188","7uou8eg87tbx5u0",176,"4.csv","","215","resources/trios/L4T4A2.jpg","39","restless",0.5,0.7,0.4,0.775639748090564,"false"
"image-keyboard-response",577,473400,"0.0-4.188-1.188","7uou8eg87tbx5u0",176,"4.csv","","null","resources/maskTrios/BBA2.jpg","null","",NA,NA,NA,NA,""
"image-keyboard-response",578,474604,"0.0-4.188-2.188","7uou8eg87tbx5u0",176,"4.csv","","null","resources/images/fishbone.png","null","",NA,NA,NA,NA,""
"image-keyboard-response",579,474668,"0.0-4.189-0.189","7uou8eg87tbx5u0",176,"4.csv","","62.69999980926514","resources/trios/L4T4A2.jpg","38","restless",0.5,0.7,0.4,0.617129916106933,"true"
"image-keyboard-response",580,475072,"0.0-4.189-1.189","7uou8eg87tbx5u0",176,"4.csv","","null","resources/maskTrios/BT4B.jpg","null","",NA,NA,NA,NA,""
"image-keyboard-response",581,476277,"0.0-4.189-2.189","7uou8eg87tbx5u0",176,"4.csv","","null","resources/images/coin2.png","null","",NA,NA,NA,NA,""
"image-keyboard-response",582,476843,"0.0-4.190-0.190","7uou8eg87tbx5u0",176,"4.csv","","564.8999996185303","resources/trios/L4T4A2.jpg","38","restless",0.5,0.8,0.4,0.271604586804917,"true"
"image-keyboard-response",583,477254,"0.0-4.190-1.190","7uou8eg87tbx5u0",176,"4.csv","","null","resources/maskTrios/BT4B.jpg","null","",NA,NA,NA,NA,""
"image-keyboard-response",584,478468,"0.0-4.190-2.190","7uou8eg87tbx5u0",176,"4.csv","","null","resources/images/coin2.png","null","",NA,NA,NA,NA,""
"image-keyboard-response",585,478513,"0.0-4.191-0.191","7uou8eg87tbx5u0",176,"4.csv","","44.700000286102295","resources/trios/L4T4A2.jpg","39","restless",0.5,0.8,0.4,0.830649683213051,"false"
"image-keyboard-response",586,478920,"0.0-4.191-1.191","7uou8eg87tbx5u0",176,"4.csv","","null","resources/maskTrios/BBA2.jpg","null","",NA,NA,NA,NA,""
"image-keyboard-response",587,480129,"0.0-4.191-2.191","7uou8eg87tbx5u0",176,"4.csv","","null","resources/images/fishbone.png","null","",NA,NA,NA,NA,""
"image-keyboard-response",588,480236,"0.0-4.192-0.192","7uou8eg87tbx5u0",176,"4.csv","","105.30000019073486","resources/trios/L4T4A2.jpg","38","restless",0.5,0.8,0.4,0.542586302538562,"true"
"image-keyboard-response",589,480638,"0.0-4.192-1.192","7uou8eg87tbx5u0",176,"4.csv","","null","resources/maskTrios/BT4B.jpg","null","",NA,NA,NA,NA,""
"image-keyboard-response",590,481851,"0.0-4.192-2.192","7uou8eg87tbx5u0",176,"4.csv","","null","resources/images/coin2.png","null","",NA,NA,NA,NA,""
"image-keyboard-response",591,482012,"0.0-4.193-0.193","7uou8eg87tbx5u0",176,"4.csv","","159.80000019073486","resources/trios/L4T4A2.jpg","38","restless",0.5,0.8,0.4,0.644792817144228,"true"
"image-keyboard-response",592,482418,"0.0-4.193-1.193","7uou8eg87tbx5u0",176,"4.csv","","null","resources/maskTrios/BT4B.jpg","null","",NA,NA,NA,NA,""
"image-keyboard-response",593,483632,"0.0-4.193-2.193","7uou8eg87tbx5u0",176,"4.csv","","null","resources/images/coin2.png","null","",NA,NA,NA,NA,""
"image-keyboard-response",594,483650,"0.0-4.194-0.194","7uou8eg87tbx5u0",176,"4.csv","","17.59999990463257","resources/trios/L4T4A2.jpg","38","restless",0.5,0.8,0.4,0.184362389405974,"true"
"image-keyboard-response",595,484054,"0.0-4.194-1.194","7uou8eg87tbx5u0",176,"4.csv","","null","resources/maskTrios/BT4B.jpg","null","",NA,NA,NA,NA,""
"image-keyboard-response",596,485267,"0.0-4.194-2.194","7uou8eg87tbx5u0",176,"4.csv","","null","resources/images/coin2.png","null","",NA,NA,NA,NA,""
"image-keyboard-response",597,485320,"0.0-4.195-0.195","7uou8eg87tbx5u0",176,"4.csv","","52","resources/trios/L4T4A2.jpg","38","restless",0.5,0.8,0.4,0.799613370396885,"true"
"image-keyboard-response",598,485736,"0.0-4.195-1.195","7uou8eg87tbx5u0",176,"4.csv","","null","resources/maskTrios/BT4B.jpg","null","",NA,NA,NA,NA,""
"image-keyboard-response",599,486949,"0.0-4.195-2.195","7uou8eg87tbx5u0",176,"4.csv","","null","resources/images/coin2.png","null","",NA,NA,NA,NA,""
"image-keyboard-response",600,486991,"0.0-4.196-0.196","7uou8eg87tbx5u0",176,"4.csv","","40.799999713897705","resources/trios/L4T4A2.jpg","38","restless",0.6,0.8,0.4,0.179995644754211,"true"
"image-keyboard-response",601,487402,"0.0-4.196-1.196","7uou8eg87tbx5u0",176,"4.csv","","null","resources/maskTrios/BT4B.jpg","null","",NA,NA,NA,NA,""
"image-keyboard-response",602,488616,"0.0-4.196-2.196","7uou8eg87tbx5u0",176,"4.csv","","null","resources/images/coin2.png","null","",NA,NA,NA,NA,""
"image-keyboard-response",603,488695,"0.0-4.197-0.197","7uou8eg87tbx5u0",176,"4.csv","","78.5","resources/trios/L4T4A2.jpg","38","restless",0.6,0.7,0.4,0.74738793307534,"false"
"image-keyboard-response",604,489097,"0.0-4.197-1.197","7uou8eg87tbx5u0",176,"4.csv","","null","resources/maskTrios/BT4B.jpg","null","",NA,NA,NA,NA,""
"image-keyboard-response",605,490299,"0.0-4.197-2.197","7uou8eg87tbx5u0",176,"4.csv","","null","resources/images/fishbone.png","null","",NA,NA,NA,NA,""
"image-keyboard-response",606,490304,"0.0-4.198-0.198","7uou8eg87tbx5u0",176,"4.csv","","4.400000095367432","resources/trios/L4T4A2.jpg","39","restless",0.7,0.7,0.4,0.174818077615204,"true"
"image-keyboard-response",607,490720,"0.0-4.198-1.198","7uou8eg87tbx5u0",176,"4.csv","","null","resources/maskTrios/BBA2.jpg","null","",NA,NA,NA,NA,""
"image-keyboard-response",608,491931,"0.0-4.198-2.198","7uou8eg87tbx5u0",176,"4.csv","","null","resources/images/coin2.png","null","",NA,NA,NA,NA,""
"image-keyboard-response",609,491995,"0.0-4.199-0.199","7uou8eg87tbx5u0",176,"4.csv","","63.40000009536743","resources/trios/L4T4A2.jpg","39","restless",0.7,0.7,0.5,0.745774134872156,"false"
"image-keyboard-response",610,492399,"0.0-4.199-1.199","7uou8eg87tbx5u0",176,"4.csv","","null","resources/maskTrios/BBA2.jpg","null","",NA,NA,NA,NA,""
"image-keyboard-response",611,493613,"0.0-4.199-2.199","7uou8eg87tbx5u0",176,"4.csv","","null","resources/images/fishbone.png","null","",NA,NA,NA,NA,""
"survey-text",612,609829,"0.0-5.0","7uou8eg87tbx5u0",176,"4.csv","","116212.09999990463","","","",NA,NA,NA,NA,""
