"trial_type","trial_index","time_elapsed","internal_node_id","subject","participantCode","walkNumber","success","rt","stimulus","key_press","test_part","leftProb","midProb","rightProb","generatedNum","correct"
"pavlovia",0,909,"0.0-0.0","ngvou7v5zlj8hy1",856,"183.csv","","","","","",NA,NA,NA,NA,""
"fullscreen",1,5697,"0.0-1.0","ngvou7v5zlj8hy1",856,"183.csv","true","","","","",NA,NA,NA,NA,""
"survey-html-form",2,21563,"0.0-2.0","ngvou7v5zlj8hy1",856,"183.csv","","15864.600000023842","","","",NA,NA,NA,NA,""
"image-keyboard-response",3,30779,"0.0-3.0-0.0","ngvou7v5zlj8hy1",856,"183.csv","","9214.200000047684","resources/images/parrot_nobg.png","13","",NA,NA,NA,NA,""
"image-keyboard-response",4,33780,"0.0-3.0-1.0","ngvou7v5zlj8hy1",856,"183.csv","","null","resources/image_sets/111.png","null","",NA,NA,NA,NA,""
"image-keyboard-response",5,36518,"0.0-3.0-2.0","ngvou7v5zlj8hy1",856,"183.csv","","2736.7999999523163","resources/image_sets/left_highlight.png","37","",NA,NA,NA,NA,""
"image-keyboard-response",6,37685,"0.0-3.0-3.0","ngvou7v5zlj8hy1",856,"183.csv","","1167.1000000238419","resources/image_sets/mid_highlight.png","38","",NA,NA,NA,NA,""
"image-keyboard-response",7,38199,"0.0-3.0-4.0","ngvou7v5zlj8hy1",856,"183.csv","","512.2999999523163","resources/image_sets/right_highlight.png","39","",NA,NA,NA,NA,""
"image-keyboard-response",8,41489,"0.0-3.0-5.0","ngvou7v5zlj8hy1",856,"183.csv","","3289.1999999284744","resources/image_sets/111.png","13","",NA,NA,NA,NA,""
"image-keyboard-response",9,43196,"0.0-3.0-6.0","ngvou7v5zlj8hy1",856,"183.csv","","1706.5","resources/images/coin2.png","13","",NA,NA,NA,NA,""
"image-keyboard-response",10,44041,"0.0-3.0-7.0","ngvou7v5zlj8hy1",856,"183.csv","","844.7000000476837","resources/images/fishbone.png","13","",NA,NA,NA,NA,""
"html-keyboard-response",11,46649,"0.0-3.0-8.0","ngvou7v5zlj8hy1",856,"183.csv","","2606.8000000715256","<p>You can track your coin total on the top right of your screen. </p><p>At the end of your journey you will be directed to a survey, so please click on the link before exiting the task</p><p>Press Enter to begin</p>","13","",NA,NA,NA,NA,""
"image-keyboard-response",12,49107,"0.0-4.0-0.0","ngvou7v5zlj8hy1",856,"183.csv","","2458","resources/trios/L4T2A2.jpg","38","restless",0.7,0.3,0.9,0.998584874767156,"false"
"image-keyboard-response",13,49511,"0.0-4.0-1.0","ngvou7v5zlj8hy1",856,"183.csv","","null","resources/maskTrios/BT2B.jpg","null","",NA,NA,NA,NA,""
"image-keyboard-response",14,50725,"0.0-4.0-2.0","ngvou7v5zlj8hy1",856,"183.csv","","null","resources/images/fishbone.png","null","",NA,NA,NA,NA,""
"image-keyboard-response",15,51231,"0.0-4.1-0.1","ngvou7v5zlj8hy1",856,"183.csv","","504.10000002384186","resources/trios/L4T2A2.jpg","37","restless",0.8,0.3,0.9,0.12935687204472,"true"
"image-keyboard-response",16,51635,"0.0-4.1-1.1","ngvou7v5zlj8hy1",856,"183.csv","","null","resources/maskTrios/L4BB.jpg","null","",NA,NA,NA,NA,""
"image-keyboard-response",17,52848,"0.0-4.1-2.1","ngvou7v5zlj8hy1",856,"183.csv","","null","resources/images/coin2.png","null","",NA,NA,NA,NA,""
"image-keyboard-response",18,53227,"0.0-4.2-0.2","ngvou7v5zlj8hy1",856,"183.csv","","378.09999990463257","resources/trios/L4T2A2.jpg","37","restless",0.8,0.3,0.9,0.033909790570019,"true"
"image-keyboard-response",19,53631,"0.0-4.2-1.2","ngvou7v5zlj8hy1",856,"183.csv","","null","resources/maskTrios/L4BB.jpg","null","",NA,NA,NA,NA,""
"image-keyboard-response",20,54834,"0.0-4.2-2.2","ngvou7v5zlj8hy1",856,"183.csv","","null","resources/images/coin2.png","null","",NA,NA,NA,NA,""
"image-keyboard-response",21,55114,"0.0-4.3-0.3","ngvou7v5zlj8hy1",856,"183.csv","","278.60000002384186","resources/trios/L4T2A2.jpg","37","restless",0.9,0.3,0.9,0.959972773409701,"false"
"image-keyboard-response",22,55532,"0.0-4.3-1.3","ngvou7v5zlj8hy1",856,"183.csv","","null","resources/maskTrios/L4BB.jpg","null","",NA,NA,NA,NA,""
"image-keyboard-response",23,56741,"0.0-4.3-2.3","ngvou7v5zlj8hy1",856,"183.csv","","null","resources/images/fishbone.png","null","",NA,NA,NA,NA,""
"image-keyboard-response",24,57194,"0.0-4.4-0.4","ngvou7v5zlj8hy1",856,"183.csv","","451.10000002384186","resources/trios/L4T2A2.jpg","37","restless",0.8,0.3,0.9,0.73838921768161,"true"
"image-keyboard-response",25,57600,"0.0-4.4-1.4","ngvou7v5zlj8hy1",856,"183.csv","","null","resources/maskTrios/L4BB.jpg","null","",NA,NA,NA,NA,""
"image-keyboard-response",26,58808,"0.0-4.4-2.4","ngvou7v5zlj8hy1",856,"183.csv","","null","resources/images/coin2.png","null","",NA,NA,NA,NA,""
"image-keyboard-response",27,58865,"0.0-4.5-0.5","ngvou7v5zlj8hy1",856,"183.csv","","56.199999928474426","resources/trios/L4T2A2.jpg","37","restless",0.8,0.3,0.9,0.01963182437084,"true"
"image-keyboard-response",28,59274,"0.0-4.5-1.5","ngvou7v5zlj8hy1",856,"183.csv","","null","resources/maskTrios/L4BB.jpg","null","",NA,NA,NA,NA,""
"image-keyboard-response",29,60489,"0.0-4.5-2.5","ngvou7v5zlj8hy1",856,"183.csv","","null","resources/images/coin2.png","null","",NA,NA,NA,NA,""
"image-keyboard-response",30,60816,"0.0-4.6-0.6","ngvou7v5zlj8hy1",856,"183.csv","","325.5","resources/trios/L4T2A2.jpg","37","restless",0.8,0.3,0.9,0.136550420659601,"true"
"image-keyboard-response",31,61224,"0.0-4.6-1.6","ngvou7v5zlj8hy1",856,"183.csv","","null","resources/maskTrios/L4BB.jpg","null","",NA,NA,NA,NA,""
"image-keyboard-response",32,62429,"0.0-4.6-2.6","ngvou7v5zlj8hy1",856,"183.csv","","null","resources/images/coin2.png","null","",NA,NA,NA,NA,""
"image-keyboard-response",33,62598,"0.0-4.7-0.7","ngvou7v5zlj8hy1",856,"183.csv","","167.89999997615814","resources/trios/L4T2A2.jpg","37","restless",0.8,0.3,0.8,0.529635338593154,"true"
"image-keyboard-response",34,63006,"0.0-4.7-1.7","ngvou7v5zlj8hy1",856,"183.csv","","null","resources/maskTrios/L4BB.jpg","null","",NA,NA,NA,NA,""
"image-keyboard-response",35,64221,"0.0-4.7-2.7","ngvou7v5zlj8hy1",856,"183.csv","","null","resources/images/coin2.png","null","",NA,NA,NA,NA,""
"image-keyboard-response",36,64433,"0.0-4.8-0.8","ngvou7v5zlj8hy1",856,"183.csv","","211.70000004768372","resources/trios/L4T2A2.jpg","37","restless",0.8,0.3,0.7,0.123031047043939,"true"
"image-keyboard-response",37,64848,"0.0-4.8-1.8","ngvou7v5zlj8hy1",856,"183.csv","","null","resources/maskTrios/L4BB.jpg","null","",NA,NA,NA,NA,""
"image-keyboard-response",38,66063,"0.0-4.8-2.8","ngvou7v5zlj8hy1",856,"183.csv","","null","resources/images/coin2.png","null","",NA,NA,NA,NA,""
"image-keyboard-response",39,66161,"0.0-4.9-0.9","ngvou7v5zlj8hy1",856,"183.csv","","97.70000004768372","resources/trios/L4T2A2.jpg","37","restless",0.7,0.3,0.7,0.514951898652364,"true"
"image-keyboard-response",40,66578,"0.0-4.9-1.9","ngvou7v5zlj8hy1",856,"183.csv","","null","resources/maskTrios/L4BB.jpg","null","",NA,NA,NA,NA,""
"image-keyboard-response",41,67792,"0.0-4.9-2.9","ngvou7v5zlj8hy1",856,"183.csv","","null","resources/images/coin2.png","null","",NA,NA,NA,NA,""
"image-keyboard-response",42,68232,"0.0-4.10-0.10","ngvou7v5zlj8hy1",856,"183.csv","","439","resources/trios/L4T2A2.jpg","37","restless",0.7,0.3,0.7,0.430851276531409,"true"
"image-keyboard-response",43,68634,"0.0-4.10-1.10","ngvou7v5zlj8hy1",856,"183.csv","","null","resources/maskTrios/L4BB.jpg","null","",NA,NA,NA,NA,""
"image-keyboard-response",44,69843,"0.0-4.10-2.10","ngvou7v5zlj8hy1",856,"183.csv","","null","resources/images/coin2.png","null","",NA,NA,NA,NA,""
"image-keyboard-response",45,70071,"0.0-4.11-0.11","ngvou7v5zlj8hy1",856,"183.csv","","226.39999997615814","resources/trios/L4T2A2.jpg","37","restless",0.7,0.3,0.7,0.392155819539793,"true"
"image-keyboard-response",46,70473,"0.0-4.11-1.11","ngvou7v5zlj8hy1",856,"183.csv","","null","resources/maskTrios/L4BB.jpg","null","",NA,NA,NA,NA,""
"image-keyboard-response",47,71676,"0.0-4.11-2.11","ngvou7v5zlj8hy1",856,"183.csv","","null","resources/images/coin2.png","null","",NA,NA,NA,NA,""
"image-keyboard-response",48,71969,"0.0-4.12-0.12","ngvou7v5zlj8hy1",856,"183.csv","","291.6999999284744","resources/trios/L4T2A2.jpg","37","restless",0.7,0.4,0.7,0.944052127308909,"false"
"image-keyboard-response",49,72384,"0.0-4.12-1.12","ngvou7v5zlj8hy1",856,"183.csv","","null","resources/maskTrios/L4BB.jpg","null","",NA,NA,NA,NA,""
"image-keyboard-response",50,73598,"0.0-4.12-2.12","ngvou7v5zlj8hy1",856,"183.csv","","null","resources/images/fishbone.png","null","",NA,NA,NA,NA,""
"image-keyboard-response",51,73768,"0.0-4.13-0.13","ngvou7v5zlj8hy1",856,"183.csv","","168.80000007152557","resources/trios/L4T2A2.jpg","37","restless",0.7,0.4,0.7,0.816651938407942,"false"
"image-keyboard-response",52,74176,"0.0-4.13-1.13","ngvou7v5zlj8hy1",856,"183.csv","","null","resources/maskTrios/L4BB.jpg","null","",NA,NA,NA,NA,""
"image-keyboard-response",53,75389,"0.0-4.13-2.13","ngvou7v5zlj8hy1",856,"183.csv","","null","resources/images/fishbone.png","null","",NA,NA,NA,NA,""
"image-keyboard-response",54,75852,"0.0-4.14-0.14","ngvou7v5zlj8hy1",856,"183.csv","","461.6999999284744","resources/trios/L4T2A2.jpg","37","restless",0.7,0.4,0.7,0.328451282935357,"true"
"image-keyboard-response",55,76258,"0.0-4.14-1.14","ngvou7v5zlj8hy1",856,"183.csv","","null","resources/maskTrios/L4BB.jpg","null","",NA,NA,NA,NA,""
"image-keyboard-response",56,77463,"0.0-4.14-2.14","ngvou7v5zlj8hy1",856,"183.csv","","null","resources/images/coin2.png","null","",NA,NA,NA,NA,""
"image-keyboard-response",57,77641,"0.0-4.15-0.15","ngvou7v5zlj8hy1",856,"183.csv","","176.89999997615814","resources/trios/L4T2A2.jpg","37","restless",0.7,0.3,0.6,0.809935636614973,"false"
"image-keyboard-response",58,78043,"0.0-4.15-1.15","ngvou7v5zlj8hy1",856,"183.csv","","null","resources/maskTrios/L4BB.jpg","null","",NA,NA,NA,NA,""
"image-keyboard-response",59,79246,"0.0-4.15-2.15","ngvou7v5zlj8hy1",856,"183.csv","","null","resources/images/fishbone.png","null","",NA,NA,NA,NA,""
"image-keyboard-response",60,79418,"0.0-4.16-0.16","ngvou7v5zlj8hy1",856,"183.csv","","170.79999995231628","resources/trios/L4T2A2.jpg","37","restless",0.7,0.3,0.6,0.959168136676231,"false"
"image-keyboard-response",61,79824,"0.0-4.16-1.16","ngvou7v5zlj8hy1",856,"183.csv","","null","resources/maskTrios/L4BB.jpg","null","",NA,NA,NA,NA,""
"image-keyboard-response",62,81032,"0.0-4.16-2.16","ngvou7v5zlj8hy1",856,"183.csv","","null","resources/images/fishbone.png","null","",NA,NA,NA,NA,""
"image-keyboard-response",63,81104,"0.0-4.17-0.17","ngvou7v5zlj8hy1",856,"183.csv","","71.69999992847443","resources/trios/L4T2A2.jpg","38","restless",0.7,0.3,0.6,0.822727284962277,"false"
"image-keyboard-response",64,81513,"0.0-4.17-1.17","ngvou7v5zlj8hy1",856,"183.csv","","null","resources/maskTrios/BT2B.jpg","null","",NA,NA,NA,NA,""
"image-keyboard-response",65,82720,"0.0-4.17-2.17","ngvou7v5zlj8hy1",856,"183.csv","","null","resources/images/fishbone.png","null","",NA,NA,NA,NA,""
"image-keyboard-response",66,82898,"0.0-4.18-0.18","ngvou7v5zlj8hy1",856,"183.csv","","177.09999990463257","resources/trios/L4T2A2.jpg","39","restless",0.7,0.3,0.6,0.653641026930819,"false"
"image-keyboard-response",67,83314,"0.0-4.18-1.18","ngvou7v5zlj8hy1",856,"183.csv","","null","resources/maskTrios/BBA2.jpg","null","",NA,NA,NA,NA,""
"image-keyboard-response",68,84530,"0.0-4.18-2.18","ngvou7v5zlj8hy1",856,"183.csv","","null","resources/images/fishbone.png","null","",NA,NA,NA,NA,""
"image-keyboard-response",69,84591,"0.0-4.19-0.19","ngvou7v5zlj8hy1",856,"183.csv","","59.89999997615814","resources/trios/L4T2A2.jpg","37","restless",0.7,0.3,0.6,0.258962473246775,"true"
"image-keyboard-response",70,84993,"0.0-4.19-1.19","ngvou7v5zlj8hy1",856,"183.csv","","null","resources/maskTrios/L4BB.jpg","null","",NA,NA,NA,NA,""
"image-keyboard-response",71,86194,"0.0-4.19-2.19","ngvou7v5zlj8hy1",856,"183.csv","","null","resources/images/coin2.png","null","",NA,NA,NA,NA,""
"image-keyboard-response",72,86400,"0.0-4.20-0.20","ngvou7v5zlj8hy1",856,"183.csv","","204.20000004768372","resources/trios/L4T2A2.jpg","37","restless",0.7,0.3,0.6,0.23588473435063,"true"
"image-keyboard-response",73,86802,"0.0-4.20-1.20","ngvou7v5zlj8hy1",856,"183.csv","","null","resources/maskTrios/L4BB.jpg","null","",NA,NA,NA,NA,""
"image-keyboard-response",74,88014,"0.0-4.20-2.20","ngvou7v5zlj8hy1",856,"183.csv","","null","resources/images/coin2.png","null","",NA,NA,NA,NA,""
"image-keyboard-response",75,88245,"0.0-4.21-0.21","ngvou7v5zlj8hy1",856,"183.csv","","230.10000002384186","resources/trios/L4T2A2.jpg","37","restless",0.7,0.3,0.6,0.621875580739373,"true"
"image-keyboard-response",76,88653,"0.0-4.21-1.21","ngvou7v5zlj8hy1",856,"183.csv","","null","resources/maskTrios/L4BB.jpg","null","",NA,NA,NA,NA,""
"image-keyboard-response",77,89863,"0.0-4.21-2.21","ngvou7v5zlj8hy1",856,"183.csv","","null","resources/images/coin2.png","null","",NA,NA,NA,NA,""
"image-keyboard-response",78,90133,"0.0-4.22-0.22","ngvou7v5zlj8hy1",856,"183.csv","","269","resources/trios/L4T2A2.jpg","37","restless",0.7,0.3,0.5,0.915680830007169,"false"
"image-keyboard-response",79,90549,"0.0-4.22-1.22","ngvou7v5zlj8hy1",856,"183.csv","","null","resources/maskTrios/L4BB.jpg","null","",NA,NA,NA,NA,""
"image-keyboard-response",80,91762,"0.0-4.22-2.22","ngvou7v5zlj8hy1",856,"183.csv","","null","resources/images/fishbone.png","null","",NA,NA,NA,NA,""
"image-keyboard-response",81,91826,"0.0-4.23-0.23","ngvou7v5zlj8hy1",856,"183.csv","","63.5","resources/trios/L4T2A2.jpg","37","restless",0.7,0.3,0.5,0.34861100108275,"true"
"image-keyboard-response",82,92233,"0.0-4.23-1.23","ngvou7v5zlj8hy1",856,"183.csv","","null","resources/maskTrios/L4BB.jpg","null","",NA,NA,NA,NA,""
"image-keyboard-response",83,93447,"0.0-4.23-2.23","ngvou7v5zlj8hy1",856,"183.csv","","null","resources/images/coin2.png","null","",NA,NA,NA,NA,""
"image-keyboard-response",84,93515,"0.0-4.24-0.24","ngvou7v5zlj8hy1",856,"183.csv","","67.70000004768372","resources/trios/L4T2A2.jpg","37","restless",0.7,0.3,0.5,0.331906422117445,"true"
"image-keyboard-response",85,93920,"0.0-4.24-1.24","ngvou7v5zlj8hy1",856,"183.csv","","null","resources/maskTrios/L4BB.jpg","null","",NA,NA,NA,NA,""
"image-keyboard-response",86,95124,"0.0-4.24-2.24","ngvou7v5zlj8hy1",856,"183.csv","","null","resources/images/coin2.png","null","",NA,NA,NA,NA,""
"image-keyboard-response",87,95381,"0.0-4.25-0.25","ngvou7v5zlj8hy1",856,"183.csv","","255","resources/trios/L4T2A2.jpg","37","restless",0.7,0.3,0.4,0.574540741524638,"true"
"image-keyboard-response",88,95792,"0.0-4.25-1.25","ngvou7v5zlj8hy1",856,"183.csv","","null","resources/maskTrios/L4BB.jpg","null","",NA,NA,NA,NA,""
"image-keyboard-response",89,96998,"0.0-4.25-2.25","ngvou7v5zlj8hy1",856,"183.csv","","null","resources/images/coin2.png","null","",NA,NA,NA,NA,""
"image-keyboard-response",90,97045,"0.0-4.26-0.26","ngvou7v5zlj8hy1",856,"183.csv","","45.40000009536743","resources/trios/L4T2A2.jpg","37","restless",0.7,0.3,0.4,0.445106632854308,"true"
"image-keyboard-response",91,97450,"0.0-4.26-1.26","ngvou7v5zlj8hy1",856,"183.csv","","null","resources/maskTrios/L4BB.jpg","null","",NA,NA,NA,NA,""
"image-keyboard-response",92,98658,"0.0-4.26-2.26","ngvou7v5zlj8hy1",856,"183.csv","","null","resources/images/coin2.png","null","",NA,NA,NA,NA,""
"image-keyboard-response",93,98861,"0.0-4.27-0.27","ngvou7v5zlj8hy1",856,"183.csv","","201.59999990463257","resources/trios/L4T2A2.jpg","37","restless",0.7,0.3,0.4,0.369662649850481,"true"
"image-keyboard-response",94,99263,"0.0-4.27-1.27","ngvou7v5zlj8hy1",856,"183.csv","","null","resources/maskTrios/L4BB.jpg","null","",NA,NA,NA,NA,""
"image-keyboard-response",95,100469,"0.0-4.27-2.27","ngvou7v5zlj8hy1",856,"183.csv","","null","resources/images/coin2.png","null","",NA,NA,NA,NA,""
"image-keyboard-response",96,100522,"0.0-4.28-0.28","ngvou7v5zlj8hy1",856,"183.csv","","52","resources/trios/L4T2A2.jpg","37","restless",0.7,0.3,0.4,0.648487385578264,"true"
"image-keyboard-response",97,100934,"0.0-4.28-1.28","ngvou7v5zlj8hy1",856,"183.csv","","null","resources/maskTrios/L4BB.jpg","null","",NA,NA,NA,NA,""
"image-keyboard-response",98,102137,"0.0-4.28-2.28","ngvou7v5zlj8hy1",856,"183.csv","","null","resources/images/coin2.png","null","",NA,NA,NA,NA,""
"image-keyboard-response",99,102467,"0.0-4.29-0.29","ngvou7v5zlj8hy1",856,"183.csv","","328.89999997615814","resources/trios/L4T2A2.jpg","37","restless",0.7,0.3,0.4,0.967624908285204,"false"
"image-keyboard-response",100,102875,"0.0-4.29-1.29","ngvou7v5zlj8hy1",856,"183.csv","","null","resources/maskTrios/L4BB.jpg","null","",NA,NA,NA,NA,""
"image-keyboard-response",101,104079,"0.0-4.29-2.29","ngvou7v5zlj8hy1",856,"183.csv","","null","resources/images/fishbone.png","null","",NA,NA,NA,NA,""
"image-keyboard-response",102,104290,"0.0-4.30-0.30","ngvou7v5zlj8hy1",856,"183.csv","","209.80000007152557","resources/trios/L4T2A2.jpg","37","restless",0.8,0.3,0.3,0.491060780750948,"true"
"image-keyboard-response",103,104695,"0.0-4.30-1.30","ngvou7v5zlj8hy1",856,"183.csv","","null","resources/maskTrios/L4BB.jpg","null","",NA,NA,NA,NA,""
"image-keyboard-response",104,105907,"0.0-4.30-2.30","ngvou7v5zlj8hy1",856,"183.csv","","null","resources/images/coin2.png","null","",NA,NA,NA,NA,""
"image-keyboard-response",105,106028,"0.0-4.31-0.31","ngvou7v5zlj8hy1",856,"183.csv","","119.60000002384186","resources/trios/L4T2A2.jpg","37","restless",0.8,0.3,0.3,0.492124767166729,"true"
"image-keyboard-response",106,106441,"0.0-4.31-1.31","ngvou7v5zlj8hy1",856,"183.csv","","null","resources/maskTrios/L4BB.jpg","null","",NA,NA,NA,NA,""
"image-keyboard-response",107,107644,"0.0-4.31-2.31","ngvou7v5zlj8hy1",856,"183.csv","","null","resources/images/coin2.png","null","",NA,NA,NA,NA,""
"image-keyboard-response",108,107798,"0.0-4.32-0.32","ngvou7v5zlj8hy1",856,"183.csv","","153.60000002384186","resources/trios/L4T2A2.jpg","37","restless",0.8,0.3,0.3,0.968590830432013,"false"
"image-keyboard-response",109,108208,"0.0-4.32-1.32","ngvou7v5zlj8hy1",856,"183.csv","","null","resources/maskTrios/L4BB.jpg","null","",NA,NA,NA,NA,""
"image-keyboard-response",110,109420,"0.0-4.32-2.32","ngvou7v5zlj8hy1",856,"183.csv","","null","resources/images/fishbone.png","null","",NA,NA,NA,NA,""
"image-keyboard-response",111,109447,"0.0-4.33-0.33","ngvou7v5zlj8hy1",856,"183.csv","","25.199999928474426","resources/trios/L4T2A2.jpg","37","restless",0.8,0.3,0.3,0.66882741910542,"true"
"image-keyboard-response",112,109854,"0.0-4.33-1.33","ngvou7v5zlj8hy1",856,"183.csv","","null","resources/maskTrios/L4BB.jpg","null","",NA,NA,NA,NA,""
"image-keyboard-response",113,111064,"0.0-4.33-2.33","ngvou7v5zlj8hy1",856,"183.csv","","null","resources/images/coin2.png","null","",NA,NA,NA,NA,""
"image-keyboard-response",114,111149,"0.0-4.34-0.34","ngvou7v5zlj8hy1",856,"183.csv","","83.70000004768372","resources/trios/L4T2A2.jpg","37","restless",0.8,0.3,0.2,0.962240108699384,"false"
"image-keyboard-response",115,111564,"0.0-4.34-1.34","ngvou7v5zlj8hy1",856,"183.csv","","null","resources/maskTrios/L4BB.jpg","null","",NA,NA,NA,NA,""
"image-keyboard-response",116,112768,"0.0-4.34-2.34","ngvou7v5zlj8hy1",856,"183.csv","","null","resources/images/fishbone.png","null","",NA,NA,NA,NA,""
"image-keyboard-response",117,114757,"0.0-4.35-0.35","ngvou7v5zlj8hy1",856,"183.csv","","1988.0999999046326","resources/trios/L4T2A2.jpg","37","restless",0.8,0.3,0.2,0.1360171970475,"true"
"image-keyboard-response",118,115172,"0.0-4.35-1.35","ngvou7v5zlj8hy1",856,"183.csv","","null","resources/maskTrios/L4BB.jpg","null","",NA,NA,NA,NA,""
"image-keyboard-response",119,116375,"0.0-4.35-2.35","ngvou7v5zlj8hy1",856,"183.csv","","null","resources/images/coin2.png","null","",NA,NA,NA,NA,""
"image-keyboard-response",120,116829,"0.0-4.36-0.36","ngvou7v5zlj8hy1",856,"183.csv","","453.2999999523163","resources/trios/L4T2A2.jpg","37","restless",0.8,0.3,0.2,0.718101100854476,"true"
"image-keyboard-response",121,117233,"0.0-4.36-1.36","ngvou7v5zlj8hy1",856,"183.csv","","null","resources/maskTrios/L4BB.jpg","null","",NA,NA,NA,NA,""
"image-keyboard-response",122,118448,"0.0-4.36-2.36","ngvou7v5zlj8hy1",856,"183.csv","","null","resources/images/coin2.png","null","",NA,NA,NA,NA,""
"image-keyboard-response",123,120417,"0.0-4.37-0.37","ngvou7v5zlj8hy1",856,"183.csv","","1968.0999999046326","resources/trios/L4T2A2.jpg","37","restless",0.8,0.3,0.2,0.0785170442874752,"true"
"image-keyboard-response",124,120821,"0.0-4.37-1.37","ngvou7v5zlj8hy1",856,"183.csv","","null","resources/maskTrios/L4BB.jpg","null","",NA,NA,NA,NA,""
"image-keyboard-response",125,122029,"0.0-4.37-2.37","ngvou7v5zlj8hy1",856,"183.csv","","null","resources/images/coin2.png","null","",NA,NA,NA,NA,""
"image-keyboard-response",126,122073,"0.0-4.38-0.38","ngvou7v5zlj8hy1",856,"183.csv","","42.700000047683716","resources/trios/L4T2A2.jpg","37","restless",0.8,0.3,0.2,0.0217413164858249,"true"
"image-keyboard-response",127,122478,"0.0-4.38-1.38","ngvou7v5zlj8hy1",856,"183.csv","","null","resources/maskTrios/L4BB.jpg","null","",NA,NA,NA,NA,""
"image-keyboard-response",128,123680,"0.0-4.38-2.38","ngvou7v5zlj8hy1",856,"183.csv","","null","resources/images/coin2.png","null","",NA,NA,NA,NA,""
"image-keyboard-response",129,124442,"0.0-4.39-0.39","ngvou7v5zlj8hy1",856,"183.csv","","761.4000000953674","resources/trios/L4T2A2.jpg","37","restless",0.8,0.3,0.2,0.257315423865469,"true"
"image-keyboard-response",130,124849,"0.0-4.39-1.39","ngvou7v5zlj8hy1",856,"183.csv","","null","resources/maskTrios/L4BB.jpg","null","",NA,NA,NA,NA,""
"image-keyboard-response",131,126051,"0.0-4.39-2.39","ngvou7v5zlj8hy1",856,"183.csv","","null","resources/images/coin2.png","null","",NA,NA,NA,NA,""
"image-keyboard-response",132,126202,"0.0-4.40-0.40","ngvou7v5zlj8hy1",856,"183.csv","","149.39999997615814","resources/trios/L4T2A2.jpg","37","restless",0.8,0.3,0.3,0.434623327824533,"true"
"image-keyboard-response",133,126615,"0.0-4.40-1.40","ngvou7v5zlj8hy1",856,"183.csv","","null","resources/maskTrios/L4BB.jpg","null","",NA,NA,NA,NA,""
"image-keyboard-response",134,127819,"0.0-4.40-2.40","ngvou7v5zlj8hy1",856,"183.csv","","null","resources/images/coin2.png","null","",NA,NA,NA,NA,""
"image-keyboard-response",135,127869,"0.0-4.41-0.41","ngvou7v5zlj8hy1",856,"183.csv","","49.10000002384186","resources/trios/L4T2A2.jpg","37","restless",0.8,0.3,0.3,0.872758541514089,"false"
"image-keyboard-response",136,128282,"0.0-4.41-1.41","ngvou7v5zlj8hy1",856,"183.csv","","null","resources/maskTrios/L4BB.jpg","null","",NA,NA,NA,NA,""
"image-keyboard-response",137,129496,"0.0-4.41-2.41","ngvou7v5zlj8hy1",856,"183.csv","","null","resources/images/fishbone.png","null","",NA,NA,NA,NA,""
"image-keyboard-response",138,129645,"0.0-4.42-0.42","ngvou7v5zlj8hy1",856,"183.csv","","148","resources/trios/L4T2A2.jpg","37","restless",0.8,0.3,0.3,0.828435682747793,"false"
"image-keyboard-response",139,130053,"0.0-4.42-1.42","ngvou7v5zlj8hy1",856,"183.csv","","null","resources/maskTrios/L4BB.jpg","null","",NA,NA,NA,NA,""
"image-keyboard-response",140,131259,"0.0-4.42-2.42","ngvou7v5zlj8hy1",856,"183.csv","","null","resources/images/fishbone.png","null","",NA,NA,NA,NA,""
"image-keyboard-response",141,131502,"0.0-4.43-0.43","ngvou7v5zlj8hy1",856,"183.csv","","242","resources/trios/L4T2A2.jpg","37","restless",0.8,0.3,0.3,0.9446321177996,"false"
"image-keyboard-response",142,131906,"0.0-4.43-1.43","ngvou7v5zlj8hy1",856,"183.csv","","null","resources/maskTrios/L4BB.jpg","null","",NA,NA,NA,NA,""
"image-keyboard-response",143,133122,"0.0-4.43-2.43","ngvou7v5zlj8hy1",856,"183.csv","","null","resources/images/fishbone.png","null","",NA,NA,NA,NA,""
"image-keyboard-response",144,133948,"0.0-4.44-0.44","ngvou7v5zlj8hy1",856,"183.csv","","825.3999999761581","resources/trios/L4T2A2.jpg","37","restless",0.7,0.3,0.3,0.00182224971234723,"true"
"image-keyboard-response",145,134361,"0.0-4.44-1.44","ngvou7v5zlj8hy1",856,"183.csv","","null","resources/maskTrios/L4BB.jpg","null","",NA,NA,NA,NA,""
"image-keyboard-response",146,135567,"0.0-4.44-2.44","ngvou7v5zlj8hy1",856,"183.csv","","null","resources/images/coin2.png","null","",NA,NA,NA,NA,""
"image-keyboard-response",147,135913,"0.0-4.45-0.45","ngvou7v5zlj8hy1",856,"183.csv","","345.1999999284744","resources/trios/L4T2A2.jpg","37","restless",0.7,0.3,0.3,0.125143835976155,"true"
"image-keyboard-response",148,136315,"0.0-4.45-1.45","ngvou7v5zlj8hy1",856,"183.csv","","null","resources/maskTrios/L4BB.jpg","null","",NA,NA,NA,NA,""
"image-keyboard-response",149,137532,"0.0-4.45-2.45","ngvou7v5zlj8hy1",856,"183.csv","","null","resources/images/coin2.png","null","",NA,NA,NA,NA,""
"image-keyboard-response",150,137696,"0.0-4.46-0.46","ngvou7v5zlj8hy1",856,"183.csv","","163.40000009536743","resources/trios/L4T2A2.jpg","37","restless",0.7,0.3,0.3,0.709258421332798,"false"
"image-keyboard-response",151,138102,"0.0-4.46-1.46","ngvou7v5zlj8hy1",856,"183.csv","","null","resources/maskTrios/L4BB.jpg","null","",NA,NA,NA,NA,""
"image-keyboard-response",152,139312,"0.0-4.46-2.46","ngvou7v5zlj8hy1",856,"183.csv","","null","resources/images/fishbone.png","null","",NA,NA,NA,NA,""
"image-keyboard-response",153,139330,"0.0-4.47-0.47","ngvou7v5zlj8hy1",856,"183.csv","","17","resources/trios/L4T2A2.jpg","37","restless",0.7,0.3,0.3,0.42058142101169,"true"
"image-keyboard-response",154,139738,"0.0-4.47-1.47","ngvou7v5zlj8hy1",856,"183.csv","","null","resources/maskTrios/L4BB.jpg","null","",NA,NA,NA,NA,""
"image-keyboard-response",155,140943,"0.0-4.47-2.47","ngvou7v5zlj8hy1",856,"183.csv","","null","resources/images/coin2.png","null","",NA,NA,NA,NA,""
"image-keyboard-response",156,141145,"0.0-4.48-0.48","ngvou7v5zlj8hy1",856,"183.csv","","201.70000004768372","resources/trios/L4T2A2.jpg","37","restless",0.7,0.3,0.3,0.137644246227469,"true"
"image-keyboard-response",157,141548,"0.0-4.48-1.48","ngvou7v5zlj8hy1",856,"183.csv","","null","resources/maskTrios/L4BB.jpg","null","",NA,NA,NA,NA,""
"image-keyboard-response",158,142752,"0.0-4.48-2.48","ngvou7v5zlj8hy1",856,"183.csv","","null","resources/images/coin2.png","null","",NA,NA,NA,NA,""
"image-keyboard-response",159,142890,"0.0-4.49-0.49","ngvou7v5zlj8hy1",856,"183.csv","","136.5","resources/trios/L4T2A2.jpg","37","restless",0.7,0.3,0.4,0.294063945436836,"true"
"image-keyboard-response",160,143296,"0.0-4.49-1.49","ngvou7v5zlj8hy1",856,"183.csv","","null","resources/maskTrios/L4BB.jpg","null","",NA,NA,NA,NA,""
"image-keyboard-response",161,144504,"0.0-4.49-2.49","ngvou7v5zlj8hy1",856,"183.csv","","null","resources/images/coin2.png","null","",NA,NA,NA,NA,""
"image-keyboard-response",162,144595,"0.0-4.50-0.50","ngvou7v5zlj8hy1",856,"183.csv","","89.89999997615814","resources/trios/L4T2A2.jpg","37","restless",0.7,0.3,0.4,0.687363124448627,"true"
"image-keyboard-response",163,145002,"0.0-4.50-1.50","ngvou7v5zlj8hy1",856,"183.csv","","null","resources/maskTrios/L4BB.jpg","null","",NA,NA,NA,NA,""
"image-keyboard-response",164,146208,"0.0-4.50-2.50","ngvou7v5zlj8hy1",856,"183.csv","","null","resources/images/coin2.png","null","",NA,NA,NA,NA,""
"image-keyboard-response",165,146330,"0.0-4.51-0.51","ngvou7v5zlj8hy1",856,"183.csv","","120.5","resources/trios/L4T2A2.jpg","37","restless",0.7,0.3,0.4,0.230383993750488,"true"
"image-keyboard-response",166,146742,"0.0-4.51-1.51","ngvou7v5zlj8hy1",856,"183.csv","","null","resources/maskTrios/L4BB.jpg","null","",NA,NA,NA,NA,""
"image-keyboard-response",167,147948,"0.0-4.51-2.51","ngvou7v5zlj8hy1",856,"183.csv","","null","resources/images/coin2.png","null","",NA,NA,NA,NA,""
"image-keyboard-response",168,148483,"0.0-4.52-0.52","ngvou7v5zlj8hy1",856,"183.csv","","533.8999999761581","resources/trios/L4T2A2.jpg","37","restless",0.7,0.3,0.4,0.934717546437898,"false"
"image-keyboard-response",169,148888,"0.0-4.52-1.52","ngvou7v5zlj8hy1",856,"183.csv","","null","resources/maskTrios/L4BB.jpg","null","",NA,NA,NA,NA,""
"image-keyboard-response",170,150105,"0.0-4.52-2.52","ngvou7v5zlj8hy1",856,"183.csv","","null","resources/images/fishbone.png","null","",NA,NA,NA,NA,""
"image-keyboard-response",171,150117,"0.0-4.53-0.53","ngvou7v5zlj8hy1",856,"183.csv","","10.700000047683716","resources/trios/L4T2A2.jpg","37","restless",0.7,0.2,0.4,0.253195755492453,"true"
"image-keyboard-response",172,150530,"0.0-4.53-1.53","ngvou7v5zlj8hy1",856,"183.csv","","null","resources/maskTrios/L4BB.jpg","null","",NA,NA,NA,NA,""
"image-keyboard-response",173,151740,"0.0-4.53-2.53","ngvou7v5zlj8hy1",856,"183.csv","","null","resources/images/coin2.png","null","",NA,NA,NA,NA,""
"image-keyboard-response",174,152117,"0.0-4.54-0.54","ngvou7v5zlj8hy1",856,"183.csv","","375.6999999284744","resources/trios/L4T2A2.jpg","37","restless",0.7,0.2,0.4,0.764924094640204,"false"
"image-keyboard-response",175,152527,"0.0-4.54-1.54","ngvou7v5zlj8hy1",856,"183.csv","","null","resources/maskTrios/L4BB.jpg","null","",NA,NA,NA,NA,""
"image-keyboard-response",176,153740,"0.0-4.54-2.54","ngvou7v5zlj8hy1",856,"183.csv","","null","resources/images/fishbone.png","null","",NA,NA,NA,NA,""
"image-keyboard-response",177,153761,"0.0-4.55-0.55","ngvou7v5zlj8hy1",856,"183.csv","","19","resources/trios/L4T2A2.jpg","37","restless",0.7,0.2,0.4,0.195157305920091,"true"
"image-keyboard-response",178,154174,"0.0-4.55-1.55","ngvou7v5zlj8hy1",856,"183.csv","","null","resources/maskTrios/L4BB.jpg","null","",NA,NA,NA,NA,""
"image-keyboard-response",179,155380,"0.0-4.55-2.55","ngvou7v5zlj8hy1",856,"183.csv","","null","resources/images/coin2.png","null","",NA,NA,NA,NA,""
"image-keyboard-response",180,155562,"0.0-4.56-0.56","ngvou7v5zlj8hy1",856,"183.csv","","180.89999997615814","resources/trios/L4T2A2.jpg","37","restless",0.7,0.3,0.4,0.851648202040711,"false"
"image-keyboard-response",181,155974,"0.0-4.56-1.56","ngvou7v5zlj8hy1",856,"183.csv","","null","resources/maskTrios/L4BB.jpg","null","",NA,NA,NA,NA,""
"image-keyboard-response",182,157184,"0.0-4.56-2.56","ngvou7v5zlj8hy1",856,"183.csv","","null","resources/images/fishbone.png","null","",NA,NA,NA,NA,""
"image-keyboard-response",183,157611,"0.0-4.57-0.57","ngvou7v5zlj8hy1",856,"183.csv","","425.39999997615814","resources/trios/L4T2A2.jpg","37","restless",0.6,0.3,0.4,0.94524360892558,"false"
"image-keyboard-response",184,158013,"0.0-4.57-1.57","ngvou7v5zlj8hy1",856,"183.csv","","null","resources/maskTrios/L4BB.jpg","null","",NA,NA,NA,NA,""
"image-keyboard-response",185,159223,"0.0-4.57-2.57","ngvou7v5zlj8hy1",856,"183.csv","","null","resources/images/fishbone.png","null","",NA,NA,NA,NA,""
"image-keyboard-response",186,159843,"0.0-4.58-0.58","ngvou7v5zlj8hy1",856,"183.csv","","618","resources/trios/L4T2A2.jpg","37","restless",0.6,0.3,0.4,0.494398224293383,"true"
"image-keyboard-response",187,160252,"0.0-4.58-1.58","ngvou7v5zlj8hy1",856,"183.csv","","null","resources/maskTrios/L4BB.jpg","null","",NA,NA,NA,NA,""
"image-keyboard-response",188,161468,"0.0-4.58-2.58","ngvou7v5zlj8hy1",856,"183.csv","","null","resources/images/coin2.png","null","",NA,NA,NA,NA,""
"image-keyboard-response",189,161604,"0.0-4.59-0.59","ngvou7v5zlj8hy1",856,"183.csv","","134.29999995231628","resources/trios/L4T2A2.jpg","37","restless",0.6,0.3,0.4,0.0920262523195481,"true"
"image-keyboard-response",190,162009,"0.0-4.59-1.59","ngvou7v5zlj8hy1",856,"183.csv","","null","resources/maskTrios/L4BB.jpg","null","",NA,NA,NA,NA,""
"image-keyboard-response",191,163219,"0.0-4.59-2.59","ngvou7v5zlj8hy1",856,"183.csv","","null","resources/images/coin2.png","null","",NA,NA,NA,NA,""
"image-keyboard-response",192,163461,"0.0-4.60-0.60","ngvou7v5zlj8hy1",856,"183.csv","","240.60000002384186","resources/trios/L4T2A2.jpg","37","restless",0.6,0.3,0.4,0.575890265744022,"true"
"image-keyboard-response",193,163873,"0.0-4.60-1.60","ngvou7v5zlj8hy1",856,"183.csv","","null","resources/maskTrios/L4BB.jpg","null","",NA,NA,NA,NA,""
"image-keyboard-response",194,165079,"0.0-4.60-2.60","ngvou7v5zlj8hy1",856,"183.csv","","null","resources/images/coin2.png","null","",NA,NA,NA,NA,""
"image-keyboard-response",195,165219,"0.0-4.61-0.61","ngvou7v5zlj8hy1",856,"183.csv","","138.20000004768372","resources/trios/L4T2A2.jpg","37","restless",0.6,0.3,0.4,0.456521525846102,"true"
"image-keyboard-response",196,165622,"0.0-4.61-1.61","ngvou7v5zlj8hy1",856,"183.csv","","null","resources/maskTrios/L4BB.jpg","null","",NA,NA,NA,NA,""
"image-keyboard-response",197,166828,"0.0-4.61-2.61","ngvou7v5zlj8hy1",856,"183.csv","","null","resources/images/coin2.png","null","",NA,NA,NA,NA,""
"image-keyboard-response",198,166971,"0.0-4.62-0.62","ngvou7v5zlj8hy1",856,"183.csv","","142.30000007152557","resources/trios/L4T2A2.jpg","37","restless",0.6,0.4,0.4,0.58066162774746,"true"
"image-keyboard-response",199,167374,"0.0-4.62-1.62","ngvou7v5zlj8hy1",856,"183.csv","","null","resources/maskTrios/L4BB.jpg","null","",NA,NA,NA,NA,""
"image-keyboard-response",200,168576,"0.0-4.62-2.62","ngvou7v5zlj8hy1",856,"183.csv","","null","resources/images/coin2.png","null","",NA,NA,NA,NA,""
"image-keyboard-response",201,168799,"0.0-4.63-0.63","ngvou7v5zlj8hy1",856,"183.csv","","221.59999990463257","resources/trios/L4T2A2.jpg","37","restless",0.6,0.4,0.4,0.532584837301146,"true"
"image-keyboard-response",202,169200,"0.0-4.63-1.63","ngvou7v5zlj8hy1",856,"183.csv","","null","resources/maskTrios/L4BB.jpg","null","",NA,NA,NA,NA,""
"image-keyboard-response",203,170415,"0.0-4.63-2.63","ngvou7v5zlj8hy1",856,"183.csv","","null","resources/images/coin2.png","null","",NA,NA,NA,NA,""
"image-keyboard-response",204,170499,"0.0-4.64-0.64","ngvou7v5zlj8hy1",856,"183.csv","","82.30000007152557","resources/trios/L4T2A2.jpg","37","restless",0.6,0.4,0.4,0.718516975848463,"false"
"image-keyboard-response",205,170903,"0.0-4.64-1.64","ngvou7v5zlj8hy1",856,"183.csv","","null","resources/maskTrios/L4BB.jpg","null","",NA,NA,NA,NA,""
"image-keyboard-response",206,172118,"0.0-4.64-2.64","ngvou7v5zlj8hy1",856,"183.csv","","null","resources/images/fishbone.png","null","",NA,NA,NA,NA,""
"image-keyboard-response",207,172298,"0.0-4.65-0.65","ngvou7v5zlj8hy1",856,"183.csv","","179.30000007152557","resources/trios/L4T2A2.jpg","37","restless",0.7,0.4,0.4,0.296962857916273,"true"
"image-keyboard-response",208,172713,"0.0-4.65-1.65","ngvou7v5zlj8hy1",856,"183.csv","","null","resources/maskTrios/L4BB.jpg","null","",NA,NA,NA,NA,""
"image-keyboard-response",209,173923,"0.0-4.65-2.65","ngvou7v5zlj8hy1",856,"183.csv","","null","resources/images/coin2.png","null","",NA,NA,NA,NA,""
"image-keyboard-response",210,174083,"0.0-4.66-0.66","ngvou7v5zlj8hy1",856,"183.csv","","158.89999997615814","resources/trios/L4T2A2.jpg","37","restless",0.7,0.4,0.4,0.787200666786003,"false"
"image-keyboard-response",211,174499,"0.0-4.66-1.66","ngvou7v5zlj8hy1",856,"183.csv","","null","resources/maskTrios/L4BB.jpg","null","",NA,NA,NA,NA,""
"image-keyboard-response",212,175706,"0.0-4.66-2.66","ngvou7v5zlj8hy1",856,"183.csv","","null","resources/images/fishbone.png","null","",NA,NA,NA,NA,""
"image-keyboard-response",213,175985,"0.0-4.67-0.67","ngvou7v5zlj8hy1",856,"183.csv","","277.60000002384186","resources/trios/L4T2A2.jpg","37","restless",0.7,0.4,0.4,0.311772777737996,"true"
"image-keyboard-response",214,176388,"0.0-4.67-1.67","ngvou7v5zlj8hy1",856,"183.csv","","null","resources/maskTrios/L4BB.jpg","null","",NA,NA,NA,NA,""
"image-keyboard-response",215,177593,"0.0-4.67-2.67","ngvou7v5zlj8hy1",856,"183.csv","","null","resources/images/coin2.png","null","",NA,NA,NA,NA,""
"image-keyboard-response",216,177628,"0.0-4.68-0.68","ngvou7v5zlj8hy1",856,"183.csv","","33.89999997615814","resources/trios/L4T2A2.jpg","37","restless",0.7,0.4,0.4,0.29063178969704,"true"
"image-keyboard-response",217,178036,"0.0-4.68-1.68","ngvou7v5zlj8hy1",856,"183.csv","","null","resources/maskTrios/L4BB.jpg","null","",NA,NA,NA,NA,""
"image-keyboard-response",218,179237,"0.0-4.68-2.68","ngvou7v5zlj8hy1",856,"183.csv","","null","resources/images/coin2.png","null","",NA,NA,NA,NA,""
"image-keyboard-response",219,179685,"0.0-4.69-0.69","ngvou7v5zlj8hy1",856,"183.csv","","446.60000002384186","resources/trios/L4T2A2.jpg","37","restless",0.7,0.4,0.4,0.631884076678536,"true"
"image-keyboard-response",220,180094,"0.0-4.69-1.69","ngvou7v5zlj8hy1",856,"183.csv","","null","resources/maskTrios/L4BB.jpg","null","",NA,NA,NA,NA,""
"image-keyboard-response",221,181297,"0.0-4.69-2.69","ngvou7v5zlj8hy1",856,"183.csv","","null","resources/images/coin2.png","null","",NA,NA,NA,NA,""
"image-keyboard-response",222,181569,"0.0-4.70-0.70","ngvou7v5zlj8hy1",856,"183.csv","","271.2999999523163","resources/trios/L4T2A2.jpg","37","restless",0.7,0.4,0.4,0.682241218125413,"true"
"image-keyboard-response",223,181981,"0.0-4.70-1.70","ngvou7v5zlj8hy1",856,"183.csv","","null","resources/maskTrios/L4BB.jpg","null","",NA,NA,NA,NA,""
"image-keyboard-response",224,183187,"0.0-4.70-2.70","ngvou7v5zlj8hy1",856,"183.csv","","null","resources/images/coin2.png","null","",NA,NA,NA,NA,""
"image-keyboard-response",225,183339,"0.0-4.71-0.71","ngvou7v5zlj8hy1",856,"183.csv","","151.60000002384186","resources/trios/L4T2A2.jpg","37","restless",0.7,0.5,0.4,0.900386221273475,"false"
"image-keyboard-response",226,183751,"0.0-4.71-1.71","ngvou7v5zlj8hy1",856,"183.csv","","null","resources/maskTrios/L4BB.jpg","null","",NA,NA,NA,NA,""
"image-keyboard-response",227,184956,"0.0-4.71-2.71","ngvou7v5zlj8hy1",856,"183.csv","","null","resources/images/fishbone.png","null","",NA,NA,NA,NA,""
"image-keyboard-response",228,185015,"0.0-4.72-0.72","ngvou7v5zlj8hy1",856,"183.csv","","58.299999952316284","resources/trios/L4T2A2.jpg","37","restless",0.6,0.5,0.4,0.596976586481426,"true"
"image-keyboard-response",229,185427,"0.0-4.72-1.72","ngvou7v5zlj8hy1",856,"183.csv","","null","resources/maskTrios/L4BB.jpg","null","",NA,NA,NA,NA,""
"image-keyboard-response",230,186644,"0.0-4.72-2.72","ngvou7v5zlj8hy1",856,"183.csv","","null","resources/images/coin2.png","null","",NA,NA,NA,NA,""
"image-keyboard-response",231,186825,"0.0-4.73-0.73","ngvou7v5zlj8hy1",856,"183.csv","","180.5","resources/trios/L4T2A2.jpg","37","restless",0.6,0.5,0.4,0.45682838394477,"true"
"image-keyboard-response",232,187239,"0.0-4.73-1.73","ngvou7v5zlj8hy1",856,"183.csv","","null","resources/maskTrios/L4BB.jpg","null","",NA,NA,NA,NA,""
"image-keyboard-response",233,188456,"0.0-4.73-2.73","ngvou7v5zlj8hy1",856,"183.csv","","null","resources/images/coin2.png","null","",NA,NA,NA,NA,""
"image-keyboard-response",234,188696,"0.0-4.74-0.74","ngvou7v5zlj8hy1",856,"183.csv","","239.30000007152557","resources/trios/L4T2A2.jpg","37","restless",0.6,0.5,0.4,0.0656518439018414,"true"
"image-keyboard-response",235,189098,"0.0-4.74-1.74","ngvou7v5zlj8hy1",856,"183.csv","","null","resources/maskTrios/L4BB.jpg","null","",NA,NA,NA,NA,""
"image-keyboard-response",236,190299,"0.0-4.74-2.74","ngvou7v5zlj8hy1",856,"183.csv","","null","resources/images/coin2.png","null","",NA,NA,NA,NA,""
"image-keyboard-response",237,190961,"0.0-4.75-0.75","ngvou7v5zlj8hy1",856,"183.csv","","660","resources/trios/L4T2A2.jpg","37","restless",0.6,0.5,0.5,0.0744103818043154,"true"
"image-keyboard-response",238,191365,"0.0-4.75-1.75","ngvou7v5zlj8hy1",856,"183.csv","","null","resources/maskTrios/L4BB.jpg","null","",NA,NA,NA,NA,""
"image-keyboard-response",239,192574,"0.0-4.75-2.75","ngvou7v5zlj8hy1",856,"183.csv","","null","resources/images/coin2.png","null","",NA,NA,NA,NA,""
"image-keyboard-response",240,192601,"0.0-4.76-0.76","ngvou7v5zlj8hy1",856,"183.csv","","26.300000071525574","resources/trios/L4T2A2.jpg","37","restless",0.6,0.5,0.5,0.161434727439331,"true"
"image-keyboard-response",241,193011,"0.0-4.76-1.76","ngvou7v5zlj8hy1",856,"183.csv","","null","resources/maskTrios/L4BB.jpg","null","",NA,NA,NA,NA,""
"image-keyboard-response",242,194217,"0.0-4.76-2.76","ngvou7v5zlj8hy1",856,"183.csv","","null","resources/images/coin2.png","null","",NA,NA,NA,NA,""
"image-keyboard-response",243,194451,"0.0-4.77-0.77","ngvou7v5zlj8hy1",856,"183.csv","","233.39999997615814","resources/trios/L4T2A2.jpg","37","restless",0.6,0.5,0.5,0.157250826269867,"true"
"image-keyboard-response",244,194854,"0.0-4.77-1.77","ngvou7v5zlj8hy1",856,"183.csv","","null","resources/maskTrios/L4BB.jpg","null","",NA,NA,NA,NA,""
"image-keyboard-response",245,196060,"0.0-4.77-2.77","ngvou7v5zlj8hy1",856,"183.csv","","null","resources/images/coin2.png","null","",NA,NA,NA,NA,""
"image-keyboard-response",246,196177,"0.0-4.78-0.78","ngvou7v5zlj8hy1",856,"183.csv","","116","resources/trios/L4T2A2.jpg","37","restless",0.7,0.5,0.5,0.824545112887643,"false"
"image-keyboard-response",247,196586,"0.0-4.78-1.78","ngvou7v5zlj8hy1",856,"183.csv","","null","resources/maskTrios/L4BB.jpg","null","",NA,NA,NA,NA,""
"image-keyboard-response",248,197800,"0.0-4.78-2.78","ngvou7v5zlj8hy1",856,"183.csv","","null","resources/images/fishbone.png","null","",NA,NA,NA,NA,""
"image-keyboard-response",249,197874,"0.0-4.79-0.79","ngvou7v5zlj8hy1",856,"183.csv","","72.10000002384186","resources/trios/L4T2A2.jpg","37","restless",0.7,0.5,0.4,0.389909173066374,"true"
"image-keyboard-response",250,198288,"0.0-4.79-1.79","ngvou7v5zlj8hy1",856,"183.csv","","null","resources/maskTrios/L4BB.jpg","null","",NA,NA,NA,NA,""
"image-keyboard-response",251,199493,"0.0-4.79-2.79","ngvou7v5zlj8hy1",856,"183.csv","","null","resources/images/coin2.png","null","",NA,NA,NA,NA,""
"image-keyboard-response",252,199513,"0.0-4.80-0.80","ngvou7v5zlj8hy1",856,"183.csv","","19.700000047683716","resources/trios/L4T2A2.jpg","37","restless",0.6,0.5,0.4,0.155682401126353,"true"
"image-keyboard-response",253,199929,"0.0-4.80-1.80","ngvou7v5zlj8hy1",856,"183.csv","","null","resources/maskTrios/L4BB.jpg","null","",NA,NA,NA,NA,""
"image-keyboard-response",254,201131,"0.0-4.80-2.80","ngvou7v5zlj8hy1",856,"183.csv","","null","resources/images/coin2.png","null","",NA,NA,NA,NA,""
"image-keyboard-response",255,201263,"0.0-4.81-0.81","ngvou7v5zlj8hy1",856,"183.csv","","130.79999995231628","resources/trios/L4T2A2.jpg","37","restless",0.6,0.5,0.4,0.73824949005623,"false"
"image-keyboard-response",256,201667,"0.0-4.81-1.81","ngvou7v5zlj8hy1",856,"183.csv","","null","resources/maskTrios/L4BB.jpg","null","",NA,NA,NA,NA,""
"image-keyboard-response",257,202869,"0.0-4.81-2.81","ngvou7v5zlj8hy1",856,"183.csv","","null","resources/images/fishbone.png","null","",NA,NA,NA,NA,""
"image-keyboard-response",258,202898,"0.0-4.82-0.82","ngvou7v5zlj8hy1",856,"183.csv","","27.600000023841858","resources/trios/L4T2A2.jpg","37","restless",0.6,0.5,0.4,0.53627550745535,"true"
"image-keyboard-response",259,203311,"0.0-4.82-1.82","ngvou7v5zlj8hy1",856,"183.csv","","null","resources/maskTrios/L4BB.jpg","null","",NA,NA,NA,NA,""
"image-keyboard-response",260,204523,"0.0-4.82-2.82","ngvou7v5zlj8hy1",856,"183.csv","","null","resources/images/coin2.png","null","",NA,NA,NA,NA,""
"image-keyboard-response",261,204609,"0.0-4.83-0.83","ngvou7v5zlj8hy1",856,"183.csv","","83.79999995231628","resources/trios/L4T2A2.jpg","37","restless",0.6,0.5,0.4,0.496227787239763,"true"
"image-keyboard-response",262,205022,"0.0-4.83-1.83","ngvou7v5zlj8hy1",856,"183.csv","","null","resources/maskTrios/L4BB.jpg","null","",NA,NA,NA,NA,""
"image-keyboard-response",263,206227,"0.0-4.83-2.83","ngvou7v5zlj8hy1",856,"183.csv","","null","resources/images/coin2.png","null","",NA,NA,NA,NA,""
"image-keyboard-response",264,206234,"0.0-4.84-0.84","ngvou7v5zlj8hy1",856,"183.csv","","6","resources/trios/L4T2A2.jpg","37","restless",0.7,0.5,0.4,0.678077423295837,"true"
"image-keyboard-response",265,206647,"0.0-4.84-1.84","ngvou7v5zlj8hy1",856,"183.csv","","null","resources/maskTrios/L4BB.jpg","null","",NA,NA,NA,NA,""
"image-keyboard-response",266,207859,"0.0-4.84-2.84","ngvou7v5zlj8hy1",856,"183.csv","","null","resources/images/coin2.png","null","",NA,NA,NA,NA,""
"image-keyboard-response",267,208042,"0.0-4.85-0.85","ngvou7v5zlj8hy1",856,"183.csv","","182.39999997615814","resources/trios/L4T2A2.jpg","37","restless",0.7,0.5,0.4,0.510732226897879,"true"
"image-keyboard-response",268,208450,"0.0-4.85-1.85","ngvou7v5zlj8hy1",856,"183.csv","","null","resources/maskTrios/L4BB.jpg","null","",NA,NA,NA,NA,""
"image-keyboard-response",269,209660,"0.0-4.85-2.85","ngvou7v5zlj8hy1",856,"183.csv","","null","resources/images/coin2.png","null","",NA,NA,NA,NA,""
"image-keyboard-response",270,209812,"0.0-4.86-0.86","ngvou7v5zlj8hy1",856,"183.csv","","150.89999997615814","resources/trios/L4T2A2.jpg","37","restless",0.7,0.5,0.4,0.443499818964517,"true"
"image-keyboard-response",271,210223,"0.0-4.86-1.86","ngvou7v5zlj8hy1",856,"183.csv","","null","resources/maskTrios/L4BB.jpg","null","",NA,NA,NA,NA,""
"image-keyboard-response",272,211440,"0.0-4.86-2.86","ngvou7v5zlj8hy1",856,"183.csv","","null","resources/images/coin2.png","null","",NA,NA,NA,NA,""
"image-keyboard-response",273,211869,"0.0-4.87-0.87","ngvou7v5zlj8hy1",856,"183.csv","","428.1999999284744","resources/trios/L4T2A2.jpg","37","restless",0.7,0.4,0.4,0.420729753885223,"true"
"image-keyboard-response",274,212280,"0.0-4.87-1.87","ngvou7v5zlj8hy1",856,"183.csv","","null","resources/maskTrios/L4BB.jpg","null","",NA,NA,NA,NA,""
"image-keyboard-response",275,213485,"0.0-4.87-2.87","ngvou7v5zlj8hy1",856,"183.csv","","null","resources/images/coin2.png","null","",NA,NA,NA,NA,""
"image-keyboard-response",276,213586,"0.0-4.88-0.88","ngvou7v5zlj8hy1",856,"183.csv","","100","resources/trios/L4T2A2.jpg","37","restless",0.7,0.4,0.4,0.799838966751486,"false"
"image-keyboard-response",277,213998,"0.0-4.88-1.88","ngvou7v5zlj8hy1",856,"183.csv","","null","resources/maskTrios/L4BB.jpg","null","",NA,NA,NA,NA,""
"image-keyboard-response",278,215212,"0.0-4.88-2.88","ngvou7v5zlj8hy1",856,"183.csv","","null","resources/images/fishbone.png","null","",NA,NA,NA,NA,""
"image-keyboard-response",279,215256,"0.0-4.89-0.89","ngvou7v5zlj8hy1",856,"183.csv","","42.5","resources/trios/L4T2A2.jpg","37","restless",0.7,0.4,0.4,0.526203944478709,"true"
"image-keyboard-response",280,215668,"0.0-4.89-1.89","ngvou7v5zlj8hy1",856,"183.csv","","null","resources/maskTrios/L4BB.jpg","null","",NA,NA,NA,NA,""
"image-keyboard-response",281,216870,"0.0-4.89-2.89","ngvou7v5zlj8hy1",856,"183.csv","","null","resources/images/coin2.png","null","",NA,NA,NA,NA,""
"image-keyboard-response",282,216985,"0.0-4.90-0.90","ngvou7v5zlj8hy1",856,"183.csv","","113.60000002384186","resources/trios/L4T2A2.jpg","37","restless",0.7,0.4,0.4,0.267719347473177,"true"
"image-keyboard-response",283,217401,"0.0-4.90-1.90","ngvou7v5zlj8hy1",856,"183.csv","","null","resources/maskTrios/L4BB.jpg","null","",NA,NA,NA,NA,""
"image-keyboard-response",284,218616,"0.0-4.90-2.90","ngvou7v5zlj8hy1",856,"183.csv","","null","resources/images/coin2.png","null","",NA,NA,NA,NA,""
"image-keyboard-response",285,218623,"0.0-4.91-0.91","ngvou7v5zlj8hy1",856,"183.csv","","5.600000023841858","resources/trios/L4T2A2.jpg","37","restless",0.7,0.4,0.4,0.788155901497629,"false"
"image-keyboard-response",286,219036,"0.0-4.91-1.91","ngvou7v5zlj8hy1",856,"183.csv","","null","resources/maskTrios/L4BB.jpg","null","",NA,NA,NA,NA,""
"image-keyboard-response",287,220250,"0.0-4.91-2.91","ngvou7v5zlj8hy1",856,"183.csv","","null","resources/images/fishbone.png","null","",NA,NA,NA,NA,""
"image-keyboard-response",288,220268,"0.0-4.92-0.92","ngvou7v5zlj8hy1",856,"183.csv","","17.300000071525574","resources/trios/L4T2A2.jpg","37","restless",0.7,0.5,0.4,0.126823790103976,"true"
"image-keyboard-response",289,220683,"0.0-4.92-1.92","ngvou7v5zlj8hy1",856,"183.csv","","null","resources/maskTrios/L4BB.jpg","null","",NA,NA,NA,NA,""
"image-keyboard-response",290,221887,"0.0-4.92-2.92","ngvou7v5zlj8hy1",856,"183.csv","","null","resources/images/coin2.png","null","",NA,NA,NA,NA,""
"image-keyboard-response",291,223442,"0.0-4.93-0.93","ngvou7v5zlj8hy1",856,"183.csv","","1553.6000000238419","resources/trios/L4T2A2.jpg","37","restless",0.7,0.5,0.4,0.643125251447957,"true"
"image-keyboard-response",292,223846,"0.0-4.93-1.93","ngvou7v5zlj8hy1",856,"183.csv","","null","resources/maskTrios/L4BB.jpg","null","",NA,NA,NA,NA,""
"image-keyboard-response",293,225058,"0.0-4.93-2.93","ngvou7v5zlj8hy1",856,"183.csv","","null","resources/images/coin2.png","null","",NA,NA,NA,NA,""
"image-keyboard-response",294,225103,"0.0-4.94-0.94","ngvou7v5zlj8hy1",856,"183.csv","","43.800000071525574","resources/trios/L4T2A2.jpg","37","restless",0.7,0.5,0.4,0.0854122591089579,"true"
"image-keyboard-response",295,225512,"0.0-4.94-1.94","ngvou7v5zlj8hy1",856,"183.csv","","null","resources/maskTrios/L4BB.jpg","null","",NA,NA,NA,NA,""
"image-keyboard-response",296,226720,"0.0-4.94-2.94","ngvou7v5zlj8hy1",856,"183.csv","","null","resources/images/coin2.png","null","",NA,NA,NA,NA,""
"image-keyboard-response",297,227342,"0.0-4.95-0.95","ngvou7v5zlj8hy1",856,"183.csv","","620.1000000238419","resources/trios/L4T2A2.jpg","37","restless",0.7,0.5,0.4,0.214730086490312,"true"
"image-keyboard-response",298,227751,"0.0-4.95-1.95","ngvou7v5zlj8hy1",856,"183.csv","","null","resources/maskTrios/L4BB.jpg","null","",NA,NA,NA,NA,""
"image-keyboard-response",299,228965,"0.0-4.95-2.95","ngvou7v5zlj8hy1",856,"183.csv","","null","resources/images/coin2.png","null","",NA,NA,NA,NA,""
"image-keyboard-response",300,229212,"0.0-4.96-0.96","ngvou7v5zlj8hy1",856,"183.csv","","245.19999992847443","resources/trios/L4T2A2.jpg","37","restless",0.7,0.5,0.4,0.327260123117303,"true"
"image-keyboard-response",301,229620,"0.0-4.96-1.96","ngvou7v5zlj8hy1",856,"183.csv","","null","resources/maskTrios/L4BB.jpg","null","",NA,NA,NA,NA,""
"image-keyboard-response",302,230824,"0.0-4.96-2.96","ngvou7v5zlj8hy1",856,"183.csv","","null","resources/images/coin2.png","null","",NA,NA,NA,NA,""
"image-keyboard-response",303,230946,"0.0-4.97-0.97","ngvou7v5zlj8hy1",856,"183.csv","","120.79999995231628","resources/trios/L4T2A2.jpg","37","restless",0.6,0.6,0.4,0.253577547917393,"true"
"image-keyboard-response",304,231353,"0.0-4.97-1.97","ngvou7v5zlj8hy1",856,"183.csv","","null","resources/maskTrios/L4BB.jpg","null","",NA,NA,NA,NA,""
"image-keyboard-response",305,232569,"0.0-4.97-2.97","ngvou7v5zlj8hy1",856,"183.csv","","null","resources/images/coin2.png","null","",NA,NA,NA,NA,""
"image-keyboard-response",306,232740,"0.0-4.98-0.98","ngvou7v5zlj8hy1",856,"183.csv","","170.5","resources/trios/L4T2A2.jpg","37","restless",0.6,0.6,0.3,0.072218963456951,"true"
"image-keyboard-response",307,233150,"0.0-4.98-1.98","ngvou7v5zlj8hy1",856,"183.csv","","null","resources/maskTrios/L4BB.jpg","null","",NA,NA,NA,NA,""
"image-keyboard-response",308,234355,"0.0-4.98-2.98","ngvou7v5zlj8hy1",856,"183.csv","","null","resources/images/coin2.png","null","",NA,NA,NA,NA,""
"image-keyboard-response",309,234843,"0.0-4.99-0.99","ngvou7v5zlj8hy1",856,"183.csv","","486","resources/trios/L4T2A2.jpg","37","restless",0.6,0.6,0.3,0.798221704414528,"false"
"image-keyboard-response",310,235259,"0.0-4.99-1.99","ngvou7v5zlj8hy1",856,"183.csv","","null","resources/maskTrios/L4BB.jpg","null","",NA,NA,NA,NA,""
"image-keyboard-response",311,236473,"0.0-4.99-2.99","ngvou7v5zlj8hy1",856,"183.csv","","null","resources/images/fishbone.png","null","",NA,NA,NA,NA,""
"image-keyboard-response",312,236595,"0.0-4.100-0.100","ngvou7v5zlj8hy1",856,"183.csv","","120.59999990463257","resources/trios/L4T2A2.jpg","37","restless",0.6,0.6,0.3,0.271793528073043,"true"
"image-keyboard-response",313,237011,"0.0-4.100-1.100","ngvou7v5zlj8hy1",856,"183.csv","","null","resources/maskTrios/L4BB.jpg","null","",NA,NA,NA,NA,""
"image-keyboard-response",314,238227,"0.0-4.100-2.100","ngvou7v5zlj8hy1",856,"183.csv","","null","resources/images/coin2.png","null","",NA,NA,NA,NA,""
"image-keyboard-response",315,238420,"0.0-4.101-0.101","ngvou7v5zlj8hy1",856,"183.csv","","192.5","resources/trios/L4T2A2.jpg","37","restless",0.6,0.6,0.3,0.169467931962392,"true"
"image-keyboard-response",316,238825,"0.0-4.101-1.101","ngvou7v5zlj8hy1",856,"183.csv","","null","resources/maskTrios/L4BB.jpg","null","",NA,NA,NA,NA,""
"image-keyboard-response",317,240036,"0.0-4.101-2.101","ngvou7v5zlj8hy1",856,"183.csv","","null","resources/images/coin2.png","null","",NA,NA,NA,NA,""
"image-keyboard-response",318,240195,"0.0-4.102-0.102","ngvou7v5zlj8hy1",856,"183.csv","","157.40000009536743","resources/trios/L4T2A2.jpg","37","restless",0.6,0.6,0.3,0.792958799079553,"false"
"image-keyboard-response",319,240596,"0.0-4.102-1.102","ngvou7v5zlj8hy1",856,"183.csv","","null","resources/maskTrios/L4BB.jpg","null","",NA,NA,NA,NA,""
"image-keyboard-response",320,241812,"0.0-4.102-2.102","ngvou7v5zlj8hy1",856,"183.csv","","null","resources/images/fishbone.png","null","",NA,NA,NA,NA,""
"image-keyboard-response",321,241829,"0.0-4.103-0.103","ngvou7v5zlj8hy1",856,"183.csv","","16.700000047683716","resources/trios/L4T2A2.jpg","37","restless",0.6,0.6,0.3,0.613464613407278,"false"
"image-keyboard-response",322,242244,"0.0-4.103-1.103","ngvou7v5zlj8hy1",856,"183.csv","","null","resources/maskTrios/L4BB.jpg","null","",NA,NA,NA,NA,""
"image-keyboard-response",323,243451,"0.0-4.103-2.103","ngvou7v5zlj8hy1",856,"183.csv","","null","resources/images/fishbone.png","null","",NA,NA,NA,NA,""
"image-keyboard-response",324,244200,"0.0-4.104-0.104","ngvou7v5zlj8hy1",856,"183.csv","","748.6999999284744","resources/trios/L4T2A2.jpg","37","restless",0.6,0.6,0.3,0.898297016618008,"false"
"image-keyboard-response",325,244607,"0.0-4.104-1.104","ngvou7v5zlj8hy1",856,"183.csv","","null","resources/maskTrios/L4BB.jpg","null","",NA,NA,NA,NA,""
"image-keyboard-response",326,245811,"0.0-4.104-2.104","ngvou7v5zlj8hy1",856,"183.csv","","null","resources/images/fishbone.png","null","",NA,NA,NA,NA,""
"image-keyboard-response",327,246003,"0.0-4.105-0.105","ngvou7v5zlj8hy1",856,"183.csv","","191.39999997615814","resources/trios/L4T2A2.jpg","37","restless",0.6,0.6,0.3,0.813674101345191,"false"
"image-keyboard-response",328,246419,"0.0-4.105-1.105","ngvou7v5zlj8hy1",856,"183.csv","","null","resources/maskTrios/L4BB.jpg","null","",NA,NA,NA,NA,""
"image-keyboard-response",329,247627,"0.0-4.105-2.105","ngvou7v5zlj8hy1",856,"183.csv","","null","resources/images/fishbone.png","null","",NA,NA,NA,NA,""
"image-keyboard-response",330,247743,"0.0-4.106-0.106","ngvou7v5zlj8hy1",856,"183.csv","","115","resources/trios/L4T2A2.jpg","37","restless",0.6,0.6,0.3,0.328204700865022,"true"
"image-keyboard-response",331,248157,"0.0-4.106-1.106","ngvou7v5zlj8hy1",856,"183.csv","","null","resources/maskTrios/L4BB.jpg","null","",NA,NA,NA,NA,""
"image-keyboard-response",332,249373,"0.0-4.106-2.106","ngvou7v5zlj8hy1",856,"183.csv","","null","resources/images/coin2.png","null","",NA,NA,NA,NA,""
"image-keyboard-response",333,249462,"0.0-4.107-0.107","ngvou7v5zlj8hy1",856,"183.csv","","87.70000004768372","resources/trios/L4T2A2.jpg","37","restless",0.6,0.6,0.4,0.453805628629174,"true"
"image-keyboard-response",334,249873,"0.0-4.107-1.107","ngvou7v5zlj8hy1",856,"183.csv","","null","resources/maskTrios/L4BB.jpg","null","",NA,NA,NA,NA,""
"image-keyboard-response",335,251075,"0.0-4.107-2.107","ngvou7v5zlj8hy1",856,"183.csv","","null","resources/images/coin2.png","null","",NA,NA,NA,NA,""
"image-keyboard-response",336,251141,"0.0-4.108-0.108","ngvou7v5zlj8hy1",856,"183.csv","","64.39999997615814","resources/trios/L4T2A2.jpg","37","restless",0.6,0.6,0.4,0.282076019124641,"true"
"image-keyboard-response",337,251549,"0.0-4.108-1.108","ngvou7v5zlj8hy1",856,"183.csv","","null","resources/maskTrios/L4BB.jpg","null","",NA,NA,NA,NA,""
"image-keyboard-response",338,252751,"0.0-4.108-2.108","ngvou7v5zlj8hy1",856,"183.csv","","null","resources/images/coin2.png","null","",NA,NA,NA,NA,""
"image-keyboard-response",339,252832,"0.0-4.109-0.109","ngvou7v5zlj8hy1",856,"183.csv","","80","resources/trios/L4T2A2.jpg","37","restless",0.6,0.6,0.4,0.862330946834946,"false"
"image-keyboard-response",340,253248,"0.0-4.109-1.109","ngvou7v5zlj8hy1",856,"183.csv","","null","resources/maskTrios/L4BB.jpg","null","",NA,NA,NA,NA,""
"image-keyboard-response",341,254457,"0.0-4.109-2.109","ngvou7v5zlj8hy1",856,"183.csv","","null","resources/images/fishbone.png","null","",NA,NA,NA,NA,""
"image-keyboard-response",342,254918,"0.0-4.110-0.110","ngvou7v5zlj8hy1",856,"183.csv","","458.60000002384186","resources/trios/L4T2A2.jpg","37","restless",0.6,0.6,0.4,0.481324435093844,"true"
"image-keyboard-response",343,255330,"0.0-4.110-1.110","ngvou7v5zlj8hy1",856,"183.csv","","null","resources/maskTrios/L4BB.jpg","null","",NA,NA,NA,NA,""
"image-keyboard-response",344,256545,"0.0-4.110-2.110","ngvou7v5zlj8hy1",856,"183.csv","","null","resources/images/coin2.png","null","",NA,NA,NA,NA,""
"image-keyboard-response",345,256719,"0.0-4.111-0.111","ngvou7v5zlj8hy1",856,"183.csv","","172.60000002384186","resources/trios/L4T2A2.jpg","37","restless",0.6,0.7,0.4,0.154137237602642,"true"
"image-keyboard-response",346,257121,"0.0-4.111-1.111","ngvou7v5zlj8hy1",856,"183.csv","","null","resources/maskTrios/L4BB.jpg","null","",NA,NA,NA,NA,""
"image-keyboard-response",347,258335,"0.0-4.111-2.111","ngvou7v5zlj8hy1",856,"183.csv","","null","resources/images/coin2.png","null","",NA,NA,NA,NA,""
"image-keyboard-response",348,258336,"0.0-4.112-0.112","ngvou7v5zlj8hy1",856,"183.csv","","0.3999999761581421","resources/trios/L4T2A2.jpg","37","restless",0.6,0.7,0.4,0.012576284039306,"true"
"image-keyboard-response",349,258744,"0.0-4.112-1.112","ngvou7v5zlj8hy1",856,"183.csv","","null","resources/maskTrios/L4BB.jpg","null","",NA,NA,NA,NA,""
"image-keyboard-response",350,259947,"0.0-4.112-2.112","ngvou7v5zlj8hy1",856,"183.csv","","null","resources/images/coin2.png","null","",NA,NA,NA,NA,""
"image-keyboard-response",351,260609,"0.0-4.113-0.113","ngvou7v5zlj8hy1",856,"183.csv","","660.3999999761581","resources/trios/L4T2A2.jpg","37","restless",0.6,0.7,0.4,0.314848773906208,"true"
"image-keyboard-response",352,261023,"0.0-4.113-1.113","ngvou7v5zlj8hy1",856,"183.csv","","null","resources/maskTrios/L4BB.jpg","null","",NA,NA,NA,NA,""
"image-keyboard-response",353,262225,"0.0-4.113-2.113","ngvou7v5zlj8hy1",856,"183.csv","","null","resources/images/coin2.png","null","",NA,NA,NA,NA,""
"image-keyboard-response",354,262357,"0.0-4.114-0.114","ngvou7v5zlj8hy1",856,"183.csv","","130.79999995231628","resources/trios/L4T2A2.jpg","37","restless",0.6,0.7,0.4,0.990472969876584,"false"
"image-keyboard-response",355,262772,"0.0-4.114-1.114","ngvou7v5zlj8hy1",856,"183.csv","","null","resources/maskTrios/L4BB.jpg","null","",NA,NA,NA,NA,""
"image-keyboard-response",356,263976,"0.0-4.114-2.114","ngvou7v5zlj8hy1",856,"183.csv","","null","resources/images/fishbone.png","null","",NA,NA,NA,NA,""
"image-keyboard-response",357,264068,"0.0-4.115-0.115","ngvou7v5zlj8hy1",856,"183.csv","","91","resources/trios/L4T2A2.jpg","37","restless",0.6,0.7,0.4,0.496443190802958,"true"
"image-keyboard-response",358,264477,"0.0-4.115-1.115","ngvou7v5zlj8hy1",856,"183.csv","","null","resources/maskTrios/L4BB.jpg","null","",NA,NA,NA,NA,""
"image-keyboard-response",359,265692,"0.0-4.115-2.115","ngvou7v5zlj8hy1",856,"183.csv","","null","resources/images/coin2.png","null","",NA,NA,NA,NA,""
"image-keyboard-response",360,265797,"0.0-4.116-0.116","ngvou7v5zlj8hy1",856,"183.csv","","103.80000007152557","resources/trios/L4T2A2.jpg","37","restless",0.6,0.6,0.4,0.272435043806237,"true"
"image-keyboard-response",361,266211,"0.0-4.116-1.116","ngvou7v5zlj8hy1",856,"183.csv","","null","resources/maskTrios/L4BB.jpg","null","",NA,NA,NA,NA,""
"image-keyboard-response",362,267427,"0.0-4.116-2.116","ngvou7v5zlj8hy1",856,"183.csv","","null","resources/images/coin2.png","null","",NA,NA,NA,NA,""
"image-keyboard-response",363,267615,"0.0-4.117-0.117","ngvou7v5zlj8hy1",856,"183.csv","","187.39999997615814","resources/trios/L4T2A2.jpg","37","restless",0.6,0.6,0.4,0.0792265426015688,"true"
"image-keyboard-response",364,268023,"0.0-4.117-1.117","ngvou7v5zlj8hy1",856,"183.csv","","null","resources/maskTrios/L4BB.jpg","null","",NA,NA,NA,NA,""
"image-keyboard-response",365,269240,"0.0-4.117-2.117","ngvou7v5zlj8hy1",856,"183.csv","","null","resources/images/coin2.png","null","",NA,NA,NA,NA,""
"image-keyboard-response",366,269700,"0.0-4.118-0.118","ngvou7v5zlj8hy1",856,"183.csv","","458.7000000476837","resources/trios/L4T2A2.jpg","37","restless",0.6,0.6,0.4,0.187360984454657,"true"
"image-keyboard-response",367,270115,"0.0-4.118-1.118","ngvou7v5zlj8hy1",856,"183.csv","","null","resources/maskTrios/L4BB.jpg","null","",NA,NA,NA,NA,""
"image-keyboard-response",368,271328,"0.0-4.118-2.118","ngvou7v5zlj8hy1",856,"183.csv","","null","resources/images/coin2.png","null","",NA,NA,NA,NA,""
"image-keyboard-response",369,271514,"0.0-4.119-0.119","ngvou7v5zlj8hy1",856,"183.csv","","185.09999990463257","resources/trios/L4T2A2.jpg","37","restless",0.6,0.6,0.4,0.814490329629347,"false"
"image-keyboard-response",370,271923,"0.0-4.119-1.119","ngvou7v5zlj8hy1",856,"183.csv","","null","resources/maskTrios/L4BB.jpg","null","",NA,NA,NA,NA,""
"image-keyboard-response",371,273125,"0.0-4.119-2.119","ngvou7v5zlj8hy1",856,"183.csv","","null","resources/images/fishbone.png","null","",NA,NA,NA,NA,""
"image-keyboard-response",372,273340,"0.0-4.120-0.120","ngvou7v5zlj8hy1",856,"183.csv","","214.39999997615814","resources/trios/L4T2A2.jpg","37","restless",0.6,0.6,0.4,0.309074038937173,"true"
"image-keyboard-response",373,273749,"0.0-4.120-1.120","ngvou7v5zlj8hy1",856,"183.csv","","null","resources/maskTrios/L4BB.jpg","null","",NA,NA,NA,NA,""
"image-keyboard-response",374,274963,"0.0-4.120-2.120","ngvou7v5zlj8hy1",856,"183.csv","","null","resources/images/coin2.png","null","",NA,NA,NA,NA,""
"image-keyboard-response",375,274965,"0.0-4.121-0.121","ngvou7v5zlj8hy1",856,"183.csv","","1.399999976158142","resources/trios/L4T2A2.jpg","37","restless",0.6,0.6,0.4,0.123175845852071,"true"
"image-keyboard-response",376,275369,"0.0-4.121-1.121","ngvou7v5zlj8hy1",856,"183.csv","","null","resources/maskTrios/L4BB.jpg","null","",NA,NA,NA,NA,""
"image-keyboard-response",377,276576,"0.0-4.121-2.121","ngvou7v5zlj8hy1",856,"183.csv","","null","resources/images/coin2.png","null","",NA,NA,NA,NA,""
"image-keyboard-response",378,276632,"0.0-4.122-0.122","ngvou7v5zlj8hy1",856,"183.csv","","54.39999997615814","resources/trios/L4T2A2.jpg","37","restless",0.6,0.6,0.4,0.743352452421695,"false"
"image-keyboard-response",379,277048,"0.0-4.122-1.122","ngvou7v5zlj8hy1",856,"183.csv","","null","resources/maskTrios/L4BB.jpg","null","",NA,NA,NA,NA,""
"image-keyboard-response",380,278250,"0.0-4.122-2.122","ngvou7v5zlj8hy1",856,"183.csv","","null","resources/images/fishbone.png","null","",NA,NA,NA,NA,""
"image-keyboard-response",381,278413,"0.0-4.123-0.123","ngvou7v5zlj8hy1",856,"183.csv","","162.09999990463257","resources/trios/L4T2A2.jpg","37","restless",0.6,0.6,0.4,0.452122429329546,"true"
"image-keyboard-response",382,278825,"0.0-4.123-1.123","ngvou7v5zlj8hy1",856,"183.csv","","null","resources/maskTrios/L4BB.jpg","null","",NA,NA,NA,NA,""
"image-keyboard-response",383,280033,"0.0-4.123-2.123","ngvou7v5zlj8hy1",856,"183.csv","","null","resources/images/coin2.png","null","",NA,NA,NA,NA,""
"image-keyboard-response",384,280216,"0.0-4.124-0.124","ngvou7v5zlj8hy1",856,"183.csv","","181.80000007152557","resources/trios/L4T2A2.jpg","37","restless",0.5,0.6,0.4,0.2169786446331,"true"
"image-keyboard-response",385,280627,"0.0-4.124-1.124","ngvou7v5zlj8hy1",856,"183.csv","","null","resources/maskTrios/L4BB.jpg","null","",NA,NA,NA,NA,""
"image-keyboard-response",386,281837,"0.0-4.124-2.124","ngvou7v5zlj8hy1",856,"183.csv","","null","resources/images/coin2.png","null","",NA,NA,NA,NA,""
"image-keyboard-response",387,282126,"0.0-4.125-0.125","ngvou7v5zlj8hy1",856,"183.csv","","287.8000000715256","resources/trios/L4T2A2.jpg","37","restless",0.5,0.6,0.4,0.448522996696338,"true"
"image-keyboard-response",388,282538,"0.0-4.125-1.125","ngvou7v5zlj8hy1",856,"183.csv","","null","resources/maskTrios/L4BB.jpg","null","",NA,NA,NA,NA,""
"image-keyboard-response",389,283741,"0.0-4.125-2.125","ngvou7v5zlj8hy1",856,"183.csv","","null","resources/images/coin2.png","null","",NA,NA,NA,NA,""
"image-keyboard-response",390,283748,"0.0-4.126-0.126","ngvou7v5zlj8hy1",856,"183.csv","","6.200000047683716","resources/trios/L4T2A2.jpg","37","restless",0.5,0.6,0.4,0.889448698540827,"false"
"image-keyboard-response",391,284154,"0.0-4.126-1.126","ngvou7v5zlj8hy1",856,"183.csv","","null","resources/maskTrios/L4BB.jpg","null","",NA,NA,NA,NA,""
"image-keyboard-response",392,285359,"0.0-4.126-2.126","ngvou7v5zlj8hy1",856,"183.csv","","null","resources/images/fishbone.png","null","",NA,NA,NA,NA,""
"image-keyboard-response",393,285562,"0.0-4.127-0.127","ngvou7v5zlj8hy1",856,"183.csv","","201.70000004768372","resources/trios/L4T2A2.jpg","37","restless",0.4,0.6,0.4,0.447124910456737,"false"
"image-keyboard-response",394,285969,"0.0-4.127-1.127","ngvou7v5zlj8hy1",856,"183.csv","","null","resources/maskTrios/L4BB.jpg","null","",NA,NA,NA,NA,""
"image-keyboard-response",395,287181,"0.0-4.127-2.127","ngvou7v5zlj8hy1",856,"183.csv","","null","resources/images/fishbone.png","null","",NA,NA,NA,NA,""
"image-keyboard-response",396,287694,"0.0-4.128-0.128","ngvou7v5zlj8hy1",856,"183.csv","","512","resources/trios/L4T2A2.jpg","37","restless",0.4,0.6,0.4,0.787095698628087,"false"
"image-keyboard-response",397,288109,"0.0-4.128-1.128","ngvou7v5zlj8hy1",856,"183.csv","","null","resources/maskTrios/L4BB.jpg","null","",NA,NA,NA,NA,""
"image-keyboard-response",398,289324,"0.0-4.128-2.128","ngvou7v5zlj8hy1",856,"183.csv","","null","resources/images/fishbone.png","null","",NA,NA,NA,NA,""
"image-keyboard-response",399,289364,"0.0-4.129-0.129","ngvou7v5zlj8hy1",856,"183.csv","","38.700000047683716","resources/trios/L4T2A2.jpg","37","restless",0.4,0.6,0.4,0.484052299843592,"false"
"image-keyboard-response",400,289775,"0.0-4.129-1.129","ngvou7v5zlj8hy1",856,"183.csv","","null","resources/maskTrios/L4BB.jpg","null","",NA,NA,NA,NA,""
"image-keyboard-response",401,290976,"0.0-4.129-2.129","ngvou7v5zlj8hy1",856,"183.csv","","null","resources/images/fishbone.png","null","",NA,NA,NA,NA,""
"image-keyboard-response",402,291458,"0.0-4.130-0.130","ngvou7v5zlj8hy1",856,"183.csv","","481.5","resources/trios/L4T2A2.jpg","37","restless",0.4,0.6,0.4,0.535434795807679,"false"
"image-keyboard-response",403,291873,"0.0-4.130-1.130","ngvou7v5zlj8hy1",856,"183.csv","","null","resources/maskTrios/L4BB.jpg","null","",NA,NA,NA,NA,""
"image-keyboard-response",404,293088,"0.0-4.130-2.130","ngvou7v5zlj8hy1",856,"183.csv","","null","resources/images/fishbone.png","null","",NA,NA,NA,NA,""
"image-keyboard-response",405,293158,"0.0-4.131-0.131","ngvou7v5zlj8hy1",856,"183.csv","","68.60000002384186","resources/trios/L4T2A2.jpg","37","restless",0.4,0.6,0.5,0.294892186813316,"true"
"image-keyboard-response",406,293561,"0.0-4.131-1.131","ngvou7v5zlj8hy1",856,"183.csv","","null","resources/maskTrios/L4BB.jpg","null","",NA,NA,NA,NA,""
"image-keyboard-response",407,294764,"0.0-4.131-2.131","ngvou7v5zlj8hy1",856,"183.csv","","null","resources/images/coin2.png","null","",NA,NA,NA,NA,""
"image-keyboard-response",408,295907,"0.0-4.132-0.132","ngvou7v5zlj8hy1",856,"183.csv","","1142.4000000953674","resources/trios/L4T2A2.jpg","37","restless",0.4,0.6,0.5,0.987813513505372,"false"
"image-keyboard-response",409,296324,"0.0-4.132-1.132","ngvou7v5zlj8hy1",856,"183.csv","","null","resources/maskTrios/L4BB.jpg","null","",NA,NA,NA,NA,""
"image-keyboard-response",410,297529,"0.0-4.132-2.132","ngvou7v5zlj8hy1",856,"183.csv","","null","resources/images/fishbone.png","null","",NA,NA,NA,NA,""
"image-keyboard-response",411,297816,"0.0-4.133-0.133","ngvou7v5zlj8hy1",856,"183.csv","","286","resources/trios/L4T2A2.jpg","37","restless",0.4,0.6,0.5,0.699564213935451,"false"
"image-keyboard-response",412,298231,"0.0-4.133-1.133","ngvou7v5zlj8hy1",856,"183.csv","","null","resources/maskTrios/L4BB.jpg","null","",NA,NA,NA,NA,""
"image-keyboard-response",413,299447,"0.0-4.133-2.133","ngvou7v5zlj8hy1",856,"183.csv","","null","resources/images/fishbone.png","null","",NA,NA,NA,NA,""
"image-keyboard-response",414,299613,"0.0-4.134-0.134","ngvou7v5zlj8hy1",856,"183.csv","","165.10000002384186","resources/trios/L4T2A2.jpg","37","restless",0.3,0.6,0.6,0.0541227247915359,"true"
"image-keyboard-response",415,300025,"0.0-4.134-1.134","ngvou7v5zlj8hy1",856,"183.csv","","null","resources/maskTrios/L4BB.jpg","null","",NA,NA,NA,NA,""
"image-keyboard-response",416,301227,"0.0-4.134-2.134","ngvou7v5zlj8hy1",856,"183.csv","","null","resources/images/coin2.png","null","",NA,NA,NA,NA,""
"image-keyboard-response",417,301412,"0.0-4.135-0.135","ngvou7v5zlj8hy1",856,"183.csv","","184.30000007152557","resources/trios/L4T2A2.jpg","37","restless",0.3,0.6,0.6,0.01364349767099,"true"
"image-keyboard-response",418,301822,"0.0-4.135-1.135","ngvou7v5zlj8hy1",856,"183.csv","","null","resources/maskTrios/L4BB.jpg","null","",NA,NA,NA,NA,""
"image-keyboard-response",419,303038,"0.0-4.135-2.135","ngvou7v5zlj8hy1",856,"183.csv","","null","resources/images/coin2.png","null","",NA,NA,NA,NA,""
"image-keyboard-response",420,303075,"0.0-4.136-0.136","ngvou7v5zlj8hy1",856,"183.csv","","35.199999928474426","resources/trios/L4T2A2.jpg","37","restless",0.3,0.6,0.6,0.922388207693839,"false"
"image-keyboard-response",421,303490,"0.0-4.136-1.136","ngvou7v5zlj8hy1",856,"183.csv","","null","resources/maskTrios/L4BB.jpg","null","",NA,NA,NA,NA,""
"image-keyboard-response",422,304694,"0.0-4.136-2.136","ngvou7v5zlj8hy1",856,"183.csv","","null","resources/images/fishbone.png","null","",NA,NA,NA,NA,""
"image-keyboard-response",423,304901,"0.0-4.137-0.137","ngvou7v5zlj8hy1",856,"183.csv","","206","resources/trios/L4T2A2.jpg","37","restless",0.3,0.6,0.6,0.582896920772901,"false"
"image-keyboard-response",424,305316,"0.0-4.137-1.137","ngvou7v5zlj8hy1",856,"183.csv","","null","resources/maskTrios/L4BB.jpg","null","",NA,NA,NA,NA,""
"image-keyboard-response",425,306523,"0.0-4.137-2.137","ngvou7v5zlj8hy1",856,"183.csv","","null","resources/images/fishbone.png","null","",NA,NA,NA,NA,""
"image-keyboard-response",426,306676,"0.0-4.138-0.138","ngvou7v5zlj8hy1",856,"183.csv","","151.79999995231628","resources/trios/L4T2A2.jpg","37","restless",0.3,0.6,0.6,0.962956513496659,"false"
"image-keyboard-response",427,307085,"0.0-4.138-1.138","ngvou7v5zlj8hy1",856,"183.csv","","null","resources/maskTrios/L4BB.jpg","null","",NA,NA,NA,NA,""
"image-keyboard-response",428,308292,"0.0-4.138-2.138","ngvou7v5zlj8hy1",856,"183.csv","","null","resources/images/fishbone.png","null","",NA,NA,NA,NA,""
"image-keyboard-response",429,308528,"0.0-4.139-0.139","ngvou7v5zlj8hy1",856,"183.csv","","234.5","resources/trios/L4T2A2.jpg","37","restless",0.3,0.6,0.6,0.726755086502256,"false"
"image-keyboard-response",430,308932,"0.0-4.139-1.139","ngvou7v5zlj8hy1",856,"183.csv","","null","resources/maskTrios/L4BB.jpg","null","",NA,NA,NA,NA,""
"image-keyboard-response",431,310138,"0.0-4.139-2.139","ngvou7v5zlj8hy1",856,"183.csv","","null","resources/images/fishbone.png","null","",NA,NA,NA,NA,""
"image-keyboard-response",432,310169,"0.0-4.140-0.140","ngvou7v5zlj8hy1",856,"183.csv","","30","resources/trios/L4T2A2.jpg","37","restless",0.3,0.6,0.6,0.634596093891656,"false"
"image-keyboard-response",433,310574,"0.0-4.140-1.140","ngvou7v5zlj8hy1",856,"183.csv","","null","resources/maskTrios/L4BB.jpg","null","",NA,NA,NA,NA,""
"image-keyboard-response",434,311789,"0.0-4.140-2.140","ngvou7v5zlj8hy1",856,"183.csv","","null","resources/images/fishbone.png","null","",NA,NA,NA,NA,""
"image-keyboard-response",435,311869,"0.0-4.141-0.141","ngvou7v5zlj8hy1",856,"183.csv","","78.70000004768372","resources/trios/L4T2A2.jpg","37","restless",0.3,0.6,0.6,0.398342906944786,"false"
"image-keyboard-response",436,312275,"0.0-4.141-1.141","ngvou7v5zlj8hy1",856,"183.csv","","null","resources/maskTrios/L4BB.jpg","null","",NA,NA,NA,NA,""
"image-keyboard-response",437,313486,"0.0-4.141-2.141","ngvou7v5zlj8hy1",856,"183.csv","","null","resources/images/fishbone.png","null","",NA,NA,NA,NA,""
"image-keyboard-response",438,313575,"0.0-4.142-0.142","ngvou7v5zlj8hy1",856,"183.csv","","86.89999997615814","resources/trios/L4T2A2.jpg","37","restless",0.3,0.6,0.6,0.19706584052487,"true"
"image-keyboard-response",439,313984,"0.0-4.142-1.142","ngvou7v5zlj8hy1",856,"183.csv","","null","resources/maskTrios/L4BB.jpg","null","",NA,NA,NA,NA,""
"image-keyboard-response",440,315188,"0.0-4.142-2.142","ngvou7v5zlj8hy1",856,"183.csv","","null","resources/images/coin2.png","null","",NA,NA,NA,NA,""
"image-keyboard-response",441,315194,"0.0-4.143-0.143","ngvou7v5zlj8hy1",856,"183.csv","","4.799999952316284","resources/trios/L4T2A2.jpg","37","restless",0.3,0.6,0.6,0.465953983246352,"false"
"image-keyboard-response",442,315610,"0.0-4.143-1.143","ngvou7v5zlj8hy1",856,"183.csv","","null","resources/maskTrios/L4BB.jpg","null","",NA,NA,NA,NA,""
"image-keyboard-response",443,316824,"0.0-4.143-2.143","ngvou7v5zlj8hy1",856,"183.csv","","null","resources/images/fishbone.png","null","",NA,NA,NA,NA,""
"image-keyboard-response",444,316841,"0.0-4.144-0.144","ngvou7v5zlj8hy1",856,"183.csv","","16.40000009536743","resources/trios/L4T2A2.jpg","37","restless",0.4,0.6,0.6,0.0599516071595971,"true"
"image-keyboard-response",445,317246,"0.0-4.144-1.144","ngvou7v5zlj8hy1",856,"183.csv","","null","resources/maskTrios/L4BB.jpg","null","",NA,NA,NA,NA,""
"image-keyboard-response",446,318451,"0.0-4.144-2.144","ngvou7v5zlj8hy1",856,"183.csv","","null","resources/images/coin2.png","null","",NA,NA,NA,NA,""
"image-keyboard-response",447,318575,"0.0-4.145-0.145","ngvou7v5zlj8hy1",856,"183.csv","","123.29999995231628","resources/trios/L4T2A2.jpg","37","restless",0.4,0.6,0.6,0.900537420823231,"false"
"image-keyboard-response",448,318983,"0.0-4.145-1.145","ngvou7v5zlj8hy1",856,"183.csv","","null","resources/maskTrios/L4BB.jpg","null","",NA,NA,NA,NA,""
"image-keyboard-response",449,320187,"0.0-4.145-2.145","ngvou7v5zlj8hy1",856,"183.csv","","null","resources/images/fishbone.png","null","",NA,NA,NA,NA,""
"image-keyboard-response",450,320322,"0.0-4.146-0.146","ngvou7v5zlj8hy1",856,"183.csv","","134.90000009536743","resources/trios/L4T2A2.jpg","37","restless",0.3,0.6,0.6,0.310554082333371,"false"
"image-keyboard-response",451,320732,"0.0-4.146-1.146","ngvou7v5zlj8hy1",856,"183.csv","","null","resources/maskTrios/L4BB.jpg","null","",NA,NA,NA,NA,""
"image-keyboard-response",452,321948,"0.0-4.146-2.146","ngvou7v5zlj8hy1",856,"183.csv","","null","resources/images/fishbone.png","null","",NA,NA,NA,NA,""
"image-keyboard-response",453,322040,"0.0-4.147-0.147","ngvou7v5zlj8hy1",856,"183.csv","","90.29999995231628","resources/trios/L4T2A2.jpg","37","restless",0.3,0.6,0.5,0.496677406417039,"false"
"image-keyboard-response",454,322445,"0.0-4.147-1.147","ngvou7v5zlj8hy1",856,"183.csv","","null","resources/maskTrios/L4BB.jpg","null","",NA,NA,NA,NA,""
"image-keyboard-response",455,323659,"0.0-4.147-2.147","ngvou7v5zlj8hy1",856,"183.csv","","null","resources/images/fishbone.png","null","",NA,NA,NA,NA,""
"image-keyboard-response",456,323769,"0.0-4.148-0.148","ngvou7v5zlj8hy1",856,"183.csv","","108.90000009536743","resources/trios/L4T2A2.jpg","37","restless",0.3,0.6,0.5,0.453023055121339,"false"
"image-keyboard-response",457,324175,"0.0-4.148-1.148","ngvou7v5zlj8hy1",856,"183.csv","","null","resources/maskTrios/L4BB.jpg","null","",NA,NA,NA,NA,""
"image-keyboard-response",458,325389,"0.0-4.148-2.148","ngvou7v5zlj8hy1",856,"183.csv","","null","resources/images/fishbone.png","null","",NA,NA,NA,NA,""
"image-keyboard-response",459,325536,"0.0-4.149-0.149","ngvou7v5zlj8hy1",856,"183.csv","","145.60000002384186","resources/trios/L4T2A2.jpg","37","restless",0.3,0.5,0.5,0.530272380632084,"false"
"image-keyboard-response",460,325947,"0.0-4.149-1.149","ngvou7v5zlj8hy1",856,"183.csv","","null","resources/maskTrios/L4BB.jpg","null","",NA,NA,NA,NA,""
"image-keyboard-response",461,327152,"0.0-4.149-2.149","ngvou7v5zlj8hy1",856,"183.csv","","null","resources/images/fishbone.png","null","",NA,NA,NA,NA,""
"image-keyboard-response",462,327533,"0.0-4.150-0.150","ngvou7v5zlj8hy1",856,"183.csv","","379.7000000476837","resources/trios/L4T2A2.jpg","37","restless",0.3,0.4,0.5,0.102071805696484,"true"
"image-keyboard-response",463,327949,"0.0-4.150-1.150","ngvou7v5zlj8hy1",856,"183.csv","","null","resources/maskTrios/L4BB.jpg","null","",NA,NA,NA,NA,""
"image-keyboard-response",464,329151,"0.0-4.150-2.150","ngvou7v5zlj8hy1",856,"183.csv","","null","resources/images/coin2.png","null","",NA,NA,NA,NA,""
"image-keyboard-response",465,329228,"0.0-4.151-0.151","ngvou7v5zlj8hy1",856,"183.csv","","75.39999997615814","resources/trios/L4T2A2.jpg","37","restless",0.3,0.4,0.5,0.896962225537963,"false"
"image-keyboard-response",466,329635,"0.0-4.151-1.151","ngvou7v5zlj8hy1",856,"183.csv","","null","resources/maskTrios/L4BB.jpg","null","",NA,NA,NA,NA,""
"image-keyboard-response",467,330839,"0.0-4.151-2.151","ngvou7v5zlj8hy1",856,"183.csv","","null","resources/images/fishbone.png","null","",NA,NA,NA,NA,""
"image-keyboard-response",468,330907,"0.0-4.152-0.152","ngvou7v5zlj8hy1",856,"183.csv","","66.39999997615814","resources/trios/L4T2A2.jpg","37","restless",0.3,0.4,0.5,0.973640796382868,"false"
"image-keyboard-response",469,331322,"0.0-4.152-1.152","ngvou7v5zlj8hy1",856,"183.csv","","null","resources/maskTrios/L4BB.jpg","null","",NA,NA,NA,NA,""
"image-keyboard-response",470,332528,"0.0-4.152-2.152","ngvou7v5zlj8hy1",856,"183.csv","","null","resources/images/fishbone.png","null","",NA,NA,NA,NA,""
"image-keyboard-response",471,332543,"0.0-4.153-0.153","ngvou7v5zlj8hy1",856,"183.csv","","14.199999928474426","resources/trios/L4T2A2.jpg","37","restless",0.3,0.4,0.5,0.404031757025072,"false"
"image-keyboard-response",472,332950,"0.0-4.153-1.153","ngvou7v5zlj8hy1",856,"183.csv","","null","resources/maskTrios/L4BB.jpg","null","",NA,NA,NA,NA,""
"image-keyboard-response",473,334163,"0.0-4.153-2.153","ngvou7v5zlj8hy1",856,"183.csv","","null","resources/images/fishbone.png","null","",NA,NA,NA,NA,""
"image-keyboard-response",474,334264,"0.0-4.154-0.154","ngvou7v5zlj8hy1",856,"183.csv","","100.5","resources/trios/L4T2A2.jpg","37","restless",0.3,0.4,0.5,0.235629419996431,"true"
"image-keyboard-response",475,334680,"0.0-4.154-1.154","ngvou7v5zlj8hy1",856,"183.csv","","null","resources/maskTrios/L4BB.jpg","null","",NA,NA,NA,NA,""
"image-keyboard-response",476,335882,"0.0-4.154-2.154","ngvou7v5zlj8hy1",856,"183.csv","","null","resources/images/coin2.png","null","",NA,NA,NA,NA,""
"image-keyboard-response",477,336008,"0.0-4.155-0.155","ngvou7v5zlj8hy1",856,"183.csv","","125","resources/trios/L4T2A2.jpg","37","restless",0.3,0.4,0.6,0.778428207703521,"false"
"image-keyboard-response",478,336413,"0.0-4.155-1.155","ngvou7v5zlj8hy1",856,"183.csv","","null","resources/maskTrios/L4BB.jpg","null","",NA,NA,NA,NA,""
"image-keyboard-response",479,337618,"0.0-4.155-2.155","ngvou7v5zlj8hy1",856,"183.csv","","null","resources/images/fishbone.png","null","",NA,NA,NA,NA,""
"image-keyboard-response",480,337716,"0.0-4.156-0.156","ngvou7v5zlj8hy1",856,"183.csv","","97.09999990463257","resources/trios/L4T2A2.jpg","37","restless",0.3,0.4,0.6,0.318739456877469,"false"
"image-keyboard-response",481,338126,"0.0-4.156-1.156","ngvou7v5zlj8hy1",856,"183.csv","","null","resources/maskTrios/L4BB.jpg","null","",NA,NA,NA,NA,""
"image-keyboard-response",482,339334,"0.0-4.156-2.156","ngvou7v5zlj8hy1",856,"183.csv","","null","resources/images/fishbone.png","null","",NA,NA,NA,NA,""
"image-keyboard-response",483,339493,"0.0-4.157-0.157","ngvou7v5zlj8hy1",856,"183.csv","","157.79999995231628","resources/trios/L4T2A2.jpg","37","restless",0.3,0.4,0.6,0.0491469939436207,"true"
"image-keyboard-response",484,339909,"0.0-4.157-1.157","ngvou7v5zlj8hy1",856,"183.csv","","null","resources/maskTrios/L4BB.jpg","null","",NA,NA,NA,NA,""
"image-keyboard-response",485,341115,"0.0-4.157-2.157","ngvou7v5zlj8hy1",856,"183.csv","","null","resources/images/coin2.png","null","",NA,NA,NA,NA,""
"image-keyboard-response",486,341168,"0.0-4.158-0.158","ngvou7v5zlj8hy1",856,"183.csv","","51.60000002384186","resources/trios/L4T2A2.jpg","37","restless",0.3,0.4,0.6,0.762630511516398,"false"
"image-keyboard-response",487,341584,"0.0-4.158-1.158","ngvou7v5zlj8hy1",856,"183.csv","","null","resources/maskTrios/L4BB.jpg","null","",NA,NA,NA,NA,""
"image-keyboard-response",488,342794,"0.0-4.158-2.158","ngvou7v5zlj8hy1",856,"183.csv","","null","resources/images/fishbone.png","null","",NA,NA,NA,NA,""
"image-keyboard-response",489,342851,"0.0-4.159-0.159","ngvou7v5zlj8hy1",856,"183.csv","","56","resources/trios/L4T2A2.jpg","37","restless",0.3,0.4,0.6,0.135238622974591,"true"
"image-keyboard-response",490,343261,"0.0-4.159-1.159","ngvou7v5zlj8hy1",856,"183.csv","","null","resources/maskTrios/L4BB.jpg","null","",NA,NA,NA,NA,""
"image-keyboard-response",491,344474,"0.0-4.159-2.159","ngvou7v5zlj8hy1",856,"183.csv","","null","resources/images/coin2.png","null","",NA,NA,NA,NA,""
"image-keyboard-response",492,344714,"0.0-4.160-0.160","ngvou7v5zlj8hy1",856,"183.csv","","238.30000007152557","resources/trios/L4T2A2.jpg","37","restless",0.4,0.4,0.6,0.379827472579383,"true"
"image-keyboard-response",493,345129,"0.0-4.160-1.160","ngvou7v5zlj8hy1",856,"183.csv","","null","resources/maskTrios/L4BB.jpg","null","",NA,NA,NA,NA,""
"image-keyboard-response",494,346345,"0.0-4.160-2.160","ngvou7v5zlj8hy1",856,"183.csv","","null","resources/images/coin2.png","null","",NA,NA,NA,NA,""
"image-keyboard-response",495,346494,"0.0-4.161-0.161","ngvou7v5zlj8hy1",856,"183.csv","","148","resources/trios/L4T2A2.jpg","37","restless",0.4,0.4,0.6,0.447986721131486,"false"
"image-keyboard-response",496,346907,"0.0-4.161-1.161","ngvou7v5zlj8hy1",856,"183.csv","","null","resources/maskTrios/L4BB.jpg","null","",NA,NA,NA,NA,""
"image-keyboard-response",497,348122,"0.0-4.161-2.161","ngvou7v5zlj8hy1",856,"183.csv","","null","resources/images/fishbone.png","null","",NA,NA,NA,NA,""
"image-keyboard-response",498,348172,"0.0-4.162-0.162","ngvou7v5zlj8hy1",856,"183.csv","","48.799999952316284","resources/trios/L4T2A2.jpg","37","restless",0.4,0.4,0.6,0.850883309818502,"false"
"image-keyboard-response",499,348577,"0.0-4.162-1.162","ngvou7v5zlj8hy1",856,"183.csv","","null","resources/maskTrios/L4BB.jpg","null","",NA,NA,NA,NA,""
"image-keyboard-response",500,349793,"0.0-4.162-2.162","ngvou7v5zlj8hy1",856,"183.csv","","null","resources/images/fishbone.png","null","",NA,NA,NA,NA,""
"image-keyboard-response",501,350077,"0.0-4.163-0.163","ngvou7v5zlj8hy1",856,"183.csv","","282.89999997615814","resources/trios/L4T2A2.jpg","37","restless",0.4,0.4,0.6,0.892406524239786,"false"
"image-keyboard-response",502,350483,"0.0-4.163-1.163","ngvou7v5zlj8hy1",856,"183.csv","","null","resources/maskTrios/L4BB.jpg","null","",NA,NA,NA,NA,""
"image-keyboard-response",503,351691,"0.0-4.163-2.163","ngvou7v5zlj8hy1",856,"183.csv","","null","resources/images/fishbone.png","null","",NA,NA,NA,NA,""
"image-keyboard-response",504,351840,"0.0-4.164-0.164","ngvou7v5zlj8hy1",856,"183.csv","","148.10000002384186","resources/trios/L4T2A2.jpg","37","restless",0.4,0.4,0.6,0.584816575324409,"false"
"image-keyboard-response",505,352253,"0.0-4.164-1.164","ngvou7v5zlj8hy1",856,"183.csv","","null","resources/maskTrios/L4BB.jpg","null","",NA,NA,NA,NA,""
"image-keyboard-response",506,353459,"0.0-4.164-2.164","ngvou7v5zlj8hy1",856,"183.csv","","null","resources/images/fishbone.png","null","",NA,NA,NA,NA,""
"image-keyboard-response",507,353484,"0.0-4.165-0.165","ngvou7v5zlj8hy1",856,"183.csv","","24","resources/trios/L4T2A2.jpg","37","restless",0.4,0.4,0.6,0.750486964528118,"false"
"image-keyboard-response",508,353895,"0.0-4.165-1.165","ngvou7v5zlj8hy1",856,"183.csv","","null","resources/maskTrios/L4BB.jpg","null","",NA,NA,NA,NA,""
"image-keyboard-response",509,355099,"0.0-4.165-2.165","ngvou7v5zlj8hy1",856,"183.csv","","null","resources/images/fishbone.png","null","",NA,NA,NA,NA,""
"image-keyboard-response",510,355332,"0.0-4.166-0.166","ngvou7v5zlj8hy1",856,"183.csv","","231.89999997615814","resources/trios/L4T2A2.jpg","37","restless",0.4,0.4,0.6,0.0303102604281171,"true"
"image-keyboard-response",511,355737,"0.0-4.166-1.166","ngvou7v5zlj8hy1",856,"183.csv","","null","resources/maskTrios/L4BB.jpg","null","",NA,NA,NA,NA,""
"image-keyboard-response",512,356953,"0.0-4.166-2.166","ngvou7v5zlj8hy1",856,"183.csv","","null","resources/images/coin2.png","null","",NA,NA,NA,NA,""
"image-keyboard-response",513,357180,"0.0-4.167-0.167","ngvou7v5zlj8hy1",856,"183.csv","","226","resources/trios/L4T2A2.jpg","37","restless",0.4,0.3,0.6,0.298569203915524,"true"
"image-keyboard-response",514,357592,"0.0-4.167-1.167","ngvou7v5zlj8hy1",856,"183.csv","","null","resources/maskTrios/L4BB.jpg","null","",NA,NA,NA,NA,""
"image-keyboard-response",515,358799,"0.0-4.167-2.167","ngvou7v5zlj8hy1",856,"183.csv","","null","resources/images/coin2.png","null","",NA,NA,NA,NA,""
"image-keyboard-response",516,358927,"0.0-4.168-0.168","ngvou7v5zlj8hy1",856,"183.csv","","127.89999997615814","resources/trios/L4T2A2.jpg","37","restless",0.4,0.3,0.6,0.655638486984934,"false"
"image-keyboard-response",517,359343,"0.0-4.168-1.168","ngvou7v5zlj8hy1",856,"183.csv","","null","resources/maskTrios/L4BB.jpg","null","",NA,NA,NA,NA,""
"image-keyboard-response",518,360545,"0.0-4.168-2.168","ngvou7v5zlj8hy1",856,"183.csv","","null","resources/images/fishbone.png","null","",NA,NA,NA,NA,""
"image-keyboard-response",519,360764,"0.0-4.169-0.169","ngvou7v5zlj8hy1",856,"183.csv","","217.90000009536743","resources/trios/L4T2A2.jpg","37","restless",0.4,0.3,0.6,0.906846315937779,"false"
"image-keyboard-response",520,361170,"0.0-4.169-1.169","ngvou7v5zlj8hy1",856,"183.csv","","null","resources/maskTrios/L4BB.jpg","null","",NA,NA,NA,NA,""
"image-keyboard-response",521,362380,"0.0-4.169-2.169","ngvou7v5zlj8hy1",856,"183.csv","","null","resources/images/fishbone.png","null","",NA,NA,NA,NA,""
"image-keyboard-response",522,362549,"0.0-4.170-0.170","ngvou7v5zlj8hy1",856,"183.csv","","167.60000002384186","resources/trios/L4T2A2.jpg","37","restless",0.4,0.3,0.6,0.719322799589486,"false"
"image-keyboard-response",523,362957,"0.0-4.170-1.170","ngvou7v5zlj8hy1",856,"183.csv","","null","resources/maskTrios/L4BB.jpg","null","",NA,NA,NA,NA,""
"image-keyboard-response",524,364173,"0.0-4.170-2.170","ngvou7v5zlj8hy1",856,"183.csv","","null","resources/images/fishbone.png","null","",NA,NA,NA,NA,""
"image-keyboard-response",525,364271,"0.0-4.171-0.171","ngvou7v5zlj8hy1",856,"183.csv","","98.10000002384186","resources/trios/L4T2A2.jpg","37","restless",0.5,0.3,0.6,0.436956726271332,"true"
"image-keyboard-response",526,364673,"0.0-4.171-1.171","ngvou7v5zlj8hy1",856,"183.csv","","null","resources/maskTrios/L4BB.jpg","null","",NA,NA,NA,NA,""
"image-keyboard-response",527,365884,"0.0-4.171-2.171","ngvou7v5zlj8hy1",856,"183.csv","","null","resources/images/coin2.png","null","",NA,NA,NA,NA,""
"image-keyboard-response",528,365923,"0.0-4.172-0.172","ngvou7v5zlj8hy1",856,"183.csv","","36.799999952316284","resources/trios/L4T2A2.jpg","37","restless",0.5,0.3,0.6,0.944167508805362,"false"
"image-keyboard-response",529,366336,"0.0-4.172-1.172","ngvou7v5zlj8hy1",856,"183.csv","","null","resources/maskTrios/L4BB.jpg","null","",NA,NA,NA,NA,""
"image-keyboard-response",530,367548,"0.0-4.172-2.172","ngvou7v5zlj8hy1",856,"183.csv","","null","resources/images/fishbone.png","null","",NA,NA,NA,NA,""
"image-keyboard-response",531,367651,"0.0-4.173-0.173","ngvou7v5zlj8hy1",856,"183.csv","","102.29999995231628","resources/trios/L4T2A2.jpg","37","restless",0.5,0.3,0.6,0.230109982899896,"true"
"image-keyboard-response",532,368062,"0.0-4.173-1.173","ngvou7v5zlj8hy1",856,"183.csv","","null","resources/maskTrios/L4BB.jpg","null","",NA,NA,NA,NA,""
"image-keyboard-response",533,369267,"0.0-4.173-2.173","ngvou7v5zlj8hy1",856,"183.csv","","null","resources/images/coin2.png","null","",NA,NA,NA,NA,""
"image-keyboard-response",534,369532,"0.0-4.174-0.174","ngvou7v5zlj8hy1",856,"183.csv","","263.6999999284744","resources/trios/L4T2A2.jpg","37","restless",0.5,0.3,0.6,0.904328591590192,"false"
"image-keyboard-response",535,369935,"0.0-4.174-1.174","ngvou7v5zlj8hy1",856,"183.csv","","null","resources/maskTrios/L4BB.jpg","null","",NA,NA,NA,NA,""
"image-keyboard-response",536,371137,"0.0-4.174-2.174","ngvou7v5zlj8hy1",856,"183.csv","","null","resources/images/fishbone.png","null","",NA,NA,NA,NA,""
"image-keyboard-response",537,371201,"0.0-4.175-0.175","ngvou7v5zlj8hy1",856,"183.csv","","62.89999997615814","resources/trios/L4T2A2.jpg","37","restless",0.5,0.4,0.6,0.693651166790567,"false"
"image-keyboard-response",538,371604,"0.0-4.175-1.175","ngvou7v5zlj8hy1",856,"183.csv","","null","resources/maskTrios/L4BB.jpg","null","",NA,NA,NA,NA,""
"image-keyboard-response",539,372809,"0.0-4.175-2.175","ngvou7v5zlj8hy1",856,"183.csv","","null","resources/images/fishbone.png","null","",NA,NA,NA,NA,""
"image-keyboard-response",540,372967,"0.0-4.176-0.176","ngvou7v5zlj8hy1",856,"183.csv","","157.10000002384186","resources/trios/L4T2A2.jpg","37","restless",0.5,0.4,0.5,0.580696363255992,"false"
"image-keyboard-response",541,373376,"0.0-4.176-1.176","ngvou7v5zlj8hy1",856,"183.csv","","null","resources/maskTrios/L4BB.jpg","null","",NA,NA,NA,NA,""
"image-keyboard-response",542,374578,"0.0-4.176-2.176","ngvou7v5zlj8hy1",856,"183.csv","","null","resources/images/fishbone.png","null","",NA,NA,NA,NA,""
"image-keyboard-response",543,374663,"0.0-4.177-0.177","ngvou7v5zlj8hy1",856,"183.csv","","83.5","resources/trios/L4T2A2.jpg","37","restless",0.5,0.4,0.5,0.8383406694905,"false"
"image-keyboard-response",544,375067,"0.0-4.177-1.177","ngvou7v5zlj8hy1",856,"183.csv","","null","resources/maskTrios/L4BB.jpg","null","",NA,NA,NA,NA,""
"image-keyboard-response",545,376271,"0.0-4.177-2.177","ngvou7v5zlj8hy1",856,"183.csv","","null","resources/images/fishbone.png","null","",NA,NA,NA,NA,""
"image-keyboard-response",546,376567,"0.0-4.178-0.178","ngvou7v5zlj8hy1",856,"183.csv","","295","resources/trios/L4T2A2.jpg","37","restless",0.5,0.3,0.5,0.485536408270896,"true"
"image-keyboard-response",547,376975,"0.0-4.178-1.178","ngvou7v5zlj8hy1",856,"183.csv","","null","resources/maskTrios/L4BB.jpg","null","",NA,NA,NA,NA,""
"image-keyboard-response",548,378190,"0.0-4.178-2.178","ngvou7v5zlj8hy1",856,"183.csv","","null","resources/images/coin2.png","null","",NA,NA,NA,NA,""
"image-keyboard-response",549,378372,"0.0-4.179-0.179","ngvou7v5zlj8hy1",856,"183.csv","","180.89999997615814","resources/trios/L4T2A2.jpg","37","restless",0.5,0.3,0.5,0.952968969544805,"false"
"image-keyboard-response",550,378785,"0.0-4.179-1.179","ngvou7v5zlj8hy1",856,"183.csv","","null","resources/maskTrios/L4BB.jpg","null","",NA,NA,NA,NA,""
"image-keyboard-response",551,379990,"0.0-4.179-2.179","ngvou7v5zlj8hy1",856,"183.csv","","null","resources/images/fishbone.png","null","",NA,NA,NA,NA,""
"image-keyboard-response",552,380176,"0.0-4.180-0.180","ngvou7v5zlj8hy1",856,"183.csv","","184.5","resources/trios/L4T2A2.jpg","37","restless",0.5,0.3,0.5,0.133874267258043,"true"
"image-keyboard-response",553,380578,"0.0-4.180-1.180","ngvou7v5zlj8hy1",856,"183.csv","","null","resources/maskTrios/L4BB.jpg","null","",NA,NA,NA,NA,""
"image-keyboard-response",554,381786,"0.0-4.180-2.180","ngvou7v5zlj8hy1",856,"183.csv","","null","resources/images/coin2.png","null","",NA,NA,NA,NA,""
"image-keyboard-response",555,381881,"0.0-4.181-0.181","ngvou7v5zlj8hy1",856,"183.csv","","93.5","resources/trios/L4T2A2.jpg","37","restless",0.5,0.3,0.5,0.395193413403031,"true"
"image-keyboard-response",556,382297,"0.0-4.181-1.181","ngvou7v5zlj8hy1",856,"183.csv","","null","resources/maskTrios/L4BB.jpg","null","",NA,NA,NA,NA,""
"image-keyboard-response",557,383499,"0.0-4.181-2.181","ngvou7v5zlj8hy1",856,"183.csv","","null","resources/images/coin2.png","null","",NA,NA,NA,NA,""
"image-keyboard-response",558,383545,"0.0-4.182-0.182","ngvou7v5zlj8hy1",856,"183.csv","","44","resources/trios/L4T2A2.jpg","37","restless",0.5,0.3,0.5,0.855273875054926,"false"
"image-keyboard-response",559,383948,"0.0-4.182-1.182","ngvou7v5zlj8hy1",856,"183.csv","","null","resources/maskTrios/L4BB.jpg","null","",NA,NA,NA,NA,""
"image-keyboard-response",560,385153,"0.0-4.182-2.182","ngvou7v5zlj8hy1",856,"183.csv","","null","resources/images/fishbone.png","null","",NA,NA,NA,NA,""
"image-keyboard-response",561,385545,"0.0-4.183-0.183","ngvou7v5zlj8hy1",856,"183.csv","","390.5","resources/trios/L4T2A2.jpg","37","restless",0.5,0.3,0.5,0.979065992282228,"false"
"image-keyboard-response",562,385949,"0.0-4.183-1.183","ngvou7v5zlj8hy1",856,"183.csv","","null","resources/maskTrios/L4BB.jpg","null","",NA,NA,NA,NA,""
"image-keyboard-response",563,387154,"0.0-4.183-2.183","ngvou7v5zlj8hy1",856,"183.csv","","null","resources/images/fishbone.png","null","",NA,NA,NA,NA,""
"image-keyboard-response",564,387206,"0.0-4.184-0.184","ngvou7v5zlj8hy1",856,"183.csv","","51.09999990463257","resources/trios/L4T2A2.jpg","37","restless",0.5,0.3,0.5,0.432143331655686,"true"
"image-keyboard-response",565,387622,"0.0-4.184-1.184","ngvou7v5zlj8hy1",856,"183.csv","","null","resources/maskTrios/L4BB.jpg","null","",NA,NA,NA,NA,""
"image-keyboard-response",566,388827,"0.0-4.184-2.184","ngvou7v5zlj8hy1",856,"183.csv","","null","resources/images/coin2.png","null","",NA,NA,NA,NA,""
"image-keyboard-response",567,389127,"0.0-4.185-0.185","ngvou7v5zlj8hy1",856,"183.csv","","298.6999999284744","resources/trios/L4T2A2.jpg","37","restless",0.5,0.3,0.5,0.996998086289543,"false"
"image-keyboard-response",568,389535,"0.0-4.185-1.185","ngvou7v5zlj8hy1",856,"183.csv","","null","resources/maskTrios/L4BB.jpg","null","",NA,NA,NA,NA,""
"image-keyboard-response",569,390742,"0.0-4.185-2.185","ngvou7v5zlj8hy1",856,"183.csv","","null","resources/images/fishbone.png","null","",NA,NA,NA,NA,""
"image-keyboard-response",570,390887,"0.0-4.186-0.186","ngvou7v5zlj8hy1",856,"183.csv","","143.30000007152557","resources/trios/L4T2A2.jpg","37","restless",0.5,0.3,0.5,0.725376502160117,"false"
"image-keyboard-response",571,391292,"0.0-4.186-1.186","ngvou7v5zlj8hy1",856,"183.csv","","null","resources/maskTrios/L4BB.jpg","null","",NA,NA,NA,NA,""
"image-keyboard-response",572,392506,"0.0-4.186-2.186","ngvou7v5zlj8hy1",856,"183.csv","","null","resources/images/fishbone.png","null","",NA,NA,NA,NA,""
"image-keyboard-response",573,392655,"0.0-4.187-0.187","ngvou7v5zlj8hy1",856,"183.csv","","148.60000002384186","resources/trios/L4T2A2.jpg","37","restless",0.5,0.3,0.6,0.0860893197679116,"true"
"image-keyboard-response",574,393071,"0.0-4.187-1.187","ngvou7v5zlj8hy1",856,"183.csv","","null","resources/maskTrios/L4BB.jpg","null","",NA,NA,NA,NA,""
"image-keyboard-response",575,394275,"0.0-4.187-2.187","ngvou7v5zlj8hy1",856,"183.csv","","null","resources/images/coin2.png","null","",NA,NA,NA,NA,""
"image-keyboard-response",576,394343,"0.0-4.188-0.188","ngvou7v5zlj8hy1",856,"183.csv","","66.69999992847443","resources/trios/L4T2A2.jpg","37","restless",0.5,0.3,0.6,0.694796000522373,"false"
"image-keyboard-response",577,394758,"0.0-4.188-1.188","ngvou7v5zlj8hy1",856,"183.csv","","null","resources/maskTrios/L4BB.jpg","null","",NA,NA,NA,NA,""
"image-keyboard-response",578,395969,"0.0-4.188-2.188","ngvou7v5zlj8hy1",856,"183.csv","","null","resources/images/fishbone.png","null","",NA,NA,NA,NA,""
"image-keyboard-response",579,395998,"0.0-4.189-0.189","ngvou7v5zlj8hy1",856,"183.csv","","28.5","resources/trios/L4T2A2.jpg","37","restless",0.4,0.3,0.6,0.768357685122032,"false"
"image-keyboard-response",580,396405,"0.0-4.189-1.189","ngvou7v5zlj8hy1",856,"183.csv","","null","resources/maskTrios/L4BB.jpg","null","",NA,NA,NA,NA,""
"image-keyboard-response",581,397608,"0.0-4.189-2.189","ngvou7v5zlj8hy1",856,"183.csv","","null","resources/images/fishbone.png","null","",NA,NA,NA,NA,""
"image-keyboard-response",582,397848,"0.0-4.190-0.190","ngvou7v5zlj8hy1",856,"183.csv","","238.70000004768372","resources/trios/L4T2A2.jpg","37","restless",0.4,0.3,0.6,0.487381165553357,"false"
"image-keyboard-response",583,398258,"0.0-4.190-1.190","ngvou7v5zlj8hy1",856,"183.csv","","null","resources/maskTrios/L4BB.jpg","null","",NA,NA,NA,NA,""
"image-keyboard-response",584,399459,"0.0-4.190-2.190","ngvou7v5zlj8hy1",856,"183.csv","","null","resources/images/fishbone.png","null","",NA,NA,NA,NA,""
"image-keyboard-response",585,399467,"0.0-4.191-0.191","ngvou7v5zlj8hy1",856,"183.csv","","7","resources/trios/L4T2A2.jpg","37","restless",0.4,0.4,0.6,0.844984452605514,"false"
"image-keyboard-response",586,399877,"0.0-4.191-1.191","ngvou7v5zlj8hy1",856,"183.csv","","null","resources/maskTrios/L4BB.jpg","null","",NA,NA,NA,NA,""
"image-keyboard-response",587,401081,"0.0-4.191-2.191","ngvou7v5zlj8hy1",856,"183.csv","","null","resources/images/fishbone.png","null","",NA,NA,NA,NA,""
"image-keyboard-response",588,401204,"0.0-4.192-0.192","ngvou7v5zlj8hy1",856,"183.csv","","122.40000009536743","resources/trios/L4T2A2.jpg","37","restless",0.4,0.4,0.7,0.606472164763515,"false"
"image-keyboard-response",589,401613,"0.0-4.192-1.192","ngvou7v5zlj8hy1",856,"183.csv","","null","resources/maskTrios/L4BB.jpg","null","",NA,NA,NA,NA,""
"image-keyboard-response",590,402816,"0.0-4.192-2.192","ngvou7v5zlj8hy1",856,"183.csv","","null","resources/images/fishbone.png","null","",NA,NA,NA,NA,""
"image-keyboard-response",591,402861,"0.0-4.193-0.193","ngvou7v5zlj8hy1",856,"183.csv","","43.800000071525574","resources/trios/L4T2A2.jpg","37","restless",0.4,0.4,0.7,0.958086987576211,"false"
"image-keyboard-response",592,403275,"0.0-4.193-1.193","ngvou7v5zlj8hy1",856,"183.csv","","null","resources/maskTrios/L4BB.jpg","null","",NA,NA,NA,NA,""
"image-keyboard-response",593,404477,"0.0-4.193-2.193","ngvou7v5zlj8hy1",856,"183.csv","","null","resources/images/fishbone.png","null","",NA,NA,NA,NA,""
"image-keyboard-response",594,404520,"0.0-4.194-0.194","ngvou7v5zlj8hy1",856,"183.csv","","41.700000047683716","resources/trios/L4T2A2.jpg","37","restless",0.4,0.4,0.7,0.153233381205959,"true"
"image-keyboard-response",595,404922,"0.0-4.194-1.194","ngvou7v5zlj8hy1",856,"183.csv","","null","resources/maskTrios/L4BB.jpg","null","",NA,NA,NA,NA,""
"image-keyboard-response",596,406128,"0.0-4.194-2.194","ngvou7v5zlj8hy1",856,"183.csv","","null","resources/images/coin2.png","null","",NA,NA,NA,NA,""
"image-keyboard-response",597,406488,"0.0-4.195-0.195","ngvou7v5zlj8hy1",856,"183.csv","","358.60000002384186","resources/trios/L4T2A2.jpg","37","restless",0.4,0.4,0.7,0.917286075819739,"false"
"image-keyboard-response",598,406904,"0.0-4.195-1.195","ngvou7v5zlj8hy1",856,"183.csv","","null","resources/maskTrios/L4BB.jpg","null","",NA,NA,NA,NA,""
"image-keyboard-response",599,408106,"0.0-4.195-2.195","ngvou7v5zlj8hy1",856,"183.csv","","null","resources/images/fishbone.png","null","",NA,NA,NA,NA,""
"image-keyboard-response",600,408473,"0.0-4.196-0.196","ngvou7v5zlj8hy1",856,"183.csv","","366.10000002384186","resources/trios/L4T2A2.jpg","37","restless",0.4,0.4,0.7,0.799573694047587,"false"
"image-keyboard-response",601,408888,"0.0-4.196-1.196","ngvou7v5zlj8hy1",856,"183.csv","","null","resources/maskTrios/L4BB.jpg","null","",NA,NA,NA,NA,""
"image-keyboard-response",602,410092,"0.0-4.196-2.196","ngvou7v5zlj8hy1",856,"183.csv","","null","resources/images/fishbone.png","null","",NA,NA,NA,NA,""
"image-keyboard-response",603,410407,"0.0-4.197-0.197","ngvou7v5zlj8hy1",856,"183.csv","","314.3000000715256","resources/trios/L4T2A2.jpg","37","restless",0.4,0.4,0.7,0.156437759480604,"true"
"image-keyboard-response",604,410821,"0.0-4.197-1.197","ngvou7v5zlj8hy1",856,"183.csv","","null","resources/maskTrios/L4BB.jpg","null","",NA,NA,NA,NA,""
"image-keyboard-response",605,412024,"0.0-4.197-2.197","ngvou7v5zlj8hy1",856,"183.csv","","null","resources/images/coin2.png","null","",NA,NA,NA,NA,""
"image-keyboard-response",606,412344,"0.0-4.198-0.198","ngvou7v5zlj8hy1",856,"183.csv","","319.40000009536743","resources/trios/L4T2A2.jpg","37","restless",0.4,0.4,0.7,0.863362124872924,"false"
"image-keyboard-response",607,412756,"0.0-4.198-1.198","ngvou7v5zlj8hy1",856,"183.csv","","null","resources/maskTrios/L4BB.jpg","null","",NA,NA,NA,NA,""
"image-keyboard-response",608,413963,"0.0-4.198-2.198","ngvou7v5zlj8hy1",856,"183.csv","","null","resources/images/fishbone.png","null","",NA,NA,NA,NA,""
