"trial_type","trial_index","time_elapsed","internal_node_id","subject","participantCode","walkNumber","success","rt","stimulus","key_press","test_part","leftProb","midProb","rightProb","generatedNum","correct"
"pavlovia",0,939,"0.0-0.0","am7nyb2k454t7ed",901,"166.csv","","","","","",NA,NA,NA,NA,""
"fullscreen",1,4072,"0.0-1.0","am7nyb2k454t7ed",901,"166.csv","true","","","","",NA,NA,NA,NA,""
"survey-html-form",2,14851,"0.0-2.0","am7nyb2k454t7ed",901,"166.csv","","10772.700000017881","","","",NA,NA,NA,NA,""
"image-keyboard-response",3,29458,"0.0-3.0-0.0","am7nyb2k454t7ed",901,"166.csv","","14600.199999988079","resources/images/parrot_nobg.png","13","",NA,NA,NA,NA,""
"image-keyboard-response",4,32462,"0.0-3.0-1.0","am7nyb2k454t7ed",901,"166.csv","","null","resources/image_sets/111.png","null","",NA,NA,NA,NA,""
"image-keyboard-response",5,44060,"0.0-3.0-2.0","am7nyb2k454t7ed",901,"166.csv","","11596.100000023842","resources/image_sets/left_highlight.png","37","",NA,NA,NA,NA,""
"image-keyboard-response",6,52396,"0.0-3.0-3.0","am7nyb2k454t7ed",901,"166.csv","","8333","resources/image_sets/mid_highlight.png","38","",NA,NA,NA,NA,""
"image-keyboard-response",7,56424,"0.0-3.0-4.0","am7nyb2k454t7ed",901,"166.csv","","4025","resources/image_sets/right_highlight.png","39","",NA,NA,NA,NA,""
"image-keyboard-response",8,65857,"0.0-3.0-5.0","am7nyb2k454t7ed",901,"166.csv","","9430.699999988079","resources/image_sets/111.png","13","",NA,NA,NA,NA,""
"image-keyboard-response",9,68024,"0.0-3.0-6.0","am7nyb2k454t7ed",901,"166.csv","","2164.7000000178814","resources/images/coin2.png","13","",NA,NA,NA,NA,""
"image-keyboard-response",10,70072,"0.0-3.0-7.0","am7nyb2k454t7ed",901,"166.csv","","2045.7000000178814","resources/images/fishbone.png","13","",NA,NA,NA,NA,""
"html-keyboard-response",11,77900,"0.0-3.0-8.0","am7nyb2k454t7ed",901,"166.csv","","7825.299999982119","<p>You can track your coin total on the top right of your screen. </p><p>At the end of your journey you will be directed to a survey, so please click on the link before exiting the task</p><p>Press Enter to begin</p>","13","",NA,NA,NA,NA,""
"image-keyboard-response",12,82391,"0.0-4.0-0.0","am7nyb2k454t7ed",901,"166.csv","","4488.200000017881","resources/trios/L1T2A2.jpg","38","restless",0.3,0.9,0.7,0.121304786283336,"true"
"image-keyboard-response",13,82801,"0.0-4.0-1.0","am7nyb2k454t7ed",901,"166.csv","","null","resources/maskTrios/BT2B.jpg","null","",NA,NA,NA,NA,""
"image-keyboard-response",14,84017,"0.0-4.0-2.0","am7nyb2k454t7ed",901,"166.csv","","null","resources/images/coin2.png","null","",NA,NA,NA,NA,""
"image-keyboard-response",15,86148,"0.0-4.1-0.1","am7nyb2k454t7ed",901,"166.csv","","2127.5","resources/trios/L1T2A2.jpg","37","restless",0.3,0.9,0.7,0.149801821548307,"true"
"image-keyboard-response",16,86555,"0.0-4.1-1.1","am7nyb2k454t7ed",901,"166.csv","","null","resources/maskTrios/L1BB.jpg","null","",NA,NA,NA,NA,""
"image-keyboard-response",17,87767,"0.0-4.1-2.1","am7nyb2k454t7ed",901,"166.csv","","null","resources/images/coin2.png","null","",NA,NA,NA,NA,""
"image-keyboard-response",18,89103,"0.0-4.2-0.2","am7nyb2k454t7ed",901,"166.csv","","1333","resources/trios/L1T2A2.jpg","39","restless",0.3,0.9,0.7,0.5358739786216,"true"
"image-keyboard-response",19,89511,"0.0-4.2-1.2","am7nyb2k454t7ed",901,"166.csv","","null","resources/maskTrios/BBA2.jpg","null","",NA,NA,NA,NA,""
"image-keyboard-response",20,90721,"0.0-4.2-2.2","am7nyb2k454t7ed",901,"166.csv","","null","resources/images/coin2.png","null","",NA,NA,NA,NA,""
"image-keyboard-response",21,91753,"0.0-4.3-0.3","am7nyb2k454t7ed",901,"166.csv","","1028.800000011921","resources/trios/L1T2A2.jpg","38","restless",0.3,0.9,0.7,0.585454805767069,"true"
"image-keyboard-response",22,92157,"0.0-4.3-1.3","am7nyb2k454t7ed",901,"166.csv","","null","resources/maskTrios/BT2B.jpg","null","",NA,NA,NA,NA,""
"image-keyboard-response",23,93367,"0.0-4.3-2.3","am7nyb2k454t7ed",901,"166.csv","","null","resources/images/coin2.png","null","",NA,NA,NA,NA,""
"image-keyboard-response",24,93867,"0.0-4.4-0.4","am7nyb2k454t7ed",901,"166.csv","","498.19999998807907","resources/trios/L1T2A2.jpg","37","restless",0.2,0.9,0.7,0.528057961536848,"false"
"image-keyboard-response",25,94277,"0.0-4.4-1.4","am7nyb2k454t7ed",901,"166.csv","","null","resources/maskTrios/L1BB.jpg","null","",NA,NA,NA,NA,""
"image-keyboard-response",26,95480,"0.0-4.4-2.4","am7nyb2k454t7ed",901,"166.csv","","null","resources/images/fishbone.png","null","",NA,NA,NA,NA,""
"image-keyboard-response",27,95839,"0.0-4.5-0.5","am7nyb2k454t7ed",901,"166.csv","","356.40000000596046","resources/trios/L1T2A2.jpg","39","restless",0.2,0.9,0.7,0.659172052035234,"true"
"image-keyboard-response",28,96246,"0.0-4.5-1.5","am7nyb2k454t7ed",901,"166.csv","","null","resources/maskTrios/BBA2.jpg","null","",NA,NA,NA,NA,""
"image-keyboard-response",29,97464,"0.0-4.5-2.5","am7nyb2k454t7ed",901,"166.csv","","null","resources/images/coin2.png","null","",NA,NA,NA,NA,""
"image-keyboard-response",30,97834,"0.0-4.6-0.6","am7nyb2k454t7ed",901,"166.csv","","366.90000000596046","resources/trios/L1T2A2.jpg","38","restless",0.2,0.9,0.7,0.889324675499448,"true"
"image-keyboard-response",31,98248,"0.0-4.6-1.6","am7nyb2k454t7ed",901,"166.csv","","null","resources/maskTrios/BT2B.jpg","null","",NA,NA,NA,NA,""
"image-keyboard-response",32,99461,"0.0-4.6-2.6","am7nyb2k454t7ed",901,"166.csv","","null","resources/images/coin2.png","null","",NA,NA,NA,NA,""
"image-keyboard-response",33,99760,"0.0-4.7-0.7","am7nyb2k454t7ed",901,"166.csv","","296","resources/trios/L1T2A2.jpg","39","restless",0.2,0.9,0.7,0.316611814882983,"true"
"image-keyboard-response",34,100174,"0.0-4.7-1.7","am7nyb2k454t7ed",901,"166.csv","","null","resources/maskTrios/BBA2.jpg","null","",NA,NA,NA,NA,""
"image-keyboard-response",35,101383,"0.0-4.7-2.7","am7nyb2k454t7ed",901,"166.csv","","null","resources/images/coin2.png","null","",NA,NA,NA,NA,""
"image-keyboard-response",36,101705,"0.0-4.8-0.8","am7nyb2k454t7ed",901,"166.csv","","318.69999998807907","resources/trios/L1T2A2.jpg","38","restless",0.2,0.9,0.7,0.817864476968773,"true"
"image-keyboard-response",37,102112,"0.0-4.8-1.8","am7nyb2k454t7ed",901,"166.csv","","null","resources/maskTrios/BT2B.jpg","null","",NA,NA,NA,NA,""
"image-keyboard-response",38,103319,"0.0-4.8-2.8","am7nyb2k454t7ed",901,"166.csv","","null","resources/images/coin2.png","null","",NA,NA,NA,NA,""
"image-keyboard-response",39,103593,"0.0-4.9-0.9","am7nyb2k454t7ed",901,"166.csv","","271.19999998807907","resources/trios/L1T2A2.jpg","39","restless",0.2,0.9,0.7,0.181799497913591,"true"
"image-keyboard-response",40,104004,"0.0-4.9-1.9","am7nyb2k454t7ed",901,"166.csv","","null","resources/maskTrios/BBA2.jpg","null","",NA,NA,NA,NA,""
"image-keyboard-response",41,105215,"0.0-4.9-2.9","am7nyb2k454t7ed",901,"166.csv","","null","resources/images/coin2.png","null","",NA,NA,NA,NA,""
"image-keyboard-response",42,105504,"0.0-4.10-0.10","am7nyb2k454t7ed",901,"166.csv","","286.80000001192093","resources/trios/L1T2A2.jpg","38","restless",0.2,0.9,0.7,0.0518598465781053,"true"
"image-keyboard-response",43,105915,"0.0-4.10-1.10","am7nyb2k454t7ed",901,"166.csv","","null","resources/maskTrios/BT2B.jpg","null","",NA,NA,NA,NA,""
"image-keyboard-response",44,107119,"0.0-4.10-2.10","am7nyb2k454t7ed",901,"166.csv","","null","resources/images/coin2.png","null","",NA,NA,NA,NA,""
"image-keyboard-response",45,107451,"0.0-4.11-0.11","am7nyb2k454t7ed",901,"166.csv","","329.39999997615814","resources/trios/L1T2A2.jpg","39","restless",0.2,0.9,0.8,0.301142496912844,"true"
"image-keyboard-response",46,107860,"0.0-4.11-1.11","am7nyb2k454t7ed",901,"166.csv","","null","resources/maskTrios/BBA2.jpg","null","",NA,NA,NA,NA,""
"image-keyboard-response",47,109065,"0.0-4.11-2.11","am7nyb2k454t7ed",901,"166.csv","","null","resources/images/coin2.png","null","",NA,NA,NA,NA,""
"image-keyboard-response",48,109447,"0.0-4.12-0.12","am7nyb2k454t7ed",901,"166.csv","","378.60000002384186","resources/trios/L1T2A2.jpg","38","restless",0.2,0.9,0.8,0.577530904749363,"true"
"image-keyboard-response",49,109866,"0.0-4.12-1.12","am7nyb2k454t7ed",901,"166.csv","","null","resources/maskTrios/BT2B.jpg","null","",NA,NA,NA,NA,""
"image-keyboard-response",50,111072,"0.0-4.12-2.12","am7nyb2k454t7ed",901,"166.csv","","null","resources/images/coin2.png","null","",NA,NA,NA,NA,""
"image-keyboard-response",51,111480,"0.0-4.13-0.13","am7nyb2k454t7ed",901,"166.csv","","405.90000000596046","resources/trios/L1T2A2.jpg","39","restless",0.2,0.9,0.8,0.973011618322041,"false"
"image-keyboard-response",52,111901,"0.0-4.13-1.13","am7nyb2k454t7ed",901,"166.csv","","null","resources/maskTrios/BBA2.jpg","null","",NA,NA,NA,NA,""
"image-keyboard-response",53,113120,"0.0-4.13-2.13","am7nyb2k454t7ed",901,"166.csv","","null","resources/images/fishbone.png","null","",NA,NA,NA,NA,""
"image-keyboard-response",54,113466,"0.0-4.14-0.14","am7nyb2k454t7ed",901,"166.csv","","343.2999999821186","resources/trios/L1T2A2.jpg","38","restless",0.2,0.9,0.8,0.197041822652761,"true"
"image-keyboard-response",55,113875,"0.0-4.14-1.14","am7nyb2k454t7ed",901,"166.csv","","null","resources/maskTrios/BT2B.jpg","null","",NA,NA,NA,NA,""
"image-keyboard-response",56,115080,"0.0-4.14-2.14","am7nyb2k454t7ed",901,"166.csv","","null","resources/images/coin2.png","null","",NA,NA,NA,NA,""
"image-keyboard-response",57,115362,"0.0-4.15-0.15","am7nyb2k454t7ed",901,"166.csv","","278.69999998807907","resources/trios/L1T2A2.jpg","38","restless",0.2,0.9,0.8,0.948361321603915,"false"
"image-keyboard-response",58,115775,"0.0-4.15-1.15","am7nyb2k454t7ed",901,"166.csv","","null","resources/maskTrios/BT2B.jpg","null","",NA,NA,NA,NA,""
"image-keyboard-response",59,116986,"0.0-4.15-2.15","am7nyb2k454t7ed",901,"166.csv","","null","resources/images/fishbone.png","null","",NA,NA,NA,NA,""
"image-keyboard-response",60,117291,"0.0-4.16-0.16","am7nyb2k454t7ed",901,"166.csv","","302.19999998807907","resources/trios/L1T2A2.jpg","37","restless",0.2,0.9,0.8,0.655159092032856,"false"
"image-keyboard-response",61,117705,"0.0-4.16-1.16","am7nyb2k454t7ed",901,"166.csv","","null","resources/maskTrios/L1BB.jpg","null","",NA,NA,NA,NA,""
"image-keyboard-response",62,118914,"0.0-4.16-2.16","am7nyb2k454t7ed",901,"166.csv","","null","resources/images/fishbone.png","null","",NA,NA,NA,NA,""
"image-keyboard-response",63,119366,"0.0-4.17-0.17","am7nyb2k454t7ed",901,"166.csv","","449.40000000596046","resources/trios/L1T2A2.jpg","39","restless",0.2,0.9,0.8,0.44672680472561,"true"
"image-keyboard-response",64,119776,"0.0-4.17-1.17","am7nyb2k454t7ed",901,"166.csv","","null","resources/maskTrios/BBA2.jpg","null","",NA,NA,NA,NA,""
"image-keyboard-response",65,120987,"0.0-4.17-2.17","am7nyb2k454t7ed",901,"166.csv","","null","resources/images/coin2.png","null","",NA,NA,NA,NA,""
"image-keyboard-response",66,121384,"0.0-4.18-0.18","am7nyb2k454t7ed",901,"166.csv","","394.30000001192093","resources/trios/L1T2A2.jpg","39","restless",0.3,0.8,0.8,0.376133911067916,"true"
"image-keyboard-response",67,121800,"0.0-4.18-1.18","am7nyb2k454t7ed",901,"166.csv","","null","resources/maskTrios/BBA2.jpg","null","",NA,NA,NA,NA,""
"image-keyboard-response",68,123003,"0.0-4.18-2.18","am7nyb2k454t7ed",901,"166.csv","","null","resources/images/coin2.png","null","",NA,NA,NA,NA,""
"image-keyboard-response",69,123288,"0.0-4.19-0.19","am7nyb2k454t7ed",901,"166.csv","","281.60000002384186","resources/trios/L1T2A2.jpg","39","restless",0.3,0.8,0.8,0.328150817189953,"true"
"image-keyboard-response",70,123698,"0.0-4.19-1.19","am7nyb2k454t7ed",901,"166.csv","","null","resources/maskTrios/BBA2.jpg","null","",NA,NA,NA,NA,""
"image-keyboard-response",71,124903,"0.0-4.19-2.19","am7nyb2k454t7ed",901,"166.csv","","null","resources/images/coin2.png","null","",NA,NA,NA,NA,""
"image-keyboard-response",72,125164,"0.0-4.20-0.20","am7nyb2k454t7ed",901,"166.csv","","257.69999998807907","resources/trios/L1T2A2.jpg","39","restless",0.3,0.8,0.8,0.813948125123321,"false"
"image-keyboard-response",73,125572,"0.0-4.20-1.20","am7nyb2k454t7ed",901,"166.csv","","null","resources/maskTrios/BBA2.jpg","null","",NA,NA,NA,NA,""
"image-keyboard-response",74,126783,"0.0-4.20-2.20","am7nyb2k454t7ed",901,"166.csv","","null","resources/images/fishbone.png","null","",NA,NA,NA,NA,""
"image-keyboard-response",75,127049,"0.0-4.21-0.21","am7nyb2k454t7ed",901,"166.csv","","262.59999999403954","resources/trios/L1T2A2.jpg","37","restless",0.3,0.8,0.8,0.657792405949694,"false"
"image-keyboard-response",76,127460,"0.0-4.21-1.21","am7nyb2k454t7ed",901,"166.csv","","null","resources/maskTrios/L1BB.jpg","null","",NA,NA,NA,NA,""
"image-keyboard-response",77,128668,"0.0-4.21-2.21","am7nyb2k454t7ed",901,"166.csv","","null","resources/images/fishbone.png","null","",NA,NA,NA,NA,""
"image-keyboard-response",78,129217,"0.0-4.22-0.22","am7nyb2k454t7ed",901,"166.csv","","546.4000000059605","resources/trios/L1T2A2.jpg","38","restless",0.3,0.7,0.9,0.412375361054604,"true"
"image-keyboard-response",79,129623,"0.0-4.22-1.22","am7nyb2k454t7ed",901,"166.csv","","null","resources/maskTrios/BT2B.jpg","null","",NA,NA,NA,NA,""
"image-keyboard-response",80,130831,"0.0-4.22-2.22","am7nyb2k454t7ed",901,"166.csv","","null","resources/images/coin2.png","null","",NA,NA,NA,NA,""
"image-keyboard-response",81,131112,"0.0-4.23-0.23","am7nyb2k454t7ed",901,"166.csv","","277.69999998807907","resources/trios/L1T2A2.jpg","38","restless",0.3,0.7,0.9,0.403843458263634,"true"
"image-keyboard-response",82,131521,"0.0-4.23-1.23","am7nyb2k454t7ed",901,"166.csv","","null","resources/maskTrios/BT2B.jpg","null","",NA,NA,NA,NA,""
"image-keyboard-response",83,132741,"0.0-4.23-2.23","am7nyb2k454t7ed",901,"166.csv","","null","resources/images/coin2.png","null","",NA,NA,NA,NA,""
"image-keyboard-response",84,133023,"0.0-4.24-0.24","am7nyb2k454t7ed",901,"166.csv","","278.90000000596046","resources/trios/L1T2A2.jpg","38","restless",0.3,0.7,0.9,0.723788931784811,"false"
"image-keyboard-response",85,133443,"0.0-4.24-1.24","am7nyb2k454t7ed",901,"166.csv","","null","resources/maskTrios/BT2B.jpg","null","",NA,NA,NA,NA,""
"image-keyboard-response",86,134661,"0.0-4.24-2.24","am7nyb2k454t7ed",901,"166.csv","","null","resources/images/fishbone.png","null","",NA,NA,NA,NA,""
"image-keyboard-response",87,134937,"0.0-4.25-0.25","am7nyb2k454t7ed",901,"166.csv","","273.2999999821186","resources/trios/L1T2A2.jpg","37","restless",0.4,0.7,0.9,0.33573333439896,"true"
"image-keyboard-response",88,135345,"0.0-4.25-1.25","am7nyb2k454t7ed",901,"166.csv","","null","resources/maskTrios/L1BB.jpg","null","",NA,NA,NA,NA,""
"image-keyboard-response",89,136564,"0.0-4.25-2.25","am7nyb2k454t7ed",901,"166.csv","","null","resources/images/coin2.png","null","",NA,NA,NA,NA,""
"image-keyboard-response",90,136884,"0.0-4.26-0.26","am7nyb2k454t7ed",901,"166.csv","","317","resources/trios/L1T2A2.jpg","37","restless",0.5,0.7,0.9,0.280613940197123,"true"
"image-keyboard-response",91,137289,"0.0-4.26-1.26","am7nyb2k454t7ed",901,"166.csv","","null","resources/maskTrios/L1BB.jpg","null","",NA,NA,NA,NA,""
"image-keyboard-response",92,138500,"0.0-4.26-2.26","am7nyb2k454t7ed",901,"166.csv","","null","resources/images/coin2.png","null","",NA,NA,NA,NA,""
"image-keyboard-response",93,138875,"0.0-4.27-0.27","am7nyb2k454t7ed",901,"166.csv","","372.39999997615814","resources/trios/L1T2A2.jpg","37","restless",0.5,0.6,0.9,0.852733965373957,"false"
"image-keyboard-response",94,139291,"0.0-4.27-1.27","am7nyb2k454t7ed",901,"166.csv","","null","resources/maskTrios/L1BB.jpg","null","",NA,NA,NA,NA,""
"image-keyboard-response",95,140511,"0.0-4.27-2.27","am7nyb2k454t7ed",901,"166.csv","","null","resources/images/fishbone.png","null","",NA,NA,NA,NA,""
"image-keyboard-response",96,141307,"0.0-4.28-0.28","am7nyb2k454t7ed",901,"166.csv","","792.9000000059605","resources/trios/L1T2A2.jpg","38","restless",0.5,0.6,0.9,0.39027249570594,"true"
"image-keyboard-response",97,141712,"0.0-4.28-1.28","am7nyb2k454t7ed",901,"166.csv","","null","resources/maskTrios/BT2B.jpg","null","",NA,NA,NA,NA,""
"image-keyboard-response",98,142921,"0.0-4.28-2.28","am7nyb2k454t7ed",901,"166.csv","","null","resources/images/coin2.png","null","",NA,NA,NA,NA,""
"image-keyboard-response",99,143174,"0.0-4.29-0.29","am7nyb2k454t7ed",901,"166.csv","","250.2999999821186","resources/trios/L1T2A2.jpg","38","restless",0.5,0.5,0.9,0.602095541548667,"false"
"image-keyboard-response",100,143588,"0.0-4.29-1.29","am7nyb2k454t7ed",901,"166.csv","","null","resources/maskTrios/BT2B.jpg","null","",NA,NA,NA,NA,""
"image-keyboard-response",101,144806,"0.0-4.29-2.29","am7nyb2k454t7ed",901,"166.csv","","null","resources/images/fishbone.png","null","",NA,NA,NA,NA,""
"image-keyboard-response",102,144981,"0.0-4.30-0.30","am7nyb2k454t7ed",901,"166.csv","","173.2999999821186","resources/trios/L1T2A2.jpg","39","restless",0.5,0.5,0.8,0.937523929753526,"false"
"image-keyboard-response",103,145388,"0.0-4.30-1.30","am7nyb2k454t7ed",901,"166.csv","","null","resources/maskTrios/BBA2.jpg","null","",NA,NA,NA,NA,""
"image-keyboard-response",104,146593,"0.0-4.30-2.30","am7nyb2k454t7ed",901,"166.csv","","null","resources/images/fishbone.png","null","",NA,NA,NA,NA,""
"image-keyboard-response",105,146822,"0.0-4.31-0.31","am7nyb2k454t7ed",901,"166.csv","","226","resources/trios/L1T2A2.jpg","37","restless",0.5,0.5,0.8,0.932333698371108,"false"
"image-keyboard-response",106,147234,"0.0-4.31-1.31","am7nyb2k454t7ed",901,"166.csv","","null","resources/maskTrios/L1BB.jpg","null","",NA,NA,NA,NA,""
"image-keyboard-response",107,148443,"0.0-4.31-2.31","am7nyb2k454t7ed",901,"166.csv","","null","resources/images/fishbone.png","null","",NA,NA,NA,NA,""
"image-keyboard-response",108,148630,"0.0-4.32-0.32","am7nyb2k454t7ed",901,"166.csv","","183.69999998807907","resources/trios/L1T2A2.jpg","38","restless",0.4,0.5,0.8,0.503564010817741,"false"
"image-keyboard-response",109,149035,"0.0-4.32-1.32","am7nyb2k454t7ed",901,"166.csv","","null","resources/maskTrios/BT2B.jpg","null","",NA,NA,NA,NA,""
"image-keyboard-response",110,150246,"0.0-4.32-2.32","am7nyb2k454t7ed",901,"166.csv","","null","resources/images/fishbone.png","null","",NA,NA,NA,NA,""
"image-keyboard-response",111,150624,"0.0-4.33-0.33","am7nyb2k454t7ed",901,"166.csv","","374.89999997615814","resources/trios/L1T2A2.jpg","38","restless",0.4,0.5,0.8,0.201634908235671,"true"
"image-keyboard-response",112,151029,"0.0-4.33-1.33","am7nyb2k454t7ed",901,"166.csv","","null","resources/maskTrios/BT2B.jpg","null","",NA,NA,NA,NA,""
"image-keyboard-response",113,152236,"0.0-4.33-2.33","am7nyb2k454t7ed",901,"166.csv","","null","resources/images/coin2.png","null","",NA,NA,NA,NA,""
"image-keyboard-response",114,152592,"0.0-4.34-0.34","am7nyb2k454t7ed",901,"166.csv","","353.30000001192093","resources/trios/L1T2A2.jpg","39","restless",0.4,0.5,0.8,0.605704943338248,"true"
"image-keyboard-response",115,153001,"0.0-4.34-1.34","am7nyb2k454t7ed",901,"166.csv","","null","resources/maskTrios/BBA2.jpg","null","",NA,NA,NA,NA,""
"image-keyboard-response",116,154213,"0.0-4.34-2.34","am7nyb2k454t7ed",901,"166.csv","","null","resources/images/coin2.png","null","",NA,NA,NA,NA,""
"image-keyboard-response",117,154480,"0.0-4.35-0.35","am7nyb2k454t7ed",901,"166.csv","","264.10000002384186","resources/trios/L1T2A2.jpg","37","restless",0.4,0.5,0.8,0.309518971590644,"true"
"image-keyboard-response",118,154893,"0.0-4.35-1.35","am7nyb2k454t7ed",901,"166.csv","","null","resources/maskTrios/L1BB.jpg","null","",NA,NA,NA,NA,""
"image-keyboard-response",119,156100,"0.0-4.35-2.35","am7nyb2k454t7ed",901,"166.csv","","null","resources/images/coin2.png","null","",NA,NA,NA,NA,""
"image-keyboard-response",120,156592,"0.0-4.36-0.36","am7nyb2k454t7ed",901,"166.csv","","490","resources/trios/L1T2A2.jpg","38","restless",0.4,0.5,0.8,0.581610185467465,"false"
"image-keyboard-response",121,156996,"0.0-4.36-1.36","am7nyb2k454t7ed",901,"166.csv","","null","resources/maskTrios/BT2B.jpg","null","",NA,NA,NA,NA,""
"image-keyboard-response",122,158209,"0.0-4.36-2.36","am7nyb2k454t7ed",901,"166.csv","","null","resources/images/fishbone.png","null","",NA,NA,NA,NA,""
"image-keyboard-response",123,158358,"0.0-4.37-0.37","am7nyb2k454t7ed",901,"166.csv","","145.90000000596046","resources/trios/L1T2A2.jpg","39","restless",0.4,0.5,0.9,0.217902156757869,"true"
"image-keyboard-response",124,158766,"0.0-4.37-1.37","am7nyb2k454t7ed",901,"166.csv","","null","resources/maskTrios/BBA2.jpg","null","",NA,NA,NA,NA,""
"image-keyboard-response",125,159984,"0.0-4.37-2.37","am7nyb2k454t7ed",901,"166.csv","","null","resources/images/coin2.png","null","",NA,NA,NA,NA,""
"image-keyboard-response",126,160236,"0.0-4.38-0.38","am7nyb2k454t7ed",901,"166.csv","","249","resources/trios/L1T2A2.jpg","39","restless",0.4,0.5,0.9,0.953198515372408,"false"
"image-keyboard-response",127,160651,"0.0-4.38-1.38","am7nyb2k454t7ed",901,"166.csv","","null","resources/maskTrios/BBA2.jpg","null","",NA,NA,NA,NA,""
"image-keyboard-response",128,161861,"0.0-4.38-2.38","am7nyb2k454t7ed",901,"166.csv","","null","resources/images/fishbone.png","null","",NA,NA,NA,NA,""
"image-keyboard-response",129,162109,"0.0-4.39-0.39","am7nyb2k454t7ed",901,"166.csv","","245.80000001192093","resources/trios/L1T2A2.jpg","37","restless",0.4,0.6,0.9,0.13032058903765,"true"
"image-keyboard-response",130,162521,"0.0-4.39-1.39","am7nyb2k454t7ed",901,"166.csv","","null","resources/maskTrios/L1BB.jpg","null","",NA,NA,NA,NA,""
"image-keyboard-response",131,163726,"0.0-4.39-2.39","am7nyb2k454t7ed",901,"166.csv","","null","resources/images/coin2.png","null","",NA,NA,NA,NA,""
"image-keyboard-response",132,163874,"0.0-4.40-0.40","am7nyb2k454t7ed",901,"166.csv","","145.5","resources/trios/L1T2A2.jpg","37","restless",0.4,0.6,0.9,0.868298942916195,"false"
"image-keyboard-response",133,164289,"0.0-4.40-1.40","am7nyb2k454t7ed",901,"166.csv","","null","resources/maskTrios/L1BB.jpg","null","",NA,NA,NA,NA,""
"image-keyboard-response",134,165492,"0.0-4.40-2.40","am7nyb2k454t7ed",901,"166.csv","","null","resources/images/fishbone.png","null","",NA,NA,NA,NA,""
"image-keyboard-response",135,165779,"0.0-4.41-0.41","am7nyb2k454t7ed",901,"166.csv","","284.59999999403954","resources/trios/L1T2A2.jpg","38","restless",0.4,0.6,0.9,0.689096632862287,"false"
"image-keyboard-response",136,166190,"0.0-4.41-1.41","am7nyb2k454t7ed",901,"166.csv","","null","resources/maskTrios/BT2B.jpg","null","",NA,NA,NA,NA,""
"image-keyboard-response",137,167401,"0.0-4.41-2.41","am7nyb2k454t7ed",901,"166.csv","","null","resources/images/fishbone.png","null","",NA,NA,NA,NA,""
"image-keyboard-response",138,167705,"0.0-4.42-0.42","am7nyb2k454t7ed",901,"166.csv","","301.2000000178814","resources/trios/L1T2A2.jpg","39","restless",0.5,0.6,0.9,0.904326900648877,"false"
"image-keyboard-response",139,168110,"0.0-4.42-1.42","am7nyb2k454t7ed",901,"166.csv","","null","resources/maskTrios/BBA2.jpg","null","",NA,NA,NA,NA,""
"image-keyboard-response",140,169323,"0.0-4.42-2.42","am7nyb2k454t7ed",901,"166.csv","","null","resources/images/fishbone.png","null","",NA,NA,NA,NA,""
"image-keyboard-response",141,169591,"0.0-4.43-0.43","am7nyb2k454t7ed",901,"166.csv","","265.40000000596046","resources/trios/L1T2A2.jpg","37","restless",0.5,0.6,0.9,0.695438736291392,"false"
"image-keyboard-response",142,169999,"0.0-4.43-1.43","am7nyb2k454t7ed",901,"166.csv","","null","resources/maskTrios/L1BB.jpg","null","",NA,NA,NA,NA,""
"image-keyboard-response",143,171205,"0.0-4.43-2.43","am7nyb2k454t7ed",901,"166.csv","","null","resources/images/fishbone.png","null","",NA,NA,NA,NA,""
"image-keyboard-response",144,171518,"0.0-4.44-0.44","am7nyb2k454t7ed",901,"166.csv","","310.19999998807907","resources/trios/L1T2A2.jpg","38","restless",0.5,0.6,0.9,0.0250907564048579,"true"
"image-keyboard-response",145,171925,"0.0-4.44-1.44","am7nyb2k454t7ed",901,"166.csv","","null","resources/maskTrios/BT2B.jpg","null","",NA,NA,NA,NA,""
"image-keyboard-response",146,173132,"0.0-4.44-2.44","am7nyb2k454t7ed",901,"166.csv","","null","resources/images/coin2.png","null","",NA,NA,NA,NA,""
"image-keyboard-response",147,173404,"0.0-4.45-0.45","am7nyb2k454t7ed",901,"166.csv","","269.40000000596046","resources/trios/L1T2A2.jpg","38","restless",0.5,0.5,0.9,0.581440208956783,"false"
"image-keyboard-response",148,173817,"0.0-4.45-1.45","am7nyb2k454t7ed",901,"166.csv","","null","resources/maskTrios/BT2B.jpg","null","",NA,NA,NA,NA,""
"image-keyboard-response",149,175025,"0.0-4.45-2.45","am7nyb2k454t7ed",901,"166.csv","","null","resources/images/fishbone.png","null","",NA,NA,NA,NA,""
"image-keyboard-response",150,175309,"0.0-4.46-0.46","am7nyb2k454t7ed",901,"166.csv","","280.2999999821186","resources/trios/L1T2A2.jpg","37","restless",0.5,0.5,0.9,0.336479947745363,"true"
"image-keyboard-response",151,175717,"0.0-4.46-1.46","am7nyb2k454t7ed",901,"166.csv","","null","resources/maskTrios/L1BB.jpg","null","",NA,NA,NA,NA,""
"image-keyboard-response",152,176926,"0.0-4.46-2.46","am7nyb2k454t7ed",901,"166.csv","","null","resources/images/coin2.png","null","",NA,NA,NA,NA,""
"image-keyboard-response",153,177136,"0.0-4.47-0.47","am7nyb2k454t7ed",901,"166.csv","","207.2000000178814","resources/trios/L1T2A2.jpg","37","restless",0.5,0.5,0.9,0.291115947767727,"true"
"image-keyboard-response",154,177554,"0.0-4.47-1.47","am7nyb2k454t7ed",901,"166.csv","","null","resources/maskTrios/L1BB.jpg","null","",NA,NA,NA,NA,""
"image-keyboard-response",155,178765,"0.0-4.47-2.47","am7nyb2k454t7ed",901,"166.csv","","null","resources/images/coin2.png","null","",NA,NA,NA,NA,""
"image-keyboard-response",156,179185,"0.0-4.48-0.48","am7nyb2k454t7ed",901,"166.csv","","416.59999999403954","resources/trios/L1T2A2.jpg","39","restless",0.5,0.5,0.9,0.889107950017389,"true"
"image-keyboard-response",157,179593,"0.0-4.48-1.48","am7nyb2k454t7ed",901,"166.csv","","null","resources/maskTrios/BBA2.jpg","null","",NA,NA,NA,NA,""
"image-keyboard-response",158,180800,"0.0-4.48-2.48","am7nyb2k454t7ed",901,"166.csv","","null","resources/images/coin2.png","null","",NA,NA,NA,NA,""
"image-keyboard-response",159,181045,"0.0-4.49-0.49","am7nyb2k454t7ed",901,"166.csv","","241.2000000178814","resources/trios/L1T2A2.jpg","39","restless",0.5,0.5,0.8,0.644984802177201,"true"
"image-keyboard-response",160,181457,"0.0-4.49-1.49","am7nyb2k454t7ed",901,"166.csv","","null","resources/maskTrios/BBA2.jpg","null","",NA,NA,NA,NA,""
"image-keyboard-response",161,182669,"0.0-4.49-2.49","am7nyb2k454t7ed",901,"166.csv","","null","resources/images/coin2.png","null","",NA,NA,NA,NA,""
"image-keyboard-response",162,183129,"0.0-4.50-0.50","am7nyb2k454t7ed",901,"166.csv","","457.2000000178814","resources/trios/L1T2A2.jpg","38","restless",0.4,0.6,0.8,0.347705988085034,"true"
"image-keyboard-response",163,183536,"0.0-4.50-1.50","am7nyb2k454t7ed",901,"166.csv","","null","resources/maskTrios/BT2B.jpg","null","",NA,NA,NA,NA,""
"image-keyboard-response",164,184740,"0.0-4.50-2.50","am7nyb2k454t7ed",901,"166.csv","","null","resources/images/coin2.png","null","",NA,NA,NA,NA,""
"image-keyboard-response",165,184931,"0.0-4.51-0.51","am7nyb2k454t7ed",901,"166.csv","","188.30000001192093","resources/trios/L1T2A2.jpg","38","restless",0.4,0.5,0.8,0.686073532812798,"false"
"image-keyboard-response",166,185337,"0.0-4.51-1.51","am7nyb2k454t7ed",901,"166.csv","","null","resources/maskTrios/BT2B.jpg","null","",NA,NA,NA,NA,""
"image-keyboard-response",167,186541,"0.0-4.51-2.51","am7nyb2k454t7ed",901,"166.csv","","null","resources/images/fishbone.png","null","",NA,NA,NA,NA,""
"image-keyboard-response",168,186787,"0.0-4.52-0.52","am7nyb2k454t7ed",901,"166.csv","","244.09999999403954","resources/trios/L1T2A2.jpg","37","restless",0.3,0.5,0.8,0.751435228936679,"false"
"image-keyboard-response",169,187196,"0.0-4.52-1.52","am7nyb2k454t7ed",901,"166.csv","","null","resources/maskTrios/L1BB.jpg","null","",NA,NA,NA,NA,""
"image-keyboard-response",170,188406,"0.0-4.52-2.52","am7nyb2k454t7ed",901,"166.csv","","null","resources/images/fishbone.png","null","",NA,NA,NA,NA,""
"image-keyboard-response",171,188970,"0.0-4.53-0.53","am7nyb2k454t7ed",901,"166.csv","","561.5","resources/trios/L1T2A2.jpg","39","restless",0.2,0.5,0.8,0.869890069870225,"false"
"image-keyboard-response",172,189378,"0.0-4.53-1.53","am7nyb2k454t7ed",901,"166.csv","","null","resources/maskTrios/BBA2.jpg","null","",NA,NA,NA,NA,""
"image-keyboard-response",173,190588,"0.0-4.53-2.53","am7nyb2k454t7ed",901,"166.csv","","null","resources/images/fishbone.png","null","",NA,NA,NA,NA,""
"image-keyboard-response",174,190837,"0.0-4.54-0.54","am7nyb2k454t7ed",901,"166.csv","","246.59999999403954","resources/trios/L1T2A2.jpg","38","restless",0.3,0.4,0.8,0.602289462303644,"false"
"image-keyboard-response",175,191245,"0.0-4.54-1.54","am7nyb2k454t7ed",901,"166.csv","","null","resources/maskTrios/BT2B.jpg","null","",NA,NA,NA,NA,""
"image-keyboard-response",176,192455,"0.0-4.54-2.54","am7nyb2k454t7ed",901,"166.csv","","null","resources/images/fishbone.png","null","",NA,NA,NA,NA,""
"image-keyboard-response",177,192694,"0.0-4.55-0.55","am7nyb2k454t7ed",901,"166.csv","","236.69999998807907","resources/trios/L1T2A2.jpg","37","restless",0.3,0.4,0.8,0.142785405859873,"true"
"image-keyboard-response",178,193100,"0.0-4.55-1.55","am7nyb2k454t7ed",901,"166.csv","","null","resources/maskTrios/L1BB.jpg","null","",NA,NA,NA,NA,""
"image-keyboard-response",179,194309,"0.0-4.55-2.55","am7nyb2k454t7ed",901,"166.csv","","null","resources/images/coin2.png","null","",NA,NA,NA,NA,""
"image-keyboard-response",180,194634,"0.0-4.56-0.56","am7nyb2k454t7ed",901,"166.csv","","322.90000000596046","resources/trios/L1T2A2.jpg","37","restless",0.2,0.4,0.8,0.00346494511115814,"true"
"image-keyboard-response",181,195053,"0.0-4.56-1.56","am7nyb2k454t7ed",901,"166.csv","","null","resources/maskTrios/L1BB.jpg","null","",NA,NA,NA,NA,""
"image-keyboard-response",182,196260,"0.0-4.56-2.56","am7nyb2k454t7ed",901,"166.csv","","null","resources/images/coin2.png","null","",NA,NA,NA,NA,""
"image-keyboard-response",183,196804,"0.0-4.57-0.57","am7nyb2k454t7ed",901,"166.csv","","541.7999999821186","resources/trios/L1T2A2.jpg","37","restless",0.2,0.4,0.8,0.286870288239789,"false"
"image-keyboard-response",184,197223,"0.0-4.57-1.57","am7nyb2k454t7ed",901,"166.csv","","null","resources/maskTrios/L1BB.jpg","null","",NA,NA,NA,NA,""
"image-keyboard-response",185,198432,"0.0-4.57-2.57","am7nyb2k454t7ed",901,"166.csv","","null","resources/images/fishbone.png","null","",NA,NA,NA,NA,""
"image-keyboard-response",186,198440,"0.0-4.58-0.58","am7nyb2k454t7ed",901,"166.csv","","5.0999999940395355","resources/trios/L1T2A2.jpg","39","restless",0.2,0.5,0.8,0.124726538160771,"true"
"image-keyboard-response",187,198851,"0.0-4.58-1.58","am7nyb2k454t7ed",901,"166.csv","","null","resources/maskTrios/BBA2.jpg","null","",NA,NA,NA,NA,""
"image-keyboard-response",188,200060,"0.0-4.58-2.58","am7nyb2k454t7ed",901,"166.csv","","null","resources/images/coin2.png","null","",NA,NA,NA,NA,""
"image-keyboard-response",189,200330,"0.0-4.59-0.59","am7nyb2k454t7ed",901,"166.csv","","267.80000001192093","resources/trios/L1T2A2.jpg","39","restless",0.2,0.5,0.7,0.353690191691376,"true"
"image-keyboard-response",190,200742,"0.0-4.59-1.59","am7nyb2k454t7ed",901,"166.csv","","null","resources/maskTrios/BBA2.jpg","null","",NA,NA,NA,NA,""
"image-keyboard-response",191,201953,"0.0-4.59-2.59","am7nyb2k454t7ed",901,"166.csv","","null","resources/images/coin2.png","null","",NA,NA,NA,NA,""
"image-keyboard-response",192,202220,"0.0-4.60-0.60","am7nyb2k454t7ed",901,"166.csv","","263.2000000178814","resources/trios/L1T2A2.jpg","39","restless",0.2,0.5,0.7,0.372599932215389,"true"
"image-keyboard-response",193,202631,"0.0-4.60-1.60","am7nyb2k454t7ed",901,"166.csv","","null","resources/maskTrios/BBA2.jpg","null","",NA,NA,NA,NA,""
"image-keyboard-response",194,203844,"0.0-4.60-2.60","am7nyb2k454t7ed",901,"166.csv","","null","resources/images/coin2.png","null","",NA,NA,NA,NA,""
"image-keyboard-response",195,203850,"0.0-4.61-0.61","am7nyb2k454t7ed",901,"166.csv","","3.800000011920929","resources/trios/L1T2A2.jpg","39","restless",0.2,0.5,0.6,0.328275989756538,"true"
"image-keyboard-response",196,204271,"0.0-4.61-1.61","am7nyb2k454t7ed",901,"166.csv","","null","resources/maskTrios/BBA2.jpg","null","",NA,NA,NA,NA,""
"image-keyboard-response",197,205482,"0.0-4.61-2.61","am7nyb2k454t7ed",901,"166.csv","","null","resources/images/coin2.png","null","",NA,NA,NA,NA,""
"image-keyboard-response",198,205744,"0.0-4.62-0.62","am7nyb2k454t7ed",901,"166.csv","","259.09999999403954","resources/trios/L1T2A2.jpg","39","restless",0.2,0.5,0.6,0.487435959232567,"true"
"image-keyboard-response",199,206163,"0.0-4.62-1.62","am7nyb2k454t7ed",901,"166.csv","","null","resources/maskTrios/BBA2.jpg","null","",NA,NA,NA,NA,""
"image-keyboard-response",200,207373,"0.0-4.62-2.62","am7nyb2k454t7ed",901,"166.csv","","null","resources/images/coin2.png","null","",NA,NA,NA,NA,""
"image-keyboard-response",201,207627,"0.0-4.63-0.63","am7nyb2k454t7ed",901,"166.csv","","250.59999999403954","resources/trios/L1T2A2.jpg","39","restless",0.2,0.6,0.6,0.498795039527415,"true"
"image-keyboard-response",202,208038,"0.0-4.63-1.63","am7nyb2k454t7ed",901,"166.csv","","null","resources/maskTrios/BBA2.jpg","null","",NA,NA,NA,NA,""
"image-keyboard-response",203,209244,"0.0-4.63-2.63","am7nyb2k454t7ed",901,"166.csv","","null","resources/images/coin2.png","null","",NA,NA,NA,NA,""
"image-keyboard-response",204,209480,"0.0-4.64-0.64","am7nyb2k454t7ed",901,"166.csv","","232.5","resources/trios/L1T2A2.jpg","39","restless",0.2,0.6,0.6,0.356119811416284,"true"
"image-keyboard-response",205,209894,"0.0-4.64-1.64","am7nyb2k454t7ed",901,"166.csv","","null","resources/maskTrios/BBA2.jpg","null","",NA,NA,NA,NA,""
"image-keyboard-response",206,211101,"0.0-4.64-2.64","am7nyb2k454t7ed",901,"166.csv","","null","resources/images/coin2.png","null","",NA,NA,NA,NA,""
"image-keyboard-response",207,211477,"0.0-4.65-0.65","am7nyb2k454t7ed",901,"166.csv","","372.89999997615814","resources/trios/L1T2A2.jpg","39","restless",0.2,0.6,0.6,0.294360970720169,"true"
"image-keyboard-response",208,211886,"0.0-4.65-1.65","am7nyb2k454t7ed",901,"166.csv","","null","resources/maskTrios/BBA2.jpg","null","",NA,NA,NA,NA,""
"image-keyboard-response",209,213093,"0.0-4.65-2.65","am7nyb2k454t7ed",901,"166.csv","","null","resources/images/coin2.png","null","",NA,NA,NA,NA,""
"image-keyboard-response",210,213353,"0.0-4.66-0.66","am7nyb2k454t7ed",901,"166.csv","","257.30000001192093","resources/trios/L1T2A2.jpg","39","restless",0.2,0.6,0.6,0.471026399423734,"true"
"image-keyboard-response",211,213766,"0.0-4.66-1.66","am7nyb2k454t7ed",901,"166.csv","","null","resources/maskTrios/BBA2.jpg","null","",NA,NA,NA,NA,""
"image-keyboard-response",212,214974,"0.0-4.66-2.66","am7nyb2k454t7ed",901,"166.csv","","null","resources/images/coin2.png","null","",NA,NA,NA,NA,""
"image-keyboard-response",213,215210,"0.0-4.67-0.67","am7nyb2k454t7ed",901,"166.csv","","232.80000001192093","resources/trios/L1T2A2.jpg","39","restless",0.2,0.6,0.6,0.615210517331241,"false"
"image-keyboard-response",214,215615,"0.0-4.67-1.67","am7nyb2k454t7ed",901,"166.csv","","null","resources/maskTrios/BBA2.jpg","null","",NA,NA,NA,NA,""
"image-keyboard-response",215,216824,"0.0-4.67-2.67","am7nyb2k454t7ed",901,"166.csv","","null","resources/images/fishbone.png","null","",NA,NA,NA,NA,""
"image-keyboard-response",216,217239,"0.0-4.68-0.68","am7nyb2k454t7ed",901,"166.csv","","411.69999998807907","resources/trios/L1T2A2.jpg","38","restless",0.2,0.6,0.6,0.536664546279628,"true"
"image-keyboard-response",217,217651,"0.0-4.68-1.68","am7nyb2k454t7ed",901,"166.csv","","null","resources/maskTrios/BT2B.jpg","null","",NA,NA,NA,NA,""
"image-keyboard-response",218,218863,"0.0-4.68-2.68","am7nyb2k454t7ed",901,"166.csv","","null","resources/images/coin2.png","null","",NA,NA,NA,NA,""
"image-keyboard-response",219,219051,"0.0-4.69-0.69","am7nyb2k454t7ed",901,"166.csv","","185.39999997615814","resources/trios/L1T2A2.jpg","38","restless",0.2,0.6,0.6,0.0627495894930421,"true"
"image-keyboard-response",220,219458,"0.0-4.69-1.69","am7nyb2k454t7ed",901,"166.csv","","null","resources/maskTrios/BT2B.jpg","null","",NA,NA,NA,NA,""
"image-keyboard-response",221,220673,"0.0-4.69-2.69","am7nyb2k454t7ed",901,"166.csv","","null","resources/images/coin2.png","null","",NA,NA,NA,NA,""
"image-keyboard-response",222,220821,"0.0-4.70-0.70","am7nyb2k454t7ed",901,"166.csv","","145.09999999403954","resources/trios/L1T2A2.jpg","38","restless",0.3,0.6,0.6,0.599994786813299,"true"
"image-keyboard-response",223,221235,"0.0-4.70-1.70","am7nyb2k454t7ed",901,"166.csv","","null","resources/maskTrios/BT2B.jpg","null","",NA,NA,NA,NA,""
"image-keyboard-response",224,222439,"0.0-4.70-2.70","am7nyb2k454t7ed",901,"166.csv","","null","resources/images/coin2.png","null","",NA,NA,NA,NA,""
"image-keyboard-response",225,222447,"0.0-4.71-0.71","am7nyb2k454t7ed",901,"166.csv","","5.0999999940395355","resources/trios/L1T2A2.jpg","38","restless",0.3,0.5,0.6,0.119983665098296,"true"
"image-keyboard-response",226,222858,"0.0-4.71-1.71","am7nyb2k454t7ed",901,"166.csv","","null","resources/maskTrios/BT2B.jpg","null","",NA,NA,NA,NA,""
"image-keyboard-response",227,224073,"0.0-4.71-2.71","am7nyb2k454t7ed",901,"166.csv","","null","resources/images/coin2.png","null","",NA,NA,NA,NA,""
"image-keyboard-response",228,224364,"0.0-4.72-0.72","am7nyb2k454t7ed",901,"166.csv","","288","resources/trios/L1T2A2.jpg","38","restless",0.3,0.5,0.6,0.630886282591939,"false"
"image-keyboard-response",229,224773,"0.0-4.72-1.72","am7nyb2k454t7ed",901,"166.csv","","null","resources/maskTrios/BT2B.jpg","null","",NA,NA,NA,NA,""
"image-keyboard-response",230,225982,"0.0-4.72-2.72","am7nyb2k454t7ed",901,"166.csv","","null","resources/images/fishbone.png","null","",NA,NA,NA,NA,""
"image-keyboard-response",231,226299,"0.0-4.73-0.73","am7nyb2k454t7ed",901,"166.csv","","313.59999999403954","resources/trios/L1T2A2.jpg","37","restless",0.3,0.5,0.6,0.469980707769436,"false"
"image-keyboard-response",232,226707,"0.0-4.73-1.73","am7nyb2k454t7ed",901,"166.csv","","null","resources/maskTrios/L1BB.jpg","null","",NA,NA,NA,NA,""
"image-keyboard-response",233,227911,"0.0-4.73-2.73","am7nyb2k454t7ed",901,"166.csv","","null","resources/images/fishbone.png","null","",NA,NA,NA,NA,""
"image-keyboard-response",234,228167,"0.0-4.74-0.74","am7nyb2k454t7ed",901,"166.csv","","252.5","resources/trios/L1T2A2.jpg","37","restless",0.3,0.5,0.6,0.403672694675532,"false"
"image-keyboard-response",235,228578,"0.0-4.74-1.74","am7nyb2k454t7ed",901,"166.csv","","null","resources/maskTrios/L1BB.jpg","null","",NA,NA,NA,NA,""
"image-keyboard-response",236,229789,"0.0-4.74-2.74","am7nyb2k454t7ed",901,"166.csv","","null","resources/images/fishbone.png","null","",NA,NA,NA,NA,""
"image-keyboard-response",237,230043,"0.0-4.75-0.75","am7nyb2k454t7ed",901,"166.csv","","251.69999998807907","resources/trios/L1T2A2.jpg","37","restless",0.3,0.5,0.6,0.528303070551389,"false"
"image-keyboard-response",238,230448,"0.0-4.75-1.75","am7nyb2k454t7ed",901,"166.csv","","null","resources/maskTrios/L1BB.jpg","null","",NA,NA,NA,NA,""
"image-keyboard-response",239,231652,"0.0-4.75-2.75","am7nyb2k454t7ed",901,"166.csv","","null","resources/images/fishbone.png","null","",NA,NA,NA,NA,""
"image-keyboard-response",240,232032,"0.0-4.76-0.76","am7nyb2k454t7ed",901,"166.csv","","377.89999997615814","resources/trios/L1T2A2.jpg","39","restless",0.3,0.5,0.6,0.00674601460857405,"true"
"image-keyboard-response",241,232450,"0.0-4.76-1.76","am7nyb2k454t7ed",901,"166.csv","","null","resources/maskTrios/BBA2.jpg","null","",NA,NA,NA,NA,""
"image-keyboard-response",242,233655,"0.0-4.76-2.76","am7nyb2k454t7ed",901,"166.csv","","null","resources/images/coin2.png","null","",NA,NA,NA,NA,""
"image-keyboard-response",243,233911,"0.0-4.77-0.77","am7nyb2k454t7ed",901,"166.csv","","254","resources/trios/L1T2A2.jpg","39","restless",0.4,0.5,0.6,0.613795534943192,"false"
"image-keyboard-response",244,234326,"0.0-4.77-1.77","am7nyb2k454t7ed",901,"166.csv","","null","resources/maskTrios/BBA2.jpg","null","",NA,NA,NA,NA,""
"image-keyboard-response",245,235537,"0.0-4.77-2.77","am7nyb2k454t7ed",901,"166.csv","","null","resources/images/fishbone.png","null","",NA,NA,NA,NA,""
"image-keyboard-response",246,235706,"0.0-4.78-0.78","am7nyb2k454t7ed",901,"166.csv","","166.7000000178814","resources/trios/L1T2A2.jpg","38","restless",0.4,0.5,0.6,0.134506708863118,"true"
"image-keyboard-response",247,236115,"0.0-4.78-1.78","am7nyb2k454t7ed",901,"166.csv","","null","resources/maskTrios/BT2B.jpg","null","",NA,NA,NA,NA,""
"image-keyboard-response",248,237319,"0.0-4.78-2.78","am7nyb2k454t7ed",901,"166.csv","","null","resources/images/coin2.png","null","",NA,NA,NA,NA,""
"image-keyboard-response",249,237437,"0.0-4.79-0.79","am7nyb2k454t7ed",901,"166.csv","","114.90000000596046","resources/trios/L1T2A2.jpg","38","restless",0.4,0.6,0.6,0.0181199872997766,"true"
"image-keyboard-response",250,237846,"0.0-4.79-1.79","am7nyb2k454t7ed",901,"166.csv","","null","resources/maskTrios/BT2B.jpg","null","",NA,NA,NA,NA,""
"image-keyboard-response",251,239058,"0.0-4.79-2.79","am7nyb2k454t7ed",901,"166.csv","","null","resources/images/coin2.png","null","",NA,NA,NA,NA,""
"image-keyboard-response",252,239159,"0.0-4.80-0.80","am7nyb2k454t7ed",901,"166.csv","","98.80000001192093","resources/trios/L1T2A2.jpg","38","restless",0.4,0.6,0.6,0.698522760167697,"false"
"image-keyboard-response",253,239576,"0.0-4.80-1.80","am7nyb2k454t7ed",901,"166.csv","","null","resources/maskTrios/BT2B.jpg","null","",NA,NA,NA,NA,""
"image-keyboard-response",254,240782,"0.0-4.80-2.80","am7nyb2k454t7ed",901,"166.csv","","null","resources/images/fishbone.png","null","",NA,NA,NA,NA,""
"image-keyboard-response",255,241275,"0.0-4.81-0.81","am7nyb2k454t7ed",901,"166.csv","","491","resources/trios/L1T2A2.jpg","37","restless",0.4,0.6,0.6,0.994784305540913,"false"
"image-keyboard-response",256,241685,"0.0-4.81-1.81","am7nyb2k454t7ed",901,"166.csv","","null","resources/maskTrios/L1BB.jpg","null","",NA,NA,NA,NA,""
"image-keyboard-response",257,242893,"0.0-4.81-2.81","am7nyb2k454t7ed",901,"166.csv","","null","resources/images/fishbone.png","null","",NA,NA,NA,NA,""
"image-keyboard-response",258,242931,"0.0-4.82-0.82","am7nyb2k454t7ed",901,"166.csv","","35.599999994039536","resources/trios/L1T2A2.jpg","39","restless",0.4,0.6,0.6,0.0998882326310115,"true"
"image-keyboard-response",259,243337,"0.0-4.82-1.82","am7nyb2k454t7ed",901,"166.csv","","null","resources/maskTrios/BBA2.jpg","null","",NA,NA,NA,NA,""
"image-keyboard-response",260,244544,"0.0-4.82-2.82","am7nyb2k454t7ed",901,"166.csv","","null","resources/images/coin2.png","null","",NA,NA,NA,NA,""
"image-keyboard-response",261,244700,"0.0-4.83-0.83","am7nyb2k454t7ed",901,"166.csv","","154.09999999403954","resources/trios/L1T2A2.jpg","39","restless",0.4,0.5,0.6,0.741653195560593,"false"
"image-keyboard-response",262,245114,"0.0-4.83-1.83","am7nyb2k454t7ed",901,"166.csv","","null","resources/maskTrios/BBA2.jpg","null","",NA,NA,NA,NA,""
"image-keyboard-response",263,246325,"0.0-4.83-2.83","am7nyb2k454t7ed",901,"166.csv","","null","resources/images/fishbone.png","null","",NA,NA,NA,NA,""
"image-keyboard-response",264,246445,"0.0-4.84-0.84","am7nyb2k454t7ed",901,"166.csv","","117.40000000596046","resources/trios/L1T2A2.jpg","38","restless",0.4,0.5,0.6,0.181691151727709,"true"
"image-keyboard-response",265,246850,"0.0-4.84-1.84","am7nyb2k454t7ed",901,"166.csv","","null","resources/maskTrios/BT2B.jpg","null","",NA,NA,NA,NA,""
"image-keyboard-response",266,248059,"0.0-4.84-2.84","am7nyb2k454t7ed",901,"166.csv","","null","resources/images/coin2.png","null","",NA,NA,NA,NA,""
"image-keyboard-response",267,248300,"0.0-4.85-0.85","am7nyb2k454t7ed",901,"166.csv","","238.30000001192093","resources/trios/L1T2A2.jpg","38","restless",0.4,0.4,0.6,0.235224052099483,"true"
"image-keyboard-response",268,248710,"0.0-4.85-1.85","am7nyb2k454t7ed",901,"166.csv","","null","resources/maskTrios/BT2B.jpg","null","",NA,NA,NA,NA,""
"image-keyboard-response",269,249919,"0.0-4.85-2.85","am7nyb2k454t7ed",901,"166.csv","","null","resources/images/coin2.png","null","",NA,NA,NA,NA,""
"image-keyboard-response",270,250156,"0.0-4.86-0.86","am7nyb2k454t7ed",901,"166.csv","","233.89999997615814","resources/trios/L1T2A2.jpg","38","restless",0.4,0.4,0.5,0.903063112833732,"false"
"image-keyboard-response",271,250571,"0.0-4.86-1.86","am7nyb2k454t7ed",901,"166.csv","","null","resources/maskTrios/BT2B.jpg","null","",NA,NA,NA,NA,""
"image-keyboard-response",272,251774,"0.0-4.86-2.86","am7nyb2k454t7ed",901,"166.csv","","null","resources/images/fishbone.png","null","",NA,NA,NA,NA,""
"image-keyboard-response",273,252084,"0.0-4.87-0.87","am7nyb2k454t7ed",901,"166.csv","","307.09999999403954","resources/trios/L1T2A2.jpg","37","restless",0.4,0.4,0.4,0.938040449812263,"false"
"image-keyboard-response",274,252491,"0.0-4.87-1.87","am7nyb2k454t7ed",901,"166.csv","","null","resources/maskTrios/L1BB.jpg","null","",NA,NA,NA,NA,""
"image-keyboard-response",275,253703,"0.0-4.87-2.87","am7nyb2k454t7ed",901,"166.csv","","null","resources/images/fishbone.png","null","",NA,NA,NA,NA,""
"image-keyboard-response",276,253978,"0.0-4.88-0.88","am7nyb2k454t7ed",901,"166.csv","","273","resources/trios/L1T2A2.jpg","39","restless",0.4,0.4,0.4,0.6954868823598,"false"
"image-keyboard-response",277,254386,"0.0-4.88-1.88","am7nyb2k454t7ed",901,"166.csv","","null","resources/maskTrios/BBA2.jpg","null","",NA,NA,NA,NA,""
"image-keyboard-response",278,255597,"0.0-4.88-2.88","am7nyb2k454t7ed",901,"166.csv","","null","resources/images/fishbone.png","null","",NA,NA,NA,NA,""
"image-keyboard-response",279,255894,"0.0-4.89-0.89","am7nyb2k454t7ed",901,"166.csv","","293.10000002384186","resources/trios/L1T2A2.jpg","38","restless",0.4,0.4,0.4,0.104677857811638,"true"
"image-keyboard-response",280,256305,"0.0-4.89-1.89","am7nyb2k454t7ed",901,"166.csv","","null","resources/maskTrios/BT2B.jpg","null","",NA,NA,NA,NA,""
"image-keyboard-response",281,257525,"0.0-4.89-2.89","am7nyb2k454t7ed",901,"166.csv","","null","resources/images/coin2.png","null","",NA,NA,NA,NA,""
"image-keyboard-response",282,257779,"0.0-4.90-0.90","am7nyb2k454t7ed",901,"166.csv","","250.90000000596046","resources/trios/L1T2A2.jpg","38","restless",0.4,0.3,0.4,0.117147240152838,"true"
"image-keyboard-response",283,258196,"0.0-4.90-1.90","am7nyb2k454t7ed",901,"166.csv","","null","resources/maskTrios/BT2B.jpg","null","",NA,NA,NA,NA,""
"image-keyboard-response",284,259406,"0.0-4.90-2.90","am7nyb2k454t7ed",901,"166.csv","","null","resources/images/coin2.png","null","",NA,NA,NA,NA,""
"image-keyboard-response",285,259646,"0.0-4.91-0.91","am7nyb2k454t7ed",901,"166.csv","","238","resources/trios/L1T2A2.jpg","38","restless",0.4,0.3,0.4,0.468068665062568,"false"
"image-keyboard-response",286,260057,"0.0-4.91-1.91","am7nyb2k454t7ed",901,"166.csv","","null","resources/maskTrios/BT2B.jpg","null","",NA,NA,NA,NA,""
"image-keyboard-response",287,261265,"0.0-4.91-2.91","am7nyb2k454t7ed",901,"166.csv","","null","resources/images/fishbone.png","null","",NA,NA,NA,NA,""
"image-keyboard-response",288,261591,"0.0-4.92-0.92","am7nyb2k454t7ed",901,"166.csv","","323.2999999821186","resources/trios/L1T2A2.jpg","37","restless",0.4,0.3,0.4,0.864700178785589,"false"
"image-keyboard-response",289,261996,"0.0-4.92-1.92","am7nyb2k454t7ed",901,"166.csv","","null","resources/maskTrios/L1BB.jpg","null","",NA,NA,NA,NA,""
"image-keyboard-response",290,263209,"0.0-4.92-2.92","am7nyb2k454t7ed",901,"166.csv","","null","resources/images/fishbone.png","null","",NA,NA,NA,NA,""
"image-keyboard-response",291,263398,"0.0-4.93-0.93","am7nyb2k454t7ed",901,"166.csv","","185.90000000596046","resources/trios/L1T2A2.jpg","39","restless",0.4,0.2,0.4,0.3204337015662,"true"
"image-keyboard-response",292,263816,"0.0-4.93-1.93","am7nyb2k454t7ed",901,"166.csv","","null","resources/maskTrios/BBA2.jpg","null","",NA,NA,NA,NA,""
"image-keyboard-response",293,265026,"0.0-4.93-2.93","am7nyb2k454t7ed",901,"166.csv","","null","resources/images/coin2.png","null","",NA,NA,NA,NA,""
"image-keyboard-response",294,265210,"0.0-4.94-0.94","am7nyb2k454t7ed",901,"166.csv","","181.7000000178814","resources/trios/L1T2A2.jpg","39","restless",0.5,0.2,0.4,0.856870512727911,"false"
"image-keyboard-response",295,265630,"0.0-4.94-1.94","am7nyb2k454t7ed",901,"166.csv","","null","resources/maskTrios/BBA2.jpg","null","",NA,NA,NA,NA,""
"image-keyboard-response",296,266839,"0.0-4.94-2.94","am7nyb2k454t7ed",901,"166.csv","","null","resources/images/fishbone.png","null","",NA,NA,NA,NA,""
"image-keyboard-response",297,267107,"0.0-4.95-0.95","am7nyb2k454t7ed",901,"166.csv","","265","resources/trios/L1T2A2.jpg","38","restless",0.5,0.2,0.4,0.0571399971311224,"true"
"image-keyboard-response",298,267518,"0.0-4.95-1.95","am7nyb2k454t7ed",901,"166.csv","","null","resources/maskTrios/BT2B.jpg","null","",NA,NA,NA,NA,""
"image-keyboard-response",299,268727,"0.0-4.95-2.95","am7nyb2k454t7ed",901,"166.csv","","null","resources/images/coin2.png","null","",NA,NA,NA,NA,""
"image-keyboard-response",300,268836,"0.0-4.96-0.96","am7nyb2k454t7ed",901,"166.csv","","105.80000001192093","resources/trios/L1T2A2.jpg","38","restless",0.5,0.2,0.4,0.342204727044965,"false"
"image-keyboard-response",301,269241,"0.0-4.96-1.96","am7nyb2k454t7ed",901,"166.csv","","null","resources/maskTrios/BT2B.jpg","null","",NA,NA,NA,NA,""
"image-keyboard-response",302,270449,"0.0-4.96-2.96","am7nyb2k454t7ed",901,"166.csv","","null","resources/images/fishbone.png","null","",NA,NA,NA,NA,""
"image-keyboard-response",303,270495,"0.0-4.97-0.97","am7nyb2k454t7ed",901,"166.csv","","42.19999998807907","resources/trios/L1T2A2.jpg","37","restless",0.5,0.2,0.3,0.761878945981817,"false"
"image-keyboard-response",304,270903,"0.0-4.97-1.97","am7nyb2k454t7ed",901,"166.csv","","null","resources/maskTrios/L1BB.jpg","null","",NA,NA,NA,NA,""
"image-keyboard-response",305,272107,"0.0-4.97-2.97","am7nyb2k454t7ed",901,"166.csv","","null","resources/images/fishbone.png","null","",NA,NA,NA,NA,""
"image-keyboard-response",306,272163,"0.0-4.98-0.98","am7nyb2k454t7ed",901,"166.csv","","53.099999994039536","resources/trios/L1T2A2.jpg","39","restless",0.5,0.2,0.3,0.992676277196248,"false"
"image-keyboard-response",307,272568,"0.0-4.98-1.98","am7nyb2k454t7ed",901,"166.csv","","null","resources/maskTrios/BBA2.jpg","null","",NA,NA,NA,NA,""
"image-keyboard-response",308,273779,"0.0-4.98-2.98","am7nyb2k454t7ed",901,"166.csv","","null","resources/images/fishbone.png","null","",NA,NA,NA,NA,""
"image-keyboard-response",309,273886,"0.0-4.99-0.99","am7nyb2k454t7ed",901,"166.csv","","104.5","resources/trios/L1T2A2.jpg","38","restless",0.5,0.2,0.3,0.0726320533790128,"true"
"image-keyboard-response",310,274301,"0.0-4.99-1.99","am7nyb2k454t7ed",901,"166.csv","","null","resources/maskTrios/BT2B.jpg","null","",NA,NA,NA,NA,""
"image-keyboard-response",311,275509,"0.0-4.99-2.99","am7nyb2k454t7ed",901,"166.csv","","null","resources/images/coin2.png","null","",NA,NA,NA,NA,""
"image-keyboard-response",312,275793,"0.0-4.100-0.100","am7nyb2k454t7ed",901,"166.csv","","282.40000000596046","resources/trios/L1T2A2.jpg","38","restless",0.5,0.2,0.3,0.840073483105142,"false"
"image-keyboard-response",313,276208,"0.0-4.100-1.100","am7nyb2k454t7ed",901,"166.csv","","null","resources/maskTrios/BT2B.jpg","null","",NA,NA,NA,NA,""
"image-keyboard-response",314,277419,"0.0-4.100-2.100","am7nyb2k454t7ed",901,"166.csv","","null","resources/images/fishbone.png","null","",NA,NA,NA,NA,""
"image-keyboard-response",315,277657,"0.0-4.101-0.101","am7nyb2k454t7ed",901,"166.csv","","234.5","resources/trios/L1T2A2.jpg","39","restless",0.5,0.2,0.3,0.235274133195042,"true"
"image-keyboard-response",316,278069,"0.0-4.101-1.101","am7nyb2k454t7ed",901,"166.csv","","null","resources/maskTrios/BBA2.jpg","null","",NA,NA,NA,NA,""
"image-keyboard-response",317,279278,"0.0-4.101-2.101","am7nyb2k454t7ed",901,"166.csv","","null","resources/images/coin2.png","null","",NA,NA,NA,NA,""
"image-keyboard-response",318,279605,"0.0-4.102-0.102","am7nyb2k454t7ed",901,"166.csv","","324.69999998807907","resources/trios/L1T2A2.jpg","39","restless",0.5,0.2,0.3,0.774374096390374,"false"
"image-keyboard-response",319,280016,"0.0-4.102-1.102","am7nyb2k454t7ed",901,"166.csv","","null","resources/maskTrios/BBA2.jpg","null","",NA,NA,NA,NA,""
"image-keyboard-response",320,281232,"0.0-4.102-2.102","am7nyb2k454t7ed",901,"166.csv","","null","resources/images/fishbone.png","null","",NA,NA,NA,NA,""
"image-keyboard-response",321,281752,"0.0-4.103-0.103","am7nyb2k454t7ed",901,"166.csv","","517.8000000119209","resources/trios/L1T2A2.jpg","37","restless",0.5,0.2,0.3,0.120506928049723,"true"
"image-keyboard-response",322,282159,"0.0-4.103-1.103","am7nyb2k454t7ed",901,"166.csv","","null","resources/maskTrios/L1BB.jpg","null","",NA,NA,NA,NA,""
"image-keyboard-response",323,283369,"0.0-4.103-2.103","am7nyb2k454t7ed",901,"166.csv","","null","resources/images/coin2.png","null","",NA,NA,NA,NA,""
"image-keyboard-response",324,283603,"0.0-4.104-0.104","am7nyb2k454t7ed",901,"166.csv","","231.40000000596046","resources/trios/L1T2A2.jpg","37","restless",0.5,0.2,0.3,0.2780675851423,"true"
"image-keyboard-response",325,284017,"0.0-4.104-1.104","am7nyb2k454t7ed",901,"166.csv","","null","resources/maskTrios/L1BB.jpg","null","",NA,NA,NA,NA,""
"image-keyboard-response",326,285228,"0.0-4.104-2.104","am7nyb2k454t7ed",901,"166.csv","","null","resources/images/coin2.png","null","",NA,NA,NA,NA,""
"image-keyboard-response",327,285511,"0.0-4.105-0.105","am7nyb2k454t7ed",901,"166.csv","","280.30000001192093","resources/trios/L1T2A2.jpg","37","restless",0.5,0.3,0.3,0.340727876804509,"true"
"image-keyboard-response",328,285922,"0.0-4.105-1.105","am7nyb2k454t7ed",901,"166.csv","","null","resources/maskTrios/L1BB.jpg","null","",NA,NA,NA,NA,""
"image-keyboard-response",329,287136,"0.0-4.105-2.105","am7nyb2k454t7ed",901,"166.csv","","null","resources/images/coin2.png","null","",NA,NA,NA,NA,""
"image-keyboard-response",330,287417,"0.0-4.106-0.106","am7nyb2k454t7ed",901,"166.csv","","277.69999998807907","resources/trios/L1T2A2.jpg","37","restless",0.5,0.3,0.3,0.975757476818826,"false"
"image-keyboard-response",331,287821,"0.0-4.106-1.106","am7nyb2k454t7ed",901,"166.csv","","null","resources/maskTrios/L1BB.jpg","null","",NA,NA,NA,NA,""
"image-keyboard-response",332,289024,"0.0-4.106-2.106","am7nyb2k454t7ed",901,"166.csv","","null","resources/images/fishbone.png","null","",NA,NA,NA,NA,""
"image-keyboard-response",333,289306,"0.0-4.107-0.107","am7nyb2k454t7ed",901,"166.csv","","278.69999998807907","resources/trios/L1T2A2.jpg","38","restless",0.5,0.3,0.2,0.538518630628574,"false"
"image-keyboard-response",334,289710,"0.0-4.107-1.107","am7nyb2k454t7ed",901,"166.csv","","null","resources/maskTrios/BT2B.jpg","null","",NA,NA,NA,NA,""
"image-keyboard-response",335,290922,"0.0-4.107-2.107","am7nyb2k454t7ed",901,"166.csv","","null","resources/images/fishbone.png","null","",NA,NA,NA,NA,""
"image-keyboard-response",336,291315,"0.0-4.108-0.108","am7nyb2k454t7ed",901,"166.csv","","390.5","resources/trios/L1T2A2.jpg","39","restless",0.5,0.3,0.2,0.177566995838077,"true"
"image-keyboard-response",337,291720,"0.0-4.108-1.108","am7nyb2k454t7ed",901,"166.csv","","null","resources/maskTrios/BBA2.jpg","null","",NA,NA,NA,NA,""
"image-keyboard-response",338,292929,"0.0-4.108-2.108","am7nyb2k454t7ed",901,"166.csv","","null","resources/images/coin2.png","null","",NA,NA,NA,NA,""
"image-keyboard-response",339,293225,"0.0-4.109-0.109","am7nyb2k454t7ed",901,"166.csv","","293.09999999403954","resources/trios/L1T2A2.jpg","39","restless",0.5,0.3,0.2,0.496219677159825,"false"
"image-keyboard-response",340,293637,"0.0-4.109-1.109","am7nyb2k454t7ed",901,"166.csv","","null","resources/maskTrios/BBA2.jpg","null","",NA,NA,NA,NA,""
"image-keyboard-response",341,294840,"0.0-4.109-2.109","am7nyb2k454t7ed",901,"166.csv","","null","resources/images/fishbone.png","null","",NA,NA,NA,NA,""
"image-keyboard-response",342,295398,"0.0-4.110-0.110","am7nyb2k454t7ed",901,"166.csv","","555.1000000238419","resources/trios/L1T2A2.jpg","37","restless",0.5,0.3,0.2,0.49698089976272,"true"
"image-keyboard-response",343,295815,"0.0-4.110-1.110","am7nyb2k454t7ed",901,"166.csv","","null","resources/maskTrios/L1BB.jpg","null","",NA,NA,NA,NA,""
"image-keyboard-response",344,297023,"0.0-4.110-2.110","am7nyb2k454t7ed",901,"166.csv","","null","resources/images/coin2.png","null","",NA,NA,NA,NA,""
"image-keyboard-response",345,297277,"0.0-4.111-0.111","am7nyb2k454t7ed",901,"166.csv","","251.5","resources/trios/L1T2A2.jpg","37","restless",0.5,0.3,0.2,0.231341811993722,"true"
"image-keyboard-response",346,297684,"0.0-4.111-1.111","am7nyb2k454t7ed",901,"166.csv","","null","resources/maskTrios/L1BB.jpg","null","",NA,NA,NA,NA,""
"image-keyboard-response",347,298898,"0.0-4.111-2.111","am7nyb2k454t7ed",901,"166.csv","","null","resources/images/coin2.png","null","",NA,NA,NA,NA,""
"image-keyboard-response",348,298965,"0.0-4.112-0.112","am7nyb2k454t7ed",901,"166.csv","","64.19999998807907","resources/trios/L1T2A2.jpg","37","restless",0.4,0.3,0.2,0.864260600252627,"false"
"image-keyboard-response",349,299375,"0.0-4.112-1.112","am7nyb2k454t7ed",901,"166.csv","","null","resources/maskTrios/L1BB.jpg","null","",NA,NA,NA,NA,""
"image-keyboard-response",350,300579,"0.0-4.112-2.112","am7nyb2k454t7ed",901,"166.csv","","null","resources/images/fishbone.png","null","",NA,NA,NA,NA,""
"image-keyboard-response",351,300743,"0.0-4.113-0.113","am7nyb2k454t7ed",901,"166.csv","","161.40000000596046","resources/trios/L1T2A2.jpg","38","restless",0.4,0.3,0.2,0.424157644653551,"false"
"image-keyboard-response",352,301154,"0.0-4.113-1.113","am7nyb2k454t7ed",901,"166.csv","","null","resources/maskTrios/BT2B.jpg","null","",NA,NA,NA,NA,""
"image-keyboard-response",353,302370,"0.0-4.113-2.113","am7nyb2k454t7ed",901,"166.csv","","null","resources/images/fishbone.png","null","",NA,NA,NA,NA,""
"image-keyboard-response",354,302550,"0.0-4.114-0.114","am7nyb2k454t7ed",901,"166.csv","","177.09999999403954","resources/trios/L1T2A2.jpg","38","restless",0.4,0.3,0.2,0.250312545633353,"true"
"image-keyboard-response",355,302962,"0.0-4.114-1.114","am7nyb2k454t7ed",901,"166.csv","","null","resources/maskTrios/BT2B.jpg","null","",NA,NA,NA,NA,""
"image-keyboard-response",356,304172,"0.0-4.114-2.114","am7nyb2k454t7ed",901,"166.csv","","null","resources/images/coin2.png","null","",NA,NA,NA,NA,""
"image-keyboard-response",357,304477,"0.0-4.115-0.115","am7nyb2k454t7ed",901,"166.csv","","302.10000002384186","resources/trios/L1T2A2.jpg","38","restless",0.4,0.3,0.2,0.657019297486029,"false"
"image-keyboard-response",358,304885,"0.0-4.115-1.115","am7nyb2k454t7ed",901,"166.csv","","null","resources/maskTrios/BT2B.jpg","null","",NA,NA,NA,NA,""
"image-keyboard-response",359,306093,"0.0-4.115-2.115","am7nyb2k454t7ed",901,"166.csv","","null","resources/images/fishbone.png","null","",NA,NA,NA,NA,""
"image-keyboard-response",360,306762,"0.0-4.116-0.116","am7nyb2k454t7ed",901,"166.csv","","666","resources/trios/L1T2A2.jpg","39","restless",0.4,0.3,0.2,0.663749333441456,"false"
"image-keyboard-response",361,307168,"0.0-4.116-1.116","am7nyb2k454t7ed",901,"166.csv","","null","resources/maskTrios/BBA2.jpg","null","",NA,NA,NA,NA,""
"image-keyboard-response",362,308377,"0.0-4.116-2.116","am7nyb2k454t7ed",901,"166.csv","","null","resources/images/fishbone.png","null","",NA,NA,NA,NA,""
"image-keyboard-response",363,308655,"0.0-4.117-0.117","am7nyb2k454t7ed",901,"166.csv","","275.30000001192093","resources/trios/L1T2A2.jpg","39","restless",0.4,0.3,0.2,0.180307699542396,"true"
"image-keyboard-response",364,309066,"0.0-4.117-1.117","am7nyb2k454t7ed",901,"166.csv","","null","resources/maskTrios/BBA2.jpg","null","",NA,NA,NA,NA,""
"image-keyboard-response",365,310273,"0.0-4.117-2.117","am7nyb2k454t7ed",901,"166.csv","","null","resources/images/coin2.png","null","",NA,NA,NA,NA,""
"image-keyboard-response",366,310551,"0.0-4.118-0.118","am7nyb2k454t7ed",901,"166.csv","","275.5","resources/trios/L1T2A2.jpg","39","restless",0.4,0.3,0.2,0.499904873332075,"false"
"image-keyboard-response",367,310956,"0.0-4.118-1.118","am7nyb2k454t7ed",901,"166.csv","","null","resources/maskTrios/BBA2.jpg","null","",NA,NA,NA,NA,""
"image-keyboard-response",368,312170,"0.0-4.118-2.118","am7nyb2k454t7ed",901,"166.csv","","null","resources/images/fishbone.png","null","",NA,NA,NA,NA,""
"image-keyboard-response",369,312375,"0.0-4.119-0.119","am7nyb2k454t7ed",901,"166.csv","","202.19999998807907","resources/trios/L1T2A2.jpg","38","restless",0.4,0.3,0.2,0.655676154627344,"false"
"image-keyboard-response",370,312781,"0.0-4.119-1.119","am7nyb2k454t7ed",901,"166.csv","","null","resources/maskTrios/BT2B.jpg","null","",NA,NA,NA,NA,""
"image-keyboard-response",371,313985,"0.0-4.119-2.119","am7nyb2k454t7ed",901,"166.csv","","null","resources/images/fishbone.png","null","",NA,NA,NA,NA,""
"image-keyboard-response",372,314527,"0.0-4.120-0.120","am7nyb2k454t7ed",901,"166.csv","","538.5","resources/trios/L1T2A2.jpg","37","restless",0.4,0.3,0.2,0.752139366881791,"false"
"image-keyboard-response",373,314937,"0.0-4.120-1.120","am7nyb2k454t7ed",901,"166.csv","","null","resources/maskTrios/L1BB.jpg","null","",NA,NA,NA,NA,""
"image-keyboard-response",374,316143,"0.0-4.120-2.120","am7nyb2k454t7ed",901,"166.csv","","null","resources/images/fishbone.png","null","",NA,NA,NA,NA,""
"image-keyboard-response",375,316378,"0.0-4.121-0.121","am7nyb2k454t7ed",901,"166.csv","","231.19999998807907","resources/trios/L1T2A2.jpg","39","restless",0.4,0.3,0.2,0.713346309830307,"false"
"image-keyboard-response",376,316790,"0.0-4.121-1.121","am7nyb2k454t7ed",901,"166.csv","","null","resources/maskTrios/BBA2.jpg","null","",NA,NA,NA,NA,""
"image-keyboard-response",377,318010,"0.0-4.121-2.121","am7nyb2k454t7ed",901,"166.csv","","null","resources/images/fishbone.png","null","",NA,NA,NA,NA,""
"image-keyboard-response",378,318388,"0.0-4.122-0.122","am7nyb2k454t7ed",901,"166.csv","","375.30000001192093","resources/trios/L1T2A2.jpg","38","restless",0.4,0.4,0.3,0.210693068234385,"true"
"image-keyboard-response",379,318792,"0.0-4.122-1.122","am7nyb2k454t7ed",901,"166.csv","","null","resources/maskTrios/BT2B.jpg","null","",NA,NA,NA,NA,""
"image-keyboard-response",380,320011,"0.0-4.122-2.122","am7nyb2k454t7ed",901,"166.csv","","null","resources/images/coin2.png","null","",NA,NA,NA,NA,""
"image-keyboard-response",381,320272,"0.0-4.123-0.123","am7nyb2k454t7ed",901,"166.csv","","257.90000000596046","resources/trios/L1T2A2.jpg","38","restless",0.4,0.4,0.3,0.254798258530286,"true"
"image-keyboard-response",382,320680,"0.0-4.123-1.123","am7nyb2k454t7ed",901,"166.csv","","null","resources/maskTrios/BT2B.jpg","null","",NA,NA,NA,NA,""
"image-keyboard-response",383,321884,"0.0-4.123-2.123","am7nyb2k454t7ed",901,"166.csv","","null","resources/images/coin2.png","null","",NA,NA,NA,NA,""
"image-keyboard-response",384,322087,"0.0-4.124-0.124","am7nyb2k454t7ed",901,"166.csv","","200.59999999403954","resources/trios/L1T2A2.jpg","38","restless",0.4,0.4,0.3,0.836843685148187,"false"
"image-keyboard-response",385,322493,"0.0-4.124-1.124","am7nyb2k454t7ed",901,"166.csv","","null","resources/maskTrios/BT2B.jpg","null","",NA,NA,NA,NA,""
"image-keyboard-response",386,323705,"0.0-4.124-2.124","am7nyb2k454t7ed",901,"166.csv","","null","resources/images/fishbone.png","null","",NA,NA,NA,NA,""
"image-keyboard-response",387,323986,"0.0-4.125-0.125","am7nyb2k454t7ed",901,"166.csv","","277.89999997615814","resources/trios/L1T2A2.jpg","37","restless",0.4,0.4,0.3,0.675288139549371,"false"
"image-keyboard-response",388,324396,"0.0-4.125-1.125","am7nyb2k454t7ed",901,"166.csv","","null","resources/maskTrios/L1BB.jpg","null","",NA,NA,NA,NA,""
"image-keyboard-response",389,325599,"0.0-4.125-2.125","am7nyb2k454t7ed",901,"166.csv","","null","resources/images/fishbone.png","null","",NA,NA,NA,NA,""
"image-keyboard-response",390,325833,"0.0-4.126-0.126","am7nyb2k454t7ed",901,"166.csv","","231.69999998807907","resources/trios/L1T2A2.jpg","39","restless",0.5,0.4,0.3,0.819288772911626,"false"
"image-keyboard-response",391,326246,"0.0-4.126-1.126","am7nyb2k454t7ed",901,"166.csv","","null","resources/maskTrios/BBA2.jpg","null","",NA,NA,NA,NA,""
"image-keyboard-response",392,327461,"0.0-4.126-2.126","am7nyb2k454t7ed",901,"166.csv","","null","resources/images/fishbone.png","null","",NA,NA,NA,NA,""
"image-keyboard-response",393,327580,"0.0-4.127-0.127","am7nyb2k454t7ed",901,"166.csv","","115.60000002384186","resources/trios/L1T2A2.jpg","37","restless",0.5,0.4,0.3,0.534502165990711,"false"
"image-keyboard-response",394,328003,"0.0-4.127-1.127","am7nyb2k454t7ed",901,"166.csv","","null","resources/maskTrios/L1BB.jpg","null","",NA,NA,NA,NA,""
"image-keyboard-response",395,329206,"0.0-4.127-2.127","am7nyb2k454t7ed",901,"166.csv","","null","resources/images/fishbone.png","null","",NA,NA,NA,NA,""
"image-keyboard-response",396,329301,"0.0-4.128-0.128","am7nyb2k454t7ed",901,"166.csv","","91.59999999403954","resources/trios/L1T2A2.jpg","38","restless",0.5,0.4,0.3,0.985794632469475,"false"
"image-keyboard-response",397,329707,"0.0-4.128-1.128","am7nyb2k454t7ed",901,"166.csv","","null","resources/maskTrios/BT2B.jpg","null","",NA,NA,NA,NA,""
"image-keyboard-response",398,330918,"0.0-4.128-2.128","am7nyb2k454t7ed",901,"166.csv","","null","resources/images/fishbone.png","null","",NA,NA,NA,NA,""
"image-keyboard-response",399,330973,"0.0-4.129-0.129","am7nyb2k454t7ed",901,"166.csv","","52.400000005960464","resources/trios/L1T2A2.jpg","39","restless",0.6,0.4,0.3,0.465216279241713,"false"
"image-keyboard-response",400,331381,"0.0-4.129-1.129","am7nyb2k454t7ed",901,"166.csv","","null","resources/maskTrios/BBA2.jpg","null","",NA,NA,NA,NA,""
"image-keyboard-response",401,332598,"0.0-4.129-2.129","am7nyb2k454t7ed",901,"166.csv","","null","resources/images/fishbone.png","null","",NA,NA,NA,NA,""
"image-keyboard-response",402,332717,"0.0-4.130-0.130","am7nyb2k454t7ed",901,"166.csv","","116.40000000596046","resources/trios/L1T2A2.jpg","38","restless",0.6,0.4,0.3,0.160726626414564,"true"
"image-keyboard-response",403,333128,"0.0-4.130-1.130","am7nyb2k454t7ed",901,"166.csv","","null","resources/maskTrios/BT2B.jpg","null","",NA,NA,NA,NA,""
"image-keyboard-response",404,334345,"0.0-4.130-2.130","am7nyb2k454t7ed",901,"166.csv","","null","resources/images/coin2.png","null","",NA,NA,NA,NA,""
"image-keyboard-response",405,334577,"0.0-4.131-0.131","am7nyb2k454t7ed",901,"166.csv","","229.30000001192093","resources/trios/L1T2A2.jpg","38","restless",0.6,0.4,0.3,0.0916979277893768,"true"
"image-keyboard-response",406,334994,"0.0-4.131-1.131","am7nyb2k454t7ed",901,"166.csv","","null","resources/maskTrios/BT2B.jpg","null","",NA,NA,NA,NA,""
"image-keyboard-response",407,336212,"0.0-4.131-2.131","am7nyb2k454t7ed",901,"166.csv","","null","resources/images/coin2.png","null","",NA,NA,NA,NA,""
"image-keyboard-response",408,336452,"0.0-4.132-0.132","am7nyb2k454t7ed",901,"166.csv","","237.09999999403954","resources/trios/L1T2A2.jpg","37","restless",0.6,0.4,0.3,0.955757777440217,"false"
"image-keyboard-response",409,336874,"0.0-4.132-1.132","am7nyb2k454t7ed",901,"166.csv","","null","resources/maskTrios/L1BB.jpg","null","",NA,NA,NA,NA,""
"image-keyboard-response",410,338079,"0.0-4.132-2.132","am7nyb2k454t7ed",901,"166.csv","","null","resources/images/fishbone.png","null","",NA,NA,NA,NA,""
"image-keyboard-response",411,338223,"0.0-4.133-0.133","am7nyb2k454t7ed",901,"166.csv","","139.5","resources/trios/L1T2A2.jpg","39","restless",0.6,0.4,0.3,0.822192969140241,"false"
"image-keyboard-response",412,338629,"0.0-4.133-1.133","am7nyb2k454t7ed",901,"166.csv","","null","resources/maskTrios/BBA2.jpg","null","",NA,NA,NA,NA,""
"image-keyboard-response",413,339833,"0.0-4.133-2.133","am7nyb2k454t7ed",901,"166.csv","","null","resources/images/fishbone.png","null","",NA,NA,NA,NA,""
"image-keyboard-response",414,339906,"0.0-4.134-0.134","am7nyb2k454t7ed",901,"166.csv","","69.60000002384186","resources/trios/L1T2A2.jpg","38","restless",0.6,0.3,0.3,0.591074408079734,"false"
"image-keyboard-response",415,340317,"0.0-4.134-1.134","am7nyb2k454t7ed",901,"166.csv","","null","resources/maskTrios/BT2B.jpg","null","",NA,NA,NA,NA,""
"image-keyboard-response",416,341523,"0.0-4.134-2.134","am7nyb2k454t7ed",901,"166.csv","","null","resources/images/fishbone.png","null","",NA,NA,NA,NA,""
"image-keyboard-response",417,341734,"0.0-4.135-0.135","am7nyb2k454t7ed",901,"166.csv","","207.60000002384186","resources/trios/L1T2A2.jpg","37","restless",0.6,0.3,0.3,0.476782456571867,"true"
"image-keyboard-response",418,342143,"0.0-4.135-1.135","am7nyb2k454t7ed",901,"166.csv","","null","resources/maskTrios/L1BB.jpg","null","",NA,NA,NA,NA,""
"image-keyboard-response",419,343352,"0.0-4.135-2.135","am7nyb2k454t7ed",901,"166.csv","","null","resources/images/coin2.png","null","",NA,NA,NA,NA,""
"image-keyboard-response",420,343581,"0.0-4.136-0.136","am7nyb2k454t7ed",901,"166.csv","","226","resources/trios/L1T2A2.jpg","37","restless",0.6,0.3,0.3,0.389263359538996,"true"
"image-keyboard-response",421,344001,"0.0-4.136-1.136","am7nyb2k454t7ed",901,"166.csv","","null","resources/maskTrios/L1BB.jpg","null","",NA,NA,NA,NA,""
"image-keyboard-response",422,345205,"0.0-4.136-2.136","am7nyb2k454t7ed",901,"166.csv","","null","resources/images/coin2.png","null","",NA,NA,NA,NA,""
"image-keyboard-response",423,345442,"0.0-4.137-0.137","am7nyb2k454t7ed",901,"166.csv","","233.60000002384186","resources/trios/L1T2A2.jpg","38","restless",0.6,0.3,0.3,0.681752248480626,"false"
"image-keyboard-response",424,345848,"0.0-4.137-1.137","am7nyb2k454t7ed",901,"166.csv","","null","resources/maskTrios/BT2B.jpg","null","",NA,NA,NA,NA,""
"image-keyboard-response",425,347054,"0.0-4.137-2.137","am7nyb2k454t7ed",901,"166.csv","","null","resources/images/fishbone.png","null","",NA,NA,NA,NA,""
"image-keyboard-response",426,347278,"0.0-4.138-0.138","am7nyb2k454t7ed",901,"166.csv","","222.09999999403954","resources/trios/L1T2A2.jpg","39","restless",0.6,0.3,0.3,0.335202698337961,"false"
"image-keyboard-response",427,347685,"0.0-4.138-1.138","am7nyb2k454t7ed",901,"166.csv","","null","resources/maskTrios/BBA2.jpg","null","",NA,NA,NA,NA,""
"image-keyboard-response",428,348891,"0.0-4.138-2.138","am7nyb2k454t7ed",901,"166.csv","","null","resources/images/fishbone.png","null","",NA,NA,NA,NA,""
"image-keyboard-response",429,348896,"0.0-4.139-0.139","am7nyb2k454t7ed",901,"166.csv","","3.4000000059604645","resources/trios/L1T2A2.jpg","37","restless",0.6,0.3,0.3,0.246612809436711,"true"
"image-keyboard-response",430,349301,"0.0-4.139-1.139","am7nyb2k454t7ed",901,"166.csv","","null","resources/maskTrios/L1BB.jpg","null","",NA,NA,NA,NA,""
"image-keyboard-response",431,350507,"0.0-4.139-2.139","am7nyb2k454t7ed",901,"166.csv","","null","resources/images/coin2.png","null","",NA,NA,NA,NA,""
"image-keyboard-response",432,350739,"0.0-4.140-0.140","am7nyb2k454t7ed",901,"166.csv","","228.5","resources/trios/L1T2A2.jpg","38","restless",0.6,0.3,0.3,0.478261250555836,"false"
"image-keyboard-response",433,351151,"0.0-4.140-1.140","am7nyb2k454t7ed",901,"166.csv","","null","resources/maskTrios/BT2B.jpg","null","",NA,NA,NA,NA,""
"image-keyboard-response",434,352362,"0.0-4.140-2.140","am7nyb2k454t7ed",901,"166.csv","","null","resources/images/fishbone.png","null","",NA,NA,NA,NA,""
"image-keyboard-response",435,352629,"0.0-4.141-0.141","am7nyb2k454t7ed",901,"166.csv","","264.69999998807907","resources/trios/L1T2A2.jpg","39","restless",0.6,0.3,0.3,0.457048771161765,"false"
"image-keyboard-response",436,353040,"0.0-4.141-1.141","am7nyb2k454t7ed",901,"166.csv","","null","resources/maskTrios/BBA2.jpg","null","",NA,NA,NA,NA,""
"image-keyboard-response",437,354247,"0.0-4.141-2.141","am7nyb2k454t7ed",901,"166.csv","","null","resources/images/fishbone.png","null","",NA,NA,NA,NA,""
"image-keyboard-response",438,354866,"0.0-4.142-0.142","am7nyb2k454t7ed",901,"166.csv","","615.2999999821186","resources/trios/L1T2A2.jpg","37","restless",0.6,0.4,0.3,0.212273912406435,"true"
"image-keyboard-response",439,355275,"0.0-4.142-1.142","am7nyb2k454t7ed",901,"166.csv","","null","resources/maskTrios/L1BB.jpg","null","",NA,NA,NA,NA,""
"image-keyboard-response",440,356482,"0.0-4.142-2.142","am7nyb2k454t7ed",901,"166.csv","","null","resources/images/coin2.png","null","",NA,NA,NA,NA,""
"image-keyboard-response",441,357273,"0.0-4.143-0.143","am7nyb2k454t7ed",901,"166.csv","","787.9000000059605","resources/trios/L1T2A2.jpg","37","restless",0.6,0.4,0.3,0.359857730972169,"true"
"image-keyboard-response",442,357684,"0.0-4.143-1.143","am7nyb2k454t7ed",901,"166.csv","","null","resources/maskTrios/L1BB.jpg","null","",NA,NA,NA,NA,""
"image-keyboard-response",443,358892,"0.0-4.143-2.143","am7nyb2k454t7ed",901,"166.csv","","null","resources/images/coin2.png","null","",NA,NA,NA,NA,""
"image-keyboard-response",444,359178,"0.0-4.144-0.144","am7nyb2k454t7ed",901,"166.csv","","282.09999999403954","resources/trios/L1T2A2.jpg","37","restless",0.6,0.4,0.3,0.689961118577061,"false"
"image-keyboard-response",445,359595,"0.0-4.144-1.144","am7nyb2k454t7ed",901,"166.csv","","null","resources/maskTrios/L1BB.jpg","null","",NA,NA,NA,NA,""
"image-keyboard-response",446,360806,"0.0-4.144-2.144","am7nyb2k454t7ed",901,"166.csv","","null","resources/images/fishbone.png","null","",NA,NA,NA,NA,""
"image-keyboard-response",447,361125,"0.0-4.145-0.145","am7nyb2k454t7ed",901,"166.csv","","314.59999999403954","resources/trios/L1T2A2.jpg","38","restless",0.6,0.4,0.3,0.237926725761352,"true"
"image-keyboard-response",448,361531,"0.0-4.145-1.145","am7nyb2k454t7ed",901,"166.csv","","null","resources/maskTrios/BT2B.jpg","null","",NA,NA,NA,NA,""
"image-keyboard-response",449,362740,"0.0-4.145-2.145","am7nyb2k454t7ed",901,"166.csv","","null","resources/images/coin2.png","null","",NA,NA,NA,NA,""
"image-keyboard-response",450,362904,"0.0-4.146-0.146","am7nyb2k454t7ed",901,"166.csv","","160.5","resources/trios/L1T2A2.jpg","38","restless",0.6,0.4,0.3,0.81126766099987,"false"
"image-keyboard-response",451,363309,"0.0-4.146-1.146","am7nyb2k454t7ed",901,"166.csv","","null","resources/maskTrios/BT2B.jpg","null","",NA,NA,NA,NA,""
"image-keyboard-response",452,364518,"0.0-4.146-2.146","am7nyb2k454t7ed",901,"166.csv","","null","resources/images/fishbone.png","null","",NA,NA,NA,NA,""
"image-keyboard-response",453,364764,"0.0-4.147-0.147","am7nyb2k454t7ed",901,"166.csv","","244","resources/trios/L1T2A2.jpg","39","restless",0.6,0.4,0.3,0.303655758477593,"false"
"image-keyboard-response",454,365177,"0.0-4.147-1.147","am7nyb2k454t7ed",901,"166.csv","","null","resources/maskTrios/BBA2.jpg","null","",NA,NA,NA,NA,""
"image-keyboard-response",455,366381,"0.0-4.147-2.147","am7nyb2k454t7ed",901,"166.csv","","null","resources/images/fishbone.png","null","",NA,NA,NA,NA,""
"image-keyboard-response",456,366703,"0.0-4.148-0.148","am7nyb2k454t7ed",901,"166.csv","","319.09999999403954","resources/trios/L1T2A2.jpg","39","restless",0.6,0.4,0.3,0.557029166423922,"false"
"image-keyboard-response",457,367113,"0.0-4.148-1.148","am7nyb2k454t7ed",901,"166.csv","","null","resources/maskTrios/BBA2.jpg","null","",NA,NA,NA,NA,""
"image-keyboard-response",458,368328,"0.0-4.148-2.148","am7nyb2k454t7ed",901,"166.csv","","null","resources/images/fishbone.png","null","",NA,NA,NA,NA,""
"image-keyboard-response",459,368554,"0.0-4.149-0.149","am7nyb2k454t7ed",901,"166.csv","","223","resources/trios/L1T2A2.jpg","38","restless",0.6,0.4,0.4,0.852098587840102,"false"
"image-keyboard-response",460,368974,"0.0-4.149-1.149","am7nyb2k454t7ed",901,"166.csv","","null","resources/maskTrios/BT2B.jpg","null","",NA,NA,NA,NA,""
"image-keyboard-response",461,370184,"0.0-4.149-2.149","am7nyb2k454t7ed",901,"166.csv","","null","resources/images/fishbone.png","null","",NA,NA,NA,NA,""
"image-keyboard-response",462,370417,"0.0-4.150-0.150","am7nyb2k454t7ed",901,"166.csv","","230.59999999403954","resources/trios/L1T2A2.jpg","37","restless",0.7,0.5,0.4,0.955950483711086,"false"
"image-keyboard-response",463,370829,"0.0-4.150-1.150","am7nyb2k454t7ed",901,"166.csv","","null","resources/maskTrios/L1BB.jpg","null","",NA,NA,NA,NA,""
"image-keyboard-response",464,372040,"0.0-4.150-2.150","am7nyb2k454t7ed",901,"166.csv","","null","resources/images/fishbone.png","null","",NA,NA,NA,NA,""
"image-keyboard-response",465,372282,"0.0-4.151-0.151","am7nyb2k454t7ed",901,"166.csv","","238.09999999403954","resources/trios/L1T2A2.jpg","38","restless",0.7,0.5,0.4,0.464833158613988,"true"
"image-keyboard-response",466,372693,"0.0-4.151-1.151","am7nyb2k454t7ed",901,"166.csv","","null","resources/maskTrios/BT2B.jpg","null","",NA,NA,NA,NA,""
"image-keyboard-response",467,373909,"0.0-4.151-2.151","am7nyb2k454t7ed",901,"166.csv","","null","resources/images/coin2.png","null","",NA,NA,NA,NA,""
"image-keyboard-response",468,374023,"0.0-4.152-0.152","am7nyb2k454t7ed",901,"166.csv","","110.7999999821186","resources/trios/L1T2A2.jpg","38","restless",0.7,0.5,0.4,0.0175763404322351,"true"
"image-keyboard-response",469,374433,"0.0-4.152-1.152","am7nyb2k454t7ed",901,"166.csv","","null","resources/maskTrios/BT2B.jpg","null","",NA,NA,NA,NA,""
"image-keyboard-response",470,375642,"0.0-4.152-2.152","am7nyb2k454t7ed",901,"166.csv","","null","resources/images/coin2.png","null","",NA,NA,NA,NA,""
"image-keyboard-response",471,375646,"0.0-4.153-0.153","am7nyb2k454t7ed",901,"166.csv","","0.30000001192092896","resources/trios/L1T2A2.jpg","38","restless",0.7,0.5,0.4,0.720622505920206,"false"
"image-keyboard-response",472,376053,"0.0-4.153-1.153","am7nyb2k454t7ed",901,"166.csv","","null","resources/maskTrios/BT2B.jpg","null","",NA,NA,NA,NA,""
"image-keyboard-response",473,377263,"0.0-4.153-2.153","am7nyb2k454t7ed",901,"166.csv","","null","resources/images/fishbone.png","null","",NA,NA,NA,NA,""
"image-keyboard-response",474,377327,"0.0-4.154-0.154","am7nyb2k454t7ed",901,"166.csv","","61.69999998807907","resources/trios/L1T2A2.jpg","39","restless",0.7,0.5,0.4,0.861694075980825,"false"
"image-keyboard-response",475,377737,"0.0-4.154-1.154","am7nyb2k454t7ed",901,"166.csv","","null","resources/maskTrios/BBA2.jpg","null","",NA,NA,NA,NA,""
"image-keyboard-response",476,378950,"0.0-4.154-2.154","am7nyb2k454t7ed",901,"166.csv","","null","resources/images/fishbone.png","null","",NA,NA,NA,NA,""
"image-keyboard-response",477,379180,"0.0-4.155-0.155","am7nyb2k454t7ed",901,"166.csv","","226.90000000596046","resources/trios/L1T2A2.jpg","39","restless",0.7,0.5,0.4,0.392744506536506,"true"
"image-keyboard-response",478,379590,"0.0-4.155-1.155","am7nyb2k454t7ed",901,"166.csv","","null","resources/maskTrios/BBA2.jpg","null","",NA,NA,NA,NA,""
"image-keyboard-response",479,380802,"0.0-4.155-2.155","am7nyb2k454t7ed",901,"166.csv","","null","resources/images/coin2.png","null","",NA,NA,NA,NA,""
"image-keyboard-response",480,380970,"0.0-4.156-0.156","am7nyb2k454t7ed",901,"166.csv","","165.90000000596046","resources/trios/L1T2A2.jpg","39","restless",0.7,0.5,0.4,0.0593130953919554,"true"
"image-keyboard-response",481,381376,"0.0-4.156-1.156","am7nyb2k454t7ed",901,"166.csv","","null","resources/maskTrios/BBA2.jpg","null","",NA,NA,NA,NA,""
"image-keyboard-response",482,382584,"0.0-4.156-2.156","am7nyb2k454t7ed",901,"166.csv","","null","resources/images/coin2.png","null","",NA,NA,NA,NA,""
"image-keyboard-response",483,382862,"0.0-4.157-0.157","am7nyb2k454t7ed",901,"166.csv","","274.39999997615814","resources/trios/L1T2A2.jpg","39","restless",0.7,0.5,0.4,0.47361762384311,"false"
"image-keyboard-response",484,383279,"0.0-4.157-1.157","am7nyb2k454t7ed",901,"166.csv","","null","resources/maskTrios/BBA2.jpg","null","",NA,NA,NA,NA,""
"image-keyboard-response",485,384486,"0.0-4.157-2.157","am7nyb2k454t7ed",901,"166.csv","","null","resources/images/fishbone.png","null","",NA,NA,NA,NA,""
"image-keyboard-response",486,384838,"0.0-4.158-0.158","am7nyb2k454t7ed",901,"166.csv","","349.09999999403954","resources/trios/L1T2A2.jpg","37","restless",0.7,0.5,0.4,0.219685420001306,"true"
"image-keyboard-response",487,385259,"0.0-4.158-1.158","am7nyb2k454t7ed",901,"166.csv","","null","resources/maskTrios/L1BB.jpg","null","",NA,NA,NA,NA,""
"image-keyboard-response",488,386473,"0.0-4.158-2.158","am7nyb2k454t7ed",901,"166.csv","","null","resources/images/coin2.png","null","",NA,NA,NA,NA,""
"image-keyboard-response",489,386625,"0.0-4.159-0.159","am7nyb2k454t7ed",901,"166.csv","","148.59999999403954","resources/trios/L1T2A2.jpg","37","restless",0.7,0.6,0.4,0.809791913827042,"false"
"image-keyboard-response",490,387032,"0.0-4.159-1.159","am7nyb2k454t7ed",901,"166.csv","","null","resources/maskTrios/L1BB.jpg","null","",NA,NA,NA,NA,""
"image-keyboard-response",491,388242,"0.0-4.159-2.159","am7nyb2k454t7ed",901,"166.csv","","null","resources/images/fishbone.png","null","",NA,NA,NA,NA,""
"image-keyboard-response",492,388474,"0.0-4.160-0.160","am7nyb2k454t7ed",901,"166.csv","","228.59999999403954","resources/trios/L1T2A2.jpg","37","restless",0.7,0.5,0.4,0.179196594213712,"true"
"image-keyboard-response",493,388879,"0.0-4.160-1.160","am7nyb2k454t7ed",901,"166.csv","","null","resources/maskTrios/L1BB.jpg","null","",NA,NA,NA,NA,""
"image-keyboard-response",494,390091,"0.0-4.160-2.160","am7nyb2k454t7ed",901,"166.csv","","null","resources/images/coin2.png","null","",NA,NA,NA,NA,""
"image-keyboard-response",495,390324,"0.0-4.161-0.161","am7nyb2k454t7ed",901,"166.csv","","229.59999999403954","resources/trios/L1T2A2.jpg","37","restless",0.8,0.5,0.4,0.433757808659636,"true"
"image-keyboard-response",496,390736,"0.0-4.161-1.161","am7nyb2k454t7ed",901,"166.csv","","null","resources/maskTrios/L1BB.jpg","null","",NA,NA,NA,NA,""
"image-keyboard-response",497,391946,"0.0-4.161-2.161","am7nyb2k454t7ed",901,"166.csv","","null","resources/images/coin2.png","null","",NA,NA,NA,NA,""
"image-keyboard-response",498,392188,"0.0-4.162-0.162","am7nyb2k454t7ed",901,"166.csv","","239.59999999403954","resources/trios/L1T2A2.jpg","37","restless",0.8,0.5,0.4,0.497769668483572,"true"
"image-keyboard-response",499,392605,"0.0-4.162-1.162","am7nyb2k454t7ed",901,"166.csv","","null","resources/maskTrios/L1BB.jpg","null","",NA,NA,NA,NA,""
"image-keyboard-response",500,393822,"0.0-4.162-2.162","am7nyb2k454t7ed",901,"166.csv","","null","resources/images/coin2.png","null","",NA,NA,NA,NA,""
"image-keyboard-response",501,393838,"0.0-4.163-0.163","am7nyb2k454t7ed",901,"166.csv","","14.599999994039536","resources/trios/L1T2A2.jpg","37","restless",0.8,0.5,0.4,0.953601855477773,"false"
"image-keyboard-response",502,394248,"0.0-4.163-1.163","am7nyb2k454t7ed",901,"166.csv","","null","resources/maskTrios/L1BB.jpg","null","",NA,NA,NA,NA,""
"image-keyboard-response",503,395466,"0.0-4.163-2.163","am7nyb2k454t7ed",901,"166.csv","","null","resources/images/fishbone.png","null","",NA,NA,NA,NA,""
"image-keyboard-response",504,395682,"0.0-4.164-0.164","am7nyb2k454t7ed",901,"166.csv","","213.59999999403954","resources/trios/L1T2A2.jpg","38","restless",0.7,0.5,0.4,0.205495395808001,"true"
"image-keyboard-response",505,396097,"0.0-4.164-1.164","am7nyb2k454t7ed",901,"166.csv","","null","resources/maskTrios/BT2B.jpg","null","",NA,NA,NA,NA,""
"image-keyboard-response",506,397305,"0.0-4.164-2.164","am7nyb2k454t7ed",901,"166.csv","","null","resources/images/coin2.png","null","",NA,NA,NA,NA,""
"image-keyboard-response",507,397661,"0.0-4.165-0.165","am7nyb2k454t7ed",901,"166.csv","","353.09999999403954","resources/trios/L1T2A2.jpg","38","restless",0.7,0.5,0.4,0.633681741907315,"false"
"image-keyboard-response",508,398067,"0.0-4.165-1.165","am7nyb2k454t7ed",901,"166.csv","","null","resources/maskTrios/BT2B.jpg","null","",NA,NA,NA,NA,""
"image-keyboard-response",509,399279,"0.0-4.165-2.165","am7nyb2k454t7ed",901,"166.csv","","null","resources/images/fishbone.png","null","",NA,NA,NA,NA,""
"image-keyboard-response",510,399586,"0.0-4.166-0.166","am7nyb2k454t7ed",901,"166.csv","","303.5","resources/trios/L1T2A2.jpg","39","restless",0.7,0.5,0.4,0.963680249381206,"false"
"image-keyboard-response",511,399994,"0.0-4.166-1.166","am7nyb2k454t7ed",901,"166.csv","","null","resources/maskTrios/BBA2.jpg","null","",NA,NA,NA,NA,""
"image-keyboard-response",512,401198,"0.0-4.166-2.166","am7nyb2k454t7ed",901,"166.csv","","null","resources/images/fishbone.png","null","",NA,NA,NA,NA,""
"image-keyboard-response",513,401558,"0.0-4.167-0.167","am7nyb2k454t7ed",901,"166.csv","","357.5","resources/trios/L1T2A2.jpg","39","restless",0.6,0.5,0.4,0.688765321730679,"false"
"image-keyboard-response",514,401963,"0.0-4.167-1.167","am7nyb2k454t7ed",901,"166.csv","","null","resources/maskTrios/BBA2.jpg","null","",NA,NA,NA,NA,""
"image-keyboard-response",515,403175,"0.0-4.167-2.167","am7nyb2k454t7ed",901,"166.csv","","null","resources/images/fishbone.png","null","",NA,NA,NA,NA,""
"image-keyboard-response",516,403503,"0.0-4.168-0.168","am7nyb2k454t7ed",901,"166.csv","","326.10000002384186","resources/trios/L1T2A2.jpg","37","restless",0.6,0.5,0.4,0.45286285054282,"true"
"image-keyboard-response",517,403912,"0.0-4.168-1.168","am7nyb2k454t7ed",901,"166.csv","","null","resources/maskTrios/L1BB.jpg","null","",NA,NA,NA,NA,""
"image-keyboard-response",518,405130,"0.0-4.168-2.168","am7nyb2k454t7ed",901,"166.csv","","null","resources/images/coin2.png","null","",NA,NA,NA,NA,""
"image-keyboard-response",519,405357,"0.0-4.169-0.169","am7nyb2k454t7ed",901,"166.csv","","223.89999997615814","resources/trios/L1T2A2.jpg","37","restless",0.6,0.5,0.4,0.171448280916763,"true"
"image-keyboard-response",520,405767,"0.0-4.169-1.169","am7nyb2k454t7ed",901,"166.csv","","null","resources/maskTrios/L1BB.jpg","null","",NA,NA,NA,NA,""
"image-keyboard-response",521,406979,"0.0-4.169-2.169","am7nyb2k454t7ed",901,"166.csv","","null","resources/images/coin2.png","null","",NA,NA,NA,NA,""
"image-keyboard-response",522,407279,"0.0-4.170-0.170","am7nyb2k454t7ed",901,"166.csv","","298","resources/trios/L1T2A2.jpg","37","restless",0.6,0.5,0.4,0.303735047878039,"true"
"image-keyboard-response",523,407688,"0.0-4.170-1.170","am7nyb2k454t7ed",901,"166.csv","","null","resources/maskTrios/L1BB.jpg","null","",NA,NA,NA,NA,""
"image-keyboard-response",524,408898,"0.0-4.170-2.170","am7nyb2k454t7ed",901,"166.csv","","null","resources/images/coin2.png","null","",NA,NA,NA,NA,""
"image-keyboard-response",525,409183,"0.0-4.171-0.171","am7nyb2k454t7ed",901,"166.csv","","281.90000000596046","resources/trios/L1T2A2.jpg","37","restless",0.6,0.5,0.4,0.197916673021584,"true"
"image-keyboard-response",526,409596,"0.0-4.171-1.171","am7nyb2k454t7ed",901,"166.csv","","null","resources/maskTrios/L1BB.jpg","null","",NA,NA,NA,NA,""
"image-keyboard-response",527,410813,"0.0-4.171-2.171","am7nyb2k454t7ed",901,"166.csv","","null","resources/images/coin2.png","null","",NA,NA,NA,NA,""
"image-keyboard-response",528,411175,"0.0-4.172-0.172","am7nyb2k454t7ed",901,"166.csv","","359.19999998807907","resources/trios/L1T2A2.jpg","37","restless",0.5,0.5,0.4,0.497726400764797,"true"
"image-keyboard-response",529,411587,"0.0-4.172-1.172","am7nyb2k454t7ed",901,"166.csv","","null","resources/maskTrios/L1BB.jpg","null","",NA,NA,NA,NA,""
"image-keyboard-response",530,412804,"0.0-4.172-2.172","am7nyb2k454t7ed",901,"166.csv","","null","resources/images/coin2.png","null","",NA,NA,NA,NA,""
"image-keyboard-response",531,412971,"0.0-4.173-0.173","am7nyb2k454t7ed",901,"166.csv","","164.2000000178814","resources/trios/L1T2A2.jpg","37","restless",0.5,0.5,0.4,0.630827585696034,"false"
"image-keyboard-response",532,413389,"0.0-4.173-1.173","am7nyb2k454t7ed",901,"166.csv","","null","resources/maskTrios/L1BB.jpg","null","",NA,NA,NA,NA,""
"image-keyboard-response",533,414601,"0.0-4.173-2.173","am7nyb2k454t7ed",901,"166.csv","","null","resources/images/fishbone.png","null","",NA,NA,NA,NA,""
"image-keyboard-response",534,414730,"0.0-4.174-0.174","am7nyb2k454t7ed",901,"166.csv","","126.69999998807907","resources/trios/L1T2A2.jpg","38","restless",0.5,0.5,0.4,0.105975700855938,"true"
"image-keyboard-response",535,415135,"0.0-4.174-1.174","am7nyb2k454t7ed",901,"166.csv","","null","resources/maskTrios/BT2B.jpg","null","",NA,NA,NA,NA,""
"image-keyboard-response",536,416344,"0.0-4.174-2.174","am7nyb2k454t7ed",901,"166.csv","","null","resources/images/coin2.png","null","",NA,NA,NA,NA,""
"image-keyboard-response",537,416576,"0.0-4.175-0.175","am7nyb2k454t7ed",901,"166.csv","","229.09999999403954","resources/trios/L1T2A2.jpg","38","restless",0.5,0.5,0.4,0.261543780100674,"true"
"image-keyboard-response",538,416993,"0.0-4.175-1.175","am7nyb2k454t7ed",901,"166.csv","","null","resources/maskTrios/BT2B.jpg","null","",NA,NA,NA,NA,""
"image-keyboard-response",539,418203,"0.0-4.175-2.175","am7nyb2k454t7ed",901,"166.csv","","null","resources/images/coin2.png","null","",NA,NA,NA,NA,""
"image-keyboard-response",540,418511,"0.0-4.176-0.176","am7nyb2k454t7ed",901,"166.csv","","304.90000000596046","resources/trios/L1T2A2.jpg","38","restless",0.5,0.5,0.4,0.361673341912092,"true"
"image-keyboard-response",541,418921,"0.0-4.176-1.176","am7nyb2k454t7ed",901,"166.csv","","null","resources/maskTrios/BT2B.jpg","null","",NA,NA,NA,NA,""
"image-keyboard-response",542,420127,"0.0-4.176-2.176","am7nyb2k454t7ed",901,"166.csv","","null","resources/images/coin2.png","null","",NA,NA,NA,NA,""
"image-keyboard-response",543,420343,"0.0-4.177-0.177","am7nyb2k454t7ed",901,"166.csv","","213.5","resources/trios/L1T2A2.jpg","38","restless",0.5,0.5,0.5,0.719652330652617,"false"
"image-keyboard-response",544,420754,"0.0-4.177-1.177","am7nyb2k454t7ed",901,"166.csv","","null","resources/maskTrios/BT2B.jpg","null","",NA,NA,NA,NA,""
"image-keyboard-response",545,421959,"0.0-4.177-2.177","am7nyb2k454t7ed",901,"166.csv","","null","resources/images/fishbone.png","null","",NA,NA,NA,NA,""
"image-keyboard-response",546,422126,"0.0-4.178-0.178","am7nyb2k454t7ed",901,"166.csv","","163.5","resources/trios/L1T2A2.jpg","39","restless",0.5,0.5,0.5,0.0515104381767097,"true"
"image-keyboard-response",547,422534,"0.0-4.178-1.178","am7nyb2k454t7ed",901,"166.csv","","null","resources/maskTrios/BBA2.jpg","null","",NA,NA,NA,NA,""
"image-keyboard-response",548,423745,"0.0-4.178-2.178","am7nyb2k454t7ed",901,"166.csv","","null","resources/images/coin2.png","null","",NA,NA,NA,NA,""
"image-keyboard-response",549,424013,"0.0-4.179-0.179","am7nyb2k454t7ed",901,"166.csv","","264.5","resources/trios/L1T2A2.jpg","39","restless",0.5,0.5,0.5,0.88061730559498,"false"
"image-keyboard-response",550,424427,"0.0-4.179-1.179","am7nyb2k454t7ed",901,"166.csv","","null","resources/maskTrios/BBA2.jpg","null","",NA,NA,NA,NA,""
"image-keyboard-response",551,425638,"0.0-4.179-2.179","am7nyb2k454t7ed",901,"166.csv","","null","resources/images/fishbone.png","null","",NA,NA,NA,NA,""
"image-keyboard-response",552,425843,"0.0-4.180-0.180","am7nyb2k454t7ed",901,"166.csv","","201.59999999403954","resources/trios/L1T2A2.jpg","37","restless",0.5,0.5,0.5,0.209069650393114,"true"
"image-keyboard-response",553,426256,"0.0-4.180-1.180","am7nyb2k454t7ed",901,"166.csv","","null","resources/maskTrios/L1BB.jpg","null","",NA,NA,NA,NA,""
"image-keyboard-response",554,427465,"0.0-4.180-2.180","am7nyb2k454t7ed",901,"166.csv","","null","resources/images/coin2.png","null","",NA,NA,NA,NA,""
"image-keyboard-response",555,427783,"0.0-4.181-0.181","am7nyb2k454t7ed",901,"166.csv","","314.90000000596046","resources/trios/L1T2A2.jpg","37","restless",0.5,0.5,0.6,0.213094837056418,"true"
"image-keyboard-response",556,428199,"0.0-4.181-1.181","am7nyb2k454t7ed",901,"166.csv","","null","resources/maskTrios/L1BB.jpg","null","",NA,NA,NA,NA,""
"image-keyboard-response",557,429409,"0.0-4.181-2.181","am7nyb2k454t7ed",901,"166.csv","","null","resources/images/coin2.png","null","",NA,NA,NA,NA,""
"image-keyboard-response",558,429815,"0.0-4.182-0.182","am7nyb2k454t7ed",901,"166.csv","","402.59999999403954","resources/trios/L1T2A2.jpg","37","restless",0.5,0.5,0.6,0.456295043584908,"true"
"image-keyboard-response",559,430219,"0.0-4.182-1.182","am7nyb2k454t7ed",901,"166.csv","","null","resources/maskTrios/L1BB.jpg","null","",NA,NA,NA,NA,""
"image-keyboard-response",560,431431,"0.0-4.182-2.182","am7nyb2k454t7ed",901,"166.csv","","null","resources/images/coin2.png","null","",NA,NA,NA,NA,""
"image-keyboard-response",561,431854,"0.0-4.183-0.183","am7nyb2k454t7ed",901,"166.csv","","419.5","resources/trios/L1T2A2.jpg","37","restless",0.5,0.5,0.6,0.462731531694129,"true"
"image-keyboard-response",562,432264,"0.0-4.183-1.183","am7nyb2k454t7ed",901,"166.csv","","null","resources/maskTrios/L1BB.jpg","null","",NA,NA,NA,NA,""
"image-keyboard-response",563,433471,"0.0-4.183-2.183","am7nyb2k454t7ed",901,"166.csv","","null","resources/images/coin2.png","null","",NA,NA,NA,NA,""
"image-keyboard-response",564,433783,"0.0-4.184-0.184","am7nyb2k454t7ed",901,"166.csv","","308","resources/trios/L1T2A2.jpg","38","restless",0.5,0.5,0.6,0.0348768878060317,"true"
"image-keyboard-response",565,434204,"0.0-4.184-1.184","am7nyb2k454t7ed",901,"166.csv","","null","resources/maskTrios/BT2B.jpg","null","",NA,NA,NA,NA,""
"image-keyboard-response",566,435416,"0.0-4.184-2.184","am7nyb2k454t7ed",901,"166.csv","","null","resources/images/coin2.png","null","",NA,NA,NA,NA,""
"image-keyboard-response",567,435726,"0.0-4.185-0.185","am7nyb2k454t7ed",901,"166.csv","","307.30000001192093","resources/trios/L1T2A2.jpg","37","restless",0.5,0.5,0.6,0.701197112396259,"false"
"image-keyboard-response",568,436135,"0.0-4.185-1.185","am7nyb2k454t7ed",901,"166.csv","","null","resources/maskTrios/L1BB.jpg","null","",NA,NA,NA,NA,""
"image-keyboard-response",569,437349,"0.0-4.185-2.185","am7nyb2k454t7ed",901,"166.csv","","null","resources/images/fishbone.png","null","",NA,NA,NA,NA,""
"image-keyboard-response",570,437675,"0.0-4.186-0.186","am7nyb2k454t7ed",901,"166.csv","","323","resources/trios/L1T2A2.jpg","38","restless",0.5,0.5,0.6,0.24027542579654,"true"
"image-keyboard-response",571,438086,"0.0-4.186-1.186","am7nyb2k454t7ed",901,"166.csv","","null","resources/maskTrios/BT2B.jpg","null","",NA,NA,NA,NA,""
"image-keyboard-response",572,439298,"0.0-4.186-2.186","am7nyb2k454t7ed",901,"166.csv","","null","resources/images/coin2.png","null","",NA,NA,NA,NA,""
"image-keyboard-response",573,439629,"0.0-4.187-0.187","am7nyb2k454t7ed",901,"166.csv","","327.80000001192093","resources/trios/L1T2A2.jpg","38","restless",0.5,0.5,0.6,0.840580915815017,"false"
"image-keyboard-response",574,440041,"0.0-4.187-1.187","am7nyb2k454t7ed",901,"166.csv","","null","resources/maskTrios/BT2B.jpg","null","",NA,NA,NA,NA,""
"image-keyboard-response",575,441250,"0.0-4.187-2.187","am7nyb2k454t7ed",901,"166.csv","","null","resources/images/fishbone.png","null","",NA,NA,NA,NA,""
"image-keyboard-response",576,441495,"0.0-4.188-0.188","am7nyb2k454t7ed",901,"166.csv","","242.5","resources/trios/L1T2A2.jpg","39","restless",0.5,0.5,0.6,0.271903660378609,"true"
"image-keyboard-response",577,441910,"0.0-4.188-1.188","am7nyb2k454t7ed",901,"166.csv","","null","resources/maskTrios/BBA2.jpg","null","",NA,NA,NA,NA,""
"image-keyboard-response",578,443122,"0.0-4.188-2.188","am7nyb2k454t7ed",901,"166.csv","","null","resources/images/coin2.png","null","",NA,NA,NA,NA,""
"image-keyboard-response",579,443341,"0.0-4.189-0.189","am7nyb2k454t7ed",901,"166.csv","","216.2000000178814","resources/trios/L1T2A2.jpg","39","restless",0.5,0.5,0.6,0.831307358215639,"false"
"image-keyboard-response",580,443756,"0.0-4.189-1.189","am7nyb2k454t7ed",901,"166.csv","","null","resources/maskTrios/BBA2.jpg","null","",NA,NA,NA,NA,""
"image-keyboard-response",581,444964,"0.0-4.189-2.189","am7nyb2k454t7ed",901,"166.csv","","null","resources/images/fishbone.png","null","",NA,NA,NA,NA,""
"image-keyboard-response",582,445303,"0.0-4.190-0.190","am7nyb2k454t7ed",901,"166.csv","","335.7999999821186","resources/trios/L1T2A2.jpg","37","restless",0.5,0.5,0.6,0.386833494344498,"true"
"image-keyboard-response",583,445707,"0.0-4.190-1.190","am7nyb2k454t7ed",901,"166.csv","","null","resources/maskTrios/L1BB.jpg","null","",NA,NA,NA,NA,""
"image-keyboard-response",584,446923,"0.0-4.190-2.190","am7nyb2k454t7ed",901,"166.csv","","null","resources/images/coin2.png","null","",NA,NA,NA,NA,""
"image-keyboard-response",585,447182,"0.0-4.191-0.191","am7nyb2k454t7ed",901,"166.csv","","255.2999999821186","resources/trios/L1T2A2.jpg","38","restless",0.5,0.5,0.6,0.518355286533525,"false"
"image-keyboard-response",586,447592,"0.0-4.191-1.191","am7nyb2k454t7ed",901,"166.csv","","null","resources/maskTrios/BT2B.jpg","null","",NA,NA,NA,NA,""
"image-keyboard-response",587,448807,"0.0-4.191-2.191","am7nyb2k454t7ed",901,"166.csv","","null","resources/images/fishbone.png","null","",NA,NA,NA,NA,""
"image-keyboard-response",588,449101,"0.0-4.192-0.192","am7nyb2k454t7ed",901,"166.csv","","290.90000000596046","resources/trios/L1T2A2.jpg","37","restless",0.5,0.5,0.6,0.669623292561701,"false"
"image-keyboard-response",589,449508,"0.0-4.192-1.192","am7nyb2k454t7ed",901,"166.csv","","null","resources/maskTrios/L1BB.jpg","null","",NA,NA,NA,NA,""
"image-keyboard-response",590,450711,"0.0-4.192-2.192","am7nyb2k454t7ed",901,"166.csv","","null","resources/images/fishbone.png","null","",NA,NA,NA,NA,""
"image-keyboard-response",591,451109,"0.0-4.193-0.193","am7nyb2k454t7ed",901,"166.csv","","395","resources/trios/L1T2A2.jpg","39","restless",0.6,0.5,0.6,0.325018833292813,"true"
"image-keyboard-response",592,451515,"0.0-4.193-1.193","am7nyb2k454t7ed",901,"166.csv","","null","resources/maskTrios/BBA2.jpg","null","",NA,NA,NA,NA,""
"image-keyboard-response",593,452727,"0.0-4.193-2.193","am7nyb2k454t7ed",901,"166.csv","","null","resources/images/coin2.png","null","",NA,NA,NA,NA,""
"image-keyboard-response",594,453294,"0.0-4.194-0.194","am7nyb2k454t7ed",901,"166.csv","","564.5","resources/trios/L1T2A2.jpg","39","restless",0.6,0.5,0.6,0.900135788246531,"false"
"image-keyboard-response",595,453703,"0.0-4.194-1.194","am7nyb2k454t7ed",901,"166.csv","","null","resources/maskTrios/BBA2.jpg","null","",NA,NA,NA,NA,""
"image-keyboard-response",596,454913,"0.0-4.194-2.194","am7nyb2k454t7ed",901,"166.csv","","null","resources/images/fishbone.png","null","",NA,NA,NA,NA,""
"image-keyboard-response",597,455240,"0.0-4.195-0.195","am7nyb2k454t7ed",901,"166.csv","","323.30000001192093","resources/trios/L1T2A2.jpg","38","restless",0.6,0.5,0.6,0.401282502815693,"true"
"image-keyboard-response",598,455653,"0.0-4.195-1.195","am7nyb2k454t7ed",901,"166.csv","","null","resources/maskTrios/BT2B.jpg","null","",NA,NA,NA,NA,""
"image-keyboard-response",599,456863,"0.0-4.195-2.195","am7nyb2k454t7ed",901,"166.csv","","null","resources/images/coin2.png","null","",NA,NA,NA,NA,""
"image-keyboard-response",600,457444,"0.0-4.196-0.196","am7nyb2k454t7ed",901,"166.csv","","578.0999999940395","resources/trios/L1T2A2.jpg","38","restless",0.6,0.5,0.6,0.501524311952233,"false"
"image-keyboard-response",601,457857,"0.0-4.196-1.196","am7nyb2k454t7ed",901,"166.csv","","null","resources/maskTrios/BT2B.jpg","null","",NA,NA,NA,NA,""
"image-keyboard-response",602,459066,"0.0-4.196-2.196","am7nyb2k454t7ed",901,"166.csv","","null","resources/images/fishbone.png","null","",NA,NA,NA,NA,""
"image-keyboard-response",603,459352,"0.0-4.197-0.197","am7nyb2k454t7ed",901,"166.csv","","282.80000001192093","resources/trios/L1T2A2.jpg","37","restless",0.6,0.5,0.6,0.356000910125603,"true"
"image-keyboard-response",604,459760,"0.0-4.197-1.197","am7nyb2k454t7ed",901,"166.csv","","null","resources/maskTrios/L1BB.jpg","null","",NA,NA,NA,NA,""
"image-keyboard-response",605,460978,"0.0-4.197-2.197","am7nyb2k454t7ed",901,"166.csv","","null","resources/images/coin2.png","null","",NA,NA,NA,NA,""
"image-keyboard-response",606,461299,"0.0-4.198-0.198","am7nyb2k454t7ed",901,"166.csv","","317.80000001192093","resources/trios/L1T2A2.jpg","37","restless",0.6,0.5,0.6,0.13914377549086,"true"
"image-keyboard-response",607,461706,"0.0-4.198-1.198","am7nyb2k454t7ed",901,"166.csv","","null","resources/maskTrios/L1BB.jpg","null","",NA,NA,NA,NA,""
"image-keyboard-response",608,462913,"0.0-4.198-2.198","am7nyb2k454t7ed",901,"166.csv","","null","resources/images/coin2.png","null","",NA,NA,NA,NA,""
