"trial_type","trial_index","time_elapsed","internal_node_id","subject","participantCode","walkNumber","success","rt","stimulus","key_press","test_part","leftProb","midProb","rightProb","generatedNum","correct"
"pavlovia",0,1021,"0.0-0.0","x9jud5psr9rj091",410,"141.csv","","","","","",NA,NA,NA,NA,""
"fullscreen",1,4966,"0.0-1.0","x9jud5psr9rj091",410,"141.csv","true","","","","",NA,NA,NA,NA,""
"survey-html-form",2,12656,"0.0-2.0","x9jud5psr9rj091",410,"141.csv","","7675.5999999940395","","","",NA,NA,NA,NA,""
"image-keyboard-response",3,39172,"0.0-3.0-0.0","x9jud5psr9rj091",410,"141.csv","","26506.39999999106","resources/images/parrot_nobg.png","13","",NA,NA,NA,NA,""
"image-keyboard-response",4,42189,"0.0-3.0-1.0","x9jud5psr9rj091",410,"141.csv","","null","resources/image_sets/111.png","null","",NA,NA,NA,NA,""
"image-keyboard-response",5,46844,"0.0-3.0-2.0","x9jud5psr9rj091",410,"141.csv","","4643.600000008941","resources/image_sets/left_highlight.png","37","",NA,NA,NA,NA,""
"image-keyboard-response",6,49940,"0.0-3.0-3.0","x9jud5psr9rj091",410,"141.csv","","3081.8999999910593","resources/image_sets/mid_highlight.png","38","",NA,NA,NA,NA,""
"image-keyboard-response",7,51161,"0.0-3.0-4.0","x9jud5psr9rj091",410,"141.csv","","1213.7000000029802","resources/image_sets/right_highlight.png","39","",NA,NA,NA,NA,""
"image-keyboard-response",8,54617,"0.0-3.0-5.0","x9jud5psr9rj091",410,"141.csv","","3450.2999999970198","resources/image_sets/111.png","13","",NA,NA,NA,NA,""
"image-keyboard-response",9,57508,"0.0-3.0-6.0","x9jud5psr9rj091",410,"141.csv","","2887.8999999910593","resources/images/coin2.png","13","",NA,NA,NA,NA,""
"image-keyboard-response",10,59310,"0.0-3.0-7.0","x9jud5psr9rj091",410,"141.csv","","1796","resources/images/fishbone.png","13","",NA,NA,NA,NA,""
"html-keyboard-response",11,65690,"0.0-3.0-8.0","x9jud5psr9rj091",410,"141.csv","","6376","<p>You can track your coin total on the top right of your screen. </p><p>At the end of your journey you will be directed to a survey, so please click on the link before exiting the task</p><p>Press Enter to begin</p>","13","",NA,NA,NA,NA,""
"image-keyboard-response",12,67835,"0.0-4.0-0.0","x9jud5psr9rj091",410,"141.csv","","2135","resources/trios/L1T2A2.jpg","37","restless",0.3,0.7,0.9,0.134349161294407,"true"
"image-keyboard-response",13,68267,"0.0-4.0-1.0","x9jud5psr9rj091",410,"141.csv","","null","resources/maskTrios/L1BB.jpg","null","",NA,NA,NA,NA,""
"image-keyboard-response",14,69498,"0.0-4.0-2.0","x9jud5psr9rj091",410,"141.csv","","null","resources/images/coin2.png","null","",NA,NA,NA,NA,""
"image-keyboard-response",15,71070,"0.0-4.1-0.1","x9jud5psr9rj091",410,"141.csv","","1553.1000000089407","resources/trios/L1T2A2.jpg","37","restless",0.3,0.7,0.9,0.101416192450448,"true"
"image-keyboard-response",16,71490,"0.0-4.1-1.1","x9jud5psr9rj091",410,"141.csv","","null","resources/maskTrios/L1BB.jpg","null","",NA,NA,NA,NA,""
"image-keyboard-response",17,72715,"0.0-4.1-2.1","x9jud5psr9rj091",410,"141.csv","","null","resources/images/coin2.png","null","",NA,NA,NA,NA,""
"image-keyboard-response",18,73406,"0.0-4.2-0.2","x9jud5psr9rj091",410,"141.csv","","672","resources/trios/L1T2A2.jpg","39","restless",0.4,0.7,0.9,0.438042094027121,"true"
"image-keyboard-response",19,73827,"0.0-4.2-1.2","x9jud5psr9rj091",410,"141.csv","","null","resources/maskTrios/BBA2.jpg","null","",NA,NA,NA,NA,""
"image-keyboard-response",20,75049,"0.0-4.2-2.2","x9jud5psr9rj091",410,"141.csv","","null","resources/images/coin2.png","null","",NA,NA,NA,NA,""
"image-keyboard-response",21,76422,"0.0-4.3-0.3","x9jud5psr9rj091",410,"141.csv","","1361","resources/trios/L1T2A2.jpg","38","restless",0.4,0.6,0.8,0.0252316804594221,"true"
"image-keyboard-response",22,76843,"0.0-4.3-1.3","x9jud5psr9rj091",410,"141.csv","","null","resources/maskTrios/BT2B.jpg","null","",NA,NA,NA,NA,""
"image-keyboard-response",23,78059,"0.0-4.3-2.3","x9jud5psr9rj091",410,"141.csv","","null","resources/images/coin2.png","null","",NA,NA,NA,NA,""
"image-keyboard-response",24,79087,"0.0-4.4-0.4","x9jud5psr9rj091",410,"141.csv","","1009","resources/trios/L1T2A2.jpg","37","restless",0.4,0.6,0.8,0.313511825727459,"true"
"image-keyboard-response",25,79521,"0.0-4.4-1.4","x9jud5psr9rj091",410,"141.csv","","null","resources/maskTrios/L1BB.jpg","null","",NA,NA,NA,NA,""
"image-keyboard-response",26,80754,"0.0-4.4-2.4","x9jud5psr9rj091",410,"141.csv","","null","resources/images/coin2.png","null","",NA,NA,NA,NA,""
"image-keyboard-response",27,81156,"0.0-4.5-0.5","x9jud5psr9rj091",410,"141.csv","","387.70000000298023","resources/trios/L1T2A2.jpg","37","restless",0.4,0.6,0.8,0.33169869914079,"true"
"image-keyboard-response",28,81579,"0.0-4.5-1.5","x9jud5psr9rj091",410,"141.csv","","null","resources/maskTrios/L1BB.jpg","null","",NA,NA,NA,NA,""
"image-keyboard-response",29,82787,"0.0-4.5-2.5","x9jud5psr9rj091",410,"141.csv","","null","resources/images/coin2.png","null","",NA,NA,NA,NA,""
"image-keyboard-response",30,83178,"0.0-4.6-0.6","x9jud5psr9rj091",410,"141.csv","","381.79999999701977","resources/trios/L1T2A2.jpg","39","restless",0.4,0.6,0.8,0.808389065745182,"false"
"image-keyboard-response",31,83595,"0.0-4.6-1.6","x9jud5psr9rj091",410,"141.csv","","null","resources/maskTrios/BBA2.jpg","null","",NA,NA,NA,NA,""
"image-keyboard-response",32,84807,"0.0-4.6-2.6","x9jud5psr9rj091",410,"141.csv","","null","resources/images/fishbone.png","null","",NA,NA,NA,NA,""
"image-keyboard-response",33,85101,"0.0-4.7-0.7","x9jud5psr9rj091",410,"141.csv","","282.59999999403954","resources/trios/L1T2A2.jpg","38","restless",0.4,0.6,0.8,0.478964444886715,"true"
"image-keyboard-response",34,85529,"0.0-4.7-1.7","x9jud5psr9rj091",410,"141.csv","","null","resources/maskTrios/BT2B.jpg","null","",NA,NA,NA,NA,""
"image-keyboard-response",35,86761,"0.0-4.7-2.7","x9jud5psr9rj091",410,"141.csv","","null","resources/images/coin2.png","null","",NA,NA,NA,NA,""
"image-keyboard-response",36,87161,"0.0-4.8-0.8","x9jud5psr9rj091",410,"141.csv","","388","resources/trios/L1T2A2.jpg","37","restless",0.4,0.6,0.8,0.138856467138784,"true"
"image-keyboard-response",37,87586,"0.0-4.8-1.8","x9jud5psr9rj091",410,"141.csv","","null","resources/maskTrios/L1BB.jpg","null","",NA,NA,NA,NA,""
"image-keyboard-response",38,88801,"0.0-4.8-2.8","x9jud5psr9rj091",410,"141.csv","","null","resources/images/coin2.png","null","",NA,NA,NA,NA,""
"image-keyboard-response",39,89187,"0.0-4.9-0.9","x9jud5psr9rj091",410,"141.csv","","374","resources/trios/L1T2A2.jpg","37","restless",0.5,0.6,0.8,0.765823102699671,"false"
"image-keyboard-response",40,89608,"0.0-4.9-1.9","x9jud5psr9rj091",410,"141.csv","","null","resources/maskTrios/L1BB.jpg","null","",NA,NA,NA,NA,""
"image-keyboard-response",41,90819,"0.0-4.9-2.9","x9jud5psr9rj091",410,"141.csv","","null","resources/images/fishbone.png","null","",NA,NA,NA,NA,""
"image-keyboard-response",42,91174,"0.0-4.10-0.10","x9jud5psr9rj091",410,"141.csv","","342.6000000089407","resources/trios/L1T2A2.jpg","39","restless",0.5,0.6,0.8,0.866096541786975,"false"
"image-keyboard-response",43,91597,"0.0-4.10-1.10","x9jud5psr9rj091",410,"141.csv","","null","resources/maskTrios/BBA2.jpg","null","",NA,NA,NA,NA,""
"image-keyboard-response",44,92812,"0.0-4.10-2.10","x9jud5psr9rj091",410,"141.csv","","null","resources/images/fishbone.png","null","",NA,NA,NA,NA,""
"image-keyboard-response",45,92840,"0.0-4.11-0.11","x9jud5psr9rj091",410,"141.csv","","17.299999997019768","resources/trios/L1T2A2.jpg","38","restless",0.5,0.6,0.8,0.871803999593941,"false"
"image-keyboard-response",46,93263,"0.0-4.11-1.11","x9jud5psr9rj091",410,"141.csv","","null","resources/maskTrios/BT2B.jpg","null","",NA,NA,NA,NA,""
"image-keyboard-response",47,94470,"0.0-4.11-2.11","x9jud5psr9rj091",410,"141.csv","","null","resources/images/fishbone.png","null","",NA,NA,NA,NA,""
"image-keyboard-response",48,94960,"0.0-4.12-0.12","x9jud5psr9rj091",410,"141.csv","","477.5","resources/trios/L1T2A2.jpg","39","restless",0.4,0.6,0.8,0.0538142572662403,"true"
"image-keyboard-response",49,95378,"0.0-4.12-1.12","x9jud5psr9rj091",410,"141.csv","","null","resources/maskTrios/BBA2.jpg","null","",NA,NA,NA,NA,""
"image-keyboard-response",50,96589,"0.0-4.12-2.12","x9jud5psr9rj091",410,"141.csv","","null","resources/images/coin2.png","null","",NA,NA,NA,NA,""
"image-keyboard-response",51,97036,"0.0-4.13-0.13","x9jud5psr9rj091",410,"141.csv","","436.40000000596046","resources/trios/L1T2A2.jpg","37","restless",0.4,0.6,0.8,0.402439594138393,"false"
"image-keyboard-response",52,97455,"0.0-4.13-1.13","x9jud5psr9rj091",410,"141.csv","","null","resources/maskTrios/L1BB.jpg","null","",NA,NA,NA,NA,""
"image-keyboard-response",53,98669,"0.0-4.13-2.13","x9jud5psr9rj091",410,"141.csv","","null","resources/images/fishbone.png","null","",NA,NA,NA,NA,""
"image-keyboard-response",54,99002,"0.0-4.14-0.14","x9jud5psr9rj091",410,"141.csv","","324.70000000298023","resources/trios/L1T2A2.jpg","39","restless",0.4,0.6,0.8,0.617391942445298,"true"
"image-keyboard-response",55,99423,"0.0-4.14-1.14","x9jud5psr9rj091",410,"141.csv","","null","resources/maskTrios/BBA2.jpg","null","",NA,NA,NA,NA,""
"image-keyboard-response",56,100642,"0.0-4.14-2.14","x9jud5psr9rj091",410,"141.csv","","null","resources/images/coin2.png","null","",NA,NA,NA,NA,""
"image-keyboard-response",57,101323,"0.0-4.15-0.15","x9jud5psr9rj091",410,"141.csv","","664","resources/trios/L1T2A2.jpg","38","restless",0.4,0.6,0.8,0.864088646069732,"false"
"image-keyboard-response",58,101745,"0.0-4.15-1.15","x9jud5psr9rj091",410,"141.csv","","null","resources/maskTrios/BT2B.jpg","null","",NA,NA,NA,NA,""
"image-keyboard-response",59,102954,"0.0-4.15-2.15","x9jud5psr9rj091",410,"141.csv","","null","resources/images/fishbone.png","null","",NA,NA,NA,NA,""
"image-keyboard-response",60,103516,"0.0-4.16-0.16","x9jud5psr9rj091",410,"141.csv","","547.5","resources/trios/L1T2A2.jpg","39","restless",0.4,0.6,0.7,0.0515598559566961,"true"
"image-keyboard-response",61,103934,"0.0-4.16-1.16","x9jud5psr9rj091",410,"141.csv","","null","resources/maskTrios/BBA2.jpg","null","",NA,NA,NA,NA,""
"image-keyboard-response",62,105164,"0.0-4.16-2.16","x9jud5psr9rj091",410,"141.csv","","null","resources/images/coin2.png","null","",NA,NA,NA,NA,""
"image-keyboard-response",63,105497,"0.0-4.17-0.17","x9jud5psr9rj091",410,"141.csv","","322.90000000596046","resources/trios/L1T2A2.jpg","39","restless",0.4,0.6,0.7,0.769792462121181,"false"
"image-keyboard-response",64,105920,"0.0-4.17-1.17","x9jud5psr9rj091",410,"141.csv","","null","resources/maskTrios/BBA2.jpg","null","",NA,NA,NA,NA,""
"image-keyboard-response",65,107144,"0.0-4.17-2.17","x9jud5psr9rj091",410,"141.csv","","null","resources/images/fishbone.png","null","",NA,NA,NA,NA,""
"image-keyboard-response",66,107400,"0.0-4.18-0.18","x9jud5psr9rj091",410,"141.csv","","239.70000000298023","resources/trios/L1T2A2.jpg","37","restless",0.4,0.6,0.7,0.415943361038098,"false"
"image-keyboard-response",67,107815,"0.0-4.18-1.18","x9jud5psr9rj091",410,"141.csv","","null","resources/maskTrios/L1BB.jpg","null","",NA,NA,NA,NA,""
"image-keyboard-response",68,109036,"0.0-4.18-2.18","x9jud5psr9rj091",410,"141.csv","","null","resources/images/fishbone.png","null","",NA,NA,NA,NA,""
"image-keyboard-response",69,109389,"0.0-4.19-0.19","x9jud5psr9rj091",410,"141.csv","","341.70000000298023","resources/trios/L1T2A2.jpg","37","restless",0.4,0.6,0.7,0.868670451676401,"false"
"image-keyboard-response",70,109810,"0.0-4.19-1.19","x9jud5psr9rj091",410,"141.csv","","null","resources/maskTrios/L1BB.jpg","null","",NA,NA,NA,NA,""
"image-keyboard-response",71,111019,"0.0-4.19-2.19","x9jud5psr9rj091",410,"141.csv","","null","resources/images/fishbone.png","null","",NA,NA,NA,NA,""
"image-keyboard-response",72,111412,"0.0-4.20-0.20","x9jud5psr9rj091",410,"141.csv","","381.70000000298023","resources/trios/L1T2A2.jpg","37","restless",0.4,0.6,0.6,0.168161267244448,"true"
"image-keyboard-response",73,111840,"0.0-4.20-1.20","x9jud5psr9rj091",410,"141.csv","","null","resources/maskTrios/L1BB.jpg","null","",NA,NA,NA,NA,""
"image-keyboard-response",74,113058,"0.0-4.20-2.20","x9jud5psr9rj091",410,"141.csv","","null","resources/images/coin2.png","null","",NA,NA,NA,NA,""
"image-keyboard-response",75,118584,"0.0-4.21-0.21","x9jud5psr9rj091",410,"141.csv","","5515","resources/trios/L1T2A2.jpg","37","restless",0.4,0.6,0.6,0.235416898014661,"true"
"image-keyboard-response",76,119006,"0.0-4.21-1.21","x9jud5psr9rj091",410,"141.csv","","null","resources/maskTrios/L1BB.jpg","null","",NA,NA,NA,NA,""
"image-keyboard-response",77,120216,"0.0-4.21-2.21","x9jud5psr9rj091",410,"141.csv","","null","resources/images/coin2.png","null","",NA,NA,NA,NA,""
"image-keyboard-response",78,120899,"0.0-4.22-0.22","x9jud5psr9rj091",410,"141.csv","","671.0999999940395","resources/trios/L1T2A2.jpg","39","restless",0.4,0.6,0.5,0.192214668190378,"true"
"image-keyboard-response",79,121310,"0.0-4.22-1.22","x9jud5psr9rj091",410,"141.csv","","null","resources/maskTrios/BBA2.jpg","null","",NA,NA,NA,NA,""
"image-keyboard-response",80,122532,"0.0-4.22-2.22","x9jud5psr9rj091",410,"141.csv","","null","resources/images/coin2.png","null","",NA,NA,NA,NA,""
"image-keyboard-response",81,122926,"0.0-4.23-0.23","x9jud5psr9rj091",410,"141.csv","","383.40000000596046","resources/trios/L1T2A2.jpg","38","restless",0.4,0.6,0.5,0.0826353294320363,"true"
"image-keyboard-response",82,123347,"0.0-4.23-1.23","x9jud5psr9rj091",410,"141.csv","","null","resources/maskTrios/BT2B.jpg","null","",NA,NA,NA,NA,""
"image-keyboard-response",83,124572,"0.0-4.23-2.23","x9jud5psr9rj091",410,"141.csv","","null","resources/images/coin2.png","null","",NA,NA,NA,NA,""
"image-keyboard-response",84,124958,"0.0-4.24-0.24","x9jud5psr9rj091",410,"141.csv","","375.19999998807907","resources/trios/L1T2A2.jpg","37","restless",0.4,0.6,0.4,0.159358335356032,"true"
"image-keyboard-response",85,125381,"0.0-4.24-1.24","x9jud5psr9rj091",410,"141.csv","","null","resources/maskTrios/L1BB.jpg","null","",NA,NA,NA,NA,""
"image-keyboard-response",86,126591,"0.0-4.24-2.24","x9jud5psr9rj091",410,"141.csv","","null","resources/images/coin2.png","null","",NA,NA,NA,NA,""
"image-keyboard-response",87,126709,"0.0-4.25-0.25","x9jud5psr9rj091",410,"141.csv","","107.70000000298023","resources/trios/L1T2A2.jpg","39","restless",0.4,0.6,0.4,0.177119067868009,"true"
"image-keyboard-response",88,127130,"0.0-4.25-1.25","x9jud5psr9rj091",410,"141.csv","","null","resources/maskTrios/BBA2.jpg","null","",NA,NA,NA,NA,""
"image-keyboard-response",89,128341,"0.0-4.25-2.25","x9jud5psr9rj091",410,"141.csv","","null","resources/images/coin2.png","null","",NA,NA,NA,NA,""
"image-keyboard-response",90,128673,"0.0-4.26-0.26","x9jud5psr9rj091",410,"141.csv","","320.29999999701977","resources/trios/L1T2A2.jpg","38","restless",0.3,0.6,0.4,0.0645926705478361,"true"
"image-keyboard-response",91,129085,"0.0-4.26-1.26","x9jud5psr9rj091",410,"141.csv","","null","resources/maskTrios/BT2B.jpg","null","",NA,NA,NA,NA,""
"image-keyboard-response",92,130303,"0.0-4.26-2.26","x9jud5psr9rj091",410,"141.csv","","null","resources/images/coin2.png","null","",NA,NA,NA,NA,""
"image-keyboard-response",93,130589,"0.0-4.27-0.27","x9jud5psr9rj091",410,"141.csv","","275.09999999403954","resources/trios/L1T2A2.jpg","37","restless",0.3,0.6,0.4,0.841530118432374,"false"
"image-keyboard-response",94,131000,"0.0-4.27-1.27","x9jud5psr9rj091",410,"141.csv","","null","resources/maskTrios/L1BB.jpg","null","",NA,NA,NA,NA,""
"image-keyboard-response",95,132214,"0.0-4.27-2.27","x9jud5psr9rj091",410,"141.csv","","null","resources/images/fishbone.png","null","",NA,NA,NA,NA,""
"image-keyboard-response",96,132921,"0.0-4.28-0.28","x9jud5psr9rj091",410,"141.csv","","704.2999999970198","resources/trios/L1T2A2.jpg","37","restless",0.3,0.5,0.4,0.890829443123773,"false"
"image-keyboard-response",97,133330,"0.0-4.28-1.28","x9jud5psr9rj091",410,"141.csv","","null","resources/maskTrios/L1BB.jpg","null","",NA,NA,NA,NA,""
"image-keyboard-response",98,134538,"0.0-4.28-2.28","x9jud5psr9rj091",410,"141.csv","","null","resources/images/fishbone.png","null","",NA,NA,NA,NA,""
"image-keyboard-response",99,134897,"0.0-4.29-0.29","x9jud5psr9rj091",410,"141.csv","","348.09999999403954","resources/trios/L1T2A2.jpg","37","restless",0.2,0.5,0.4,0.82472372478876,"false"
"image-keyboard-response",100,135307,"0.0-4.29-1.29","x9jud5psr9rj091",410,"141.csv","","null","resources/maskTrios/L1BB.jpg","null","",NA,NA,NA,NA,""
"image-keyboard-response",101,136516,"0.0-4.29-2.29","x9jud5psr9rj091",410,"141.csv","","null","resources/images/fishbone.png","null","",NA,NA,NA,NA,""
"image-keyboard-response",102,136756,"0.0-4.30-0.30","x9jud5psr9rj091",410,"141.csv","","229.70000000298023","resources/trios/L1T2A2.jpg","37","restless",0.2,0.5,0.4,0.999494084516507,"false"
"image-keyboard-response",103,137176,"0.0-4.30-1.30","x9jud5psr9rj091",410,"141.csv","","null","resources/maskTrios/L1BB.jpg","null","",NA,NA,NA,NA,""
"image-keyboard-response",104,138385,"0.0-4.30-2.30","x9jud5psr9rj091",410,"141.csv","","null","resources/images/fishbone.png","null","",NA,NA,NA,NA,""
"image-keyboard-response",105,138739,"0.0-4.31-0.31","x9jud5psr9rj091",410,"141.csv","","346","resources/trios/L1T2A2.jpg","37","restless",0.2,0.6,0.3,0.778395419276401,"false"
"image-keyboard-response",106,139147,"0.0-4.31-1.31","x9jud5psr9rj091",410,"141.csv","","null","resources/maskTrios/L1BB.jpg","null","",NA,NA,NA,NA,""
"image-keyboard-response",107,140355,"0.0-4.31-2.31","x9jud5psr9rj091",410,"141.csv","","null","resources/images/fishbone.png","null","",NA,NA,NA,NA,""
"image-keyboard-response",108,140698,"0.0-4.32-0.32","x9jud5psr9rj091",410,"141.csv","","332","resources/trios/L1T2A2.jpg","37","restless",0.2,0.6,0.2,0.806227790659622,"false"
"image-keyboard-response",109,141113,"0.0-4.32-1.32","x9jud5psr9rj091",410,"141.csv","","null","resources/maskTrios/L1BB.jpg","null","",NA,NA,NA,NA,""
"image-keyboard-response",110,142331,"0.0-4.32-2.32","x9jud5psr9rj091",410,"141.csv","","null","resources/images/fishbone.png","null","",NA,NA,NA,NA,""
"image-keyboard-response",111,143039,"0.0-4.33-0.33","x9jud5psr9rj091",410,"141.csv","","697","resources/trios/L1T2A2.jpg","37","restless",0.2,0.6,0.2,0.626253787485036,"false"
"image-keyboard-response",112,143455,"0.0-4.33-1.33","x9jud5psr9rj091",410,"141.csv","","null","resources/maskTrios/L1BB.jpg","null","",NA,NA,NA,NA,""
"image-keyboard-response",113,144682,"0.0-4.33-2.33","x9jud5psr9rj091",410,"141.csv","","null","resources/images/fishbone.png","null","",NA,NA,NA,NA,""
"image-keyboard-response",114,145013,"0.0-4.34-0.34","x9jud5psr9rj091",410,"141.csv","","319.19999998807907","resources/trios/L1T2A2.jpg","39","restless",0.2,0.6,0.2,0.607556429752315,"false"
"image-keyboard-response",115,145432,"0.0-4.34-1.34","x9jud5psr9rj091",410,"141.csv","","null","resources/maskTrios/BBA2.jpg","null","",NA,NA,NA,NA,""
"image-keyboard-response",116,146652,"0.0-4.34-2.34","x9jud5psr9rj091",410,"141.csv","","null","resources/images/fishbone.png","null","",NA,NA,NA,NA,""
"image-keyboard-response",117,146739,"0.0-4.35-0.35","x9jud5psr9rj091",410,"141.csv","","76","resources/trios/L1T2A2.jpg","38","restless",0.2,0.6,0.2,0.0179095772800517,"true"
"image-keyboard-response",118,147148,"0.0-4.35-1.35","x9jud5psr9rj091",410,"141.csv","","null","resources/maskTrios/BT2B.jpg","null","",NA,NA,NA,NA,""
"image-keyboard-response",119,148371,"0.0-4.35-2.35","x9jud5psr9rj091",410,"141.csv","","null","resources/images/coin2.png","null","",NA,NA,NA,NA,""
"image-keyboard-response",120,148657,"0.0-4.36-0.36","x9jud5psr9rj091",410,"141.csv","","275.5","resources/trios/L1T2A2.jpg","38","restless",0.2,0.6,0.2,0.52983771674445,"true"
"image-keyboard-response",121,149064,"0.0-4.36-1.36","x9jud5psr9rj091",410,"141.csv","","null","resources/maskTrios/BT2B.jpg","null","",NA,NA,NA,NA,""
"image-keyboard-response",122,150272,"0.0-4.36-2.36","x9jud5psr9rj091",410,"141.csv","","null","resources/images/coin2.png","null","",NA,NA,NA,NA,""
"image-keyboard-response",123,150418,"0.0-4.37-0.37","x9jud5psr9rj091",410,"141.csv","","135.59999999403954","resources/trios/L1T2A2.jpg","39","restless",0.2,0.5,0.2,0.925604853303425,"false"
"image-keyboard-response",124,150832,"0.0-4.37-1.37","x9jud5psr9rj091",410,"141.csv","","null","resources/maskTrios/BBA2.jpg","null","",NA,NA,NA,NA,""
"image-keyboard-response",125,152048,"0.0-4.37-2.37","x9jud5psr9rj091",410,"141.csv","","null","resources/images/fishbone.png","null","",NA,NA,NA,NA,""
"image-keyboard-response",126,152089,"0.0-4.38-0.38","x9jud5psr9rj091",410,"141.csv","","29.899999991059303","resources/trios/L1T2A2.jpg","38","restless",0.2,0.5,0.2,0.483230225808569,"true"
"image-keyboard-response",127,152497,"0.0-4.38-1.38","x9jud5psr9rj091",410,"141.csv","","null","resources/maskTrios/BT2B.jpg","null","",NA,NA,NA,NA,""
"image-keyboard-response",128,153711,"0.0-4.38-2.38","x9jud5psr9rj091",410,"141.csv","","null","resources/images/coin2.png","null","",NA,NA,NA,NA,""
"image-keyboard-response",129,153934,"0.0-4.39-0.39","x9jud5psr9rj091",410,"141.csv","","212.5","resources/trios/L1T2A2.jpg","38","restless",0.2,0.6,0.2,0.786693407866314,"false"
"image-keyboard-response",130,154351,"0.0-4.39-1.39","x9jud5psr9rj091",410,"141.csv","","null","resources/maskTrios/BT2B.jpg","null","",NA,NA,NA,NA,""
"image-keyboard-response",131,155573,"0.0-4.39-2.39","x9jud5psr9rj091",410,"141.csv","","null","resources/images/fishbone.png","null","",NA,NA,NA,NA,""
"image-keyboard-response",132,155811,"0.0-4.40-0.40","x9jud5psr9rj091",410,"141.csv","","226.80000001192093","resources/trios/L1T2A2.jpg","39","restless",0.3,0.6,0.2,0.314218188760627,"false"
"image-keyboard-response",133,156229,"0.0-4.40-1.40","x9jud5psr9rj091",410,"141.csv","","null","resources/maskTrios/BBA2.jpg","null","",NA,NA,NA,NA,""
"image-keyboard-response",134,157443,"0.0-4.40-2.40","x9jud5psr9rj091",410,"141.csv","","null","resources/images/fishbone.png","null","",NA,NA,NA,NA,""
"image-keyboard-response",135,157587,"0.0-4.41-0.41","x9jud5psr9rj091",410,"141.csv","","136.90000000596046","resources/trios/L1T2A2.jpg","37","restless",0.4,0.6,0.3,0.617253116849914,"false"
"image-keyboard-response",136,157998,"0.0-4.41-1.41","x9jud5psr9rj091",410,"141.csv","","null","resources/maskTrios/L1BB.jpg","null","",NA,NA,NA,NA,""
"image-keyboard-response",137,159216,"0.0-4.41-2.41","x9jud5psr9rj091",410,"141.csv","","null","resources/images/fishbone.png","null","",NA,NA,NA,NA,""
"image-keyboard-response",138,159564,"0.0-4.42-0.42","x9jud5psr9rj091",410,"141.csv","","336.70000000298023","resources/trios/L1T2A2.jpg","39","restless",0.4,0.6,0.3,0.923113427441727,"false"
"image-keyboard-response",139,159981,"0.0-4.42-1.42","x9jud5psr9rj091",410,"141.csv","","null","resources/maskTrios/BBA2.jpg","null","",NA,NA,NA,NA,""
"image-keyboard-response",140,161195,"0.0-4.42-2.42","x9jud5psr9rj091",410,"141.csv","","null","resources/images/fishbone.png","null","",NA,NA,NA,NA,""
"image-keyboard-response",141,161274,"0.0-4.43-0.43","x9jud5psr9rj091",410,"141.csv","","67.8999999910593","resources/trios/L1T2A2.jpg","39","restless",0.4,0.6,0.3,0.705593177535765,"false"
"image-keyboard-response",142,161683,"0.0-4.43-1.43","x9jud5psr9rj091",410,"141.csv","","null","resources/maskTrios/BBA2.jpg","null","",NA,NA,NA,NA,""
"image-keyboard-response",143,162893,"0.0-4.43-2.43","x9jud5psr9rj091",410,"141.csv","","null","resources/images/fishbone.png","null","",NA,NA,NA,NA,""
"image-keyboard-response",144,163304,"0.0-4.44-0.44","x9jud5psr9rj091",410,"141.csv","","406.3999999910593","resources/trios/L1T2A2.jpg","39","restless",0.4,0.6,0.3,0.882086854585648,"false"
"image-keyboard-response",145,163727,"0.0-4.44-1.44","x9jud5psr9rj091",410,"141.csv","","null","resources/maskTrios/BBA2.jpg","null","",NA,NA,NA,NA,""
"image-keyboard-response",146,164947,"0.0-4.44-2.44","x9jud5psr9rj091",410,"141.csv","","null","resources/images/fishbone.png","null","",NA,NA,NA,NA,""
"image-keyboard-response",147,165170,"0.0-4.45-0.45","x9jud5psr9rj091",410,"141.csv","","217","resources/trios/L1T2A2.jpg","37","restless",0.4,0.6,0.3,0.264307229629091,"true"
"image-keyboard-response",148,165587,"0.0-4.45-1.45","x9jud5psr9rj091",410,"141.csv","","null","resources/maskTrios/L1BB.jpg","null","",NA,NA,NA,NA,""
"image-keyboard-response",149,166800,"0.0-4.45-2.45","x9jud5psr9rj091",410,"141.csv","","null","resources/images/coin2.png","null","",NA,NA,NA,NA,""
"image-keyboard-response",150,166945,"0.0-4.46-0.46","x9jud5psr9rj091",410,"141.csv","","134.29999999701977","resources/trios/L1T2A2.jpg","37","restless",0.4,0.6,0.3,0.270247604042738,"true"
"image-keyboard-response",151,167354,"0.0-4.46-1.46","x9jud5psr9rj091",410,"141.csv","","null","resources/maskTrios/L1BB.jpg","null","",NA,NA,NA,NA,""
"image-keyboard-response",152,168567,"0.0-4.46-2.46","x9jud5psr9rj091",410,"141.csv","","null","resources/images/coin2.png","null","",NA,NA,NA,NA,""
"image-keyboard-response",153,168783,"0.0-4.47-0.47","x9jud5psr9rj091",410,"141.csv","","204.29999999701977","resources/trios/L1T2A2.jpg","37","restless",0.3,0.6,0.3,0.892323749393281,"false"
"image-keyboard-response",154,169192,"0.0-4.47-1.47","x9jud5psr9rj091",410,"141.csv","","null","resources/maskTrios/L1BB.jpg","null","",NA,NA,NA,NA,""
"image-keyboard-response",155,170415,"0.0-4.47-2.47","x9jud5psr9rj091",410,"141.csv","","null","resources/images/fishbone.png","null","",NA,NA,NA,NA,""
"image-keyboard-response",156,171302,"0.0-4.48-0.48","x9jud5psr9rj091",410,"141.csv","","874.4000000059605","resources/trios/L1T2A2.jpg","38","restless",0.3,0.6,0.3,0.655009926820216,"false"
"image-keyboard-response",157,171710,"0.0-4.48-1.48","x9jud5psr9rj091",410,"141.csv","","null","resources/maskTrios/BT2B.jpg","null","",NA,NA,NA,NA,""
"image-keyboard-response",158,172931,"0.0-4.48-2.48","x9jud5psr9rj091",410,"141.csv","","null","resources/images/fishbone.png","null","",NA,NA,NA,NA,""
"image-keyboard-response",159,173117,"0.0-4.49-0.49","x9jud5psr9rj091",410,"141.csv","","175.90000000596046","resources/trios/L1T2A2.jpg","37","restless",0.3,0.6,0.3,0.576366136188455,"false"
"image-keyboard-response",160,173536,"0.0-4.49-1.49","x9jud5psr9rj091",410,"141.csv","","null","resources/maskTrios/L1BB.jpg","null","",NA,NA,NA,NA,""
"image-keyboard-response",161,174760,"0.0-4.49-2.49","x9jud5psr9rj091",410,"141.csv","","null","resources/images/fishbone.png","null","",NA,NA,NA,NA,""
"image-keyboard-response",162,174870,"0.0-4.50-0.50","x9jud5psr9rj091",410,"141.csv","","100","resources/trios/L1T2A2.jpg","39","restless",0.3,0.6,0.3,0.772935782513983,"false"
"image-keyboard-response",163,175287,"0.0-4.50-1.50","x9jud5psr9rj091",410,"141.csv","","null","resources/maskTrios/BBA2.jpg","null","",NA,NA,NA,NA,""
"image-keyboard-response",164,176503,"0.0-4.50-2.50","x9jud5psr9rj091",410,"141.csv","","null","resources/images/fishbone.png","null","",NA,NA,NA,NA,""
"image-keyboard-response",165,176586,"0.0-4.51-0.51","x9jud5psr9rj091",410,"141.csv","","71.20000000298023","resources/trios/L1T2A2.jpg","38","restless",0.3,0.5,0.3,0.176746687030092,"true"
"image-keyboard-response",166,177005,"0.0-4.51-1.51","x9jud5psr9rj091",410,"141.csv","","null","resources/maskTrios/BT2B.jpg","null","",NA,NA,NA,NA,""
"image-keyboard-response",167,178229,"0.0-4.51-2.51","x9jud5psr9rj091",410,"141.csv","","null","resources/images/coin2.png","null","",NA,NA,NA,NA,""
"image-keyboard-response",168,178928,"0.0-4.52-0.52","x9jud5psr9rj091",410,"141.csv","","688.7999999970198","resources/trios/L1T2A2.jpg","38","restless",0.3,0.5,0.3,0.824694264835212,"false"
"image-keyboard-response",169,179345,"0.0-4.52-1.52","x9jud5psr9rj091",410,"141.csv","","null","resources/maskTrios/BT2B.jpg","null","",NA,NA,NA,NA,""
"image-keyboard-response",170,180564,"0.0-4.52-2.52","x9jud5psr9rj091",410,"141.csv","","null","resources/images/fishbone.png","null","",NA,NA,NA,NA,""
"image-keyboard-response",171,181486,"0.0-4.53-0.53","x9jud5psr9rj091",410,"141.csv","","917.5999999940395","resources/trios/L1T2A2.jpg","39","restless",0.3,0.5,0.3,0.773612731625435,"false"
"image-keyboard-response",172,181895,"0.0-4.53-1.53","x9jud5psr9rj091",410,"141.csv","","null","resources/maskTrios/BBA2.jpg","null","",NA,NA,NA,NA,""
"image-keyboard-response",173,183105,"0.0-4.53-2.53","x9jud5psr9rj091",410,"141.csv","","null","resources/images/fishbone.png","null","",NA,NA,NA,NA,""
"image-keyboard-response",174,183621,"0.0-4.54-0.54","x9jud5psr9rj091",410,"141.csv","","505.40000000596046","resources/trios/L1T2A2.jpg","37","restless",0.3,0.5,0.2,0.455522891873502,"false"
"image-keyboard-response",175,184028,"0.0-4.54-1.54","x9jud5psr9rj091",410,"141.csv","","null","resources/maskTrios/L1BB.jpg","null","",NA,NA,NA,NA,""
"image-keyboard-response",176,185245,"0.0-4.54-2.54","x9jud5psr9rj091",410,"141.csv","","null","resources/images/fishbone.png","null","",NA,NA,NA,NA,""
"image-keyboard-response",177,185566,"0.0-4.55-0.55","x9jud5psr9rj091",410,"141.csv","","310.70000000298023","resources/trios/L1T2A2.jpg","37","restless",0.3,0.5,0.2,0.89567692944324,"false"
"image-keyboard-response",178,185977,"0.0-4.55-1.55","x9jud5psr9rj091",410,"141.csv","","null","resources/maskTrios/L1BB.jpg","null","",NA,NA,NA,NA,""
"image-keyboard-response",179,187195,"0.0-4.55-2.55","x9jud5psr9rj091",410,"141.csv","","null","resources/images/fishbone.png","null","",NA,NA,NA,NA,""
"image-keyboard-response",180,187286,"0.0-4.56-0.56","x9jud5psr9rj091",410,"141.csv","","80.90000000596046","resources/trios/L1T2A2.jpg","37","restless",0.3,0.5,0.2,0.324765603705157,"false"
"image-keyboard-response",181,187698,"0.0-4.56-1.56","x9jud5psr9rj091",410,"141.csv","","null","resources/maskTrios/L1BB.jpg","null","",NA,NA,NA,NA,""
"image-keyboard-response",182,188912,"0.0-4.56-2.56","x9jud5psr9rj091",410,"141.csv","","null","resources/images/fishbone.png","null","",NA,NA,NA,NA,""
"image-keyboard-response",183,189014,"0.0-4.57-0.57","x9jud5psr9rj091",410,"141.csv","","92","resources/trios/L1T2A2.jpg","37","restless",0.3,0.5,0.2,0.317791816997445,"false"
"image-keyboard-response",184,189429,"0.0-4.57-1.57","x9jud5psr9rj091",410,"141.csv","","null","resources/maskTrios/L1BB.jpg","null","",NA,NA,NA,NA,""
"image-keyboard-response",185,190650,"0.0-4.57-2.57","x9jud5psr9rj091",410,"141.csv","","null","resources/images/fishbone.png","null","",NA,NA,NA,NA,""
"image-keyboard-response",186,191104,"0.0-4.58-0.58","x9jud5psr9rj091",410,"141.csv","","435","resources/trios/L1T2A2.jpg","39","restless",0.3,0.5,0.2,0.695952029882886,"false"
"image-keyboard-response",187,191528,"0.0-4.58-1.58","x9jud5psr9rj091",410,"141.csv","","null","resources/maskTrios/BBA2.jpg","null","",NA,NA,NA,NA,""
"image-keyboard-response",188,192747,"0.0-4.58-2.58","x9jud5psr9rj091",410,"141.csv","","null","resources/images/fishbone.png","null","",NA,NA,NA,NA,""
"image-keyboard-response",189,192844,"0.0-4.59-0.59","x9jud5psr9rj091",410,"141.csv","","85.3999999910593","resources/trios/L1T2A2.jpg","39","restless",0.3,0.5,0.2,0.696526601907368,"false"
"image-keyboard-response",190,193252,"0.0-4.59-1.59","x9jud5psr9rj091",410,"141.csv","","null","resources/maskTrios/BBA2.jpg","null","",NA,NA,NA,NA,""
"image-keyboard-response",191,194468,"0.0-4.59-2.59","x9jud5psr9rj091",410,"141.csv","","null","resources/images/fishbone.png","null","",NA,NA,NA,NA,""
"image-keyboard-response",192,194655,"0.0-4.60-0.60","x9jud5psr9rj091",410,"141.csv","","183.1000000089407","resources/trios/L1T2A2.jpg","38","restless",0.3,0.5,0.2,0.178358775384469,"true"
"image-keyboard-response",193,195078,"0.0-4.60-1.60","x9jud5psr9rj091",410,"141.csv","","null","resources/maskTrios/BT2B.jpg","null","",NA,NA,NA,NA,""
"image-keyboard-response",194,196293,"0.0-4.60-2.60","x9jud5psr9rj091",410,"141.csv","","null","resources/images/coin2.png","null","",NA,NA,NA,NA,""
"image-keyboard-response",195,196487,"0.0-4.61-0.61","x9jud5psr9rj091",410,"141.csv","","190","resources/trios/L1T2A2.jpg","38","restless",0.3,0.5,0.3,0.256126348484143,"true"
"image-keyboard-response",196,196906,"0.0-4.61-1.61","x9jud5psr9rj091",410,"141.csv","","null","resources/maskTrios/BT2B.jpg","null","",NA,NA,NA,NA,""
"image-keyboard-response",197,198112,"0.0-4.61-2.61","x9jud5psr9rj091",410,"141.csv","","null","resources/images/coin2.png","null","",NA,NA,NA,NA,""
"image-keyboard-response",198,198419,"0.0-4.62-0.62","x9jud5psr9rj091",410,"141.csv","","305.1000000089407","resources/trios/L1T2A2.jpg","38","restless",0.3,0.5,0.3,0.449838997297155,"true"
"image-keyboard-response",199,198827,"0.0-4.62-1.62","x9jud5psr9rj091",410,"141.csv","","null","resources/maskTrios/BT2B.jpg","null","",NA,NA,NA,NA,""
"image-keyboard-response",200,200048,"0.0-4.62-2.62","x9jud5psr9rj091",410,"141.csv","","null","resources/images/coin2.png","null","",NA,NA,NA,NA,""
"image-keyboard-response",201,200236,"0.0-4.63-0.63","x9jud5psr9rj091",410,"141.csv","","180.29999999701977","resources/trios/L1T2A2.jpg","38","restless",0.3,0.5,0.3,0.236097948432942,"true"
"image-keyboard-response",202,200645,"0.0-4.63-1.63","x9jud5psr9rj091",410,"141.csv","","null","resources/maskTrios/BT2B.jpg","null","",NA,NA,NA,NA,""
"image-keyboard-response",203,201866,"0.0-4.63-2.63","x9jud5psr9rj091",410,"141.csv","","null","resources/images/coin2.png","null","",NA,NA,NA,NA,""
"image-keyboard-response",204,201878,"0.0-4.64-0.64","x9jud5psr9rj091",410,"141.csv","","8.599999994039536","resources/trios/L1T2A2.jpg","38","restless",0.3,0.5,0.3,0.446965582124507,"true"
"image-keyboard-response",205,202297,"0.0-4.64-1.64","x9jud5psr9rj091",410,"141.csv","","null","resources/maskTrios/BT2B.jpg","null","",NA,NA,NA,NA,""
"image-keyboard-response",206,203515,"0.0-4.64-2.64","x9jud5psr9rj091",410,"141.csv","","null","resources/images/coin2.png","null","",NA,NA,NA,NA,""
"image-keyboard-response",207,203995,"0.0-4.65-0.65","x9jud5psr9rj091",410,"141.csv","","475.20000000298023","resources/trios/L1T2A2.jpg","38","restless",0.3,0.5,0.3,0.411792951324816,"true"
"image-keyboard-response",208,204417,"0.0-4.65-1.65","x9jud5psr9rj091",410,"141.csv","","null","resources/maskTrios/BT2B.jpg","null","",NA,NA,NA,NA,""
"image-keyboard-response",209,205626,"0.0-4.65-2.65","x9jud5psr9rj091",410,"141.csv","","null","resources/images/coin2.png","null","",NA,NA,NA,NA,""
"image-keyboard-response",210,205692,"0.0-4.66-0.66","x9jud5psr9rj091",410,"141.csv","","58.8999999910593","resources/trios/L1T2A2.jpg","38","restless",0.3,0.5,0.3,0.381714181609806,"true"
"image-keyboard-response",211,206109,"0.0-4.66-1.66","x9jud5psr9rj091",410,"141.csv","","null","resources/maskTrios/BT2B.jpg","null","",NA,NA,NA,NA,""
"image-keyboard-response",212,207332,"0.0-4.66-2.66","x9jud5psr9rj091",410,"141.csv","","null","resources/images/coin2.png","null","",NA,NA,NA,NA,""
"image-keyboard-response",213,207477,"0.0-4.67-0.67","x9jud5psr9rj091",410,"141.csv","","137.8999999910593","resources/trios/L1T2A2.jpg","38","restless",0.3,0.5,0.4,0.49180861206294,"true"
"image-keyboard-response",214,207885,"0.0-4.67-1.67","x9jud5psr9rj091",410,"141.csv","","null","resources/maskTrios/BT2B.jpg","null","",NA,NA,NA,NA,""
"image-keyboard-response",215,209097,"0.0-4.67-2.67","x9jud5psr9rj091",410,"141.csv","","null","resources/images/coin2.png","null","",NA,NA,NA,NA,""
"image-keyboard-response",216,209109,"0.0-4.68-0.68","x9jud5psr9rj091",410,"141.csv","","1","resources/trios/L1T2A2.jpg","38","restless",0.3,0.5,0.4,0.771120563550961,"false"
"image-keyboard-response",217,209520,"0.0-4.68-1.68","x9jud5psr9rj091",410,"141.csv","","null","resources/maskTrios/BT2B.jpg","null","",NA,NA,NA,NA,""
"image-keyboard-response",218,210731,"0.0-4.68-2.68","x9jud5psr9rj091",410,"141.csv","","null","resources/images/fishbone.png","null","",NA,NA,NA,NA,""
"image-keyboard-response",219,211125,"0.0-4.69-0.69","x9jud5psr9rj091",410,"141.csv","","382.59999999403954","resources/trios/L1T2A2.jpg","39","restless",0.2,0.6,0.4,0.950869479844617,"false"
"image-keyboard-response",220,211544,"0.0-4.69-1.69","x9jud5psr9rj091",410,"141.csv","","null","resources/maskTrios/BBA2.jpg","null","",NA,NA,NA,NA,""
"image-keyboard-response",221,212755,"0.0-4.69-2.69","x9jud5psr9rj091",410,"141.csv","","null","resources/images/fishbone.png","null","",NA,NA,NA,NA,""
"image-keyboard-response",222,213080,"0.0-4.70-0.70","x9jud5psr9rj091",410,"141.csv","","317.1000000089407","resources/trios/L1T2A2.jpg","37","restless",0.2,0.6,0.4,0.143879564392559,"true"
"image-keyboard-response",223,213493,"0.0-4.70-1.70","x9jud5psr9rj091",410,"141.csv","","null","resources/maskTrios/L1BB.jpg","null","",NA,NA,NA,NA,""
"image-keyboard-response",224,214715,"0.0-4.70-2.70","x9jud5psr9rj091",410,"141.csv","","null","resources/images/coin2.png","null","",NA,NA,NA,NA,""
"image-keyboard-response",225,214758,"0.0-4.71-0.71","x9jud5psr9rj091",410,"141.csv","","32.5","resources/trios/L1T2A2.jpg","37","restless",0.2,0.6,0.4,0.302062946527219,"false"
"image-keyboard-response",226,215173,"0.0-4.71-1.71","x9jud5psr9rj091",410,"141.csv","","null","resources/maskTrios/L1BB.jpg","null","",NA,NA,NA,NA,""
"image-keyboard-response",227,216395,"0.0-4.71-2.71","x9jud5psr9rj091",410,"141.csv","","null","resources/images/fishbone.png","null","",NA,NA,NA,NA,""
"image-keyboard-response",228,216968,"0.0-4.72-0.72","x9jud5psr9rj091",410,"141.csv","","562.2999999970198","resources/trios/L1T2A2.jpg","39","restless",0.2,0.6,0.4,0.921828368608083,"false"
"image-keyboard-response",229,217382,"0.0-4.72-1.72","x9jud5psr9rj091",410,"141.csv","","null","resources/maskTrios/BBA2.jpg","null","",NA,NA,NA,NA,""
"image-keyboard-response",230,218591,"0.0-4.72-2.72","x9jud5psr9rj091",410,"141.csv","","null","resources/images/fishbone.png","null","",NA,NA,NA,NA,""
"image-keyboard-response",231,218686,"0.0-4.73-0.73","x9jud5psr9rj091",410,"141.csv","","84.29999999701977","resources/trios/L1T2A2.jpg","38","restless",0.2,0.6,0.4,0.617714235578144,"false"
"image-keyboard-response",232,219103,"0.0-4.73-1.73","x9jud5psr9rj091",410,"141.csv","","null","resources/maskTrios/BT2B.jpg","null","",NA,NA,NA,NA,""
"image-keyboard-response",233,220329,"0.0-4.73-2.73","x9jud5psr9rj091",410,"141.csv","","null","resources/images/fishbone.png","null","",NA,NA,NA,NA,""
"image-keyboard-response",234,220398,"0.0-4.74-0.74","x9jud5psr9rj091",410,"141.csv","","57.5","resources/trios/L1T2A2.jpg","39","restless",0.2,0.6,0.4,0.12617737982266,"true"
"image-keyboard-response",235,220805,"0.0-4.74-1.74","x9jud5psr9rj091",410,"141.csv","","null","resources/maskTrios/BBA2.jpg","null","",NA,NA,NA,NA,""
"image-keyboard-response",236,222020,"0.0-4.74-2.74","x9jud5psr9rj091",410,"141.csv","","null","resources/images/coin2.png","null","",NA,NA,NA,NA,""
"image-keyboard-response",237,222442,"0.0-4.75-0.75","x9jud5psr9rj091",410,"141.csv","","417.6000000089407","resources/trios/L1T2A2.jpg","39","restless",0.2,0.6,0.5,0.0516080897070847,"true"
"image-keyboard-response",238,222856,"0.0-4.75-1.75","x9jud5psr9rj091",410,"141.csv","","null","resources/maskTrios/BBA2.jpg","null","",NA,NA,NA,NA,""
"image-keyboard-response",239,224066,"0.0-4.75-2.75","x9jud5psr9rj091",410,"141.csv","","null","resources/images/coin2.png","null","",NA,NA,NA,NA,""
"image-keyboard-response",240,224348,"0.0-4.76-0.76","x9jud5psr9rj091",410,"141.csv","","269.79999999701977","resources/trios/L1T2A2.jpg","39","restless",0.2,0.6,0.5,0.149074525642747,"true"
"image-keyboard-response",241,224758,"0.0-4.76-1.76","x9jud5psr9rj091",410,"141.csv","","null","resources/maskTrios/BBA2.jpg","null","",NA,NA,NA,NA,""
"image-keyboard-response",242,225986,"0.0-4.76-2.76","x9jud5psr9rj091",410,"141.csv","","null","resources/images/coin2.png","null","",NA,NA,NA,NA,""
"image-keyboard-response",243,226162,"0.0-4.77-0.77","x9jud5psr9rj091",410,"141.csv","","165.1000000089407","resources/trios/L1T2A2.jpg","39","restless",0.2,0.5,0.5,0.0196896632413515,"true"
"image-keyboard-response",244,226581,"0.0-4.77-1.77","x9jud5psr9rj091",410,"141.csv","","null","resources/maskTrios/BBA2.jpg","null","",NA,NA,NA,NA,""
"image-keyboard-response",245,227793,"0.0-4.77-2.77","x9jud5psr9rj091",410,"141.csv","","null","resources/images/coin2.png","null","",NA,NA,NA,NA,""
"image-keyboard-response",246,228014,"0.0-4.78-0.78","x9jud5psr9rj091",410,"141.csv","","211.70000000298023","resources/trios/L1T2A2.jpg","39","restless",0.3,0.5,0.5,0.467816627191566,"true"
"image-keyboard-response",247,228438,"0.0-4.78-1.78","x9jud5psr9rj091",410,"141.csv","","null","resources/maskTrios/BBA2.jpg","null","",NA,NA,NA,NA,""
"image-keyboard-response",248,229659,"0.0-4.78-2.78","x9jud5psr9rj091",410,"141.csv","","null","resources/images/coin2.png","null","",NA,NA,NA,NA,""
"image-keyboard-response",249,229997,"0.0-4.79-0.79","x9jud5psr9rj091",410,"141.csv","","326.29999999701977","resources/trios/L1T2A2.jpg","39","restless",0.3,0.5,0.5,0.721967060945055,"false"
"image-keyboard-response",250,230415,"0.0-4.79-1.79","x9jud5psr9rj091",410,"141.csv","","null","resources/maskTrios/BBA2.jpg","null","",NA,NA,NA,NA,""
"image-keyboard-response",251,231630,"0.0-4.79-2.79","x9jud5psr9rj091",410,"141.csv","","null","resources/images/fishbone.png","null","",NA,NA,NA,NA,""
"image-keyboard-response",252,232048,"0.0-4.80-0.80","x9jud5psr9rj091",410,"141.csv","","407.5","resources/trios/L1T2A2.jpg","38","restless",0.4,0.5,0.5,0.975654569731659,"false"
"image-keyboard-response",253,232469,"0.0-4.80-1.80","x9jud5psr9rj091",410,"141.csv","","null","resources/maskTrios/BT2B.jpg","null","",NA,NA,NA,NA,""
"image-keyboard-response",254,233689,"0.0-4.80-2.80","x9jud5psr9rj091",410,"141.csv","","null","resources/images/fishbone.png","null","",NA,NA,NA,NA,""
"image-keyboard-response",255,233738,"0.0-4.81-0.81","x9jud5psr9rj091",410,"141.csv","","38.599999994039536","resources/trios/L1T2A2.jpg","37","restless",0.4,0.5,0.5,0.598831406438419,"false"
"image-keyboard-response",256,234145,"0.0-4.81-1.81","x9jud5psr9rj091",410,"141.csv","","null","resources/maskTrios/L1BB.jpg","null","",NA,NA,NA,NA,""
"image-keyboard-response",257,235353,"0.0-4.81-2.81","x9jud5psr9rj091",410,"141.csv","","null","resources/images/fishbone.png","null","",NA,NA,NA,NA,""
"image-keyboard-response",258,235368,"0.0-4.82-0.82","x9jud5psr9rj091",410,"141.csv","","4.200000002980232","resources/trios/L1T2A2.jpg","38","restless",0.4,0.5,0.6,0.100242057369169,"true"
"image-keyboard-response",259,235777,"0.0-4.82-1.82","x9jud5psr9rj091",410,"141.csv","","null","resources/maskTrios/BT2B.jpg","null","",NA,NA,NA,NA,""
"image-keyboard-response",260,236991,"0.0-4.82-2.82","x9jud5psr9rj091",410,"141.csv","","null","resources/images/coin2.png","null","",NA,NA,NA,NA,""
"image-keyboard-response",261,237500,"0.0-4.83-0.83","x9jud5psr9rj091",410,"141.csv","","505.5","resources/trios/L1T2A2.jpg","38","restless",0.3,0.5,0.6,0.336928975108427,"true"
"image-keyboard-response",262,237908,"0.0-4.83-1.83","x9jud5psr9rj091",410,"141.csv","","null","resources/maskTrios/BT2B.jpg","null","",NA,NA,NA,NA,""
"image-keyboard-response",263,239128,"0.0-4.83-2.83","x9jud5psr9rj091",410,"141.csv","","null","resources/images/coin2.png","null","",NA,NA,NA,NA,""
"image-keyboard-response",264,239419,"0.0-4.84-0.84","x9jud5psr9rj091",410,"141.csv","","279.80000001192093","resources/trios/L1T2A2.jpg","38","restless",0.3,0.5,0.7,0.773402416417225,"false"
"image-keyboard-response",265,239840,"0.0-4.84-1.84","x9jud5psr9rj091",410,"141.csv","","null","resources/maskTrios/BT2B.jpg","null","",NA,NA,NA,NA,""
"image-keyboard-response",266,241058,"0.0-4.84-2.84","x9jud5psr9rj091",410,"141.csv","","null","resources/images/fishbone.png","null","",NA,NA,NA,NA,""
"image-keyboard-response",267,241250,"0.0-4.85-0.85","x9jud5psr9rj091",410,"141.csv","","181.90000000596046","resources/trios/L1T2A2.jpg","37","restless",0.4,0.5,0.6,0.334505023951361,"true"
"image-keyboard-response",268,241672,"0.0-4.85-1.85","x9jud5psr9rj091",410,"141.csv","","null","resources/maskTrios/L1BB.jpg","null","",NA,NA,NA,NA,""
"image-keyboard-response",269,242891,"0.0-4.85-2.85","x9jud5psr9rj091",410,"141.csv","","null","resources/images/coin2.png","null","",NA,NA,NA,NA,""
"image-keyboard-response",270,243001,"0.0-4.86-0.86","x9jud5psr9rj091",410,"141.csv","","99.6000000089407","resources/trios/L1T2A2.jpg","37","restless",0.4,0.5,0.6,0.299947280100713,"true"
"image-keyboard-response",271,243416,"0.0-4.86-1.86","x9jud5psr9rj091",410,"141.csv","","null","resources/maskTrios/L1BB.jpg","null","",NA,NA,NA,NA,""
"image-keyboard-response",272,244643,"0.0-4.86-2.86","x9jud5psr9rj091",410,"141.csv","","null","resources/images/coin2.png","null","",NA,NA,NA,NA,""
"image-keyboard-response",273,244690,"0.0-4.87-0.87","x9jud5psr9rj091",410,"141.csv","","36.5","resources/trios/L1T2A2.jpg","37","restless",0.4,0.5,0.6,0.452399870480883,"false"
"image-keyboard-response",274,245103,"0.0-4.87-1.87","x9jud5psr9rj091",410,"141.csv","","null","resources/maskTrios/L1BB.jpg","null","",NA,NA,NA,NA,""
"image-keyboard-response",275,246313,"0.0-4.87-2.87","x9jud5psr9rj091",410,"141.csv","","null","resources/images/fishbone.png","null","",NA,NA,NA,NA,""
"image-keyboard-response",276,246731,"0.0-4.88-0.88","x9jud5psr9rj091",410,"141.csv","","406.8999999910593","resources/trios/L1T2A2.jpg","38","restless",0.4,0.5,0.6,0.483580670150797,"true"
"image-keyboard-response",277,247143,"0.0-4.88-1.88","x9jud5psr9rj091",410,"141.csv","","null","resources/maskTrios/BT2B.jpg","null","",NA,NA,NA,NA,""
"image-keyboard-response",278,248364,"0.0-4.88-2.88","x9jud5psr9rj091",410,"141.csv","","null","resources/images/coin2.png","null","",NA,NA,NA,NA,""
"image-keyboard-response",279,248514,"0.0-4.89-0.89","x9jud5psr9rj091",410,"141.csv","","142.30000001192093","resources/trios/L1T2A2.jpg","38","restless",0.4,0.5,0.6,0.212186915276036,"true"
"image-keyboard-response",280,248927,"0.0-4.89-1.89","x9jud5psr9rj091",410,"141.csv","","null","resources/maskTrios/BT2B.jpg","null","",NA,NA,NA,NA,""
"image-keyboard-response",281,250138,"0.0-4.89-2.89","x9jud5psr9rj091",410,"141.csv","","null","resources/images/coin2.png","null","",NA,NA,NA,NA,""
"image-keyboard-response",282,250213,"0.0-4.90-0.90","x9jud5psr9rj091",410,"141.csv","","64","resources/trios/L1T2A2.jpg","38","restless",0.3,0.5,0.6,0.986149202917194,"false"
"image-keyboard-response",283,250628,"0.0-4.90-1.90","x9jud5psr9rj091",410,"141.csv","","null","resources/maskTrios/BT2B.jpg","null","",NA,NA,NA,NA,""
"image-keyboard-response",284,251846,"0.0-4.90-2.90","x9jud5psr9rj091",410,"141.csv","","null","resources/images/fishbone.png","null","",NA,NA,NA,NA,""
"image-keyboard-response",285,252154,"0.0-4.91-0.91","x9jud5psr9rj091",410,"141.csv","","303.20000000298023","resources/trios/L1T2A2.jpg","37","restless",0.3,0.5,0.6,0.486662986083057,"false"
"image-keyboard-response",286,252569,"0.0-4.91-1.91","x9jud5psr9rj091",410,"141.csv","","null","resources/maskTrios/L1BB.jpg","null","",NA,NA,NA,NA,""
"image-keyboard-response",287,253778,"0.0-4.91-2.91","x9jud5psr9rj091",410,"141.csv","","null","resources/images/fishbone.png","null","",NA,NA,NA,NA,""
"image-keyboard-response",288,253829,"0.0-4.92-0.92","x9jud5psr9rj091",410,"141.csv","","39.20000000298023","resources/trios/L1T2A2.jpg","39","restless",0.3,0.5,0.6,0.0292297503194303,"true"
"image-keyboard-response",289,254247,"0.0-4.92-1.92","x9jud5psr9rj091",410,"141.csv","","null","resources/maskTrios/BBA2.jpg","null","",NA,NA,NA,NA,""
"image-keyboard-response",290,255465,"0.0-4.92-2.92","x9jud5psr9rj091",410,"141.csv","","null","resources/images/coin2.png","null","",NA,NA,NA,NA,""
"image-keyboard-response",291,255556,"0.0-4.93-0.93","x9jud5psr9rj091",410,"141.csv","","80.79999999701977","resources/trios/L1T2A2.jpg","39","restless",0.3,0.5,0.6,0.578772742072971,"true"
"image-keyboard-response",292,255967,"0.0-4.93-1.93","x9jud5psr9rj091",410,"141.csv","","null","resources/maskTrios/BBA2.jpg","null","",NA,NA,NA,NA,""
"image-keyboard-response",293,257178,"0.0-4.93-2.93","x9jud5psr9rj091",410,"141.csv","","null","resources/images/coin2.png","null","",NA,NA,NA,NA,""
"image-keyboard-response",294,257440,"0.0-4.94-0.94","x9jud5psr9rj091",410,"141.csv","","260","resources/trios/L1T2A2.jpg","39","restless",0.3,0.5,0.6,0.0958728730714911,"true"
"image-keyboard-response",295,257848,"0.0-4.94-1.94","x9jud5psr9rj091",410,"141.csv","","null","resources/maskTrios/BBA2.jpg","null","",NA,NA,NA,NA,""
"image-keyboard-response",296,259059,"0.0-4.94-2.94","x9jud5psr9rj091",410,"141.csv","","null","resources/images/coin2.png","null","",NA,NA,NA,NA,""
"image-keyboard-response",297,259379,"0.0-4.95-0.95","x9jud5psr9rj091",410,"141.csv","","311.79999999701977","resources/trios/L1T2A2.jpg","39","restless",0.3,0.5,0.6,0.837211728149978,"false"
"image-keyboard-response",298,259805,"0.0-4.95-1.95","x9jud5psr9rj091",410,"141.csv","","null","resources/maskTrios/BBA2.jpg","null","",NA,NA,NA,NA,""
"image-keyboard-response",299,261025,"0.0-4.95-2.95","x9jud5psr9rj091",410,"141.csv","","null","resources/images/fishbone.png","null","",NA,NA,NA,NA,""
"image-keyboard-response",300,261181,"0.0-4.96-0.96","x9jud5psr9rj091",410,"141.csv","","150.40000000596046","resources/trios/L1T2A2.jpg","38","restless",0.3,0.5,0.6,0.262003662437712,"true"
"image-keyboard-response",301,261595,"0.0-4.96-1.96","x9jud5psr9rj091",410,"141.csv","","null","resources/maskTrios/BT2B.jpg","null","",NA,NA,NA,NA,""
"image-keyboard-response",302,262812,"0.0-4.96-2.96","x9jud5psr9rj091",410,"141.csv","","null","resources/images/coin2.png","null","",NA,NA,NA,NA,""
"image-keyboard-response",303,262832,"0.0-4.97-0.97","x9jud5psr9rj091",410,"141.csv","","1.2999999970197678","resources/trios/L1T2A2.jpg","38","restless",0.3,0.5,0.6,0.65208067135457,"false"
"image-keyboard-response",304,263254,"0.0-4.97-1.97","x9jud5psr9rj091",410,"141.csv","","null","resources/maskTrios/BT2B.jpg","null","",NA,NA,NA,NA,""
"image-keyboard-response",305,264459,"0.0-4.97-2.97","x9jud5psr9rj091",410,"141.csv","","null","resources/images/fishbone.png","null","",NA,NA,NA,NA,""
"image-keyboard-response",306,264800,"0.0-4.98-0.98","x9jud5psr9rj091",410,"141.csv","","327.90000000596046","resources/trios/L1T2A2.jpg","37","restless",0.4,0.5,0.6,0.0148041176143607,"true"
"image-keyboard-response",307,265220,"0.0-4.98-1.98","x9jud5psr9rj091",410,"141.csv","","null","resources/maskTrios/L1BB.jpg","null","",NA,NA,NA,NA,""
"image-keyboard-response",308,266425,"0.0-4.98-2.98","x9jud5psr9rj091",410,"141.csv","","null","resources/images/coin2.png","null","",NA,NA,NA,NA,""
"image-keyboard-response",309,266941,"0.0-4.99-0.99","x9jud5psr9rj091",410,"141.csv","","511.90000000596046","resources/trios/L1T2A2.jpg","37","restless",0.4,0.5,0.6,0.0143323387823464,"true"
"image-keyboard-response",310,267368,"0.0-4.99-1.99","x9jud5psr9rj091",410,"141.csv","","null","resources/maskTrios/L1BB.jpg","null","",NA,NA,NA,NA,""
"image-keyboard-response",311,268585,"0.0-4.99-2.99","x9jud5psr9rj091",410,"141.csv","","null","resources/images/coin2.png","null","",NA,NA,NA,NA,""
"image-keyboard-response",312,269028,"0.0-4.100-0.100","x9jud5psr9rj091",410,"141.csv","","435.29999999701977","resources/trios/L1T2A2.jpg","37","restless",0.4,0.6,0.5,0.435322277475105,"false"
"image-keyboard-response",313,269441,"0.0-4.100-1.100","x9jud5psr9rj091",410,"141.csv","","null","resources/maskTrios/L1BB.jpg","null","",NA,NA,NA,NA,""
"image-keyboard-response",314,270650,"0.0-4.100-2.100","x9jud5psr9rj091",410,"141.csv","","null","resources/images/fishbone.png","null","",NA,NA,NA,NA,""
"image-keyboard-response",315,271126,"0.0-4.101-0.101","x9jud5psr9rj091",410,"141.csv","","465.3999999910593","resources/trios/L1T2A2.jpg","38","restless",0.4,0.6,0.5,0.0415061999068005,"true"
"image-keyboard-response",316,271550,"0.0-4.101-1.101","x9jud5psr9rj091",410,"141.csv","","null","resources/maskTrios/BT2B.jpg","null","",NA,NA,NA,NA,""
"image-keyboard-response",317,272760,"0.0-4.101-2.101","x9jud5psr9rj091",410,"141.csv","","null","resources/images/coin2.png","null","",NA,NA,NA,NA,""
"image-keyboard-response",318,272803,"0.0-4.102-0.102","x9jud5psr9rj091",410,"141.csv","","32.5","resources/trios/L1T2A2.jpg","38","restless",0.4,0.6,0.5,0.729629141077126,"false"
"image-keyboard-response",319,273214,"0.0-4.102-1.102","x9jud5psr9rj091",410,"141.csv","","null","resources/maskTrios/BT2B.jpg","null","",NA,NA,NA,NA,""
"image-keyboard-response",320,274437,"0.0-4.102-2.102","x9jud5psr9rj091",410,"141.csv","","null","resources/images/fishbone.png","null","",NA,NA,NA,NA,""
"image-keyboard-response",321,274857,"0.0-4.103-0.103","x9jud5psr9rj091",410,"141.csv","","414.20000000298023","resources/trios/L1T2A2.jpg","39","restless",0.4,0.6,0.5,0.482276174988058,"true"
"image-keyboard-response",322,275262,"0.0-4.103-1.103","x9jud5psr9rj091",410,"141.csv","","null","resources/maskTrios/BBA2.jpg","null","",NA,NA,NA,NA,""
"image-keyboard-response",323,276476,"0.0-4.103-2.103","x9jud5psr9rj091",410,"141.csv","","null","resources/images/coin2.png","null","",NA,NA,NA,NA,""
"image-keyboard-response",324,276501,"0.0-4.104-0.104","x9jud5psr9rj091",410,"141.csv","","13.900000005960464","resources/trios/L1T2A2.jpg","39","restless",0.4,0.7,0.5,0.03357388405796,"true"
"image-keyboard-response",325,276916,"0.0-4.104-1.104","x9jud5psr9rj091",410,"141.csv","","null","resources/maskTrios/BBA2.jpg","null","",NA,NA,NA,NA,""
"image-keyboard-response",326,278140,"0.0-4.104-2.104","x9jud5psr9rj091",410,"141.csv","","null","resources/images/coin2.png","null","",NA,NA,NA,NA,""
"image-keyboard-response",327,278609,"0.0-4.105-0.105","x9jud5psr9rj091",410,"141.csv","","456.5","resources/trios/L1T2A2.jpg","39","restless",0.4,0.7,0.5,0.0524249672439909,"true"
"image-keyboard-response",328,279024,"0.0-4.105-1.105","x9jud5psr9rj091",410,"141.csv","","null","resources/maskTrios/BBA2.jpg","null","",NA,NA,NA,NA,""
"image-keyboard-response",329,280233,"0.0-4.105-2.105","x9jud5psr9rj091",410,"141.csv","","null","resources/images/coin2.png","null","",NA,NA,NA,NA,""
"image-keyboard-response",330,280781,"0.0-4.106-0.106","x9jud5psr9rj091",410,"141.csv","","536.3000000119209","resources/trios/L1T2A2.jpg","39","restless",0.4,0.7,0.5,0.535191405175397,"false"
"image-keyboard-response",331,281192,"0.0-4.106-1.106","x9jud5psr9rj091",410,"141.csv","","null","resources/maskTrios/BBA2.jpg","null","",NA,NA,NA,NA,""
"image-keyboard-response",332,282414,"0.0-4.106-2.106","x9jud5psr9rj091",410,"141.csv","","null","resources/images/fishbone.png","null","",NA,NA,NA,NA,""
"image-keyboard-response",333,282781,"0.0-4.107-0.107","x9jud5psr9rj091",410,"141.csv","","362.20000000298023","resources/trios/L1T2A2.jpg","38","restless",0.4,0.7,0.5,0.973978310317031,"false"
"image-keyboard-response",334,283194,"0.0-4.107-1.107","x9jud5psr9rj091",410,"141.csv","","null","resources/maskTrios/BT2B.jpg","null","",NA,NA,NA,NA,""
"image-keyboard-response",335,284423,"0.0-4.107-2.107","x9jud5psr9rj091",410,"141.csv","","null","resources/images/fishbone.png","null","",NA,NA,NA,NA,""
"image-keyboard-response",336,284545,"0.0-4.108-0.108","x9jud5psr9rj091",410,"141.csv","","111.29999999701977","resources/trios/L1T2A2.jpg","37","restless",0.4,0.7,0.5,0.982724451232472,"false"
"image-keyboard-response",337,284950,"0.0-4.108-1.108","x9jud5psr9rj091",410,"141.csv","","null","resources/maskTrios/L1BB.jpg","null","",NA,NA,NA,NA,""
"image-keyboard-response",338,286174,"0.0-4.108-2.108","x9jud5psr9rj091",410,"141.csv","","null","resources/images/fishbone.png","null","",NA,NA,NA,NA,""
"image-keyboard-response",339,286318,"0.0-4.109-0.109","x9jud5psr9rj091",410,"141.csv","","131.20000000298023","resources/trios/L1T2A2.jpg","39","restless",0.4,0.7,0.5,0.846579798661187,"false"
"image-keyboard-response",340,286730,"0.0-4.109-1.109","x9jud5psr9rj091",410,"141.csv","","null","resources/maskTrios/BBA2.jpg","null","",NA,NA,NA,NA,""
"image-keyboard-response",341,287954,"0.0-4.109-2.109","x9jud5psr9rj091",410,"141.csv","","null","resources/images/fishbone.png","null","",NA,NA,NA,NA,""
"image-keyboard-response",342,288409,"0.0-4.110-0.110","x9jud5psr9rj091",410,"141.csv","","450.80000001192093","resources/trios/L1T2A2.jpg","38","restless",0.4,0.7,0.5,0.61519810994542,"true"
"image-keyboard-response",343,288817,"0.0-4.110-1.110","x9jud5psr9rj091",410,"141.csv","","null","resources/maskTrios/BT2B.jpg","null","",NA,NA,NA,NA,""
"image-keyboard-response",344,290035,"0.0-4.110-2.110","x9jud5psr9rj091",410,"141.csv","","null","resources/images/coin2.png","null","",NA,NA,NA,NA,""
"image-keyboard-response",345,290348,"0.0-4.111-0.111","x9jud5psr9rj091",410,"141.csv","","300.59999999403954","resources/trios/L1T2A2.jpg","38","restless",0.5,0.7,0.5,0.138528658041441,"true"
"image-keyboard-response",346,290777,"0.0-4.111-1.111","x9jud5psr9rj091",410,"141.csv","","null","resources/maskTrios/BT2B.jpg","null","",NA,NA,NA,NA,""
"image-keyboard-response",347,291989,"0.0-4.111-2.111","x9jud5psr9rj091",410,"141.csv","","null","resources/images/coin2.png","null","",NA,NA,NA,NA,""
"image-keyboard-response",348,292326,"0.0-4.112-0.112","x9jud5psr9rj091",410,"141.csv","","323.20000000298023","resources/trios/L1T2A2.jpg","38","restless",0.5,0.7,0.5,0.784828959868394,"false"
"image-keyboard-response",349,292745,"0.0-4.112-1.112","x9jud5psr9rj091",410,"141.csv","","null","resources/maskTrios/BT2B.jpg","null","",NA,NA,NA,NA,""
"image-keyboard-response",350,293949,"0.0-4.112-2.112","x9jud5psr9rj091",410,"141.csv","","null","resources/images/fishbone.png","null","",NA,NA,NA,NA,""
"image-keyboard-response",351,294200,"0.0-4.113-0.113","x9jud5psr9rj091",410,"141.csv","","248.3999999910593","resources/trios/L1T2A2.jpg","38","restless",0.5,0.7,0.5,0.846268500662243,"false"
"image-keyboard-response",352,294617,"0.0-4.113-1.113","x9jud5psr9rj091",410,"141.csv","","null","resources/maskTrios/BT2B.jpg","null","",NA,NA,NA,NA,""
"image-keyboard-response",353,295834,"0.0-4.113-2.113","x9jud5psr9rj091",410,"141.csv","","null","resources/images/fishbone.png","null","",NA,NA,NA,NA,""
"image-keyboard-response",354,295916,"0.0-4.114-0.114","x9jud5psr9rj091",410,"141.csv","","65.5","resources/trios/L1T2A2.jpg","37","restless",0.4,0.8,0.4,0.876398365416056,"false"
"image-keyboard-response",355,296339,"0.0-4.114-1.114","x9jud5psr9rj091",410,"141.csv","","null","resources/maskTrios/L1BB.jpg","null","",NA,NA,NA,NA,""
"image-keyboard-response",356,297565,"0.0-4.114-2.114","x9jud5psr9rj091",410,"141.csv","","null","resources/images/fishbone.png","null","",NA,NA,NA,NA,""
"image-keyboard-response",357,297887,"0.0-4.115-0.115","x9jud5psr9rj091",410,"141.csv","","313.59999999403954","resources/trios/L1T2A2.jpg","39","restless",0.4,0.9,0.4,0.322424777737817,"true"
"image-keyboard-response",358,298299,"0.0-4.115-1.115","x9jud5psr9rj091",410,"141.csv","","null","resources/maskTrios/BBA2.jpg","null","",NA,NA,NA,NA,""
"image-keyboard-response",359,299512,"0.0-4.115-2.115","x9jud5psr9rj091",410,"141.csv","","null","resources/images/coin2.png","null","",NA,NA,NA,NA,""
"image-keyboard-response",360,299947,"0.0-4.116-0.116","x9jud5psr9rj091",410,"141.csv","","417","resources/trios/L1T2A2.jpg","39","restless",0.4,0.9,0.4,0.403775918435639,"false"
"image-keyboard-response",361,300355,"0.0-4.116-1.116","x9jud5psr9rj091",410,"141.csv","","null","resources/maskTrios/BBA2.jpg","null","",NA,NA,NA,NA,""
"image-keyboard-response",362,301573,"0.0-4.116-2.116","x9jud5psr9rj091",410,"141.csv","","null","resources/images/fishbone.png","null","",NA,NA,NA,NA,""
"image-keyboard-response",363,301602,"0.0-4.117-0.117","x9jud5psr9rj091",410,"141.csv","","17.700000002980232","resources/trios/L1T2A2.jpg","38","restless",0.4,0.9,0.4,0.878546257485069,"true"
"image-keyboard-response",364,302011,"0.0-4.117-1.117","x9jud5psr9rj091",410,"141.csv","","null","resources/maskTrios/BT2B.jpg","null","",NA,NA,NA,NA,""
"image-keyboard-response",365,303243,"0.0-4.117-2.117","x9jud5psr9rj091",410,"141.csv","","null","resources/images/coin2.png","null","",NA,NA,NA,NA,""
"image-keyboard-response",366,303756,"0.0-4.118-0.118","x9jud5psr9rj091",410,"141.csv","","501.6000000089407","resources/trios/L1T2A2.jpg","38","restless",0.5,0.9,0.4,0.99257600447098,"false"
"image-keyboard-response",367,304184,"0.0-4.118-1.118","x9jud5psr9rj091",410,"141.csv","","null","resources/maskTrios/BT2B.jpg","null","",NA,NA,NA,NA,""
"image-keyboard-response",368,305402,"0.0-4.118-2.118","x9jud5psr9rj091",410,"141.csv","","null","resources/images/fishbone.png","null","",NA,NA,NA,NA,""
"image-keyboard-response",369,305526,"0.0-4.119-0.119","x9jud5psr9rj091",410,"141.csv","","113.29999999701977","resources/trios/L1T2A2.jpg","37","restless",0.5,0.9,0.4,0.00284359559157044,"true"
"image-keyboard-response",370,305936,"0.0-4.119-1.119","x9jud5psr9rj091",410,"141.csv","","null","resources/maskTrios/L1BB.jpg","null","",NA,NA,NA,NA,""
"image-keyboard-response",371,307151,"0.0-4.119-2.119","x9jud5psr9rj091",410,"141.csv","","null","resources/images/coin2.png","null","",NA,NA,NA,NA,""
"image-keyboard-response",372,307514,"0.0-4.120-0.120","x9jud5psr9rj091",410,"141.csv","","359.20000000298023","resources/trios/L1T2A2.jpg","37","restless",0.5,0.9,0.4,0.883439173528407,"false"
"image-keyboard-response",373,307937,"0.0-4.120-1.120","x9jud5psr9rj091",410,"141.csv","","null","resources/maskTrios/L1BB.jpg","null","",NA,NA,NA,NA,""
"image-keyboard-response",374,309149,"0.0-4.120-2.120","x9jud5psr9rj091",410,"141.csv","","null","resources/images/fishbone.png","null","",NA,NA,NA,NA,""
"image-keyboard-response",375,309500,"0.0-4.121-0.121","x9jud5psr9rj091",410,"141.csv","","339.90000000596046","resources/trios/L1T2A2.jpg","39","restless",0.5,0.9,0.4,0.706381276206805,"false"
"image-keyboard-response",376,309925,"0.0-4.121-1.121","x9jud5psr9rj091",410,"141.csv","","null","resources/maskTrios/BBA2.jpg","null","",NA,NA,NA,NA,""
"image-keyboard-response",377,311147,"0.0-4.121-2.121","x9jud5psr9rj091",410,"141.csv","","null","resources/images/fishbone.png","null","",NA,NA,NA,NA,""
"image-keyboard-response",378,311250,"0.0-4.122-0.122","x9jud5psr9rj091",410,"141.csv","","95.79999999701977","resources/trios/L1T2A2.jpg","39","restless",0.5,0.9,0.4,0.993310569521746,"false"
"image-keyboard-response",379,311660,"0.0-4.122-1.122","x9jud5psr9rj091",410,"141.csv","","null","resources/maskTrios/BBA2.jpg","null","",NA,NA,NA,NA,""
"image-keyboard-response",380,312883,"0.0-4.122-2.122","x9jud5psr9rj091",410,"141.csv","","null","resources/images/fishbone.png","null","",NA,NA,NA,NA,""
"image-keyboard-response",381,313041,"0.0-4.123-0.123","x9jud5psr9rj091",410,"141.csv","","146.70000000298023","resources/trios/L1T2A2.jpg","38","restless",0.5,0.9,0.4,0.158632724592348,"true"
"image-keyboard-response",382,313452,"0.0-4.123-1.123","x9jud5psr9rj091",410,"141.csv","","null","resources/maskTrios/BT2B.jpg","null","",NA,NA,NA,NA,""
"image-keyboard-response",383,314668,"0.0-4.123-2.123","x9jud5psr9rj091",410,"141.csv","","null","resources/images/coin2.png","null","",NA,NA,NA,NA,""
"image-keyboard-response",384,314852,"0.0-4.124-0.124","x9jud5psr9rj091",410,"141.csv","","173.70000000298023","resources/trios/L1T2A2.jpg","38","restless",0.5,0.9,0.4,0.898329409378961,"true"
"image-keyboard-response",385,315274,"0.0-4.124-1.124","x9jud5psr9rj091",410,"141.csv","","null","resources/maskTrios/BT2B.jpg","null","",NA,NA,NA,NA,""
"image-keyboard-response",386,316493,"0.0-4.124-2.124","x9jud5psr9rj091",410,"141.csv","","null","resources/images/coin2.png","null","",NA,NA,NA,NA,""
"image-keyboard-response",387,317034,"0.0-4.125-0.125","x9jud5psr9rj091",410,"141.csv","","530","resources/trios/L1T2A2.jpg","38","restless",0.5,0.9,0.4,0.618801265073362,"true"
"image-keyboard-response",388,317449,"0.0-4.125-1.125","x9jud5psr9rj091",410,"141.csv","","null","resources/maskTrios/BT2B.jpg","null","",NA,NA,NA,NA,""
"image-keyboard-response",389,318662,"0.0-4.125-2.125","x9jud5psr9rj091",410,"141.csv","","null","resources/images/coin2.png","null","",NA,NA,NA,NA,""
"image-keyboard-response",390,318929,"0.0-4.126-0.126","x9jud5psr9rj091",410,"141.csv","","258.5","resources/trios/L1T2A2.jpg","38","restless",0.5,0.9,0.4,0.826984836471567,"true"
"image-keyboard-response",391,319350,"0.0-4.126-1.126","x9jud5psr9rj091",410,"141.csv","","null","resources/maskTrios/BT2B.jpg","null","",NA,NA,NA,NA,""
"image-keyboard-response",392,320555,"0.0-4.126-2.126","x9jud5psr9rj091",410,"141.csv","","null","resources/images/coin2.png","null","",NA,NA,NA,NA,""
"image-keyboard-response",393,320785,"0.0-4.127-0.127","x9jud5psr9rj091",410,"141.csv","","225.79999999701977","resources/trios/L1T2A2.jpg","38","restless",0.5,0.9,0.4,0.890019061288065,"true"
"image-keyboard-response",394,321200,"0.0-4.127-1.127","x9jud5psr9rj091",410,"141.csv","","null","resources/maskTrios/BT2B.jpg","null","",NA,NA,NA,NA,""
"image-keyboard-response",395,322414,"0.0-4.127-2.127","x9jud5psr9rj091",410,"141.csv","","null","resources/images/coin2.png","null","",NA,NA,NA,NA,""
"image-keyboard-response",396,322807,"0.0-4.128-0.128","x9jud5psr9rj091",410,"141.csv","","385.5","resources/trios/L1T2A2.jpg","38","restless",0.5,0.9,0.5,0.734121589276403,"true"
"image-keyboard-response",397,323228,"0.0-4.128-1.128","x9jud5psr9rj091",410,"141.csv","","null","resources/maskTrios/BT2B.jpg","null","",NA,NA,NA,NA,""
"image-keyboard-response",398,324443,"0.0-4.128-2.128","x9jud5psr9rj091",410,"141.csv","","null","resources/images/coin2.png","null","",NA,NA,NA,NA,""
"image-keyboard-response",399,324458,"0.0-4.129-0.129","x9jud5psr9rj091",410,"141.csv","","7","resources/trios/L1T2A2.jpg","38","restless",0.5,0.9,0.5,0.895078514958787,"true"
"image-keyboard-response",400,324871,"0.0-4.129-1.129","x9jud5psr9rj091",410,"141.csv","","null","resources/maskTrios/BT2B.jpg","null","",NA,NA,NA,NA,""
"image-keyboard-response",401,326090,"0.0-4.129-2.129","x9jud5psr9rj091",410,"141.csv","","null","resources/images/coin2.png","null","",NA,NA,NA,NA,""
"image-keyboard-response",402,326277,"0.0-4.130-0.130","x9jud5psr9rj091",410,"141.csv","","179.3999999910593","resources/trios/L1T2A2.jpg","38","restless",0.5,0.8,0.5,0.25079059416001,"true"
"image-keyboard-response",403,326696,"0.0-4.130-1.130","x9jud5psr9rj091",410,"141.csv","","null","resources/maskTrios/BT2B.jpg","null","",NA,NA,NA,NA,""
"image-keyboard-response",404,327906,"0.0-4.130-2.130","x9jud5psr9rj091",410,"141.csv","","null","resources/images/coin2.png","null","",NA,NA,NA,NA,""
"image-keyboard-response",405,327949,"0.0-4.131-0.131","x9jud5psr9rj091",410,"141.csv","","36.8999999910593","resources/trios/L1T2A2.jpg","38","restless",0.5,0.8,0.5,0.455714215467915,"true"
"image-keyboard-response",406,328362,"0.0-4.131-1.131","x9jud5psr9rj091",410,"141.csv","","null","resources/maskTrios/BT2B.jpg","null","",NA,NA,NA,NA,""
"image-keyboard-response",407,329569,"0.0-4.131-2.131","x9jud5psr9rj091",410,"141.csv","","null","resources/images/coin2.png","null","",NA,NA,NA,NA,""
"image-keyboard-response",408,329866,"0.0-4.132-0.132","x9jud5psr9rj091",410,"141.csv","","293.20000000298023","resources/trios/L1T2A2.jpg","38","restless",0.5,0.8,0.5,0.272501350729736,"true"
"image-keyboard-response",409,330279,"0.0-4.132-1.132","x9jud5psr9rj091",410,"141.csv","","null","resources/maskTrios/BT2B.jpg","null","",NA,NA,NA,NA,""
"image-keyboard-response",410,331489,"0.0-4.132-2.132","x9jud5psr9rj091",410,"141.csv","","null","resources/images/coin2.png","null","",NA,NA,NA,NA,""
"image-keyboard-response",411,331498,"0.0-4.133-0.133","x9jud5psr9rj091",410,"141.csv","","0.5","resources/trios/L1T2A2.jpg","38","restless",0.5,0.8,0.5,0.0550565379369929,"true"
"image-keyboard-response",412,331905,"0.0-4.133-1.133","x9jud5psr9rj091",410,"141.csv","","null","resources/maskTrios/BT2B.jpg","null","",NA,NA,NA,NA,""
"image-keyboard-response",413,333123,"0.0-4.133-2.133","x9jud5psr9rj091",410,"141.csv","","null","resources/images/coin2.png","null","",NA,NA,NA,NA,""
"image-keyboard-response",414,333193,"0.0-4.134-0.134","x9jud5psr9rj091",410,"141.csv","","52.20000000298023","resources/trios/L1T2A2.jpg","38","restless",0.5,0.8,0.5,0.0684630516743967,"true"
"image-keyboard-response",415,333623,"0.0-4.134-1.134","x9jud5psr9rj091",410,"141.csv","","null","resources/maskTrios/BT2B.jpg","null","",NA,NA,NA,NA,""
"image-keyboard-response",416,334845,"0.0-4.134-2.134","x9jud5psr9rj091",410,"141.csv","","null","resources/images/coin2.png","null","",NA,NA,NA,NA,""
"image-keyboard-response",417,335005,"0.0-4.135-0.135","x9jud5psr9rj091",410,"141.csv","","148.29999999701977","resources/trios/L1T2A2.jpg","38","restless",0.5,0.8,0.5,0.0621399514109073,"true"
"image-keyboard-response",418,335417,"0.0-4.135-1.135","x9jud5psr9rj091",410,"141.csv","","null","resources/maskTrios/BT2B.jpg","null","",NA,NA,NA,NA,""
"image-keyboard-response",419,336639,"0.0-4.135-2.135","x9jud5psr9rj091",410,"141.csv","","null","resources/images/coin2.png","null","",NA,NA,NA,NA,""
"image-keyboard-response",420,337112,"0.0-4.136-0.136","x9jud5psr9rj091",410,"141.csv","","461.09999999403954","resources/trios/L1T2A2.jpg","38","restless",0.5,0.8,0.5,0.378275437627087,"true"
"image-keyboard-response",421,337534,"0.0-4.136-1.136","x9jud5psr9rj091",410,"141.csv","","null","resources/maskTrios/BT2B.jpg","null","",NA,NA,NA,NA,""
"image-keyboard-response",422,338740,"0.0-4.136-2.136","x9jud5psr9rj091",410,"141.csv","","null","resources/images/coin2.png","null","",NA,NA,NA,NA,""
"image-keyboard-response",423,338898,"0.0-4.137-0.137","x9jud5psr9rj091",410,"141.csv","","147.70000000298023","resources/trios/L1T2A2.jpg","38","restless",0.6,0.8,0.5,0.913143836064691,"false"
"image-keyboard-response",424,339304,"0.0-4.137-1.137","x9jud5psr9rj091",410,"141.csv","","null","resources/maskTrios/BT2B.jpg","null","",NA,NA,NA,NA,""
"image-keyboard-response",425,340528,"0.0-4.137-2.137","x9jud5psr9rj091",410,"141.csv","","null","resources/images/fishbone.png","null","",NA,NA,NA,NA,""
"image-keyboard-response",426,340973,"0.0-4.138-0.138","x9jud5psr9rj091",410,"141.csv","","433.20000000298023","resources/trios/L1T2A2.jpg","37","restless",0.6,0.8,0.5,0.974230193370122,"false"
"image-keyboard-response",427,341384,"0.0-4.138-1.138","x9jud5psr9rj091",410,"141.csv","","null","resources/maskTrios/L1BB.jpg","null","",NA,NA,NA,NA,""
"image-keyboard-response",428,342597,"0.0-4.138-2.138","x9jud5psr9rj091",410,"141.csv","","null","resources/images/fishbone.png","null","",NA,NA,NA,NA,""
"image-keyboard-response",429,342674,"0.0-4.139-0.139","x9jud5psr9rj091",410,"141.csv","","66.3999999910593","resources/trios/L1T2A2.jpg","39","restless",0.6,0.8,0.5,0.170431420874132,"true"
"image-keyboard-response",430,343080,"0.0-4.139-1.139","x9jud5psr9rj091",410,"141.csv","","null","resources/maskTrios/BBA2.jpg","null","",NA,NA,NA,NA,""
"image-keyboard-response",431,344290,"0.0-4.139-2.139","x9jud5psr9rj091",410,"141.csv","","null","resources/images/coin2.png","null","",NA,NA,NA,NA,""
"image-keyboard-response",432,344471,"0.0-4.140-0.140","x9jud5psr9rj091",410,"141.csv","","166","resources/trios/L1T2A2.jpg","39","restless",0.6,0.8,0.6,0.318127272127547,"true"
"image-keyboard-response",433,344897,"0.0-4.140-1.140","x9jud5psr9rj091",410,"141.csv","","null","resources/maskTrios/BBA2.jpg","null","",NA,NA,NA,NA,""
"image-keyboard-response",434,346110,"0.0-4.140-2.140","x9jud5psr9rj091",410,"141.csv","","null","resources/images/coin2.png","null","",NA,NA,NA,NA,""
"image-keyboard-response",435,346259,"0.0-4.141-0.141","x9jud5psr9rj091",410,"141.csv","","145","resources/trios/L1T2A2.jpg","39","restless",0.7,0.8,0.6,0.188001138534771,"true"
"image-keyboard-response",436,346665,"0.0-4.141-1.141","x9jud5psr9rj091",410,"141.csv","","null","resources/maskTrios/BBA2.jpg","null","",NA,NA,NA,NA,""
"image-keyboard-response",437,347884,"0.0-4.141-2.141","x9jud5psr9rj091",410,"141.csv","","null","resources/images/coin2.png","null","",NA,NA,NA,NA,""
"image-keyboard-response",438,347944,"0.0-4.142-0.142","x9jud5psr9rj091",410,"141.csv","","49.400000005960464","resources/trios/L1T2A2.jpg","39","restless",0.7,0.8,0.6,0.706364916611918,"false"
"image-keyboard-response",439,348349,"0.0-4.142-1.142","x9jud5psr9rj091",410,"141.csv","","null","resources/maskTrios/BBA2.jpg","null","",NA,NA,NA,NA,""
"image-keyboard-response",440,349566,"0.0-4.142-2.142","x9jud5psr9rj091",410,"141.csv","","null","resources/images/fishbone.png","null","",NA,NA,NA,NA,""
"image-keyboard-response",441,350032,"0.0-4.143-0.143","x9jud5psr9rj091",410,"141.csv","","454.59999999403954","resources/trios/L1T2A2.jpg","37","restless",0.7,0.8,0.6,0.1337487930607,"true"
"image-keyboard-response",442,350442,"0.0-4.143-1.143","x9jud5psr9rj091",410,"141.csv","","null","resources/maskTrios/L1BB.jpg","null","",NA,NA,NA,NA,""
"image-keyboard-response",443,351661,"0.0-4.143-2.143","x9jud5psr9rj091",410,"141.csv","","null","resources/images/coin2.png","null","",NA,NA,NA,NA,""
"image-keyboard-response",444,351911,"0.0-4.144-0.144","x9jud5psr9rj091",410,"141.csv","","242.09999999403954","resources/trios/L1T2A2.jpg","37","restless",0.7,0.8,0.6,0.816197860253849,"false"
"image-keyboard-response",445,352320,"0.0-4.144-1.144","x9jud5psr9rj091",410,"141.csv","","null","resources/maskTrios/L1BB.jpg","null","",NA,NA,NA,NA,""
"image-keyboard-response",446,353543,"0.0-4.144-2.144","x9jud5psr9rj091",410,"141.csv","","null","resources/images/fishbone.png","null","",NA,NA,NA,NA,""
"image-keyboard-response",447,353959,"0.0-4.145-0.145","x9jud5psr9rj091",410,"141.csv","","403.19999998807907","resources/trios/L1T2A2.jpg","39","restless",0.7,0.8,0.6,0.0481730250688914,"true"
"image-keyboard-response",448,354380,"0.0-4.145-1.145","x9jud5psr9rj091",410,"141.csv","","null","resources/maskTrios/BBA2.jpg","null","",NA,NA,NA,NA,""
"image-keyboard-response",449,355598,"0.0-4.145-2.145","x9jud5psr9rj091",410,"141.csv","","null","resources/images/coin2.png","null","",NA,NA,NA,NA,""
"image-keyboard-response",450,355774,"0.0-4.146-0.146","x9jud5psr9rj091",410,"141.csv","","164.40000000596046","resources/trios/L1T2A2.jpg","39","restless",0.7,0.8,0.6,0.752475628900072,"false"
"image-keyboard-response",451,356180,"0.0-4.146-1.146","x9jud5psr9rj091",410,"141.csv","","null","resources/maskTrios/BBA2.jpg","null","",NA,NA,NA,NA,""
"image-keyboard-response",452,357394,"0.0-4.146-2.146","x9jud5psr9rj091",410,"141.csv","","null","resources/images/fishbone.png","null","",NA,NA,NA,NA,""
"image-keyboard-response",453,357463,"0.0-4.147-0.147","x9jud5psr9rj091",410,"141.csv","","53.20000000298023","resources/trios/L1T2A2.jpg","38","restless",0.7,0.8,0.6,0.0450555367462204,"true"
"image-keyboard-response",454,357876,"0.0-4.147-1.147","x9jud5psr9rj091",410,"141.csv","","null","resources/maskTrios/BT2B.jpg","null","",NA,NA,NA,NA,""
"image-keyboard-response",455,359086,"0.0-4.147-2.147","x9jud5psr9rj091",410,"141.csv","","null","resources/images/coin2.png","null","",NA,NA,NA,NA,""
"image-keyboard-response",456,359292,"0.0-4.148-0.148","x9jud5psr9rj091",410,"141.csv","","195.40000000596046","resources/trios/L1T2A2.jpg","38","restless",0.7,0.8,0.6,0.622981527656946,"true"
"image-keyboard-response",457,359700,"0.0-4.148-1.148","x9jud5psr9rj091",410,"141.csv","","null","resources/maskTrios/BT2B.jpg","null","",NA,NA,NA,NA,""
"image-keyboard-response",458,360919,"0.0-4.148-2.148","x9jud5psr9rj091",410,"141.csv","","null","resources/images/coin2.png","null","",NA,NA,NA,NA,""
"image-keyboard-response",459,361167,"0.0-4.149-0.149","x9jud5psr9rj091",410,"141.csv","","236.90000000596046","resources/trios/L1T2A2.jpg","38","restless",0.7,0.8,0.6,0.737121046437387,"true"
"image-keyboard-response",460,361600,"0.0-4.149-1.149","x9jud5psr9rj091",410,"141.csv","","null","resources/maskTrios/BT2B.jpg","null","",NA,NA,NA,NA,""
"image-keyboard-response",461,362820,"0.0-4.149-2.149","x9jud5psr9rj091",410,"141.csv","","null","resources/images/coin2.png","null","",NA,NA,NA,NA,""
"image-keyboard-response",462,363022,"0.0-4.150-0.150","x9jud5psr9rj091",410,"141.csv","","193.70000000298023","resources/trios/L1T2A2.jpg","38","restless",0.7,0.8,0.6,0.130073337901774,"true"
"image-keyboard-response",463,363435,"0.0-4.150-1.150","x9jud5psr9rj091",410,"141.csv","","null","resources/maskTrios/BT2B.jpg","null","",NA,NA,NA,NA,""
"image-keyboard-response",464,364654,"0.0-4.150-2.150","x9jud5psr9rj091",410,"141.csv","","null","resources/images/coin2.png","null","",NA,NA,NA,NA,""
"image-keyboard-response",465,365051,"0.0-4.151-0.151","x9jud5psr9rj091",410,"141.csv","","386.20000000298023","resources/trios/L1T2A2.jpg","38","restless",0.7,0.8,0.6,0.298055861561592,"true"
"image-keyboard-response",466,365462,"0.0-4.151-1.151","x9jud5psr9rj091",410,"141.csv","","null","resources/maskTrios/BT2B.jpg","null","",NA,NA,NA,NA,""
"image-keyboard-response",467,366675,"0.0-4.151-2.151","x9jud5psr9rj091",410,"141.csv","","null","resources/images/coin2.png","null","",NA,NA,NA,NA,""
"image-keyboard-response",468,367006,"0.0-4.152-0.152","x9jud5psr9rj091",410,"141.csv","","320","resources/trios/L1T2A2.jpg","38","restless",0.7,0.8,0.6,0.719823278203834,"true"
"image-keyboard-response",469,367415,"0.0-4.152-1.152","x9jud5psr9rj091",410,"141.csv","","null","resources/maskTrios/BT2B.jpg","null","",NA,NA,NA,NA,""
"image-keyboard-response",470,368639,"0.0-4.152-2.152","x9jud5psr9rj091",410,"141.csv","","null","resources/images/coin2.png","null","",NA,NA,NA,NA,""
"image-keyboard-response",471,369025,"0.0-4.153-0.153","x9jud5psr9rj091",410,"141.csv","","373.70000000298023","resources/trios/L1T2A2.jpg","38","restless",0.7,0.8,0.6,0.116604316518538,"true"
"image-keyboard-response",472,369439,"0.0-4.153-1.153","x9jud5psr9rj091",410,"141.csv","","null","resources/maskTrios/BT2B.jpg","null","",NA,NA,NA,NA,""
"image-keyboard-response",473,370655,"0.0-4.153-2.153","x9jud5psr9rj091",410,"141.csv","","null","resources/images/coin2.png","null","",NA,NA,NA,NA,""
"image-keyboard-response",474,370815,"0.0-4.154-0.154","x9jud5psr9rj091",410,"141.csv","","149.6000000089407","resources/trios/L1T2A2.jpg","38","restless",0.7,0.8,0.6,0.713577047822083,"true"
"image-keyboard-response",475,371229,"0.0-4.154-1.154","x9jud5psr9rj091",410,"141.csv","","null","resources/maskTrios/BT2B.jpg","null","",NA,NA,NA,NA,""
"image-keyboard-response",476,372436,"0.0-4.154-2.154","x9jud5psr9rj091",410,"141.csv","","null","resources/images/coin2.png","null","",NA,NA,NA,NA,""
"image-keyboard-response",477,372861,"0.0-4.155-0.155","x9jud5psr9rj091",410,"141.csv","","414.59999999403954","resources/trios/L1T2A2.jpg","38","restless",0.7,0.8,0.6,0.969227623753696,"false"
"image-keyboard-response",478,373284,"0.0-4.155-1.155","x9jud5psr9rj091",410,"141.csv","","null","resources/maskTrios/BT2B.jpg","null","",NA,NA,NA,NA,""
"image-keyboard-response",479,374507,"0.0-4.155-2.155","x9jud5psr9rj091",410,"141.csv","","null","resources/images/fishbone.png","null","",NA,NA,NA,NA,""
"image-keyboard-response",480,374846,"0.0-4.156-0.156","x9jud5psr9rj091",410,"141.csv","","322.29999999701977","resources/trios/L1T2A2.jpg","37","restless",0.7,0.8,0.6,0.488372019731014,"true"
"image-keyboard-response",481,375271,"0.0-4.156-1.156","x9jud5psr9rj091",410,"141.csv","","null","resources/maskTrios/L1BB.jpg","null","",NA,NA,NA,NA,""
"image-keyboard-response",482,376498,"0.0-4.156-2.156","x9jud5psr9rj091",410,"141.csv","","null","resources/images/coin2.png","null","",NA,NA,NA,NA,""
"image-keyboard-response",483,376770,"0.0-4.157-0.157","x9jud5psr9rj091",410,"141.csv","","260.79999999701977","resources/trios/L1T2A2.jpg","37","restless",0.8,0.8,0.5,0.821314824314528,"false"
"image-keyboard-response",484,377185,"0.0-4.157-1.157","x9jud5psr9rj091",410,"141.csv","","null","resources/maskTrios/L1BB.jpg","null","",NA,NA,NA,NA,""
"image-keyboard-response",485,378397,"0.0-4.157-2.157","x9jud5psr9rj091",410,"141.csv","","null","resources/images/fishbone.png","null","",NA,NA,NA,NA,""
"image-keyboard-response",486,378435,"0.0-4.158-0.158","x9jud5psr9rj091",410,"141.csv","","35.3999999910593","resources/trios/L1T2A2.jpg","39","restless",0.8,0.8,0.5,0.790111112196422,"false"
"image-keyboard-response",487,378849,"0.0-4.158-1.158","x9jud5psr9rj091",410,"141.csv","","null","resources/maskTrios/BBA2.jpg","null","",NA,NA,NA,NA,""
"image-keyboard-response",488,380060,"0.0-4.158-2.158","x9jud5psr9rj091",410,"141.csv","","null","resources/images/fishbone.png","null","",NA,NA,NA,NA,""
"image-keyboard-response",489,380281,"0.0-4.159-0.159","x9jud5psr9rj091",410,"141.csv","","210.20000000298023","resources/trios/L1T2A2.jpg","38","restless",0.8,0.8,0.5,0.256218610003287,"true"
"image-keyboard-response",490,380690,"0.0-4.159-1.159","x9jud5psr9rj091",410,"141.csv","","null","resources/maskTrios/BT2B.jpg","null","",NA,NA,NA,NA,""
"image-keyboard-response",491,381902,"0.0-4.159-2.159","x9jud5psr9rj091",410,"141.csv","","null","resources/images/coin2.png","null","",NA,NA,NA,NA,""
"image-keyboard-response",492,381945,"0.0-4.160-0.160","x9jud5psr9rj091",410,"141.csv","","32.5","resources/trios/L1T2A2.jpg","38","restless",0.8,0.8,0.5,0.231861329546419,"true"
"image-keyboard-response",493,382351,"0.0-4.160-1.160","x9jud5psr9rj091",410,"141.csv","","null","resources/maskTrios/BT2B.jpg","null","",NA,NA,NA,NA,""
"image-keyboard-response",494,383562,"0.0-4.160-2.160","x9jud5psr9rj091",410,"141.csv","","null","resources/images/coin2.png","null","",NA,NA,NA,NA,""
"image-keyboard-response",495,383987,"0.0-4.161-0.161","x9jud5psr9rj091",410,"141.csv","","413.79999999701977","resources/trios/L1T2A2.jpg","38","restless",0.8,0.8,0.6,0.12045689956631,"true"
"image-keyboard-response",496,384405,"0.0-4.161-1.161","x9jud5psr9rj091",410,"141.csv","","null","resources/maskTrios/BT2B.jpg","null","",NA,NA,NA,NA,""
"image-keyboard-response",497,385624,"0.0-4.161-2.161","x9jud5psr9rj091",410,"141.csv","","null","resources/images/coin2.png","null","",NA,NA,NA,NA,""
"image-keyboard-response",498,385672,"0.0-4.162-0.162","x9jud5psr9rj091",410,"141.csv","","40","resources/trios/L1T2A2.jpg","38","restless",0.8,0.8,0.6,0.617705322702375,"true"
"image-keyboard-response",499,386084,"0.0-4.162-1.162","x9jud5psr9rj091",410,"141.csv","","null","resources/maskTrios/BT2B.jpg","null","",NA,NA,NA,NA,""
"image-keyboard-response",500,387297,"0.0-4.162-2.162","x9jud5psr9rj091",410,"141.csv","","null","resources/images/coin2.png","null","",NA,NA,NA,NA,""
"image-keyboard-response",501,387448,"0.0-4.163-0.163","x9jud5psr9rj091",410,"141.csv","","145.09999999403954","resources/trios/L1T2A2.jpg","38","restless",0.7,0.8,0.6,0.234058534422978,"true"
"image-keyboard-response",502,387873,"0.0-4.163-1.163","x9jud5psr9rj091",410,"141.csv","","null","resources/maskTrios/BT2B.jpg","null","",NA,NA,NA,NA,""
"image-keyboard-response",503,389090,"0.0-4.163-2.163","x9jud5psr9rj091",410,"141.csv","","null","resources/images/coin2.png","null","",NA,NA,NA,NA,""
"image-keyboard-response",504,389258,"0.0-4.164-0.164","x9jud5psr9rj091",410,"141.csv","","156.59999999403954","resources/trios/L1T2A2.jpg","38","restless",0.7,0.8,0.6,0.200530569334318,"true"
"image-keyboard-response",505,389666,"0.0-4.164-1.164","x9jud5psr9rj091",410,"141.csv","","null","resources/maskTrios/BT2B.jpg","null","",NA,NA,NA,NA,""
"image-keyboard-response",506,390876,"0.0-4.164-2.164","x9jud5psr9rj091",410,"141.csv","","null","resources/images/coin2.png","null","",NA,NA,NA,NA,""
"image-keyboard-response",507,391211,"0.0-4.165-0.165","x9jud5psr9rj091",410,"141.csv","","323.70000000298023","resources/trios/L1T2A2.jpg","38","restless",0.7,0.8,0.6,0.33962250417874,"true"
"image-keyboard-response",508,391635,"0.0-4.165-1.165","x9jud5psr9rj091",410,"141.csv","","null","resources/maskTrios/BT2B.jpg","null","",NA,NA,NA,NA,""
"image-keyboard-response",509,392858,"0.0-4.165-2.165","x9jud5psr9rj091",410,"141.csv","","null","resources/images/coin2.png","null","",NA,NA,NA,NA,""
"image-keyboard-response",510,393143,"0.0-4.166-0.166","x9jud5psr9rj091",410,"141.csv","","273","resources/trios/L1T2A2.jpg","38","restless",0.7,0.7,0.6,0.368006723162021,"true"
"image-keyboard-response",511,393562,"0.0-4.166-1.166","x9jud5psr9rj091",410,"141.csv","","null","resources/maskTrios/BT2B.jpg","null","",NA,NA,NA,NA,""
"image-keyboard-response",512,394786,"0.0-4.166-2.166","x9jud5psr9rj091",410,"141.csv","","null","resources/images/coin2.png","null","",NA,NA,NA,NA,""
"image-keyboard-response",513,395007,"0.0-4.167-0.167","x9jud5psr9rj091",410,"141.csv","","209.90000000596046","resources/trios/L1T2A2.jpg","38","restless",0.7,0.7,0.6,0.153810556094419,"true"
"image-keyboard-response",514,395427,"0.0-4.167-1.167","x9jud5psr9rj091",410,"141.csv","","null","resources/maskTrios/BT2B.jpg","null","",NA,NA,NA,NA,""
"image-keyboard-response",515,396658,"0.0-4.167-2.167","x9jud5psr9rj091",410,"141.csv","","null","resources/images/coin2.png","null","",NA,NA,NA,NA,""
"image-keyboard-response",516,396678,"0.0-4.168-0.168","x9jud5psr9rj091",410,"141.csv","","12.099999994039536","resources/trios/L1T2A2.jpg","38","restless",0.7,0.7,0.6,0.711002000883695,"false"
"image-keyboard-response",517,397098,"0.0-4.168-1.168","x9jud5psr9rj091",410,"141.csv","","null","resources/maskTrios/BT2B.jpg","null","",NA,NA,NA,NA,""
"image-keyboard-response",518,398317,"0.0-4.168-2.168","x9jud5psr9rj091",410,"141.csv","","null","resources/images/fishbone.png","null","",NA,NA,NA,NA,""
"image-keyboard-response",519,398723,"0.0-4.169-0.169","x9jud5psr9rj091",410,"141.csv","","398","resources/trios/L1T2A2.jpg","37","restless",0.7,0.7,0.6,0.613555030208502,"true"
"image-keyboard-response",520,399134,"0.0-4.169-1.169","x9jud5psr9rj091",410,"141.csv","","null","resources/maskTrios/L1BB.jpg","null","",NA,NA,NA,NA,""
"image-keyboard-response",521,400354,"0.0-4.169-2.169","x9jud5psr9rj091",410,"141.csv","","null","resources/images/coin2.png","null","",NA,NA,NA,NA,""
"image-keyboard-response",522,400491,"0.0-4.170-0.170","x9jud5psr9rj091",410,"141.csv","","125.8999999910593","resources/trios/L1T2A2.jpg","37","restless",0.6,0.7,0.5,0.756044939304538,"false"
"image-keyboard-response",523,400906,"0.0-4.170-1.170","x9jud5psr9rj091",410,"141.csv","","null","resources/maskTrios/L1BB.jpg","null","",NA,NA,NA,NA,""
"image-keyboard-response",524,402118,"0.0-4.170-2.170","x9jud5psr9rj091",410,"141.csv","","null","resources/images/fishbone.png","null","",NA,NA,NA,NA,""
"image-keyboard-response",525,402163,"0.0-4.171-0.171","x9jud5psr9rj091",410,"141.csv","","34.70000000298023","resources/trios/L1T2A2.jpg","39","restless",0.6,0.7,0.5,0.540202412482765,"false"
"image-keyboard-response",526,402573,"0.0-4.171-1.171","x9jud5psr9rj091",410,"141.csv","","null","resources/maskTrios/BBA2.jpg","null","",NA,NA,NA,NA,""
"image-keyboard-response",527,403800,"0.0-4.171-2.171","x9jud5psr9rj091",410,"141.csv","","null","resources/images/fishbone.png","null","",NA,NA,NA,NA,""
"image-keyboard-response",528,403954,"0.0-4.172-0.172","x9jud5psr9rj091",410,"141.csv","","142.29999999701977","resources/trios/L1T2A2.jpg","38","restless",0.6,0.7,0.5,0.519870300322449,"true"
"image-keyboard-response",529,404373,"0.0-4.172-1.172","x9jud5psr9rj091",410,"141.csv","","null","resources/maskTrios/BT2B.jpg","null","",NA,NA,NA,NA,""
"image-keyboard-response",530,405594,"0.0-4.172-2.172","x9jud5psr9rj091",410,"141.csv","","null","resources/images/coin2.png","null","",NA,NA,NA,NA,""
"image-keyboard-response",531,406238,"0.0-4.173-0.173","x9jud5psr9rj091",410,"141.csv","","639","resources/trios/L1T2A2.jpg","38","restless",0.6,0.7,0.5,0.97946430057101,"false"
"image-keyboard-response",532,406651,"0.0-4.173-1.173","x9jud5psr9rj091",410,"141.csv","","null","resources/maskTrios/BT2B.jpg","null","",NA,NA,NA,NA,""
"image-keyboard-response",533,407862,"0.0-4.173-2.173","x9jud5psr9rj091",410,"141.csv","","null","resources/images/fishbone.png","null","",NA,NA,NA,NA,""
"image-keyboard-response",534,407998,"0.0-4.174-0.174","x9jud5psr9rj091",410,"141.csv","","125.69999998807907","resources/trios/L1T2A2.jpg","37","restless",0.6,0.7,0.5,0.806594112228518,"false"
"image-keyboard-response",535,408418,"0.0-4.174-1.174","x9jud5psr9rj091",410,"141.csv","","null","resources/maskTrios/L1BB.jpg","null","",NA,NA,NA,NA,""
"image-keyboard-response",536,409635,"0.0-4.174-2.174","x9jud5psr9rj091",410,"141.csv","","null","resources/images/fishbone.png","null","",NA,NA,NA,NA,""
"image-keyboard-response",537,409796,"0.0-4.175-0.175","x9jud5psr9rj091",410,"141.csv","","150.20000000298023","resources/trios/L1T2A2.jpg","39","restless",0.6,0.7,0.5,0.0245663786416614,"true"
"image-keyboard-response",538,410213,"0.0-4.175-1.175","x9jud5psr9rj091",410,"141.csv","","null","resources/maskTrios/BBA2.jpg","null","",NA,NA,NA,NA,""
"image-keyboard-response",539,411421,"0.0-4.175-2.175","x9jud5psr9rj091",410,"141.csv","","null","resources/images/coin2.png","null","",NA,NA,NA,NA,""
"image-keyboard-response",540,411866,"0.0-4.176-0.176","x9jud5psr9rj091",410,"141.csv","","433.79999999701977","resources/trios/L1T2A2.jpg","39","restless",0.6,0.7,0.5,0.604945702994907,"false"
"image-keyboard-response",541,412280,"0.0-4.176-1.176","x9jud5psr9rj091",410,"141.csv","","null","resources/maskTrios/BBA2.jpg","null","",NA,NA,NA,NA,""
"image-keyboard-response",542,413492,"0.0-4.176-2.176","x9jud5psr9rj091",410,"141.csv","","null","resources/images/fishbone.png","null","",NA,NA,NA,NA,""
"image-keyboard-response",543,413516,"0.0-4.177-0.177","x9jud5psr9rj091",410,"141.csv","","13.700000002980232","resources/trios/L1T2A2.jpg","38","restless",0.6,0.7,0.6,0.833007212201333,"false"
"image-keyboard-response",544,413930,"0.0-4.177-1.177","x9jud5psr9rj091",410,"141.csv","","null","resources/maskTrios/BT2B.jpg","null","",NA,NA,NA,NA,""
"image-keyboard-response",545,415142,"0.0-4.177-2.177","x9jud5psr9rj091",410,"141.csv","","null","resources/images/fishbone.png","null","",NA,NA,NA,NA,""
"image-keyboard-response",546,415846,"0.0-4.178-0.178","x9jud5psr9rj091",410,"141.csv","","685.5999999940395","resources/trios/L1T2A2.jpg","37","restless",0.7,0.7,0.6,0.868447530803962,"false"
"image-keyboard-response",547,416264,"0.0-4.178-1.178","x9jud5psr9rj091",410,"141.csv","","null","resources/maskTrios/L1BB.jpg","null","",NA,NA,NA,NA,""
"image-keyboard-response",548,417485,"0.0-4.178-2.178","x9jud5psr9rj091",410,"141.csv","","null","resources/images/fishbone.png","null","",NA,NA,NA,NA,""
"image-keyboard-response",549,418462,"0.0-4.179-0.179","x9jud5psr9rj091",410,"141.csv","","966.2999999970198","resources/trios/L1T2A2.jpg","38","restless",0.7,0.7,0.6,0.148431690637414,"true"
"image-keyboard-response",550,418870,"0.0-4.179-1.179","x9jud5psr9rj091",410,"141.csv","","null","resources/maskTrios/BT2B.jpg","null","",NA,NA,NA,NA,""
"image-keyboard-response",551,420077,"0.0-4.179-2.179","x9jud5psr9rj091",410,"141.csv","","null","resources/images/coin2.png","null","",NA,NA,NA,NA,""
"image-keyboard-response",552,420445,"0.0-4.180-0.180","x9jud5psr9rj091",410,"141.csv","","363.20000000298023","resources/trios/L1T2A2.jpg","38","restless",0.7,0.7,0.6,0.936477138320177,"false"
"image-keyboard-response",553,420866,"0.0-4.180-1.180","x9jud5psr9rj091",410,"141.csv","","null","resources/maskTrios/BT2B.jpg","null","",NA,NA,NA,NA,""
"image-keyboard-response",554,422082,"0.0-4.180-2.180","x9jud5psr9rj091",410,"141.csv","","null","resources/images/fishbone.png","null","",NA,NA,NA,NA,""
"image-keyboard-response",555,422422,"0.0-4.181-0.181","x9jud5psr9rj091",410,"141.csv","","328.1000000089407","resources/trios/L1T2A2.jpg","39","restless",0.7,0.6,0.6,0.677344536366838,"false"
"image-keyboard-response",556,422843,"0.0-4.181-1.181","x9jud5psr9rj091",410,"141.csv","","null","resources/maskTrios/BBA2.jpg","null","",NA,NA,NA,NA,""
"image-keyboard-response",557,424059,"0.0-4.181-2.181","x9jud5psr9rj091",410,"141.csv","","null","resources/images/fishbone.png","null","",NA,NA,NA,NA,""
"image-keyboard-response",558,424164,"0.0-4.182-0.182","x9jud5psr9rj091",410,"141.csv","","94.69999998807907","resources/trios/L1T2A2.jpg","37","restless",0.7,0.6,0.6,0.398663716219563,"true"
"image-keyboard-response",559,424582,"0.0-4.182-1.182","x9jud5psr9rj091",410,"141.csv","","null","resources/maskTrios/L1BB.jpg","null","",NA,NA,NA,NA,""
"image-keyboard-response",560,425795,"0.0-4.182-2.182","x9jud5psr9rj091",410,"141.csv","","null","resources/images/coin2.png","null","",NA,NA,NA,NA,""
"image-keyboard-response",561,425966,"0.0-4.183-0.183","x9jud5psr9rj091",410,"141.csv","","160.29999999701977","resources/trios/L1T2A2.jpg","37","restless",0.7,0.6,0.6,0.77586853806274,"false"
"image-keyboard-response",562,426375,"0.0-4.183-1.183","x9jud5psr9rj091",410,"141.csv","","null","resources/maskTrios/L1BB.jpg","null","",NA,NA,NA,NA,""
"image-keyboard-response",563,427598,"0.0-4.183-2.183","x9jud5psr9rj091",410,"141.csv","","null","resources/images/fishbone.png","null","",NA,NA,NA,NA,""
"image-keyboard-response",564,427818,"0.0-4.184-0.184","x9jud5psr9rj091",410,"141.csv","","209","resources/trios/L1T2A2.jpg","38","restless",0.7,0.6,0.6,0.265965964149193,"true"
"image-keyboard-response",565,428240,"0.0-4.184-1.184","x9jud5psr9rj091",410,"141.csv","","null","resources/maskTrios/BT2B.jpg","null","",NA,NA,NA,NA,""
"image-keyboard-response",566,429459,"0.0-4.184-2.184","x9jud5psr9rj091",410,"141.csv","","null","resources/images/coin2.png","null","",NA,NA,NA,NA,""
"image-keyboard-response",567,429502,"0.0-4.185-0.185","x9jud5psr9rj091",410,"141.csv","","32.5","resources/trios/L1T2A2.jpg","38","restless",0.8,0.6,0.7,0.437737478069634,"true"
"image-keyboard-response",568,429919,"0.0-4.185-1.185","x9jud5psr9rj091",410,"141.csv","","null","resources/maskTrios/BT2B.jpg","null","",NA,NA,NA,NA,""
"image-keyboard-response",569,431141,"0.0-4.185-2.185","x9jud5psr9rj091",410,"141.csv","","null","resources/images/coin2.png","null","",NA,NA,NA,NA,""
"image-keyboard-response",570,431507,"0.0-4.186-0.186","x9jud5psr9rj091",410,"141.csv","","357.69999998807907","resources/trios/L1T2A2.jpg","38","restless",0.8,0.6,0.7,0.506406079358547,"true"
"image-keyboard-response",571,431917,"0.0-4.186-1.186","x9jud5psr9rj091",410,"141.csv","","null","resources/maskTrios/BT2B.jpg","null","",NA,NA,NA,NA,""
"image-keyboard-response",572,433130,"0.0-4.186-2.186","x9jud5psr9rj091",410,"141.csv","","null","resources/images/coin2.png","null","",NA,NA,NA,NA,""
"image-keyboard-response",573,433525,"0.0-4.187-0.187","x9jud5psr9rj091",410,"141.csv","","390.6000000089407","resources/trios/L1T2A2.jpg","38","restless",0.8,0.6,0.8,0.0279671613374763,"true"
"image-keyboard-response",574,433937,"0.0-4.187-1.187","x9jud5psr9rj091",410,"141.csv","","null","resources/maskTrios/BT2B.jpg","null","",NA,NA,NA,NA,""
"image-keyboard-response",575,435152,"0.0-4.187-2.187","x9jud5psr9rj091",410,"141.csv","","null","resources/images/coin2.png","null","",NA,NA,NA,NA,""
"image-keyboard-response",576,435321,"0.0-4.188-0.188","x9jud5psr9rj091",410,"141.csv","","158.59999999403954","resources/trios/L1T2A2.jpg","38","restless",0.8,0.6,0.8,0.25290158901321,"true"
"image-keyboard-response",577,435743,"0.0-4.188-1.188","x9jud5psr9rj091",410,"141.csv","","null","resources/maskTrios/BT2B.jpg","null","",NA,NA,NA,NA,""
"image-keyboard-response",578,436955,"0.0-4.188-2.188","x9jud5psr9rj091",410,"141.csv","","null","resources/images/coin2.png","null","",NA,NA,NA,NA,""
"image-keyboard-response",579,436977,"0.0-4.189-0.189","x9jud5psr9rj091",410,"141.csv","","13.699999988079071","resources/trios/L1T2A2.jpg","38","restless",0.8,0.6,0.7,0.754670732947153,"false"
"image-keyboard-response",580,437393,"0.0-4.189-1.189","x9jud5psr9rj091",410,"141.csv","","null","resources/maskTrios/BT2B.jpg","null","",NA,NA,NA,NA,""
"image-keyboard-response",581,438608,"0.0-4.189-2.189","x9jud5psr9rj091",410,"141.csv","","null","resources/images/fishbone.png","null","",NA,NA,NA,NA,""
"image-keyboard-response",582,438655,"0.0-4.190-0.190","x9jud5psr9rj091",410,"141.csv","","32.599999994039536","resources/trios/L1T2A2.jpg","37","restless",0.8,0.6,0.7,0.79060994313366,"true"
"image-keyboard-response",583,439077,"0.0-4.190-1.190","x9jud5psr9rj091",410,"141.csv","","null","resources/maskTrios/L1BB.jpg","null","",NA,NA,NA,NA,""
"image-keyboard-response",584,440289,"0.0-4.190-2.190","x9jud5psr9rj091",410,"141.csv","","null","resources/images/coin2.png","null","",NA,NA,NA,NA,""
"image-keyboard-response",585,440480,"0.0-4.191-0.191","x9jud5psr9rj091",410,"141.csv","","180.29999999701977","resources/trios/L1T2A2.jpg","37","restless",0.9,0.6,0.7,0.947264400434561,"false"
"image-keyboard-response",586,440899,"0.0-4.191-1.191","x9jud5psr9rj091",410,"141.csv","","null","resources/maskTrios/L1BB.jpg","null","",NA,NA,NA,NA,""
"image-keyboard-response",587,442119,"0.0-4.191-2.191","x9jud5psr9rj091",410,"141.csv","","null","resources/images/fishbone.png","null","",NA,NA,NA,NA,""
"image-keyboard-response",588,442381,"0.0-4.192-0.192","x9jud5psr9rj091",410,"141.csv","","251.29999999701977","resources/trios/L1T2A2.jpg","39","restless",0.9,0.5,0.7,0.914014781517905,"false"
"image-keyboard-response",589,442798,"0.0-4.192-1.192","x9jud5psr9rj091",410,"141.csv","","null","resources/maskTrios/BBA2.jpg","null","",NA,NA,NA,NA,""
"image-keyboard-response",590,444031,"0.0-4.192-2.192","x9jud5psr9rj091",410,"141.csv","","null","resources/images/fishbone.png","null","",NA,NA,NA,NA,""
"image-keyboard-response",591,444531,"0.0-4.193-0.193","x9jud5psr9rj091",410,"141.csv","","488.1000000089407","resources/trios/L1T2A2.jpg","38","restless",0.9,0.5,0.7,0.329061345536018,"true"
"image-keyboard-response",592,444942,"0.0-4.193-1.193","x9jud5psr9rj091",410,"141.csv","","null","resources/maskTrios/BT2B.jpg","null","",NA,NA,NA,NA,""
"image-keyboard-response",593,446155,"0.0-4.193-2.193","x9jud5psr9rj091",410,"141.csv","","null","resources/images/coin2.png","null","",NA,NA,NA,NA,""
"image-keyboard-response",594,446416,"0.0-4.194-0.194","x9jud5psr9rj091",410,"141.csv","","250.20000000298023","resources/trios/L1T2A2.jpg","38","restless",0.9,0.5,0.7,0.489831439684767,"true"
"image-keyboard-response",595,446827,"0.0-4.194-1.194","x9jud5psr9rj091",410,"141.csv","","null","resources/maskTrios/BT2B.jpg","null","",NA,NA,NA,NA,""
"image-keyboard-response",596,448040,"0.0-4.194-2.194","x9jud5psr9rj091",410,"141.csv","","null","resources/images/coin2.png","null","",NA,NA,NA,NA,""
"image-keyboard-response",597,448445,"0.0-4.195-0.195","x9jud5psr9rj091",410,"141.csv","","393.29999999701977","resources/trios/L1T2A2.jpg","38","restless",0.9,0.5,0.6,0.274787898956732,"true"
"image-keyboard-response",598,448852,"0.0-4.195-1.195","x9jud5psr9rj091",410,"141.csv","","null","resources/maskTrios/BT2B.jpg","null","",NA,NA,NA,NA,""
"image-keyboard-response",599,450075,"0.0-4.195-2.195","x9jud5psr9rj091",410,"141.csv","","null","resources/images/coin2.png","null","",NA,NA,NA,NA,""
"image-keyboard-response",600,450219,"0.0-4.196-0.196","x9jud5psr9rj091",410,"141.csv","","132.79999999701977","resources/trios/L1T2A2.jpg","38","restless",0.9,0.5,0.6,0.777101949859283,"false"
"image-keyboard-response",601,450637,"0.0-4.196-1.196","x9jud5psr9rj091",410,"141.csv","","null","resources/maskTrios/BT2B.jpg","null","",NA,NA,NA,NA,""
"image-keyboard-response",602,451847,"0.0-4.196-2.196","x9jud5psr9rj091",410,"141.csv","","null","resources/images/fishbone.png","null","",NA,NA,NA,NA,""
"image-keyboard-response",603,452407,"0.0-4.197-0.197","x9jud5psr9rj091",410,"141.csv","","549.1000000089407","resources/trios/L1T2A2.jpg","37","restless",0.9,0.5,0.5,0.280360699754051,"true"
"image-keyboard-response",604,452823,"0.0-4.197-1.197","x9jud5psr9rj091",410,"141.csv","","null","resources/maskTrios/L1BB.jpg","null","",NA,NA,NA,NA,""
"image-keyboard-response",605,454033,"0.0-4.197-2.197","x9jud5psr9rj091",410,"141.csv","","null","resources/images/coin2.png","null","",NA,NA,NA,NA,""
"image-keyboard-response",606,454416,"0.0-4.198-0.198","x9jud5psr9rj091",410,"141.csv","","371.79999999701977","resources/trios/L1T2A2.jpg","37","restless",0.9,0.4,0.5,0.694465452014807,"true"
"image-keyboard-response",607,454839,"0.0-4.198-1.198","x9jud5psr9rj091",410,"141.csv","","null","resources/maskTrios/L1BB.jpg","null","",NA,NA,NA,NA,""
"image-keyboard-response",608,456049,"0.0-4.198-2.198","x9jud5psr9rj091",410,"141.csv","","null","resources/images/coin2.png","null","",NA,NA,NA,NA,""
