"trial_type","trial_index","time_elapsed","internal_node_id","subject","participantCode","walkNumber","success","rt","stimulus","key_press","test_part","leftProb","midProb","rightProb","generatedNum","correct"
"pavlovia",0,1142,"0.0-0.0","4dsn7dqwrmxfw87",771,"46.csv","","","","","",NA,NA,NA,NA,""
"fullscreen",1,3732,"0.0-1.0","4dsn7dqwrmxfw87",771,"46.csv","true","","","","",NA,NA,NA,NA,""
"survey-html-form",2,15002,"0.0-2.0","4dsn7dqwrmxfw87",771,"46.csv","","11250","","","",NA,NA,NA,NA,""
"image-keyboard-response",3,30089,"0.0-3.0-0.0","4dsn7dqwrmxfw87",771,"46.csv","","15086","resources/images/parrot_nobg.png","13","",NA,NA,NA,NA,""
"image-keyboard-response",4,33094,"0.0-3.0-1.0","4dsn7dqwrmxfw87",771,"46.csv","","null","resources/image_sets/111.png","null","",NA,NA,NA,NA,""
"image-keyboard-response",5,38118,"0.0-3.0-2.0","4dsn7dqwrmxfw87",771,"46.csv","","5019","resources/image_sets/left_highlight.png","37","",NA,NA,NA,NA,""
"image-keyboard-response",6,42393,"0.0-3.0-3.0","4dsn7dqwrmxfw87",771,"46.csv","","4273","resources/image_sets/mid_highlight.png","38","",NA,NA,NA,NA,""
"image-keyboard-response",7,45495,"0.0-3.0-4.0","4dsn7dqwrmxfw87",771,"46.csv","","3100","resources/image_sets/right_highlight.png","39","",NA,NA,NA,NA,""
"image-keyboard-response",8,48213,"0.0-3.0-5.0","4dsn7dqwrmxfw87",771,"46.csv","","2718","resources/image_sets/111.png","13","",NA,NA,NA,NA,""
"image-keyboard-response",9,50845,"0.0-3.0-6.0","4dsn7dqwrmxfw87",771,"46.csv","","2632","resources/images/coin2.png","13","",NA,NA,NA,NA,""
"image-keyboard-response",10,52209,"0.0-3.0-7.0","4dsn7dqwrmxfw87",771,"46.csv","","1364","resources/images/fishbone.png","13","",NA,NA,NA,NA,""
"html-keyboard-response",11,54559,"0.0-3.0-8.0","4dsn7dqwrmxfw87",771,"46.csv","","2348","<p>You can track your coin total on the top right of your screen. </p><p>At the end of your journey you will be directed to a survey, so please click on the link before exiting the task</p><p>Press Enter to begin</p>","13","",NA,NA,NA,NA,""
"image-keyboard-response",12,55904,"0.0-4.0-0.0","4dsn7dqwrmxfw87",771,"46.csv","","1345","resources/trios/L1T2A3.jpg","38","restless",0.3,0.9,0.7,0.836689471336091,"true"
"image-keyboard-response",13,56318,"0.0-4.0-1.0","4dsn7dqwrmxfw87",771,"46.csv","","null","resources/maskTrios/BT2B.jpg","null","",NA,NA,NA,NA,""
"image-keyboard-response",14,57532,"0.0-4.0-2.0","4dsn7dqwrmxfw87",771,"46.csv","","null","resources/images/coin2.png","null","",NA,NA,NA,NA,""
"image-keyboard-response",15,59799,"0.0-4.1-0.1","4dsn7dqwrmxfw87",771,"46.csv","","2264","resources/trios/L1T2A3.jpg","39","restless",0.3,0.9,0.7,0.783300860500857,"false"
"image-keyboard-response",16,60204,"0.0-4.1-1.1","4dsn7dqwrmxfw87",771,"46.csv","","null","resources/maskTrios/BBA3.jpg","null","",NA,NA,NA,NA,""
"image-keyboard-response",17,61416,"0.0-4.1-2.1","4dsn7dqwrmxfw87",771,"46.csv","","null","resources/images/fishbone.png","null","",NA,NA,NA,NA,""
"image-keyboard-response",18,62164,"0.0-4.2-0.2","4dsn7dqwrmxfw87",771,"46.csv","","746","resources/trios/L1T2A3.jpg","37","restless",0.3,0.9,0.7,0.484250335261576,"false"
"image-keyboard-response",19,62576,"0.0-4.2-1.2","4dsn7dqwrmxfw87",771,"46.csv","","null","resources/maskTrios/L1BB.jpg","null","",NA,NA,NA,NA,""
"image-keyboard-response",20,63785,"0.0-4.2-2.2","4dsn7dqwrmxfw87",771,"46.csv","","null","resources/images/fishbone.png","null","",NA,NA,NA,NA,""
"image-keyboard-response",21,64141,"0.0-4.3-0.3","4dsn7dqwrmxfw87",771,"46.csv","","353","resources/trios/L1T2A3.jpg","38","restless",0.3,0.9,0.7,0.589054938647467,"true"
"image-keyboard-response",22,64545,"0.0-4.3-1.3","4dsn7dqwrmxfw87",771,"46.csv","","null","resources/maskTrios/BT2B.jpg","null","",NA,NA,NA,NA,""
"image-keyboard-response",23,65757,"0.0-4.3-2.3","4dsn7dqwrmxfw87",771,"46.csv","","null","resources/images/coin2.png","null","",NA,NA,NA,NA,""
"image-keyboard-response",24,66483,"0.0-4.4-0.4","4dsn7dqwrmxfw87",771,"46.csv","","724","resources/trios/L1T2A3.jpg","38","restless",0.3,0.9,0.7,0.128147070887529,"true"
"image-keyboard-response",25,66891,"0.0-4.4-1.4","4dsn7dqwrmxfw87",771,"46.csv","","null","resources/maskTrios/BT2B.jpg","null","",NA,NA,NA,NA,""
"image-keyboard-response",26,68200,"0.0-4.4-2.4","4dsn7dqwrmxfw87",771,"46.csv","","null","resources/images/coin2.png","null","",NA,NA,NA,NA,""
"image-keyboard-response",27,68622,"0.0-4.5-0.5","4dsn7dqwrmxfw87",771,"46.csv","","422","resources/trios/L1T2A3.jpg","38","restless",0.3,0.9,0.7,0.154008009425104,"true"
"image-keyboard-response",28,69039,"0.0-4.5-1.5","4dsn7dqwrmxfw87",771,"46.csv","","null","resources/maskTrios/BT2B.jpg","null","",NA,NA,NA,NA,""
"image-keyboard-response",29,70255,"0.0-4.5-2.5","4dsn7dqwrmxfw87",771,"46.csv","","null","resources/images/coin2.png","null","",NA,NA,NA,NA,""
"image-keyboard-response",30,70874,"0.0-4.6-0.6","4dsn7dqwrmxfw87",771,"46.csv","","617","resources/trios/L1T2A3.jpg","38","restless",0.3,0.9,0.7,0.135111028300444,"true"
"image-keyboard-response",31,71286,"0.0-4.6-1.6","4dsn7dqwrmxfw87",771,"46.csv","","null","resources/maskTrios/BT2B.jpg","null","",NA,NA,NA,NA,""
"image-keyboard-response",32,72494,"0.0-4.6-2.6","4dsn7dqwrmxfw87",771,"46.csv","","null","resources/images/coin2.png","null","",NA,NA,NA,NA,""
"image-keyboard-response",33,73005,"0.0-4.7-0.7","4dsn7dqwrmxfw87",771,"46.csv","","508","resources/trios/L1T2A3.jpg","38","restless",0.4,0.9,0.8,0.128645470676572,"true"
"image-keyboard-response",34,73410,"0.0-4.7-1.7","4dsn7dqwrmxfw87",771,"46.csv","","null","resources/maskTrios/BT2B.jpg","null","",NA,NA,NA,NA,""
"image-keyboard-response",35,74619,"0.0-4.7-2.7","4dsn7dqwrmxfw87",771,"46.csv","","null","resources/images/coin2.png","null","",NA,NA,NA,NA,""
"image-keyboard-response",36,75026,"0.0-4.8-0.8","4dsn7dqwrmxfw87",771,"46.csv","","404","resources/trios/L1T2A3.jpg","38","restless",0.4,0.8,0.8,0.650179962681182,"true"
"image-keyboard-response",37,75441,"0.0-4.8-1.8","4dsn7dqwrmxfw87",771,"46.csv","","null","resources/maskTrios/BT2B.jpg","null","",NA,NA,NA,NA,""
"image-keyboard-response",38,76651,"0.0-4.8-2.8","4dsn7dqwrmxfw87",771,"46.csv","","null","resources/images/coin2.png","null","",NA,NA,NA,NA,""
"image-keyboard-response",39,76861,"0.0-4.9-0.9","4dsn7dqwrmxfw87",771,"46.csv","","209","resources/trios/L1T2A3.jpg","38","restless",0.4,0.8,0.8,0.233465172715256,"true"
"image-keyboard-response",40,77273,"0.0-4.9-1.9","4dsn7dqwrmxfw87",771,"46.csv","","null","resources/maskTrios/BT2B.jpg","null","",NA,NA,NA,NA,""
"image-keyboard-response",41,78486,"0.0-4.9-2.9","4dsn7dqwrmxfw87",771,"46.csv","","null","resources/images/coin2.png","null","",NA,NA,NA,NA,""
"image-keyboard-response",42,78772,"0.0-4.10-0.10","4dsn7dqwrmxfw87",771,"46.csv","","283","resources/trios/L1T2A3.jpg","38","restless",0.5,0.8,0.8,0.0668045039615172,"true"
"image-keyboard-response",43,79187,"0.0-4.10-1.10","4dsn7dqwrmxfw87",771,"46.csv","","null","resources/maskTrios/BT2B.jpg","null","",NA,NA,NA,NA,""
"image-keyboard-response",44,80402,"0.0-4.10-2.10","4dsn7dqwrmxfw87",771,"46.csv","","null","resources/images/coin2.png","null","",NA,NA,NA,NA,""
"image-keyboard-response",45,80552,"0.0-4.11-0.11","4dsn7dqwrmxfw87",771,"46.csv","","147","resources/trios/L1T2A3.jpg","38","restless",0.5,0.8,0.8,0.958797019422838,"false"
"image-keyboard-response",46,80963,"0.0-4.11-1.11","4dsn7dqwrmxfw87",771,"46.csv","","null","resources/maskTrios/BT2B.jpg","null","",NA,NA,NA,NA,""
"image-keyboard-response",47,82178,"0.0-4.11-2.11","4dsn7dqwrmxfw87",771,"46.csv","","null","resources/images/fishbone.png","null","",NA,NA,NA,NA,""
"image-keyboard-response",48,82663,"0.0-4.12-0.12","4dsn7dqwrmxfw87",771,"46.csv","","482","resources/trios/L1T2A3.jpg","39","restless",0.5,0.8,0.8,0.245002738807821,"true"
"image-keyboard-response",49,83077,"0.0-4.12-1.12","4dsn7dqwrmxfw87",771,"46.csv","","null","resources/maskTrios/BBA3.jpg","null","",NA,NA,NA,NA,""
"image-keyboard-response",50,84288,"0.0-4.12-2.12","4dsn7dqwrmxfw87",771,"46.csv","","null","resources/images/coin2.png","null","",NA,NA,NA,NA,""
"image-keyboard-response",51,84431,"0.0-4.13-0.13","4dsn7dqwrmxfw87",771,"46.csv","","142","resources/trios/L1T2A3.jpg","39","restless",0.5,0.8,0.8,0.397188354449609,"true"
"image-keyboard-response",52,84834,"0.0-4.13-1.13","4dsn7dqwrmxfw87",771,"46.csv","","null","resources/maskTrios/BBA3.jpg","null","",NA,NA,NA,NA,""
"image-keyboard-response",53,86045,"0.0-4.13-2.13","4dsn7dqwrmxfw87",771,"46.csv","","null","resources/images/coin2.png","null","",NA,NA,NA,NA,""
"image-keyboard-response",54,86109,"0.0-4.14-0.14","4dsn7dqwrmxfw87",771,"46.csv","","61","resources/trios/L1T2A3.jpg","39","restless",0.5,0.8,0.9,0.96789032732997,"false"
"image-keyboard-response",55,86514,"0.0-4.14-1.14","4dsn7dqwrmxfw87",771,"46.csv","","null","resources/maskTrios/BBA3.jpg","null","",NA,NA,NA,NA,""
"image-keyboard-response",56,87723,"0.0-4.14-2.14","4dsn7dqwrmxfw87",771,"46.csv","","null","resources/images/fishbone.png","null","",NA,NA,NA,NA,""
"image-keyboard-response",57,87961,"0.0-4.15-0.15","4dsn7dqwrmxfw87",771,"46.csv","","236","resources/trios/L1T2A3.jpg","37","restless",0.5,0.8,0.9,0.949550984338226,"false"
"image-keyboard-response",58,88375,"0.0-4.15-1.15","4dsn7dqwrmxfw87",771,"46.csv","","null","resources/maskTrios/L1BB.jpg","null","",NA,NA,NA,NA,""
"image-keyboard-response",59,89589,"0.0-4.15-2.15","4dsn7dqwrmxfw87",771,"46.csv","","null","resources/images/fishbone.png","null","",NA,NA,NA,NA,""
"image-keyboard-response",60,89620,"0.0-4.16-0.16","4dsn7dqwrmxfw87",771,"46.csv","","29","resources/trios/L1T2A3.jpg","38","restless",0.5,0.8,0.8,0.446172630327653,"true"
"image-keyboard-response",61,90023,"0.0-4.16-1.16","4dsn7dqwrmxfw87",771,"46.csv","","null","resources/maskTrios/BT2B.jpg","null","",NA,NA,NA,NA,""
"image-keyboard-response",62,91233,"0.0-4.16-2.16","4dsn7dqwrmxfw87",771,"46.csv","","null","resources/images/coin2.png","null","",NA,NA,NA,NA,""
"image-keyboard-response",63,91641,"0.0-4.17-0.17","4dsn7dqwrmxfw87",771,"46.csv","","406","resources/trios/L1T2A3.jpg","38","restless",0.4,0.8,0.8,0.124127311183391,"true"
"image-keyboard-response",64,92055,"0.0-4.17-1.17","4dsn7dqwrmxfw87",771,"46.csv","","null","resources/maskTrios/BT2B.jpg","null","",NA,NA,NA,NA,""
"image-keyboard-response",65,93266,"0.0-4.17-2.17","4dsn7dqwrmxfw87",771,"46.csv","","null","resources/images/coin2.png","null","",NA,NA,NA,NA,""
"image-keyboard-response",66,93489,"0.0-4.18-0.18","4dsn7dqwrmxfw87",771,"46.csv","","222","resources/trios/L1T2A3.jpg","38","restless",0.4,0.8,0.8,0.584399465600032,"true"
"image-keyboard-response",67,93902,"0.0-4.18-1.18","4dsn7dqwrmxfw87",771,"46.csv","","null","resources/maskTrios/BT2B.jpg","null","",NA,NA,NA,NA,""
"image-keyboard-response",68,95111,"0.0-4.18-2.18","4dsn7dqwrmxfw87",771,"46.csv","","null","resources/images/coin2.png","null","",NA,NA,NA,NA,""
"image-keyboard-response",69,95248,"0.0-4.19-0.19","4dsn7dqwrmxfw87",771,"46.csv","","135","resources/trios/L1T2A3.jpg","38","restless",0.4,0.8,0.8,0.873359823129693,"false"
"image-keyboard-response",70,95654,"0.0-4.19-1.19","4dsn7dqwrmxfw87",771,"46.csv","","null","resources/maskTrios/BT2B.jpg","null","",NA,NA,NA,NA,""
"image-keyboard-response",71,96864,"0.0-4.19-2.19","4dsn7dqwrmxfw87",771,"46.csv","","null","resources/images/fishbone.png","null","",NA,NA,NA,NA,""
"image-keyboard-response",72,97061,"0.0-4.20-0.20","4dsn7dqwrmxfw87",771,"46.csv","","194","resources/trios/L1T2A3.jpg","37","restless",0.4,0.7,0.8,0.0970677371120523,"true"
"image-keyboard-response",73,97470,"0.0-4.20-1.20","4dsn7dqwrmxfw87",771,"46.csv","","null","resources/maskTrios/L1BB.jpg","null","",NA,NA,NA,NA,""
"image-keyboard-response",74,98681,"0.0-4.20-2.20","4dsn7dqwrmxfw87",771,"46.csv","","null","resources/images/coin2.png","null","",NA,NA,NA,NA,""
"image-keyboard-response",75,98819,"0.0-4.21-0.21","4dsn7dqwrmxfw87",771,"46.csv","","136","resources/trios/L1T2A3.jpg","37","restless",0.4,0.7,0.8,0.432695560623629,"false"
"image-keyboard-response",76,99228,"0.0-4.21-1.21","4dsn7dqwrmxfw87",771,"46.csv","","null","resources/maskTrios/L1BB.jpg","null","",NA,NA,NA,NA,""
"image-keyboard-response",77,100435,"0.0-4.21-2.21","4dsn7dqwrmxfw87",771,"46.csv","","null","resources/images/fishbone.png","null","",NA,NA,NA,NA,""
"image-keyboard-response",78,100770,"0.0-4.22-0.22","4dsn7dqwrmxfw87",771,"46.csv","","333","resources/trios/L1T2A3.jpg","39","restless",0.4,0.7,0.8,0.679271266569237,"true"
"image-keyboard-response",79,101181,"0.0-4.22-1.22","4dsn7dqwrmxfw87",771,"46.csv","","null","resources/maskTrios/BBA3.jpg","null","",NA,NA,NA,NA,""
"image-keyboard-response",80,102390,"0.0-4.22-2.22","4dsn7dqwrmxfw87",771,"46.csv","","null","resources/images/coin2.png","null","",NA,NA,NA,NA,""
"image-keyboard-response",81,102521,"0.0-4.23-0.23","4dsn7dqwrmxfw87",771,"46.csv","","130","resources/trios/L1T2A3.jpg","39","restless",0.4,0.7,0.8,0.0225735788080019,"true"
"image-keyboard-response",82,102935,"0.0-4.23-1.23","4dsn7dqwrmxfw87",771,"46.csv","","null","resources/maskTrios/BBA3.jpg","null","",NA,NA,NA,NA,""
"image-keyboard-response",83,104149,"0.0-4.23-2.23","4dsn7dqwrmxfw87",771,"46.csv","","null","resources/images/coin2.png","null","",NA,NA,NA,NA,""
"image-keyboard-response",84,104314,"0.0-4.24-0.24","4dsn7dqwrmxfw87",771,"46.csv","","164","resources/trios/L1T2A3.jpg","39","restless",0.4,0.7,0.9,0.0863600157987128,"true"
"image-keyboard-response",85,104723,"0.0-4.24-1.24","4dsn7dqwrmxfw87",771,"46.csv","","null","resources/maskTrios/BBA3.jpg","null","",NA,NA,NA,NA,""
"image-keyboard-response",86,105932,"0.0-4.24-2.24","4dsn7dqwrmxfw87",771,"46.csv","","null","resources/images/coin2.png","null","",NA,NA,NA,NA,""
"image-keyboard-response",87,106089,"0.0-4.25-0.25","4dsn7dqwrmxfw87",771,"46.csv","","156","resources/trios/L1T2A3.jpg","39","restless",0.4,0.6,0.9,0.163233979168418,"true"
"image-keyboard-response",88,106492,"0.0-4.25-1.25","4dsn7dqwrmxfw87",771,"46.csv","","null","resources/maskTrios/BBA3.jpg","null","",NA,NA,NA,NA,""
"image-keyboard-response",89,107701,"0.0-4.25-2.25","4dsn7dqwrmxfw87",771,"46.csv","","null","resources/images/coin2.png","null","",NA,NA,NA,NA,""
"image-keyboard-response",90,108268,"0.0-4.26-0.26","4dsn7dqwrmxfw87",771,"46.csv","","566","resources/trios/L1T2A3.jpg","39","restless",0.4,0.6,0.9,0.474781523298509,"true"
"image-keyboard-response",91,108696,"0.0-4.26-1.26","4dsn7dqwrmxfw87",771,"46.csv","","null","resources/maskTrios/BBA3.jpg","null","",NA,NA,NA,NA,""
"image-keyboard-response",92,109910,"0.0-4.26-2.26","4dsn7dqwrmxfw87",771,"46.csv","","null","resources/images/coin2.png","null","",NA,NA,NA,NA,""
"image-keyboard-response",93,110271,"0.0-4.27-0.27","4dsn7dqwrmxfw87",771,"46.csv","","360","resources/trios/L1T2A3.jpg","39","restless",0.4,0.6,0.9,0.68591205862246,"true"
"image-keyboard-response",94,110700,"0.0-4.27-1.27","4dsn7dqwrmxfw87",771,"46.csv","","null","resources/maskTrios/BBA3.jpg","null","",NA,NA,NA,NA,""
"image-keyboard-response",95,111910,"0.0-4.27-2.27","4dsn7dqwrmxfw87",771,"46.csv","","null","resources/images/coin2.png","null","",NA,NA,NA,NA,""
"image-keyboard-response",96,112276,"0.0-4.28-0.28","4dsn7dqwrmxfw87",771,"46.csv","","363","resources/trios/L1T2A3.jpg","39","restless",0.4,0.6,0.9,0.029922106863034,"true"
"image-keyboard-response",97,112733,"0.0-4.28-1.28","4dsn7dqwrmxfw87",771,"46.csv","","null","resources/maskTrios/BBA3.jpg","null","",NA,NA,NA,NA,""
"image-keyboard-response",98,113943,"0.0-4.28-2.28","4dsn7dqwrmxfw87",771,"46.csv","","null","resources/images/coin2.png","null","",NA,NA,NA,NA,""
"image-keyboard-response",99,114037,"0.0-4.29-0.29","4dsn7dqwrmxfw87",771,"46.csv","","92","resources/trios/L1T2A3.jpg","39","restless",0.4,0.6,0.9,0.367261505612867,"true"
"image-keyboard-response",100,114439,"0.0-4.29-1.29","4dsn7dqwrmxfw87",771,"46.csv","","null","resources/maskTrios/BBA3.jpg","null","",NA,NA,NA,NA,""
"image-keyboard-response",101,115647,"0.0-4.29-2.29","4dsn7dqwrmxfw87",771,"46.csv","","null","resources/images/coin2.png","null","",NA,NA,NA,NA,""
"image-keyboard-response",102,115719,"0.0-4.30-0.30","4dsn7dqwrmxfw87",771,"46.csv","","69","resources/trios/L1T2A3.jpg","39","restless",0.4,0.6,0.9,0.902207221264732,"false"
"image-keyboard-response",103,116129,"0.0-4.30-1.30","4dsn7dqwrmxfw87",771,"46.csv","","null","resources/maskTrios/BBA3.jpg","null","",NA,NA,NA,NA,""
"image-keyboard-response",104,117340,"0.0-4.30-2.30","4dsn7dqwrmxfw87",771,"46.csv","","null","resources/images/fishbone.png","null","",NA,NA,NA,NA,""
"image-keyboard-response",105,117663,"0.0-4.31-0.31","4dsn7dqwrmxfw87",771,"46.csv","","320","resources/trios/L1T2A3.jpg","38","restless",0.4,0.6,0.9,0.660657075523155,"false"
"image-keyboard-response",106,118070,"0.0-4.31-1.31","4dsn7dqwrmxfw87",771,"46.csv","","null","resources/maskTrios/BT2B.jpg","null","",NA,NA,NA,NA,""
"image-keyboard-response",107,119280,"0.0-4.31-2.31","4dsn7dqwrmxfw87",771,"46.csv","","null","resources/images/fishbone.png","null","",NA,NA,NA,NA,""
"image-keyboard-response",108,120284,"0.0-4.32-0.32","4dsn7dqwrmxfw87",771,"46.csv","","1003","resources/trios/L1T2A3.jpg","39","restless",0.4,0.6,0.9,0.546007639102163,"true"
"image-keyboard-response",109,120697,"0.0-4.32-1.32","4dsn7dqwrmxfw87",771,"46.csv","","null","resources/maskTrios/BBA3.jpg","null","",NA,NA,NA,NA,""
"image-keyboard-response",110,121909,"0.0-4.32-2.32","4dsn7dqwrmxfw87",771,"46.csv","","null","resources/images/coin2.png","null","",NA,NA,NA,NA,""
"image-keyboard-response",111,122125,"0.0-4.33-0.33","4dsn7dqwrmxfw87",771,"46.csv","","216","resources/trios/L1T2A3.jpg","39","restless",0.4,0.6,0.9,0.966377944727059,"false"
"image-keyboard-response",112,122533,"0.0-4.33-1.33","4dsn7dqwrmxfw87",771,"46.csv","","null","resources/maskTrios/BBA3.jpg","null","",NA,NA,NA,NA,""
"image-keyboard-response",113,123739,"0.0-4.33-2.33","4dsn7dqwrmxfw87",771,"46.csv","","null","resources/images/fishbone.png","null","",NA,NA,NA,NA,""
"image-keyboard-response",114,123821,"0.0-4.34-0.34","4dsn7dqwrmxfw87",771,"46.csv","","79","resources/trios/L1T2A3.jpg","37","restless",0.4,0.5,0.9,0.94404400689639,"false"
"image-keyboard-response",115,124223,"0.0-4.34-1.34","4dsn7dqwrmxfw87",771,"46.csv","","null","resources/maskTrios/L1BB.jpg","null","",NA,NA,NA,NA,""
"image-keyboard-response",116,125435,"0.0-4.34-2.34","4dsn7dqwrmxfw87",771,"46.csv","","null","resources/images/fishbone.png","null","",NA,NA,NA,NA,""
"image-keyboard-response",117,125661,"0.0-4.35-0.35","4dsn7dqwrmxfw87",771,"46.csv","","226","resources/trios/L1T2A3.jpg","39","restless",0.4,0.5,0.9,0.570750766446627,"true"
"image-keyboard-response",118,126071,"0.0-4.35-1.35","4dsn7dqwrmxfw87",771,"46.csv","","null","resources/maskTrios/BBA3.jpg","null","",NA,NA,NA,NA,""
"image-keyboard-response",119,127285,"0.0-4.35-2.35","4dsn7dqwrmxfw87",771,"46.csv","","null","resources/images/coin2.png","null","",NA,NA,NA,NA,""
"image-keyboard-response",120,127550,"0.0-4.36-0.36","4dsn7dqwrmxfw87",771,"46.csv","","264","resources/trios/L1T2A3.jpg","38","restless",0.4,0.5,0.9,0.763542564673648,"false"
"image-keyboard-response",121,127953,"0.0-4.36-1.36","4dsn7dqwrmxfw87",771,"46.csv","","null","resources/maskTrios/BT2B.jpg","null","",NA,NA,NA,NA,""
"image-keyboard-response",122,129233,"0.0-4.36-2.36","4dsn7dqwrmxfw87",771,"46.csv","","null","resources/images/fishbone.png","null","",NA,NA,NA,NA,""
"image-keyboard-response",123,129662,"0.0-4.37-0.37","4dsn7dqwrmxfw87",771,"46.csv","","427","resources/trios/L1T2A3.jpg","37","restless",0.4,0.5,0.9,0.261016215067873,"true"
"image-keyboard-response",124,130072,"0.0-4.37-1.37","4dsn7dqwrmxfw87",771,"46.csv","","null","resources/maskTrios/L1BB.jpg","null","",NA,NA,NA,NA,""
"image-keyboard-response",125,131286,"0.0-4.37-2.37","4dsn7dqwrmxfw87",771,"46.csv","","null","resources/images/coin2.png","null","",NA,NA,NA,NA,""
"image-keyboard-response",126,131442,"0.0-4.38-0.38","4dsn7dqwrmxfw87",771,"46.csv","","154","resources/trios/L1T2A3.jpg","37","restless",0.4,0.5,0.9,0.939863837356276,"false"
"image-keyboard-response",127,131845,"0.0-4.38-1.38","4dsn7dqwrmxfw87",771,"46.csv","","null","resources/maskTrios/L1BB.jpg","null","",NA,NA,NA,NA,""
"image-keyboard-response",128,133055,"0.0-4.38-2.38","4dsn7dqwrmxfw87",771,"46.csv","","null","resources/images/fishbone.png","null","",NA,NA,NA,NA,""
"image-keyboard-response",129,133379,"0.0-4.39-0.39","4dsn7dqwrmxfw87",771,"46.csv","","322","resources/trios/L1T2A3.jpg","39","restless",0.4,0.5,0.8,0.401090919338177,"true"
"image-keyboard-response",130,133783,"0.0-4.39-1.39","4dsn7dqwrmxfw87",771,"46.csv","","null","resources/maskTrios/BBA3.jpg","null","",NA,NA,NA,NA,""
"image-keyboard-response",131,134995,"0.0-4.39-2.39","4dsn7dqwrmxfw87",771,"46.csv","","null","resources/images/coin2.png","null","",NA,NA,NA,NA,""
"image-keyboard-response",132,135269,"0.0-4.40-0.40","4dsn7dqwrmxfw87",771,"46.csv","","272","resources/trios/L1T2A3.jpg","37","restless",0.4,0.5,0.8,0.169065757971971,"true"
"image-keyboard-response",133,135678,"0.0-4.40-1.40","4dsn7dqwrmxfw87",771,"46.csv","","null","resources/maskTrios/L1BB.jpg","null","",NA,NA,NA,NA,""
"image-keyboard-response",134,136888,"0.0-4.40-2.40","4dsn7dqwrmxfw87",771,"46.csv","","null","resources/images/coin2.png","null","",NA,NA,NA,NA,""
"image-keyboard-response",135,137065,"0.0-4.41-0.41","4dsn7dqwrmxfw87",771,"46.csv","","175","resources/trios/L1T2A3.jpg","39","restless",0.4,0.5,0.7,0.842925844720858,"false"
"image-keyboard-response",136,137481,"0.0-4.41-1.41","4dsn7dqwrmxfw87",771,"46.csv","","null","resources/maskTrios/BBA3.jpg","null","",NA,NA,NA,NA,""
"image-keyboard-response",137,138694,"0.0-4.41-2.41","4dsn7dqwrmxfw87",771,"46.csv","","null","resources/images/fishbone.png","null","",NA,NA,NA,NA,""
"image-keyboard-response",138,138923,"0.0-4.42-0.42","4dsn7dqwrmxfw87",771,"46.csv","","227","resources/trios/L1T2A3.jpg","38","restless",0.4,0.5,0.7,0.476882566697502,"true"
"image-keyboard-response",139,139330,"0.0-4.42-1.42","4dsn7dqwrmxfw87",771,"46.csv","","null","resources/maskTrios/BT2B.jpg","null","",NA,NA,NA,NA,""
"image-keyboard-response",140,140544,"0.0-4.42-2.42","4dsn7dqwrmxfw87",771,"46.csv","","null","resources/images/coin2.png","null","",NA,NA,NA,NA,""
"image-keyboard-response",141,140797,"0.0-4.43-0.43","4dsn7dqwrmxfw87",771,"46.csv","","252","resources/trios/L1T2A3.jpg","38","restless",0.4,0.5,0.7,0.0377793188829858,"true"
"image-keyboard-response",142,141199,"0.0-4.43-1.43","4dsn7dqwrmxfw87",771,"46.csv","","null","resources/maskTrios/BT2B.jpg","null","",NA,NA,NA,NA,""
"image-keyboard-response",143,142403,"0.0-4.43-2.43","4dsn7dqwrmxfw87",771,"46.csv","","null","resources/images/coin2.png","null","",NA,NA,NA,NA,""
"image-keyboard-response",144,142697,"0.0-4.44-0.44","4dsn7dqwrmxfw87",771,"46.csv","","292","resources/trios/L1T2A3.jpg","38","restless",0.4,0.4,0.7,0.862191072820653,"false"
"image-keyboard-response",145,143104,"0.0-4.44-1.44","4dsn7dqwrmxfw87",771,"46.csv","","null","resources/maskTrios/BT2B.jpg","null","",NA,NA,NA,NA,""
"image-keyboard-response",146,144333,"0.0-4.44-2.44","4dsn7dqwrmxfw87",771,"46.csv","","null","resources/images/fishbone.png","null","",NA,NA,NA,NA,""
"image-keyboard-response",147,144556,"0.0-4.45-0.45","4dsn7dqwrmxfw87",771,"46.csv","","221","resources/trios/L1T2A3.jpg","37","restless",0.4,0.4,0.7,0.967408076368661,"false"
"image-keyboard-response",148,144972,"0.0-4.45-1.45","4dsn7dqwrmxfw87",771,"46.csv","","null","resources/maskTrios/L1BB.jpg","null","",NA,NA,NA,NA,""
"image-keyboard-response",149,146174,"0.0-4.45-2.45","4dsn7dqwrmxfw87",771,"46.csv","","null","resources/images/fishbone.png","null","",NA,NA,NA,NA,""
"image-keyboard-response",150,146399,"0.0-4.46-0.46","4dsn7dqwrmxfw87",771,"46.csv","","224","resources/trios/L1T2A3.jpg","37","restless",0.4,0.4,0.7,0.573435080617103,"false"
"image-keyboard-response",151,146810,"0.0-4.46-1.46","4dsn7dqwrmxfw87",771,"46.csv","","null","resources/maskTrios/L1BB.jpg","null","",NA,NA,NA,NA,""
"image-keyboard-response",152,148021,"0.0-4.46-2.46","4dsn7dqwrmxfw87",771,"46.csv","","null","resources/images/fishbone.png","null","",NA,NA,NA,NA,""
"image-keyboard-response",153,148048,"0.0-4.47-0.47","4dsn7dqwrmxfw87",771,"46.csv","","27","resources/trios/L1T2A3.jpg","39","restless",0.4,0.4,0.7,0.389007714097865,"true"
"image-keyboard-response",154,148458,"0.0-4.47-1.47","4dsn7dqwrmxfw87",771,"46.csv","","null","resources/maskTrios/BBA3.jpg","null","",NA,NA,NA,NA,""
"image-keyboard-response",155,149672,"0.0-4.47-2.47","4dsn7dqwrmxfw87",771,"46.csv","","null","resources/images/coin2.png","null","",NA,NA,NA,NA,""
"image-keyboard-response",156,149761,"0.0-4.48-0.48","4dsn7dqwrmxfw87",771,"46.csv","","88","resources/trios/L1T2A3.jpg","38","restless",0.5,0.4,0.7,0.0981045487697113,"true"
"image-keyboard-response",157,150216,"0.0-4.48-1.48","4dsn7dqwrmxfw87",771,"46.csv","","null","resources/maskTrios/BT2B.jpg","null","",NA,NA,NA,NA,""
"image-keyboard-response",158,151427,"0.0-4.48-2.48","4dsn7dqwrmxfw87",771,"46.csv","","null","resources/images/coin2.png","null","",NA,NA,NA,NA,""
"image-keyboard-response",159,151504,"0.0-4.49-0.49","4dsn7dqwrmxfw87",771,"46.csv","","75","resources/trios/L1T2A3.jpg","39","restless",0.5,0.4,0.7,0.740023039015675,"false"
"image-keyboard-response",160,151905,"0.0-4.49-1.49","4dsn7dqwrmxfw87",771,"46.csv","","null","resources/maskTrios/BBA3.jpg","null","",NA,NA,NA,NA,""
"image-keyboard-response",161,153119,"0.0-4.49-2.49","4dsn7dqwrmxfw87",771,"46.csv","","null","resources/images/fishbone.png","null","",NA,NA,NA,NA,""
"image-keyboard-response",162,153172,"0.0-4.50-0.50","4dsn7dqwrmxfw87",771,"46.csv","","52","resources/trios/L1T2A3.jpg","37","restless",0.5,0.4,0.7,0.527767766664133,"false"
"image-keyboard-response",163,153584,"0.0-4.50-1.50","4dsn7dqwrmxfw87",771,"46.csv","","null","resources/maskTrios/L1BB.jpg","null","",NA,NA,NA,NA,""
"image-keyboard-response",164,154799,"0.0-4.50-2.50","4dsn7dqwrmxfw87",771,"46.csv","","null","resources/images/fishbone.png","null","",NA,NA,NA,NA,""
"image-keyboard-response",165,155005,"0.0-4.51-0.51","4dsn7dqwrmxfw87",771,"46.csv","","203","resources/trios/L1T2A3.jpg","38","restless",0.5,0.4,0.6,0.122448421146376,"true"
"image-keyboard-response",166,155407,"0.0-4.51-1.51","4dsn7dqwrmxfw87",771,"46.csv","","null","resources/maskTrios/BT2B.jpg","null","",NA,NA,NA,NA,""
"image-keyboard-response",167,156616,"0.0-4.51-2.51","4dsn7dqwrmxfw87",771,"46.csv","","null","resources/images/coin2.png","null","",NA,NA,NA,NA,""
"image-keyboard-response",168,156775,"0.0-4.52-0.52","4dsn7dqwrmxfw87",771,"46.csv","","157","resources/trios/L1T2A3.jpg","38","restless",0.5,0.4,0.6,0.400262019667839,"false"
"image-keyboard-response",169,157189,"0.0-4.52-1.52","4dsn7dqwrmxfw87",771,"46.csv","","null","resources/maskTrios/BT2B.jpg","null","",NA,NA,NA,NA,""
"image-keyboard-response",170,158400,"0.0-4.52-2.52","4dsn7dqwrmxfw87",771,"46.csv","","null","resources/images/fishbone.png","null","",NA,NA,NA,NA,""
"image-keyboard-response",171,158459,"0.0-4.53-0.53","4dsn7dqwrmxfw87",771,"46.csv","","57","resources/trios/L1T2A3.jpg","39","restless",0.5,0.4,0.6,0.390581217069692,"true"
"image-keyboard-response",172,158865,"0.0-4.53-1.53","4dsn7dqwrmxfw87",771,"46.csv","","null","resources/maskTrios/BBA3.jpg","null","",NA,NA,NA,NA,""
"image-keyboard-response",173,160068,"0.0-4.53-2.53","4dsn7dqwrmxfw87",771,"46.csv","","null","resources/images/coin2.png","null","",NA,NA,NA,NA,""
"image-keyboard-response",174,160350,"0.0-4.54-0.54","4dsn7dqwrmxfw87",771,"46.csv","","281","resources/trios/L1T2A3.jpg","37","restless",0.5,0.4,0.6,0.604678084014518,"false"
"image-keyboard-response",175,160764,"0.0-4.54-1.54","4dsn7dqwrmxfw87",771,"46.csv","","null","resources/maskTrios/L1BB.jpg","null","",NA,NA,NA,NA,""
"image-keyboard-response",176,161973,"0.0-4.54-2.54","4dsn7dqwrmxfw87",771,"46.csv","","null","resources/images/fishbone.png","null","",NA,NA,NA,NA,""
"image-keyboard-response",177,161991,"0.0-4.55-0.55","4dsn7dqwrmxfw87",771,"46.csv","","15","resources/trios/L1T2A3.jpg","38","restless",0.5,0.4,0.6,0.968560301305192,"false"
"image-keyboard-response",178,162437,"0.0-4.55-1.55","4dsn7dqwrmxfw87",771,"46.csv","","null","resources/maskTrios/BT2B.jpg","null","",NA,NA,NA,NA,""
"image-keyboard-response",179,163649,"0.0-4.55-2.55","4dsn7dqwrmxfw87",771,"46.csv","","null","resources/images/fishbone.png","null","",NA,NA,NA,NA,""
"image-keyboard-response",180,163888,"0.0-4.56-0.56","4dsn7dqwrmxfw87",771,"46.csv","","236","resources/trios/L1T2A3.jpg","39","restless",0.5,0.4,0.6,0.025035961105327,"true"
"image-keyboard-response",181,164305,"0.0-4.56-1.56","4dsn7dqwrmxfw87",771,"46.csv","","null","resources/maskTrios/BBA3.jpg","null","",NA,NA,NA,NA,""
"image-keyboard-response",182,165521,"0.0-4.56-2.56","4dsn7dqwrmxfw87",771,"46.csv","","null","resources/images/coin2.png","null","",NA,NA,NA,NA,""
"image-keyboard-response",183,165713,"0.0-4.57-0.57","4dsn7dqwrmxfw87",771,"46.csv","","192","resources/trios/L1T2A3.jpg","39","restless",0.5,0.4,0.7,0.265551934361201,"true"
"image-keyboard-response",184,166125,"0.0-4.57-1.57","4dsn7dqwrmxfw87",771,"46.csv","","null","resources/maskTrios/BBA3.jpg","null","",NA,NA,NA,NA,""
"image-keyboard-response",185,167336,"0.0-4.57-2.57","4dsn7dqwrmxfw87",771,"46.csv","","null","resources/images/coin2.png","null","",NA,NA,NA,NA,""
"image-keyboard-response",186,167395,"0.0-4.58-0.58","4dsn7dqwrmxfw87",771,"46.csv","","56","resources/trios/L1T2A3.jpg","39","restless",0.5,0.4,0.7,0.562534407529161,"true"
"image-keyboard-response",187,167801,"0.0-4.58-1.58","4dsn7dqwrmxfw87",771,"46.csv","","null","resources/maskTrios/BBA3.jpg","null","",NA,NA,NA,NA,""
"image-keyboard-response",188,169012,"0.0-4.58-2.58","4dsn7dqwrmxfw87",771,"46.csv","","null","resources/images/coin2.png","null","",NA,NA,NA,NA,""
"image-keyboard-response",189,169800,"0.0-4.59-0.59","4dsn7dqwrmxfw87",771,"46.csv","","786","resources/trios/L1T2A3.jpg","39","restless",0.5,0.4,0.7,0.307354779164001,"true"
"image-keyboard-response",190,170211,"0.0-4.59-1.59","4dsn7dqwrmxfw87",771,"46.csv","","null","resources/maskTrios/BBA3.jpg","null","",NA,NA,NA,NA,""
"image-keyboard-response",191,171420,"0.0-4.59-2.59","4dsn7dqwrmxfw87",771,"46.csv","","null","resources/images/coin2.png","null","",NA,NA,NA,NA,""
"image-keyboard-response",192,171712,"0.0-4.60-0.60","4dsn7dqwrmxfw87",771,"46.csv","","290","resources/trios/L1T2A3.jpg","39","restless",0.5,0.4,0.6,0.809678661460553,"false"
"image-keyboard-response",193,172119,"0.0-4.60-1.60","4dsn7dqwrmxfw87",771,"46.csv","","null","resources/maskTrios/BBA3.jpg","null","",NA,NA,NA,NA,""
"image-keyboard-response",194,173331,"0.0-4.60-2.60","4dsn7dqwrmxfw87",771,"46.csv","","null","resources/images/fishbone.png","null","",NA,NA,NA,NA,""
"image-keyboard-response",195,173414,"0.0-4.61-0.61","4dsn7dqwrmxfw87",771,"46.csv","","83","resources/trios/L1T2A3.jpg","37","restless",0.5,0.4,0.6,0.0733427431738747,"true"
"image-keyboard-response",196,173861,"0.0-4.61-1.61","4dsn7dqwrmxfw87",771,"46.csv","","null","resources/maskTrios/L1BB.jpg","null","",NA,NA,NA,NA,""
"image-keyboard-response",197,175071,"0.0-4.61-2.61","4dsn7dqwrmxfw87",771,"46.csv","","null","resources/images/coin2.png","null","",NA,NA,NA,NA,""
"image-keyboard-response",198,175125,"0.0-4.62-0.62","4dsn7dqwrmxfw87",771,"46.csv","","51","resources/trios/L1T2A3.jpg","37","restless",0.5,0.4,0.6,0.384654632018305,"true"
"image-keyboard-response",199,175533,"0.0-4.62-1.62","4dsn7dqwrmxfw87",771,"46.csv","","null","resources/maskTrios/L1BB.jpg","null","",NA,NA,NA,NA,""
"image-keyboard-response",200,176745,"0.0-4.62-2.62","4dsn7dqwrmxfw87",771,"46.csv","","null","resources/images/coin2.png","null","",NA,NA,NA,NA,""
"image-keyboard-response",201,176821,"0.0-4.63-0.63","4dsn7dqwrmxfw87",771,"46.csv","","73","resources/trios/L1T2A3.jpg","37","restless",0.5,0.4,0.6,0.320153154947624,"true"
"image-keyboard-response",202,177226,"0.0-4.63-1.63","4dsn7dqwrmxfw87",771,"46.csv","","null","resources/maskTrios/L1BB.jpg","null","",NA,NA,NA,NA,""
"image-keyboard-response",203,178434,"0.0-4.63-2.63","4dsn7dqwrmxfw87",771,"46.csv","","null","resources/images/coin2.png","null","",NA,NA,NA,NA,""
"image-keyboard-response",204,179192,"0.0-4.64-0.64","4dsn7dqwrmxfw87",771,"46.csv","","755","resources/trios/L1T2A3.jpg","37","restless",0.5,0.4,0.7,0.164979549290393,"true"
"image-keyboard-response",205,179603,"0.0-4.64-1.64","4dsn7dqwrmxfw87",771,"46.csv","","null","resources/maskTrios/L1BB.jpg","null","",NA,NA,NA,NA,""
"image-keyboard-response",206,180809,"0.0-4.64-2.64","4dsn7dqwrmxfw87",771,"46.csv","","null","resources/images/coin2.png","null","",NA,NA,NA,NA,""
"image-keyboard-response",207,181358,"0.0-4.65-0.65","4dsn7dqwrmxfw87",771,"46.csv","","548","resources/trios/L1T2A3.jpg","37","restless",0.5,0.4,0.7,0.0448059493507682,"true"
"image-keyboard-response",208,181772,"0.0-4.65-1.65","4dsn7dqwrmxfw87",771,"46.csv","","null","resources/maskTrios/L1BB.jpg","null","",NA,NA,NA,NA,""
"image-keyboard-response",209,182989,"0.0-4.65-2.65","4dsn7dqwrmxfw87",771,"46.csv","","null","resources/images/coin2.png","null","",NA,NA,NA,NA,""
"image-keyboard-response",210,183286,"0.0-4.66-0.66","4dsn7dqwrmxfw87",771,"46.csv","","296","resources/trios/L1T2A3.jpg","37","restless",0.5,0.4,0.7,0.587591473106824,"false"
"image-keyboard-response",211,183690,"0.0-4.66-1.66","4dsn7dqwrmxfw87",771,"46.csv","","null","resources/maskTrios/L1BB.jpg","null","",NA,NA,NA,NA,""
"image-keyboard-response",212,184902,"0.0-4.66-2.66","4dsn7dqwrmxfw87",771,"46.csv","","null","resources/images/fishbone.png","null","",NA,NA,NA,NA,""
"image-keyboard-response",213,185115,"0.0-4.67-0.67","4dsn7dqwrmxfw87",771,"46.csv","","213","resources/trios/L1T2A3.jpg","38","restless",0.5,0.4,0.7,0.354038590970439,"true"
"image-keyboard-response",214,185522,"0.0-4.67-1.67","4dsn7dqwrmxfw87",771,"46.csv","","null","resources/maskTrios/BT2B.jpg","null","",NA,NA,NA,NA,""
"image-keyboard-response",215,186729,"0.0-4.67-2.67","4dsn7dqwrmxfw87",771,"46.csv","","null","resources/images/coin2.png","null","",NA,NA,NA,NA,""
"image-keyboard-response",216,187171,"0.0-4.68-0.68","4dsn7dqwrmxfw87",771,"46.csv","","441","resources/trios/L1T2A3.jpg","38","restless",0.5,0.4,0.7,0.352821539554676,"true"
"image-keyboard-response",217,187587,"0.0-4.68-1.68","4dsn7dqwrmxfw87",771,"46.csv","","null","resources/maskTrios/BT2B.jpg","null","",NA,NA,NA,NA,""
"image-keyboard-response",218,188803,"0.0-4.68-2.68","4dsn7dqwrmxfw87",771,"46.csv","","null","resources/images/coin2.png","null","",NA,NA,NA,NA,""
"image-keyboard-response",219,189092,"0.0-4.69-0.69","4dsn7dqwrmxfw87",771,"46.csv","","289","resources/trios/L1T2A3.jpg","38","restless",0.5,0.3,0.7,0.919852454652438,"false"
"image-keyboard-response",220,189529,"0.0-4.69-1.69","4dsn7dqwrmxfw87",771,"46.csv","","null","resources/maskTrios/BT2B.jpg","null","",NA,NA,NA,NA,""
"image-keyboard-response",221,190738,"0.0-4.69-2.69","4dsn7dqwrmxfw87",771,"46.csv","","null","resources/images/fishbone.png","null","",NA,NA,NA,NA,""
"image-keyboard-response",222,190858,"0.0-4.70-0.70","4dsn7dqwrmxfw87",771,"46.csv","","119","resources/trios/L1T2A3.jpg","39","restless",0.5,0.3,0.7,0.354452854036654,"true"
"image-keyboard-response",223,191269,"0.0-4.70-1.70","4dsn7dqwrmxfw87",771,"46.csv","","null","resources/maskTrios/BBA3.jpg","null","",NA,NA,NA,NA,""
"image-keyboard-response",224,192479,"0.0-4.70-2.70","4dsn7dqwrmxfw87",771,"46.csv","","null","resources/images/coin2.png","null","",NA,NA,NA,NA,""
"image-keyboard-response",225,192708,"0.0-4.71-0.71","4dsn7dqwrmxfw87",771,"46.csv","","228","resources/trios/L1T2A3.jpg","39","restless",0.5,0.3,0.8,0.991530819094466,"false"
"image-keyboard-response",226,193116,"0.0-4.71-1.71","4dsn7dqwrmxfw87",771,"46.csv","","null","resources/maskTrios/BBA3.jpg","null","",NA,NA,NA,NA,""
"image-keyboard-response",227,194331,"0.0-4.71-2.71","4dsn7dqwrmxfw87",771,"46.csv","","null","resources/images/fishbone.png","null","",NA,NA,NA,NA,""
"image-keyboard-response",228,194423,"0.0-4.72-0.72","4dsn7dqwrmxfw87",771,"46.csv","","89","resources/trios/L1T2A3.jpg","37","restless",0.5,0.3,0.8,0.0202231277473279,"true"
"image-keyboard-response",229,194828,"0.0-4.72-1.72","4dsn7dqwrmxfw87",771,"46.csv","","null","resources/maskTrios/L1BB.jpg","null","",NA,NA,NA,NA,""
"image-keyboard-response",230,196038,"0.0-4.72-2.72","4dsn7dqwrmxfw87",771,"46.csv","","null","resources/images/coin2.png","null","",NA,NA,NA,NA,""
"image-keyboard-response",231,196263,"0.0-4.73-0.73","4dsn7dqwrmxfw87",771,"46.csv","","223","resources/trios/L1T2A3.jpg","38","restless",0.5,0.3,0.9,0.228718735002187,"true"
"image-keyboard-response",232,196672,"0.0-4.73-1.73","4dsn7dqwrmxfw87",771,"46.csv","","null","resources/maskTrios/BT2B.jpg","null","",NA,NA,NA,NA,""
"image-keyboard-response",233,197886,"0.0-4.73-2.73","4dsn7dqwrmxfw87",771,"46.csv","","null","resources/images/coin2.png","null","",NA,NA,NA,NA,""
"image-keyboard-response",234,197894,"0.0-4.74-0.74","4dsn7dqwrmxfw87",771,"46.csv","","5","resources/trios/L1T2A3.jpg","38","restless",0.5,0.3,0.9,0.877137199965219,"false"
"image-keyboard-response",235,198305,"0.0-4.74-1.74","4dsn7dqwrmxfw87",771,"46.csv","","null","resources/maskTrios/BT2B.jpg","null","",NA,NA,NA,NA,""
"image-keyboard-response",236,199509,"0.0-4.74-2.74","4dsn7dqwrmxfw87",771,"46.csv","","null","resources/images/fishbone.png","null","",NA,NA,NA,NA,""
"image-keyboard-response",237,199671,"0.0-4.75-0.75","4dsn7dqwrmxfw87",771,"46.csv","","160","resources/trios/L1T2A3.jpg","37","restless",0.5,0.3,0.9,0.565426647496281,"false"
"image-keyboard-response",238,200088,"0.0-4.75-1.75","4dsn7dqwrmxfw87",771,"46.csv","","null","resources/maskTrios/L1BB.jpg","null","",NA,NA,NA,NA,""
"image-keyboard-response",239,201299,"0.0-4.75-2.75","4dsn7dqwrmxfw87",771,"46.csv","","null","resources/images/fishbone.png","null","",NA,NA,NA,NA,""
"image-keyboard-response",240,201675,"0.0-4.76-0.76","4dsn7dqwrmxfw87",771,"46.csv","","375","resources/trios/L1T2A3.jpg","38","restless",0.5,0.3,0.9,0.0550101914717124,"true"
"image-keyboard-response",241,202090,"0.0-4.76-1.76","4dsn7dqwrmxfw87",771,"46.csv","","null","resources/maskTrios/BT2B.jpg","null","",NA,NA,NA,NA,""
"image-keyboard-response",242,203299,"0.0-4.76-2.76","4dsn7dqwrmxfw87",771,"46.csv","","null","resources/images/coin2.png","null","",NA,NA,NA,NA,""
"image-keyboard-response",243,203555,"0.0-4.77-0.77","4dsn7dqwrmxfw87",771,"46.csv","","256","resources/trios/L1T2A3.jpg","39","restless",0.5,0.4,0.9,0.0177924638989008,"true"
"image-keyboard-response",244,203965,"0.0-4.77-1.77","4dsn7dqwrmxfw87",771,"46.csv","","null","resources/maskTrios/BBA3.jpg","null","",NA,NA,NA,NA,""
"image-keyboard-response",245,205177,"0.0-4.77-2.77","4dsn7dqwrmxfw87",771,"46.csv","","null","resources/images/coin2.png","null","",NA,NA,NA,NA,""
"image-keyboard-response",246,205390,"0.0-4.78-0.78","4dsn7dqwrmxfw87",771,"46.csv","","211","resources/trios/L1T2A3.jpg","37","restless",0.5,0.4,0.9,0.318676898633143,"true"
"image-keyboard-response",247,205793,"0.0-4.78-1.78","4dsn7dqwrmxfw87",771,"46.csv","","null","resources/maskTrios/L1BB.jpg","null","",NA,NA,NA,NA,""
"image-keyboard-response",248,206998,"0.0-4.78-2.78","4dsn7dqwrmxfw87",771,"46.csv","","null","resources/images/coin2.png","null","",NA,NA,NA,NA,""
"image-keyboard-response",249,207114,"0.0-4.79-0.79","4dsn7dqwrmxfw87",771,"46.csv","","114","resources/trios/L1T2A3.jpg","38","restless",0.5,0.4,0.9,0.864412791228806,"false"
"image-keyboard-response",250,207527,"0.0-4.79-1.79","4dsn7dqwrmxfw87",771,"46.csv","","null","resources/maskTrios/BT2B.jpg","null","",NA,NA,NA,NA,""
"image-keyboard-response",251,208742,"0.0-4.79-2.79","4dsn7dqwrmxfw87",771,"46.csv","","null","resources/images/fishbone.png","null","",NA,NA,NA,NA,""
"image-keyboard-response",252,208921,"0.0-4.80-0.80","4dsn7dqwrmxfw87",771,"46.csv","","178","resources/trios/L1T2A3.jpg","37","restless",0.5,0.4,0.9,0.181990903745246,"true"
"image-keyboard-response",253,209333,"0.0-4.80-1.80","4dsn7dqwrmxfw87",771,"46.csv","","null","resources/maskTrios/L1BB.jpg","null","",NA,NA,NA,NA,""
"image-keyboard-response",254,210546,"0.0-4.80-2.80","4dsn7dqwrmxfw87",771,"46.csv","","null","resources/images/coin2.png","null","",NA,NA,NA,NA,""
"image-keyboard-response",255,210761,"0.0-4.81-0.81","4dsn7dqwrmxfw87",771,"46.csv","","215","resources/trios/L1T2A3.jpg","37","restless",0.5,0.4,0.9,0.644110940515983,"false"
"image-keyboard-response",256,211169,"0.0-4.81-1.81","4dsn7dqwrmxfw87",771,"46.csv","","null","resources/maskTrios/L1BB.jpg","null","",NA,NA,NA,NA,""
"image-keyboard-response",257,212380,"0.0-4.81-2.81","4dsn7dqwrmxfw87",771,"46.csv","","null","resources/images/fishbone.png","null","",NA,NA,NA,NA,""
"image-keyboard-response",258,212529,"0.0-4.82-0.82","4dsn7dqwrmxfw87",771,"46.csv","","147","resources/trios/L1T2A3.jpg","39","restless",0.5,0.4,0.9,0.834246102425197,"true"
"image-keyboard-response",259,212941,"0.0-4.82-1.82","4dsn7dqwrmxfw87",771,"46.csv","","null","resources/maskTrios/BBA3.jpg","null","",NA,NA,NA,NA,""
"image-keyboard-response",260,214155,"0.0-4.82-2.82","4dsn7dqwrmxfw87",771,"46.csv","","null","resources/images/coin2.png","null","",NA,NA,NA,NA,""
"image-keyboard-response",261,214597,"0.0-4.83-0.83","4dsn7dqwrmxfw87",771,"46.csv","","440","resources/trios/L1T2A3.jpg","37","restless",0.5,0.4,0.8,0.699177680856186,"false"
"image-keyboard-response",262,215010,"0.0-4.83-1.83","4dsn7dqwrmxfw87",771,"46.csv","","null","resources/maskTrios/L1BB.jpg","null","",NA,NA,NA,NA,""
"image-keyboard-response",263,216220,"0.0-4.83-2.83","4dsn7dqwrmxfw87",771,"46.csv","","null","resources/images/fishbone.png","null","",NA,NA,NA,NA,""
"image-keyboard-response",264,216321,"0.0-4.84-0.84","4dsn7dqwrmxfw87",771,"46.csv","","98","resources/trios/L1T2A3.jpg","38","restless",0.5,0.4,0.8,0.677521525443149,"false"
"image-keyboard-response",265,216732,"0.0-4.84-1.84","4dsn7dqwrmxfw87",771,"46.csv","","null","resources/maskTrios/BT2B.jpg","null","",NA,NA,NA,NA,""
"image-keyboard-response",266,217945,"0.0-4.84-2.84","4dsn7dqwrmxfw87",771,"46.csv","","null","resources/images/fishbone.png","null","",NA,NA,NA,NA,""
"image-keyboard-response",267,218067,"0.0-4.85-0.85","4dsn7dqwrmxfw87",771,"46.csv","","120","resources/trios/L1T2A3.jpg","37","restless",0.5,0.4,0.8,0.0288025773715805,"true"
"image-keyboard-response",268,218475,"0.0-4.85-1.85","4dsn7dqwrmxfw87",771,"46.csv","","null","resources/maskTrios/L1BB.jpg","null","",NA,NA,NA,NA,""
"image-keyboard-response",269,219687,"0.0-4.85-2.85","4dsn7dqwrmxfw87",771,"46.csv","","null","resources/images/coin2.png","null","",NA,NA,NA,NA,""
"image-keyboard-response",270,219953,"0.0-4.86-0.86","4dsn7dqwrmxfw87",771,"46.csv","","265","resources/trios/L1T2A3.jpg","39","restless",0.5,0.4,0.8,0.382741892803301,"true"
"image-keyboard-response",271,220354,"0.0-4.86-1.86","4dsn7dqwrmxfw87",771,"46.csv","","null","resources/maskTrios/BBA3.jpg","null","",NA,NA,NA,NA,""
"image-keyboard-response",272,221567,"0.0-4.86-2.86","4dsn7dqwrmxfw87",771,"46.csv","","null","resources/images/coin2.png","null","",NA,NA,NA,NA,""
"image-keyboard-response",273,221867,"0.0-4.87-0.87","4dsn7dqwrmxfw87",771,"46.csv","","300","resources/trios/L1T2A3.jpg","38","restless",0.5,0.4,0.8,0.363619433872818,"true"
"image-keyboard-response",274,222281,"0.0-4.87-1.87","4dsn7dqwrmxfw87",771,"46.csv","","null","resources/maskTrios/BT2B.jpg","null","",NA,NA,NA,NA,""
"image-keyboard-response",275,223493,"0.0-4.87-2.87","4dsn7dqwrmxfw87",771,"46.csv","","null","resources/images/coin2.png","null","",NA,NA,NA,NA,""
"image-keyboard-response",276,223730,"0.0-4.88-0.88","4dsn7dqwrmxfw87",771,"46.csv","","235","resources/trios/L1T2A3.jpg","37","restless",0.5,0.4,0.8,0.135670838637624,"true"
"image-keyboard-response",277,224146,"0.0-4.88-1.88","4dsn7dqwrmxfw87",771,"46.csv","","null","resources/maskTrios/L1BB.jpg","null","",NA,NA,NA,NA,""
"image-keyboard-response",278,225356,"0.0-4.88-2.88","4dsn7dqwrmxfw87",771,"46.csv","","null","resources/images/coin2.png","null","",NA,NA,NA,NA,""
"image-keyboard-response",279,226311,"0.0-4.89-0.89","4dsn7dqwrmxfw87",771,"46.csv","","952","resources/trios/L1T2A3.jpg","39","restless",0.5,0.4,0.8,0.237475633850332,"true"
"image-keyboard-response",280,226726,"0.0-4.89-1.89","4dsn7dqwrmxfw87",771,"46.csv","","null","resources/maskTrios/BBA3.jpg","null","",NA,NA,NA,NA,""
"image-keyboard-response",281,227936,"0.0-4.89-2.89","4dsn7dqwrmxfw87",771,"46.csv","","null","resources/images/coin2.png","null","",NA,NA,NA,NA,""
"image-keyboard-response",282,228118,"0.0-4.90-0.90","4dsn7dqwrmxfw87",771,"46.csv","","182","resources/trios/L1T2A3.jpg","38","restless",0.5,0.4,0.8,0.768965747128039,"false"
"image-keyboard-response",283,228527,"0.0-4.90-1.90","4dsn7dqwrmxfw87",771,"46.csv","","null","resources/maskTrios/BT2B.jpg","null","",NA,NA,NA,NA,""
"image-keyboard-response",284,229740,"0.0-4.90-2.90","4dsn7dqwrmxfw87",771,"46.csv","","null","resources/images/fishbone.png","null","",NA,NA,NA,NA,""
"image-keyboard-response",285,230004,"0.0-4.91-0.91","4dsn7dqwrmxfw87",771,"46.csv","","261","resources/trios/L1T2A3.jpg","37","restless",0.5,0.4,0.7,0.792807256614808,"false"
"image-keyboard-response",286,230409,"0.0-4.91-1.91","4dsn7dqwrmxfw87",771,"46.csv","","null","resources/maskTrios/L1BB.jpg","null","",NA,NA,NA,NA,""
"image-keyboard-response",287,231624,"0.0-4.91-2.91","4dsn7dqwrmxfw87",771,"46.csv","","null","resources/images/fishbone.png","null","",NA,NA,NA,NA,""
"image-keyboard-response",288,231988,"0.0-4.92-0.92","4dsn7dqwrmxfw87",771,"46.csv","","361","resources/trios/L1T2A3.jpg","38","restless",0.4,0.4,0.7,0.429270124485215,"false"
"image-keyboard-response",289,232400,"0.0-4.92-1.92","4dsn7dqwrmxfw87",771,"46.csv","","null","resources/maskTrios/BT2B.jpg","null","",NA,NA,NA,NA,""
"image-keyboard-response",290,233602,"0.0-4.92-2.92","4dsn7dqwrmxfw87",771,"46.csv","","null","resources/images/fishbone.png","null","",NA,NA,NA,NA,""
"image-keyboard-response",291,233781,"0.0-4.93-0.93","4dsn7dqwrmxfw87",771,"46.csv","","178","resources/trios/L1T2A3.jpg","39","restless",0.4,0.4,0.6,0.744584962168862,"false"
"image-keyboard-response",292,234194,"0.0-4.93-1.93","4dsn7dqwrmxfw87",771,"46.csv","","null","resources/maskTrios/BBA3.jpg","null","",NA,NA,NA,NA,""
"image-keyboard-response",293,235397,"0.0-4.93-2.93","4dsn7dqwrmxfw87",771,"46.csv","","null","resources/images/fishbone.png","null","",NA,NA,NA,NA,""
"image-keyboard-response",294,235674,"0.0-4.94-0.94","4dsn7dqwrmxfw87",771,"46.csv","","277","resources/trios/L1T2A3.jpg","37","restless",0.4,0.4,0.6,0.296706396510405,"true"
"image-keyboard-response",295,236079,"0.0-4.94-1.94","4dsn7dqwrmxfw87",771,"46.csv","","null","resources/maskTrios/L1BB.jpg","null","",NA,NA,NA,NA,""
"image-keyboard-response",296,237293,"0.0-4.94-2.94","4dsn7dqwrmxfw87",771,"46.csv","","null","resources/images/coin2.png","null","",NA,NA,NA,NA,""
"image-keyboard-response",297,237518,"0.0-4.95-0.95","4dsn7dqwrmxfw87",771,"46.csv","","224","resources/trios/L1T2A3.jpg","37","restless",0.4,0.4,0.5,0.640351763216205,"false"
"image-keyboard-response",298,237932,"0.0-4.95-1.95","4dsn7dqwrmxfw87",771,"46.csv","","null","resources/maskTrios/L1BB.jpg","null","",NA,NA,NA,NA,""
"image-keyboard-response",299,239145,"0.0-4.95-2.95","4dsn7dqwrmxfw87",771,"46.csv","","null","resources/images/fishbone.png","null","",NA,NA,NA,NA,""
"image-keyboard-response",300,239230,"0.0-4.96-0.96","4dsn7dqwrmxfw87",771,"46.csv","","83","resources/trios/L1T2A3.jpg","39","restless",0.4,0.4,0.4,0.179146176378166,"true"
"image-keyboard-response",301,239647,"0.0-4.96-1.96","4dsn7dqwrmxfw87",771,"46.csv","","null","resources/maskTrios/BBA3.jpg","null","",NA,NA,NA,NA,""
"image-keyboard-response",302,240857,"0.0-4.96-2.96","4dsn7dqwrmxfw87",771,"46.csv","","null","resources/images/coin2.png","null","",NA,NA,NA,NA,""
"image-keyboard-response",303,241050,"0.0-4.97-0.97","4dsn7dqwrmxfw87",771,"46.csv","","192","resources/trios/L1T2A3.jpg","39","restless",0.4,0.4,0.4,0.290059936925248,"true"
"image-keyboard-response",304,241464,"0.0-4.97-1.97","4dsn7dqwrmxfw87",771,"46.csv","","null","resources/maskTrios/BBA3.jpg","null","",NA,NA,NA,NA,""
"image-keyboard-response",305,242675,"0.0-4.97-2.97","4dsn7dqwrmxfw87",771,"46.csv","","null","resources/images/coin2.png","null","",NA,NA,NA,NA,""
"image-keyboard-response",306,242967,"0.0-4.98-0.98","4dsn7dqwrmxfw87",771,"46.csv","","290","resources/trios/L1T2A3.jpg","39","restless",0.4,0.4,0.4,0.0685840563261876,"true"
"image-keyboard-response",307,243372,"0.0-4.98-1.98","4dsn7dqwrmxfw87",771,"46.csv","","null","resources/maskTrios/BBA3.jpg","null","",NA,NA,NA,NA,""
"image-keyboard-response",308,244583,"0.0-4.98-2.98","4dsn7dqwrmxfw87",771,"46.csv","","null","resources/images/coin2.png","null","",NA,NA,NA,NA,""
"image-keyboard-response",309,244871,"0.0-4.99-0.99","4dsn7dqwrmxfw87",771,"46.csv","","287","resources/trios/L1T2A3.jpg","39","restless",0.4,0.4,0.4,0.542703229594582,"false"
"image-keyboard-response",310,245282,"0.0-4.99-1.99","4dsn7dqwrmxfw87",771,"46.csv","","null","resources/maskTrios/BBA3.jpg","null","",NA,NA,NA,NA,""
"image-keyboard-response",311,246492,"0.0-4.99-2.99","4dsn7dqwrmxfw87",771,"46.csv","","null","resources/images/fishbone.png","null","",NA,NA,NA,NA,""
"image-keyboard-response",312,246785,"0.0-4.100-0.100","4dsn7dqwrmxfw87",771,"46.csv","","290","resources/trios/L1T2A3.jpg","38","restless",0.4,0.4,0.3,0.667533476157899,"false"
"image-keyboard-response",313,247195,"0.0-4.100-1.100","4dsn7dqwrmxfw87",771,"46.csv","","null","resources/maskTrios/BT2B.jpg","null","",NA,NA,NA,NA,""
"image-keyboard-response",314,248407,"0.0-4.100-2.100","4dsn7dqwrmxfw87",771,"46.csv","","null","resources/images/fishbone.png","null","",NA,NA,NA,NA,""
"image-keyboard-response",315,248466,"0.0-4.101-0.101","4dsn7dqwrmxfw87",771,"46.csv","","56","resources/trios/L1T2A3.jpg","37","restless",0.4,0.4,0.3,0.649260457859614,"false"
"image-keyboard-response",316,248876,"0.0-4.101-1.101","4dsn7dqwrmxfw87",771,"46.csv","","null","resources/maskTrios/L1BB.jpg","null","",NA,NA,NA,NA,""
"image-keyboard-response",317,250079,"0.0-4.101-2.101","4dsn7dqwrmxfw87",771,"46.csv","","null","resources/images/fishbone.png","null","",NA,NA,NA,NA,""
"image-keyboard-response",318,250310,"0.0-4.102-0.102","4dsn7dqwrmxfw87",771,"46.csv","","231","resources/trios/L1T2A3.jpg","39","restless",0.4,0.4,0.2,0.184816101809535,"true"
"image-keyboard-response",319,250716,"0.0-4.102-1.102","4dsn7dqwrmxfw87",771,"46.csv","","null","resources/maskTrios/BBA3.jpg","null","",NA,NA,NA,NA,""
"image-keyboard-response",320,251930,"0.0-4.102-2.102","4dsn7dqwrmxfw87",771,"46.csv","","null","resources/images/coin2.png","null","",NA,NA,NA,NA,""
"image-keyboard-response",321,252020,"0.0-4.103-0.103","4dsn7dqwrmxfw87",771,"46.csv","","87","resources/trios/L1T2A3.jpg","39","restless",0.4,0.4,0.2,0.2274231581329,"false"
"image-keyboard-response",322,252428,"0.0-4.103-1.103","4dsn7dqwrmxfw87",771,"46.csv","","null","resources/maskTrios/BBA3.jpg","null","",NA,NA,NA,NA,""
"image-keyboard-response",323,253631,"0.0-4.103-2.103","4dsn7dqwrmxfw87",771,"46.csv","","null","resources/images/fishbone.png","null","",NA,NA,NA,NA,""
"image-keyboard-response",324,253722,"0.0-4.104-0.104","4dsn7dqwrmxfw87",771,"46.csv","","91","resources/trios/L1T2A3.jpg","39","restless",0.5,0.4,0.2,0.804528899467125,"false"
"image-keyboard-response",325,254132,"0.0-4.104-1.104","4dsn7dqwrmxfw87",771,"46.csv","","null","resources/maskTrios/BBA3.jpg","null","",NA,NA,NA,NA,""
"image-keyboard-response",326,255340,"0.0-4.104-2.104","4dsn7dqwrmxfw87",771,"46.csv","","null","resources/images/fishbone.png","null","",NA,NA,NA,NA,""
"image-keyboard-response",327,255517,"0.0-4.105-0.105","4dsn7dqwrmxfw87",771,"46.csv","","176","resources/trios/L1T2A3.jpg","38","restless",0.5,0.4,0.2,0.916303673654446,"false"
"image-keyboard-response",328,255931,"0.0-4.105-1.105","4dsn7dqwrmxfw87",771,"46.csv","","null","resources/maskTrios/BT2B.jpg","null","",NA,NA,NA,NA,""
"image-keyboard-response",329,257142,"0.0-4.105-2.105","4dsn7dqwrmxfw87",771,"46.csv","","null","resources/images/fishbone.png","null","",NA,NA,NA,NA,""
"image-keyboard-response",330,257736,"0.0-4.106-0.106","4dsn7dqwrmxfw87",771,"46.csv","","592","resources/trios/L1T2A3.jpg","37","restless",0.5,0.4,0.2,0.434816153554501,"true"
"image-keyboard-response",331,258140,"0.0-4.106-1.106","4dsn7dqwrmxfw87",771,"46.csv","","null","resources/maskTrios/L1BB.jpg","null","",NA,NA,NA,NA,""
"image-keyboard-response",332,259355,"0.0-4.106-2.106","4dsn7dqwrmxfw87",771,"46.csv","","null","resources/images/coin2.png","null","",NA,NA,NA,NA,""
"image-keyboard-response",333,259640,"0.0-4.107-0.107","4dsn7dqwrmxfw87",771,"46.csv","","284","resources/trios/L1T2A3.jpg","37","restless",0.6,0.4,0.2,0.144750020317471,"true"
"image-keyboard-response",334,260055,"0.0-4.107-1.107","4dsn7dqwrmxfw87",771,"46.csv","","null","resources/maskTrios/L1BB.jpg","null","",NA,NA,NA,NA,""
"image-keyboard-response",335,261359,"0.0-4.107-2.107","4dsn7dqwrmxfw87",771,"46.csv","","null","resources/images/coin2.png","null","",NA,NA,NA,NA,""
"image-keyboard-response",336,261931,"0.0-4.108-0.108","4dsn7dqwrmxfw87",771,"46.csv","","571","resources/trios/L1T2A3.jpg","37","restless",0.6,0.4,0.2,0.648986282562872,"false"
"image-keyboard-response",337,262339,"0.0-4.108-1.108","4dsn7dqwrmxfw87",771,"46.csv","","null","resources/maskTrios/L1BB.jpg","null","",NA,NA,NA,NA,""
"image-keyboard-response",338,263554,"0.0-4.108-2.108","4dsn7dqwrmxfw87",771,"46.csv","","null","resources/images/fishbone.png","null","",NA,NA,NA,NA,""
"image-keyboard-response",339,264247,"0.0-4.109-0.109","4dsn7dqwrmxfw87",771,"46.csv","","690","resources/trios/L1T2A3.jpg","39","restless",0.6,0.4,0.2,0.138093931940863,"true"
"image-keyboard-response",340,264654,"0.0-4.109-1.109","4dsn7dqwrmxfw87",771,"46.csv","","null","resources/maskTrios/BBA3.jpg","null","",NA,NA,NA,NA,""
"image-keyboard-response",341,265856,"0.0-4.109-2.109","4dsn7dqwrmxfw87",771,"46.csv","","null","resources/images/coin2.png","null","",NA,NA,NA,NA,""
"image-keyboard-response",342,265960,"0.0-4.110-0.110","4dsn7dqwrmxfw87",771,"46.csv","","103","resources/trios/L1T2A3.jpg","38","restless",0.6,0.3,0.2,0.637033803262154,"false"
"image-keyboard-response",343,266375,"0.0-4.110-1.110","4dsn7dqwrmxfw87",771,"46.csv","","null","resources/maskTrios/BT2B.jpg","null","",NA,NA,NA,NA,""
"image-keyboard-response",344,267587,"0.0-4.110-2.110","4dsn7dqwrmxfw87",771,"46.csv","","null","resources/images/fishbone.png","null","",NA,NA,NA,NA,""
"image-keyboard-response",345,267607,"0.0-4.111-0.111","4dsn7dqwrmxfw87",771,"46.csv","","18","resources/trios/L1T2A3.jpg","39","restless",0.6,0.3,0.2,0.947560120669177,"false"
"image-keyboard-response",346,268020,"0.0-4.111-1.111","4dsn7dqwrmxfw87",771,"46.csv","","null","resources/maskTrios/BBA3.jpg","null","",NA,NA,NA,NA,""
"image-keyboard-response",347,269233,"0.0-4.111-2.111","4dsn7dqwrmxfw87",771,"46.csv","","null","resources/images/fishbone.png","null","",NA,NA,NA,NA,""
"image-keyboard-response",348,270295,"0.0-4.112-0.112","4dsn7dqwrmxfw87",771,"46.csv","","1060","resources/trios/L1T2A3.jpg","38","restless",0.6,0.3,0.2,0.542704662208844,"false"
"image-keyboard-response",349,270711,"0.0-4.112-1.112","4dsn7dqwrmxfw87",771,"46.csv","","null","resources/maskTrios/BT2B.jpg","null","",NA,NA,NA,NA,""
"image-keyboard-response",350,271926,"0.0-4.112-2.112","4dsn7dqwrmxfw87",771,"46.csv","","null","resources/images/fishbone.png","null","",NA,NA,NA,NA,""
"image-keyboard-response",351,272063,"0.0-4.113-0.113","4dsn7dqwrmxfw87",771,"46.csv","","129","resources/trios/L1T2A3.jpg","39","restless",0.6,0.3,0.2,0.809320499158343,"false"
"image-keyboard-response",352,272467,"0.0-4.113-1.113","4dsn7dqwrmxfw87",771,"46.csv","","null","resources/maskTrios/BBA3.jpg","null","",NA,NA,NA,NA,""
"image-keyboard-response",353,273680,"0.0-4.113-2.113","4dsn7dqwrmxfw87",771,"46.csv","","null","resources/images/fishbone.png","null","",NA,NA,NA,NA,""
"image-keyboard-response",354,273713,"0.0-4.114-0.114","4dsn7dqwrmxfw87",771,"46.csv","","31","resources/trios/L1T2A3.jpg","37","restless",0.6,0.3,0.2,0.963382915345492,"false"
"image-keyboard-response",355,274120,"0.0-4.114-1.114","4dsn7dqwrmxfw87",771,"46.csv","","null","resources/maskTrios/L1BB.jpg","null","",NA,NA,NA,NA,""
"image-keyboard-response",356,275336,"0.0-4.114-2.114","4dsn7dqwrmxfw87",771,"46.csv","","null","resources/images/fishbone.png","null","",NA,NA,NA,NA,""
"image-keyboard-response",357,275448,"0.0-4.115-0.115","4dsn7dqwrmxfw87",771,"46.csv","","111","resources/trios/L1T2A3.jpg","38","restless",0.6,0.3,0.2,0.624367274990292,"false"
"image-keyboard-response",358,275864,"0.0-4.115-1.115","4dsn7dqwrmxfw87",771,"46.csv","","null","resources/maskTrios/BT2B.jpg","null","",NA,NA,NA,NA,""
"image-keyboard-response",359,277075,"0.0-4.115-2.115","4dsn7dqwrmxfw87",771,"46.csv","","null","resources/images/fishbone.png","null","",NA,NA,NA,NA,""
"image-keyboard-response",360,277194,"0.0-4.116-0.116","4dsn7dqwrmxfw87",771,"46.csv","","117","resources/trios/L1T2A3.jpg","37","restless",0.6,0.4,0.1,0.310239407036705,"true"
"image-keyboard-response",361,277604,"0.0-4.116-1.116","4dsn7dqwrmxfw87",771,"46.csv","","null","resources/maskTrios/L1BB.jpg","null","",NA,NA,NA,NA,""
"image-keyboard-response",362,278817,"0.0-4.116-2.116","4dsn7dqwrmxfw87",771,"46.csv","","null","resources/images/coin2.png","null","",NA,NA,NA,NA,""
"image-keyboard-response",363,279149,"0.0-4.117-0.117","4dsn7dqwrmxfw87",771,"46.csv","","329","resources/trios/L1T2A3.jpg","39","restless",0.6,0.4,0.1,0.78801395027358,"false"
"image-keyboard-response",364,279564,"0.0-4.117-1.117","4dsn7dqwrmxfw87",771,"46.csv","","null","resources/maskTrios/BBA3.jpg","null","",NA,NA,NA,NA,""
"image-keyboard-response",365,280774,"0.0-4.117-2.117","4dsn7dqwrmxfw87",771,"46.csv","","null","resources/images/fishbone.png","null","",NA,NA,NA,NA,""
"image-keyboard-response",366,280999,"0.0-4.118-0.118","4dsn7dqwrmxfw87",771,"46.csv","","223","resources/trios/L1T2A3.jpg","37","restless",0.6,0.5,0.1,0.540415172595406,"true"
"image-keyboard-response",367,281412,"0.0-4.118-1.118","4dsn7dqwrmxfw87",771,"46.csv","","null","resources/maskTrios/L1BB.jpg","null","",NA,NA,NA,NA,""
"image-keyboard-response",368,282622,"0.0-4.118-2.118","4dsn7dqwrmxfw87",771,"46.csv","","null","resources/images/coin2.png","null","",NA,NA,NA,NA,""
"image-keyboard-response",369,282629,"0.0-4.119-0.119","4dsn7dqwrmxfw87",771,"46.csv","","5","resources/trios/L1T2A3.jpg","37","restless",0.6,0.5,0.1,0.661474934339223,"false"
"image-keyboard-response",370,283040,"0.0-4.119-1.119","4dsn7dqwrmxfw87",771,"46.csv","","null","resources/maskTrios/L1BB.jpg","null","",NA,NA,NA,NA,""
"image-keyboard-response",371,284252,"0.0-4.119-2.119","4dsn7dqwrmxfw87",771,"46.csv","","null","resources/images/fishbone.png","null","",NA,NA,NA,NA,""
"image-keyboard-response",372,284580,"0.0-4.120-0.120","4dsn7dqwrmxfw87",771,"46.csv","","327","resources/trios/L1T2A3.jpg","38","restless",0.6,0.5,0.2,0.442940021156991,"true"
"image-keyboard-response",373,284984,"0.0-4.120-1.120","4dsn7dqwrmxfw87",771,"46.csv","","null","resources/maskTrios/BT2B.jpg","null","",NA,NA,NA,NA,""
"image-keyboard-response",374,286261,"0.0-4.120-2.120","4dsn7dqwrmxfw87",771,"46.csv","","null","resources/images/coin2.png","null","",NA,NA,NA,NA,""
"image-keyboard-response",375,286671,"0.0-4.121-0.121","4dsn7dqwrmxfw87",771,"46.csv","","410","resources/trios/L1T2A3.jpg","38","restless",0.6,0.5,0.2,0.361436266239959,"true"
"image-keyboard-response",376,287072,"0.0-4.121-1.121","4dsn7dqwrmxfw87",771,"46.csv","","null","resources/maskTrios/BT2B.jpg","null","",NA,NA,NA,NA,""
"image-keyboard-response",377,288285,"0.0-4.121-2.121","4dsn7dqwrmxfw87",771,"46.csv","","null","resources/images/coin2.png","null","",NA,NA,NA,NA,""
"image-keyboard-response",378,288567,"0.0-4.122-0.122","4dsn7dqwrmxfw87",771,"46.csv","","280","resources/trios/L1T2A3.jpg","38","restless",0.6,0.5,0.2,0.251138156046673,"true"
"image-keyboard-response",379,288985,"0.0-4.122-1.122","4dsn7dqwrmxfw87",771,"46.csv","","null","resources/maskTrios/BT2B.jpg","null","",NA,NA,NA,NA,""
"image-keyboard-response",380,290305,"0.0-4.122-2.122","4dsn7dqwrmxfw87",771,"46.csv","","null","resources/images/coin2.png","null","",NA,NA,NA,NA,""
"image-keyboard-response",381,290456,"0.0-4.123-0.123","4dsn7dqwrmxfw87",771,"46.csv","","149","resources/trios/L1T2A3.jpg","38","restless",0.6,0.5,0.2,0.0432673840438338,"true"
"image-keyboard-response",382,290868,"0.0-4.123-1.123","4dsn7dqwrmxfw87",771,"46.csv","","null","resources/maskTrios/BT2B.jpg","null","",NA,NA,NA,NA,""
"image-keyboard-response",383,292080,"0.0-4.123-2.123","4dsn7dqwrmxfw87",771,"46.csv","","null","resources/images/coin2.png","null","",NA,NA,NA,NA,""
"image-keyboard-response",384,292362,"0.0-4.124-0.124","4dsn7dqwrmxfw87",771,"46.csv","","279","resources/trios/L1T2A3.jpg","38","restless",0.6,0.5,0.2,0.946327381730432,"false"
"image-keyboard-response",385,292777,"0.0-4.124-1.124","4dsn7dqwrmxfw87",771,"46.csv","","null","resources/maskTrios/BT2B.jpg","null","",NA,NA,NA,NA,""
"image-keyboard-response",386,293987,"0.0-4.124-2.124","4dsn7dqwrmxfw87",771,"46.csv","","null","resources/images/fishbone.png","null","",NA,NA,NA,NA,""
"image-keyboard-response",387,294125,"0.0-4.125-0.125","4dsn7dqwrmxfw87",771,"46.csv","","136","resources/trios/L1T2A3.jpg","37","restless",0.6,0.5,0.2,0.126978151259935,"true"
"image-keyboard-response",388,294527,"0.0-4.125-1.125","4dsn7dqwrmxfw87",771,"46.csv","","null","resources/maskTrios/L1BB.jpg","null","",NA,NA,NA,NA,""
"image-keyboard-response",389,295742,"0.0-4.125-2.125","4dsn7dqwrmxfw87",771,"46.csv","","null","resources/images/coin2.png","null","",NA,NA,NA,NA,""
"image-keyboard-response",390,295974,"0.0-4.126-0.126","4dsn7dqwrmxfw87",771,"46.csv","","230","resources/trios/L1T2A3.jpg","37","restless",0.6,0.5,0.2,0.414746145810765,"true"
"image-keyboard-response",391,296383,"0.0-4.126-1.126","4dsn7dqwrmxfw87",771,"46.csv","","null","resources/maskTrios/L1BB.jpg","null","",NA,NA,NA,NA,""
"image-keyboard-response",392,297639,"0.0-4.126-2.126","4dsn7dqwrmxfw87",771,"46.csv","","null","resources/images/coin2.png","null","",NA,NA,NA,NA,""
"image-keyboard-response",393,297788,"0.0-4.127-0.127","4dsn7dqwrmxfw87",771,"46.csv","","149","resources/trios/L1T2A3.jpg","37","restless",0.6,0.5,0.2,0.61015976128469,"false"
"image-keyboard-response",394,298197,"0.0-4.127-1.127","4dsn7dqwrmxfw87",771,"46.csv","","null","resources/maskTrios/L1BB.jpg","null","",NA,NA,NA,NA,""
"image-keyboard-response",395,299408,"0.0-4.127-2.127","4dsn7dqwrmxfw87",771,"46.csv","","null","resources/images/fishbone.png","null","",NA,NA,NA,NA,""
"image-keyboard-response",396,299658,"0.0-4.128-0.128","4dsn7dqwrmxfw87",771,"46.csv","","249","resources/trios/L1T2A3.jpg","39","restless",0.6,0.5,0.2,0.766206914776942,"false"
"image-keyboard-response",397,300060,"0.0-4.128-1.128","4dsn7dqwrmxfw87",771,"46.csv","","null","resources/maskTrios/BBA3.jpg","null","",NA,NA,NA,NA,""
"image-keyboard-response",398,301423,"0.0-4.128-2.128","4dsn7dqwrmxfw87",771,"46.csv","","null","resources/images/fishbone.png","null","",NA,NA,NA,NA,""
"image-keyboard-response",399,301476,"0.0-4.129-0.129","4dsn7dqwrmxfw87",771,"46.csv","","52","resources/trios/L1T2A3.jpg","38","restless",0.6,0.5,0.2,0.120588453324627,"true"
"image-keyboard-response",400,301890,"0.0-4.129-1.129","4dsn7dqwrmxfw87",771,"46.csv","","null","resources/maskTrios/BT2B.jpg","null","",NA,NA,NA,NA,""
"image-keyboard-response",401,303105,"0.0-4.129-2.129","4dsn7dqwrmxfw87",771,"46.csv","","null","resources/images/coin2.png","null","",NA,NA,NA,NA,""
"image-keyboard-response",402,303119,"0.0-4.130-0.130","4dsn7dqwrmxfw87",771,"46.csv","","13","resources/trios/L1T2A3.jpg","38","restless",0.6,0.5,0.2,0.634938942702801,"false"
"image-keyboard-response",403,303524,"0.0-4.130-1.130","4dsn7dqwrmxfw87",771,"46.csv","","null","resources/maskTrios/BT2B.jpg","null","",NA,NA,NA,NA,""
"image-keyboard-response",404,304738,"0.0-4.130-2.130","4dsn7dqwrmxfw87",771,"46.csv","","null","resources/images/fishbone.png","null","",NA,NA,NA,NA,""
"image-keyboard-response",405,304921,"0.0-4.131-0.131","4dsn7dqwrmxfw87",771,"46.csv","","180","resources/trios/L1T2A3.jpg","39","restless",0.6,0.4,0.2,0.961503166218734,"false"
"image-keyboard-response",406,305329,"0.0-4.131-1.131","4dsn7dqwrmxfw87",771,"46.csv","","null","resources/maskTrios/BBA3.jpg","null","",NA,NA,NA,NA,""
"image-keyboard-response",407,306537,"0.0-4.131-2.131","4dsn7dqwrmxfw87",771,"46.csv","","null","resources/images/fishbone.png","null","",NA,NA,NA,NA,""
"image-keyboard-response",408,307122,"0.0-4.132-0.132","4dsn7dqwrmxfw87",771,"46.csv","","583","resources/trios/L1T2A3.jpg","38","restless",0.6,0.4,0.2,0.19754139557108,"true"
"image-keyboard-response",409,307536,"0.0-4.132-1.132","4dsn7dqwrmxfw87",771,"46.csv","","null","resources/maskTrios/BT2B.jpg","null","",NA,NA,NA,NA,""
"image-keyboard-response",410,308751,"0.0-4.132-2.132","4dsn7dqwrmxfw87",771,"46.csv","","null","resources/images/coin2.png","null","",NA,NA,NA,NA,""
"image-keyboard-response",411,308972,"0.0-4.133-0.133","4dsn7dqwrmxfw87",771,"46.csv","","221","resources/trios/L1T2A3.jpg","38","restless",0.6,0.4,0.2,0.629889107688455,"false"
"image-keyboard-response",412,309374,"0.0-4.133-1.133","4dsn7dqwrmxfw87",771,"46.csv","","null","resources/maskTrios/BT2B.jpg","null","",NA,NA,NA,NA,""
"image-keyboard-response",413,310587,"0.0-4.133-2.133","4dsn7dqwrmxfw87",771,"46.csv","","null","resources/images/fishbone.png","null","",NA,NA,NA,NA,""
"image-keyboard-response",414,310944,"0.0-4.134-0.134","4dsn7dqwrmxfw87",771,"46.csv","","354","resources/trios/L1T2A3.jpg","37","restless",0.6,0.4,0.2,0.915196393724003,"false"
"image-keyboard-response",415,311351,"0.0-4.134-1.134","4dsn7dqwrmxfw87",771,"46.csv","","null","resources/maskTrios/L1BB.jpg","null","",NA,NA,NA,NA,""
"image-keyboard-response",416,312660,"0.0-4.134-2.134","4dsn7dqwrmxfw87",771,"46.csv","","null","resources/images/fishbone.png","null","",NA,NA,NA,NA,""
"image-keyboard-response",417,312869,"0.0-4.135-0.135","4dsn7dqwrmxfw87",771,"46.csv","","207","resources/trios/L1T2A3.jpg","38","restless",0.6,0.4,0.1,0.864266582385736,"false"
"image-keyboard-response",418,313281,"0.0-4.135-1.135","4dsn7dqwrmxfw87",771,"46.csv","","null","resources/maskTrios/BT2B.jpg","null","",NA,NA,NA,NA,""
"image-keyboard-response",419,314495,"0.0-4.135-2.135","4dsn7dqwrmxfw87",771,"46.csv","","null","resources/images/fishbone.png","null","",NA,NA,NA,NA,""
"image-keyboard-response",420,315288,"0.0-4.136-0.136","4dsn7dqwrmxfw87",771,"46.csv","","791","resources/trios/L1T2A3.jpg","39","restless",0.6,0.5,0.1,0.896292889978246,"false"
"image-keyboard-response",421,315702,"0.0-4.136-1.136","4dsn7dqwrmxfw87",771,"46.csv","","null","resources/maskTrios/BBA3.jpg","null","",NA,NA,NA,NA,""
"image-keyboard-response",422,316917,"0.0-4.136-2.136","4dsn7dqwrmxfw87",771,"46.csv","","null","resources/images/fishbone.png","null","",NA,NA,NA,NA,""
"image-keyboard-response",423,317216,"0.0-4.137-0.137","4dsn7dqwrmxfw87",771,"46.csv","","296","resources/trios/L1T2A3.jpg","38","restless",0.5,0.5,0.1,0.426313034977912,"true"
"image-keyboard-response",424,317676,"0.0-4.137-1.137","4dsn7dqwrmxfw87",771,"46.csv","","null","resources/maskTrios/BT2B.jpg","null","",NA,NA,NA,NA,""
"image-keyboard-response",425,318892,"0.0-4.137-2.137","4dsn7dqwrmxfw87",771,"46.csv","","null","resources/images/coin2.png","null","",NA,NA,NA,NA,""
"image-keyboard-response",426,319148,"0.0-4.138-0.138","4dsn7dqwrmxfw87",771,"46.csv","","254","resources/trios/L1T2A3.jpg","38","restless",0.5,0.5,0.1,0.592261134631358,"false"
"image-keyboard-response",427,319557,"0.0-4.138-1.138","4dsn7dqwrmxfw87",771,"46.csv","","null","resources/maskTrios/BT2B.jpg","null","",NA,NA,NA,NA,""
"image-keyboard-response",428,320773,"0.0-4.138-2.138","4dsn7dqwrmxfw87",771,"46.csv","","null","resources/images/fishbone.png","null","",NA,NA,NA,NA,""
"image-keyboard-response",429,321026,"0.0-4.139-0.139","4dsn7dqwrmxfw87",771,"46.csv","","252","resources/trios/L1T2A3.jpg","38","restless",0.5,0.5,0.1,0.0471412037848455,"true"
"image-keyboard-response",430,321442,"0.0-4.139-1.139","4dsn7dqwrmxfw87",771,"46.csv","","null","resources/maskTrios/BT2B.jpg","null","",NA,NA,NA,NA,""
"image-keyboard-response",431,322686,"0.0-4.139-2.139","4dsn7dqwrmxfw87",771,"46.csv","","null","resources/images/coin2.png","null","",NA,NA,NA,NA,""
"image-keyboard-response",432,322923,"0.0-4.140-0.140","4dsn7dqwrmxfw87",771,"46.csv","","236","resources/trios/L1T2A3.jpg","37","restless",0.5,0.5,0.1,0.773179227205538,"false"
"image-keyboard-response",433,323326,"0.0-4.140-1.140","4dsn7dqwrmxfw87",771,"46.csv","","null","resources/maskTrios/L1BB.jpg","null","",NA,NA,NA,NA,""
"image-keyboard-response",434,324532,"0.0-4.140-2.140","4dsn7dqwrmxfw87",771,"46.csv","","null","resources/images/fishbone.png","null","",NA,NA,NA,NA,""
"image-keyboard-response",435,324930,"0.0-4.141-0.141","4dsn7dqwrmxfw87",771,"46.csv","","398","resources/trios/L1T2A3.jpg","38","restless",0.5,0.5,0.1,0.691875144263876,"false"
"image-keyboard-response",436,325342,"0.0-4.141-1.141","4dsn7dqwrmxfw87",771,"46.csv","","null","resources/maskTrios/BT2B.jpg","null","",NA,NA,NA,NA,""
"image-keyboard-response",437,326553,"0.0-4.141-2.141","4dsn7dqwrmxfw87",771,"46.csv","","null","resources/images/fishbone.png","null","",NA,NA,NA,NA,""
"image-keyboard-response",438,326887,"0.0-4.142-0.142","4dsn7dqwrmxfw87",771,"46.csv","","332","resources/trios/L1T2A3.jpg","39","restless",0.5,0.5,0.1,0.132089207762172,"false"
"image-keyboard-response",439,327298,"0.0-4.142-1.142","4dsn7dqwrmxfw87",771,"46.csv","","null","resources/maskTrios/BBA3.jpg","null","",NA,NA,NA,NA,""
"image-keyboard-response",440,328568,"0.0-4.142-2.142","4dsn7dqwrmxfw87",771,"46.csv","","null","resources/images/fishbone.png","null","",NA,NA,NA,NA,""
"image-keyboard-response",441,328997,"0.0-4.143-0.143","4dsn7dqwrmxfw87",771,"46.csv","","428","resources/trios/L1T2A3.jpg","37","restless",0.6,0.5,0.1,0.879077212795773,"false"
"image-keyboard-response",442,329401,"0.0-4.143-1.143","4dsn7dqwrmxfw87",771,"46.csv","","null","resources/maskTrios/L1BB.jpg","null","",NA,NA,NA,NA,""
"image-keyboard-response",443,330615,"0.0-4.143-2.143","4dsn7dqwrmxfw87",771,"46.csv","","null","resources/images/fishbone.png","null","",NA,NA,NA,NA,""
"image-keyboard-response",444,330887,"0.0-4.144-0.144","4dsn7dqwrmxfw87",771,"46.csv","","271","resources/trios/L1T2A3.jpg","37","restless",0.6,0.5,0.1,0.815487309841537,"false"
"image-keyboard-response",445,331301,"0.0-4.144-1.144","4dsn7dqwrmxfw87",771,"46.csv","","null","resources/maskTrios/L1BB.jpg","null","",NA,NA,NA,NA,""
"image-keyboard-response",446,332621,"0.0-4.144-2.144","4dsn7dqwrmxfw87",771,"46.csv","","null","resources/images/fishbone.png","null","",NA,NA,NA,NA,""
"image-keyboard-response",447,332799,"0.0-4.145-0.145","4dsn7dqwrmxfw87",771,"46.csv","","174","resources/trios/L1T2A3.jpg","37","restless",0.6,0.5,0.1,0.402849023784057,"true"
"image-keyboard-response",448,333213,"0.0-4.145-1.145","4dsn7dqwrmxfw87",771,"46.csv","","null","resources/maskTrios/L1BB.jpg","null","",NA,NA,NA,NA,""
"image-keyboard-response",449,334420,"0.0-4.145-2.145","4dsn7dqwrmxfw87",771,"46.csv","","null","resources/images/coin2.png","null","",NA,NA,NA,NA,""
"image-keyboard-response",450,334803,"0.0-4.146-0.146","4dsn7dqwrmxfw87",771,"46.csv","","379","resources/trios/L1T2A3.jpg","38","restless",0.5,0.5,0.2,0.757443220050473,"false"
"image-keyboard-response",451,335209,"0.0-4.146-1.146","4dsn7dqwrmxfw87",771,"46.csv","","null","resources/maskTrios/BT2B.jpg","null","",NA,NA,NA,NA,""
"image-keyboard-response",452,336415,"0.0-4.146-2.146","4dsn7dqwrmxfw87",771,"46.csv","","null","resources/images/fishbone.png","null","",NA,NA,NA,NA,""
"image-keyboard-response",453,336716,"0.0-4.147-0.147","4dsn7dqwrmxfw87",771,"46.csv","","299","resources/trios/L1T2A3.jpg","39","restless",0.5,0.5,0.2,0.440195885972098,"false"
"image-keyboard-response",454,337127,"0.0-4.147-1.147","4dsn7dqwrmxfw87",771,"46.csv","","null","resources/maskTrios/BBA3.jpg","null","",NA,NA,NA,NA,""
"image-keyboard-response",455,338343,"0.0-4.147-2.147","4dsn7dqwrmxfw87",771,"46.csv","","null","resources/images/fishbone.png","null","",NA,NA,NA,NA,""
"image-keyboard-response",456,339218,"0.0-4.148-0.148","4dsn7dqwrmxfw87",771,"46.csv","","872","resources/trios/L1T2A3.jpg","39","restless",0.6,0.5,0.2,0.895932002634137,"false"
"image-keyboard-response",457,339635,"0.0-4.148-1.148","4dsn7dqwrmxfw87",771,"46.csv","","null","resources/maskTrios/BBA3.jpg","null","",NA,NA,NA,NA,""
"image-keyboard-response",458,340846,"0.0-4.148-2.148","4dsn7dqwrmxfw87",771,"46.csv","","null","resources/images/fishbone.png","null","",NA,NA,NA,NA,""
"image-keyboard-response",459,341067,"0.0-4.149-0.149","4dsn7dqwrmxfw87",771,"46.csv","","218","resources/trios/L1T2A3.jpg","38","restless",0.6,0.5,0.3,0.500535709412381,"false"
"image-keyboard-response",460,341480,"0.0-4.149-1.149","4dsn7dqwrmxfw87",771,"46.csv","","null","resources/maskTrios/BT2B.jpg","null","",NA,NA,NA,NA,""
"image-keyboard-response",461,342724,"0.0-4.149-2.149","4dsn7dqwrmxfw87",771,"46.csv","","null","resources/images/fishbone.png","null","",NA,NA,NA,NA,""
"image-keyboard-response",462,342809,"0.0-4.150-0.150","4dsn7dqwrmxfw87",771,"46.csv","","83","resources/trios/L1T2A3.jpg","39","restless",0.6,0.5,0.3,0.81034474440271,"false"
"image-keyboard-response",463,343220,"0.0-4.150-1.150","4dsn7dqwrmxfw87",771,"46.csv","","null","resources/maskTrios/BBA3.jpg","null","",NA,NA,NA,NA,""
"image-keyboard-response",464,344435,"0.0-4.150-2.150","4dsn7dqwrmxfw87",771,"46.csv","","null","resources/images/fishbone.png","null","",NA,NA,NA,NA,""
"image-keyboard-response",465,344549,"0.0-4.151-0.151","4dsn7dqwrmxfw87",771,"46.csv","","112","resources/trios/L1T2A3.jpg","37","restless",0.6,0.5,0.3,0.174648249822203,"true"
"image-keyboard-response",466,344962,"0.0-4.151-1.151","4dsn7dqwrmxfw87",771,"46.csv","","null","resources/maskTrios/L1BB.jpg","null","",NA,NA,NA,NA,""
"image-keyboard-response",467,346170,"0.0-4.151-2.151","4dsn7dqwrmxfw87",771,"46.csv","","null","resources/images/coin2.png","null","",NA,NA,NA,NA,""
"image-keyboard-response",468,346439,"0.0-4.152-0.152","4dsn7dqwrmxfw87",771,"46.csv","","266","resources/trios/L1T2A3.jpg","37","restless",0.6,0.5,0.3,0.196192388082424,"true"
"image-keyboard-response",469,346851,"0.0-4.152-1.152","4dsn7dqwrmxfw87",771,"46.csv","","null","resources/maskTrios/L1BB.jpg","null","",NA,NA,NA,NA,""
"image-keyboard-response",470,348172,"0.0-4.152-2.152","4dsn7dqwrmxfw87",771,"46.csv","","null","resources/images/coin2.png","null","",NA,NA,NA,NA,""
"image-keyboard-response",471,348322,"0.0-4.153-0.153","4dsn7dqwrmxfw87",771,"46.csv","","148","resources/trios/L1T2A3.jpg","37","restless",0.6,0.5,0.3,0.0412848423437958,"true"
"image-keyboard-response",472,348733,"0.0-4.153-1.153","4dsn7dqwrmxfw87",771,"46.csv","","null","resources/maskTrios/L1BB.jpg","null","",NA,NA,NA,NA,""
"image-keyboard-response",473,349946,"0.0-4.153-2.153","4dsn7dqwrmxfw87",771,"46.csv","","null","resources/images/coin2.png","null","",NA,NA,NA,NA,""
"image-keyboard-response",474,350045,"0.0-4.154-0.154","4dsn7dqwrmxfw87",771,"46.csv","","97","resources/trios/L1T2A3.jpg","37","restless",0.6,0.5,0.3,0.286286734327655,"true"
"image-keyboard-response",475,350461,"0.0-4.154-1.154","4dsn7dqwrmxfw87",771,"46.csv","","null","resources/maskTrios/L1BB.jpg","null","",NA,NA,NA,NA,""
"image-keyboard-response",476,351673,"0.0-4.154-2.154","4dsn7dqwrmxfw87",771,"46.csv","","null","resources/images/coin2.png","null","",NA,NA,NA,NA,""
"image-keyboard-response",477,351951,"0.0-4.155-0.155","4dsn7dqwrmxfw87",771,"46.csv","","276","resources/trios/L1T2A3.jpg","37","restless",0.6,0.5,0.3,0.720926004416782,"false"
"image-keyboard-response",478,352358,"0.0-4.155-1.155","4dsn7dqwrmxfw87",771,"46.csv","","null","resources/maskTrios/L1BB.jpg","null","",NA,NA,NA,NA,""
"image-keyboard-response",479,353573,"0.0-4.155-2.155","4dsn7dqwrmxfw87",771,"46.csv","","null","resources/images/fishbone.png","null","",NA,NA,NA,NA,""
"image-keyboard-response",480,353891,"0.0-4.156-0.156","4dsn7dqwrmxfw87",771,"46.csv","","314","resources/trios/L1T2A3.jpg","38","restless",0.7,0.5,0.3,0.831249663394536,"false"
"image-keyboard-response",481,354306,"0.0-4.156-1.156","4dsn7dqwrmxfw87",771,"46.csv","","null","resources/maskTrios/BT2B.jpg","null","",NA,NA,NA,NA,""
"image-keyboard-response",482,355511,"0.0-4.156-2.156","4dsn7dqwrmxfw87",771,"46.csv","","null","resources/images/fishbone.png","null","",NA,NA,NA,NA,""
"image-keyboard-response",483,355787,"0.0-4.157-0.157","4dsn7dqwrmxfw87",771,"46.csv","","274","resources/trios/L1T2A3.jpg","39","restless",0.8,0.5,0.4,0.713542410231292,"false"
"image-keyboard-response",484,356194,"0.0-4.157-1.157","4dsn7dqwrmxfw87",771,"46.csv","","null","resources/maskTrios/BBA3.jpg","null","",NA,NA,NA,NA,""
"image-keyboard-response",485,357515,"0.0-4.157-2.157","4dsn7dqwrmxfw87",771,"46.csv","","null","resources/images/fishbone.png","null","",NA,NA,NA,NA,""
"image-keyboard-response",486,357675,"0.0-4.158-0.158","4dsn7dqwrmxfw87",771,"46.csv","","158","resources/trios/L1T2A3.jpg","37","restless",0.8,0.5,0.3,0.488649751911974,"true"
"image-keyboard-response",487,358091,"0.0-4.158-1.158","4dsn7dqwrmxfw87",771,"46.csv","","null","resources/maskTrios/L1BB.jpg","null","",NA,NA,NA,NA,""
"image-keyboard-response",488,359412,"0.0-4.158-2.158","4dsn7dqwrmxfw87",771,"46.csv","","null","resources/images/coin2.png","null","",NA,NA,NA,NA,""
"image-keyboard-response",489,360194,"0.0-4.159-0.159","4dsn7dqwrmxfw87",771,"46.csv","","781","resources/trios/L1T2A3.jpg","37","restless",0.8,0.5,0.3,0.679947753754659,"true"
"image-keyboard-response",490,360606,"0.0-4.159-1.159","4dsn7dqwrmxfw87",771,"46.csv","","null","resources/maskTrios/L1BB.jpg","null","",NA,NA,NA,NA,""
"image-keyboard-response",491,361823,"0.0-4.159-2.159","4dsn7dqwrmxfw87",771,"46.csv","","null","resources/images/coin2.png","null","",NA,NA,NA,NA,""
"image-keyboard-response",492,362168,"0.0-4.160-0.160","4dsn7dqwrmxfw87",771,"46.csv","","345","resources/trios/L1T2A3.jpg","37","restless",0.8,0.5,0.3,0.720347631449191,"true"
"image-keyboard-response",493,362571,"0.0-4.160-1.160","4dsn7dqwrmxfw87",771,"46.csv","","null","resources/maskTrios/L1BB.jpg","null","",NA,NA,NA,NA,""
"image-keyboard-response",494,363837,"0.0-4.160-2.160","4dsn7dqwrmxfw87",771,"46.csv","","null","resources/images/coin2.png","null","",NA,NA,NA,NA,""
"image-keyboard-response",495,364171,"0.0-4.161-0.161","4dsn7dqwrmxfw87",771,"46.csv","","332","resources/trios/L1T2A3.jpg","37","restless",0.8,0.5,0.3,0.333067508295139,"true"
"image-keyboard-response",496,364581,"0.0-4.161-1.161","4dsn7dqwrmxfw87",771,"46.csv","","null","resources/maskTrios/L1BB.jpg","null","",NA,NA,NA,NA,""
"image-keyboard-response",497,365871,"0.0-4.161-2.161","4dsn7dqwrmxfw87",771,"46.csv","","null","resources/images/coin2.png","null","",NA,NA,NA,NA,""
"image-keyboard-response",498,366122,"0.0-4.162-0.162","4dsn7dqwrmxfw87",771,"46.csv","","250","resources/trios/L1T2A3.jpg","37","restless",0.9,0.5,0.3,0.360313883882076,"true"
"image-keyboard-response",499,366524,"0.0-4.162-1.162","4dsn7dqwrmxfw87",771,"46.csv","","null","resources/maskTrios/L1BB.jpg","null","",NA,NA,NA,NA,""
"image-keyboard-response",500,367734,"0.0-4.162-2.162","4dsn7dqwrmxfw87",771,"46.csv","","null","resources/images/coin2.png","null","",NA,NA,NA,NA,""
"image-keyboard-response",501,368017,"0.0-4.163-0.163","4dsn7dqwrmxfw87",771,"46.csv","","280","resources/trios/L1T2A3.jpg","37","restless",0.8,0.5,0.3,0.0763924848567438,"true"
"image-keyboard-response",502,368421,"0.0-4.163-1.163","4dsn7dqwrmxfw87",771,"46.csv","","null","resources/maskTrios/L1BB.jpg","null","",NA,NA,NA,NA,""
"image-keyboard-response",503,369636,"0.0-4.163-2.163","4dsn7dqwrmxfw87",771,"46.csv","","null","resources/images/coin2.png","null","",NA,NA,NA,NA,""
"image-keyboard-response",504,369748,"0.0-4.164-0.164","4dsn7dqwrmxfw87",771,"46.csv","","111","resources/trios/L1T2A3.jpg","37","restless",0.8,0.5,0.3,0.628337741949276,"true"
"image-keyboard-response",505,370152,"0.0-4.164-1.164","4dsn7dqwrmxfw87",771,"46.csv","","null","resources/maskTrios/L1BB.jpg","null","",NA,NA,NA,NA,""
"image-keyboard-response",506,371353,"0.0-4.164-2.164","4dsn7dqwrmxfw87",771,"46.csv","","null","resources/images/coin2.png","null","",NA,NA,NA,NA,""
"image-keyboard-response",507,371386,"0.0-4.165-0.165","4dsn7dqwrmxfw87",771,"46.csv","","31","resources/trios/L1T2A3.jpg","37","restless",0.8,0.5,0.2,0.111620623464765,"true"
"image-keyboard-response",508,371792,"0.0-4.165-1.165","4dsn7dqwrmxfw87",771,"46.csv","","null","resources/maskTrios/L1BB.jpg","null","",NA,NA,NA,NA,""
"image-keyboard-response",509,372994,"0.0-4.165-2.165","4dsn7dqwrmxfw87",771,"46.csv","","null","resources/images/coin2.png","null","",NA,NA,NA,NA,""
"image-keyboard-response",510,373246,"0.0-4.166-0.166","4dsn7dqwrmxfw87",771,"46.csv","","250","resources/trios/L1T2A3.jpg","37","restless",0.8,0.5,0.2,0.248450468649742,"true"
"image-keyboard-response",511,373651,"0.0-4.166-1.166","4dsn7dqwrmxfw87",771,"46.csv","","null","resources/maskTrios/L1BB.jpg","null","",NA,NA,NA,NA,""
"image-keyboard-response",512,375004,"0.0-4.166-2.166","4dsn7dqwrmxfw87",771,"46.csv","","null","resources/images/coin2.png","null","",NA,NA,NA,NA,""
"image-keyboard-response",513,375081,"0.0-4.167-0.167","4dsn7dqwrmxfw87",771,"46.csv","","75","resources/trios/L1T2A3.jpg","37","restless",0.8,0.5,0.2,0.282309831213339,"true"
"image-keyboard-response",514,375485,"0.0-4.167-1.167","4dsn7dqwrmxfw87",771,"46.csv","","null","resources/maskTrios/L1BB.jpg","null","",NA,NA,NA,NA,""
"image-keyboard-response",515,376696,"0.0-4.167-2.167","4dsn7dqwrmxfw87",771,"46.csv","","null","resources/images/coin2.png","null","",NA,NA,NA,NA,""
"image-keyboard-response",516,376960,"0.0-4.168-0.168","4dsn7dqwrmxfw87",771,"46.csv","","261","resources/trios/L1T2A3.jpg","37","restless",0.8,0.5,0.3,0.679495517223356,"true"
"image-keyboard-response",517,377364,"0.0-4.168-1.168","4dsn7dqwrmxfw87",771,"46.csv","","null","resources/maskTrios/L1BB.jpg","null","",NA,NA,NA,NA,""
"image-keyboard-response",518,378580,"0.0-4.168-2.168","4dsn7dqwrmxfw87",771,"46.csv","","null","resources/images/coin2.png","null","",NA,NA,NA,NA,""
"image-keyboard-response",519,378948,"0.0-4.169-0.169","4dsn7dqwrmxfw87",771,"46.csv","","367","resources/trios/L1T2A3.jpg","37","restless",0.8,0.6,0.4,0.284904583254041,"true"
"image-keyboard-response",520,379360,"0.0-4.169-1.169","4dsn7dqwrmxfw87",771,"46.csv","","null","resources/maskTrios/L1BB.jpg","null","",NA,NA,NA,NA,""
"image-keyboard-response",521,380574,"0.0-4.169-2.169","4dsn7dqwrmxfw87",771,"46.csv","","null","resources/images/coin2.png","null","",NA,NA,NA,NA,""
"image-keyboard-response",522,380731,"0.0-4.170-0.170","4dsn7dqwrmxfw87",771,"46.csv","","155","resources/trios/L1T2A3.jpg","37","restless",0.8,0.6,0.4,0.424230296320701,"true"
"image-keyboard-response",523,381134,"0.0-4.170-1.170","4dsn7dqwrmxfw87",771,"46.csv","","null","resources/maskTrios/L1BB.jpg","null","",NA,NA,NA,NA,""
"image-keyboard-response",524,382339,"0.0-4.170-2.170","4dsn7dqwrmxfw87",771,"46.csv","","null","resources/images/coin2.png","null","",NA,NA,NA,NA,""
"image-keyboard-response",525,382670,"0.0-4.171-0.171","4dsn7dqwrmxfw87",771,"46.csv","","330","resources/trios/L1T2A3.jpg","37","restless",0.8,0.5,0.4,0.698918271984142,"true"
"image-keyboard-response",526,383084,"0.0-4.171-1.171","4dsn7dqwrmxfw87",771,"46.csv","","null","resources/maskTrios/L1BB.jpg","null","",NA,NA,NA,NA,""
"image-keyboard-response",527,384301,"0.0-4.171-2.171","4dsn7dqwrmxfw87",771,"46.csv","","null","resources/images/coin2.png","null","",NA,NA,NA,NA,""
"image-keyboard-response",528,384567,"0.0-4.172-0.172","4dsn7dqwrmxfw87",771,"46.csv","","264","resources/trios/L1T2A3.jpg","37","restless",0.8,0.5,0.4,0.307102422126239,"true"
"image-keyboard-response",529,384983,"0.0-4.172-1.172","4dsn7dqwrmxfw87",771,"46.csv","","null","resources/maskTrios/L1BB.jpg","null","",NA,NA,NA,NA,""
"image-keyboard-response",530,386305,"0.0-4.172-2.172","4dsn7dqwrmxfw87",771,"46.csv","","null","resources/images/coin2.png","null","",NA,NA,NA,NA,""
"image-keyboard-response",531,386627,"0.0-4.173-0.173","4dsn7dqwrmxfw87",771,"46.csv","","320","resources/trios/L1T2A3.jpg","37","restless",0.8,0.5,0.4,0.161670917660969,"true"
"image-keyboard-response",532,387034,"0.0-4.173-1.173","4dsn7dqwrmxfw87",771,"46.csv","","null","resources/maskTrios/L1BB.jpg","null","",NA,NA,NA,NA,""
"image-keyboard-response",533,388322,"0.0-4.173-2.173","4dsn7dqwrmxfw87",771,"46.csv","","null","resources/images/coin2.png","null","",NA,NA,NA,NA,""
"image-keyboard-response",534,388612,"0.0-4.174-0.174","4dsn7dqwrmxfw87",771,"46.csv","","289","resources/trios/L1T2A3.jpg","37","restless",0.8,0.5,0.4,0.986454212109066,"false"
"image-keyboard-response",535,389024,"0.0-4.174-1.174","4dsn7dqwrmxfw87",771,"46.csv","","null","resources/maskTrios/L1BB.jpg","null","",NA,NA,NA,NA,""
"image-keyboard-response",536,390343,"0.0-4.174-2.174","4dsn7dqwrmxfw87",771,"46.csv","","null","resources/images/fishbone.png","null","",NA,NA,NA,NA,""
"image-keyboard-response",537,390632,"0.0-4.175-0.175","4dsn7dqwrmxfw87",771,"46.csv","","287","resources/trios/L1T2A3.jpg","38","restless",0.8,0.5,0.4,0.401968164286817,"true"
"image-keyboard-response",538,391042,"0.0-4.175-1.175","4dsn7dqwrmxfw87",771,"46.csv","","null","resources/maskTrios/BT2B.jpg","null","",NA,NA,NA,NA,""
"image-keyboard-response",539,392371,"0.0-4.175-2.175","4dsn7dqwrmxfw87",771,"46.csv","","null","resources/images/coin2.png","null","",NA,NA,NA,NA,""
"image-keyboard-response",540,392625,"0.0-4.176-0.176","4dsn7dqwrmxfw87",771,"46.csv","","252","resources/trios/L1T2A3.jpg","38","restless",0.8,0.5,0.4,0.93419742601177,"false"
"image-keyboard-response",541,393040,"0.0-4.176-1.176","4dsn7dqwrmxfw87",771,"46.csv","","null","resources/maskTrios/BT2B.jpg","null","",NA,NA,NA,NA,""
"image-keyboard-response",542,394396,"0.0-4.176-2.176","4dsn7dqwrmxfw87",771,"46.csv","","null","resources/images/fishbone.png","null","",NA,NA,NA,NA,""
"image-keyboard-response",543,394707,"0.0-4.177-0.177","4dsn7dqwrmxfw87",771,"46.csv","","309","resources/trios/L1T2A3.jpg","39","restless",0.8,0.4,0.4,0.946820596938283,"false"
"image-keyboard-response",544,395113,"0.0-4.177-1.177","4dsn7dqwrmxfw87",771,"46.csv","","null","resources/maskTrios/BBA3.jpg","null","",NA,NA,NA,NA,""
"image-keyboard-response",545,396417,"0.0-4.177-2.177","4dsn7dqwrmxfw87",771,"46.csv","","null","resources/images/fishbone.png","null","",NA,NA,NA,NA,""
"image-keyboard-response",546,396614,"0.0-4.178-0.178","4dsn7dqwrmxfw87",771,"46.csv","","194","resources/trios/L1T2A3.jpg","39","restless",0.8,0.4,0.4,0.143309170957404,"true"
"image-keyboard-response",547,397026,"0.0-4.178-1.178","4dsn7dqwrmxfw87",771,"46.csv","","null","resources/maskTrios/BBA3.jpg","null","",NA,NA,NA,NA,""
"image-keyboard-response",548,398236,"0.0-4.178-2.178","4dsn7dqwrmxfw87",771,"46.csv","","null","resources/images/coin2.png","null","",NA,NA,NA,NA,""
"image-keyboard-response",549,398412,"0.0-4.179-0.179","4dsn7dqwrmxfw87",771,"46.csv","","173","resources/trios/L1T2A3.jpg","39","restless",0.8,0.4,0.4,0.316282678775415,"true"
"image-keyboard-response",550,398825,"0.0-4.179-1.179","4dsn7dqwrmxfw87",771,"46.csv","","null","resources/maskTrios/BBA3.jpg","null","",NA,NA,NA,NA,""
"image-keyboard-response",551,400036,"0.0-4.179-2.179","4dsn7dqwrmxfw87",771,"46.csv","","null","resources/images/coin2.png","null","",NA,NA,NA,NA,""
"image-keyboard-response",552,400364,"0.0-4.180-0.180","4dsn7dqwrmxfw87",771,"46.csv","","327","resources/trios/L1T2A3.jpg","39","restless",0.8,0.4,0.4,0.923363329778882,"false"
"image-keyboard-response",553,400768,"0.0-4.180-1.180","4dsn7dqwrmxfw87",771,"46.csv","","null","resources/maskTrios/BBA3.jpg","null","",NA,NA,NA,NA,""
"image-keyboard-response",554,401974,"0.0-4.180-2.180","4dsn7dqwrmxfw87",771,"46.csv","","null","resources/images/fishbone.png","null","",NA,NA,NA,NA,""
"image-keyboard-response",555,402272,"0.0-4.181-0.181","4dsn7dqwrmxfw87",771,"46.csv","","297","resources/trios/L1T2A3.jpg","37","restless",0.8,0.4,0.4,0.565332366707246,"true"
"image-keyboard-response",556,402677,"0.0-4.181-1.181","4dsn7dqwrmxfw87",771,"46.csv","","null","resources/maskTrios/L1BB.jpg","null","",NA,NA,NA,NA,""
"image-keyboard-response",557,403888,"0.0-4.181-2.181","4dsn7dqwrmxfw87",771,"46.csv","","null","resources/images/coin2.png","null","",NA,NA,NA,NA,""
"image-keyboard-response",558,404236,"0.0-4.182-0.182","4dsn7dqwrmxfw87",771,"46.csv","","345","resources/trios/L1T2A3.jpg","37","restless",0.8,0.4,0.4,0.867608436302194,"false"
"image-keyboard-response",559,404680,"0.0-4.182-1.182","4dsn7dqwrmxfw87",771,"46.csv","","null","resources/maskTrios/L1BB.jpg","null","",NA,NA,NA,NA,""
"image-keyboard-response",560,405893,"0.0-4.182-2.182","4dsn7dqwrmxfw87",771,"46.csv","","null","resources/images/fishbone.png","null","",NA,NA,NA,NA,""
"image-keyboard-response",561,406140,"0.0-4.183-0.183","4dsn7dqwrmxfw87",771,"46.csv","","246","resources/trios/L1T2A3.jpg","38","restless",0.8,0.4,0.4,0.699516466728645,"false"
"image-keyboard-response",562,406543,"0.0-4.183-1.183","4dsn7dqwrmxfw87",771,"46.csv","","null","resources/maskTrios/BT2B.jpg","null","",NA,NA,NA,NA,""
"image-keyboard-response",563,407755,"0.0-4.183-2.183","4dsn7dqwrmxfw87",771,"46.csv","","null","resources/images/fishbone.png","null","",NA,NA,NA,NA,""
"image-keyboard-response",564,407851,"0.0-4.184-0.184","4dsn7dqwrmxfw87",771,"46.csv","","94","resources/trios/L1T2A3.jpg","39","restless",0.7,0.3,0.4,0.986157486386283,"false"
"image-keyboard-response",565,408266,"0.0-4.184-1.184","4dsn7dqwrmxfw87",771,"46.csv","","null","resources/maskTrios/BBA3.jpg","null","",NA,NA,NA,NA,""
"image-keyboard-response",566,409478,"0.0-4.184-2.184","4dsn7dqwrmxfw87",771,"46.csv","","null","resources/images/fishbone.png","null","",NA,NA,NA,NA,""
"image-keyboard-response",567,409750,"0.0-4.185-0.185","4dsn7dqwrmxfw87",771,"46.csv","","270","resources/trios/L1T2A3.jpg","37","restless",0.7,0.3,0.4,0.730507094886501,"false"
"image-keyboard-response",568,410164,"0.0-4.185-1.185","4dsn7dqwrmxfw87",771,"46.csv","","null","resources/maskTrios/L1BB.jpg","null","",NA,NA,NA,NA,""
"image-keyboard-response",569,411487,"0.0-4.185-2.185","4dsn7dqwrmxfw87",771,"46.csv","","null","resources/images/fishbone.png","null","",NA,NA,NA,NA,""
"image-keyboard-response",570,411548,"0.0-4.186-0.186","4dsn7dqwrmxfw87",771,"46.csv","","58","resources/trios/L1T2A3.jpg","39","restless",0.7,0.3,0.4,0.910320432448056,"false"
"image-keyboard-response",571,411954,"0.0-4.186-1.186","4dsn7dqwrmxfw87",771,"46.csv","","null","resources/maskTrios/BBA3.jpg","null","",NA,NA,NA,NA,""
"image-keyboard-response",572,413168,"0.0-4.186-2.186","4dsn7dqwrmxfw87",771,"46.csv","","null","resources/images/fishbone.png","null","",NA,NA,NA,NA,""
"image-keyboard-response",573,413417,"0.0-4.187-0.187","4dsn7dqwrmxfw87",771,"46.csv","","247","resources/trios/L1T2A3.jpg","39","restless",0.6,0.3,0.4,0.540872995086328,"false"
"image-keyboard-response",574,413822,"0.0-4.187-1.187","4dsn7dqwrmxfw87",771,"46.csv","","null","resources/maskTrios/BBA3.jpg","null","",NA,NA,NA,NA,""
"image-keyboard-response",575,415031,"0.0-4.187-2.187","4dsn7dqwrmxfw87",771,"46.csv","","null","resources/images/fishbone.png","null","",NA,NA,NA,NA,""
"image-keyboard-response",576,415295,"0.0-4.188-0.188","4dsn7dqwrmxfw87",771,"46.csv","","263","resources/trios/L1T2A3.jpg","39","restless",0.6,0.3,0.4,0.631498982291182,"false"
"image-keyboard-response",577,415698,"0.0-4.188-1.188","4dsn7dqwrmxfw87",771,"46.csv","","null","resources/maskTrios/BBA3.jpg","null","",NA,NA,NA,NA,""
"image-keyboard-response",578,416913,"0.0-4.188-2.188","4dsn7dqwrmxfw87",771,"46.csv","","null","resources/images/fishbone.png","null","",NA,NA,NA,NA,""
"image-keyboard-response",579,417168,"0.0-4.189-0.189","4dsn7dqwrmxfw87",771,"46.csv","","254","resources/trios/L1T2A3.jpg","38","restless",0.6,0.3,0.4,0.657586837829181,"false"
"image-keyboard-response",580,417585,"0.0-4.189-1.189","4dsn7dqwrmxfw87",771,"46.csv","","null","resources/maskTrios/BT2B.jpg","null","",NA,NA,NA,NA,""
"image-keyboard-response",581,418920,"0.0-4.189-2.189","4dsn7dqwrmxfw87",771,"46.csv","","null","resources/images/fishbone.png","null","",NA,NA,NA,NA,""
"image-keyboard-response",582,419193,"0.0-4.190-0.190","4dsn7dqwrmxfw87",771,"46.csv","","272","resources/trios/L1T2A3.jpg","39","restless",0.6,0.3,0.4,0.0744941427611999,"true"
"image-keyboard-response",583,419601,"0.0-4.190-1.190","4dsn7dqwrmxfw87",771,"46.csv","","null","resources/maskTrios/BBA3.jpg","null","",NA,NA,NA,NA,""
"image-keyboard-response",584,420947,"0.0-4.190-2.190","4dsn7dqwrmxfw87",771,"46.csv","","null","resources/images/coin2.png","null","",NA,NA,NA,NA,""
"image-keyboard-response",585,420982,"0.0-4.191-0.191","4dsn7dqwrmxfw87",771,"46.csv","","33","resources/trios/L1T2A3.jpg","39","restless",0.6,0.3,0.4,0.844550024534718,"false"
"image-keyboard-response",586,421383,"0.0-4.191-1.191","4dsn7dqwrmxfw87",771,"46.csv","","null","resources/maskTrios/BBA3.jpg","null","",NA,NA,NA,NA,""
"image-keyboard-response",587,422587,"0.0-4.191-2.191","4dsn7dqwrmxfw87",771,"46.csv","","null","resources/images/fishbone.png","null","",NA,NA,NA,NA,""
"image-keyboard-response",588,422918,"0.0-4.192-0.192","4dsn7dqwrmxfw87",771,"46.csv","","329","resources/trios/L1T2A3.jpg","37","restless",0.6,0.3,0.4,0.28474332362659,"true"
"image-keyboard-response",589,423330,"0.0-4.192-1.192","4dsn7dqwrmxfw87",771,"46.csv","","null","resources/maskTrios/L1BB.jpg","null","",NA,NA,NA,NA,""
"image-keyboard-response",590,424537,"0.0-4.192-2.192","4dsn7dqwrmxfw87",771,"46.csv","","null","resources/images/coin2.png","null","",NA,NA,NA,NA,""
"image-keyboard-response",591,424794,"0.0-4.193-0.193","4dsn7dqwrmxfw87",771,"46.csv","","255","resources/trios/L1T2A3.jpg","37","restless",0.6,0.2,0.4,0.498100493549871,"true"
"image-keyboard-response",592,425206,"0.0-4.193-1.193","4dsn7dqwrmxfw87",771,"46.csv","","null","resources/maskTrios/L1BB.jpg","null","",NA,NA,NA,NA,""
"image-keyboard-response",593,426419,"0.0-4.193-2.193","4dsn7dqwrmxfw87",771,"46.csv","","null","resources/images/coin2.png","null","",NA,NA,NA,NA,""
"image-keyboard-response",594,426668,"0.0-4.194-0.194","4dsn7dqwrmxfw87",771,"46.csv","","249","resources/trios/L1T2A3.jpg","37","restless",0.6,0.3,0.4,0.956848112383819,"false"
"image-keyboard-response",595,427073,"0.0-4.194-1.194","4dsn7dqwrmxfw87",771,"46.csv","","null","resources/maskTrios/L1BB.jpg","null","",NA,NA,NA,NA,""
"image-keyboard-response",596,428285,"0.0-4.194-2.194","4dsn7dqwrmxfw87",771,"46.csv","","null","resources/images/fishbone.png","null","",NA,NA,NA,NA,""
"image-keyboard-response",597,428524,"0.0-4.195-0.195","4dsn7dqwrmxfw87",771,"46.csv","","236","resources/trios/L1T2A3.jpg","38","restless",0.6,0.3,0.4,0.352242378139783,"false"
"image-keyboard-response",598,428935,"0.0-4.195-1.195","4dsn7dqwrmxfw87",771,"46.csv","","null","resources/maskTrios/BT2B.jpg","null","",NA,NA,NA,NA,""
"image-keyboard-response",599,430136,"0.0-4.195-2.195","4dsn7dqwrmxfw87",771,"46.csv","","null","resources/images/fishbone.png","null","",NA,NA,NA,NA,""
"image-keyboard-response",600,430548,"0.0-4.196-0.196","4dsn7dqwrmxfw87",771,"46.csv","","410","resources/trios/L1T2A3.jpg","39","restless",0.5,0.3,0.4,0.76773831458178,"false"
"image-keyboard-response",601,430959,"0.0-4.196-1.196","4dsn7dqwrmxfw87",771,"46.csv","","null","resources/maskTrios/BBA3.jpg","null","",NA,NA,NA,NA,""
"image-keyboard-response",602,432171,"0.0-4.196-2.196","4dsn7dqwrmxfw87",771,"46.csv","","null","resources/images/fishbone.png","null","",NA,NA,NA,NA,""
"image-keyboard-response",603,432469,"0.0-4.197-0.197","4dsn7dqwrmxfw87",771,"46.csv","","296","resources/trios/L1T2A3.jpg","37","restless",0.4,0.3,0.4,0.138943550467467,"true"
"image-keyboard-response",604,432871,"0.0-4.197-1.197","4dsn7dqwrmxfw87",771,"46.csv","","null","resources/maskTrios/L1BB.jpg","null","",NA,NA,NA,NA,""
"image-keyboard-response",605,434079,"0.0-4.197-2.197","4dsn7dqwrmxfw87",771,"46.csv","","null","resources/images/coin2.png","null","",NA,NA,NA,NA,""
"image-keyboard-response",606,434365,"0.0-4.198-0.198","4dsn7dqwrmxfw87",771,"46.csv","","285","resources/trios/L1T2A3.jpg","37","restless",0.4,0.3,0.4,0.99338491247317,"false"
"image-keyboard-response",607,434775,"0.0-4.198-1.198","4dsn7dqwrmxfw87",771,"46.csv","","null","resources/maskTrios/L1BB.jpg","null","",NA,NA,NA,NA,""
"image-keyboard-response",608,435987,"0.0-4.198-2.198","4dsn7dqwrmxfw87",771,"46.csv","","null","resources/images/fishbone.png","null","",NA,NA,NA,NA,""
"image-keyboard-response",609,436822,"0.0-4.199-0.199","4dsn7dqwrmxfw87",771,"46.csv","","833","resources/trios/L1T2A3.jpg","37","restless",0.4,0.3,0.5,0.181133477136336,"true"
"image-keyboard-response",610,437232,"0.0-4.199-1.199","4dsn7dqwrmxfw87",771,"46.csv","","null","resources/maskTrios/L1BB.jpg","null","",NA,NA,NA,NA,""
"image-keyboard-response",611,438445,"0.0-4.199-2.199","4dsn7dqwrmxfw87",771,"46.csv","","null","resources/images/coin2.png","null","",NA,NA,NA,NA,""
"survey-text",612,466980,"0.0-5.0","4dsn7dqwrmxfw87",771,"46.csv","","28525","","","",NA,NA,NA,NA,""
