"trial_type","trial_index","time_elapsed","internal_node_id","subject","participantCode","walkNumber","success","rt","stimulus","key_press","test_part","leftProb","midProb","rightProb","generatedNum","correct"
"pavlovia",0,1198,"0.0-0.0","o0s5gwo44382rls",947,"62.csv","","","","","",NA,NA,NA,NA,""
"fullscreen",1,3870,"0.0-1.0","o0s5gwo44382rls",947,"62.csv","true","","","","",NA,NA,NA,NA,""
"survey-html-form",2,17811,"0.0-2.0","o0s5gwo44382rls",947,"62.csv","","13933.799999952316","","","",NA,NA,NA,NA,""
"image-keyboard-response",3,31587,"0.0-3.0-0.0","o0s5gwo44382rls",947,"62.csv","","13774.599999904633","resources/images/parrot_nobg.png","13","",NA,NA,NA,NA,""
"image-keyboard-response",4,34597,"0.0-3.0-1.0","o0s5gwo44382rls",947,"62.csv","","null","resources/image_sets/111.png","null","",NA,NA,NA,NA,""
"image-keyboard-response",5,40399,"0.0-3.0-2.0","o0s5gwo44382rls",947,"62.csv","","5800.200000047684","resources/image_sets/left_highlight.png","37","",NA,NA,NA,NA,""
"image-keyboard-response",6,42490,"0.0-3.0-3.0","o0s5gwo44382rls",947,"62.csv","","2089.5","resources/image_sets/mid_highlight.png","38","",NA,NA,NA,NA,""
"image-keyboard-response",7,43736,"0.0-3.0-4.0","o0s5gwo44382rls",947,"62.csv","","1244","resources/image_sets/right_highlight.png","39","",NA,NA,NA,NA,""
"image-keyboard-response",8,45440,"0.0-3.0-5.0","o0s5gwo44382rls",947,"62.csv","","1702.5","resources/image_sets/111.png","13","",NA,NA,NA,NA,""
"image-keyboard-response",9,48752,"0.0-3.0-6.0","o0s5gwo44382rls",947,"62.csv","","3310.5","resources/images/coin2.png","13","",NA,NA,NA,NA,""
"image-keyboard-response",10,50993,"0.0-3.0-7.0","o0s5gwo44382rls",947,"62.csv","","2240.399999856949","resources/images/fishbone.png","13","",NA,NA,NA,NA,""
"html-keyboard-response",11,52781,"0.0-3.0-8.0","o0s5gwo44382rls",947,"62.csv","","1786.4000000953674","<p>You can track your coin total on the top right of your screen. </p><p>At the end of your journey you will be directed to a survey, so please click on the link before exiting the task</p><p>Press Enter to begin</p>","13","",NA,NA,NA,NA,""
"image-keyboard-response",12,53771,"0.0-4.0-0.0","o0s5gwo44382rls",947,"62.csv","","986.7999999523163","resources/trios/L1T2A2.jpg","37","restless",0.3,0.7,0.9,0.796099370280605,"false"
"image-keyboard-response",13,54181,"0.0-4.0-1.0","o0s5gwo44382rls",947,"62.csv","","null","resources/maskTrios/L1BB.jpg","null","",NA,NA,NA,NA,""
"image-keyboard-response",14,55386,"0.0-4.0-2.0","o0s5gwo44382rls",947,"62.csv","","null","resources/images/fishbone.png","null","",NA,NA,NA,NA,""
"image-keyboard-response",15,55930,"0.0-4.1-0.1","o0s5gwo44382rls",947,"62.csv","","541.7000000476837","resources/trios/L1T2A2.jpg","38","restless",0.3,0.7,0.9,0.249601385189181,"true"
"image-keyboard-response",16,56341,"0.0-4.1-1.1","o0s5gwo44382rls",947,"62.csv","","null","resources/maskTrios/BT2B.jpg","null","",NA,NA,NA,NA,""
"image-keyboard-response",17,57558,"0.0-4.1-2.1","o0s5gwo44382rls",947,"62.csv","","null","resources/images/coin2.png","null","",NA,NA,NA,NA,""
"image-keyboard-response",18,58055,"0.0-4.2-0.2","o0s5gwo44382rls",947,"62.csv","","494.90000009536743","resources/trios/L1T2A2.jpg","39","restless",0.3,0.7,0.9,0.526966541873721,"true"
"image-keyboard-response",19,58469,"0.0-4.2-1.2","o0s5gwo44382rls",947,"62.csv","","null","resources/maskTrios/BBA2.jpg","null","",NA,NA,NA,NA,""
"image-keyboard-response",20,59677,"0.0-4.2-2.2","o0s5gwo44382rls",947,"62.csv","","null","resources/images/coin2.png","null","",NA,NA,NA,NA,""
"image-keyboard-response",21,60158,"0.0-4.3-0.3","o0s5gwo44382rls",947,"62.csv","","478.59999990463257","resources/trios/L1T2A2.jpg","38","restless",0.3,0.8,0.8,0.29730221757362,"true"
"image-keyboard-response",22,60573,"0.0-4.3-1.3","o0s5gwo44382rls",947,"62.csv","","null","resources/maskTrios/BT2B.jpg","null","",NA,NA,NA,NA,""
"image-keyboard-response",23,61781,"0.0-4.3-2.3","o0s5gwo44382rls",947,"62.csv","","null","resources/images/coin2.png","null","",NA,NA,NA,NA,""
"image-keyboard-response",24,62390,"0.0-4.4-0.4","o0s5gwo44382rls",947,"62.csv","","606.7000000476837","resources/trios/L1T2A2.jpg","39","restless",0.3,0.8,0.8,0.134347646859152,"true"
"image-keyboard-response",25,62805,"0.0-4.4-1.4","o0s5gwo44382rls",947,"62.csv","","null","resources/maskTrios/BBA2.jpg","null","",NA,NA,NA,NA,""
"image-keyboard-response",26,64013,"0.0-4.4-2.4","o0s5gwo44382rls",947,"62.csv","","null","resources/images/coin2.png","null","",NA,NA,NA,NA,""
"image-keyboard-response",27,64441,"0.0-4.5-0.5","o0s5gwo44382rls",947,"62.csv","","425.5","resources/trios/L1T2A2.jpg","38","restless",0.3,0.8,0.8,0.776073028589873,"true"
"image-keyboard-response",28,64849,"0.0-4.5-1.5","o0s5gwo44382rls",947,"62.csv","","null","resources/maskTrios/BT2B.jpg","null","",NA,NA,NA,NA,""
"image-keyboard-response",29,66061,"0.0-4.5-2.5","o0s5gwo44382rls",947,"62.csv","","null","resources/images/coin2.png","null","",NA,NA,NA,NA,""
"image-keyboard-response",30,66504,"0.0-4.6-0.6","o0s5gwo44382rls",947,"62.csv","","440.80000019073486","resources/trios/L1T2A2.jpg","39","restless",0.3,0.8,0.8,0.826282561316525,"false"
"image-keyboard-response",31,66917,"0.0-4.6-1.6","o0s5gwo44382rls",947,"62.csv","","null","resources/maskTrios/BBA2.jpg","null","",NA,NA,NA,NA,""
"image-keyboard-response",32,68126,"0.0-4.6-2.6","o0s5gwo44382rls",947,"62.csv","","null","resources/images/fishbone.png","null","",NA,NA,NA,NA,""
"image-keyboard-response",33,68587,"0.0-4.7-0.7","o0s5gwo44382rls",947,"62.csv","","459.39999985694885","resources/trios/L1T2A2.jpg","38","restless",0.2,0.7,0.8,0.500021339902835,"true"
"image-keyboard-response",34,68997,"0.0-4.7-1.7","o0s5gwo44382rls",947,"62.csv","","null","resources/maskTrios/BT2B.jpg","null","",NA,NA,NA,NA,""
"image-keyboard-response",35,70201,"0.0-4.7-2.7","o0s5gwo44382rls",947,"62.csv","","null","resources/images/coin2.png","null","",NA,NA,NA,NA,""
"image-keyboard-response",36,70675,"0.0-4.8-0.8","o0s5gwo44382rls",947,"62.csv","","471.5","resources/trios/L1T2A2.jpg","37","restless",0.2,0.7,0.8,0.431880903004211,"false"
"image-keyboard-response",37,71085,"0.0-4.8-1.8","o0s5gwo44382rls",947,"62.csv","","null","resources/maskTrios/L1BB.jpg","null","",NA,NA,NA,NA,""
"image-keyboard-response",38,72293,"0.0-4.8-2.8","o0s5gwo44382rls",947,"62.csv","","null","resources/images/fishbone.png","null","",NA,NA,NA,NA,""
"image-keyboard-response",39,72713,"0.0-4.9-0.9","o0s5gwo44382rls",947,"62.csv","","417.89999985694885","resources/trios/L1T2A2.jpg","38","restless",0.2,0.7,0.8,0.122005821104299,"true"
"image-keyboard-response",40,73125,"0.0-4.9-1.9","o0s5gwo44382rls",947,"62.csv","","null","resources/maskTrios/BT2B.jpg","null","",NA,NA,NA,NA,""
"image-keyboard-response",41,74331,"0.0-4.9-2.9","o0s5gwo44382rls",947,"62.csv","","null","resources/images/coin2.png","null","",NA,NA,NA,NA,""
"image-keyboard-response",42,74713,"0.0-4.10-0.10","o0s5gwo44382rls",947,"62.csv","","380.2999999523163","resources/trios/L1T2A2.jpg","38","restless",0.3,0.7,0.8,0.483253613255186,"true"
"image-keyboard-response",43,75125,"0.0-4.10-1.10","o0s5gwo44382rls",947,"62.csv","","null","resources/maskTrios/BT2B.jpg","null","",NA,NA,NA,NA,""
"image-keyboard-response",44,76333,"0.0-4.10-2.10","o0s5gwo44382rls",947,"62.csv","","null","resources/images/coin2.png","null","",NA,NA,NA,NA,""
"image-keyboard-response",45,76696,"0.0-4.11-0.11","o0s5gwo44382rls",947,"62.csv","","360.90000009536743","resources/trios/L1T2A2.jpg","38","restless",0.3,0.7,0.8,0.0208272445951094,"true"
"image-keyboard-response",46,77109,"0.0-4.11-1.11","o0s5gwo44382rls",947,"62.csv","","null","resources/maskTrios/BT2B.jpg","null","",NA,NA,NA,NA,""
"image-keyboard-response",47,78313,"0.0-4.11-2.11","o0s5gwo44382rls",947,"62.csv","","null","resources/images/coin2.png","null","",NA,NA,NA,NA,""
"image-keyboard-response",48,78686,"0.0-4.12-0.12","o0s5gwo44382rls",947,"62.csv","","371.40000009536743","resources/trios/L1T2A2.jpg","38","restless",0.3,0.7,0.8,0.11801798522678,"true"
"image-keyboard-response",49,79100,"0.0-4.12-1.12","o0s5gwo44382rls",947,"62.csv","","null","resources/maskTrios/BT2B.jpg","null","",NA,NA,NA,NA,""
"image-keyboard-response",50,80309,"0.0-4.12-2.12","o0s5gwo44382rls",947,"62.csv","","null","resources/images/coin2.png","null","",NA,NA,NA,NA,""
"image-keyboard-response",51,80871,"0.0-4.13-0.13","o0s5gwo44382rls",947,"62.csv","","559.7999999523163","resources/trios/L1T2A2.jpg","38","restless",0.3,0.7,0.8,0.83417517526146,"false"
"image-keyboard-response",52,81284,"0.0-4.13-1.13","o0s5gwo44382rls",947,"62.csv","","null","resources/maskTrios/BT2B.jpg","null","",NA,NA,NA,NA,""
"image-keyboard-response",53,82493,"0.0-4.13-2.13","o0s5gwo44382rls",947,"62.csv","","null","resources/images/fishbone.png","null","",NA,NA,NA,NA,""
"image-keyboard-response",54,82838,"0.0-4.14-0.14","o0s5gwo44382rls",947,"62.csv","","342.59999990463257","resources/trios/L1T2A2.jpg","37","restless",0.4,0.7,0.8,0.306761667469204,"true"
"image-keyboard-response",55,83253,"0.0-4.14-1.14","o0s5gwo44382rls",947,"62.csv","","null","resources/maskTrios/L1BB.jpg","null","",NA,NA,NA,NA,""
"image-keyboard-response",56,84461,"0.0-4.14-2.14","o0s5gwo44382rls",947,"62.csv","","null","resources/images/coin2.png","null","",NA,NA,NA,NA,""
"image-keyboard-response",57,84823,"0.0-4.15-0.15","o0s5gwo44382rls",947,"62.csv","","359.40000009536743","resources/trios/L1T2A2.jpg","37","restless",0.4,0.7,0.8,0.473599671714412,"false"
"image-keyboard-response",58,85237,"0.0-4.15-1.15","o0s5gwo44382rls",947,"62.csv","","null","resources/maskTrios/L1BB.jpg","null","",NA,NA,NA,NA,""
"image-keyboard-response",59,86445,"0.0-4.15-2.15","o0s5gwo44382rls",947,"62.csv","","null","resources/images/fishbone.png","null","",NA,NA,NA,NA,""
"image-keyboard-response",60,86760,"0.0-4.16-0.16","o0s5gwo44382rls",947,"62.csv","","313.80000019073486","resources/trios/L1T2A2.jpg","39","restless",0.3,0.7,0.8,0.591879320703938,"true"
"image-keyboard-response",61,87171,"0.0-4.16-1.16","o0s5gwo44382rls",947,"62.csv","","null","resources/maskTrios/BBA2.jpg","null","",NA,NA,NA,NA,""
"image-keyboard-response",62,88381,"0.0-4.16-2.16","o0s5gwo44382rls",947,"62.csv","","null","resources/images/coin2.png","null","",NA,NA,NA,NA,""
"image-keyboard-response",63,88711,"0.0-4.17-0.17","o0s5gwo44382rls",947,"62.csv","","327.90000009536743","resources/trios/L1T2A2.jpg","39","restless",0.3,0.7,0.8,0.803056220982923,"false"
"image-keyboard-response",64,89125,"0.0-4.17-1.17","o0s5gwo44382rls",947,"62.csv","","null","resources/maskTrios/BBA2.jpg","null","",NA,NA,NA,NA,""
"image-keyboard-response",65,90331,"0.0-4.17-2.17","o0s5gwo44382rls",947,"62.csv","","null","resources/images/fishbone.png","null","",NA,NA,NA,NA,""
"image-keyboard-response",66,90634,"0.0-4.18-0.18","o0s5gwo44382rls",947,"62.csv","","300.59999990463257","resources/trios/L1T2A2.jpg","38","restless",0.3,0.7,0.7,0.731163501746922,"false"
"image-keyboard-response",67,91044,"0.0-4.18-1.18","o0s5gwo44382rls",947,"62.csv","","null","resources/maskTrios/BT2B.jpg","null","",NA,NA,NA,NA,""
"image-keyboard-response",68,92249,"0.0-4.18-2.18","o0s5gwo44382rls",947,"62.csv","","null","resources/images/fishbone.png","null","",NA,NA,NA,NA,""
"image-keyboard-response",69,92614,"0.0-4.19-0.19","o0s5gwo44382rls",947,"62.csv","","363.30000019073486","resources/trios/L1T2A2.jpg","37","restless",0.3,0.7,0.7,0.401380778451229,"false"
"image-keyboard-response",70,93029,"0.0-4.19-1.19","o0s5gwo44382rls",947,"62.csv","","null","resources/maskTrios/L1BB.jpg","null","",NA,NA,NA,NA,""
"image-keyboard-response",71,94234,"0.0-4.19-2.19","o0s5gwo44382rls",947,"62.csv","","null","resources/images/fishbone.png","null","",NA,NA,NA,NA,""
"image-keyboard-response",72,94570,"0.0-4.20-0.20","o0s5gwo44382rls",947,"62.csv","","334.59999990463257","resources/trios/L1T2A2.jpg","39","restless",0.3,0.7,0.7,0.539372964381394,"true"
"image-keyboard-response",73,94981,"0.0-4.20-1.20","o0s5gwo44382rls",947,"62.csv","","null","resources/maskTrios/BBA2.jpg","null","",NA,NA,NA,NA,""
"image-keyboard-response",74,96189,"0.0-4.20-2.20","o0s5gwo44382rls",947,"62.csv","","null","resources/images/coin2.png","null","",NA,NA,NA,NA,""
"image-keyboard-response",75,96651,"0.0-4.21-0.21","o0s5gwo44382rls",947,"62.csv","","459.59999990463257","resources/trios/L1T2A2.jpg","39","restless",0.3,0.7,0.7,0.111466969616649,"true"
"image-keyboard-response",76,97060,"0.0-4.21-1.21","o0s5gwo44382rls",947,"62.csv","","null","resources/maskTrios/BBA2.jpg","null","",NA,NA,NA,NA,""
"image-keyboard-response",77,98269,"0.0-4.21-2.21","o0s5gwo44382rls",947,"62.csv","","null","resources/images/coin2.png","null","",NA,NA,NA,NA,""
"image-keyboard-response",78,98716,"0.0-4.22-0.22","o0s5gwo44382rls",947,"62.csv","","445.39999985694885","resources/trios/L1T2A2.jpg","39","restless",0.3,0.8,0.7,0.958591271905196,"false"
"image-keyboard-response",79,99125,"0.0-4.22-1.22","o0s5gwo44382rls",947,"62.csv","","null","resources/maskTrios/BBA2.jpg","null","",NA,NA,NA,NA,""
"image-keyboard-response",80,100333,"0.0-4.22-2.22","o0s5gwo44382rls",947,"62.csv","","null","resources/images/fishbone.png","null","",NA,NA,NA,NA,""
"image-keyboard-response",81,100659,"0.0-4.23-0.23","o0s5gwo44382rls",947,"62.csv","","324","resources/trios/L1T2A2.jpg","38","restless",0.3,0.8,0.7,0.985496121795517,"false"
"image-keyboard-response",82,101069,"0.0-4.23-1.23","o0s5gwo44382rls",947,"62.csv","","null","resources/maskTrios/BT2B.jpg","null","",NA,NA,NA,NA,""
"image-keyboard-response",83,102277,"0.0-4.23-2.23","o0s5gwo44382rls",947,"62.csv","","null","resources/images/fishbone.png","null","",NA,NA,NA,NA,""
"image-keyboard-response",84,102637,"0.0-4.24-0.24","o0s5gwo44382rls",947,"62.csv","","358.09999990463257","resources/trios/L1T2A2.jpg","37","restless",0.3,0.8,0.7,0.758166384296096,"false"
"image-keyboard-response",85,103045,"0.0-4.24-1.24","o0s5gwo44382rls",947,"62.csv","","null","resources/maskTrios/L1BB.jpg","null","",NA,NA,NA,NA,""
"image-keyboard-response",86,104253,"0.0-4.24-2.24","o0s5gwo44382rls",947,"62.csv","","null","resources/images/fishbone.png","null","",NA,NA,NA,NA,""
"image-keyboard-response",87,104700,"0.0-4.25-0.25","o0s5gwo44382rls",947,"62.csv","","444.69999980926514","resources/trios/L1T2A2.jpg","38","restless",0.4,0.8,0.8,0.833712463024041,"false"
"image-keyboard-response",88,105109,"0.0-4.25-1.25","o0s5gwo44382rls",947,"62.csv","","null","resources/maskTrios/BT2B.jpg","null","",NA,NA,NA,NA,""
"image-keyboard-response",89,106317,"0.0-4.25-2.25","o0s5gwo44382rls",947,"62.csv","","null","resources/images/fishbone.png","null","",NA,NA,NA,NA,""
"image-keyboard-response",90,107530,"0.0-4.26-0.26","o0s5gwo44382rls",947,"62.csv","","1211.8999998569489","resources/trios/L1T2A2.jpg","39","restless",0.4,0.8,0.7,0.191723017725921,"true"
"image-keyboard-response",91,107940,"0.0-4.26-1.26","o0s5gwo44382rls",947,"62.csv","","null","resources/maskTrios/BBA2.jpg","null","",NA,NA,NA,NA,""
"image-keyboard-response",92,109149,"0.0-4.26-2.26","o0s5gwo44382rls",947,"62.csv","","null","resources/images/coin2.png","null","",NA,NA,NA,NA,""
"image-keyboard-response",93,109743,"0.0-4.27-0.27","o0s5gwo44382rls",947,"62.csv","","591.5999999046326","resources/trios/L1T2A2.jpg","39","restless",0.4,0.8,0.7,0.125995033890604,"true"
"image-keyboard-response",94,110157,"0.0-4.27-1.27","o0s5gwo44382rls",947,"62.csv","","null","resources/maskTrios/BBA2.jpg","null","",NA,NA,NA,NA,""
"image-keyboard-response",95,111365,"0.0-4.27-2.27","o0s5gwo44382rls",947,"62.csv","","null","resources/images/coin2.png","null","",NA,NA,NA,NA,""
"image-keyboard-response",96,111649,"0.0-4.28-0.28","o0s5gwo44382rls",947,"62.csv","","281.40000009536743","resources/trios/L1T2A2.jpg","39","restless",0.4,0.8,0.7,0.473177513058982,"true"
"image-keyboard-response",97,112060,"0.0-4.28-1.28","o0s5gwo44382rls",947,"62.csv","","null","resources/maskTrios/BBA2.jpg","null","",NA,NA,NA,NA,""
"image-keyboard-response",98,113269,"0.0-4.28-2.28","o0s5gwo44382rls",947,"62.csv","","null","resources/images/coin2.png","null","",NA,NA,NA,NA,""
"image-keyboard-response",99,113574,"0.0-4.29-0.29","o0s5gwo44382rls",947,"62.csv","","303","resources/trios/L1T2A2.jpg","39","restless",0.4,0.8,0.7,0.412413318848193,"true"
"image-keyboard-response",100,113989,"0.0-4.29-1.29","o0s5gwo44382rls",947,"62.csv","","null","resources/maskTrios/BBA2.jpg","null","",NA,NA,NA,NA,""
"image-keyboard-response",101,115197,"0.0-4.29-2.29","o0s5gwo44382rls",947,"62.csv","","null","resources/images/coin2.png","null","",NA,NA,NA,NA,""
"image-keyboard-response",102,115549,"0.0-4.30-0.30","o0s5gwo44382rls",947,"62.csv","","349.39999985694885","resources/trios/L1T2A2.jpg","39","restless",0.4,0.8,0.7,0.257865092532877,"true"
"image-keyboard-response",103,115957,"0.0-4.30-1.30","o0s5gwo44382rls",947,"62.csv","","null","resources/maskTrios/BBA2.jpg","null","",NA,NA,NA,NA,""
"image-keyboard-response",104,117165,"0.0-4.30-2.30","o0s5gwo44382rls",947,"62.csv","","null","resources/images/coin2.png","null","",NA,NA,NA,NA,""
"image-keyboard-response",105,117450,"0.0-4.31-0.31","o0s5gwo44382rls",947,"62.csv","","282.90000009536743","resources/trios/L1T2A2.jpg","39","restless",0.4,0.8,0.7,0.416701814199967,"true"
"image-keyboard-response",106,117859,"0.0-4.31-1.31","o0s5gwo44382rls",947,"62.csv","","null","resources/maskTrios/BBA2.jpg","null","",NA,NA,NA,NA,""
"image-keyboard-response",107,119066,"0.0-4.31-2.31","o0s5gwo44382rls",947,"62.csv","","null","resources/images/coin2.png","null","",NA,NA,NA,NA,""
"image-keyboard-response",108,119851,"0.0-4.32-0.32","o0s5gwo44382rls",947,"62.csv","","782.2000000476837","resources/trios/L1T2A2.jpg","39","restless",0.4,0.8,0.7,0.734934292622532,"false"
"image-keyboard-response",109,120261,"0.0-4.32-1.32","o0s5gwo44382rls",947,"62.csv","","null","resources/maskTrios/BBA2.jpg","null","",NA,NA,NA,NA,""
"image-keyboard-response",110,121465,"0.0-4.32-2.32","o0s5gwo44382rls",947,"62.csv","","null","resources/images/fishbone.png","null","",NA,NA,NA,NA,""
"image-keyboard-response",111,122084,"0.0-4.33-0.33","o0s5gwo44382rls",947,"62.csv","","617.4000000953674","resources/trios/L1T2A2.jpg","39","restless",0.4,0.8,0.7,0.0126728173208188,"true"
"image-keyboard-response",112,122493,"0.0-4.33-1.33","o0s5gwo44382rls",947,"62.csv","","null","resources/maskTrios/BBA2.jpg","null","",NA,NA,NA,NA,""
"image-keyboard-response",113,123701,"0.0-4.33-2.33","o0s5gwo44382rls",947,"62.csv","","null","resources/images/coin2.png","null","",NA,NA,NA,NA,""
"image-keyboard-response",114,124218,"0.0-4.34-0.34","o0s5gwo44382rls",947,"62.csv","","514.7000000476837","resources/trios/L1T2A2.jpg","39","restless",0.4,0.8,0.6,0.560047378919762,"true"
"image-keyboard-response",115,124628,"0.0-4.34-1.34","o0s5gwo44382rls",947,"62.csv","","null","resources/maskTrios/BBA2.jpg","null","",NA,NA,NA,NA,""
"image-keyboard-response",116,125837,"0.0-4.34-2.34","o0s5gwo44382rls",947,"62.csv","","null","resources/images/coin2.png","null","",NA,NA,NA,NA,""
"image-keyboard-response",117,126129,"0.0-4.35-0.35","o0s5gwo44382rls",947,"62.csv","","290","resources/trios/L1T2A2.jpg","39","restless",0.4,0.8,0.6,0.914660308230269,"false"
"image-keyboard-response",118,126538,"0.0-4.35-1.35","o0s5gwo44382rls",947,"62.csv","","null","resources/maskTrios/BBA2.jpg","null","",NA,NA,NA,NA,""
"image-keyboard-response",119,127749,"0.0-4.35-2.35","o0s5gwo44382rls",947,"62.csv","","null","resources/images/fishbone.png","null","",NA,NA,NA,NA,""
"image-keyboard-response",120,128366,"0.0-4.36-0.36","o0s5gwo44382rls",947,"62.csv","","615.0999999046326","resources/trios/L1T2A2.jpg","39","restless",0.4,0.8,0.6,0.907735178308194,"false"
"image-keyboard-response",121,128781,"0.0-4.36-1.36","o0s5gwo44382rls",947,"62.csv","","null","resources/maskTrios/BBA2.jpg","null","",NA,NA,NA,NA,""
"image-keyboard-response",122,129989,"0.0-4.36-2.36","o0s5gwo44382rls",947,"62.csv","","null","resources/images/fishbone.png","null","",NA,NA,NA,NA,""
"image-keyboard-response",123,130815,"0.0-4.37-0.37","o0s5gwo44382rls",947,"62.csv","","823.2999999523163","resources/trios/L1T2A2.jpg","38","restless",0.4,0.8,0.6,0.0397769696379753,"true"
"image-keyboard-response",124,131229,"0.0-4.37-1.37","o0s5gwo44382rls",947,"62.csv","","null","resources/maskTrios/BT2B.jpg","null","",NA,NA,NA,NA,""
"image-keyboard-response",125,132437,"0.0-4.37-2.37","o0s5gwo44382rls",947,"62.csv","","null","resources/images/coin2.png","null","",NA,NA,NA,NA,""
"image-keyboard-response",126,132826,"0.0-4.38-0.38","o0s5gwo44382rls",947,"62.csv","","387.7999999523163","resources/trios/L1T2A2.jpg","38","restless",0.4,0.8,0.6,0.946289049662888,"false"
"image-keyboard-response",127,133237,"0.0-4.38-1.38","o0s5gwo44382rls",947,"62.csv","","null","resources/maskTrios/BT2B.jpg","null","",NA,NA,NA,NA,""
"image-keyboard-response",128,134445,"0.0-4.38-2.38","o0s5gwo44382rls",947,"62.csv","","null","resources/images/fishbone.png","null","",NA,NA,NA,NA,""
"image-keyboard-response",129,134756,"0.0-4.39-0.39","o0s5gwo44382rls",947,"62.csv","","308.09999990463257","resources/trios/L1T2A2.jpg","38","restless",0.4,0.8,0.6,0.143736139170172,"true"
"image-keyboard-response",130,135165,"0.0-4.39-1.39","o0s5gwo44382rls",947,"62.csv","","null","resources/maskTrios/BT2B.jpg","null","",NA,NA,NA,NA,""
"image-keyboard-response",131,136373,"0.0-4.39-2.39","o0s5gwo44382rls",947,"62.csv","","null","resources/images/coin2.png","null","",NA,NA,NA,NA,""
"image-keyboard-response",132,136654,"0.0-4.40-0.40","o0s5gwo44382rls",947,"62.csv","","279.09999990463257","resources/trios/L1T2A2.jpg","38","restless",0.3,0.8,0.6,0.278425609732341,"true"
"image-keyboard-response",133,137064,"0.0-4.40-1.40","o0s5gwo44382rls",947,"62.csv","","null","resources/maskTrios/BT2B.jpg","null","",NA,NA,NA,NA,""
"image-keyboard-response",134,138276,"0.0-4.40-2.40","o0s5gwo44382rls",947,"62.csv","","null","resources/images/coin2.png","null","",NA,NA,NA,NA,""
"image-keyboard-response",135,138907,"0.0-4.41-0.41","o0s5gwo44382rls",947,"62.csv","","628.2999999523163","resources/trios/L1T2A2.jpg","38","restless",0.3,0.8,0.6,0.235973154734517,"true"
"image-keyboard-response",136,139317,"0.0-4.41-1.41","o0s5gwo44382rls",947,"62.csv","","null","resources/maskTrios/BT2B.jpg","null","",NA,NA,NA,NA,""
"image-keyboard-response",137,140523,"0.0-4.41-2.41","o0s5gwo44382rls",947,"62.csv","","null","resources/images/coin2.png","null","",NA,NA,NA,NA,""
"image-keyboard-response",138,141268,"0.0-4.42-0.42","o0s5gwo44382rls",947,"62.csv","","742.9000000953674","resources/trios/L1T2A2.jpg","38","restless",0.3,0.8,0.6,0.803667975122883,"false"
"image-keyboard-response",139,141677,"0.0-4.42-1.42","o0s5gwo44382rls",947,"62.csv","","null","resources/maskTrios/BT2B.jpg","null","",NA,NA,NA,NA,""
"image-keyboard-response",140,142880,"0.0-4.42-2.42","o0s5gwo44382rls",947,"62.csv","","null","resources/images/fishbone.png","null","",NA,NA,NA,NA,""
"image-keyboard-response",141,143314,"0.0-4.43-0.43","o0s5gwo44382rls",947,"62.csv","","432.2999999523163","resources/trios/L1T2A2.jpg","38","restless",0.3,0.8,0.6,0.825198702578361,"false"
"image-keyboard-response",142,143723,"0.0-4.43-1.43","o0s5gwo44382rls",947,"62.csv","","null","resources/maskTrios/BT2B.jpg","null","",NA,NA,NA,NA,""
"image-keyboard-response",143,144931,"0.0-4.43-2.43","o0s5gwo44382rls",947,"62.csv","","null","resources/images/fishbone.png","null","",NA,NA,NA,NA,""
"image-keyboard-response",144,145455,"0.0-4.44-0.44","o0s5gwo44382rls",947,"62.csv","","523.4000000953674","resources/trios/L1T2A2.jpg","37","restless",0.3,0.8,0.6,0.982483837218306,"false"
"image-keyboard-response",145,145868,"0.0-4.44-1.44","o0s5gwo44382rls",947,"62.csv","","null","resources/maskTrios/L1BB.jpg","null","",NA,NA,NA,NA,""
"image-keyboard-response",146,147077,"0.0-4.44-2.44","o0s5gwo44382rls",947,"62.csv","","null","resources/images/fishbone.png","null","",NA,NA,NA,NA,""
"image-keyboard-response",147,147355,"0.0-4.45-0.45","o0s5gwo44382rls",947,"62.csv","","276","resources/trios/L1T2A2.jpg","37","restless",0.3,0.8,0.6,0.169101951823433,"true"
"image-keyboard-response",148,147764,"0.0-4.45-1.45","o0s5gwo44382rls",947,"62.csv","","null","resources/maskTrios/L1BB.jpg","null","",NA,NA,NA,NA,""
"image-keyboard-response",149,148973,"0.0-4.45-2.45","o0s5gwo44382rls",947,"62.csv","","null","resources/images/coin2.png","null","",NA,NA,NA,NA,""
"image-keyboard-response",150,149505,"0.0-4.46-0.46","o0s5gwo44382rls",947,"62.csv","","529.7000000476837","resources/trios/L1T2A2.jpg","37","restless",0.3,0.8,0.6,0.0177964369684194,"true"
"image-keyboard-response",151,149917,"0.0-4.46-1.46","o0s5gwo44382rls",947,"62.csv","","null","resources/maskTrios/L1BB.jpg","null","",NA,NA,NA,NA,""
"image-keyboard-response",152,151125,"0.0-4.46-2.46","o0s5gwo44382rls",947,"62.csv","","null","resources/images/coin2.png","null","",NA,NA,NA,NA,""
"image-keyboard-response",153,151426,"0.0-4.47-0.47","o0s5gwo44382rls",947,"62.csv","","299.7999999523163","resources/trios/L1T2A2.jpg","37","restless",0.3,0.9,0.6,0.267863514558089,"true"
"image-keyboard-response",154,151832,"0.0-4.47-1.47","o0s5gwo44382rls",947,"62.csv","","null","resources/maskTrios/L1BB.jpg","null","",NA,NA,NA,NA,""
"image-keyboard-response",155,153045,"0.0-4.47-2.47","o0s5gwo44382rls",947,"62.csv","","null","resources/images/coin2.png","null","",NA,NA,NA,NA,""
"image-keyboard-response",156,153553,"0.0-4.48-0.48","o0s5gwo44382rls",947,"62.csv","","506.2000000476837","resources/trios/L1T2A2.jpg","37","restless",0.3,0.9,0.6,0.847831944293446,"false"
"image-keyboard-response",157,153965,"0.0-4.48-1.48","o0s5gwo44382rls",947,"62.csv","","null","resources/maskTrios/L1BB.jpg","null","",NA,NA,NA,NA,""
"image-keyboard-response",158,155172,"0.0-4.48-2.48","o0s5gwo44382rls",947,"62.csv","","null","resources/images/fishbone.png","null","",NA,NA,NA,NA,""
"image-keyboard-response",159,155633,"0.0-4.49-0.49","o0s5gwo44382rls",947,"62.csv","","459.2000000476837","resources/trios/L1T2A2.jpg","38","restless",0.3,0.9,0.6,0.262878929519228,"true"
"image-keyboard-response",160,156044,"0.0-4.49-1.49","o0s5gwo44382rls",947,"62.csv","","null","resources/maskTrios/BT2B.jpg","null","",NA,NA,NA,NA,""
"image-keyboard-response",161,157253,"0.0-4.49-2.49","o0s5gwo44382rls",947,"62.csv","","null","resources/images/coin2.png","null","",NA,NA,NA,NA,""
"image-keyboard-response",162,157639,"0.0-4.50-0.50","o0s5gwo44382rls",947,"62.csv","","383.80000019073486","resources/trios/L1T2A2.jpg","38","restless",0.2,0.9,0.6,0.3110559043747,"true"
"image-keyboard-response",163,158053,"0.0-4.50-1.50","o0s5gwo44382rls",947,"62.csv","","null","resources/maskTrios/BT2B.jpg","null","",NA,NA,NA,NA,""
"image-keyboard-response",164,159258,"0.0-4.50-2.50","o0s5gwo44382rls",947,"62.csv","","null","resources/images/coin2.png","null","",NA,NA,NA,NA,""
"image-keyboard-response",165,159607,"0.0-4.51-0.51","o0s5gwo44382rls",947,"62.csv","","347.39999985694885","resources/trios/L1T2A2.jpg","38","restless",0.2,0.8,0.6,0.45424186811062,"true"
"image-keyboard-response",166,160021,"0.0-4.51-1.51","o0s5gwo44382rls",947,"62.csv","","null","resources/maskTrios/BT2B.jpg","null","",NA,NA,NA,NA,""
"image-keyboard-response",167,161229,"0.0-4.51-2.51","o0s5gwo44382rls",947,"62.csv","","null","resources/images/coin2.png","null","",NA,NA,NA,NA,""
"image-keyboard-response",168,162042,"0.0-4.52-0.52","o0s5gwo44382rls",947,"62.csv","","811.0999999046326","resources/trios/L1T2A2.jpg","38","restless",0.2,0.8,0.6,0.298948542200048,"true"
"image-keyboard-response",169,162452,"0.0-4.52-1.52","o0s5gwo44382rls",947,"62.csv","","null","resources/maskTrios/BT2B.jpg","null","",NA,NA,NA,NA,""
"image-keyboard-response",170,163660,"0.0-4.52-2.52","o0s5gwo44382rls",947,"62.csv","","null","resources/images/coin2.png","null","",NA,NA,NA,NA,""
"image-keyboard-response",171,164074,"0.0-4.53-0.53","o0s5gwo44382rls",947,"62.csv","","412.2000000476837","resources/trios/L1T2A2.jpg","38","restless",0.2,0.8,0.6,0.879841414426168,"false"
"image-keyboard-response",172,164480,"0.0-4.53-1.53","o0s5gwo44382rls",947,"62.csv","","null","resources/maskTrios/BT2B.jpg","null","",NA,NA,NA,NA,""
"image-keyboard-response",173,165692,"0.0-4.53-2.53","o0s5gwo44382rls",947,"62.csv","","null","resources/images/fishbone.png","null","",NA,NA,NA,NA,""
"image-keyboard-response",174,166311,"0.0-4.54-0.54","o0s5gwo44382rls",947,"62.csv","","617.1000001430511","resources/trios/L1T2A2.jpg","38","restless",0.2,0.7,0.6,0.654062265382765,"true"
"image-keyboard-response",175,166723,"0.0-4.54-1.54","o0s5gwo44382rls",947,"62.csv","","null","resources/maskTrios/BT2B.jpg","null","",NA,NA,NA,NA,""
"image-keyboard-response",176,167932,"0.0-4.54-2.54","o0s5gwo44382rls",947,"62.csv","","null","resources/images/coin2.png","null","",NA,NA,NA,NA,""
"image-keyboard-response",177,168458,"0.0-4.55-0.55","o0s5gwo44382rls",947,"62.csv","","524","resources/trios/L1T2A2.jpg","38","restless",0.2,0.7,0.6,0.539107892047269,"true"
"image-keyboard-response",178,168869,"0.0-4.55-1.55","o0s5gwo44382rls",947,"62.csv","","null","resources/maskTrios/BT2B.jpg","null","",NA,NA,NA,NA,""
"image-keyboard-response",179,170077,"0.0-4.55-2.55","o0s5gwo44382rls",947,"62.csv","","null","resources/images/coin2.png","null","",NA,NA,NA,NA,""
"image-keyboard-response",180,170487,"0.0-4.56-0.56","o0s5gwo44382rls",947,"62.csv","","407.60000014305115","resources/trios/L1T2A2.jpg","38","restless",0.2,0.7,0.6,0.211950943495406,"true"
"image-keyboard-response",181,170900,"0.0-4.56-1.56","o0s5gwo44382rls",947,"62.csv","","null","resources/maskTrios/BT2B.jpg","null","",NA,NA,NA,NA,""
"image-keyboard-response",182,172109,"0.0-4.56-2.56","o0s5gwo44382rls",947,"62.csv","","null","resources/images/coin2.png","null","",NA,NA,NA,NA,""
"image-keyboard-response",183,172486,"0.0-4.57-0.57","o0s5gwo44382rls",947,"62.csv","","375.30000019073486","resources/trios/L1T2A2.jpg","38","restless",0.3,0.7,0.6,0.446828548268676,"true"
"image-keyboard-response",184,172900,"0.0-4.57-1.57","o0s5gwo44382rls",947,"62.csv","","null","resources/maskTrios/BT2B.jpg","null","",NA,NA,NA,NA,""
"image-keyboard-response",185,174109,"0.0-4.57-2.57","o0s5gwo44382rls",947,"62.csv","","null","resources/images/coin2.png","null","",NA,NA,NA,NA,""
"image-keyboard-response",186,174188,"0.0-4.58-0.58","o0s5gwo44382rls",947,"62.csv","","76.60000014305115","resources/trios/L1T2A2.jpg","38","restless",0.3,0.7,0.6,0.651239780601907,"true"
"image-keyboard-response",187,174592,"0.0-4.58-1.58","o0s5gwo44382rls",947,"62.csv","","null","resources/maskTrios/BT2B.jpg","null","",NA,NA,NA,NA,""
"image-keyboard-response",188,175801,"0.0-4.58-2.58","o0s5gwo44382rls",947,"62.csv","","null","resources/images/coin2.png","null","",NA,NA,NA,NA,""
"image-keyboard-response",189,176094,"0.0-4.59-0.59","o0s5gwo44382rls",947,"62.csv","","291.5","resources/trios/L1T2A2.jpg","38","restless",0.3,0.6,0.6,0.972941677173692,"false"
"image-keyboard-response",190,176509,"0.0-4.59-1.59","o0s5gwo44382rls",947,"62.csv","","null","resources/maskTrios/BT2B.jpg","null","",NA,NA,NA,NA,""
"image-keyboard-response",191,177716,"0.0-4.59-2.59","o0s5gwo44382rls",947,"62.csv","","null","resources/images/fishbone.png","null","",NA,NA,NA,NA,""
"image-keyboard-response",192,178009,"0.0-4.60-0.60","o0s5gwo44382rls",947,"62.csv","","291.2000000476837","resources/trios/L1T2A2.jpg","38","restless",0.3,0.6,0.6,0.942104590960953,"false"
"image-keyboard-response",193,178420,"0.0-4.60-1.60","o0s5gwo44382rls",947,"62.csv","","null","resources/maskTrios/BT2B.jpg","null","",NA,NA,NA,NA,""
"image-keyboard-response",194,179628,"0.0-4.60-2.60","o0s5gwo44382rls",947,"62.csv","","null","resources/images/fishbone.png","null","",NA,NA,NA,NA,""
"image-keyboard-response",195,179739,"0.0-4.61-0.61","o0s5gwo44382rls",947,"62.csv","","108.40000009536743","resources/trios/L1T2A2.jpg","38","restless",0.4,0.6,0.7,0.0674774601549877,"true"
"image-keyboard-response",196,180149,"0.0-4.61-1.61","o0s5gwo44382rls",947,"62.csv","","null","resources/maskTrios/BT2B.jpg","null","",NA,NA,NA,NA,""
"image-keyboard-response",197,181356,"0.0-4.61-2.61","o0s5gwo44382rls",947,"62.csv","","null","resources/images/coin2.png","null","",NA,NA,NA,NA,""
"image-keyboard-response",198,181884,"0.0-4.62-0.62","o0s5gwo44382rls",947,"62.csv","","526","resources/trios/L1T2A2.jpg","38","restless",0.4,0.6,0.7,0.593377984433903,"true"
"image-keyboard-response",199,182293,"0.0-4.62-1.62","o0s5gwo44382rls",947,"62.csv","","null","resources/maskTrios/BT2B.jpg","null","",NA,NA,NA,NA,""
"image-keyboard-response",200,183496,"0.0-4.62-2.62","o0s5gwo44382rls",947,"62.csv","","null","resources/images/coin2.png","null","",NA,NA,NA,NA,""
"image-keyboard-response",201,184368,"0.0-4.63-0.63","o0s5gwo44382rls",947,"62.csv","","869.4000000953674","resources/trios/L1T2A2.jpg","38","restless",0.4,0.6,0.7,0.138717719715628,"true"
"image-keyboard-response",202,184780,"0.0-4.63-1.63","o0s5gwo44382rls",947,"62.csv","","null","resources/maskTrios/BT2B.jpg","null","",NA,NA,NA,NA,""
"image-keyboard-response",203,185989,"0.0-4.63-2.63","o0s5gwo44382rls",947,"62.csv","","null","resources/images/coin2.png","null","",NA,NA,NA,NA,""
"image-keyboard-response",204,186819,"0.0-4.64-0.64","o0s5gwo44382rls",947,"62.csv","","828.2000000476837","resources/trios/L1T2A2.jpg","38","restless",0.4,0.6,0.7,0.663453246562326,"false"
"image-keyboard-response",205,187228,"0.0-4.64-1.64","o0s5gwo44382rls",947,"62.csv","","null","resources/maskTrios/BT2B.jpg","null","",NA,NA,NA,NA,""
"image-keyboard-response",206,188437,"0.0-4.64-2.64","o0s5gwo44382rls",947,"62.csv","","null","resources/images/fishbone.png","null","",NA,NA,NA,NA,""
"image-keyboard-response",207,189065,"0.0-4.65-0.65","o0s5gwo44382rls",947,"62.csv","","626.7000000476837","resources/trios/L1T2A2.jpg","38","restless",0.5,0.6,0.7,0.437885418023944,"true"
"image-keyboard-response",208,189476,"0.0-4.65-1.65","o0s5gwo44382rls",947,"62.csv","","null","resources/maskTrios/BT2B.jpg","null","",NA,NA,NA,NA,""
"image-keyboard-response",209,190683,"0.0-4.65-2.65","o0s5gwo44382rls",947,"62.csv","","null","resources/images/coin2.png","null","",NA,NA,NA,NA,""
"image-keyboard-response",210,191599,"0.0-4.66-0.66","o0s5gwo44382rls",947,"62.csv","","913.7999999523163","resources/trios/L1T2A2.jpg","38","restless",0.5,0.6,0.7,0.832071800612243,"false"
"image-keyboard-response",211,192013,"0.0-4.66-1.66","o0s5gwo44382rls",947,"62.csv","","null","resources/maskTrios/BT2B.jpg","null","",NA,NA,NA,NA,""
"image-keyboard-response",212,193220,"0.0-4.66-2.66","o0s5gwo44382rls",947,"62.csv","","null","resources/images/fishbone.png","null","",NA,NA,NA,NA,""
"image-keyboard-response",213,194134,"0.0-4.67-0.67","o0s5gwo44382rls",947,"62.csv","","911.5","resources/trios/L1T2A2.jpg","38","restless",0.5,0.6,0.7,0.18913132031946,"true"
"image-keyboard-response",214,194548,"0.0-4.67-1.67","o0s5gwo44382rls",947,"62.csv","","null","resources/maskTrios/BT2B.jpg","null","",NA,NA,NA,NA,""
"image-keyboard-response",215,195756,"0.0-4.67-2.67","o0s5gwo44382rls",947,"62.csv","","null","resources/images/coin2.png","null","",NA,NA,NA,NA,""
"image-keyboard-response",216,196062,"0.0-4.68-0.68","o0s5gwo44382rls",947,"62.csv","","303.69999980926514","resources/trios/L1T2A2.jpg","38","restless",0.5,0.6,0.7,0.255123773352056,"true"
"image-keyboard-response",217,196477,"0.0-4.68-1.68","o0s5gwo44382rls",947,"62.csv","","null","resources/maskTrios/BT2B.jpg","null","",NA,NA,NA,NA,""
"image-keyboard-response",218,197684,"0.0-4.68-2.68","o0s5gwo44382rls",947,"62.csv","","null","resources/images/coin2.png","null","",NA,NA,NA,NA,""
"image-keyboard-response",219,197980,"0.0-4.69-0.69","o0s5gwo44382rls",947,"62.csv","","294.09999990463257","resources/trios/L1T2A2.jpg","38","restless",0.5,0.6,0.7,0.355169401195125,"true"
"image-keyboard-response",220,198388,"0.0-4.69-1.69","o0s5gwo44382rls",947,"62.csv","","null","resources/maskTrios/BT2B.jpg","null","",NA,NA,NA,NA,""
"image-keyboard-response",221,199597,"0.0-4.69-2.69","o0s5gwo44382rls",947,"62.csv","","null","resources/images/coin2.png","null","",NA,NA,NA,NA,""
"image-keyboard-response",222,199933,"0.0-4.70-0.70","o0s5gwo44382rls",947,"62.csv","","334.2999999523163","resources/trios/L1T2A2.jpg","38","restless",0.5,0.6,0.7,0.926820718459933,"false"
"image-keyboard-response",223,200348,"0.0-4.70-1.70","o0s5gwo44382rls",947,"62.csv","","null","resources/maskTrios/BT2B.jpg","null","",NA,NA,NA,NA,""
"image-keyboard-response",224,201556,"0.0-4.70-2.70","o0s5gwo44382rls",947,"62.csv","","null","resources/images/fishbone.png","null","",NA,NA,NA,NA,""
"image-keyboard-response",225,202056,"0.0-4.71-0.71","o0s5gwo44382rls",947,"62.csv","","498.5","resources/trios/L1T2A2.jpg","38","restless",0.5,0.6,0.7,0.651410284274872,"false"
"image-keyboard-response",226,202468,"0.0-4.71-1.71","o0s5gwo44382rls",947,"62.csv","","null","resources/maskTrios/BT2B.jpg","null","",NA,NA,NA,NA,""
"image-keyboard-response",227,203677,"0.0-4.71-2.71","o0s5gwo44382rls",947,"62.csv","","null","resources/images/fishbone.png","null","",NA,NA,NA,NA,""
"image-keyboard-response",228,204400,"0.0-4.72-0.72","o0s5gwo44382rls",947,"62.csv","","721.1999998092651","resources/trios/L1T2A2.jpg","38","restless",0.5,0.6,0.6,0.943890810923685,"false"
"image-keyboard-response",229,204813,"0.0-4.72-1.72","o0s5gwo44382rls",947,"62.csv","","null","resources/maskTrios/BT2B.jpg","null","",NA,NA,NA,NA,""
"image-keyboard-response",230,206020,"0.0-4.72-2.72","o0s5gwo44382rls",947,"62.csv","","null","resources/images/fishbone.png","null","",NA,NA,NA,NA,""
"image-keyboard-response",231,206797,"0.0-4.73-0.73","o0s5gwo44382rls",947,"62.csv","","775.4000000953674","resources/trios/L1T2A2.jpg","39","restless",0.5,0.6,0.6,0.0628921925918822,"true"
"image-keyboard-response",232,207212,"0.0-4.73-1.73","o0s5gwo44382rls",947,"62.csv","","null","resources/maskTrios/BBA2.jpg","null","",NA,NA,NA,NA,""
"image-keyboard-response",233,208421,"0.0-4.73-2.73","o0s5gwo44382rls",947,"62.csv","","null","resources/images/coin2.png","null","",NA,NA,NA,NA,""
"image-keyboard-response",234,208776,"0.0-4.74-0.74","o0s5gwo44382rls",947,"62.csv","","353.2999999523163","resources/trios/L1T2A2.jpg","39","restless",0.6,0.6,0.6,0.332796051216596,"true"
"image-keyboard-response",235,209187,"0.0-4.74-1.74","o0s5gwo44382rls",947,"62.csv","","null","resources/maskTrios/BBA2.jpg","null","",NA,NA,NA,NA,""
"image-keyboard-response",236,210397,"0.0-4.74-2.74","o0s5gwo44382rls",947,"62.csv","","null","resources/images/coin2.png","null","",NA,NA,NA,NA,""
"image-keyboard-response",237,210678,"0.0-4.75-0.75","o0s5gwo44382rls",947,"62.csv","","279","resources/trios/L1T2A2.jpg","39","restless",0.6,0.6,0.6,0.11561856351549,"true"
"image-keyboard-response",238,211093,"0.0-4.75-1.75","o0s5gwo44382rls",947,"62.csv","","null","resources/maskTrios/BBA2.jpg","null","",NA,NA,NA,NA,""
"image-keyboard-response",239,212308,"0.0-4.75-2.75","o0s5gwo44382rls",947,"62.csv","","null","resources/images/coin2.png","null","",NA,NA,NA,NA,""
"image-keyboard-response",240,212661,"0.0-4.76-0.76","o0s5gwo44382rls",947,"62.csv","","351.19999980926514","resources/trios/L1T2A2.jpg","39","restless",0.6,0.6,0.6,0.0122452655937122,"true"
"image-keyboard-response",241,213076,"0.0-4.76-1.76","o0s5gwo44382rls",947,"62.csv","","null","resources/maskTrios/BBA2.jpg","null","",NA,NA,NA,NA,""
"image-keyboard-response",242,214284,"0.0-4.76-2.76","o0s5gwo44382rls",947,"62.csv","","null","resources/images/coin2.png","null","",NA,NA,NA,NA,""
"image-keyboard-response",243,214606,"0.0-4.77-0.77","o0s5gwo44382rls",947,"62.csv","","319.89999985694885","resources/trios/L1T2A2.jpg","39","restless",0.6,0.6,0.6,0.13006010002904,"true"
"image-keyboard-response",244,215021,"0.0-4.77-1.77","o0s5gwo44382rls",947,"62.csv","","null","resources/maskTrios/BBA2.jpg","null","",NA,NA,NA,NA,""
"image-keyboard-response",245,216229,"0.0-4.77-2.77","o0s5gwo44382rls",947,"62.csv","","null","resources/images/coin2.png","null","",NA,NA,NA,NA,""
"image-keyboard-response",246,216688,"0.0-4.78-0.78","o0s5gwo44382rls",947,"62.csv","","457.60000014305115","resources/trios/L1T2A2.jpg","39","restless",0.6,0.6,0.6,0.788803167267607,"false"
"image-keyboard-response",247,217100,"0.0-4.78-1.78","o0s5gwo44382rls",947,"62.csv","","null","resources/maskTrios/BBA2.jpg","null","",NA,NA,NA,NA,""
"image-keyboard-response",248,218308,"0.0-4.78-2.78","o0s5gwo44382rls",947,"62.csv","","null","resources/images/fishbone.png","null","",NA,NA,NA,NA,""
"image-keyboard-response",249,218986,"0.0-4.79-0.79","o0s5gwo44382rls",947,"62.csv","","676.2000000476837","resources/trios/L1T2A2.jpg","39","restless",0.6,0.5,0.6,0.684435600246608,"false"
"image-keyboard-response",250,219397,"0.0-4.79-1.79","o0s5gwo44382rls",947,"62.csv","","null","resources/maskTrios/BBA2.jpg","null","",NA,NA,NA,NA,""
"image-keyboard-response",251,220601,"0.0-4.79-2.79","o0s5gwo44382rls",947,"62.csv","","null","resources/images/fishbone.png","null","",NA,NA,NA,NA,""
"image-keyboard-response",252,221010,"0.0-4.80-0.80","o0s5gwo44382rls",947,"62.csv","","407.7999999523163","resources/trios/L1T2A2.jpg","39","restless",0.6,0.5,0.6,0.330028735958597,"true"
"image-keyboard-response",253,221420,"0.0-4.80-1.80","o0s5gwo44382rls",947,"62.csv","","null","resources/maskTrios/BBA2.jpg","null","",NA,NA,NA,NA,""
"image-keyboard-response",254,222629,"0.0-4.80-2.80","o0s5gwo44382rls",947,"62.csv","","null","resources/images/coin2.png","null","",NA,NA,NA,NA,""
"image-keyboard-response",255,222993,"0.0-4.81-0.81","o0s5gwo44382rls",947,"62.csv","","362.69999980926514","resources/trios/L1T2A2.jpg","39","restless",0.7,0.5,0.6,0.665379185265818,"false"
"image-keyboard-response",256,223405,"0.0-4.81-1.81","o0s5gwo44382rls",947,"62.csv","","null","resources/maskTrios/BBA2.jpg","null","",NA,NA,NA,NA,""
"image-keyboard-response",257,224612,"0.0-4.81-2.81","o0s5gwo44382rls",947,"62.csv","","null","resources/images/fishbone.png","null","",NA,NA,NA,NA,""
"image-keyboard-response",258,225217,"0.0-4.82-0.82","o0s5gwo44382rls",947,"62.csv","","603.2000000476837","resources/trios/L1T2A2.jpg","39","restless",0.7,0.4,0.5,0.660611242662261,"false"
"image-keyboard-response",259,225628,"0.0-4.82-1.82","o0s5gwo44382rls",947,"62.csv","","null","resources/maskTrios/BBA2.jpg","null","",NA,NA,NA,NA,""
"image-keyboard-response",260,226832,"0.0-4.82-2.82","o0s5gwo44382rls",947,"62.csv","","null","resources/images/fishbone.png","null","",NA,NA,NA,NA,""
"image-keyboard-response",261,227398,"0.0-4.83-0.83","o0s5gwo44382rls",947,"62.csv","","564.6999998092651","resources/trios/L1T2A2.jpg","39","restless",0.7,0.3,0.5,0.392479319695996,"true"
"image-keyboard-response",262,227813,"0.0-4.83-1.83","o0s5gwo44382rls",947,"62.csv","","null","resources/maskTrios/BBA2.jpg","null","",NA,NA,NA,NA,""
"image-keyboard-response",263,229021,"0.0-4.83-2.83","o0s5gwo44382rls",947,"62.csv","","null","resources/images/coin2.png","null","",NA,NA,NA,NA,""
"image-keyboard-response",264,229653,"0.0-4.84-0.84","o0s5gwo44382rls",947,"62.csv","","630.6999998092651","resources/trios/L1T2A2.jpg","39","restless",0.7,0.3,0.5,0.645946168218104,"false"
"image-keyboard-response",265,230068,"0.0-4.84-1.84","o0s5gwo44382rls",947,"62.csv","","null","resources/maskTrios/BBA2.jpg","null","",NA,NA,NA,NA,""
"image-keyboard-response",266,231277,"0.0-4.84-2.84","o0s5gwo44382rls",947,"62.csv","","null","resources/images/fishbone.png","null","",NA,NA,NA,NA,""
"image-keyboard-response",267,231674,"0.0-4.85-0.85","o0s5gwo44382rls",947,"62.csv","","395.2999999523163","resources/trios/L1T2A2.jpg","39","restless",0.7,0.3,0.5,0.979225817847808,"false"
"image-keyboard-response",268,232084,"0.0-4.85-1.85","o0s5gwo44382rls",947,"62.csv","","null","resources/maskTrios/BBA2.jpg","null","",NA,NA,NA,NA,""
"image-keyboard-response",269,233292,"0.0-4.85-2.85","o0s5gwo44382rls",947,"62.csv","","null","resources/images/fishbone.png","null","",NA,NA,NA,NA,""
"image-keyboard-response",270,233756,"0.0-4.86-0.86","o0s5gwo44382rls",947,"62.csv","","462.2000000476837","resources/trios/L1T2A2.jpg","39","restless",0.6,0.3,0.5,0.665343331755312,"false"
"image-keyboard-response",271,234164,"0.0-4.86-1.86","o0s5gwo44382rls",947,"62.csv","","null","resources/maskTrios/BBA2.jpg","null","",NA,NA,NA,NA,""
"image-keyboard-response",272,235372,"0.0-4.86-2.86","o0s5gwo44382rls",947,"62.csv","","null","resources/images/fishbone.png","null","",NA,NA,NA,NA,""
"image-keyboard-response",273,235633,"0.0-4.87-0.87","o0s5gwo44382rls",947,"62.csv","","259.09999990463257","resources/trios/L1T2A2.jpg","37","restless",0.6,0.3,0.5,0.784761136989089,"false"
"image-keyboard-response",274,236044,"0.0-4.87-1.87","o0s5gwo44382rls",947,"62.csv","","null","resources/maskTrios/L1BB.jpg","null","",NA,NA,NA,NA,""
"image-keyboard-response",275,237252,"0.0-4.87-2.87","o0s5gwo44382rls",947,"62.csv","","null","resources/images/fishbone.png","null","",NA,NA,NA,NA,""
"image-keyboard-response",276,237714,"0.0-4.88-0.88","o0s5gwo44382rls",947,"62.csv","","460.40000009536743","resources/trios/L1T2A2.jpg","37","restless",0.6,0.3,0.5,0.624807550534134,"false"
"image-keyboard-response",277,238123,"0.0-4.88-1.88","o0s5gwo44382rls",947,"62.csv","","null","resources/maskTrios/L1BB.jpg","null","",NA,NA,NA,NA,""
"image-keyboard-response",278,239325,"0.0-4.88-2.88","o0s5gwo44382rls",947,"62.csv","","null","resources/images/fishbone.png","null","",NA,NA,NA,NA,""
"image-keyboard-response",279,239766,"0.0-4.89-0.89","o0s5gwo44382rls",947,"62.csv","","439.39999985694885","resources/trios/L1T2A2.jpg","38","restless",0.6,0.3,0.6,0.372864604362235,"false"
"image-keyboard-response",280,240180,"0.0-4.89-1.89","o0s5gwo44382rls",947,"62.csv","","null","resources/maskTrios/BT2B.jpg","null","",NA,NA,NA,NA,""
"image-keyboard-response",281,241389,"0.0-4.89-2.89","o0s5gwo44382rls",947,"62.csv","","null","resources/images/fishbone.png","null","",NA,NA,NA,NA,""
"image-keyboard-response",282,241702,"0.0-4.90-0.90","o0s5gwo44382rls",947,"62.csv","","310.7000000476837","resources/trios/L1T2A2.jpg","38","restless",0.6,0.4,0.5,0.922974935653532,"false"
"image-keyboard-response",283,242116,"0.0-4.90-1.90","o0s5gwo44382rls",947,"62.csv","","null","resources/maskTrios/BT2B.jpg","null","",NA,NA,NA,NA,""
"image-keyboard-response",284,243324,"0.0-4.90-2.90","o0s5gwo44382rls",947,"62.csv","","null","resources/images/fishbone.png","null","",NA,NA,NA,NA,""
"image-keyboard-response",285,243628,"0.0-4.91-0.91","o0s5gwo44382rls",947,"62.csv","","302.2999999523163","resources/trios/L1T2A2.jpg","39","restless",0.6,0.4,0.5,0.191611302408894,"true"
"image-keyboard-response",286,244037,"0.0-4.91-1.91","o0s5gwo44382rls",947,"62.csv","","null","resources/maskTrios/BBA2.jpg","null","",NA,NA,NA,NA,""
"image-keyboard-response",287,245244,"0.0-4.91-2.91","o0s5gwo44382rls",947,"62.csv","","null","resources/images/coin2.png","null","",NA,NA,NA,NA,""
"image-keyboard-response",288,245484,"0.0-4.92-0.92","o0s5gwo44382rls",947,"62.csv","","238.20000004768372","resources/trios/L1T2A2.jpg","39","restless",0.6,0.4,0.5,0.72352693719683,"false"
"image-keyboard-response",289,245893,"0.0-4.92-1.92","o0s5gwo44382rls",947,"62.csv","","null","resources/maskTrios/BBA2.jpg","null","",NA,NA,NA,NA,""
"image-keyboard-response",290,247101,"0.0-4.92-2.92","o0s5gwo44382rls",947,"62.csv","","null","resources/images/fishbone.png","null","",NA,NA,NA,NA,""
"image-keyboard-response",291,247876,"0.0-4.93-0.93","o0s5gwo44382rls",947,"62.csv","","773.2999999523163","resources/trios/L1T2A2.jpg","39","restless",0.6,0.4,0.4,0.89701471666156,"false"
"image-keyboard-response",292,248284,"0.0-4.93-1.93","o0s5gwo44382rls",947,"62.csv","","null","resources/maskTrios/BBA2.jpg","null","",NA,NA,NA,NA,""
"image-keyboard-response",293,249493,"0.0-4.93-2.93","o0s5gwo44382rls",947,"62.csv","","null","resources/images/fishbone.png","null","",NA,NA,NA,NA,""
"image-keyboard-response",294,249795,"0.0-4.94-0.94","o0s5gwo44382rls",947,"62.csv","","300.39999985694885","resources/trios/L1T2A2.jpg","39","restless",0.6,0.3,0.4,0.828272175244202,"false"
"image-keyboard-response",295,250204,"0.0-4.94-1.94","o0s5gwo44382rls",947,"62.csv","","null","resources/maskTrios/BBA2.jpg","null","",NA,NA,NA,NA,""
"image-keyboard-response",296,251409,"0.0-4.94-2.94","o0s5gwo44382rls",947,"62.csv","","null","resources/images/fishbone.png","null","",NA,NA,NA,NA,""
"image-keyboard-response",297,251767,"0.0-4.95-0.95","o0s5gwo44382rls",947,"62.csv","","355.39999985694885","resources/trios/L1T2A2.jpg","39","restless",0.5,0.3,0.4,0.320611530676347,"true"
"image-keyboard-response",298,252180,"0.0-4.95-1.95","o0s5gwo44382rls",947,"62.csv","","null","resources/maskTrios/BBA2.jpg","null","",NA,NA,NA,NA,""
"image-keyboard-response",299,253388,"0.0-4.95-2.95","o0s5gwo44382rls",947,"62.csv","","null","resources/images/coin2.png","null","",NA,NA,NA,NA,""
"image-keyboard-response",300,253790,"0.0-4.96-0.96","o0s5gwo44382rls",947,"62.csv","","399.60000014305115","resources/trios/L1T2A2.jpg","39","restless",0.5,0.3,0.4,0.485562863867421,"false"
"image-keyboard-response",301,254204,"0.0-4.96-1.96","o0s5gwo44382rls",947,"62.csv","","null","resources/maskTrios/BBA2.jpg","null","",NA,NA,NA,NA,""
"image-keyboard-response",302,255409,"0.0-4.96-2.96","o0s5gwo44382rls",947,"62.csv","","null","resources/images/fishbone.png","null","",NA,NA,NA,NA,""
"image-keyboard-response",303,255777,"0.0-4.97-0.97","o0s5gwo44382rls",947,"62.csv","","365.59999990463257","resources/trios/L1T2A2.jpg","39","restless",0.5,0.3,0.4,0.907084963714232,"false"
"image-keyboard-response",304,256188,"0.0-4.97-1.97","o0s5gwo44382rls",947,"62.csv","","null","resources/maskTrios/BBA2.jpg","null","",NA,NA,NA,NA,""
"image-keyboard-response",305,257397,"0.0-4.97-2.97","o0s5gwo44382rls",947,"62.csv","","null","resources/images/fishbone.png","null","",NA,NA,NA,NA,""
"image-keyboard-response",306,257807,"0.0-4.98-0.98","o0s5gwo44382rls",947,"62.csv","","407.90000009536743","resources/trios/L1T2A2.jpg","39","restless",0.5,0.3,0.4,0.42233519775539,"false"
"image-keyboard-response",307,258220,"0.0-4.98-1.98","o0s5gwo44382rls",947,"62.csv","","null","resources/maskTrios/BBA2.jpg","null","",NA,NA,NA,NA,""
"image-keyboard-response",308,259428,"0.0-4.98-2.98","o0s5gwo44382rls",947,"62.csv","","null","resources/images/fishbone.png","null","",NA,NA,NA,NA,""
"image-keyboard-response",309,259830,"0.0-4.99-0.99","o0s5gwo44382rls",947,"62.csv","","399.7000000476837","resources/trios/L1T2A2.jpg","38","restless",0.5,0.3,0.4,0.952186849722025,"false"
"image-keyboard-response",310,260244,"0.0-4.99-1.99","o0s5gwo44382rls",947,"62.csv","","null","resources/maskTrios/BT2B.jpg","null","",NA,NA,NA,NA,""
"image-keyboard-response",311,261453,"0.0-4.99-2.99","o0s5gwo44382rls",947,"62.csv","","null","resources/images/fishbone.png","null","",NA,NA,NA,NA,""
"image-keyboard-response",312,261899,"0.0-4.100-0.100","o0s5gwo44382rls",947,"62.csv","","444.5","resources/trios/L1T2A2.jpg","38","restless",0.6,0.3,0.3,0.723130029542945,"false"
"image-keyboard-response",313,262309,"0.0-4.100-1.100","o0s5gwo44382rls",947,"62.csv","","null","resources/maskTrios/BT2B.jpg","null","",NA,NA,NA,NA,""
"image-keyboard-response",314,263516,"0.0-4.100-2.100","o0s5gwo44382rls",947,"62.csv","","null","resources/images/fishbone.png","null","",NA,NA,NA,NA,""
"image-keyboard-response",315,264037,"0.0-4.101-0.101","o0s5gwo44382rls",947,"62.csv","","517.7000000476837","resources/trios/L1T2A2.jpg","38","restless",0.6,0.3,0.3,0.895118305825758,"false"
"image-keyboard-response",316,264444,"0.0-4.101-1.101","o0s5gwo44382rls",947,"62.csv","","null","resources/maskTrios/BT2B.jpg","null","",NA,NA,NA,NA,""
"image-keyboard-response",317,265652,"0.0-4.101-2.101","o0s5gwo44382rls",947,"62.csv","","null","resources/images/fishbone.png","null","",NA,NA,NA,NA,""
"image-keyboard-response",318,266187,"0.0-4.102-0.102","o0s5gwo44382rls",947,"62.csv","","533.2999999523163","resources/trios/L1T2A2.jpg","38","restless",0.6,0.3,0.2,0.823548191137651,"false"
"image-keyboard-response",319,266596,"0.0-4.102-1.102","o0s5gwo44382rls",947,"62.csv","","null","resources/maskTrios/BT2B.jpg","null","",NA,NA,NA,NA,""
"image-keyboard-response",320,267800,"0.0-4.102-2.102","o0s5gwo44382rls",947,"62.csv","","null","resources/images/fishbone.png","null","",NA,NA,NA,NA,""
"image-keyboard-response",321,268309,"0.0-4.103-0.103","o0s5gwo44382rls",947,"62.csv","","508.10000014305115","resources/trios/L1T2A2.jpg","37","restless",0.6,0.3,0.2,0.132241690316257,"true"
"image-keyboard-response",322,268724,"0.0-4.103-1.103","o0s5gwo44382rls",947,"62.csv","","null","resources/maskTrios/L1BB.jpg","null","",NA,NA,NA,NA,""
"image-keyboard-response",323,269932,"0.0-4.103-2.103","o0s5gwo44382rls",947,"62.csv","","null","resources/images/coin2.png","null","",NA,NA,NA,NA,""
"image-keyboard-response",324,270502,"0.0-4.104-0.104","o0s5gwo44382rls",947,"62.csv","","567.5","resources/trios/L1T2A2.jpg","37","restless",0.6,0.3,0.2,0.305815221286535,"true"
"image-keyboard-response",325,270913,"0.0-4.104-1.104","o0s5gwo44382rls",947,"62.csv","","null","resources/maskTrios/L1BB.jpg","null","",NA,NA,NA,NA,""
"image-keyboard-response",326,272124,"0.0-4.104-2.104","o0s5gwo44382rls",947,"62.csv","","null","resources/images/coin2.png","null","",NA,NA,NA,NA,""
"image-keyboard-response",327,272695,"0.0-4.105-0.105","o0s5gwo44382rls",947,"62.csv","","569.2000000476837","resources/trios/L1T2A2.jpg","37","restless",0.6,0.3,0.2,0.584600763234369,"true"
"image-keyboard-response",328,273108,"0.0-4.105-1.105","o0s5gwo44382rls",947,"62.csv","","null","resources/maskTrios/L1BB.jpg","null","",NA,NA,NA,NA,""
"image-keyboard-response",329,274316,"0.0-4.105-2.105","o0s5gwo44382rls",947,"62.csv","","null","resources/images/coin2.png","null","",NA,NA,NA,NA,""
"image-keyboard-response",330,274932,"0.0-4.106-0.106","o0s5gwo44382rls",947,"62.csv","","614.1000001430511","resources/trios/L1T2A2.jpg","37","restless",0.6,0.3,0.2,0.523635586411247,"true"
"image-keyboard-response",331,275336,"0.0-4.106-1.106","o0s5gwo44382rls",947,"62.csv","","null","resources/maskTrios/L1BB.jpg","null","",NA,NA,NA,NA,""
"image-keyboard-response",332,276548,"0.0-4.106-2.106","o0s5gwo44382rls",947,"62.csv","","null","resources/images/coin2.png","null","",NA,NA,NA,NA,""
"image-keyboard-response",333,277175,"0.0-4.107-0.107","o0s5gwo44382rls",947,"62.csv","","625.6000001430511","resources/trios/L1T2A2.jpg","37","restless",0.6,0.3,0.2,0.996885313271753,"false"
"image-keyboard-response",334,277588,"0.0-4.107-1.107","o0s5gwo44382rls",947,"62.csv","","null","resources/maskTrios/L1BB.jpg","null","",NA,NA,NA,NA,""
"image-keyboard-response",335,278792,"0.0-4.107-2.107","o0s5gwo44382rls",947,"62.csv","","null","resources/images/fishbone.png","null","",NA,NA,NA,NA,""
"image-keyboard-response",336,279268,"0.0-4.108-0.108","o0s5gwo44382rls",947,"62.csv","","473.90000009536743","resources/trios/L1T2A2.jpg","37","restless",0.6,0.2,0.2,0.32906793122229,"true"
"image-keyboard-response",337,279676,"0.0-4.108-1.108","o0s5gwo44382rls",947,"62.csv","","null","resources/maskTrios/L1BB.jpg","null","",NA,NA,NA,NA,""
"image-keyboard-response",338,280884,"0.0-4.108-2.108","o0s5gwo44382rls",947,"62.csv","","null","resources/images/coin2.png","null","",NA,NA,NA,NA,""
"image-keyboard-response",339,281398,"0.0-4.109-0.109","o0s5gwo44382rls",947,"62.csv","","512","resources/trios/L1T2A2.jpg","37","restless",0.6,0.2,0.2,0.614263355251208,"false"
"image-keyboard-response",340,281812,"0.0-4.109-1.109","o0s5gwo44382rls",947,"62.csv","","null","resources/maskTrios/L1BB.jpg","null","",NA,NA,NA,NA,""
"image-keyboard-response",341,283021,"0.0-4.109-2.109","o0s5gwo44382rls",947,"62.csv","","null","resources/images/fishbone.png","null","",NA,NA,NA,NA,""
"image-keyboard-response",342,283490,"0.0-4.110-0.110","o0s5gwo44382rls",947,"62.csv","","467.39999985694885","resources/trios/L1T2A2.jpg","37","restless",0.6,0.2,0.2,0.356103315948271,"true"
"image-keyboard-response",343,283896,"0.0-4.110-1.110","o0s5gwo44382rls",947,"62.csv","","null","resources/maskTrios/L1BB.jpg","null","",NA,NA,NA,NA,""
"image-keyboard-response",344,285108,"0.0-4.110-2.110","o0s5gwo44382rls",947,"62.csv","","null","resources/images/coin2.png","null","",NA,NA,NA,NA,""
"image-keyboard-response",345,286172,"0.0-4.111-0.111","o0s5gwo44382rls",947,"62.csv","","1062","resources/trios/L1T2A2.jpg","37","restless",0.6,0.2,0.2,0.0587126924665262,"true"
"image-keyboard-response",346,286580,"0.0-4.111-1.111","o0s5gwo44382rls",947,"62.csv","","null","resources/maskTrios/L1BB.jpg","null","",NA,NA,NA,NA,""
"image-keyboard-response",347,287796,"0.0-4.111-2.111","o0s5gwo44382rls",947,"62.csv","","null","resources/images/coin2.png","null","",NA,NA,NA,NA,""
"image-keyboard-response",348,288330,"0.0-4.112-0.112","o0s5gwo44382rls",947,"62.csv","","532.7000000476837","resources/trios/L1T2A2.jpg","37","restless",0.6,0.2,0.2,0.914962157577389,"false"
"image-keyboard-response",349,288740,"0.0-4.112-1.112","o0s5gwo44382rls",947,"62.csv","","null","resources/maskTrios/L1BB.jpg","null","",NA,NA,NA,NA,""
"image-keyboard-response",350,289948,"0.0-4.112-2.112","o0s5gwo44382rls",947,"62.csv","","null","resources/images/fishbone.png","null","",NA,NA,NA,NA,""
"image-keyboard-response",351,290491,"0.0-4.113-0.113","o0s5gwo44382rls",947,"62.csv","","540.6999998092651","resources/trios/L1T2A2.jpg","37","restless",0.6,0.2,0.2,0.493698524015596,"true"
"image-keyboard-response",352,290896,"0.0-4.113-1.113","o0s5gwo44382rls",947,"62.csv","","null","resources/maskTrios/L1BB.jpg","null","",NA,NA,NA,NA,""
"image-keyboard-response",353,292108,"0.0-4.113-2.113","o0s5gwo44382rls",947,"62.csv","","null","resources/images/coin2.png","null","",NA,NA,NA,NA,""
"image-keyboard-response",354,292795,"0.0-4.114-0.114","o0s5gwo44382rls",947,"62.csv","","685.3000001907349","resources/trios/L1T2A2.jpg","37","restless",0.6,0.2,0.2,0.730121035101994,"false"
"image-keyboard-response",355,293204,"0.0-4.114-1.114","o0s5gwo44382rls",947,"62.csv","","null","resources/maskTrios/L1BB.jpg","null","",NA,NA,NA,NA,""
"image-keyboard-response",356,294412,"0.0-4.114-2.114","o0s5gwo44382rls",947,"62.csv","","null","resources/images/fishbone.png","null","",NA,NA,NA,NA,""
"image-keyboard-response",357,294970,"0.0-4.115-0.115","o0s5gwo44382rls",947,"62.csv","","555.0999999046326","resources/trios/L1T2A2.jpg","37","restless",0.6,0.2,0.2,0.436086097640123,"true"
"image-keyboard-response",358,295380,"0.0-4.115-1.115","o0s5gwo44382rls",947,"62.csv","","null","resources/maskTrios/L1BB.jpg","null","",NA,NA,NA,NA,""
"image-keyboard-response",359,296586,"0.0-4.115-2.115","o0s5gwo44382rls",947,"62.csv","","null","resources/images/coin2.png","null","",NA,NA,NA,NA,""
"image-keyboard-response",360,297041,"0.0-4.116-0.116","o0s5gwo44382rls",947,"62.csv","","452.2000000476837","resources/trios/L1T2A2.jpg","37","restless",0.6,0.2,0.2,0.58154491714732,"true"
"image-keyboard-response",361,297452,"0.0-4.116-1.116","o0s5gwo44382rls",947,"62.csv","","null","resources/maskTrios/L1BB.jpg","null","",NA,NA,NA,NA,""
"image-keyboard-response",362,298660,"0.0-4.116-2.116","o0s5gwo44382rls",947,"62.csv","","null","resources/images/coin2.png","null","",NA,NA,NA,NA,""
"image-keyboard-response",363,299246,"0.0-4.117-0.117","o0s5gwo44382rls",947,"62.csv","","583.2999999523163","resources/trios/L1T2A2.jpg","37","restless",0.5,0.2,0.2,0.788632556415228,"false"
"image-keyboard-response",364,299660,"0.0-4.117-1.117","o0s5gwo44382rls",947,"62.csv","","null","resources/maskTrios/L1BB.jpg","null","",NA,NA,NA,NA,""
"image-keyboard-response",365,300868,"0.0-4.117-2.117","o0s5gwo44382rls",947,"62.csv","","null","resources/images/fishbone.png","null","",NA,NA,NA,NA,""
"image-keyboard-response",366,301726,"0.0-4.118-0.118","o0s5gwo44382rls",947,"62.csv","","855.5","resources/trios/L1T2A2.jpg","37","restless",0.5,0.2,0.2,0.894799954331368,"false"
"image-keyboard-response",367,302140,"0.0-4.118-1.118","o0s5gwo44382rls",947,"62.csv","","null","resources/maskTrios/L1BB.jpg","null","",NA,NA,NA,NA,""
"image-keyboard-response",368,303348,"0.0-4.118-2.118","o0s5gwo44382rls",947,"62.csv","","null","resources/images/fishbone.png","null","",NA,NA,NA,NA,""
"image-keyboard-response",369,303837,"0.0-4.119-0.119","o0s5gwo44382rls",947,"62.csv","","487.2000000476837","resources/trios/L1T2A2.jpg","37","restless",0.5,0.2,0.2,0.0493084499289922,"true"
"image-keyboard-response",370,304252,"0.0-4.119-1.119","o0s5gwo44382rls",947,"62.csv","","null","resources/maskTrios/L1BB.jpg","null","",NA,NA,NA,NA,""
"image-keyboard-response",371,305460,"0.0-4.119-2.119","o0s5gwo44382rls",947,"62.csv","","null","resources/images/coin2.png","null","",NA,NA,NA,NA,""
"image-keyboard-response",372,305957,"0.0-4.120-0.120","o0s5gwo44382rls",947,"62.csv","","495.40000009536743","resources/trios/L1T2A2.jpg","37","restless",0.5,0.2,0.3,0.350217614944108,"true"
"image-keyboard-response",373,306372,"0.0-4.120-1.120","o0s5gwo44382rls",947,"62.csv","","null","resources/maskTrios/L1BB.jpg","null","",NA,NA,NA,NA,""
"image-keyboard-response",374,307580,"0.0-4.120-2.120","o0s5gwo44382rls",947,"62.csv","","null","resources/images/coin2.png","null","",NA,NA,NA,NA,""
"image-keyboard-response",375,308033,"0.0-4.121-0.121","o0s5gwo44382rls",947,"62.csv","","451.7999999523163","resources/trios/L1T2A2.jpg","37","restless",0.5,0.2,0.3,0.15712800781021,"true"
"image-keyboard-response",376,308444,"0.0-4.121-1.121","o0s5gwo44382rls",947,"62.csv","","null","resources/maskTrios/L1BB.jpg","null","",NA,NA,NA,NA,""
"image-keyboard-response",377,309651,"0.0-4.121-2.121","o0s5gwo44382rls",947,"62.csv","","null","resources/images/coin2.png","null","",NA,NA,NA,NA,""
"image-keyboard-response",378,310323,"0.0-4.122-0.122","o0s5gwo44382rls",947,"62.csv","","670","resources/trios/L1T2A2.jpg","37","restless",0.5,0.2,0.3,0.288334675058744,"true"
"image-keyboard-response",379,310732,"0.0-4.122-1.122","o0s5gwo44382rls",947,"62.csv","","null","resources/maskTrios/L1BB.jpg","null","",NA,NA,NA,NA,""
"image-keyboard-response",380,311939,"0.0-4.122-2.122","o0s5gwo44382rls",947,"62.csv","","null","resources/images/coin2.png","null","",NA,NA,NA,NA,""
"image-keyboard-response",381,312392,"0.0-4.123-0.123","o0s5gwo44382rls",947,"62.csv","","450.40000009536743","resources/trios/L1T2A2.jpg","37","restless",0.5,0.2,0.3,0.880430211064557,"false"
"image-keyboard-response",382,312800,"0.0-4.123-1.123","o0s5gwo44382rls",947,"62.csv","","null","resources/maskTrios/L1BB.jpg","null","",NA,NA,NA,NA,""
"image-keyboard-response",383,314009,"0.0-4.123-2.123","o0s5gwo44382rls",947,"62.csv","","null","resources/images/fishbone.png","null","",NA,NA,NA,NA,""
"image-keyboard-response",384,314546,"0.0-4.124-0.124","o0s5gwo44382rls",947,"62.csv","","535.2000000476837","resources/trios/L1T2A2.jpg","37","restless",0.5,0.2,0.3,0.245187156521886,"true"
"image-keyboard-response",385,314955,"0.0-4.124-1.124","o0s5gwo44382rls",947,"62.csv","","null","resources/maskTrios/L1BB.jpg","null","",NA,NA,NA,NA,""
"image-keyboard-response",386,316160,"0.0-4.124-2.124","o0s5gwo44382rls",947,"62.csv","","null","resources/images/coin2.png","null","",NA,NA,NA,NA,""
"image-keyboard-response",387,316730,"0.0-4.125-0.125","o0s5gwo44382rls",947,"62.csv","","567.8999998569489","resources/trios/L1T2A2.jpg","37","restless",0.5,0.2,0.2,0.796987689336968,"false"
"image-keyboard-response",388,317140,"0.0-4.125-1.125","o0s5gwo44382rls",947,"62.csv","","null","resources/maskTrios/L1BB.jpg","null","",NA,NA,NA,NA,""
"image-keyboard-response",389,318348,"0.0-4.125-2.125","o0s5gwo44382rls",947,"62.csv","","null","resources/images/fishbone.png","null","",NA,NA,NA,NA,""
"image-keyboard-response",390,319114,"0.0-4.126-0.126","o0s5gwo44382rls",947,"62.csv","","764","resources/trios/L1T2A2.jpg","37","restless",0.5,0.2,0.2,0.760084681502317,"false"
"image-keyboard-response",391,319524,"0.0-4.126-1.126","o0s5gwo44382rls",947,"62.csv","","null","resources/maskTrios/L1BB.jpg","null","",NA,NA,NA,NA,""
"image-keyboard-response",392,320732,"0.0-4.126-2.126","o0s5gwo44382rls",947,"62.csv","","null","resources/images/fishbone.png","null","",NA,NA,NA,NA,""
"image-keyboard-response",393,321339,"0.0-4.127-0.127","o0s5gwo44382rls",947,"62.csv","","606.4000000953674","resources/trios/L1T2A2.jpg","37","restless",0.5,0.2,0.3,0.340570759157792,"true"
"image-keyboard-response",394,321748,"0.0-4.127-1.127","o0s5gwo44382rls",947,"62.csv","","null","resources/maskTrios/L1BB.jpg","null","",NA,NA,NA,NA,""
"image-keyboard-response",395,322956,"0.0-4.127-2.127","o0s5gwo44382rls",947,"62.csv","","null","resources/images/coin2.png","null","",NA,NA,NA,NA,""
"image-keyboard-response",396,323493,"0.0-4.128-0.128","o0s5gwo44382rls",947,"62.csv","","534.9000000953674","resources/trios/L1T2A2.jpg","37","restless",0.5,0.2,0.4,0.745192503880427,"false"
"image-keyboard-response",397,323908,"0.0-4.128-1.128","o0s5gwo44382rls",947,"62.csv","","null","resources/maskTrios/L1BB.jpg","null","",NA,NA,NA,NA,""
"image-keyboard-response",398,325116,"0.0-4.128-2.128","o0s5gwo44382rls",947,"62.csv","","null","resources/images/fishbone.png","null","",NA,NA,NA,NA,""
"image-keyboard-response",399,325683,"0.0-4.129-0.129","o0s5gwo44382rls",947,"62.csv","","565.0999999046326","resources/trios/L1T2A2.jpg","37","restless",0.5,0.2,0.4,0.358886418434872,"true"
"image-keyboard-response",400,326091,"0.0-4.129-1.129","o0s5gwo44382rls",947,"62.csv","","null","resources/maskTrios/L1BB.jpg","null","",NA,NA,NA,NA,""
"image-keyboard-response",401,327299,"0.0-4.129-2.129","o0s5gwo44382rls",947,"62.csv","","null","resources/images/coin2.png","null","",NA,NA,NA,NA,""
"image-keyboard-response",402,328508,"0.0-4.130-0.130","o0s5gwo44382rls",947,"62.csv","","1206.8999998569489","resources/trios/L1T2A2.jpg","37","restless",0.5,0.2,0.4,0.402080888857247,"true"
"image-keyboard-response",403,328916,"0.0-4.130-1.130","o0s5gwo44382rls",947,"62.csv","","null","resources/maskTrios/L1BB.jpg","null","",NA,NA,NA,NA,""
"image-keyboard-response",404,330122,"0.0-4.130-2.130","o0s5gwo44382rls",947,"62.csv","","null","resources/images/coin2.png","null","",NA,NA,NA,NA,""
"image-keyboard-response",405,330977,"0.0-4.131-0.131","o0s5gwo44382rls",947,"62.csv","","853.2000000476837","resources/trios/L1T2A2.jpg","37","restless",0.5,0.2,0.5,0.200882383802754,"true"
"image-keyboard-response",406,331388,"0.0-4.131-1.131","o0s5gwo44382rls",947,"62.csv","","null","resources/maskTrios/L1BB.jpg","null","",NA,NA,NA,NA,""
"image-keyboard-response",407,332596,"0.0-4.131-2.131","o0s5gwo44382rls",947,"62.csv","","null","resources/images/coin2.png","null","",NA,NA,NA,NA,""
"image-keyboard-response",408,333021,"0.0-4.132-0.132","o0s5gwo44382rls",947,"62.csv","","423.90000009536743","resources/trios/L1T2A2.jpg","37","restless",0.5,0.2,0.5,0.521932959931385,"false"
"image-keyboard-response",409,333428,"0.0-4.132-1.132","o0s5gwo44382rls",947,"62.csv","","null","resources/maskTrios/L1BB.jpg","null","",NA,NA,NA,NA,""
"image-keyboard-response",410,334635,"0.0-4.132-2.132","o0s5gwo44382rls",947,"62.csv","","null","resources/images/fishbone.png","null","",NA,NA,NA,NA,""
"image-keyboard-response",411,334976,"0.0-4.133-0.133","o0s5gwo44382rls",947,"62.csv","","340","resources/trios/L1T2A2.jpg","37","restless",0.5,0.2,0.5,0.231248602048008,"true"
"image-keyboard-response",412,335387,"0.0-4.133-1.133","o0s5gwo44382rls",947,"62.csv","","null","resources/maskTrios/L1BB.jpg","null","",NA,NA,NA,NA,""
"image-keyboard-response",413,336595,"0.0-4.133-2.133","o0s5gwo44382rls",947,"62.csv","","null","resources/images/coin2.png","null","",NA,NA,NA,NA,""
"image-keyboard-response",414,337119,"0.0-4.134-0.134","o0s5gwo44382rls",947,"62.csv","","521.7000000476837","resources/trios/L1T2A2.jpg","37","restless",0.4,0.2,0.5,0.195897905571871,"true"
"image-keyboard-response",415,337531,"0.0-4.134-1.134","o0s5gwo44382rls",947,"62.csv","","null","resources/maskTrios/L1BB.jpg","null","",NA,NA,NA,NA,""
"image-keyboard-response",416,338740,"0.0-4.134-2.134","o0s5gwo44382rls",947,"62.csv","","null","resources/images/coin2.png","null","",NA,NA,NA,NA,""
"image-keyboard-response",417,339322,"0.0-4.135-0.135","o0s5gwo44382rls",947,"62.csv","","580.7999999523163","resources/trios/L1T2A2.jpg","37","restless",0.4,0.2,0.5,0.366828737922891,"true"
"image-keyboard-response",418,339732,"0.0-4.135-1.135","o0s5gwo44382rls",947,"62.csv","","null","resources/maskTrios/L1BB.jpg","null","",NA,NA,NA,NA,""
"image-keyboard-response",419,340939,"0.0-4.135-2.135","o0s5gwo44382rls",947,"62.csv","","null","resources/images/coin2.png","null","",NA,NA,NA,NA,""
"image-keyboard-response",420,341568,"0.0-4.136-0.136","o0s5gwo44382rls",947,"62.csv","","626.7000000476837","resources/trios/L1T2A2.jpg","37","restless",0.4,0.2,0.5,0.0646769803526173,"true"
"image-keyboard-response",421,341980,"0.0-4.136-1.136","o0s5gwo44382rls",947,"62.csv","","null","resources/maskTrios/L1BB.jpg","null","",NA,NA,NA,NA,""
"image-keyboard-response",422,343186,"0.0-4.136-2.136","o0s5gwo44382rls",947,"62.csv","","null","resources/images/coin2.png","null","",NA,NA,NA,NA,""
"image-keyboard-response",423,343547,"0.0-4.137-0.137","o0s5gwo44382rls",947,"62.csv","","358.5","resources/trios/L1T2A2.jpg","37","restless",0.3,0.2,0.5,0.915061924883518,"false"
"image-keyboard-response",424,343956,"0.0-4.137-1.137","o0s5gwo44382rls",947,"62.csv","","null","resources/maskTrios/L1BB.jpg","null","",NA,NA,NA,NA,""
"image-keyboard-response",425,345160,"0.0-4.137-2.137","o0s5gwo44382rls",947,"62.csv","","null","resources/images/fishbone.png","null","",NA,NA,NA,NA,""
"image-keyboard-response",426,345291,"0.0-4.138-0.138","o0s5gwo44382rls",947,"62.csv","","129.40000009536743","resources/trios/L1T2A2.jpg","37","restless",0.3,0.2,0.5,0.440302724507687,"false"
"image-keyboard-response",427,345700,"0.0-4.138-1.138","o0s5gwo44382rls",947,"62.csv","","null","resources/maskTrios/L1BB.jpg","null","",NA,NA,NA,NA,""
"image-keyboard-response",428,346903,"0.0-4.138-2.138","o0s5gwo44382rls",947,"62.csv","","null","resources/images/fishbone.png","null","",NA,NA,NA,NA,""
"image-keyboard-response",429,347629,"0.0-4.139-0.139","o0s5gwo44382rls",947,"62.csv","","723.8999998569489","resources/trios/L1T2A2.jpg","37","restless",0.3,0.2,0.5,0.4410619183193,"false"
"image-keyboard-response",430,348044,"0.0-4.139-1.139","o0s5gwo44382rls",947,"62.csv","","null","resources/maskTrios/L1BB.jpg","null","",NA,NA,NA,NA,""
"image-keyboard-response",431,349252,"0.0-4.139-2.139","o0s5gwo44382rls",947,"62.csv","","null","resources/images/fishbone.png","null","",NA,NA,NA,NA,""
"image-keyboard-response",432,350021,"0.0-4.140-0.140","o0s5gwo44382rls",947,"62.csv","","766.5999999046326","resources/trios/L1T2A2.jpg","37","restless",0.3,0.3,0.5,0.102973955401436,"true"
"image-keyboard-response",433,350436,"0.0-4.140-1.140","o0s5gwo44382rls",947,"62.csv","","null","resources/maskTrios/L1BB.jpg","null","",NA,NA,NA,NA,""
"image-keyboard-response",434,351640,"0.0-4.140-2.140","o0s5gwo44382rls",947,"62.csv","","null","resources/images/coin2.png","null","",NA,NA,NA,NA,""
"image-keyboard-response",435,352285,"0.0-4.141-0.141","o0s5gwo44382rls",947,"62.csv","","643","resources/trios/L1T2A2.jpg","37","restless",0.3,0.3,0.5,0.138119967683132,"true"
"image-keyboard-response",436,352700,"0.0-4.141-1.141","o0s5gwo44382rls",947,"62.csv","","null","resources/maskTrios/L1BB.jpg","null","",NA,NA,NA,NA,""
"image-keyboard-response",437,353903,"0.0-4.141-2.141","o0s5gwo44382rls",947,"62.csv","","null","resources/images/coin2.png","null","",NA,NA,NA,NA,""
"image-keyboard-response",438,354849,"0.0-4.142-0.142","o0s5gwo44382rls",947,"62.csv","","944.0999999046326","resources/trios/L1T2A2.jpg","37","restless",0.3,0.3,0.5,0.793201240984011,"false"
"image-keyboard-response",439,355260,"0.0-4.142-1.142","o0s5gwo44382rls",947,"62.csv","","null","resources/maskTrios/L1BB.jpg","null","",NA,NA,NA,NA,""
"image-keyboard-response",440,356467,"0.0-4.142-2.142","o0s5gwo44382rls",947,"62.csv","","null","resources/images/fishbone.png","null","",NA,NA,NA,NA,""
"image-keyboard-response",441,357511,"0.0-4.143-0.143","o0s5gwo44382rls",947,"62.csv","","1042.0999999046326","resources/trios/L1T2A2.jpg","37","restless",0.3,0.3,0.5,0.939300629744233,"false"
"image-keyboard-response",442,357922,"0.0-4.143-1.143","o0s5gwo44382rls",947,"62.csv","","null","resources/maskTrios/L1BB.jpg","null","",NA,NA,NA,NA,""
"image-keyboard-response",443,359132,"0.0-4.143-2.143","o0s5gwo44382rls",947,"62.csv","","null","resources/images/fishbone.png","null","",NA,NA,NA,NA,""
"image-keyboard-response",444,360076,"0.0-4.144-0.144","o0s5gwo44382rls",947,"62.csv","","942","resources/trios/L1T2A2.jpg","37","restless",0.3,0.3,0.5,0.513933963949962,"false"
"image-keyboard-response",445,360484,"0.0-4.144-1.144","o0s5gwo44382rls",947,"62.csv","","null","resources/maskTrios/L1BB.jpg","null","",NA,NA,NA,NA,""
"image-keyboard-response",446,361689,"0.0-4.144-2.144","o0s5gwo44382rls",947,"62.csv","","null","resources/images/fishbone.png","null","",NA,NA,NA,NA,""
"image-keyboard-response",447,362539,"0.0-4.145-0.145","o0s5gwo44382rls",947,"62.csv","","848.5","resources/trios/L1T2A2.jpg","38","restless",0.4,0.3,0.5,0.148966872796308,"true"
"image-keyboard-response",448,362948,"0.0-4.145-1.145","o0s5gwo44382rls",947,"62.csv","","null","resources/maskTrios/BT2B.jpg","null","",NA,NA,NA,NA,""
"image-keyboard-response",449,364156,"0.0-4.145-2.145","o0s5gwo44382rls",947,"62.csv","","null","resources/images/coin2.png","null","",NA,NA,NA,NA,""
"image-keyboard-response",450,364745,"0.0-4.146-0.146","o0s5gwo44382rls",947,"62.csv","","587","resources/trios/L1T2A2.jpg","38","restless",0.4,0.3,0.5,0.669102044815131,"false"
"image-keyboard-response",451,365155,"0.0-4.146-1.146","o0s5gwo44382rls",947,"62.csv","","null","resources/maskTrios/BT2B.jpg","null","",NA,NA,NA,NA,""
"image-keyboard-response",452,366359,"0.0-4.146-2.146","o0s5gwo44382rls",947,"62.csv","","null","resources/images/fishbone.png","null","",NA,NA,NA,NA,""
"image-keyboard-response",453,366785,"0.0-4.147-0.147","o0s5gwo44382rls",947,"62.csv","","423.40000009536743","resources/trios/L1T2A2.jpg","38","restless",0.4,0.3,0.5,0.217025404874622,"true"
"image-keyboard-response",454,367196,"0.0-4.147-1.147","o0s5gwo44382rls",947,"62.csv","","null","resources/maskTrios/BT2B.jpg","null","",NA,NA,NA,NA,""
"image-keyboard-response",455,368404,"0.0-4.147-2.147","o0s5gwo44382rls",947,"62.csv","","null","resources/images/coin2.png","null","",NA,NA,NA,NA,""
"image-keyboard-response",456,368858,"0.0-4.148-0.148","o0s5gwo44382rls",947,"62.csv","","451.5","resources/trios/L1T2A2.jpg","38","restless",0.5,0.3,0.5,0.688383787807698,"false"
"image-keyboard-response",457,369265,"0.0-4.148-1.148","o0s5gwo44382rls",947,"62.csv","","null","resources/maskTrios/BT2B.jpg","null","",NA,NA,NA,NA,""
"image-keyboard-response",458,370475,"0.0-4.148-2.148","o0s5gwo44382rls",947,"62.csv","","null","resources/images/fishbone.png","null","",NA,NA,NA,NA,""
"image-keyboard-response",459,370845,"0.0-4.149-0.149","o0s5gwo44382rls",947,"62.csv","","367.19999980926514","resources/trios/L1T2A2.jpg","38","restless",0.5,0.3,0.5,0.337172773402366,"false"
"image-keyboard-response",460,371260,"0.0-4.149-1.149","o0s5gwo44382rls",947,"62.csv","","null","resources/maskTrios/BT2B.jpg","null","",NA,NA,NA,NA,""
"image-keyboard-response",461,372468,"0.0-4.149-2.149","o0s5gwo44382rls",947,"62.csv","","null","resources/images/fishbone.png","null","",NA,NA,NA,NA,""
"image-keyboard-response",462,372825,"0.0-4.150-0.150","o0s5gwo44382rls",947,"62.csv","","355","resources/trios/L1T2A2.jpg","38","restless",0.5,0.3,0.5,0.502447491630964,"false"
"image-keyboard-response",463,373235,"0.0-4.150-1.150","o0s5gwo44382rls",947,"62.csv","","null","resources/maskTrios/BT2B.jpg","null","",NA,NA,NA,NA,""
"image-keyboard-response",464,374443,"0.0-4.150-2.150","o0s5gwo44382rls",947,"62.csv","","null","resources/images/fishbone.png","null","",NA,NA,NA,NA,""
"image-keyboard-response",465,374763,"0.0-4.151-0.151","o0s5gwo44382rls",947,"62.csv","","317.09999990463257","resources/trios/L1T2A2.jpg","38","restless",0.5,0.3,0.5,0.440928735356192,"false"
"image-keyboard-response",466,375169,"0.0-4.151-1.151","o0s5gwo44382rls",947,"62.csv","","null","resources/maskTrios/BT2B.jpg","null","",NA,NA,NA,NA,""
"image-keyboard-response",467,376379,"0.0-4.151-2.151","o0s5gwo44382rls",947,"62.csv","","null","resources/images/fishbone.png","null","",NA,NA,NA,NA,""
"image-keyboard-response",468,376678,"0.0-4.152-0.152","o0s5gwo44382rls",947,"62.csv","","296.5","resources/trios/L1T2A2.jpg","39","restless",0.5,0.2,0.5,0.0968728151008271,"true"
"image-keyboard-response",469,377092,"0.0-4.152-1.152","o0s5gwo44382rls",947,"62.csv","","null","resources/maskTrios/BBA2.jpg","null","",NA,NA,NA,NA,""
"image-keyboard-response",470,378297,"0.0-4.152-2.152","o0s5gwo44382rls",947,"62.csv","","null","resources/images/coin2.png","null","",NA,NA,NA,NA,""
"image-keyboard-response",471,378713,"0.0-4.153-0.153","o0s5gwo44382rls",947,"62.csv","","414.09999990463257","resources/trios/L1T2A2.jpg","39","restless",0.5,0.2,0.5,0.00963362349518837,"true"
"image-keyboard-response",472,379122,"0.0-4.153-1.153","o0s5gwo44382rls",947,"62.csv","","null","resources/maskTrios/BBA2.jpg","null","",NA,NA,NA,NA,""
"image-keyboard-response",473,380331,"0.0-4.153-2.153","o0s5gwo44382rls",947,"62.csv","","null","resources/images/coin2.png","null","",NA,NA,NA,NA,""
"image-keyboard-response",474,380656,"0.0-4.154-0.154","o0s5gwo44382rls",947,"62.csv","","322.7000000476837","resources/trios/L1T2A2.jpg","39","restless",0.5,0.2,0.5,0.630160438485272,"false"
"image-keyboard-response",475,381068,"0.0-4.154-1.154","o0s5gwo44382rls",947,"62.csv","","null","resources/maskTrios/BBA2.jpg","null","",NA,NA,NA,NA,""
"image-keyboard-response",476,382275,"0.0-4.154-2.154","o0s5gwo44382rls",947,"62.csv","","null","resources/images/fishbone.png","null","",NA,NA,NA,NA,""
"image-keyboard-response",477,383078,"0.0-4.155-0.155","o0s5gwo44382rls",947,"62.csv","","800.1999998092651","resources/trios/L1T2A2.jpg","39","restless",0.5,0.2,0.5,0.0134422995278094,"true"
"image-keyboard-response",478,383492,"0.0-4.155-1.155","o0s5gwo44382rls",947,"62.csv","","null","resources/maskTrios/BBA2.jpg","null","",NA,NA,NA,NA,""
"image-keyboard-response",479,384700,"0.0-4.155-2.155","o0s5gwo44382rls",947,"62.csv","","null","resources/images/coin2.png","null","",NA,NA,NA,NA,""
"image-keyboard-response",480,385236,"0.0-4.156-0.156","o0s5gwo44382rls",947,"62.csv","","533.7999999523163","resources/trios/L1T2A2.jpg","39","restless",0.5,0.2,0.5,0.0448805882658436,"true"
"image-keyboard-response",481,385644,"0.0-4.156-1.156","o0s5gwo44382rls",947,"62.csv","","null","resources/maskTrios/BBA2.jpg","null","",NA,NA,NA,NA,""
"image-keyboard-response",482,386852,"0.0-4.156-2.156","o0s5gwo44382rls",947,"62.csv","","null","resources/images/coin2.png","null","",NA,NA,NA,NA,""
"image-keyboard-response",483,387200,"0.0-4.157-0.157","o0s5gwo44382rls",947,"62.csv","","346.2000000476837","resources/trios/L1T2A2.jpg","39","restless",0.5,0.2,0.5,0.76856258964731,"false"
"image-keyboard-response",484,387611,"0.0-4.157-1.157","o0s5gwo44382rls",947,"62.csv","","null","resources/maskTrios/BBA2.jpg","null","",NA,NA,NA,NA,""
"image-keyboard-response",485,388819,"0.0-4.157-2.157","o0s5gwo44382rls",947,"62.csv","","null","resources/images/fishbone.png","null","",NA,NA,NA,NA,""
"image-keyboard-response",486,389189,"0.0-4.158-0.158","o0s5gwo44382rls",947,"62.csv","","367.90000009536743","resources/trios/L1T2A2.jpg","39","restless",0.5,0.2,0.5,0.16976805642934,"true"
"image-keyboard-response",487,389603,"0.0-4.158-1.158","o0s5gwo44382rls",947,"62.csv","","null","resources/maskTrios/BBA2.jpg","null","",NA,NA,NA,NA,""
"image-keyboard-response",488,390812,"0.0-4.158-2.158","o0s5gwo44382rls",947,"62.csv","","null","resources/images/coin2.png","null","",NA,NA,NA,NA,""
"image-keyboard-response",489,391219,"0.0-4.159-0.159","o0s5gwo44382rls",947,"62.csv","","405.40000009536743","resources/trios/L1T2A2.jpg","39","restless",0.5,0.2,0.5,0.716973547900269,"false"
"image-keyboard-response",490,391627,"0.0-4.159-1.159","o0s5gwo44382rls",947,"62.csv","","null","resources/maskTrios/BBA2.jpg","null","",NA,NA,NA,NA,""
"image-keyboard-response",491,392831,"0.0-4.159-2.159","o0s5gwo44382rls",947,"62.csv","","null","resources/images/fishbone.png","null","",NA,NA,NA,NA,""
"image-keyboard-response",492,393264,"0.0-4.160-0.160","o0s5gwo44382rls",947,"62.csv","","430.7999999523163","resources/trios/L1T2A2.jpg","39","restless",0.6,0.2,0.6,0.606009240202164,"false"
"image-keyboard-response",493,393675,"0.0-4.160-1.160","o0s5gwo44382rls",947,"62.csv","","null","resources/maskTrios/BBA2.jpg","null","",NA,NA,NA,NA,""
"image-keyboard-response",494,394882,"0.0-4.160-2.160","o0s5gwo44382rls",947,"62.csv","","null","resources/images/fishbone.png","null","",NA,NA,NA,NA,""
"image-keyboard-response",495,395695,"0.0-4.161-0.161","o0s5gwo44382rls",947,"62.csv","","810.7999999523163","resources/trios/L1T2A2.jpg","39","restless",0.6,0.2,0.6,0.00779616155671192,"true"
"image-keyboard-response",496,396107,"0.0-4.161-1.161","o0s5gwo44382rls",947,"62.csv","","null","resources/maskTrios/BBA2.jpg","null","",NA,NA,NA,NA,""
"image-keyboard-response",497,397313,"0.0-4.161-2.161","o0s5gwo44382rls",947,"62.csv","","null","resources/images/coin2.png","null","",NA,NA,NA,NA,""
"image-keyboard-response",498,397898,"0.0-4.162-0.162","o0s5gwo44382rls",947,"62.csv","","582.8000001907349","resources/trios/L1T2A2.jpg","39","restless",0.6,0.2,0.6,0.937689532938802,"false"
"image-keyboard-response",499,398303,"0.0-4.162-1.162","o0s5gwo44382rls",947,"62.csv","","null","resources/maskTrios/BBA2.jpg","null","",NA,NA,NA,NA,""
"image-keyboard-response",500,399516,"0.0-4.162-2.162","o0s5gwo44382rls",947,"62.csv","","null","resources/images/fishbone.png","null","",NA,NA,NA,NA,""
"image-keyboard-response",501,399931,"0.0-4.163-0.163","o0s5gwo44382rls",947,"62.csv","","413.10000014305115","resources/trios/L1T2A2.jpg","39","restless",0.6,0.2,0.6,0.0378096938658288,"true"
"image-keyboard-response",502,400340,"0.0-4.163-1.163","o0s5gwo44382rls",947,"62.csv","","null","resources/maskTrios/BBA2.jpg","null","",NA,NA,NA,NA,""
"image-keyboard-response",503,401547,"0.0-4.163-2.163","o0s5gwo44382rls",947,"62.csv","","null","resources/images/coin2.png","null","",NA,NA,NA,NA,""
"image-keyboard-response",504,401973,"0.0-4.164-0.164","o0s5gwo44382rls",947,"62.csv","","424.7999999523163","resources/trios/L1T2A2.jpg","39","restless",0.6,0.2,0.6,0.159495889939862,"true"
"image-keyboard-response",505,402387,"0.0-4.164-1.164","o0s5gwo44382rls",947,"62.csv","","null","resources/maskTrios/BBA2.jpg","null","",NA,NA,NA,NA,""
"image-keyboard-response",506,403596,"0.0-4.164-2.164","o0s5gwo44382rls",947,"62.csv","","null","resources/images/coin2.png","null","",NA,NA,NA,NA,""
"image-keyboard-response",507,403945,"0.0-4.165-0.165","o0s5gwo44382rls",947,"62.csv","","347.10000014305115","resources/trios/L1T2A2.jpg","39","restless",0.6,0.2,0.6,0.527282524559252,"true"
"image-keyboard-response",508,404356,"0.0-4.165-1.165","o0s5gwo44382rls",947,"62.csv","","null","resources/maskTrios/BBA2.jpg","null","",NA,NA,NA,NA,""
"image-keyboard-response",509,405559,"0.0-4.165-2.165","o0s5gwo44382rls",947,"62.csv","","null","resources/images/coin2.png","null","",NA,NA,NA,NA,""
"image-keyboard-response",510,405978,"0.0-4.166-0.166","o0s5gwo44382rls",947,"62.csv","","417.39999985694885","resources/trios/L1T2A2.jpg","39","restless",0.6,0.2,0.6,0.591478419520718,"true"
"image-keyboard-response",511,406387,"0.0-4.166-1.166","o0s5gwo44382rls",947,"62.csv","","null","resources/maskTrios/BBA2.jpg","null","",NA,NA,NA,NA,""
"image-keyboard-response",512,407596,"0.0-4.166-2.166","o0s5gwo44382rls",947,"62.csv","","null","resources/images/coin2.png","null","",NA,NA,NA,NA,""
"image-keyboard-response",513,407974,"0.0-4.167-0.167","o0s5gwo44382rls",947,"62.csv","","376.5","resources/trios/L1T2A2.jpg","39","restless",0.6,0.2,0.6,0.647381110890759,"false"
"image-keyboard-response",514,408387,"0.0-4.167-1.167","o0s5gwo44382rls",947,"62.csv","","null","resources/maskTrios/BBA2.jpg","null","",NA,NA,NA,NA,""
"image-keyboard-response",515,409595,"0.0-4.167-2.167","o0s5gwo44382rls",947,"62.csv","","null","resources/images/fishbone.png","null","",NA,NA,NA,NA,""
"image-keyboard-response",516,410019,"0.0-4.168-0.168","o0s5gwo44382rls",947,"62.csv","","421.2000000476837","resources/trios/L1T2A2.jpg","39","restless",0.6,0.2,0.6,0.088749590978215,"true"
"image-keyboard-response",517,410427,"0.0-4.168-1.168","o0s5gwo44382rls",947,"62.csv","","null","resources/maskTrios/BBA2.jpg","null","",NA,NA,NA,NA,""
"image-keyboard-response",518,411634,"0.0-4.168-2.168","o0s5gwo44382rls",947,"62.csv","","null","resources/images/coin2.png","null","",NA,NA,NA,NA,""
"image-keyboard-response",519,412256,"0.0-4.169-0.169","o0s5gwo44382rls",947,"62.csv","","620.3999998569489","resources/trios/L1T2A2.jpg","39","restless",0.6,0.3,0.6,0.246917902128459,"true"
"image-keyboard-response",520,412667,"0.0-4.169-1.169","o0s5gwo44382rls",947,"62.csv","","null","resources/maskTrios/BBA2.jpg","null","",NA,NA,NA,NA,""
"image-keyboard-response",521,413876,"0.0-4.169-2.169","o0s5gwo44382rls",947,"62.csv","","null","resources/images/coin2.png","null","",NA,NA,NA,NA,""
"image-keyboard-response",522,416489,"0.0-4.170-0.170","o0s5gwo44382rls",947,"62.csv","","2611","resources/trios/L1T2A2.jpg","39","restless",0.6,0.3,0.6,0.373899026739464,"true"
"image-keyboard-response",523,416900,"0.0-4.170-1.170","o0s5gwo44382rls",947,"62.csv","","null","resources/maskTrios/BBA2.jpg","null","",NA,NA,NA,NA,""
"image-keyboard-response",524,418107,"0.0-4.170-2.170","o0s5gwo44382rls",947,"62.csv","","null","resources/images/coin2.png","null","",NA,NA,NA,NA,""
"image-keyboard-response",525,418650,"0.0-4.171-0.171","o0s5gwo44382rls",947,"62.csv","","540.5999999046326","resources/trios/L1T2A2.jpg","39","restless",0.6,0.3,0.6,0.0761372751175018,"true"
"image-keyboard-response",526,419059,"0.0-4.171-1.171","o0s5gwo44382rls",947,"62.csv","","null","resources/maskTrios/BBA2.jpg","null","",NA,NA,NA,NA,""
"image-keyboard-response",527,420267,"0.0-4.171-2.171","o0s5gwo44382rls",947,"62.csv","","null","resources/images/coin2.png","null","",NA,NA,NA,NA,""
"image-keyboard-response",528,420521,"0.0-4.172-0.172","o0s5gwo44382rls",947,"62.csv","","251.40000009536743","resources/trios/L1T2A2.jpg","39","restless",0.6,0.3,0.6,0.889887275677993,"false"
"image-keyboard-response",529,420927,"0.0-4.172-1.172","o0s5gwo44382rls",947,"62.csv","","null","resources/maskTrios/BBA2.jpg","null","",NA,NA,NA,NA,""
"image-keyboard-response",530,422139,"0.0-4.172-2.172","o0s5gwo44382rls",947,"62.csv","","null","resources/images/fishbone.png","null","",NA,NA,NA,NA,""
"image-keyboard-response",531,422540,"0.0-4.173-0.173","o0s5gwo44382rls",947,"62.csv","","398.39999985694885","resources/trios/L1T2A2.jpg","39","restless",0.6,0.3,0.6,0.297733523498166,"true"
"image-keyboard-response",532,422947,"0.0-4.173-1.173","o0s5gwo44382rls",947,"62.csv","","null","resources/maskTrios/BBA2.jpg","null","",NA,NA,NA,NA,""
"image-keyboard-response",533,424152,"0.0-4.173-2.173","o0s5gwo44382rls",947,"62.csv","","null","resources/images/coin2.png","null","",NA,NA,NA,NA,""
"image-keyboard-response",534,424845,"0.0-4.174-0.174","o0s5gwo44382rls",947,"62.csv","","690","resources/trios/L1T2A2.jpg","39","restless",0.6,0.4,0.6,0.946558470920796,"false"
"image-keyboard-response",535,425256,"0.0-4.174-1.174","o0s5gwo44382rls",947,"62.csv","","null","resources/maskTrios/BBA2.jpg","null","",NA,NA,NA,NA,""
"image-keyboard-response",536,426467,"0.0-4.174-2.174","o0s5gwo44382rls",947,"62.csv","","null","resources/images/fishbone.png","null","",NA,NA,NA,NA,""
"image-keyboard-response",537,426591,"0.0-4.175-0.175","o0s5gwo44382rls",947,"62.csv","","122.59999990463257","resources/trios/L1T2A2.jpg","39","restless",0.6,0.4,0.6,0.280860925412003,"true"
"image-keyboard-response",538,427003,"0.0-4.175-1.175","o0s5gwo44382rls",947,"62.csv","","null","resources/maskTrios/BBA2.jpg","null","",NA,NA,NA,NA,""
"image-keyboard-response",539,428212,"0.0-4.175-2.175","o0s5gwo44382rls",947,"62.csv","","null","resources/images/coin2.png","null","",NA,NA,NA,NA,""
"image-keyboard-response",540,428660,"0.0-4.176-0.176","o0s5gwo44382rls",947,"62.csv","","446.2000000476837","resources/trios/L1T2A2.jpg","39","restless",0.6,0.4,0.6,0.911604640290557,"false"
"image-keyboard-response",541,429067,"0.0-4.176-1.176","o0s5gwo44382rls",947,"62.csv","","null","resources/maskTrios/BBA2.jpg","null","",NA,NA,NA,NA,""
"image-keyboard-response",542,430275,"0.0-4.176-2.176","o0s5gwo44382rls",947,"62.csv","","null","resources/images/fishbone.png","null","",NA,NA,NA,NA,""
"image-keyboard-response",543,430658,"0.0-4.177-0.177","o0s5gwo44382rls",947,"62.csv","","381.09999990463257","resources/trios/L1T2A2.jpg","39","restless",0.6,0.4,0.6,0.25226274634324,"true"
"image-keyboard-response",544,431067,"0.0-4.177-1.177","o0s5gwo44382rls",947,"62.csv","","null","resources/maskTrios/BBA2.jpg","null","",NA,NA,NA,NA,""
"image-keyboard-response",545,432276,"0.0-4.177-2.177","o0s5gwo44382rls",947,"62.csv","","null","resources/images/coin2.png","null","",NA,NA,NA,NA,""
"image-keyboard-response",546,432946,"0.0-4.178-0.178","o0s5gwo44382rls",947,"62.csv","","668.5999999046326","resources/trios/L1T2A2.jpg","39","restless",0.5,0.4,0.7,0.73205214892849,"false"
"image-keyboard-response",547,433355,"0.0-4.178-1.178","o0s5gwo44382rls",947,"62.csv","","null","resources/maskTrios/BBA2.jpg","null","",NA,NA,NA,NA,""
"image-keyboard-response",548,434564,"0.0-4.178-2.178","o0s5gwo44382rls",947,"62.csv","","null","resources/images/fishbone.png","null","",NA,NA,NA,NA,""
"image-keyboard-response",549,435774,"0.0-4.179-0.179","o0s5gwo44382rls",947,"62.csv","","1208.2000000476837","resources/trios/L1T2A2.jpg","39","restless",0.5,0.4,0.7,0.555679828550165,"true"
"image-keyboard-response",550,436187,"0.0-4.179-1.179","o0s5gwo44382rls",947,"62.csv","","null","resources/maskTrios/BBA2.jpg","null","",NA,NA,NA,NA,""
"image-keyboard-response",551,437396,"0.0-4.179-2.179","o0s5gwo44382rls",947,"62.csv","","null","resources/images/coin2.png","null","",NA,NA,NA,NA,""
"image-keyboard-response",552,438014,"0.0-4.180-0.180","o0s5gwo44382rls",947,"62.csv","","615.8999998569489","resources/trios/L1T2A2.jpg","39","restless",0.5,0.4,0.7,0.858398971222329,"false"
"image-keyboard-response",553,438427,"0.0-4.180-1.180","o0s5gwo44382rls",947,"62.csv","","null","resources/maskTrios/BBA2.jpg","null","",NA,NA,NA,NA,""
"image-keyboard-response",554,439634,"0.0-4.180-2.180","o0s5gwo44382rls",947,"62.csv","","null","resources/images/fishbone.png","null","",NA,NA,NA,NA,""
"image-keyboard-response",555,441193,"0.0-4.181-0.181","o0s5gwo44382rls",947,"62.csv","","1556.1000001430511","resources/trios/L1T2A2.jpg","39","restless",0.5,0.4,0.7,0.243493497945709,"true"
"image-keyboard-response",556,441599,"0.0-4.181-1.181","o0s5gwo44382rls",947,"62.csv","","null","resources/maskTrios/BBA2.jpg","null","",NA,NA,NA,NA,""
"image-keyboard-response",557,442811,"0.0-4.181-2.181","o0s5gwo44382rls",947,"62.csv","","null","resources/images/coin2.png","null","",NA,NA,NA,NA,""
"image-keyboard-response",558,443217,"0.0-4.182-0.182","o0s5gwo44382rls",947,"62.csv","","404.5","resources/trios/L1T2A2.jpg","39","restless",0.5,0.4,0.7,0.701168371614453,"false"
"image-keyboard-response",559,443626,"0.0-4.182-1.182","o0s5gwo44382rls",947,"62.csv","","null","resources/maskTrios/BBA2.jpg","null","",NA,NA,NA,NA,""
"image-keyboard-response",560,444835,"0.0-4.182-2.182","o0s5gwo44382rls",947,"62.csv","","null","resources/images/fishbone.png","null","",NA,NA,NA,NA,""
"image-keyboard-response",561,444928,"0.0-4.183-0.183","o0s5gwo44382rls",947,"62.csv","","91.20000004768372","resources/trios/L1T2A2.jpg","39","restless",0.5,0.4,0.7,0.685665240030536,"true"
"image-keyboard-response",562,445339,"0.0-4.183-1.183","o0s5gwo44382rls",947,"62.csv","","null","resources/maskTrios/BBA2.jpg","null","",NA,NA,NA,NA,""
"image-keyboard-response",563,446547,"0.0-4.183-2.183","o0s5gwo44382rls",947,"62.csv","","null","resources/images/coin2.png","null","",NA,NA,NA,NA,""
"image-keyboard-response",564,446940,"0.0-4.184-0.184","o0s5gwo44382rls",947,"62.csv","","391.39999985694885","resources/trios/L1T2A2.jpg","39","restless",0.5,0.4,0.7,0.931083558336545,"false"
"image-keyboard-response",565,447355,"0.0-4.184-1.184","o0s5gwo44382rls",947,"62.csv","","null","resources/maskTrios/BBA2.jpg","null","",NA,NA,NA,NA,""
"image-keyboard-response",566,448564,"0.0-4.184-2.184","o0s5gwo44382rls",947,"62.csv","","null","resources/images/fishbone.png","null","",NA,NA,NA,NA,""
"image-keyboard-response",567,448814,"0.0-4.185-0.185","o0s5gwo44382rls",947,"62.csv","","248.40000009536743","resources/trios/L1T2A2.jpg","39","restless",0.5,0.3,0.7,0.0303543763893406,"true"
"image-keyboard-response",568,449227,"0.0-4.185-1.185","o0s5gwo44382rls",947,"62.csv","","null","resources/maskTrios/BBA2.jpg","null","",NA,NA,NA,NA,""
"image-keyboard-response",569,450435,"0.0-4.185-2.185","o0s5gwo44382rls",947,"62.csv","","null","resources/images/coin2.png","null","",NA,NA,NA,NA,""
"image-keyboard-response",570,450871,"0.0-4.186-0.186","o0s5gwo44382rls",947,"62.csv","","433.10000014305115","resources/trios/L1T2A2.jpg","39","restless",0.5,0.3,0.7,0.590969846528975,"true"
"image-keyboard-response",571,451284,"0.0-4.186-1.186","o0s5gwo44382rls",947,"62.csv","","null","resources/maskTrios/BBA2.jpg","null","",NA,NA,NA,NA,""
"image-keyboard-response",572,452491,"0.0-4.186-2.186","o0s5gwo44382rls",947,"62.csv","","null","resources/images/coin2.png","null","",NA,NA,NA,NA,""
"image-keyboard-response",573,453331,"0.0-4.187-0.187","o0s5gwo44382rls",947,"62.csv","","838.5","resources/trios/L1T2A2.jpg","39","restless",0.5,0.3,0.7,0.173881924919984,"true"
"image-keyboard-response",574,453739,"0.0-4.187-1.187","o0s5gwo44382rls",947,"62.csv","","null","resources/maskTrios/BBA2.jpg","null","",NA,NA,NA,NA,""
"image-keyboard-response",575,454947,"0.0-4.187-2.187","o0s5gwo44382rls",947,"62.csv","","null","resources/images/coin2.png","null","",NA,NA,NA,NA,""
"image-keyboard-response",576,455346,"0.0-4.188-0.188","o0s5gwo44382rls",947,"62.csv","","396.90000009536743","resources/trios/L1T2A2.jpg","39","restless",0.5,0.3,0.7,0.737343729919325,"false"
"image-keyboard-response",577,455755,"0.0-4.188-1.188","o0s5gwo44382rls",947,"62.csv","","null","resources/maskTrios/BBA2.jpg","null","",NA,NA,NA,NA,""
"image-keyboard-response",578,456963,"0.0-4.188-2.188","o0s5gwo44382rls",947,"62.csv","","null","resources/images/fishbone.png","null","",NA,NA,NA,NA,""
"image-keyboard-response",579,457012,"0.0-4.189-0.189","o0s5gwo44382rls",947,"62.csv","","46.90000009536743","resources/trios/L1T2A2.jpg","39","restless",0.5,0.3,0.7,0.513844089564147,"true"
"image-keyboard-response",580,457427,"0.0-4.189-1.189","o0s5gwo44382rls",947,"62.csv","","null","resources/maskTrios/BBA2.jpg","null","",NA,NA,NA,NA,""
"image-keyboard-response",581,458634,"0.0-4.189-2.189","o0s5gwo44382rls",947,"62.csv","","null","resources/images/coin2.png","null","",NA,NA,NA,NA,""
"image-keyboard-response",582,458887,"0.0-4.190-0.190","o0s5gwo44382rls",947,"62.csv","","251.59999990463257","resources/trios/L1T2A2.jpg","39","restless",0.5,0.3,0.6,0.0939416394783528,"true"
"image-keyboard-response",583,459296,"0.0-4.190-1.190","o0s5gwo44382rls",947,"62.csv","","null","resources/maskTrios/BBA2.jpg","null","",NA,NA,NA,NA,""
"image-keyboard-response",584,460507,"0.0-4.190-2.190","o0s5gwo44382rls",947,"62.csv","","null","resources/images/coin2.png","null","",NA,NA,NA,NA,""
"image-keyboard-response",585,461307,"0.0-4.191-0.191","o0s5gwo44382rls",947,"62.csv","","797.7999999523163","resources/trios/L1T2A2.jpg","39","restless",0.5,0.3,0.6,0.0446427915870291,"true"
"image-keyboard-response",586,461711,"0.0-4.191-1.191","o0s5gwo44382rls",947,"62.csv","","null","resources/maskTrios/BBA2.jpg","null","",NA,NA,NA,NA,""
"image-keyboard-response",587,462923,"0.0-4.191-2.191","o0s5gwo44382rls",947,"62.csv","","null","resources/images/coin2.png","null","",NA,NA,NA,NA,""
"image-keyboard-response",588,463906,"0.0-4.192-0.192","o0s5gwo44382rls",947,"62.csv","","981.7000000476837","resources/trios/L1T2A2.jpg","39","restless",0.4,0.3,0.6,0.320438439329449,"true"
"image-keyboard-response",589,464316,"0.0-4.192-1.192","o0s5gwo44382rls",947,"62.csv","","null","resources/maskTrios/BBA2.jpg","null","",NA,NA,NA,NA,""
"image-keyboard-response",590,465531,"0.0-4.192-2.192","o0s5gwo44382rls",947,"62.csv","","null","resources/images/coin2.png","null","",NA,NA,NA,NA,""
"image-keyboard-response",591,466119,"0.0-4.193-0.193","o0s5gwo44382rls",947,"62.csv","","586.7999999523163","resources/trios/L1T2A2.jpg","39","restless",0.4,0.3,0.6,0.211253647433959,"true"
"image-keyboard-response",592,466531,"0.0-4.193-1.193","o0s5gwo44382rls",947,"62.csv","","null","resources/maskTrios/BBA2.jpg","null","",NA,NA,NA,NA,""
"image-keyboard-response",593,467739,"0.0-4.193-2.193","o0s5gwo44382rls",947,"62.csv","","null","resources/images/coin2.png","null","",NA,NA,NA,NA,""
"image-keyboard-response",594,468540,"0.0-4.194-0.194","o0s5gwo44382rls",947,"62.csv","","799.2999999523163","resources/trios/L1T2A2.jpg","39","restless",0.4,0.3,0.6,0.598367285717427,"true"
"image-keyboard-response",595,468945,"0.0-4.194-1.194","o0s5gwo44382rls",947,"62.csv","","null","resources/maskTrios/BBA2.jpg","null","",NA,NA,NA,NA,""
"image-keyboard-response",596,470155,"0.0-4.194-2.194","o0s5gwo44382rls",947,"62.csv","","null","resources/images/coin2.png","null","",NA,NA,NA,NA,""
"image-keyboard-response",597,470757,"0.0-4.195-0.195","o0s5gwo44382rls",947,"62.csv","","599.7000000476837","resources/trios/L1T2A2.jpg","39","restless",0.4,0.3,0.6,0.969133562770778,"false"
"image-keyboard-response",598,471171,"0.0-4.195-1.195","o0s5gwo44382rls",947,"62.csv","","null","resources/maskTrios/BBA2.jpg","null","",NA,NA,NA,NA,""
"image-keyboard-response",599,472378,"0.0-4.195-2.195","o0s5gwo44382rls",947,"62.csv","","null","resources/images/fishbone.png","null","",NA,NA,NA,NA,""
"image-keyboard-response",600,472384,"0.0-4.196-0.196","o0s5gwo44382rls",947,"62.csv","","4.3999998569488525","resources/trios/L1T2A2.jpg","39","restless",0.4,0.3,0.6,0.294354789314508,"true"
"image-keyboard-response",601,472792,"0.0-4.196-1.196","o0s5gwo44382rls",947,"62.csv","","null","resources/maskTrios/BBA2.jpg","null","",NA,NA,NA,NA,""
"image-keyboard-response",602,474003,"0.0-4.196-2.196","o0s5gwo44382rls",947,"62.csv","","null","resources/images/coin2.png","null","",NA,NA,NA,NA,""
"image-keyboard-response",603,474422,"0.0-4.197-0.197","o0s5gwo44382rls",947,"62.csv","","416.7000000476837","resources/trios/L1T2A2.jpg","39","restless",0.4,0.3,0.6,0.643195424495702,"false"
"image-keyboard-response",604,474835,"0.0-4.197-1.197","o0s5gwo44382rls",947,"62.csv","","null","resources/maskTrios/BBA2.jpg","null","",NA,NA,NA,NA,""
"image-keyboard-response",605,476043,"0.0-4.197-2.197","o0s5gwo44382rls",947,"62.csv","","null","resources/images/fishbone.png","null","",NA,NA,NA,NA,""
"image-keyboard-response",606,476812,"0.0-4.198-0.198","o0s5gwo44382rls",947,"62.csv","","767.5","resources/trios/L1T2A2.jpg","39","restless",0.4,0.3,0.6,0.883088750304428,"false"
"image-keyboard-response",607,477227,"0.0-4.198-1.198","o0s5gwo44382rls",947,"62.csv","","null","resources/maskTrios/BBA2.jpg","null","",NA,NA,NA,NA,""
"image-keyboard-response",608,478435,"0.0-4.198-2.198","o0s5gwo44382rls",947,"62.csv","","null","resources/images/fishbone.png","null","",NA,NA,NA,NA,""
"image-keyboard-response",609,479130,"0.0-4.199-0.199","o0s5gwo44382rls",947,"62.csv","","693","resources/trios/L1T2A2.jpg","39","restless",0.4,0.3,0.6,0.565637010336253,"true"
"image-keyboard-response",610,479539,"0.0-4.199-1.199","o0s5gwo44382rls",947,"62.csv","","null","resources/maskTrios/BBA2.jpg","null","",NA,NA,NA,NA,""
"image-keyboard-response",611,480754,"0.0-4.199-2.199","o0s5gwo44382rls",947,"62.csv","","null","resources/images/coin2.png","null","",NA,NA,NA,NA,""
"survey-text",612,532652,"0.0-5.0","o0s5gwo44382rls",947,"62.csv","","51891.40000009537","","","",NA,NA,NA,NA,""
