"trial_type","trial_index","time_elapsed","internal_node_id","subject","participantCode","walkNumber","success","rt","stimulus","key_press","test_part","leftProb","midProb","rightProb","generatedNum","correct"
"pavlovia",0,1517,"0.0-0.0","xzxfyn7j6tjenh6",376,"98.csv","","","","","",NA,NA,NA,NA,""
"fullscreen",1,10634,"0.0-1.0","xzxfyn7j6tjenh6",376,"98.csv","true","","","","",NA,NA,NA,NA,""
"survey-html-form",2,140120,"0.0-2.0","xzxfyn7j6tjenh6",376,"98.csv","","129414","","","",NA,NA,NA,NA,""
"image-keyboard-response",3,175535,"0.0-3.0-0.0","xzxfyn7j6tjenh6",376,"98.csv","","35408","resources/images/parrot_nobg.png","13","",NA,NA,NA,NA,""
"image-keyboard-response",4,178550,"0.0-3.0-1.0","xzxfyn7j6tjenh6",376,"98.csv","","null","resources/image_sets/111.png","null","",NA,NA,NA,NA,""
"image-keyboard-response",5,192639,"0.0-3.0-2.0","xzxfyn7j6tjenh6",376,"98.csv","","14088","resources/image_sets/left_highlight.png","37","",NA,NA,NA,NA,""
"image-keyboard-response",6,194551,"0.0-3.0-3.0","xzxfyn7j6tjenh6",376,"98.csv","","1909","resources/image_sets/mid_highlight.png","38","",NA,NA,NA,NA,""
"image-keyboard-response",7,196695,"0.0-3.0-4.0","xzxfyn7j6tjenh6",376,"98.csv","","2141","resources/image_sets/right_highlight.png","39","",NA,NA,NA,NA,""
"image-keyboard-response",8,198638,"0.0-3.0-5.0","xzxfyn7j6tjenh6",376,"98.csv","","1941","resources/image_sets/111.png","13","",NA,NA,NA,NA,""
"image-keyboard-response",9,203151,"0.0-3.0-6.0","xzxfyn7j6tjenh6",376,"98.csv","","4511","resources/images/coin2.png","13","",NA,NA,NA,NA,""
"image-keyboard-response",10,210318,"0.0-3.0-7.0","xzxfyn7j6tjenh6",376,"98.csv","","7166","resources/images/fishbone.png","13","",NA,NA,NA,NA,""
"html-keyboard-response",11,220199,"0.0-3.0-8.0","xzxfyn7j6tjenh6",376,"98.csv","","9879","<p>You can track your coin total on the top right of your screen. </p><p>At the end of your journey you will be directed to a survey, so please click on the link before exiting the task</p><p>Press Enter to begin</p>","13","",NA,NA,NA,NA,""
"image-keyboard-response",12,224086,"0.0-4.0-0.0","xzxfyn7j6tjenh6",376,"98.csv","","3885","resources/trios/L4T2A3.jpg","39","restless",0.3,0.7,0.9,0.547766757669805,"true"
"image-keyboard-response",13,224494,"0.0-4.0-1.0","xzxfyn7j6tjenh6",376,"98.csv","","null","resources/maskTrios/BBA3.jpg","null","",NA,NA,NA,NA,""
"image-keyboard-response",14,225756,"0.0-4.0-2.0","xzxfyn7j6tjenh6",376,"98.csv","","null","resources/images/coin2.png","null","",NA,NA,NA,NA,""
"image-keyboard-response",15,227726,"0.0-4.1-0.1","xzxfyn7j6tjenh6",376,"98.csv","","1968","resources/trios/L4T2A3.jpg","38","restless",0.3,0.7,0.9,0.638624712418026,"true"
"image-keyboard-response",16,228137,"0.0-4.1-1.1","xzxfyn7j6tjenh6",376,"98.csv","","null","resources/maskTrios/BT2B.jpg","null","",NA,NA,NA,NA,""
"image-keyboard-response",17,229352,"0.0-4.1-2.1","xzxfyn7j6tjenh6",376,"98.csv","","null","resources/images/coin2.png","null","",NA,NA,NA,NA,""
"image-keyboard-response",18,230426,"0.0-4.2-0.2","xzxfyn7j6tjenh6",376,"98.csv","","1072","resources/trios/L4T2A3.jpg","37","restless",0.3,0.7,0.9,0.851872139935606,"false"
"image-keyboard-response",19,230834,"0.0-4.2-1.2","xzxfyn7j6tjenh6",376,"98.csv","","null","resources/maskTrios/L4BB.jpg","null","",NA,NA,NA,NA,""
"image-keyboard-response",20,232046,"0.0-4.2-2.2","xzxfyn7j6tjenh6",376,"98.csv","","null","resources/images/fishbone.png","null","",NA,NA,NA,NA,""
"image-keyboard-response",21,233067,"0.0-4.3-0.3","xzxfyn7j6tjenh6",376,"98.csv","","1018","resources/trios/L4T2A3.jpg","39","restless",0.3,0.7,0.9,0.995699544960572,"false"
"image-keyboard-response",22,233478,"0.0-4.3-1.3","xzxfyn7j6tjenh6",376,"98.csv","","null","resources/maskTrios/BBA3.jpg","null","",NA,NA,NA,NA,""
"image-keyboard-response",23,234691,"0.0-4.3-2.3","xzxfyn7j6tjenh6",376,"98.csv","","null","resources/images/fishbone.png","null","",NA,NA,NA,NA,""
"image-keyboard-response",24,235658,"0.0-4.4-0.4","xzxfyn7j6tjenh6",376,"98.csv","","965","resources/trios/L4T2A3.jpg","38","restless",0.3,0.7,0.9,0.807300231592859,"false"
"image-keyboard-response",25,236076,"0.0-4.4-1.4","xzxfyn7j6tjenh6",376,"98.csv","","null","resources/maskTrios/BT2B.jpg","null","",NA,NA,NA,NA,""
"image-keyboard-response",26,237285,"0.0-4.4-2.4","xzxfyn7j6tjenh6",376,"98.csv","","null","resources/images/fishbone.png","null","",NA,NA,NA,NA,""
"image-keyboard-response",27,238473,"0.0-4.5-0.5","xzxfyn7j6tjenh6",376,"98.csv","","1186","resources/trios/L4T2A3.jpg","39","restless",0.3,0.7,0.8,0.761912188772037,"true"
"image-keyboard-response",28,238882,"0.0-4.5-1.5","xzxfyn7j6tjenh6",376,"98.csv","","null","resources/maskTrios/BBA3.jpg","null","",NA,NA,NA,NA,""
"image-keyboard-response",29,240096,"0.0-4.5-2.5","xzxfyn7j6tjenh6",376,"98.csv","","null","resources/images/coin2.png","null","",NA,NA,NA,NA,""
"image-keyboard-response",30,240954,"0.0-4.6-0.6","xzxfyn7j6tjenh6",376,"98.csv","","856","resources/trios/L4T2A3.jpg","39","restless",0.3,0.7,0.8,0.979286338322862,"false"
"image-keyboard-response",31,241361,"0.0-4.6-1.6","xzxfyn7j6tjenh6",376,"98.csv","","null","resources/maskTrios/BBA3.jpg","null","",NA,NA,NA,NA,""
"image-keyboard-response",32,242571,"0.0-4.6-2.6","xzxfyn7j6tjenh6",376,"98.csv","","null","resources/images/fishbone.png","null","",NA,NA,NA,NA,""
"image-keyboard-response",33,243289,"0.0-4.7-0.7","xzxfyn7j6tjenh6",376,"98.csv","","715","resources/trios/L4T2A3.jpg","37","restless",0.3,0.7,0.8,0.729874576741274,"false"
"image-keyboard-response",34,243703,"0.0-4.7-1.7","xzxfyn7j6tjenh6",376,"98.csv","","null","resources/maskTrios/L4BB.jpg","null","",NA,NA,NA,NA,""
"image-keyboard-response",35,244916,"0.0-4.7-2.7","xzxfyn7j6tjenh6",376,"98.csv","","null","resources/images/fishbone.png","null","",NA,NA,NA,NA,""
"image-keyboard-response",36,245281,"0.0-4.8-0.8","xzxfyn7j6tjenh6",376,"98.csv","","363","resources/trios/L4T2A3.jpg","38","restless",0.3,0.7,0.8,0.740437918852526,"false"
"image-keyboard-response",37,245698,"0.0-4.8-1.8","xzxfyn7j6tjenh6",376,"98.csv","","null","resources/maskTrios/BT2B.jpg","null","",NA,NA,NA,NA,""
"image-keyboard-response",38,246910,"0.0-4.8-2.8","xzxfyn7j6tjenh6",376,"98.csv","","null","resources/images/fishbone.png","null","",NA,NA,NA,NA,""
"image-keyboard-response",39,247210,"0.0-4.9-0.9","xzxfyn7j6tjenh6",376,"98.csv","","297","resources/trios/L4T2A3.jpg","39","restless",0.3,0.7,0.8,0.597769893136293,"true"
"image-keyboard-response",40,247628,"0.0-4.9-1.9","xzxfyn7j6tjenh6",376,"98.csv","","null","resources/maskTrios/BBA3.jpg","null","",NA,NA,NA,NA,""
"image-keyboard-response",41,248840,"0.0-4.9-2.9","xzxfyn7j6tjenh6",376,"98.csv","","null","resources/images/coin2.png","null","",NA,NA,NA,NA,""
"image-keyboard-response",42,249642,"0.0-4.10-0.10","xzxfyn7j6tjenh6",376,"98.csv","","800","resources/trios/L4T2A3.jpg","37","restless",0.3,0.7,0.8,0.874967036839096,"false"
"image-keyboard-response",43,250057,"0.0-4.10-1.10","xzxfyn7j6tjenh6",376,"98.csv","","null","resources/maskTrios/L4BB.jpg","null","",NA,NA,NA,NA,""
"image-keyboard-response",44,251269,"0.0-4.10-2.10","xzxfyn7j6tjenh6",376,"98.csv","","null","resources/images/fishbone.png","null","",NA,NA,NA,NA,""
"image-keyboard-response",45,253834,"0.0-4.11-0.11","xzxfyn7j6tjenh6",376,"98.csv","","2563","resources/trios/L4T2A3.jpg","39","restless",0.3,0.7,0.8,0.836594107741995,"false"
"image-keyboard-response",46,254246,"0.0-4.11-1.11","xzxfyn7j6tjenh6",376,"98.csv","","null","resources/maskTrios/BBA3.jpg","null","",NA,NA,NA,NA,""
"image-keyboard-response",47,255461,"0.0-4.11-2.11","xzxfyn7j6tjenh6",376,"98.csv","","null","resources/images/fishbone.png","null","",NA,NA,NA,NA,""
"image-keyboard-response",48,263331,"0.0-4.12-0.12","xzxfyn7j6tjenh6",376,"98.csv","","7867","resources/trios/L4T2A3.jpg","37","restless",0.3,0.7,0.8,0.547026927318496,"false"
"image-keyboard-response",49,263743,"0.0-4.12-1.12","xzxfyn7j6tjenh6",376,"98.csv","","null","resources/maskTrios/L4BB.jpg","null","",NA,NA,NA,NA,""
"image-keyboard-response",50,264954,"0.0-4.12-2.12","xzxfyn7j6tjenh6",376,"98.csv","","null","resources/images/fishbone.png","null","",NA,NA,NA,NA,""
"image-keyboard-response",51,265146,"0.0-4.13-0.13","xzxfyn7j6tjenh6",376,"98.csv","","190","resources/trios/L4T2A3.jpg","39","restless",0.2,0.8,0.8,0.705570340027424,"true"
"image-keyboard-response",52,265554,"0.0-4.13-1.13","xzxfyn7j6tjenh6",376,"98.csv","","null","resources/maskTrios/BBA3.jpg","null","",NA,NA,NA,NA,""
"image-keyboard-response",53,266763,"0.0-4.13-2.13","xzxfyn7j6tjenh6",376,"98.csv","","null","resources/images/coin2.png","null","",NA,NA,NA,NA,""
"image-keyboard-response",54,267130,"0.0-4.14-0.14","xzxfyn7j6tjenh6",376,"98.csv","","364","resources/trios/L4T2A3.jpg","39","restless",0.2,0.8,0.8,0.249173135493429,"true"
"image-keyboard-response",55,267548,"0.0-4.14-1.14","xzxfyn7j6tjenh6",376,"98.csv","","null","resources/maskTrios/BBA3.jpg","null","",NA,NA,NA,NA,""
"image-keyboard-response",56,268760,"0.0-4.14-2.14","xzxfyn7j6tjenh6",376,"98.csv","","null","resources/images/coin2.png","null","",NA,NA,NA,NA,""
"image-keyboard-response",57,269649,"0.0-4.15-0.15","xzxfyn7j6tjenh6",376,"98.csv","","887","resources/trios/L4T2A3.jpg","39","restless",0.2,0.8,0.8,0.226561167946031,"true"
"image-keyboard-response",58,270059,"0.0-4.15-1.15","xzxfyn7j6tjenh6",376,"98.csv","","null","resources/maskTrios/BBA3.jpg","null","",NA,NA,NA,NA,""
"image-keyboard-response",59,271272,"0.0-4.15-2.15","xzxfyn7j6tjenh6",376,"98.csv","","null","resources/images/coin2.png","null","",NA,NA,NA,NA,""
"image-keyboard-response",60,272105,"0.0-4.16-0.16","xzxfyn7j6tjenh6",376,"98.csv","","830","resources/trios/L4T2A3.jpg","39","restless",0.2,0.8,0.8,0.0388007684940352,"true"
"image-keyboard-response",61,272520,"0.0-4.16-1.16","xzxfyn7j6tjenh6",376,"98.csv","","null","resources/maskTrios/BBA3.jpg","null","",NA,NA,NA,NA,""
"image-keyboard-response",62,273732,"0.0-4.16-2.16","xzxfyn7j6tjenh6",376,"98.csv","","null","resources/images/coin2.png","null","",NA,NA,NA,NA,""
"image-keyboard-response",63,274464,"0.0-4.17-0.17","xzxfyn7j6tjenh6",376,"98.csv","","730","resources/trios/L4T2A3.jpg","39","restless",0.2,0.8,0.8,0.641575361735094,"true"
"image-keyboard-response",64,274881,"0.0-4.17-1.17","xzxfyn7j6tjenh6",376,"98.csv","","null","resources/maskTrios/BBA3.jpg","null","",NA,NA,NA,NA,""
"image-keyboard-response",65,276102,"0.0-4.17-2.17","xzxfyn7j6tjenh6",376,"98.csv","","null","resources/images/coin2.png","null","",NA,NA,NA,NA,""
"image-keyboard-response",66,276434,"0.0-4.18-0.18","xzxfyn7j6tjenh6",376,"98.csv","","330","resources/trios/L4T2A3.jpg","39","restless",0.2,0.8,0.8,0.682975001710541,"true"
"image-keyboard-response",67,276843,"0.0-4.18-1.18","xzxfyn7j6tjenh6",376,"98.csv","","null","resources/maskTrios/BBA3.jpg","null","",NA,NA,NA,NA,""
"image-keyboard-response",68,278055,"0.0-4.18-2.18","xzxfyn7j6tjenh6",376,"98.csv","","null","resources/images/coin2.png","null","",NA,NA,NA,NA,""
"image-keyboard-response",69,278425,"0.0-4.19-0.19","xzxfyn7j6tjenh6",376,"98.csv","","369","resources/trios/L4T2A3.jpg","39","restless",0.2,0.9,0.8,0.581780729832043,"true"
"image-keyboard-response",70,278839,"0.0-4.19-1.19","xzxfyn7j6tjenh6",376,"98.csv","","null","resources/maskTrios/BBA3.jpg","null","",NA,NA,NA,NA,""
"image-keyboard-response",71,280051,"0.0-4.19-2.19","xzxfyn7j6tjenh6",376,"98.csv","","null","resources/images/coin2.png","null","",NA,NA,NA,NA,""
"image-keyboard-response",72,280402,"0.0-4.20-0.20","xzxfyn7j6tjenh6",376,"98.csv","","348","resources/trios/L4T2A3.jpg","39","restless",0.2,0.9,0.8,0.646892567726608,"true"
"image-keyboard-response",73,280819,"0.0-4.20-1.20","xzxfyn7j6tjenh6",376,"98.csv","","null","resources/maskTrios/BBA3.jpg","null","",NA,NA,NA,NA,""
"image-keyboard-response",74,282030,"0.0-4.20-2.20","xzxfyn7j6tjenh6",376,"98.csv","","null","resources/images/coin2.png","null","",NA,NA,NA,NA,""
"image-keyboard-response",75,282393,"0.0-4.21-0.21","xzxfyn7j6tjenh6",376,"98.csv","","363","resources/trios/L4T2A3.jpg","39","restless",0.2,0.9,0.8,0.894964570021288,"false"
"image-keyboard-response",76,282797,"0.0-4.21-1.21","xzxfyn7j6tjenh6",376,"98.csv","","null","resources/maskTrios/BBA3.jpg","null","",NA,NA,NA,NA,""
"image-keyboard-response",77,284008,"0.0-4.21-2.21","xzxfyn7j6tjenh6",376,"98.csv","","null","resources/images/fishbone.png","null","",NA,NA,NA,NA,""
"image-keyboard-response",78,284418,"0.0-4.22-0.22","xzxfyn7j6tjenh6",376,"98.csv","","408","resources/trios/L4T2A3.jpg","37","restless",0.2,0.9,0.8,0.608995695955167,"false"
"image-keyboard-response",79,284826,"0.0-4.22-1.22","xzxfyn7j6tjenh6",376,"98.csv","","null","resources/maskTrios/L4BB.jpg","null","",NA,NA,NA,NA,""
"image-keyboard-response",80,286037,"0.0-4.22-2.22","xzxfyn7j6tjenh6",376,"98.csv","","null","resources/images/fishbone.png","null","",NA,NA,NA,NA,""
"image-keyboard-response",81,286129,"0.0-4.23-0.23","xzxfyn7j6tjenh6",376,"98.csv","","89","resources/trios/L4T2A3.jpg","38","restless",0.3,0.9,0.8,0.214627752963517,"true"
"image-keyboard-response",82,286537,"0.0-4.23-1.23","xzxfyn7j6tjenh6",376,"98.csv","","null","resources/maskTrios/BT2B.jpg","null","",NA,NA,NA,NA,""
"image-keyboard-response",83,287751,"0.0-4.23-2.23","xzxfyn7j6tjenh6",376,"98.csv","","null","resources/images/coin2.png","null","",NA,NA,NA,NA,""
"image-keyboard-response",84,288442,"0.0-4.24-0.24","xzxfyn7j6tjenh6",376,"98.csv","","689","resources/trios/L4T2A3.jpg","38","restless",0.3,0.9,0.7,0.250089837214859,"true"
"image-keyboard-response",85,288848,"0.0-4.24-1.24","xzxfyn7j6tjenh6",376,"98.csv","","null","resources/maskTrios/BT2B.jpg","null","",NA,NA,NA,NA,""
"image-keyboard-response",86,290064,"0.0-4.24-2.24","xzxfyn7j6tjenh6",376,"98.csv","","null","resources/images/coin2.png","null","",NA,NA,NA,NA,""
"image-keyboard-response",87,290493,"0.0-4.25-0.25","xzxfyn7j6tjenh6",376,"98.csv","","427","resources/trios/L4T2A3.jpg","38","restless",0.3,0.9,0.6,0.887070666508293,"true"
"image-keyboard-response",88,290899,"0.0-4.25-1.25","xzxfyn7j6tjenh6",376,"98.csv","","null","resources/maskTrios/BT2B.jpg","null","",NA,NA,NA,NA,""
"image-keyboard-response",89,292111,"0.0-4.25-2.25","xzxfyn7j6tjenh6",376,"98.csv","","null","resources/images/coin2.png","null","",NA,NA,NA,NA,""
"image-keyboard-response",90,292525,"0.0-4.26-0.26","xzxfyn7j6tjenh6",376,"98.csv","","411","resources/trios/L4T2A3.jpg","38","restless",0.3,0.9,0.6,0.513523001264431,"true"
"image-keyboard-response",91,292943,"0.0-4.26-1.26","xzxfyn7j6tjenh6",376,"98.csv","","null","resources/maskTrios/BT2B.jpg","null","",NA,NA,NA,NA,""
"image-keyboard-response",92,294155,"0.0-4.26-2.26","xzxfyn7j6tjenh6",376,"98.csv","","null","resources/images/coin2.png","null","",NA,NA,NA,NA,""
"image-keyboard-response",93,294565,"0.0-4.27-0.27","xzxfyn7j6tjenh6",376,"98.csv","","408","resources/trios/L4T2A3.jpg","38","restless",0.3,0.9,0.6,0.906754290103922,"false"
"image-keyboard-response",94,294971,"0.0-4.27-1.27","xzxfyn7j6tjenh6",376,"98.csv","","null","resources/maskTrios/BT2B.jpg","null","",NA,NA,NA,NA,""
"image-keyboard-response",95,296184,"0.0-4.27-2.27","xzxfyn7j6tjenh6",376,"98.csv","","null","resources/images/fishbone.png","null","",NA,NA,NA,NA,""
"image-keyboard-response",96,296508,"0.0-4.28-0.28","xzxfyn7j6tjenh6",376,"98.csv","","323","resources/trios/L4T2A3.jpg","39","restless",0.3,0.9,0.5,0.331260729884906,"true"
"image-keyboard-response",97,296917,"0.0-4.28-1.28","xzxfyn7j6tjenh6",376,"98.csv","","null","resources/maskTrios/BBA3.jpg","null","",NA,NA,NA,NA,""
"image-keyboard-response",98,298130,"0.0-4.28-2.28","xzxfyn7j6tjenh6",376,"98.csv","","null","resources/images/coin2.png","null","",NA,NA,NA,NA,""
"image-keyboard-response",99,298189,"0.0-4.29-0.29","xzxfyn7j6tjenh6",376,"98.csv","","57","resources/trios/L4T2A3.jpg","37","restless",0.3,0.9,0.5,0.222031574930817,"true"
"image-keyboard-response",100,298596,"0.0-4.29-1.29","xzxfyn7j6tjenh6",376,"98.csv","","null","resources/maskTrios/L4BB.jpg","null","",NA,NA,NA,NA,""
"image-keyboard-response",101,299809,"0.0-4.29-2.29","xzxfyn7j6tjenh6",376,"98.csv","","null","resources/images/coin2.png","null","",NA,NA,NA,NA,""
"image-keyboard-response",102,299965,"0.0-4.30-0.30","xzxfyn7j6tjenh6",376,"98.csv","","154","resources/trios/L4T2A3.jpg","37","restless",0.3,0.9,0.5,0.2129341778037,"true"
"image-keyboard-response",103,300375,"0.0-4.30-1.30","xzxfyn7j6tjenh6",376,"98.csv","","null","resources/maskTrios/L4BB.jpg","null","",NA,NA,NA,NA,""
"image-keyboard-response",104,301588,"0.0-4.30-2.30","xzxfyn7j6tjenh6",376,"98.csv","","null","resources/images/coin2.png","null","",NA,NA,NA,NA,""
"image-keyboard-response",105,301942,"0.0-4.31-0.31","xzxfyn7j6tjenh6",376,"98.csv","","352","resources/trios/L4T2A3.jpg","37","restless",0.3,0.9,0.5,0.567689387678449,"false"
"image-keyboard-response",106,302354,"0.0-4.31-1.31","xzxfyn7j6tjenh6",376,"98.csv","","null","resources/maskTrios/L4BB.jpg","null","",NA,NA,NA,NA,""
"image-keyboard-response",107,303566,"0.0-4.31-2.31","xzxfyn7j6tjenh6",376,"98.csv","","null","resources/images/fishbone.png","null","",NA,NA,NA,NA,""
"image-keyboard-response",108,306853,"0.0-4.32-0.32","xzxfyn7j6tjenh6",376,"98.csv","","3284","resources/trios/L4T2A3.jpg","39","restless",0.3,0.9,0.5,0.869072950158152,"false"
"image-keyboard-response",109,307264,"0.0-4.32-1.32","xzxfyn7j6tjenh6",376,"98.csv","","null","resources/maskTrios/BBA3.jpg","null","",NA,NA,NA,NA,""
"image-keyboard-response",110,308473,"0.0-4.32-2.32","xzxfyn7j6tjenh6",376,"98.csv","","null","resources/images/fishbone.png","null","",NA,NA,NA,NA,""
"image-keyboard-response",111,311622,"0.0-4.33-0.33","xzxfyn7j6tjenh6",376,"98.csv","","3147","resources/trios/L4T2A3.jpg","38","restless",0.3,0.9,0.5,0.525667177926724,"true"
"image-keyboard-response",112,312032,"0.0-4.33-1.33","xzxfyn7j6tjenh6",376,"98.csv","","null","resources/maskTrios/BT2B.jpg","null","",NA,NA,NA,NA,""
"image-keyboard-response",113,313242,"0.0-4.33-2.33","xzxfyn7j6tjenh6",376,"98.csv","","null","resources/images/coin2.png","null","",NA,NA,NA,NA,""
"image-keyboard-response",114,315430,"0.0-4.34-0.34","xzxfyn7j6tjenh6",376,"98.csv","","2186","resources/trios/L4T2A3.jpg","37","restless",0.3,0.9,0.5,0.810340375152768,"false"
"image-keyboard-response",115,315840,"0.0-4.34-1.34","xzxfyn7j6tjenh6",376,"98.csv","","null","resources/maskTrios/L4BB.jpg","null","",NA,NA,NA,NA,""
"image-keyboard-response",116,317052,"0.0-4.34-2.34","xzxfyn7j6tjenh6",376,"98.csv","","null","resources/images/fishbone.png","null","",NA,NA,NA,NA,""
"image-keyboard-response",117,317955,"0.0-4.35-0.35","xzxfyn7j6tjenh6",376,"98.csv","","902","resources/trios/L4T2A3.jpg","39","restless",0.2,0.9,0.5,0.0416039445109295,"true"
"image-keyboard-response",118,318369,"0.0-4.35-1.35","xzxfyn7j6tjenh6",376,"98.csv","","null","resources/maskTrios/BBA3.jpg","null","",NA,NA,NA,NA,""
"image-keyboard-response",119,319581,"0.0-4.35-2.35","xzxfyn7j6tjenh6",376,"98.csv","","null","resources/images/coin2.png","null","",NA,NA,NA,NA,""
"image-keyboard-response",120,319845,"0.0-4.36-0.36","xzxfyn7j6tjenh6",376,"98.csv","","262","resources/trios/L4T2A3.jpg","39","restless",0.2,0.9,0.5,0.363341244167966,"true"
"image-keyboard-response",121,320262,"0.0-4.36-1.36","xzxfyn7j6tjenh6",376,"98.csv","","null","resources/maskTrios/BBA3.jpg","null","",NA,NA,NA,NA,""
"image-keyboard-response",122,321475,"0.0-4.36-2.36","xzxfyn7j6tjenh6",376,"98.csv","","null","resources/images/coin2.png","null","",NA,NA,NA,NA,""
"image-keyboard-response",123,334070,"0.0-4.37-0.37","xzxfyn7j6tjenh6",376,"98.csv","","12592","resources/trios/L4T2A3.jpg","39","restless",0.3,0.9,0.5,0.576773564826766,"false"
"image-keyboard-response",124,334478,"0.0-4.37-1.37","xzxfyn7j6tjenh6",376,"98.csv","","null","resources/maskTrios/BBA3.jpg","null","",NA,NA,NA,NA,""
"image-keyboard-response",125,335692,"0.0-4.37-2.37","xzxfyn7j6tjenh6",376,"98.csv","","null","resources/images/fishbone.png","null","",NA,NA,NA,NA,""
"image-keyboard-response",126,337316,"0.0-4.38-0.38","xzxfyn7j6tjenh6",376,"98.csv","","1621","resources/trios/L4T2A3.jpg","37","restless",0.3,0.9,0.5,0.381958439085726,"false"
"image-keyboard-response",127,337722,"0.0-4.38-1.38","xzxfyn7j6tjenh6",376,"98.csv","","null","resources/maskTrios/L4BB.jpg","null","",NA,NA,NA,NA,""
"image-keyboard-response",128,338936,"0.0-4.38-2.38","xzxfyn7j6tjenh6",376,"98.csv","","null","resources/images/fishbone.png","null","",NA,NA,NA,NA,""
"image-keyboard-response",129,340412,"0.0-4.39-0.39","xzxfyn7j6tjenh6",376,"98.csv","","1474","resources/trios/L4T2A3.jpg","39","restless",0.3,0.9,0.5,0.13983602024431,"true"
"image-keyboard-response",130,340831,"0.0-4.39-1.39","xzxfyn7j6tjenh6",376,"98.csv","","null","resources/maskTrios/BBA3.jpg","null","",NA,NA,NA,NA,""
"image-keyboard-response",131,342045,"0.0-4.39-2.39","xzxfyn7j6tjenh6",376,"98.csv","","null","resources/images/coin2.png","null","",NA,NA,NA,NA,""
"image-keyboard-response",132,344077,"0.0-4.40-0.40","xzxfyn7j6tjenh6",376,"98.csv","","2030","resources/trios/L4T2A3.jpg","39","restless",0.3,0.9,0.6,0.510333277839893,"true"
"image-keyboard-response",133,344490,"0.0-4.40-1.40","xzxfyn7j6tjenh6",376,"98.csv","","null","resources/maskTrios/BBA3.jpg","null","",NA,NA,NA,NA,""
"image-keyboard-response",134,345703,"0.0-4.40-2.40","xzxfyn7j6tjenh6",376,"98.csv","","null","resources/images/coin2.png","null","",NA,NA,NA,NA,""
"image-keyboard-response",135,347788,"0.0-4.41-0.41","xzxfyn7j6tjenh6",376,"98.csv","","2082","resources/trios/L4T2A3.jpg","39","restless",0.3,0.9,0.6,0.330315305985341,"true"
"image-keyboard-response",136,348198,"0.0-4.41-1.41","xzxfyn7j6tjenh6",376,"98.csv","","null","resources/maskTrios/BBA3.jpg","null","",NA,NA,NA,NA,""
"image-keyboard-response",137,349411,"0.0-4.41-2.41","xzxfyn7j6tjenh6",376,"98.csv","","null","resources/images/coin2.png","null","",NA,NA,NA,NA,""
"image-keyboard-response",138,349540,"0.0-4.42-0.42","xzxfyn7j6tjenh6",376,"98.csv","","128","resources/trios/L4T2A3.jpg","39","restless",0.3,0.9,0.6,0.118118610431527,"true"
"image-keyboard-response",139,349946,"0.0-4.42-1.42","xzxfyn7j6tjenh6",376,"98.csv","","null","resources/maskTrios/BBA3.jpg","null","",NA,NA,NA,NA,""
"image-keyboard-response",140,351159,"0.0-4.42-2.42","xzxfyn7j6tjenh6",376,"98.csv","","null","resources/images/coin2.png","null","",NA,NA,NA,NA,""
"image-keyboard-response",141,351439,"0.0-4.43-0.43","xzxfyn7j6tjenh6",376,"98.csv","","277","resources/trios/L4T2A3.jpg","39","restless",0.3,0.9,0.6,0.877928598065773,"false"
"image-keyboard-response",142,351842,"0.0-4.43-1.43","xzxfyn7j6tjenh6",376,"98.csv","","null","resources/maskTrios/BBA3.jpg","null","",NA,NA,NA,NA,""
"image-keyboard-response",143,353054,"0.0-4.43-2.43","xzxfyn7j6tjenh6",376,"98.csv","","null","resources/images/fishbone.png","null","",NA,NA,NA,NA,""
"image-keyboard-response",144,354264,"0.0-4.44-0.44","xzxfyn7j6tjenh6",376,"98.csv","","1207","resources/trios/L4T2A3.jpg","38","restless",0.3,0.9,0.6,0.906871875540146,"false"
"image-keyboard-response",145,354673,"0.0-4.44-1.44","xzxfyn7j6tjenh6",376,"98.csv","","null","resources/maskTrios/BT2B.jpg","null","",NA,NA,NA,NA,""
"image-keyboard-response",146,355885,"0.0-4.44-2.44","xzxfyn7j6tjenh6",376,"98.csv","","null","resources/images/fishbone.png","null","",NA,NA,NA,NA,""
"image-keyboard-response",147,356735,"0.0-4.45-0.45","xzxfyn7j6tjenh6",376,"98.csv","","849","resources/trios/L4T2A3.jpg","37","restless",0.3,0.9,0.6,0.794468359882556,"false"
"image-keyboard-response",148,357147,"0.0-4.45-1.45","xzxfyn7j6tjenh6",376,"98.csv","","null","resources/maskTrios/L4BB.jpg","null","",NA,NA,NA,NA,""
"image-keyboard-response",149,358358,"0.0-4.45-2.45","xzxfyn7j6tjenh6",376,"98.csv","","null","resources/images/fishbone.png","null","",NA,NA,NA,NA,""
"image-keyboard-response",150,359423,"0.0-4.46-0.46","xzxfyn7j6tjenh6",376,"98.csv","","1062","resources/trios/L4T2A3.jpg","39","restless",0.3,0.9,0.6,0.0701309118836215,"true"
"image-keyboard-response",151,359841,"0.0-4.46-1.46","xzxfyn7j6tjenh6",376,"98.csv","","null","resources/maskTrios/BBA3.jpg","null","",NA,NA,NA,NA,""
"image-keyboard-response",152,361053,"0.0-4.46-2.46","xzxfyn7j6tjenh6",376,"98.csv","","null","resources/images/coin2.png","null","",NA,NA,NA,NA,""
"image-keyboard-response",153,361303,"0.0-4.47-0.47","xzxfyn7j6tjenh6",376,"98.csv","","247","resources/trios/L4T2A3.jpg","39","restless",0.3,0.9,0.6,0.520476220629734,"true"
"image-keyboard-response",154,361720,"0.0-4.47-1.47","xzxfyn7j6tjenh6",376,"98.csv","","null","resources/maskTrios/BBA3.jpg","null","",NA,NA,NA,NA,""
"image-keyboard-response",155,362933,"0.0-4.47-2.47","xzxfyn7j6tjenh6",376,"98.csv","","null","resources/images/coin2.png","null","",NA,NA,NA,NA,""
"image-keyboard-response",156,363310,"0.0-4.48-0.48","xzxfyn7j6tjenh6",376,"98.csv","","374","resources/trios/L4T2A3.jpg","39","restless",0.3,0.9,0.6,0.358545567378824,"true"
"image-keyboard-response",157,363715,"0.0-4.48-1.48","xzxfyn7j6tjenh6",376,"98.csv","","null","resources/maskTrios/BBA3.jpg","null","",NA,NA,NA,NA,""
"image-keyboard-response",158,364927,"0.0-4.48-2.48","xzxfyn7j6tjenh6",376,"98.csv","","null","resources/images/coin2.png","null","",NA,NA,NA,NA,""
"image-keyboard-response",159,365425,"0.0-4.49-0.49","xzxfyn7j6tjenh6",376,"98.csv","","494","resources/trios/L4T2A3.jpg","39","restless",0.3,0.8,0.6,0.773560799729886,"false"
"image-keyboard-response",160,365842,"0.0-4.49-1.49","xzxfyn7j6tjenh6",376,"98.csv","","null","resources/maskTrios/BBA3.jpg","null","",NA,NA,NA,NA,""
"image-keyboard-response",161,367056,"0.0-4.49-2.49","xzxfyn7j6tjenh6",376,"98.csv","","null","resources/images/fishbone.png","null","",NA,NA,NA,NA,""
"image-keyboard-response",162,368574,"0.0-4.50-0.50","xzxfyn7j6tjenh6",376,"98.csv","","1515","resources/trios/L4T2A3.jpg","38","restless",0.3,0.8,0.6,0.439556165181167,"true"
"image-keyboard-response",163,368987,"0.0-4.50-1.50","xzxfyn7j6tjenh6",376,"98.csv","","null","resources/maskTrios/BT2B.jpg","null","",NA,NA,NA,NA,""
"image-keyboard-response",164,370198,"0.0-4.50-2.50","xzxfyn7j6tjenh6",376,"98.csv","","null","resources/images/coin2.png","null","",NA,NA,NA,NA,""
"image-keyboard-response",165,370367,"0.0-4.51-0.51","xzxfyn7j6tjenh6",376,"98.csv","","165","resources/trios/L4T2A3.jpg","38","restless",0.3,0.7,0.6,0.00417421731588141,"true"
"image-keyboard-response",166,370781,"0.0-4.51-1.51","xzxfyn7j6tjenh6",376,"98.csv","","null","resources/maskTrios/BT2B.jpg","null","",NA,NA,NA,NA,""
"image-keyboard-response",167,371994,"0.0-4.51-2.51","xzxfyn7j6tjenh6",376,"98.csv","","null","resources/images/coin2.png","null","",NA,NA,NA,NA,""
"image-keyboard-response",168,372063,"0.0-4.52-0.52","xzxfyn7j6tjenh6",376,"98.csv","","67","resources/trios/L4T2A3.jpg","39","restless",0.3,0.7,0.6,0.159925932125129,"true"
"image-keyboard-response",169,372478,"0.0-4.52-1.52","xzxfyn7j6tjenh6",376,"98.csv","","null","resources/maskTrios/BBA3.jpg","null","",NA,NA,NA,NA,""
"image-keyboard-response",170,373690,"0.0-4.52-2.52","xzxfyn7j6tjenh6",376,"98.csv","","null","resources/images/coin2.png","null","",NA,NA,NA,NA,""
"image-keyboard-response",171,375015,"0.0-4.53-0.53","xzxfyn7j6tjenh6",376,"98.csv","","1324","resources/trios/L4T2A3.jpg","38","restless",0.3,0.7,0.6,0.0587844950399823,"true"
"image-keyboard-response",172,375423,"0.0-4.53-1.53","xzxfyn7j6tjenh6",376,"98.csv","","null","resources/maskTrios/BT2B.jpg","null","",NA,NA,NA,NA,""
"image-keyboard-response",173,376635,"0.0-4.53-2.53","xzxfyn7j6tjenh6",376,"98.csv","","null","resources/images/coin2.png","null","",NA,NA,NA,NA,""
"image-keyboard-response",174,377943,"0.0-4.54-0.54","xzxfyn7j6tjenh6",376,"98.csv","","1306","resources/trios/L4T2A3.jpg","39","restless",0.3,0.7,0.6,0.0612273083013266,"true"
"image-keyboard-response",175,378350,"0.0-4.54-1.54","xzxfyn7j6tjenh6",376,"98.csv","","null","resources/maskTrios/BBA3.jpg","null","",NA,NA,NA,NA,""
"image-keyboard-response",176,379559,"0.0-4.54-2.54","xzxfyn7j6tjenh6",376,"98.csv","","null","resources/images/coin2.png","null","",NA,NA,NA,NA,""
"image-keyboard-response",177,379599,"0.0-4.55-0.55","xzxfyn7j6tjenh6",376,"98.csv","","39","resources/trios/L4T2A3.jpg","38","restless",0.3,0.7,0.6,0.612073629386745,"true"
"image-keyboard-response",178,380009,"0.0-4.55-1.55","xzxfyn7j6tjenh6",376,"98.csv","","null","resources/maskTrios/BT2B.jpg","null","",NA,NA,NA,NA,""
"image-keyboard-response",179,381222,"0.0-4.55-2.55","xzxfyn7j6tjenh6",376,"98.csv","","null","resources/images/coin2.png","null","",NA,NA,NA,NA,""
"image-keyboard-response",180,382199,"0.0-4.56-0.56","xzxfyn7j6tjenh6",376,"98.csv","","975","resources/trios/L4T2A3.jpg","38","restless",0.3,0.7,0.6,0.728365860302916,"false"
"image-keyboard-response",181,382604,"0.0-4.56-1.56","xzxfyn7j6tjenh6",376,"98.csv","","null","resources/maskTrios/BT2B.jpg","null","",NA,NA,NA,NA,""
"image-keyboard-response",182,383817,"0.0-4.56-2.56","xzxfyn7j6tjenh6",376,"98.csv","","null","resources/images/fishbone.png","null","",NA,NA,NA,NA,""
"image-keyboard-response",183,385183,"0.0-4.57-0.57","xzxfyn7j6tjenh6",376,"98.csv","","1364","resources/trios/L4T2A3.jpg","39","restless",0.3,0.7,0.6,0.589052189213988,"true"
"image-keyboard-response",184,385597,"0.0-4.57-1.57","xzxfyn7j6tjenh6",376,"98.csv","","null","resources/maskTrios/BBA3.jpg","null","",NA,NA,NA,NA,""
"image-keyboard-response",185,386810,"0.0-4.57-2.57","xzxfyn7j6tjenh6",376,"98.csv","","null","resources/images/coin2.png","null","",NA,NA,NA,NA,""
"image-keyboard-response",186,387071,"0.0-4.58-0.58","xzxfyn7j6tjenh6",376,"98.csv","","259","resources/trios/L4T2A3.jpg","39","restless",0.3,0.7,0.6,0.710581894122178,"false"
"image-keyboard-response",187,387477,"0.0-4.58-1.58","xzxfyn7j6tjenh6",376,"98.csv","","null","resources/maskTrios/BBA3.jpg","null","",NA,NA,NA,NA,""
"image-keyboard-response",188,388688,"0.0-4.58-2.58","xzxfyn7j6tjenh6",376,"98.csv","","null","resources/images/fishbone.png","null","",NA,NA,NA,NA,""
"image-keyboard-response",189,390498,"0.0-4.59-0.59","xzxfyn7j6tjenh6",376,"98.csv","","1809","resources/trios/L4T2A3.jpg","39","restless",0.3,0.7,0.6,0.725625679711208,"false"
"image-keyboard-response",190,390903,"0.0-4.59-1.59","xzxfyn7j6tjenh6",376,"98.csv","","null","resources/maskTrios/BBA3.jpg","null","",NA,NA,NA,NA,""
"image-keyboard-response",191,392113,"0.0-4.59-2.59","xzxfyn7j6tjenh6",376,"98.csv","","null","resources/images/fishbone.png","null","",NA,NA,NA,NA,""
"image-keyboard-response",192,393727,"0.0-4.60-0.60","xzxfyn7j6tjenh6",376,"98.csv","","1612","resources/trios/L4T2A3.jpg","37","restless",0.3,0.7,0.5,0.672716180004055,"false"
"image-keyboard-response",193,394145,"0.0-4.60-1.60","xzxfyn7j6tjenh6",376,"98.csv","","null","resources/maskTrios/L4BB.jpg","null","",NA,NA,NA,NA,""
"image-keyboard-response",194,395356,"0.0-4.60-2.60","xzxfyn7j6tjenh6",376,"98.csv","","null","resources/images/fishbone.png","null","",NA,NA,NA,NA,""
"image-keyboard-response",195,396695,"0.0-4.61-0.61","xzxfyn7j6tjenh6",376,"98.csv","","1336","resources/trios/L4T2A3.jpg","39","restless",0.3,0.6,0.6,0.91609736114453,"false"
"image-keyboard-response",196,397105,"0.0-4.61-1.61","xzxfyn7j6tjenh6",376,"98.csv","","null","resources/maskTrios/BBA3.jpg","null","",NA,NA,NA,NA,""
"image-keyboard-response",197,398316,"0.0-4.61-2.61","xzxfyn7j6tjenh6",376,"98.csv","","null","resources/images/fishbone.png","null","",NA,NA,NA,NA,""
"image-keyboard-response",198,400559,"0.0-4.62-0.62","xzxfyn7j6tjenh6",376,"98.csv","","2241","resources/trios/L4T2A3.jpg","37","restless",0.3,0.6,0.6,0.170678659031705,"true"
"image-keyboard-response",199,400978,"0.0-4.62-1.62","xzxfyn7j6tjenh6",376,"98.csv","","null","resources/maskTrios/L4BB.jpg","null","",NA,NA,NA,NA,""
"image-keyboard-response",200,402192,"0.0-4.62-2.62","xzxfyn7j6tjenh6",376,"98.csv","","null","resources/images/coin2.png","null","",NA,NA,NA,NA,""
"image-keyboard-response",201,403359,"0.0-4.63-0.63","xzxfyn7j6tjenh6",376,"98.csv","","1165","resources/trios/L4T2A3.jpg","38","restless",0.2,0.6,0.6,0.00110886897860052,"true"
"image-keyboard-response",202,403773,"0.0-4.63-1.63","xzxfyn7j6tjenh6",376,"98.csv","","null","resources/maskTrios/BT2B.jpg","null","",NA,NA,NA,NA,""
"image-keyboard-response",203,404983,"0.0-4.63-2.63","xzxfyn7j6tjenh6",376,"98.csv","","null","resources/images/coin2.png","null","",NA,NA,NA,NA,""
"image-keyboard-response",204,406335,"0.0-4.64-0.64","xzxfyn7j6tjenh6",376,"98.csv","","1350","resources/trios/L4T2A3.jpg","39","restless",0.2,0.6,0.7,0.733468039399587,"false"
"image-keyboard-response",205,406748,"0.0-4.64-1.64","xzxfyn7j6tjenh6",376,"98.csv","","null","resources/maskTrios/BBA3.jpg","null","",NA,NA,NA,NA,""
"image-keyboard-response",206,407961,"0.0-4.64-2.64","xzxfyn7j6tjenh6",376,"98.csv","","null","resources/images/fishbone.png","null","",NA,NA,NA,NA,""
"image-keyboard-response",207,408896,"0.0-4.65-0.65","xzxfyn7j6tjenh6",376,"98.csv","","933","resources/trios/L4T2A3.jpg","38","restless",0.2,0.6,0.7,0.00131953222411307,"true"
"image-keyboard-response",208,409311,"0.0-4.65-1.65","xzxfyn7j6tjenh6",376,"98.csv","","null","resources/maskTrios/BT2B.jpg","null","",NA,NA,NA,NA,""
"image-keyboard-response",209,410521,"0.0-4.65-2.65","xzxfyn7j6tjenh6",376,"98.csv","","null","resources/images/coin2.png","null","",NA,NA,NA,NA,""
"image-keyboard-response",210,410847,"0.0-4.66-0.66","xzxfyn7j6tjenh6",376,"98.csv","","324","resources/trios/L4T2A3.jpg","38","restless",0.2,0.6,0.7,0.647380111116786,"false"
"image-keyboard-response",211,411258,"0.0-4.66-1.66","xzxfyn7j6tjenh6",376,"98.csv","","null","resources/maskTrios/BT2B.jpg","null","",NA,NA,NA,NA,""
"image-keyboard-response",212,412471,"0.0-4.66-2.66","xzxfyn7j6tjenh6",376,"98.csv","","null","resources/images/fishbone.png","null","",NA,NA,NA,NA,""
"image-keyboard-response",213,413059,"0.0-4.67-0.67","xzxfyn7j6tjenh6",376,"98.csv","","586","resources/trios/L4T2A3.jpg","37","restless",0.2,0.6,0.7,0.416371498090222,"false"
"image-keyboard-response",214,413471,"0.0-4.67-1.67","xzxfyn7j6tjenh6",376,"98.csv","","null","resources/maskTrios/L4BB.jpg","null","",NA,NA,NA,NA,""
"image-keyboard-response",215,414682,"0.0-4.67-2.67","xzxfyn7j6tjenh6",376,"98.csv","","null","resources/images/fishbone.png","null","",NA,NA,NA,NA,""
"image-keyboard-response",216,414755,"0.0-4.68-0.68","xzxfyn7j6tjenh6",376,"98.csv","","70","resources/trios/L4T2A3.jpg","38","restless",0.2,0.6,0.7,0.939070282311517,"false"
"image-keyboard-response",217,415166,"0.0-4.68-1.68","xzxfyn7j6tjenh6",376,"98.csv","","null","resources/maskTrios/BT2B.jpg","null","",NA,NA,NA,NA,""
"image-keyboard-response",218,416379,"0.0-4.68-2.68","xzxfyn7j6tjenh6",376,"98.csv","","null","resources/images/fishbone.png","null","",NA,NA,NA,NA,""
"image-keyboard-response",219,416659,"0.0-4.69-0.69","xzxfyn7j6tjenh6",376,"98.csv","","277","resources/trios/L4T2A3.jpg","39","restless",0.2,0.6,0.7,0.507472753729465,"true"
"image-keyboard-response",220,417078,"0.0-4.69-1.69","xzxfyn7j6tjenh6",376,"98.csv","","null","resources/maskTrios/BBA3.jpg","null","",NA,NA,NA,NA,""
"image-keyboard-response",221,418291,"0.0-4.69-2.69","xzxfyn7j6tjenh6",376,"98.csv","","null","resources/images/coin2.png","null","",NA,NA,NA,NA,""
"image-keyboard-response",222,418803,"0.0-4.70-0.70","xzxfyn7j6tjenh6",376,"98.csv","","511","resources/trios/L4T2A3.jpg","39","restless",0.3,0.6,0.7,0.495731565485131,"true"
"image-keyboard-response",223,419207,"0.0-4.70-1.70","xzxfyn7j6tjenh6",376,"98.csv","","null","resources/maskTrios/BBA3.jpg","null","",NA,NA,NA,NA,""
"image-keyboard-response",224,420419,"0.0-4.70-2.70","xzxfyn7j6tjenh6",376,"98.csv","","null","resources/images/coin2.png","null","",NA,NA,NA,NA,""
"image-keyboard-response",225,420531,"0.0-4.71-0.71","xzxfyn7j6tjenh6",376,"98.csv","","111","resources/trios/L4T2A3.jpg","39","restless",0.3,0.5,0.7,0.640220722412006,"true"
"image-keyboard-response",226,420936,"0.0-4.71-1.71","xzxfyn7j6tjenh6",376,"98.csv","","null","resources/maskTrios/BBA3.jpg","null","",NA,NA,NA,NA,""
"image-keyboard-response",227,422149,"0.0-4.71-2.71","xzxfyn7j6tjenh6",376,"98.csv","","null","resources/images/coin2.png","null","",NA,NA,NA,NA,""
"image-keyboard-response",228,422451,"0.0-4.72-0.72","xzxfyn7j6tjenh6",376,"98.csv","","300","resources/trios/L4T2A3.jpg","39","restless",0.4,0.5,0.7,0.989019061957857,"false"
"image-keyboard-response",229,422865,"0.0-4.72-1.72","xzxfyn7j6tjenh6",376,"98.csv","","null","resources/maskTrios/BBA3.jpg","null","",NA,NA,NA,NA,""
"image-keyboard-response",230,424079,"0.0-4.72-2.72","xzxfyn7j6tjenh6",376,"98.csv","","null","resources/images/fishbone.png","null","",NA,NA,NA,NA,""
"image-keyboard-response",231,424987,"0.0-4.73-0.73","xzxfyn7j6tjenh6",376,"98.csv","","907","resources/trios/L4T2A3.jpg","38","restless",0.4,0.5,0.7,0.0684695469169749,"true"
"image-keyboard-response",232,425394,"0.0-4.73-1.73","xzxfyn7j6tjenh6",376,"98.csv","","null","resources/maskTrios/BT2B.jpg","null","",NA,NA,NA,NA,""
"image-keyboard-response",233,426605,"0.0-4.73-2.73","xzxfyn7j6tjenh6",376,"98.csv","","null","resources/images/coin2.png","null","",NA,NA,NA,NA,""
"image-keyboard-response",234,427835,"0.0-4.74-0.74","xzxfyn7j6tjenh6",376,"98.csv","","1228","resources/trios/L4T2A3.jpg","38","restless",0.4,0.5,0.6,0.40726321522755,"true"
"image-keyboard-response",235,428252,"0.0-4.74-1.74","xzxfyn7j6tjenh6",376,"98.csv","","null","resources/maskTrios/BT2B.jpg","null","",NA,NA,NA,NA,""
"image-keyboard-response",236,429464,"0.0-4.74-2.74","xzxfyn7j6tjenh6",376,"98.csv","","null","resources/images/coin2.png","null","",NA,NA,NA,NA,""
"image-keyboard-response",237,429779,"0.0-4.75-0.75","xzxfyn7j6tjenh6",376,"98.csv","","312","resources/trios/L4T2A3.jpg","38","restless",0.4,0.5,0.5,0.513180906647454,"false"
"image-keyboard-response",238,430198,"0.0-4.75-1.75","xzxfyn7j6tjenh6",376,"98.csv","","null","resources/maskTrios/BT2B.jpg","null","",NA,NA,NA,NA,""
"image-keyboard-response",239,431410,"0.0-4.75-2.75","xzxfyn7j6tjenh6",376,"98.csv","","null","resources/images/fishbone.png","null","",NA,NA,NA,NA,""
"image-keyboard-response",240,431434,"0.0-4.76-0.76","xzxfyn7j6tjenh6",376,"98.csv","","23","resources/trios/L4T2A3.jpg","37","restless",0.5,0.5,0.5,0.63784048036811,"false"
"image-keyboard-response",241,431844,"0.0-4.76-1.76","xzxfyn7j6tjenh6",376,"98.csv","","null","resources/maskTrios/L4BB.jpg","null","",NA,NA,NA,NA,""
"image-keyboard-response",242,433057,"0.0-4.76-2.76","xzxfyn7j6tjenh6",376,"98.csv","","null","resources/images/fishbone.png","null","",NA,NA,NA,NA,""
"image-keyboard-response",243,434122,"0.0-4.77-0.77","xzxfyn7j6tjenh6",376,"98.csv","","1063","resources/trios/L4T2A3.jpg","39","restless",0.5,0.5,0.5,0.39859517764042,"true"
"image-keyboard-response",244,434537,"0.0-4.77-1.77","xzxfyn7j6tjenh6",376,"98.csv","","null","resources/maskTrios/BBA3.jpg","null","",NA,NA,NA,NA,""
"image-keyboard-response",245,435750,"0.0-4.77-2.77","xzxfyn7j6tjenh6",376,"98.csv","","null","resources/images/coin2.png","null","",NA,NA,NA,NA,""
"image-keyboard-response",246,436058,"0.0-4.78-0.78","xzxfyn7j6tjenh6",376,"98.csv","","307","resources/trios/L4T2A3.jpg","39","restless",0.5,0.5,0.5,0.137894635936146,"true"
"image-keyboard-response",247,436466,"0.0-4.78-1.78","xzxfyn7j6tjenh6",376,"98.csv","","null","resources/maskTrios/BBA3.jpg","null","",NA,NA,NA,NA,""
"image-keyboard-response",248,437679,"0.0-4.78-2.78","xzxfyn7j6tjenh6",376,"98.csv","","null","resources/images/coin2.png","null","",NA,NA,NA,NA,""
"image-keyboard-response",249,438243,"0.0-4.79-0.79","xzxfyn7j6tjenh6",376,"98.csv","","561","resources/trios/L4T2A3.jpg","39","restless",0.5,0.5,0.5,0.691013956873986,"false"
"image-keyboard-response",250,438658,"0.0-4.79-1.79","xzxfyn7j6tjenh6",376,"98.csv","","null","resources/maskTrios/BBA3.jpg","null","",NA,NA,NA,NA,""
"image-keyboard-response",251,439873,"0.0-4.79-2.79","xzxfyn7j6tjenh6",376,"98.csv","","null","resources/images/fishbone.png","null","",NA,NA,NA,NA,""
"image-keyboard-response",252,440507,"0.0-4.80-0.80","xzxfyn7j6tjenh6",376,"98.csv","","632","resources/trios/L4T2A3.jpg","38","restless",0.5,0.5,0.5,0.679863064128496,"false"
"image-keyboard-response",253,440924,"0.0-4.80-1.80","xzxfyn7j6tjenh6",376,"98.csv","","null","resources/maskTrios/BT2B.jpg","null","",NA,NA,NA,NA,""
"image-keyboard-response",254,442136,"0.0-4.80-2.80","xzxfyn7j6tjenh6",376,"98.csv","","null","resources/images/fishbone.png","null","",NA,NA,NA,NA,""
"image-keyboard-response",255,442492,"0.0-4.81-0.81","xzxfyn7j6tjenh6",376,"98.csv","","354","resources/trios/L4T2A3.jpg","37","restless",0.5,0.5,0.5,0.944849460061503,"false"
"image-keyboard-response",256,442902,"0.0-4.81-1.81","xzxfyn7j6tjenh6",376,"98.csv","","null","resources/maskTrios/L4BB.jpg","null","",NA,NA,NA,NA,""
"image-keyboard-response",257,444114,"0.0-4.81-2.81","xzxfyn7j6tjenh6",376,"98.csv","","null","resources/images/fishbone.png","null","",NA,NA,NA,NA,""
"image-keyboard-response",258,444204,"0.0-4.82-0.82","xzxfyn7j6tjenh6",376,"98.csv","","88","resources/trios/L4T2A3.jpg","39","restless",0.5,0.5,0.5,0.0854803483616811,"true"
"image-keyboard-response",259,444614,"0.0-4.82-1.82","xzxfyn7j6tjenh6",376,"98.csv","","null","resources/maskTrios/BBA3.jpg","null","",NA,NA,NA,NA,""
"image-keyboard-response",260,445828,"0.0-4.82-2.82","xzxfyn7j6tjenh6",376,"98.csv","","null","resources/images/coin2.png","null","",NA,NA,NA,NA,""
"image-keyboard-response",261,446403,"0.0-4.83-0.83","xzxfyn7j6tjenh6",376,"98.csv","","574","resources/trios/L4T2A3.jpg","39","restless",0.5,0.6,0.5,0.961997184938533,"false"
"image-keyboard-response",262,446809,"0.0-4.83-1.83","xzxfyn7j6tjenh6",376,"98.csv","","null","resources/maskTrios/BBA3.jpg","null","",NA,NA,NA,NA,""
"image-keyboard-response",263,448021,"0.0-4.83-2.83","xzxfyn7j6tjenh6",376,"98.csv","","null","resources/images/fishbone.png","null","",NA,NA,NA,NA,""
"image-keyboard-response",264,448939,"0.0-4.84-0.84","xzxfyn7j6tjenh6",376,"98.csv","","916","resources/trios/L4T2A3.jpg","37","restless",0.5,0.6,0.5,0.748567556272243,"false"
"image-keyboard-response",265,449355,"0.0-4.84-1.84","xzxfyn7j6tjenh6",376,"98.csv","","null","resources/maskTrios/L4BB.jpg","null","",NA,NA,NA,NA,""
"image-keyboard-response",266,450567,"0.0-4.84-2.84","xzxfyn7j6tjenh6",376,"98.csv","","null","resources/images/fishbone.png","null","",NA,NA,NA,NA,""
"image-keyboard-response",267,450659,"0.0-4.85-0.85","xzxfyn7j6tjenh6",376,"98.csv","","89","resources/trios/L4T2A3.jpg","37","restless",0.5,0.6,0.5,0.529034838665217,"false"
"image-keyboard-response",268,451067,"0.0-4.85-1.85","xzxfyn7j6tjenh6",376,"98.csv","","null","resources/maskTrios/L4BB.jpg","null","",NA,NA,NA,NA,""
"image-keyboard-response",269,452294,"0.0-4.85-2.85","xzxfyn7j6tjenh6",376,"98.csv","","null","resources/images/fishbone.png","null","",NA,NA,NA,NA,""
"image-keyboard-response",270,452811,"0.0-4.86-0.86","xzxfyn7j6tjenh6",376,"98.csv","","515","resources/trios/L4T2A3.jpg","39","restless",0.5,0.6,0.5,0.976479790733797,"false"
"image-keyboard-response",271,453229,"0.0-4.86-1.86","xzxfyn7j6tjenh6",376,"98.csv","","null","resources/maskTrios/BBA3.jpg","null","",NA,NA,NA,NA,""
"image-keyboard-response",272,454439,"0.0-4.86-2.86","xzxfyn7j6tjenh6",376,"98.csv","","null","resources/images/fishbone.png","null","",NA,NA,NA,NA,""
"image-keyboard-response",273,454643,"0.0-4.87-0.87","xzxfyn7j6tjenh6",376,"98.csv","","201","resources/trios/L4T2A3.jpg","38","restless",0.5,0.6,0.5,0.27735768517939,"true"
"image-keyboard-response",274,455058,"0.0-4.87-1.87","xzxfyn7j6tjenh6",376,"98.csv","","null","resources/maskTrios/BT2B.jpg","null","",NA,NA,NA,NA,""
"image-keyboard-response",275,456285,"0.0-4.87-2.87","xzxfyn7j6tjenh6",376,"98.csv","","null","resources/images/coin2.png","null","",NA,NA,NA,NA,""
"image-keyboard-response",276,456899,"0.0-4.88-0.88","xzxfyn7j6tjenh6",376,"98.csv","","613","resources/trios/L4T2A3.jpg","38","restless",0.5,0.6,0.5,0.156005804635681,"true"
"image-keyboard-response",277,457318,"0.0-4.88-1.88","xzxfyn7j6tjenh6",376,"98.csv","","null","resources/maskTrios/BT2B.jpg","null","",NA,NA,NA,NA,""
"image-keyboard-response",278,458529,"0.0-4.88-2.88","xzxfyn7j6tjenh6",376,"98.csv","","null","resources/images/coin2.png","null","",NA,NA,NA,NA,""
"image-keyboard-response",279,458763,"0.0-4.89-0.89","xzxfyn7j6tjenh6",376,"98.csv","","231","resources/trios/L4T2A3.jpg","38","restless",0.5,0.6,0.5,0.486327578327085,"true"
"image-keyboard-response",280,459179,"0.0-4.89-1.89","xzxfyn7j6tjenh6",376,"98.csv","","null","resources/maskTrios/BT2B.jpg","null","",NA,NA,NA,NA,""
"image-keyboard-response",281,460393,"0.0-4.89-2.89","xzxfyn7j6tjenh6",376,"98.csv","","null","resources/images/coin2.png","null","",NA,NA,NA,NA,""
"image-keyboard-response",282,460715,"0.0-4.90-0.90","xzxfyn7j6tjenh6",376,"98.csv","","320","resources/trios/L4T2A3.jpg","38","restless",0.5,0.6,0.5,0.769085164902582,"false"
"image-keyboard-response",283,461127,"0.0-4.90-1.90","xzxfyn7j6tjenh6",376,"98.csv","","null","resources/maskTrios/BT2B.jpg","null","",NA,NA,NA,NA,""
"image-keyboard-response",284,462339,"0.0-4.90-2.90","xzxfyn7j6tjenh6",376,"98.csv","","null","resources/images/fishbone.png","null","",NA,NA,NA,NA,""
"image-keyboard-response",285,462378,"0.0-4.91-0.91","xzxfyn7j6tjenh6",376,"98.csv","","38","resources/trios/L4T2A3.jpg","39","restless",0.6,0.6,0.5,0.903690744512583,"false"
"image-keyboard-response",286,462789,"0.0-4.91-1.91","xzxfyn7j6tjenh6",376,"98.csv","","null","resources/maskTrios/BBA3.jpg","null","",NA,NA,NA,NA,""
"image-keyboard-response",287,464000,"0.0-4.91-2.91","xzxfyn7j6tjenh6",376,"98.csv","","null","resources/images/fishbone.png","null","",NA,NA,NA,NA,""
"image-keyboard-response",288,464923,"0.0-4.92-0.92","xzxfyn7j6tjenh6",376,"98.csv","","921","resources/trios/L4T2A3.jpg","39","restless",0.6,0.5,0.5,0.0893903826580782,"true"
"image-keyboard-response",289,465333,"0.0-4.92-1.92","xzxfyn7j6tjenh6",376,"98.csv","","null","resources/maskTrios/BBA3.jpg","null","",NA,NA,NA,NA,""
"image-keyboard-response",290,466546,"0.0-4.92-2.92","xzxfyn7j6tjenh6",376,"98.csv","","null","resources/images/coin2.png","null","",NA,NA,NA,NA,""
"image-keyboard-response",291,466811,"0.0-4.93-0.93","xzxfyn7j6tjenh6",376,"98.csv","","264","resources/trios/L4T2A3.jpg","39","restless",0.6,0.4,0.5,0.0158600078121527,"true"
"image-keyboard-response",292,467228,"0.0-4.93-1.93","xzxfyn7j6tjenh6",376,"98.csv","","null","resources/maskTrios/BBA3.jpg","null","",NA,NA,NA,NA,""
"image-keyboard-response",293,468442,"0.0-4.93-2.93","xzxfyn7j6tjenh6",376,"98.csv","","null","resources/images/coin2.png","null","",NA,NA,NA,NA,""
"image-keyboard-response",294,468803,"0.0-4.94-0.94","xzxfyn7j6tjenh6",376,"98.csv","","360","resources/trios/L4T2A3.jpg","39","restless",0.6,0.4,0.5,0.535131532038776,"false"
"image-keyboard-response",295,469208,"0.0-4.94-1.94","xzxfyn7j6tjenh6",376,"98.csv","","null","resources/maskTrios/BBA3.jpg","null","",NA,NA,NA,NA,""
"image-keyboard-response",296,470421,"0.0-4.94-2.94","xzxfyn7j6tjenh6",376,"98.csv","","null","resources/images/fishbone.png","null","",NA,NA,NA,NA,""
"image-keyboard-response",297,470803,"0.0-4.95-0.95","xzxfyn7j6tjenh6",376,"98.csv","","380","resources/trios/L4T2A3.jpg","37","restless",0.6,0.4,0.5,0.711117662710999,"false"
"image-keyboard-response",298,471220,"0.0-4.95-1.95","xzxfyn7j6tjenh6",376,"98.csv","","null","resources/maskTrios/L4BB.jpg","null","",NA,NA,NA,NA,""
"image-keyboard-response",299,472436,"0.0-4.95-2.95","xzxfyn7j6tjenh6",376,"98.csv","","null","resources/images/fishbone.png","null","",NA,NA,NA,NA,""
"image-keyboard-response",300,473199,"0.0-4.96-0.96","xzxfyn7j6tjenh6",376,"98.csv","","760","resources/trios/L4T2A3.jpg","37","restless",0.6,0.4,0.5,0.230725160253399,"true"
"image-keyboard-response",301,473619,"0.0-4.96-1.96","xzxfyn7j6tjenh6",376,"98.csv","","null","resources/maskTrios/L4BB.jpg","null","",NA,NA,NA,NA,""
"image-keyboard-response",302,474831,"0.0-4.96-2.96","xzxfyn7j6tjenh6",376,"98.csv","","null","resources/images/coin2.png","null","",NA,NA,NA,NA,""
"image-keyboard-response",303,475134,"0.0-4.97-0.97","xzxfyn7j6tjenh6",376,"98.csv","","301","resources/trios/L4T2A3.jpg","39","restless",0.6,0.4,0.5,0.435044394572216,"true"
"image-keyboard-response",304,475546,"0.0-4.97-1.97","xzxfyn7j6tjenh6",376,"98.csv","","null","resources/maskTrios/BBA3.jpg","null","",NA,NA,NA,NA,""
"image-keyboard-response",305,476758,"0.0-4.97-2.97","xzxfyn7j6tjenh6",376,"98.csv","","null","resources/images/coin2.png","null","",NA,NA,NA,NA,""
"image-keyboard-response",306,477119,"0.0-4.98-0.98","xzxfyn7j6tjenh6",376,"98.csv","","359","resources/trios/L4T2A3.jpg","38","restless",0.6,0.4,0.5,0.187351383097442,"true"
"image-keyboard-response",307,477526,"0.0-4.98-1.98","xzxfyn7j6tjenh6",376,"98.csv","","null","resources/maskTrios/BT2B.jpg","null","",NA,NA,NA,NA,""
"image-keyboard-response",308,478738,"0.0-4.98-2.98","xzxfyn7j6tjenh6",376,"98.csv","","null","resources/images/coin2.png","null","",NA,NA,NA,NA,""
"image-keyboard-response",309,479079,"0.0-4.99-0.99","xzxfyn7j6tjenh6",376,"98.csv","","338","resources/trios/L4T2A3.jpg","37","restless",0.6,0.4,0.5,0.788598692344334,"false"
"image-keyboard-response",310,479486,"0.0-4.99-1.99","xzxfyn7j6tjenh6",376,"98.csv","","null","resources/maskTrios/L4BB.jpg","null","",NA,NA,NA,NA,""
"image-keyboard-response",311,480700,"0.0-4.99-2.99","xzxfyn7j6tjenh6",376,"98.csv","","null","resources/images/fishbone.png","null","",NA,NA,NA,NA,""
"image-keyboard-response",312,481183,"0.0-4.100-0.100","xzxfyn7j6tjenh6",376,"98.csv","","481","resources/trios/L4T2A3.jpg","38","restless",0.6,0.4,0.5,0.656030245201175,"false"
"image-keyboard-response",313,481599,"0.0-4.100-1.100","xzxfyn7j6tjenh6",376,"98.csv","","null","resources/maskTrios/BT2B.jpg","null","",NA,NA,NA,NA,""
"image-keyboard-response",314,482811,"0.0-4.100-2.100","xzxfyn7j6tjenh6",376,"98.csv","","null","resources/images/fishbone.png","null","",NA,NA,NA,NA,""
"image-keyboard-response",315,483390,"0.0-4.101-0.101","xzxfyn7j6tjenh6",376,"98.csv","","577","resources/trios/L4T2A3.jpg","39","restless",0.6,0.3,0.5,0.834700347207096,"false"
"image-keyboard-response",316,483793,"0.0-4.101-1.101","xzxfyn7j6tjenh6",376,"98.csv","","null","resources/maskTrios/BBA3.jpg","null","",NA,NA,NA,NA,""
"image-keyboard-response",317,485006,"0.0-4.101-2.101","xzxfyn7j6tjenh6",376,"98.csv","","null","resources/images/fishbone.png","null","",NA,NA,NA,NA,""
"image-keyboard-response",318,485047,"0.0-4.102-0.102","xzxfyn7j6tjenh6",376,"98.csv","","39","resources/trios/L4T2A3.jpg","39","restless",0.6,0.3,0.5,0.918948284549952,"false"
"image-keyboard-response",319,485456,"0.0-4.102-1.102","xzxfyn7j6tjenh6",376,"98.csv","","null","resources/maskTrios/BBA3.jpg","null","",NA,NA,NA,NA,""
"image-keyboard-response",320,486668,"0.0-4.102-2.102","xzxfyn7j6tjenh6",376,"98.csv","","null","resources/images/fishbone.png","null","",NA,NA,NA,NA,""
"image-keyboard-response",321,487342,"0.0-4.103-0.103","xzxfyn7j6tjenh6",376,"98.csv","","672","resources/trios/L4T2A3.jpg","38","restless",0.6,0.3,0.5,0.55564265544031,"false"
"image-keyboard-response",322,487751,"0.0-4.103-1.103","xzxfyn7j6tjenh6",376,"98.csv","","null","resources/maskTrios/BT2B.jpg","null","",NA,NA,NA,NA,""
"image-keyboard-response",323,488964,"0.0-4.103-2.103","xzxfyn7j6tjenh6",376,"98.csv","","null","resources/images/fishbone.png","null","",NA,NA,NA,NA,""
"image-keyboard-response",324,490302,"0.0-4.104-0.104","xzxfyn7j6tjenh6",376,"98.csv","","1335","resources/trios/L4T2A3.jpg","37","restless",0.6,0.3,0.6,0.264540551172647,"true"
"image-keyboard-response",325,490712,"0.0-4.104-1.104","xzxfyn7j6tjenh6",376,"98.csv","","null","resources/maskTrios/L4BB.jpg","null","",NA,NA,NA,NA,""
"image-keyboard-response",326,491923,"0.0-4.104-2.104","xzxfyn7j6tjenh6",376,"98.csv","","null","resources/images/coin2.png","null","",NA,NA,NA,NA,""
"image-keyboard-response",327,492575,"0.0-4.105-0.105","xzxfyn7j6tjenh6",376,"98.csv","","650","resources/trios/L4T2A3.jpg","39","restless",0.6,0.3,0.7,0.474878308601709,"true"
"image-keyboard-response",328,492990,"0.0-4.105-1.105","xzxfyn7j6tjenh6",376,"98.csv","","null","resources/maskTrios/BBA3.jpg","null","",NA,NA,NA,NA,""
"image-keyboard-response",329,494201,"0.0-4.105-2.105","xzxfyn7j6tjenh6",376,"98.csv","","null","resources/images/coin2.png","null","",NA,NA,NA,NA,""
"image-keyboard-response",330,494592,"0.0-4.106-0.106","xzxfyn7j6tjenh6",376,"98.csv","","389","resources/trios/L4T2A3.jpg","38","restless",0.6,0.2,0.7,0.127827460898824,"true"
"image-keyboard-response",331,495002,"0.0-4.106-1.106","xzxfyn7j6tjenh6",376,"98.csv","","null","resources/maskTrios/BT2B.jpg","null","",NA,NA,NA,NA,""
"image-keyboard-response",332,496214,"0.0-4.106-2.106","xzxfyn7j6tjenh6",376,"98.csv","","null","resources/images/coin2.png","null","",NA,NA,NA,NA,""
"image-keyboard-response",333,496614,"0.0-4.107-0.107","xzxfyn7j6tjenh6",376,"98.csv","","397","resources/trios/L4T2A3.jpg","39","restless",0.7,0.2,0.7,0.0313936919228346,"true"
"image-keyboard-response",334,497030,"0.0-4.107-1.107","xzxfyn7j6tjenh6",376,"98.csv","","null","resources/maskTrios/BBA3.jpg","null","",NA,NA,NA,NA,""
"image-keyboard-response",335,498242,"0.0-4.107-2.107","xzxfyn7j6tjenh6",376,"98.csv","","null","resources/images/coin2.png","null","",NA,NA,NA,NA,""
"image-keyboard-response",336,498462,"0.0-4.108-0.108","xzxfyn7j6tjenh6",376,"98.csv","","218","resources/trios/L4T2A3.jpg","37","restless",0.7,0.2,0.6,0.572527722021908,"true"
"image-keyboard-response",337,498874,"0.0-4.108-1.108","xzxfyn7j6tjenh6",376,"98.csv","","null","resources/maskTrios/L4BB.jpg","null","",NA,NA,NA,NA,""
"image-keyboard-response",338,500086,"0.0-4.108-2.108","xzxfyn7j6tjenh6",376,"98.csv","","null","resources/images/coin2.png","null","",NA,NA,NA,NA,""
"image-keyboard-response",339,500567,"0.0-4.109-0.109","xzxfyn7j6tjenh6",376,"98.csv","","478","resources/trios/L4T2A3.jpg","39","restless",0.7,0.2,0.6,0.769197953902781,"false"
"image-keyboard-response",340,500975,"0.0-4.109-1.109","xzxfyn7j6tjenh6",376,"98.csv","","null","resources/maskTrios/BBA3.jpg","null","",NA,NA,NA,NA,""
"image-keyboard-response",341,502184,"0.0-4.109-2.109","xzxfyn7j6tjenh6",376,"98.csv","","null","resources/images/fishbone.png","null","",NA,NA,NA,NA,""
"image-keyboard-response",342,503254,"0.0-4.110-0.110","xzxfyn7j6tjenh6",376,"98.csv","","1069","resources/trios/L4T2A3.jpg","37","restless",0.7,0.2,0.6,0.62721687997064,"true"
"image-keyboard-response",343,503665,"0.0-4.110-1.110","xzxfyn7j6tjenh6",376,"98.csv","","null","resources/maskTrios/L4BB.jpg","null","",NA,NA,NA,NA,""
"image-keyboard-response",344,504878,"0.0-4.110-2.110","xzxfyn7j6tjenh6",376,"98.csv","","null","resources/images/coin2.png","null","",NA,NA,NA,NA,""
"image-keyboard-response",345,506167,"0.0-4.111-0.111","xzxfyn7j6tjenh6",376,"98.csv","","1287","resources/trios/L4T2A3.jpg","39","restless",0.7,0.2,0.5,0.818817295883529,"false"
"image-keyboard-response",346,506576,"0.0-4.111-1.111","xzxfyn7j6tjenh6",376,"98.csv","","null","resources/maskTrios/BBA3.jpg","null","",NA,NA,NA,NA,""
"image-keyboard-response",347,507787,"0.0-4.111-2.111","xzxfyn7j6tjenh6",376,"98.csv","","null","resources/images/fishbone.png","null","",NA,NA,NA,NA,""
"image-keyboard-response",348,507967,"0.0-4.112-0.112","xzxfyn7j6tjenh6",376,"98.csv","","177","resources/trios/L4T2A3.jpg","38","restless",0.7,0.2,0.5,0.418788819813562,"false"
"image-keyboard-response",349,508374,"0.0-4.112-1.112","xzxfyn7j6tjenh6",376,"98.csv","","null","resources/maskTrios/BT2B.jpg","null","",NA,NA,NA,NA,""
"image-keyboard-response",350,509582,"0.0-4.112-2.112","xzxfyn7j6tjenh6",376,"98.csv","","null","resources/images/fishbone.png","null","",NA,NA,NA,NA,""
"image-keyboard-response",351,509894,"0.0-4.113-0.113","xzxfyn7j6tjenh6",376,"98.csv","","309","resources/trios/L4T2A3.jpg","37","restless",0.7,0.2,0.5,0.758030205278392,"false"
"image-keyboard-response",352,510298,"0.0-4.113-1.113","xzxfyn7j6tjenh6",376,"98.csv","","null","resources/maskTrios/L4BB.jpg","null","",NA,NA,NA,NA,""
"image-keyboard-response",353,511511,"0.0-4.113-2.113","xzxfyn7j6tjenh6",376,"98.csv","","null","resources/images/fishbone.png","null","",NA,NA,NA,NA,""
"image-keyboard-response",354,512071,"0.0-4.114-0.114","xzxfyn7j6tjenh6",376,"98.csv","","558","resources/trios/L4T2A3.jpg","38","restless",0.7,0.2,0.6,0.546171482230308,"false"
"image-keyboard-response",355,512478,"0.0-4.114-1.114","xzxfyn7j6tjenh6",376,"98.csv","","null","resources/maskTrios/BT2B.jpg","null","",NA,NA,NA,NA,""
"image-keyboard-response",356,513689,"0.0-4.114-2.114","xzxfyn7j6tjenh6",376,"98.csv","","null","resources/images/fishbone.png","null","",NA,NA,NA,NA,""
"image-keyboard-response",357,514597,"0.0-4.115-0.115","xzxfyn7j6tjenh6",376,"98.csv","","907","resources/trios/L4T2A3.jpg","39","restless",0.7,0.2,0.6,0.224520036938285,"true"
"image-keyboard-response",358,515004,"0.0-4.115-1.115","xzxfyn7j6tjenh6",376,"98.csv","","null","resources/maskTrios/BBA3.jpg","null","",NA,NA,NA,NA,""
"image-keyboard-response",359,516218,"0.0-4.115-2.115","xzxfyn7j6tjenh6",376,"98.csv","","null","resources/images/coin2.png","null","",NA,NA,NA,NA,""
"image-keyboard-response",360,516495,"0.0-4.116-0.116","xzxfyn7j6tjenh6",376,"98.csv","","275","resources/trios/L4T2A3.jpg","39","restless",0.7,0.2,0.6,0.672736600633344,"false"
"image-keyboard-response",361,516902,"0.0-4.116-1.116","xzxfyn7j6tjenh6",376,"98.csv","","null","resources/maskTrios/BBA3.jpg","null","",NA,NA,NA,NA,""
"image-keyboard-response",362,518114,"0.0-4.116-2.116","xzxfyn7j6tjenh6",376,"98.csv","","null","resources/images/fishbone.png","null","",NA,NA,NA,NA,""
"image-keyboard-response",363,518198,"0.0-4.117-0.117","xzxfyn7j6tjenh6",376,"98.csv","","82","resources/trios/L4T2A3.jpg","38","restless",0.7,0.2,0.6,0.820537973825819,"false"
"image-keyboard-response",364,518613,"0.0-4.117-1.117","xzxfyn7j6tjenh6",376,"98.csv","","null","resources/maskTrios/BT2B.jpg","null","",NA,NA,NA,NA,""
"image-keyboard-response",365,519825,"0.0-4.117-2.117","xzxfyn7j6tjenh6",376,"98.csv","","null","resources/images/fishbone.png","null","",NA,NA,NA,NA,""
"image-keyboard-response",366,520245,"0.0-4.118-0.118","xzxfyn7j6tjenh6",376,"98.csv","","419","resources/trios/L4T2A3.jpg","38","restless",0.7,0.3,0.6,0.548479490225642,"false"
"image-keyboard-response",367,520654,"0.0-4.118-1.118","xzxfyn7j6tjenh6",376,"98.csv","","null","resources/maskTrios/BT2B.jpg","null","",NA,NA,NA,NA,""
"image-keyboard-response",368,521870,"0.0-4.118-2.118","xzxfyn7j6tjenh6",376,"98.csv","","null","resources/images/fishbone.png","null","",NA,NA,NA,NA,""
"image-keyboard-response",369,522158,"0.0-4.119-0.119","xzxfyn7j6tjenh6",376,"98.csv","","285","resources/trios/L4T2A3.jpg","39","restless",0.7,0.3,0.6,0.0874493887420549,"true"
"image-keyboard-response",370,522572,"0.0-4.119-1.119","xzxfyn7j6tjenh6",376,"98.csv","","null","resources/maskTrios/BBA3.jpg","null","",NA,NA,NA,NA,""
"image-keyboard-response",371,523784,"0.0-4.119-2.119","xzxfyn7j6tjenh6",376,"98.csv","","null","resources/images/coin2.png","null","",NA,NA,NA,NA,""
"image-keyboard-response",372,524159,"0.0-4.120-0.120","xzxfyn7j6tjenh6",376,"98.csv","","372","resources/trios/L4T2A3.jpg","39","restless",0.7,0.3,0.5,0.909509343162865,"false"
"image-keyboard-response",373,524566,"0.0-4.120-1.120","xzxfyn7j6tjenh6",376,"98.csv","","null","resources/maskTrios/BBA3.jpg","null","",NA,NA,NA,NA,""
"image-keyboard-response",374,525778,"0.0-4.120-2.120","xzxfyn7j6tjenh6",376,"98.csv","","null","resources/images/fishbone.png","null","",NA,NA,NA,NA,""
"image-keyboard-response",375,526079,"0.0-4.121-0.121","xzxfyn7j6tjenh6",376,"98.csv","","298","resources/trios/L4T2A3.jpg","39","restless",0.7,0.3,0.5,0.341115400379344,"true"
"image-keyboard-response",376,526497,"0.0-4.121-1.121","xzxfyn7j6tjenh6",376,"98.csv","","null","resources/maskTrios/BBA3.jpg","null","",NA,NA,NA,NA,""
"image-keyboard-response",377,527707,"0.0-4.121-2.121","xzxfyn7j6tjenh6",376,"98.csv","","null","resources/images/coin2.png","null","",NA,NA,NA,NA,""
"image-keyboard-response",378,528367,"0.0-4.122-0.122","xzxfyn7j6tjenh6",376,"98.csv","","657","resources/trios/L4T2A3.jpg","37","restless",0.7,0.3,0.5,0.398077186073795,"true"
"image-keyboard-response",379,528773,"0.0-4.122-1.122","xzxfyn7j6tjenh6",376,"98.csv","","null","resources/maskTrios/L4BB.jpg","null","",NA,NA,NA,NA,""
"image-keyboard-response",380,529985,"0.0-4.122-2.122","xzxfyn7j6tjenh6",376,"98.csv","","null","resources/images/coin2.png","null","",NA,NA,NA,NA,""
"image-keyboard-response",381,530317,"0.0-4.123-0.123","xzxfyn7j6tjenh6",376,"98.csv","","331","resources/trios/L4T2A3.jpg","37","restless",0.7,0.3,0.5,0.721567435181346,"false"
"image-keyboard-response",382,530733,"0.0-4.123-1.123","xzxfyn7j6tjenh6",376,"98.csv","","null","resources/maskTrios/L4BB.jpg","null","",NA,NA,NA,NA,""
"image-keyboard-response",383,531947,"0.0-4.123-2.123","xzxfyn7j6tjenh6",376,"98.csv","","null","resources/images/fishbone.png","null","",NA,NA,NA,NA,""
"image-keyboard-response",384,532222,"0.0-4.124-0.124","xzxfyn7j6tjenh6",376,"98.csv","","274","resources/trios/L4T2A3.jpg","37","restless",0.8,0.3,0.5,0.704735628850126,"true"
"image-keyboard-response",385,532633,"0.0-4.124-1.124","xzxfyn7j6tjenh6",376,"98.csv","","null","resources/maskTrios/L4BB.jpg","null","",NA,NA,NA,NA,""
"image-keyboard-response",386,533846,"0.0-4.124-2.124","xzxfyn7j6tjenh6",376,"98.csv","","null","resources/images/coin2.png","null","",NA,NA,NA,NA,""
"image-keyboard-response",387,534210,"0.0-4.125-0.125","xzxfyn7j6tjenh6",376,"98.csv","","362","resources/trios/L4T2A3.jpg","39","restless",0.8,0.3,0.4,0.672853019336906,"false"
"image-keyboard-response",388,534629,"0.0-4.125-1.125","xzxfyn7j6tjenh6",376,"98.csv","","null","resources/maskTrios/BBA3.jpg","null","",NA,NA,NA,NA,""
"image-keyboard-response",389,535841,"0.0-4.125-2.125","xzxfyn7j6tjenh6",376,"98.csv","","null","resources/images/fishbone.png","null","",NA,NA,NA,NA,""
"image-keyboard-response",390,536266,"0.0-4.126-0.126","xzxfyn7j6tjenh6",376,"98.csv","","423","resources/trios/L4T2A3.jpg","38","restless",0.8,0.3,0.4,0.588069192156193,"false"
"image-keyboard-response",391,536673,"0.0-4.126-1.126","xzxfyn7j6tjenh6",376,"98.csv","","null","resources/maskTrios/BT2B.jpg","null","",NA,NA,NA,NA,""
"image-keyboard-response",392,537886,"0.0-4.126-2.126","xzxfyn7j6tjenh6",376,"98.csv","","null","resources/images/fishbone.png","null","",NA,NA,NA,NA,""
"image-keyboard-response",393,538626,"0.0-4.127-0.127","xzxfyn7j6tjenh6",376,"98.csv","","737","resources/trios/L4T2A3.jpg","37","restless",0.7,0.3,0.4,0.312450515355745,"true"
"image-keyboard-response",394,539035,"0.0-4.127-1.127","xzxfyn7j6tjenh6",376,"98.csv","","null","resources/maskTrios/L4BB.jpg","null","",NA,NA,NA,NA,""
"image-keyboard-response",395,540249,"0.0-4.127-2.127","xzxfyn7j6tjenh6",376,"98.csv","","null","resources/images/coin2.png","null","",NA,NA,NA,NA,""
"image-keyboard-response",396,541354,"0.0-4.128-0.128","xzxfyn7j6tjenh6",376,"98.csv","","1103","resources/trios/L4T2A3.jpg","39","restless",0.7,0.3,0.4,0.847916431989821,"false"
"image-keyboard-response",397,541765,"0.0-4.128-1.128","xzxfyn7j6tjenh6",376,"98.csv","","null","resources/maskTrios/BBA3.jpg","null","",NA,NA,NA,NA,""
"image-keyboard-response",398,542975,"0.0-4.128-2.128","xzxfyn7j6tjenh6",376,"98.csv","","null","resources/images/fishbone.png","null","",NA,NA,NA,NA,""
"image-keyboard-response",399,543457,"0.0-4.129-0.129","xzxfyn7j6tjenh6",376,"98.csv","","480","resources/trios/L4T2A3.jpg","37","restless",0.7,0.3,0.3,0.591289551916619,"true"
"image-keyboard-response",400,543874,"0.0-4.129-1.129","xzxfyn7j6tjenh6",376,"98.csv","","null","resources/maskTrios/L4BB.jpg","null","",NA,NA,NA,NA,""
"image-keyboard-response",401,545086,"0.0-4.129-2.129","xzxfyn7j6tjenh6",376,"98.csv","","null","resources/images/coin2.png","null","",NA,NA,NA,NA,""
"image-keyboard-response",402,547145,"0.0-4.130-0.130","xzxfyn7j6tjenh6",376,"98.csv","","2056","resources/trios/L4T2A3.jpg","38","restless",0.7,0.3,0.3,0.0464440132241037,"true"
"image-keyboard-response",403,547548,"0.0-4.130-1.130","xzxfyn7j6tjenh6",376,"98.csv","","null","resources/maskTrios/BT2B.jpg","null","",NA,NA,NA,NA,""
"image-keyboard-response",404,548760,"0.0-4.130-2.130","xzxfyn7j6tjenh6",376,"98.csv","","null","resources/images/coin2.png","null","",NA,NA,NA,NA,""
"image-keyboard-response",405,549850,"0.0-4.131-0.131","xzxfyn7j6tjenh6",376,"98.csv","","1087","resources/trios/L4T2A3.jpg","39","restless",0.7,0.4,0.3,0.040711860312989,"true"
"image-keyboard-response",406,550258,"0.0-4.131-1.131","xzxfyn7j6tjenh6",376,"98.csv","","null","resources/maskTrios/BBA3.jpg","null","",NA,NA,NA,NA,""
"image-keyboard-response",407,551471,"0.0-4.131-2.131","xzxfyn7j6tjenh6",376,"98.csv","","null","resources/images/coin2.png","null","",NA,NA,NA,NA,""
"image-keyboard-response",408,551906,"0.0-4.132-0.132","xzxfyn7j6tjenh6",376,"98.csv","","432","resources/trios/L4T2A3.jpg","38","restless",0.7,0.4,0.3,0.296231151342494,"true"
"image-keyboard-response",409,552322,"0.0-4.132-1.132","xzxfyn7j6tjenh6",376,"98.csv","","null","resources/maskTrios/BT2B.jpg","null","",NA,NA,NA,NA,""
"image-keyboard-response",410,553534,"0.0-4.132-2.132","xzxfyn7j6tjenh6",376,"98.csv","","null","resources/images/coin2.png","null","",NA,NA,NA,NA,""
"image-keyboard-response",411,554721,"0.0-4.133-0.133","xzxfyn7j6tjenh6",376,"98.csv","","1186","resources/trios/L4T2A3.jpg","37","restless",0.7,0.4,0.3,0.197794657609079,"true"
"image-keyboard-response",412,555132,"0.0-4.133-1.133","xzxfyn7j6tjenh6",376,"98.csv","","null","resources/maskTrios/L4BB.jpg","null","",NA,NA,NA,NA,""
"image-keyboard-response",413,556343,"0.0-4.133-2.133","xzxfyn7j6tjenh6",376,"98.csv","","null","resources/images/coin2.png","null","",NA,NA,NA,NA,""
"image-keyboard-response",414,556649,"0.0-4.134-0.134","xzxfyn7j6tjenh6",376,"98.csv","","303","resources/trios/L4T2A3.jpg","38","restless",0.7,0.4,0.3,0.0309098896158166,"true"
"image-keyboard-response",415,557061,"0.0-4.134-1.134","xzxfyn7j6tjenh6",376,"98.csv","","null","resources/maskTrios/BT2B.jpg","null","",NA,NA,NA,NA,""
"image-keyboard-response",416,558275,"0.0-4.134-2.134","xzxfyn7j6tjenh6",376,"98.csv","","null","resources/images/coin2.png","null","",NA,NA,NA,NA,""
"image-keyboard-response",417,558745,"0.0-4.135-0.135","xzxfyn7j6tjenh6",376,"98.csv","","469","resources/trios/L4T2A3.jpg","38","restless",0.7,0.4,0.3,0.574411489497028,"false"
"image-keyboard-response",418,559155,"0.0-4.135-1.135","xzxfyn7j6tjenh6",376,"98.csv","","null","resources/maskTrios/BT2B.jpg","null","",NA,NA,NA,NA,""
"image-keyboard-response",419,560366,"0.0-4.135-2.135","xzxfyn7j6tjenh6",376,"98.csv","","null","resources/images/fishbone.png","null","",NA,NA,NA,NA,""
"image-keyboard-response",420,560874,"0.0-4.136-0.136","xzxfyn7j6tjenh6",376,"98.csv","","505","resources/trios/L4T2A3.jpg","37","restless",0.7,0.4,0.3,0.484092753552404,"true"
"image-keyboard-response",421,561283,"0.0-4.136-1.136","xzxfyn7j6tjenh6",376,"98.csv","","null","resources/maskTrios/L4BB.jpg","null","",NA,NA,NA,NA,""
"image-keyboard-response",422,562496,"0.0-4.136-2.136","xzxfyn7j6tjenh6",376,"98.csv","","null","resources/images/coin2.png","null","",NA,NA,NA,NA,""
"image-keyboard-response",423,562770,"0.0-4.137-0.137","xzxfyn7j6tjenh6",376,"98.csv","","271","resources/trios/L4T2A3.jpg","39","restless",0.7,0.4,0.3,0.190385888549549,"true"
"image-keyboard-response",424,563180,"0.0-4.137-1.137","xzxfyn7j6tjenh6",376,"98.csv","","null","resources/maskTrios/BBA3.jpg","null","",NA,NA,NA,NA,""
"image-keyboard-response",425,564393,"0.0-4.137-2.137","xzxfyn7j6tjenh6",376,"98.csv","","null","resources/images/coin2.png","null","",NA,NA,NA,NA,""
"image-keyboard-response",426,564689,"0.0-4.138-0.138","xzxfyn7j6tjenh6",376,"98.csv","","295","resources/trios/L4T2A3.jpg","37","restless",0.7,0.4,0.3,0.819006640198056,"false"
"image-keyboard-response",427,565108,"0.0-4.138-1.138","xzxfyn7j6tjenh6",376,"98.csv","","null","resources/maskTrios/L4BB.jpg","null","",NA,NA,NA,NA,""
"image-keyboard-response",428,566321,"0.0-4.138-2.138","xzxfyn7j6tjenh6",376,"98.csv","","null","resources/images/fishbone.png","null","",NA,NA,NA,NA,""
"image-keyboard-response",429,566353,"0.0-4.139-0.139","xzxfyn7j6tjenh6",376,"98.csv","","29","resources/trios/L4T2A3.jpg","39","restless",0.7,0.4,0.3,0.613864691324318,"false"
"image-keyboard-response",430,566802,"0.0-4.139-1.139","xzxfyn7j6tjenh6",376,"98.csv","","null","resources/maskTrios/BBA3.jpg","null","",NA,NA,NA,NA,""
"image-keyboard-response",431,568016,"0.0-4.139-2.139","xzxfyn7j6tjenh6",376,"98.csv","","null","resources/images/fishbone.png","null","",NA,NA,NA,NA,""
"image-keyboard-response",432,568586,"0.0-4.140-0.140","xzxfyn7j6tjenh6",376,"98.csv","","567","resources/trios/L4T2A3.jpg","38","restless",0.7,0.4,0.3,0.394292900596784,"true"
"image-keyboard-response",433,569000,"0.0-4.140-1.140","xzxfyn7j6tjenh6",376,"98.csv","","null","resources/maskTrios/BT2B.jpg","null","",NA,NA,NA,NA,""
"image-keyboard-response",434,570212,"0.0-4.140-2.140","xzxfyn7j6tjenh6",376,"98.csv","","null","resources/images/coin2.png","null","",NA,NA,NA,NA,""
"image-keyboard-response",435,570227,"0.0-4.141-0.141","xzxfyn7j6tjenh6",376,"98.csv","","13","resources/trios/L4T2A3.jpg","38","restless",0.7,0.4,0.3,0.571756842858367,"false"
"image-keyboard-response",436,570645,"0.0-4.141-1.141","xzxfyn7j6tjenh6",376,"98.csv","","null","resources/maskTrios/BT2B.jpg","null","",NA,NA,NA,NA,""
"image-keyboard-response",437,571857,"0.0-4.141-2.141","xzxfyn7j6tjenh6",376,"98.csv","","null","resources/images/fishbone.png","null","",NA,NA,NA,NA,""
"image-keyboard-response",438,574082,"0.0-4.142-0.142","xzxfyn7j6tjenh6",376,"98.csv","","2222","resources/trios/L4T2A3.jpg","39","restless",0.7,0.5,0.3,0.555684067703649,"false"
"image-keyboard-response",439,574487,"0.0-4.142-1.142","xzxfyn7j6tjenh6",376,"98.csv","","null","resources/maskTrios/BBA3.jpg","null","",NA,NA,NA,NA,""
"image-keyboard-response",440,575699,"0.0-4.142-2.142","xzxfyn7j6tjenh6",376,"98.csv","","null","resources/images/fishbone.png","null","",NA,NA,NA,NA,""
"image-keyboard-response",441,575713,"0.0-4.143-0.143","xzxfyn7j6tjenh6",376,"98.csv","","12","resources/trios/L4T2A3.jpg","37","restless",0.7,0.5,0.3,0.0175427756389854,"true"
"image-keyboard-response",442,576119,"0.0-4.143-1.143","xzxfyn7j6tjenh6",376,"98.csv","","null","resources/maskTrios/L4BB.jpg","null","",NA,NA,NA,NA,""
"image-keyboard-response",443,577330,"0.0-4.143-2.143","xzxfyn7j6tjenh6",376,"98.csv","","null","resources/images/coin2.png","null","",NA,NA,NA,NA,""
"image-keyboard-response",444,577818,"0.0-4.144-0.144","xzxfyn7j6tjenh6",376,"98.csv","","485","resources/trios/L4T2A3.jpg","38","restless",0.7,0.5,0.3,0.389573384437259,"true"
"image-keyboard-response",445,578228,"0.0-4.144-1.144","xzxfyn7j6tjenh6",376,"98.csv","","null","resources/maskTrios/BT2B.jpg","null","",NA,NA,NA,NA,""
"image-keyboard-response",446,579442,"0.0-4.144-2.144","xzxfyn7j6tjenh6",376,"98.csv","","null","resources/images/coin2.png","null","",NA,NA,NA,NA,""
"image-keyboard-response",447,580273,"0.0-4.145-0.145","xzxfyn7j6tjenh6",376,"98.csv","","829","resources/trios/L4T2A3.jpg","39","restless",0.6,0.5,0.2,0.933567439451502,"false"
"image-keyboard-response",448,580690,"0.0-4.145-1.145","xzxfyn7j6tjenh6",376,"98.csv","","null","resources/maskTrios/BBA3.jpg","null","",NA,NA,NA,NA,""
"image-keyboard-response",449,581901,"0.0-4.145-2.145","xzxfyn7j6tjenh6",376,"98.csv","","null","resources/images/fishbone.png","null","",NA,NA,NA,NA,""
"image-keyboard-response",450,582433,"0.0-4.146-0.146","xzxfyn7j6tjenh6",376,"98.csv","","531","resources/trios/L4T2A3.jpg","37","restless",0.6,0.5,0.2,0.721465222409888,"false"
"image-keyboard-response",451,582840,"0.0-4.146-1.146","xzxfyn7j6tjenh6",376,"98.csv","","null","resources/maskTrios/L4BB.jpg","null","",NA,NA,NA,NA,""
"image-keyboard-response",452,584058,"0.0-4.146-2.146","xzxfyn7j6tjenh6",376,"98.csv","","null","resources/images/fishbone.png","null","",NA,NA,NA,NA,""
"image-keyboard-response",453,585794,"0.0-4.147-0.147","xzxfyn7j6tjenh6",376,"98.csv","","1734","resources/trios/L4T2A3.jpg","38","restless",0.6,0.5,0.2,0.808104270405118,"false"
"image-keyboard-response",454,586210,"0.0-4.147-1.147","xzxfyn7j6tjenh6",376,"98.csv","","null","resources/maskTrios/BT2B.jpg","null","",NA,NA,NA,NA,""
"image-keyboard-response",455,587422,"0.0-4.147-2.147","xzxfyn7j6tjenh6",376,"98.csv","","null","resources/images/fishbone.png","null","",NA,NA,NA,NA,""
"image-keyboard-response",456,588602,"0.0-4.148-0.148","xzxfyn7j6tjenh6",376,"98.csv","","1177","resources/trios/L4T2A3.jpg","39","restless",0.6,0.5,0.2,0.69195840446941,"false"
"image-keyboard-response",457,589020,"0.0-4.148-1.148","xzxfyn7j6tjenh6",376,"98.csv","","null","resources/maskTrios/BBA3.jpg","null","",NA,NA,NA,NA,""
"image-keyboard-response",458,590233,"0.0-4.148-2.148","xzxfyn7j6tjenh6",376,"98.csv","","null","resources/images/fishbone.png","null","",NA,NA,NA,NA,""
"image-keyboard-response",459,591529,"0.0-4.149-0.149","xzxfyn7j6tjenh6",376,"98.csv","","1294","resources/trios/L4T2A3.jpg","39","restless",0.6,0.5,0.2,0.77666252360767,"false"
"image-keyboard-response",460,591946,"0.0-4.149-1.149","xzxfyn7j6tjenh6",376,"98.csv","","null","resources/maskTrios/BBA3.jpg","null","",NA,NA,NA,NA,""
"image-keyboard-response",461,593161,"0.0-4.149-2.149","xzxfyn7j6tjenh6",376,"98.csv","","null","resources/images/fishbone.png","null","",NA,NA,NA,NA,""
"image-keyboard-response",462,593372,"0.0-4.150-0.150","xzxfyn7j6tjenh6",376,"98.csv","","209","resources/trios/L4T2A3.jpg","37","restless",0.6,0.5,0.3,0.724276520952043,"false"
"image-keyboard-response",463,593779,"0.0-4.150-1.150","xzxfyn7j6tjenh6",376,"98.csv","","null","resources/maskTrios/L4BB.jpg","null","",NA,NA,NA,NA,""
"image-keyboard-response",464,594992,"0.0-4.150-2.150","xzxfyn7j6tjenh6",376,"98.csv","","null","resources/images/fishbone.png","null","",NA,NA,NA,NA,""
"image-keyboard-response",465,595300,"0.0-4.151-0.151","xzxfyn7j6tjenh6",376,"98.csv","","307","resources/trios/L4T2A3.jpg","38","restless",0.6,0.5,0.3,0.111238777059751,"true"
"image-keyboard-response",466,595707,"0.0-4.151-1.151","xzxfyn7j6tjenh6",376,"98.csv","","null","resources/maskTrios/BT2B.jpg","null","",NA,NA,NA,NA,""
"image-keyboard-response",467,596921,"0.0-4.151-2.151","xzxfyn7j6tjenh6",376,"98.csv","","null","resources/images/coin2.png","null","",NA,NA,NA,NA,""
"image-keyboard-response",468,597805,"0.0-4.152-0.152","xzxfyn7j6tjenh6",376,"98.csv","","882","resources/trios/L4T2A3.jpg","38","restless",0.6,0.5,0.3,0.527053338457576,"false"
"image-keyboard-response",469,598217,"0.0-4.152-1.152","xzxfyn7j6tjenh6",376,"98.csv","","null","resources/maskTrios/BT2B.jpg","null","",NA,NA,NA,NA,""
"image-keyboard-response",470,599428,"0.0-4.152-2.152","xzxfyn7j6tjenh6",376,"98.csv","","null","resources/images/fishbone.png","null","",NA,NA,NA,NA,""
"image-keyboard-response",471,599589,"0.0-4.153-0.153","xzxfyn7j6tjenh6",376,"98.csv","","158","resources/trios/L4T2A3.jpg","39","restless",0.6,0.5,0.3,0.162811719641691,"true"
"image-keyboard-response",472,599999,"0.0-4.153-1.153","xzxfyn7j6tjenh6",376,"98.csv","","null","resources/maskTrios/BBA3.jpg","null","",NA,NA,NA,NA,""
"image-keyboard-response",473,601210,"0.0-4.153-2.153","xzxfyn7j6tjenh6",376,"98.csv","","null","resources/images/coin2.png","null","",NA,NA,NA,NA,""
"image-keyboard-response",474,601565,"0.0-4.154-0.154","xzxfyn7j6tjenh6",376,"98.csv","","353","resources/trios/L4T2A3.jpg","37","restless",0.6,0.5,0.3,0.522559643730187,"true"
"image-keyboard-response",475,601977,"0.0-4.154-1.154","xzxfyn7j6tjenh6",376,"98.csv","","null","resources/maskTrios/L4BB.jpg","null","",NA,NA,NA,NA,""
"image-keyboard-response",476,603189,"0.0-4.154-2.154","xzxfyn7j6tjenh6",376,"98.csv","","null","resources/images/coin2.png","null","",NA,NA,NA,NA,""
"image-keyboard-response",477,603515,"0.0-4.155-0.155","xzxfyn7j6tjenh6",376,"98.csv","","325","resources/trios/L4T2A3.jpg","39","restless",0.6,0.5,0.4,0.0149591687603388,"true"
"image-keyboard-response",478,603921,"0.0-4.155-1.155","xzxfyn7j6tjenh6",376,"98.csv","","null","resources/maskTrios/BBA3.jpg","null","",NA,NA,NA,NA,""
"image-keyboard-response",479,605134,"0.0-4.155-2.155","xzxfyn7j6tjenh6",376,"98.csv","","null","resources/images/coin2.png","null","",NA,NA,NA,NA,""
"image-keyboard-response",480,606149,"0.0-4.156-0.156","xzxfyn7j6tjenh6",376,"98.csv","","1012","resources/trios/L4T2A3.jpg","38","restless",0.6,0.5,0.4,0.909512300782085,"false"
"image-keyboard-response",481,606565,"0.0-4.156-1.156","xzxfyn7j6tjenh6",376,"98.csv","","null","resources/maskTrios/BT2B.jpg","null","",NA,NA,NA,NA,""
"image-keyboard-response",482,607777,"0.0-4.156-2.156","xzxfyn7j6tjenh6",376,"98.csv","","null","resources/images/fishbone.png","null","",NA,NA,NA,NA,""
"image-keyboard-response",483,608140,"0.0-4.157-0.157","xzxfyn7j6tjenh6",376,"98.csv","","361","resources/trios/L4T2A3.jpg","37","restless",0.6,0.5,0.4,0.215204776690707,"true"
"image-keyboard-response",484,608558,"0.0-4.157-1.157","xzxfyn7j6tjenh6",376,"98.csv","","null","resources/maskTrios/L4BB.jpg","null","",NA,NA,NA,NA,""
"image-keyboard-response",485,609773,"0.0-4.157-2.157","xzxfyn7j6tjenh6",376,"98.csv","","null","resources/images/coin2.png","null","",NA,NA,NA,NA,""
"image-keyboard-response",486,610645,"0.0-4.158-0.158","xzxfyn7j6tjenh6",376,"98.csv","","870","resources/trios/L4T2A3.jpg","39","restless",0.6,0.5,0.4,0.21248817502982,"true"
"image-keyboard-response",487,611054,"0.0-4.158-1.158","xzxfyn7j6tjenh6",376,"98.csv","","null","resources/maskTrios/BBA3.jpg","null","",NA,NA,NA,NA,""
"image-keyboard-response",488,612267,"0.0-4.158-2.158","xzxfyn7j6tjenh6",376,"98.csv","","null","resources/images/coin2.png","null","",NA,NA,NA,NA,""
"image-keyboard-response",489,613124,"0.0-4.159-0.159","xzxfyn7j6tjenh6",376,"98.csv","","855","resources/trios/L4T2A3.jpg","37","restless",0.6,0.5,0.4,0.838855901670791,"false"
"image-keyboard-response",490,613532,"0.0-4.159-1.159","xzxfyn7j6tjenh6",376,"98.csv","","null","resources/maskTrios/L4BB.jpg","null","",NA,NA,NA,NA,""
"image-keyboard-response",491,614746,"0.0-4.159-2.159","xzxfyn7j6tjenh6",376,"98.csv","","null","resources/images/fishbone.png","null","",NA,NA,NA,NA,""
"image-keyboard-response",492,615605,"0.0-4.160-0.160","xzxfyn7j6tjenh6",376,"98.csv","","856","resources/trios/L4T2A3.jpg","39","restless",0.6,0.5,0.4,0.519123530127434,"false"
"image-keyboard-response",493,616011,"0.0-4.160-1.160","xzxfyn7j6tjenh6",376,"98.csv","","null","resources/maskTrios/BBA3.jpg","null","",NA,NA,NA,NA,""
"image-keyboard-response",494,617221,"0.0-4.160-2.160","xzxfyn7j6tjenh6",376,"98.csv","","null","resources/images/fishbone.png","null","",NA,NA,NA,NA,""
"image-keyboard-response",495,619837,"0.0-4.161-0.161","xzxfyn7j6tjenh6",376,"98.csv","","2614","resources/trios/L4T2A3.jpg","37","restless",0.6,0.5,0.4,0.712218433050747,"false"
"image-keyboard-response",496,620263,"0.0-4.161-1.161","xzxfyn7j6tjenh6",376,"98.csv","","null","resources/maskTrios/L4BB.jpg","null","",NA,NA,NA,NA,""
"image-keyboard-response",497,621479,"0.0-4.161-2.161","xzxfyn7j6tjenh6",376,"98.csv","","null","resources/images/fishbone.png","null","",NA,NA,NA,NA,""
"image-keyboard-response",498,624925,"0.0-4.162-0.162","xzxfyn7j6tjenh6",376,"98.csv","","3443","resources/trios/L4T2A3.jpg","39","restless",0.6,0.5,0.4,0.583108163856498,"false"
"image-keyboard-response",499,625354,"0.0-4.162-1.162","xzxfyn7j6tjenh6",376,"98.csv","","null","resources/maskTrios/BBA3.jpg","null","",NA,NA,NA,NA,""
"image-keyboard-response",500,626567,"0.0-4.162-2.162","xzxfyn7j6tjenh6",376,"98.csv","","null","resources/images/fishbone.png","null","",NA,NA,NA,NA,""
"image-keyboard-response",501,627324,"0.0-4.163-0.163","xzxfyn7j6tjenh6",376,"98.csv","","756","resources/trios/L4T2A3.jpg","38","restless",0.6,0.5,0.5,0.783396904797903,"false"
"image-keyboard-response",502,627733,"0.0-4.163-1.163","xzxfyn7j6tjenh6",376,"98.csv","","null","resources/maskTrios/BT2B.jpg","null","",NA,NA,NA,NA,""
"image-keyboard-response",503,628947,"0.0-4.163-2.163","xzxfyn7j6tjenh6",376,"98.csv","","null","resources/images/fishbone.png","null","",NA,NA,NA,NA,""
"image-keyboard-response",504,629204,"0.0-4.164-0.164","xzxfyn7j6tjenh6",376,"98.csv","","256","resources/trios/L4T2A3.jpg","39","restless",0.6,0.5,0.5,0.283789307050173,"true"
"image-keyboard-response",505,629612,"0.0-4.164-1.164","xzxfyn7j6tjenh6",376,"98.csv","","null","resources/maskTrios/BBA3.jpg","null","",NA,NA,NA,NA,""
"image-keyboard-response",506,630823,"0.0-4.164-2.164","xzxfyn7j6tjenh6",376,"98.csv","","null","resources/images/coin2.png","null","",NA,NA,NA,NA,""
"image-keyboard-response",507,631803,"0.0-4.165-0.165","xzxfyn7j6tjenh6",376,"98.csv","","977","resources/trios/L4T2A3.jpg","37","restless",0.6,0.4,0.5,0.404257549005496,"true"
"image-keyboard-response",508,632206,"0.0-4.165-1.165","xzxfyn7j6tjenh6",376,"98.csv","","null","resources/maskTrios/L4BB.jpg","null","",NA,NA,NA,NA,""
"image-keyboard-response",509,633419,"0.0-4.165-2.165","xzxfyn7j6tjenh6",376,"98.csv","","null","resources/images/coin2.png","null","",NA,NA,NA,NA,""
"image-keyboard-response",510,633588,"0.0-4.166-0.166","xzxfyn7j6tjenh6",376,"98.csv","","166","resources/trios/L4T2A3.jpg","38","restless",0.6,0.4,0.5,0.922132518643673,"false"
"image-keyboard-response",511,634001,"0.0-4.166-1.166","xzxfyn7j6tjenh6",376,"98.csv","","null","resources/maskTrios/BT2B.jpg","null","",NA,NA,NA,NA,""
"image-keyboard-response",512,635215,"0.0-4.166-2.166","xzxfyn7j6tjenh6",376,"98.csv","","null","resources/images/fishbone.png","null","",NA,NA,NA,NA,""
"image-keyboard-response",513,636196,"0.0-4.167-0.167","xzxfyn7j6tjenh6",376,"98.csv","","980","resources/trios/L4T2A3.jpg","37","restless",0.6,0.4,0.5,0.184882198627818,"true"
"image-keyboard-response",514,636612,"0.0-4.167-1.167","xzxfyn7j6tjenh6",376,"98.csv","","null","resources/maskTrios/L4BB.jpg","null","",NA,NA,NA,NA,""
"image-keyboard-response",515,637825,"0.0-4.167-2.167","xzxfyn7j6tjenh6",376,"98.csv","","null","resources/images/coin2.png","null","",NA,NA,NA,NA,""
"image-keyboard-response",516,638757,"0.0-4.168-0.168","xzxfyn7j6tjenh6",376,"98.csv","","929","resources/trios/L4T2A3.jpg","39","restless",0.6,0.4,0.5,0.392958215455778,"true"
"image-keyboard-response",517,639169,"0.0-4.168-1.168","xzxfyn7j6tjenh6",376,"98.csv","","null","resources/maskTrios/BBA3.jpg","null","",NA,NA,NA,NA,""
"image-keyboard-response",518,640371,"0.0-4.168-2.168","xzxfyn7j6tjenh6",376,"98.csv","","null","resources/images/coin2.png","null","",NA,NA,NA,NA,""
"image-keyboard-response",519,643900,"0.0-4.169-0.169","xzxfyn7j6tjenh6",376,"98.csv","","3526","resources/trios/L4T2A3.jpg","37","restless",0.5,0.4,0.5,0.83073125496227,"false"
"image-keyboard-response",520,644310,"0.0-4.169-1.169","xzxfyn7j6tjenh6",376,"98.csv","","null","resources/maskTrios/L4BB.jpg","null","",NA,NA,NA,NA,""
"image-keyboard-response",521,645528,"0.0-4.169-2.169","xzxfyn7j6tjenh6",376,"98.csv","","null","resources/images/fishbone.png","null","",NA,NA,NA,NA,""
"image-keyboard-response",522,646364,"0.0-4.170-0.170","xzxfyn7j6tjenh6",376,"98.csv","","836","resources/trios/L4T2A3.jpg","39","restless",0.5,0.4,0.6,0.0615689441939291,"true"
"image-keyboard-response",523,646772,"0.0-4.170-1.170","xzxfyn7j6tjenh6",376,"98.csv","","null","resources/maskTrios/BBA3.jpg","null","",NA,NA,NA,NA,""
"image-keyboard-response",524,647983,"0.0-4.170-2.170","xzxfyn7j6tjenh6",376,"98.csv","","null","resources/images/coin2.png","null","",NA,NA,NA,NA,""
"image-keyboard-response",525,648075,"0.0-4.171-0.171","xzxfyn7j6tjenh6",376,"98.csv","","91","resources/trios/L4T2A3.jpg","38","restless",0.5,0.4,0.6,0.971049071095912,"false"
"image-keyboard-response",526,648484,"0.0-4.171-1.171","xzxfyn7j6tjenh6",376,"98.csv","","null","resources/maskTrios/BT2B.jpg","null","",NA,NA,NA,NA,""
"image-keyboard-response",527,649695,"0.0-4.171-2.171","xzxfyn7j6tjenh6",376,"98.csv","","null","resources/images/fishbone.png","null","",NA,NA,NA,NA,""
"image-keyboard-response",528,651259,"0.0-4.172-0.172","xzxfyn7j6tjenh6",376,"98.csv","","1562","resources/trios/L4T2A3.jpg","39","restless",0.5,0.5,0.6,0.190021510645114,"true"
"image-keyboard-response",529,651676,"0.0-4.172-1.172","xzxfyn7j6tjenh6",376,"98.csv","","null","resources/maskTrios/BBA3.jpg","null","",NA,NA,NA,NA,""
"image-keyboard-response",530,652889,"0.0-4.172-2.172","xzxfyn7j6tjenh6",376,"98.csv","","null","resources/images/coin2.png","null","",NA,NA,NA,NA,""
"image-keyboard-response",531,653168,"0.0-4.173-0.173","xzxfyn7j6tjenh6",376,"98.csv","","288","resources/trios/L4T2A3.jpg","38","restless",0.5,0.5,0.6,0.124336782979116,"true"
"image-keyboard-response",532,653577,"0.0-4.173-1.173","xzxfyn7j6tjenh6",376,"98.csv","","null","resources/maskTrios/BT2B.jpg","null","",NA,NA,NA,NA,""
"image-keyboard-response",533,654789,"0.0-4.173-2.173","xzxfyn7j6tjenh6",376,"98.csv","","null","resources/images/coin2.png","null","",NA,NA,NA,NA,""
"image-keyboard-response",534,658928,"0.0-4.174-0.174","xzxfyn7j6tjenh6",376,"98.csv","","4137","resources/trios/L4T2A3.jpg","39","restless",0.5,0.5,0.6,0.485816568594877,"true"
"image-keyboard-response",535,659332,"0.0-4.174-1.174","xzxfyn7j6tjenh6",376,"98.csv","","null","resources/maskTrios/BBA3.jpg","null","",NA,NA,NA,NA,""
"image-keyboard-response",536,660543,"0.0-4.174-2.174","xzxfyn7j6tjenh6",376,"98.csv","","null","resources/images/coin2.png","null","",NA,NA,NA,NA,""
"image-keyboard-response",537,660984,"0.0-4.175-0.175","xzxfyn7j6tjenh6",376,"98.csv","","439","resources/trios/L4T2A3.jpg","38","restless",0.4,0.5,0.6,0.961380606844957,"false"
"image-keyboard-response",538,661392,"0.0-4.175-1.175","xzxfyn7j6tjenh6",376,"98.csv","","null","resources/maskTrios/BT2B.jpg","null","",NA,NA,NA,NA,""
"image-keyboard-response",539,662605,"0.0-4.175-2.175","xzxfyn7j6tjenh6",376,"98.csv","","null","resources/images/fishbone.png","null","",NA,NA,NA,NA,""
"image-keyboard-response",540,663224,"0.0-4.176-0.176","xzxfyn7j6tjenh6",376,"98.csv","","618","resources/trios/L4T2A3.jpg","37","restless",0.4,0.5,0.6,0.467319013193543,"false"
"image-keyboard-response",541,663637,"0.0-4.176-1.176","xzxfyn7j6tjenh6",376,"98.csv","","null","resources/maskTrios/L4BB.jpg","null","",NA,NA,NA,NA,""
"image-keyboard-response",542,664850,"0.0-4.176-2.176","xzxfyn7j6tjenh6",376,"98.csv","","null","resources/images/fishbone.png","null","",NA,NA,NA,NA,""
"image-keyboard-response",543,667145,"0.0-4.177-0.177","xzxfyn7j6tjenh6",376,"98.csv","","2293","resources/trios/L4T2A3.jpg","39","restless",0.4,0.5,0.6,0.175833741812621,"true"
"image-keyboard-response",544,667562,"0.0-4.177-1.177","xzxfyn7j6tjenh6",376,"98.csv","","null","resources/maskTrios/BBA3.jpg","null","",NA,NA,NA,NA,""
"image-keyboard-response",545,668773,"0.0-4.177-2.177","xzxfyn7j6tjenh6",376,"98.csv","","null","resources/images/coin2.png","null","",NA,NA,NA,NA,""
"image-keyboard-response",546,669288,"0.0-4.178-0.178","xzxfyn7j6tjenh6",376,"98.csv","","513","resources/trios/L4T2A3.jpg","39","restless",0.4,0.5,0.6,0.606362003628078,"false"
"image-keyboard-response",547,669706,"0.0-4.178-1.178","xzxfyn7j6tjenh6",376,"98.csv","","null","resources/maskTrios/BBA3.jpg","null","",NA,NA,NA,NA,""
"image-keyboard-response",548,670919,"0.0-4.178-2.178","xzxfyn7j6tjenh6",376,"98.csv","","null","resources/images/fishbone.png","null","",NA,NA,NA,NA,""
"image-keyboard-response",549,671512,"0.0-4.179-0.179","xzxfyn7j6tjenh6",376,"98.csv","","590","resources/trios/L4T2A3.jpg","38","restless",0.4,0.5,0.6,0.442521344399327,"true"
"image-keyboard-response",550,671918,"0.0-4.179-1.179","xzxfyn7j6tjenh6",376,"98.csv","","null","resources/maskTrios/BT2B.jpg","null","",NA,NA,NA,NA,""
"image-keyboard-response",551,673130,"0.0-4.179-2.179","xzxfyn7j6tjenh6",376,"98.csv","","null","resources/images/coin2.png","null","",NA,NA,NA,NA,""
"image-keyboard-response",552,673217,"0.0-4.180-0.180","xzxfyn7j6tjenh6",376,"98.csv","","84","resources/trios/L4T2A3.jpg","39","restless",0.4,0.5,0.6,0.0617867918711106,"true"
"image-keyboard-response",553,673630,"0.0-4.180-1.180","xzxfyn7j6tjenh6",376,"98.csv","","null","resources/maskTrios/BBA3.jpg","null","",NA,NA,NA,NA,""
"image-keyboard-response",554,674844,"0.0-4.180-2.180","xzxfyn7j6tjenh6",376,"98.csv","","null","resources/images/coin2.png","null","",NA,NA,NA,NA,""
"image-keyboard-response",555,675088,"0.0-4.181-0.181","xzxfyn7j6tjenh6",376,"98.csv","","241","resources/trios/L4T2A3.jpg","38","restless",0.4,0.5,0.6,0.769639059590501,"false"
"image-keyboard-response",556,675493,"0.0-4.181-1.181","xzxfyn7j6tjenh6",376,"98.csv","","null","resources/maskTrios/BT2B.jpg","null","",NA,NA,NA,NA,""
"image-keyboard-response",557,676705,"0.0-4.181-2.181","xzxfyn7j6tjenh6",376,"98.csv","","null","resources/images/fishbone.png","null","",NA,NA,NA,NA,""
"image-keyboard-response",558,676848,"0.0-4.182-0.182","xzxfyn7j6tjenh6",376,"98.csv","","141","resources/trios/L4T2A3.jpg","39","restless",0.4,0.5,0.6,0.250241796824955,"true"
"image-keyboard-response",559,677257,"0.0-4.182-1.182","xzxfyn7j6tjenh6",376,"98.csv","","null","resources/maskTrios/BBA3.jpg","null","",NA,NA,NA,NA,""
"image-keyboard-response",560,678468,"0.0-4.182-2.182","xzxfyn7j6tjenh6",376,"98.csv","","null","resources/images/coin2.png","null","",NA,NA,NA,NA,""
"image-keyboard-response",561,679050,"0.0-4.183-0.183","xzxfyn7j6tjenh6",376,"98.csv","","579","resources/trios/L4T2A3.jpg","39","restless",0.4,0.5,0.6,0.0738148705566739,"true"
"image-keyboard-response",562,679468,"0.0-4.183-1.183","xzxfyn7j6tjenh6",376,"98.csv","","null","resources/maskTrios/BBA3.jpg","null","",NA,NA,NA,NA,""
"image-keyboard-response",563,680680,"0.0-4.183-2.183","xzxfyn7j6tjenh6",376,"98.csv","","null","resources/images/coin2.png","null","",NA,NA,NA,NA,""
"image-keyboard-response",564,680865,"0.0-4.184-0.184","xzxfyn7j6tjenh6",376,"98.csv","","182","resources/trios/L4T2A3.jpg","39","restless",0.4,0.5,0.6,0.0707500074363843,"true"
"image-keyboard-response",565,681280,"0.0-4.184-1.184","xzxfyn7j6tjenh6",376,"98.csv","","null","resources/maskTrios/BBA3.jpg","null","",NA,NA,NA,NA,""
"image-keyboard-response",566,682493,"0.0-4.184-2.184","xzxfyn7j6tjenh6",376,"98.csv","","null","resources/images/coin2.png","null","",NA,NA,NA,NA,""
"image-keyboard-response",567,682534,"0.0-4.185-0.185","xzxfyn7j6tjenh6",376,"98.csv","","39","resources/trios/L4T2A3.jpg","39","restless",0.4,0.5,0.6,0.65118803262652,"false"
"image-keyboard-response",568,682946,"0.0-4.185-1.185","xzxfyn7j6tjenh6",376,"98.csv","","null","resources/maskTrios/BBA3.jpg","null","",NA,NA,NA,NA,""
"image-keyboard-response",569,684157,"0.0-4.185-2.185","xzxfyn7j6tjenh6",376,"98.csv","","null","resources/images/fishbone.png","null","",NA,NA,NA,NA,""
"image-keyboard-response",570,685225,"0.0-4.186-0.186","xzxfyn7j6tjenh6",376,"98.csv","","1067","resources/trios/L4T2A3.jpg","37","restless",0.4,0.4,0.6,0.887561323072595,"false"
"image-keyboard-response",571,685637,"0.0-4.186-1.186","xzxfyn7j6tjenh6",376,"98.csv","","null","resources/maskTrios/L4BB.jpg","null","",NA,NA,NA,NA,""
"image-keyboard-response",572,686850,"0.0-4.186-2.186","xzxfyn7j6tjenh6",376,"98.csv","","null","resources/images/fishbone.png","null","",NA,NA,NA,NA,""
"image-keyboard-response",573,687897,"0.0-4.187-0.187","xzxfyn7j6tjenh6",376,"98.csv","","1046","resources/trios/L4T2A3.jpg","38","restless",0.4,0.4,0.6,0.323429641153777,"true"
"image-keyboard-response",574,688313,"0.0-4.187-1.187","xzxfyn7j6tjenh6",376,"98.csv","","null","resources/maskTrios/BT2B.jpg","null","",NA,NA,NA,NA,""
"image-keyboard-response",575,689526,"0.0-4.187-2.187","xzxfyn7j6tjenh6",376,"98.csv","","null","resources/images/coin2.png","null","",NA,NA,NA,NA,""
"image-keyboard-response",576,690345,"0.0-4.188-0.188","xzxfyn7j6tjenh6",376,"98.csv","","817","resources/trios/L4T2A3.jpg","38","restless",0.4,0.4,0.6,0.609809794185074,"false"
"image-keyboard-response",577,690772,"0.0-4.188-1.188","xzxfyn7j6tjenh6",376,"98.csv","","null","resources/maskTrios/BT2B.jpg","null","",NA,NA,NA,NA,""
"image-keyboard-response",578,691986,"0.0-4.188-2.188","xzxfyn7j6tjenh6",376,"98.csv","","null","resources/images/fishbone.png","null","",NA,NA,NA,NA,""
"image-keyboard-response",579,692354,"0.0-4.189-0.189","xzxfyn7j6tjenh6",376,"98.csv","","365","resources/trios/L4T2A3.jpg","39","restless",0.4,0.4,0.5,0.971394268924031,"false"
"image-keyboard-response",580,692768,"0.0-4.189-1.189","xzxfyn7j6tjenh6",376,"98.csv","","null","resources/maskTrios/BBA3.jpg","null","",NA,NA,NA,NA,""
"image-keyboard-response",581,693981,"0.0-4.189-2.189","xzxfyn7j6tjenh6",376,"98.csv","","null","resources/images/fishbone.png","null","",NA,NA,NA,NA,""
"image-keyboard-response",582,694521,"0.0-4.190-0.190","xzxfyn7j6tjenh6",376,"98.csv","","536","resources/trios/L4T2A3.jpg","39","restless",0.4,0.4,0.4,0.372915461587213,"true"
"image-keyboard-response",583,694944,"0.0-4.190-1.190","xzxfyn7j6tjenh6",376,"98.csv","","null","resources/maskTrios/BBA3.jpg","null","",NA,NA,NA,NA,""
"image-keyboard-response",584,696160,"0.0-4.190-2.190","xzxfyn7j6tjenh6",376,"98.csv","","null","resources/images/coin2.png","null","",NA,NA,NA,NA,""
"image-keyboard-response",585,696841,"0.0-4.191-0.191","xzxfyn7j6tjenh6",376,"98.csv","","679","resources/trios/L4T2A3.jpg","39","restless",0.4,0.4,0.4,0.474018579645398,"false"
"image-keyboard-response",586,697246,"0.0-4.191-1.191","xzxfyn7j6tjenh6",376,"98.csv","","null","resources/maskTrios/BBA3.jpg","null","",NA,NA,NA,NA,""
"image-keyboard-response",587,698458,"0.0-4.191-2.191","xzxfyn7j6tjenh6",376,"98.csv","","null","resources/images/fishbone.png","null","",NA,NA,NA,NA,""
"image-keyboard-response",588,698913,"0.0-4.192-0.192","xzxfyn7j6tjenh6",376,"98.csv","","453","resources/trios/L4T2A3.jpg","37","restless",0.4,0.3,0.4,0.240083851058676,"true"
"image-keyboard-response",589,699322,"0.0-4.192-1.192","xzxfyn7j6tjenh6",376,"98.csv","","null","resources/maskTrios/L4BB.jpg","null","",NA,NA,NA,NA,""
"image-keyboard-response",590,700536,"0.0-4.192-2.192","xzxfyn7j6tjenh6",376,"98.csv","","null","resources/images/coin2.png","null","",NA,NA,NA,NA,""
"image-keyboard-response",591,700873,"0.0-4.193-0.193","xzxfyn7j6tjenh6",376,"98.csv","","334","resources/trios/L4T2A3.jpg","37","restless",0.4,0.3,0.4,0.322667220448285,"true"
"image-keyboard-response",592,701285,"0.0-4.193-1.193","xzxfyn7j6tjenh6",376,"98.csv","","null","resources/maskTrios/L4BB.jpg","null","",NA,NA,NA,NA,""
"image-keyboard-response",593,702496,"0.0-4.193-2.193","xzxfyn7j6tjenh6",376,"98.csv","","null","resources/images/coin2.png","null","",NA,NA,NA,NA,""
"image-keyboard-response",594,703273,"0.0-4.194-0.194","xzxfyn7j6tjenh6",376,"98.csv","","774","resources/trios/L4T2A3.jpg","37","restless",0.4,0.3,0.4,0.385466509495328,"true"
"image-keyboard-response",595,703678,"0.0-4.194-1.194","xzxfyn7j6tjenh6",376,"98.csv","","null","resources/maskTrios/L4BB.jpg","null","",NA,NA,NA,NA,""
"image-keyboard-response",596,704891,"0.0-4.194-2.194","xzxfyn7j6tjenh6",376,"98.csv","","null","resources/images/coin2.png","null","",NA,NA,NA,NA,""
"image-keyboard-response",597,705360,"0.0-4.195-0.195","xzxfyn7j6tjenh6",376,"98.csv","","468","resources/trios/L4T2A3.jpg","37","restless",0.4,0.4,0.4,0.556986960734827,"false"
"image-keyboard-response",598,705774,"0.0-4.195-1.195","xzxfyn7j6tjenh6",376,"98.csv","","null","resources/maskTrios/L4BB.jpg","null","",NA,NA,NA,NA,""
"image-keyboard-response",599,706987,"0.0-4.195-2.195","xzxfyn7j6tjenh6",376,"98.csv","","null","resources/images/fishbone.png","null","",NA,NA,NA,NA,""
"image-keyboard-response",600,707392,"0.0-4.196-0.196","xzxfyn7j6tjenh6",376,"98.csv","","403","resources/trios/L4T2A3.jpg","39","restless",0.4,0.4,0.4,0.324740222706877,"true"
"image-keyboard-response",601,707803,"0.0-4.196-1.196","xzxfyn7j6tjenh6",376,"98.csv","","null","resources/maskTrios/BBA3.jpg","null","",NA,NA,NA,NA,""
"image-keyboard-response",602,709016,"0.0-4.196-2.196","xzxfyn7j6tjenh6",376,"98.csv","","null","resources/images/coin2.png","null","",NA,NA,NA,NA,""
"image-keyboard-response",603,709329,"0.0-4.197-0.197","xzxfyn7j6tjenh6",376,"98.csv","","311","resources/trios/L4T2A3.jpg","38","restless",0.4,0.4,0.3,0.541374663622784,"false"
"image-keyboard-response",604,709747,"0.0-4.197-1.197","xzxfyn7j6tjenh6",376,"98.csv","","null","resources/maskTrios/BT2B.jpg","null","",NA,NA,NA,NA,""
"image-keyboard-response",605,710961,"0.0-4.197-2.197","xzxfyn7j6tjenh6",376,"98.csv","","null","resources/images/fishbone.png","null","",NA,NA,NA,NA,""
"image-keyboard-response",606,711378,"0.0-4.198-0.198","xzxfyn7j6tjenh6",376,"98.csv","","415","resources/trios/L4T2A3.jpg","39","restless",0.4,0.4,0.3,0.694170707060132,"false"
"image-keyboard-response",607,711793,"0.0-4.198-1.198","xzxfyn7j6tjenh6",376,"98.csv","","null","resources/maskTrios/BBA3.jpg","null","",NA,NA,NA,NA,""
"image-keyboard-response",608,713007,"0.0-4.198-2.198","xzxfyn7j6tjenh6",376,"98.csv","","null","resources/images/fishbone.png","null","",NA,NA,NA,NA,""
"image-keyboard-response",609,713329,"0.0-4.199-0.199","xzxfyn7j6tjenh6",376,"98.csv","","318","resources/trios/L4T2A3.jpg","39","restless",0.4,0.4,0.3,0.580422875644104,"false"
"image-keyboard-response",610,713742,"0.0-4.199-1.199","xzxfyn7j6tjenh6",376,"98.csv","","null","resources/maskTrios/BBA3.jpg","null","",NA,NA,NA,NA,""
"image-keyboard-response",611,714952,"0.0-4.199-2.199","xzxfyn7j6tjenh6",376,"98.csv","","null","resources/images/fishbone.png","null","",NA,NA,NA,NA,""
"survey-text",612,847782,"0.0-5.0","xzxfyn7j6tjenh6",376,"98.csv","","132740","","","",NA,NA,NA,NA,""
