"trial_type","trial_index","time_elapsed","internal_node_id","subject","participantCode","walkNumber","success","rt","stimulus","key_press","test_part","leftProb","midProb","rightProb","generatedNum","correct"
"pavlovia",0,1095,"0.0-0.0","46d0uard7gtt24q",628,"91.csv","","","","","",NA,NA,NA,NA,""
"fullscreen",1,3904,"0.0-1.0","46d0uard7gtt24q",628,"91.csv","true","","","","",NA,NA,NA,NA,""
"survey-html-form",2,17422,"0.0-2.0","46d0uard7gtt24q",628,"91.csv","","13517.099999999627","","","",NA,NA,NA,NA,""
"image-keyboard-response",3,28775,"0.0-3.0-0.0","46d0uard7gtt24q",628,"91.csv","","11351.600000000093","resources/images/parrot_nobg.png","13","",NA,NA,NA,NA,""
"image-keyboard-response",4,31777,"0.0-3.0-1.0","46d0uard7gtt24q",628,"91.csv","","null","resources/image_sets/111.png","null","",NA,NA,NA,NA,""
"image-keyboard-response",5,37574,"0.0-3.0-2.0","46d0uard7gtt24q",628,"91.csv","","5796.700000000186","resources/image_sets/left_highlight.png","37","",NA,NA,NA,NA,""
"image-keyboard-response",6,39334,"0.0-3.0-3.0","46d0uard7gtt24q",628,"91.csv","","1759.1999999997206","resources/image_sets/mid_highlight.png","38","",NA,NA,NA,NA,""
"image-keyboard-response",7,40070,"0.0-3.0-4.0","46d0uard7gtt24q",628,"91.csv","","735.5","resources/image_sets/right_highlight.png","39","",NA,NA,NA,NA,""
"image-keyboard-response",8,68318,"0.0-3.0-5.0","46d0uard7gtt24q",628,"91.csv","","28247.5","resources/image_sets/111.png","13","",NA,NA,NA,NA,""
"image-keyboard-response",9,70078,"0.0-3.0-6.0","46d0uard7gtt24q",628,"91.csv","","1759.6000000000931","resources/images/coin2.png","13","",NA,NA,NA,NA,""
"image-keyboard-response",10,71189,"0.0-3.0-7.0","46d0uard7gtt24q",628,"91.csv","","1110.7000000001863","resources/images/fishbone.png","13","",NA,NA,NA,NA,""
"html-keyboard-response",11,72837,"0.0-3.0-8.0","46d0uard7gtt24q",628,"91.csv","","1647.5","<p>You can track your coin total on the top right of your screen. </p><p>At the end of your journey you will be directed to a survey, so please click on the link before exiting the task</p><p>Press Enter to begin</p>","13","",NA,NA,NA,NA,""
"image-keyboard-response",12,74086,"0.0-4.0-0.0","46d0uard7gtt24q",628,"91.csv","","1247.3999999999069","resources/trios/L1T4A2.jpg","39","restless",0.7,0.9,0.3,0.0847793174308691,"true"
"image-keyboard-response",13,74492,"0.0-4.0-1.0","46d0uard7gtt24q",628,"91.csv","","null","resources/maskTrios/BBA2.jpg","null","",NA,NA,NA,NA,""
"image-keyboard-response",14,75696,"0.0-4.0-2.0","46d0uard7gtt24q",628,"91.csv","","null","resources/images/coin2.png","null","",NA,NA,NA,NA,""
"image-keyboard-response",15,76046,"0.0-4.1-0.1","46d0uard7gtt24q",628,"91.csv","","348.39999999990687","resources/trios/L1T4A2.jpg","39","restless",0.7,0.9,0.4,0.396833071552427,"true"
"image-keyboard-response",16,76457,"0.0-4.1-1.1","46d0uard7gtt24q",628,"91.csv","","null","resources/maskTrios/BBA2.jpg","null","",NA,NA,NA,NA,""
"image-keyboard-response",17,77664,"0.0-4.1-2.1","46d0uard7gtt24q",628,"91.csv","","null","resources/images/coin2.png","null","",NA,NA,NA,NA,""
"image-keyboard-response",18,77965,"0.0-4.2-0.2","46d0uard7gtt24q",628,"91.csv","","300.60000000009313","resources/trios/L1T4A2.jpg","38","restless",0.7,0.9,0.4,0.974379744980403,"false"
"image-keyboard-response",19,78375,"0.0-4.2-1.2","46d0uard7gtt24q",628,"91.csv","","null","resources/maskTrios/BT4B.jpg","null","",NA,NA,NA,NA,""
"image-keyboard-response",20,79581,"0.0-4.2-2.2","46d0uard7gtt24q",628,"91.csv","","null","resources/images/fishbone.png","null","",NA,NA,NA,NA,""
"image-keyboard-response",21,79741,"0.0-4.3-0.3","46d0uard7gtt24q",628,"91.csv","","159.5","resources/trios/L1T4A2.jpg","39","restless",0.7,0.9,0.4,0.279804734408867,"true"
"image-keyboard-response",22,80147,"0.0-4.3-1.3","46d0uard7gtt24q",628,"91.csv","","null","resources/maskTrios/BBA2.jpg","null","",NA,NA,NA,NA,""
"image-keyboard-response",23,81356,"0.0-4.3-2.3","46d0uard7gtt24q",628,"91.csv","","null","resources/images/coin2.png","null","",NA,NA,NA,NA,""
"image-keyboard-response",24,81573,"0.0-4.4-0.4","46d0uard7gtt24q",628,"91.csv","","217.1999999997206","resources/trios/L1T4A2.jpg","39","restless",0.7,0.9,0.4,0.100639252184163,"true"
"image-keyboard-response",25,81976,"0.0-4.4-1.4","46d0uard7gtt24q",628,"91.csv","","null","resources/maskTrios/BBA2.jpg","null","",NA,NA,NA,NA,""
"image-keyboard-response",26,83190,"0.0-4.4-2.4","46d0uard7gtt24q",628,"91.csv","","null","resources/images/coin2.png","null","",NA,NA,NA,NA,""
"image-keyboard-response",27,83325,"0.0-4.5-0.5","46d0uard7gtt24q",628,"91.csv","","134.29999999981374","resources/trios/L1T4A2.jpg","39","restless",0.7,0.9,0.4,0.950488422568216,"false"
"image-keyboard-response",28,83728,"0.0-4.5-1.5","46d0uard7gtt24q",628,"91.csv","","null","resources/maskTrios/BBA2.jpg","null","",NA,NA,NA,NA,""
"image-keyboard-response",29,84937,"0.0-4.5-2.5","46d0uard7gtt24q",628,"91.csv","","null","resources/images/fishbone.png","null","",NA,NA,NA,NA,""
"image-keyboard-response",30,85110,"0.0-4.6-0.6","46d0uard7gtt24q",628,"91.csv","","172.29999999981374","resources/trios/L1T4A2.jpg","37","restless",0.7,0.9,0.4,0.0280958971426324,"true"
"image-keyboard-response",31,85519,"0.0-4.6-1.6","46d0uard7gtt24q",628,"91.csv","","null","resources/maskTrios/L1BB.jpg","null","",NA,NA,NA,NA,""
"image-keyboard-response",32,86727,"0.0-4.6-2.6","46d0uard7gtt24q",628,"91.csv","","null","resources/images/coin2.png","null","",NA,NA,NA,NA,""
"image-keyboard-response",33,86877,"0.0-4.7-0.7","46d0uard7gtt24q",628,"91.csv","","149.20000000018626","resources/trios/L1T4A2.jpg","39","restless",0.7,0.9,0.4,0.533441739879041,"false"
"image-keyboard-response",34,87280,"0.0-4.7-1.7","46d0uard7gtt24q",628,"91.csv","","null","resources/maskTrios/BBA2.jpg","null","",NA,NA,NA,NA,""
"image-keyboard-response",35,88485,"0.0-4.7-2.7","46d0uard7gtt24q",628,"91.csv","","null","resources/images/fishbone.png","null","",NA,NA,NA,NA,""
"image-keyboard-response",36,88565,"0.0-4.8-0.8","46d0uard7gtt24q",628,"91.csv","","79.5","resources/trios/L1T4A2.jpg","37","restless",0.7,0.9,0.4,0.639532067059587,"true"
"image-keyboard-response",37,88972,"0.0-4.8-1.8","46d0uard7gtt24q",628,"91.csv","","null","resources/maskTrios/L1BB.jpg","null","",NA,NA,NA,NA,""
"image-keyboard-response",38,90175,"0.0-4.8-2.8","46d0uard7gtt24q",628,"91.csv","","null","resources/images/coin2.png","null","",NA,NA,NA,NA,""
"image-keyboard-response",39,90205,"0.0-4.9-0.9","46d0uard7gtt24q",628,"91.csv","","29.800000000279397","resources/trios/L1T4A2.jpg","37","restless",0.7,0.9,0.4,0.202379362712306,"true"
"image-keyboard-response",40,90622,"0.0-4.9-1.9","46d0uard7gtt24q",628,"91.csv","","null","resources/maskTrios/L1BB.jpg","null","",NA,NA,NA,NA,""
"image-keyboard-response",41,91838,"0.0-4.9-2.9","46d0uard7gtt24q",628,"91.csv","","null","resources/images/coin2.png","null","",NA,NA,NA,NA,""
"image-keyboard-response",42,91861,"0.0-4.10-0.10","46d0uard7gtt24q",628,"91.csv","","22.5","resources/trios/L1T4A2.jpg","37","restless",0.8,0.9,0.4,0.341837231556958,"true"
"image-keyboard-response",43,92266,"0.0-4.10-1.10","46d0uard7gtt24q",628,"91.csv","","null","resources/maskTrios/L1BB.jpg","null","",NA,NA,NA,NA,""
"image-keyboard-response",44,93471,"0.0-4.10-2.10","46d0uard7gtt24q",628,"91.csv","","null","resources/images/coin2.png","null","",NA,NA,NA,NA,""
"image-keyboard-response",45,93789,"0.0-4.11-0.11","46d0uard7gtt24q",628,"91.csv","","317.79999999981374","resources/trios/L1T4A2.jpg","37","restless",0.8,0.9,0.4,0.465305050934131,"true"
"image-keyboard-response",46,94199,"0.0-4.11-1.11","46d0uard7gtt24q",628,"91.csv","","null","resources/maskTrios/L1BB.jpg","null","",NA,NA,NA,NA,""
"image-keyboard-response",47,95412,"0.0-4.11-2.11","46d0uard7gtt24q",628,"91.csv","","null","resources/images/coin2.png","null","",NA,NA,NA,NA,""
"image-keyboard-response",48,95637,"0.0-4.12-0.12","46d0uard7gtt24q",628,"91.csv","","224.70000000018626","resources/trios/L1T4A2.jpg","38","restless",0.8,0.9,0.4,0.42244302126392,"true"
"image-keyboard-response",49,96049,"0.0-4.12-1.12","46d0uard7gtt24q",628,"91.csv","","null","resources/maskTrios/BT4B.jpg","null","",NA,NA,NA,NA,""
"image-keyboard-response",50,97262,"0.0-4.12-2.12","46d0uard7gtt24q",628,"91.csv","","null","resources/images/coin2.png","null","",NA,NA,NA,NA,""
"image-keyboard-response",51,97453,"0.0-4.13-0.13","46d0uard7gtt24q",628,"91.csv","","190.8000000002794","resources/trios/L1T4A2.jpg","38","restless",0.8,0.9,0.4,0.871353635840623,"true"
"image-keyboard-response",52,97863,"0.0-4.13-1.13","46d0uard7gtt24q",628,"91.csv","","null","resources/maskTrios/BT4B.jpg","null","",NA,NA,NA,NA,""
"image-keyboard-response",53,99080,"0.0-4.13-2.13","46d0uard7gtt24q",628,"91.csv","","null","resources/images/coin2.png","null","",NA,NA,NA,NA,""
"image-keyboard-response",54,99294,"0.0-4.14-0.14","46d0uard7gtt24q",628,"91.csv","","212.79999999981374","resources/trios/L1T4A2.jpg","38","restless",0.8,0.9,0.4,0.12333951693834,"true"
"image-keyboard-response",55,99697,"0.0-4.14-1.14","46d0uard7gtt24q",628,"91.csv","","null","resources/maskTrios/BT4B.jpg","null","",NA,NA,NA,NA,""
"image-keyboard-response",56,100904,"0.0-4.14-2.14","46d0uard7gtt24q",628,"91.csv","","null","resources/images/coin2.png","null","",NA,NA,NA,NA,""
"image-keyboard-response",57,101230,"0.0-4.15-0.15","46d0uard7gtt24q",628,"91.csv","","325.10000000009313","resources/trios/L1T4A2.jpg","38","restless",0.8,0.9,0.4,0.179215926805135,"true"
"image-keyboard-response",58,101634,"0.0-4.15-1.15","46d0uard7gtt24q",628,"91.csv","","null","resources/maskTrios/BT4B.jpg","null","",NA,NA,NA,NA,""
"image-keyboard-response",59,102839,"0.0-4.15-2.15","46d0uard7gtt24q",628,"91.csv","","null","resources/images/coin2.png","null","",NA,NA,NA,NA,""
"image-keyboard-response",60,103053,"0.0-4.16-0.16","46d0uard7gtt24q",628,"91.csv","","214","resources/trios/L1T4A2.jpg","37","restless",0.8,0.9,0.4,0.575252331365272,"true"
"image-keyboard-response",61,103456,"0.0-4.16-1.16","46d0uard7gtt24q",628,"91.csv","","null","resources/maskTrios/L1BB.jpg","null","",NA,NA,NA,NA,""
"image-keyboard-response",62,104667,"0.0-4.16-2.16","46d0uard7gtt24q",628,"91.csv","","null","resources/images/coin2.png","null","",NA,NA,NA,NA,""
"image-keyboard-response",63,104926,"0.0-4.17-0.17","46d0uard7gtt24q",628,"91.csv","","258.10000000009313","resources/trios/L1T4A2.jpg","37","restless",0.8,0.9,0.3,0.512864313512129,"true"
"image-keyboard-response",64,105342,"0.0-4.17-1.17","46d0uard7gtt24q",628,"91.csv","","null","resources/maskTrios/L1BB.jpg","null","",NA,NA,NA,NA,""
"image-keyboard-response",65,106554,"0.0-4.17-2.17","46d0uard7gtt24q",628,"91.csv","","null","resources/images/coin2.png","null","",NA,NA,NA,NA,""
"image-keyboard-response",66,106894,"0.0-4.18-0.18","46d0uard7gtt24q",628,"91.csv","","338.79999999981374","resources/trios/L1T4A2.jpg","37","restless",0.8,0.9,0.3,0.680597009230768,"true"
"image-keyboard-response",67,107297,"0.0-4.18-1.18","46d0uard7gtt24q",628,"91.csv","","null","resources/maskTrios/L1BB.jpg","null","",NA,NA,NA,NA,""
"image-keyboard-response",68,108508,"0.0-4.18-2.18","46d0uard7gtt24q",628,"91.csv","","null","resources/images/coin2.png","null","",NA,NA,NA,NA,""
"image-keyboard-response",69,108742,"0.0-4.19-0.19","46d0uard7gtt24q",628,"91.csv","","233.1999999997206","resources/trios/L1T4A2.jpg","37","restless",0.8,0.9,0.3,0.00494429055455781,"true"
"image-keyboard-response",70,109158,"0.0-4.19-1.19","46d0uard7gtt24q",628,"91.csv","","null","resources/maskTrios/L1BB.jpg","null","",NA,NA,NA,NA,""
"image-keyboard-response",71,110363,"0.0-4.19-2.19","46d0uard7gtt24q",628,"91.csv","","null","resources/images/coin2.png","null","",NA,NA,NA,NA,""
"image-keyboard-response",72,110765,"0.0-4.20-0.20","46d0uard7gtt24q",628,"91.csv","","401.5","resources/trios/L1T4A2.jpg","39","restless",0.8,0.9,0.3,0.57824046007444,"false"
"image-keyboard-response",73,111175,"0.0-4.20-1.20","46d0uard7gtt24q",628,"91.csv","","null","resources/maskTrios/BBA2.jpg","null","",NA,NA,NA,NA,""
"image-keyboard-response",74,112381,"0.0-4.20-2.20","46d0uard7gtt24q",628,"91.csv","","null","resources/images/fishbone.png","null","",NA,NA,NA,NA,""
"image-keyboard-response",75,112622,"0.0-4.21-0.21","46d0uard7gtt24q",628,"91.csv","","239.89999999990687","resources/trios/L1T4A2.jpg","37","restless",0.8,0.9,0.3,0.731450998004348,"true"
"image-keyboard-response",76,113030,"0.0-4.21-1.21","46d0uard7gtt24q",628,"91.csv","","null","resources/maskTrios/L1BB.jpg","null","",NA,NA,NA,NA,""
"image-keyboard-response",77,114239,"0.0-4.21-2.21","46d0uard7gtt24q",628,"91.csv","","null","resources/images/coin2.png","null","",NA,NA,NA,NA,""
"image-keyboard-response",78,114437,"0.0-4.22-0.22","46d0uard7gtt24q",628,"91.csv","","197.39999999990687","resources/trios/L1T4A2.jpg","37","restless",0.8,0.8,0.4,0.479524975831309,"true"
"image-keyboard-response",79,114840,"0.0-4.22-1.22","46d0uard7gtt24q",628,"91.csv","","null","resources/maskTrios/L1BB.jpg","null","",NA,NA,NA,NA,""
"image-keyboard-response",80,116044,"0.0-4.22-2.22","46d0uard7gtt24q",628,"91.csv","","null","resources/images/coin2.png","null","",NA,NA,NA,NA,""
"image-keyboard-response",81,116253,"0.0-4.23-0.23","46d0uard7gtt24q",628,"91.csv","","208.8000000002794","resources/trios/L1T4A2.jpg","37","restless",0.8,0.8,0.3,0.0884563469777333,"true"
"image-keyboard-response",82,116661,"0.0-4.23-1.23","46d0uard7gtt24q",628,"91.csv","","null","resources/maskTrios/L1BB.jpg","null","",NA,NA,NA,NA,""
"image-keyboard-response",83,117868,"0.0-4.23-2.23","46d0uard7gtt24q",628,"91.csv","","null","resources/images/coin2.png","null","",NA,NA,NA,NA,""
"image-keyboard-response",84,118245,"0.0-4.24-0.24","46d0uard7gtt24q",628,"91.csv","","376.70000000018626","resources/trios/L1T4A2.jpg","38","restless",0.8,0.8,0.3,0.450942008229588,"true"
"image-keyboard-response",85,118650,"0.0-4.24-1.24","46d0uard7gtt24q",628,"91.csv","","null","resources/maskTrios/BT4B.jpg","null","",NA,NA,NA,NA,""
"image-keyboard-response",86,119859,"0.0-4.24-2.24","46d0uard7gtt24q",628,"91.csv","","null","resources/images/coin2.png","null","",NA,NA,NA,NA,""
"image-keyboard-response",87,120085,"0.0-4.25-0.25","46d0uard7gtt24q",628,"91.csv","","225.10000000009313","resources/trios/L1T4A2.jpg","38","restless",0.8,0.8,0.3,0.447855719402088,"true"
"image-keyboard-response",88,120489,"0.0-4.25-1.25","46d0uard7gtt24q",628,"91.csv","","null","resources/maskTrios/BT4B.jpg","null","",NA,NA,NA,NA,""
"image-keyboard-response",89,121699,"0.0-4.25-2.25","46d0uard7gtt24q",628,"91.csv","","null","resources/images/coin2.png","null","",NA,NA,NA,NA,""
"image-keyboard-response",90,121925,"0.0-4.26-0.26","46d0uard7gtt24q",628,"91.csv","","225.20000000018626","resources/trios/L1T4A2.jpg","38","restless",0.8,0.8,0.3,0.965954959011795,"false"
"image-keyboard-response",91,122329,"0.0-4.26-1.26","46d0uard7gtt24q",628,"91.csv","","null","resources/maskTrios/BT4B.jpg","null","",NA,NA,NA,NA,""
"image-keyboard-response",92,123539,"0.0-4.26-2.26","46d0uard7gtt24q",628,"91.csv","","null","resources/images/fishbone.png","null","",NA,NA,NA,NA,""
"image-keyboard-response",93,123702,"0.0-4.27-0.27","46d0uard7gtt24q",628,"91.csv","","161.79999999981374","resources/trios/L1T4A2.jpg","37","restless",0.8,0.8,0.4,0.075085739404432,"true"
"image-keyboard-response",94,124107,"0.0-4.27-1.27","46d0uard7gtt24q",628,"91.csv","","null","resources/maskTrios/L1BB.jpg","null","",NA,NA,NA,NA,""
"image-keyboard-response",95,125317,"0.0-4.27-2.27","46d0uard7gtt24q",628,"91.csv","","null","resources/images/coin2.png","null","",NA,NA,NA,NA,""
"image-keyboard-response",96,125621,"0.0-4.28-0.28","46d0uard7gtt24q",628,"91.csv","","303.5","resources/trios/L1T4A2.jpg","37","restless",0.7,0.8,0.4,0.758546395906448,"false"
"image-keyboard-response",97,126029,"0.0-4.28-1.28","46d0uard7gtt24q",628,"91.csv","","null","resources/maskTrios/L1BB.jpg","null","",NA,NA,NA,NA,""
"image-keyboard-response",98,127238,"0.0-4.28-2.28","46d0uard7gtt24q",628,"91.csv","","null","resources/images/fishbone.png","null","",NA,NA,NA,NA,""
"image-keyboard-response",99,127454,"0.0-4.29-0.29","46d0uard7gtt24q",628,"91.csv","","215","resources/trios/L1T4A2.jpg","39","restless",0.7,0.8,0.4,0.167330799508941,"true"
"image-keyboard-response",100,127869,"0.0-4.29-1.29","46d0uard7gtt24q",628,"91.csv","","null","resources/maskTrios/BBA2.jpg","null","",NA,NA,NA,NA,""
"image-keyboard-response",101,129078,"0.0-4.29-2.29","46d0uard7gtt24q",628,"91.csv","","null","resources/images/coin2.png","null","",NA,NA,NA,NA,""
"image-keyboard-response",102,129309,"0.0-4.30-0.30","46d0uard7gtt24q",628,"91.csv","","231.3000000002794","resources/trios/L1T4A2.jpg","39","restless",0.7,0.8,0.4,0.127011608840913,"true"
"image-keyboard-response",103,129724,"0.0-4.30-1.30","46d0uard7gtt24q",628,"91.csv","","null","resources/maskTrios/BBA2.jpg","null","",NA,NA,NA,NA,""
"image-keyboard-response",104,130932,"0.0-4.30-2.30","46d0uard7gtt24q",628,"91.csv","","null","resources/images/coin2.png","null","",NA,NA,NA,NA,""
"image-keyboard-response",105,131197,"0.0-4.31-0.31","46d0uard7gtt24q",628,"91.csv","","264.39999999990687","resources/trios/L1T4A2.jpg","39","restless",0.7,0.8,0.4,0.85481308490654,"false"
"image-keyboard-response",106,131610,"0.0-4.31-1.31","46d0uard7gtt24q",628,"91.csv","","null","resources/maskTrios/BBA2.jpg","null","",NA,NA,NA,NA,""
"image-keyboard-response",107,132814,"0.0-4.31-2.31","46d0uard7gtt24q",628,"91.csv","","null","resources/images/fishbone.png","null","",NA,NA,NA,NA,""
"image-keyboard-response",108,132997,"0.0-4.32-0.32","46d0uard7gtt24q",628,"91.csv","","182.8000000002794","resources/trios/L1T4A2.jpg","38","restless",0.7,0.8,0.4,0.676304500026399,"true"
"image-keyboard-response",109,133401,"0.0-4.32-1.32","46d0uard7gtt24q",628,"91.csv","","null","resources/maskTrios/BT4B.jpg","null","",NA,NA,NA,NA,""
"image-keyboard-response",110,134608,"0.0-4.32-2.32","46d0uard7gtt24q",628,"91.csv","","null","resources/images/coin2.png","null","",NA,NA,NA,NA,""
"image-keyboard-response",111,134854,"0.0-4.33-0.33","46d0uard7gtt24q",628,"91.csv","","244.59999999962747","resources/trios/L1T4A2.jpg","38","restless",0.7,0.8,0.4,0.678866310061375,"true"
"image-keyboard-response",112,135270,"0.0-4.33-1.33","46d0uard7gtt24q",628,"91.csv","","null","resources/maskTrios/BT4B.jpg","null","",NA,NA,NA,NA,""
"image-keyboard-response",113,136483,"0.0-4.33-2.33","46d0uard7gtt24q",628,"91.csv","","null","resources/images/coin2.png","null","",NA,NA,NA,NA,""
"image-keyboard-response",114,136686,"0.0-4.34-0.34","46d0uard7gtt24q",628,"91.csv","","202.20000000018626","resources/trios/L1T4A2.jpg","38","restless",0.7,0.8,0.5,0.304990771360981,"true"
"image-keyboard-response",115,137098,"0.0-4.34-1.34","46d0uard7gtt24q",628,"91.csv","","null","resources/maskTrios/BT4B.jpg","null","",NA,NA,NA,NA,""
"image-keyboard-response",116,138303,"0.0-4.34-2.34","46d0uard7gtt24q",628,"91.csv","","null","resources/images/coin2.png","null","",NA,NA,NA,NA,""
"image-keyboard-response",117,138526,"0.0-4.35-0.35","46d0uard7gtt24q",628,"91.csv","","221.8000000002794","resources/trios/L1T4A2.jpg","38","restless",0.7,0.8,0.5,0.591021059966818,"true"
"image-keyboard-response",118,138937,"0.0-4.35-1.35","46d0uard7gtt24q",628,"91.csv","","null","resources/maskTrios/BT4B.jpg","null","",NA,NA,NA,NA,""
"image-keyboard-response",119,140146,"0.0-4.35-2.35","46d0uard7gtt24q",628,"91.csv","","null","resources/images/coin2.png","null","",NA,NA,NA,NA,""
"image-keyboard-response",120,140374,"0.0-4.36-0.36","46d0uard7gtt24q",628,"91.csv","","227.1999999997206","resources/trios/L1T4A2.jpg","38","restless",0.7,0.8,0.5,0.849295372607137,"false"
"image-keyboard-response",121,140776,"0.0-4.36-1.36","46d0uard7gtt24q",628,"91.csv","","null","resources/maskTrios/BT4B.jpg","null","",NA,NA,NA,NA,""
"image-keyboard-response",122,141987,"0.0-4.36-2.36","46d0uard7gtt24q",628,"91.csv","","null","resources/images/fishbone.png","null","",NA,NA,NA,NA,""
"image-keyboard-response",123,142157,"0.0-4.37-0.37","46d0uard7gtt24q",628,"91.csv","","169","resources/trios/L1T4A2.jpg","37","restless",0.7,0.8,0.5,0.648710823926163,"true"
"image-keyboard-response",124,142567,"0.0-4.37-1.37","46d0uard7gtt24q",628,"91.csv","","null","resources/maskTrios/L1BB.jpg","null","",NA,NA,NA,NA,""
"image-keyboard-response",125,143775,"0.0-4.37-2.37","46d0uard7gtt24q",628,"91.csv","","null","resources/images/coin2.png","null","",NA,NA,NA,NA,""
"image-keyboard-response",126,143829,"0.0-4.38-0.38","46d0uard7gtt24q",628,"91.csv","","53.3000000002794","resources/trios/L1T4A2.jpg","37","restless",0.7,0.8,0.5,0.276215522715916,"true"
"image-keyboard-response",127,144236,"0.0-4.38-1.38","46d0uard7gtt24q",628,"91.csv","","null","resources/maskTrios/L1BB.jpg","null","",NA,NA,NA,NA,""
"image-keyboard-response",128,145443,"0.0-4.38-2.38","46d0uard7gtt24q",628,"91.csv","","null","resources/images/coin2.png","null","",NA,NA,NA,NA,""
"image-keyboard-response",129,145630,"0.0-4.39-0.39","46d0uard7gtt24q",628,"91.csv","","186.29999999981374","resources/trios/L1T4A2.jpg","37","restless",0.7,0.8,0.4,0.250521061328273,"true"
"image-keyboard-response",130,146041,"0.0-4.39-1.39","46d0uard7gtt24q",628,"91.csv","","null","resources/maskTrios/L1BB.jpg","null","",NA,NA,NA,NA,""
"image-keyboard-response",131,147247,"0.0-4.39-2.39","46d0uard7gtt24q",628,"91.csv","","null","resources/images/coin2.png","null","",NA,NA,NA,NA,""
"image-keyboard-response",132,147285,"0.0-4.40-0.40","46d0uard7gtt24q",628,"91.csv","","38.10000000009313","resources/trios/L1T4A2.jpg","37","restless",0.7,0.7,0.4,0.241135673968038,"true"
"image-keyboard-response",133,147687,"0.0-4.40-1.40","46d0uard7gtt24q",628,"91.csv","","null","resources/maskTrios/L1BB.jpg","null","",NA,NA,NA,NA,""
"image-keyboard-response",134,148899,"0.0-4.40-2.40","46d0uard7gtt24q",628,"91.csv","","null","resources/images/coin2.png","null","",NA,NA,NA,NA,""
"image-keyboard-response",135,148949,"0.0-4.41-0.41","46d0uard7gtt24q",628,"91.csv","","49.799999999813735","resources/trios/L1T4A2.jpg","37","restless",0.7,0.7,0.4,0.565013974482682,"true"
"image-keyboard-response",136,149358,"0.0-4.41-1.41","46d0uard7gtt24q",628,"91.csv","","null","resources/maskTrios/L1BB.jpg","null","",NA,NA,NA,NA,""
"image-keyboard-response",137,150563,"0.0-4.41-2.41","46d0uard7gtt24q",628,"91.csv","","null","resources/images/coin2.png","null","",NA,NA,NA,NA,""
"image-keyboard-response",138,150774,"0.0-4.42-0.42","46d0uard7gtt24q",628,"91.csv","","210.5","resources/trios/L1T4A2.jpg","37","restless",0.7,0.7,0.4,0.64925854466579,"true"
"image-keyboard-response",139,151177,"0.0-4.42-1.42","46d0uard7gtt24q",628,"91.csv","","null","resources/maskTrios/L1BB.jpg","null","",NA,NA,NA,NA,""
"image-keyboard-response",140,152383,"0.0-4.42-2.42","46d0uard7gtt24q",628,"91.csv","","null","resources/images/coin2.png","null","",NA,NA,NA,NA,""
"image-keyboard-response",141,152717,"0.0-4.43-0.43","46d0uard7gtt24q",628,"91.csv","","334.20000000018626","resources/trios/L1T4A2.jpg","37","restless",0.7,0.7,0.4,0.360749283646378,"true"
"image-keyboard-response",142,153128,"0.0-4.43-1.43","46d0uard7gtt24q",628,"91.csv","","null","resources/maskTrios/L1BB.jpg","null","",NA,NA,NA,NA,""
"image-keyboard-response",143,154338,"0.0-4.43-2.43","46d0uard7gtt24q",628,"91.csv","","null","resources/images/coin2.png","null","",NA,NA,NA,NA,""
"image-keyboard-response",144,154533,"0.0-4.44-0.44","46d0uard7gtt24q",628,"91.csv","","194.5","resources/trios/L1T4A2.jpg","37","restless",0.7,0.7,0.5,0.287069721335726,"true"
"image-keyboard-response",145,154939,"0.0-4.44-1.44","46d0uard7gtt24q",628,"91.csv","","null","resources/maskTrios/L1BB.jpg","null","",NA,NA,NA,NA,""
"image-keyboard-response",146,156148,"0.0-4.44-2.44","46d0uard7gtt24q",628,"91.csv","","null","resources/images/coin2.png","null","",NA,NA,NA,NA,""
"image-keyboard-response",147,156358,"0.0-4.45-0.45","46d0uard7gtt24q",628,"91.csv","","208.5","resources/trios/L1T4A2.jpg","37","restless",0.7,0.7,0.5,0.288087619859824,"true"
"image-keyboard-response",148,156767,"0.0-4.45-1.45","46d0uard7gtt24q",628,"91.csv","","null","resources/maskTrios/L1BB.jpg","null","",NA,NA,NA,NA,""
"image-keyboard-response",149,157976,"0.0-4.45-2.45","46d0uard7gtt24q",628,"91.csv","","null","resources/images/coin2.png","null","",NA,NA,NA,NA,""
"image-keyboard-response",150,158190,"0.0-4.46-0.46","46d0uard7gtt24q",628,"91.csv","","213","resources/trios/L1T4A2.jpg","37","restless",0.7,0.7,0.5,0.448484409501889,"true"
"image-keyboard-response",151,158592,"0.0-4.46-1.46","46d0uard7gtt24q",628,"91.csv","","null","resources/maskTrios/L1BB.jpg","null","",NA,NA,NA,NA,""
"image-keyboard-response",152,159801,"0.0-4.46-2.46","46d0uard7gtt24q",628,"91.csv","","null","resources/images/coin2.png","null","",NA,NA,NA,NA,""
"image-keyboard-response",153,160030,"0.0-4.47-0.47","46d0uard7gtt24q",628,"91.csv","","227.8000000002794","resources/trios/L1T4A2.jpg","37","restless",0.7,0.7,0.5,0.0957454124731916,"true"
"image-keyboard-response",154,160433,"0.0-4.47-1.47","46d0uard7gtt24q",628,"91.csv","","null","resources/maskTrios/L1BB.jpg","null","",NA,NA,NA,NA,""
"image-keyboard-response",155,161646,"0.0-4.47-2.47","46d0uard7gtt24q",628,"91.csv","","null","resources/images/coin2.png","null","",NA,NA,NA,NA,""
"image-keyboard-response",156,161870,"0.0-4.48-0.48","46d0uard7gtt24q",628,"91.csv","","222.40000000037253","resources/trios/L1T4A2.jpg","37","restless",0.7,0.7,0.5,0.141027805401447,"true"
"image-keyboard-response",157,162278,"0.0-4.48-1.48","46d0uard7gtt24q",628,"91.csv","","null","resources/maskTrios/L1BB.jpg","null","",NA,NA,NA,NA,""
"image-keyboard-response",158,163487,"0.0-4.48-2.48","46d0uard7gtt24q",628,"91.csv","","null","resources/images/coin2.png","null","",NA,NA,NA,NA,""
"image-keyboard-response",159,163702,"0.0-4.49-0.49","46d0uard7gtt24q",628,"91.csv","","214.10000000009313","resources/trios/L1T4A2.jpg","37","restless",0.7,0.7,0.5,0.705937085539295,"false"
"image-keyboard-response",160,164117,"0.0-4.49-1.49","46d0uard7gtt24q",628,"91.csv","","null","resources/maskTrios/L1BB.jpg","null","",NA,NA,NA,NA,""
"image-keyboard-response",161,165326,"0.0-4.49-2.49","46d0uard7gtt24q",628,"91.csv","","null","resources/images/fishbone.png","null","",NA,NA,NA,NA,""
"image-keyboard-response",162,165646,"0.0-4.50-0.50","46d0uard7gtt24q",628,"91.csv","","319.5","resources/trios/L1T4A2.jpg","39","restless",0.7,0.7,0.5,0.824418186865973,"false"
"image-keyboard-response",163,166055,"0.0-4.50-1.50","46d0uard7gtt24q",628,"91.csv","","null","resources/maskTrios/BBA2.jpg","null","",NA,NA,NA,NA,""
"image-keyboard-response",164,167266,"0.0-4.50-2.50","46d0uard7gtt24q",628,"91.csv","","null","resources/images/fishbone.png","null","",NA,NA,NA,NA,""
"image-keyboard-response",165,167510,"0.0-4.51-0.51","46d0uard7gtt24q",628,"91.csv","","243.5","resources/trios/L1T4A2.jpg","38","restless",0.7,0.7,0.5,0.821914323857364,"false"
"image-keyboard-response",166,167914,"0.0-4.51-1.51","46d0uard7gtt24q",628,"91.csv","","null","resources/maskTrios/BT4B.jpg","null","",NA,NA,NA,NA,""
"image-keyboard-response",167,169121,"0.0-4.51-2.51","46d0uard7gtt24q",628,"91.csv","","null","resources/images/fishbone.png","null","",NA,NA,NA,NA,""
"image-keyboard-response",168,169381,"0.0-4.52-0.52","46d0uard7gtt24q",628,"91.csv","","259.39999999990687","resources/trios/L1T4A2.jpg","39","restless",0.7,0.7,0.5,0.188756896592766,"true"
"image-keyboard-response",169,169788,"0.0-4.52-1.52","46d0uard7gtt24q",628,"91.csv","","null","resources/maskTrios/BBA2.jpg","null","",NA,NA,NA,NA,""
"image-keyboard-response",170,170993,"0.0-4.52-2.52","46d0uard7gtt24q",628,"91.csv","","null","resources/images/coin2.png","null","",NA,NA,NA,NA,""
"image-keyboard-response",171,171222,"0.0-4.53-0.53","46d0uard7gtt24q",628,"91.csv","","228.29999999981374","resources/trios/L1T4A2.jpg","39","restless",0.7,0.8,0.6,0.712024858770134,"false"
"image-keyboard-response",172,171626,"0.0-4.53-1.53","46d0uard7gtt24q",628,"91.csv","","null","resources/maskTrios/BBA2.jpg","null","",NA,NA,NA,NA,""
"image-keyboard-response",173,172833,"0.0-4.53-2.53","46d0uard7gtt24q",628,"91.csv","","null","resources/images/fishbone.png","null","",NA,NA,NA,NA,""
"image-keyboard-response",174,173029,"0.0-4.54-0.54","46d0uard7gtt24q",628,"91.csv","","195.70000000018626","resources/trios/L1T4A2.jpg","37","restless",0.7,0.7,0.5,0.691025827805809,"true"
"image-keyboard-response",175,173436,"0.0-4.54-1.54","46d0uard7gtt24q",628,"91.csv","","null","resources/maskTrios/L1BB.jpg","null","",NA,NA,NA,NA,""
"image-keyboard-response",176,174642,"0.0-4.54-2.54","46d0uard7gtt24q",628,"91.csv","","null","resources/images/coin2.png","null","",NA,NA,NA,NA,""
"image-keyboard-response",177,174821,"0.0-4.55-0.55","46d0uard7gtt24q",628,"91.csv","","179.20000000018626","resources/trios/L1T4A2.jpg","37","restless",0.7,0.7,0.5,0.24835475853954,"true"
"image-keyboard-response",178,175225,"0.0-4.55-1.55","46d0uard7gtt24q",628,"91.csv","","null","resources/maskTrios/L1BB.jpg","null","",NA,NA,NA,NA,""
"image-keyboard-response",179,176433,"0.0-4.55-2.55","46d0uard7gtt24q",628,"91.csv","","null","resources/images/coin2.png","null","",NA,NA,NA,NA,""
"image-keyboard-response",180,176670,"0.0-4.56-0.56","46d0uard7gtt24q",628,"91.csv","","235.8000000002794","resources/trios/L1T4A2.jpg","37","restless",0.7,0.7,0.5,0.840954504381119,"false"
"image-keyboard-response",181,177079,"0.0-4.56-1.56","46d0uard7gtt24q",628,"91.csv","","null","resources/maskTrios/L1BB.jpg","null","",NA,NA,NA,NA,""
"image-keyboard-response",182,178291,"0.0-4.56-2.56","46d0uard7gtt24q",628,"91.csv","","null","resources/images/fishbone.png","null","",NA,NA,NA,NA,""
"image-keyboard-response",183,178542,"0.0-4.57-0.57","46d0uard7gtt24q",628,"91.csv","","251","resources/trios/L1T4A2.jpg","38","restless",0.7,0.7,0.5,0.043780919880835,"true"
"image-keyboard-response",184,178950,"0.0-4.57-1.57","46d0uard7gtt24q",628,"91.csv","","null","resources/maskTrios/BT4B.jpg","null","",NA,NA,NA,NA,""
"image-keyboard-response",185,180158,"0.0-4.57-2.57","46d0uard7gtt24q",628,"91.csv","","null","resources/images/coin2.png","null","",NA,NA,NA,NA,""
"image-keyboard-response",186,180405,"0.0-4.58-0.58","46d0uard7gtt24q",628,"91.csv","","246.5","resources/trios/L1T4A2.jpg","38","restless",0.7,0.7,0.5,0.569599337382577,"true"
"image-keyboard-response",187,180821,"0.0-4.58-1.58","46d0uard7gtt24q",628,"91.csv","","null","resources/maskTrios/BT4B.jpg","null","",NA,NA,NA,NA,""
"image-keyboard-response",188,182028,"0.0-4.58-2.58","46d0uard7gtt24q",628,"91.csv","","null","resources/images/coin2.png","null","",NA,NA,NA,NA,""
"image-keyboard-response",189,182421,"0.0-4.59-0.59","46d0uard7gtt24q",628,"91.csv","","392.5","resources/trios/L1T4A2.jpg","38","restless",0.7,0.7,0.5,0.977382371511579,"false"
"image-keyboard-response",190,182835,"0.0-4.59-1.59","46d0uard7gtt24q",628,"91.csv","","null","resources/maskTrios/BT4B.jpg","null","",NA,NA,NA,NA,""
"image-keyboard-response",191,184040,"0.0-4.59-2.59","46d0uard7gtt24q",628,"91.csv","","null","resources/images/fishbone.png","null","",NA,NA,NA,NA,""
"image-keyboard-response",192,184285,"0.0-4.60-0.60","46d0uard7gtt24q",628,"91.csv","","245.20000000018626","resources/trios/L1T4A2.jpg","39","restless",0.7,0.7,0.4,0.0152875744410825,"true"
"image-keyboard-response",193,184691,"0.0-4.60-1.60","46d0uard7gtt24q",628,"91.csv","","null","resources/maskTrios/BBA2.jpg","null","",NA,NA,NA,NA,""
"image-keyboard-response",194,185897,"0.0-4.60-2.60","46d0uard7gtt24q",628,"91.csv","","null","resources/images/coin2.png","null","",NA,NA,NA,NA,""
"image-keyboard-response",195,186110,"0.0-4.61-0.61","46d0uard7gtt24q",628,"91.csv","","211.5","resources/trios/L1T4A2.jpg","39","restless",0.6,0.7,0.4,0.394551088279332,"true"
"image-keyboard-response",196,186518,"0.0-4.61-1.61","46d0uard7gtt24q",628,"91.csv","","null","resources/maskTrios/BBA2.jpg","null","",NA,NA,NA,NA,""
"image-keyboard-response",197,187725,"0.0-4.61-2.61","46d0uard7gtt24q",628,"91.csv","","null","resources/images/coin2.png","null","",NA,NA,NA,NA,""
"image-keyboard-response",198,188022,"0.0-4.62-0.62","46d0uard7gtt24q",628,"91.csv","","296.3000000002794","resources/trios/L1T4A2.jpg","39","restless",0.6,0.7,0.4,0.87321683505402,"false"
"image-keyboard-response",199,188435,"0.0-4.62-1.62","46d0uard7gtt24q",628,"91.csv","","null","resources/maskTrios/BBA2.jpg","null","",NA,NA,NA,NA,""
"image-keyboard-response",200,189643,"0.0-4.62-2.62","46d0uard7gtt24q",628,"91.csv","","null","resources/images/fishbone.png","null","",NA,NA,NA,NA,""
"image-keyboard-response",201,189910,"0.0-4.63-0.63","46d0uard7gtt24q",628,"91.csv","","266.20000000018626","resources/trios/L1T4A2.jpg","37","restless",0.6,0.7,0.4,0.313557210931808,"true"
"image-keyboard-response",202,190322,"0.0-4.63-1.63","46d0uard7gtt24q",628,"91.csv","","null","resources/maskTrios/L1BB.jpg","null","",NA,NA,NA,NA,""
"image-keyboard-response",203,191531,"0.0-4.63-2.63","46d0uard7gtt24q",628,"91.csv","","null","resources/images/coin2.png","null","",NA,NA,NA,NA,""
"image-keyboard-response",204,191766,"0.0-4.64-0.64","46d0uard7gtt24q",628,"91.csv","","233.70000000018626","resources/trios/L1T4A2.jpg","37","restless",0.6,0.7,0.4,0.295315063423903,"true"
"image-keyboard-response",205,192179,"0.0-4.64-1.64","46d0uard7gtt24q",628,"91.csv","","null","resources/maskTrios/L1BB.jpg","null","",NA,NA,NA,NA,""
"image-keyboard-response",206,193385,"0.0-4.64-2.64","46d0uard7gtt24q",628,"91.csv","","null","resources/images/coin2.png","null","",NA,NA,NA,NA,""
"image-keyboard-response",207,193645,"0.0-4.65-0.65","46d0uard7gtt24q",628,"91.csv","","259.5","resources/trios/L1T4A2.jpg","38","restless",0.6,0.8,0.4,0.655985742658355,"true"
"image-keyboard-response",208,194048,"0.0-4.65-1.65","46d0uard7gtt24q",628,"91.csv","","null","resources/maskTrios/BT4B.jpg","null","",NA,NA,NA,NA,""
"image-keyboard-response",209,195258,"0.0-4.65-2.65","46d0uard7gtt24q",628,"91.csv","","null","resources/images/coin2.png","null","",NA,NA,NA,NA,""
"image-keyboard-response",210,195469,"0.0-4.66-0.66","46d0uard7gtt24q",628,"91.csv","","210.79999999981374","resources/trios/L1T4A2.jpg","38","restless",0.6,0.8,0.4,0.931727689170424,"false"
"image-keyboard-response",211,195877,"0.0-4.66-1.66","46d0uard7gtt24q",628,"91.csv","","null","resources/maskTrios/BT4B.jpg","null","",NA,NA,NA,NA,""
"image-keyboard-response",212,197083,"0.0-4.66-2.66","46d0uard7gtt24q",628,"91.csv","","null","resources/images/fishbone.png","null","",NA,NA,NA,NA,""
"image-keyboard-response",213,197341,"0.0-4.67-0.67","46d0uard7gtt24q",628,"91.csv","","257.60000000009313","resources/trios/L1T4A2.jpg","39","restless",0.6,0.8,0.4,0.703136659898024,"false"
"image-keyboard-response",214,197753,"0.0-4.67-1.67","46d0uard7gtt24q",628,"91.csv","","null","resources/maskTrios/BBA2.jpg","null","",NA,NA,NA,NA,""
"image-keyboard-response",215,198968,"0.0-4.67-2.67","46d0uard7gtt24q",628,"91.csv","","null","resources/images/fishbone.png","null","",NA,NA,NA,NA,""
"image-keyboard-response",216,199166,"0.0-4.68-0.68","46d0uard7gtt24q",628,"91.csv","","197.39999999990687","resources/trios/L1T4A2.jpg","37","restless",0.6,0.8,0.4,0.504364107545639,"true"
"image-keyboard-response",217,199569,"0.0-4.68-1.68","46d0uard7gtt24q",628,"91.csv","","null","resources/maskTrios/L1BB.jpg","null","",NA,NA,NA,NA,""
"image-keyboard-response",218,200782,"0.0-4.68-2.68","46d0uard7gtt24q",628,"91.csv","","null","resources/images/coin2.png","null","",NA,NA,NA,NA,""
"image-keyboard-response",219,201046,"0.0-4.69-0.69","46d0uard7gtt24q",628,"91.csv","","263","resources/trios/L1T4A2.jpg","38","restless",0.6,0.8,0.4,0.85520648156465,"false"
"image-keyboard-response",220,201448,"0.0-4.69-1.69","46d0uard7gtt24q",628,"91.csv","","null","resources/maskTrios/BT4B.jpg","null","",NA,NA,NA,NA,""
"image-keyboard-response",221,202654,"0.0-4.69-2.69","46d0uard7gtt24q",628,"91.csv","","null","resources/images/fishbone.png","null","",NA,NA,NA,NA,""
"image-keyboard-response",222,202821,"0.0-4.70-0.70","46d0uard7gtt24q",628,"91.csv","","166.70000000018626","resources/trios/L1T4A2.jpg","37","restless",0.6,0.8,0.4,0.596620768405784,"true"
"image-keyboard-response",223,203238,"0.0-4.70-1.70","46d0uard7gtt24q",628,"91.csv","","null","resources/maskTrios/L1BB.jpg","null","",NA,NA,NA,NA,""
"image-keyboard-response",224,204447,"0.0-4.70-2.70","46d0uard7gtt24q",628,"91.csv","","null","resources/images/coin2.png","null","",NA,NA,NA,NA,""
"image-keyboard-response",225,204526,"0.0-4.71-0.71","46d0uard7gtt24q",628,"91.csv","","77.89999999990687","resources/trios/L1T4A2.jpg","37","restless",0.6,0.8,0.4,0.918509729748296,"false"
"image-keyboard-response",226,204939,"0.0-4.71-1.71","46d0uard7gtt24q",628,"91.csv","","null","resources/maskTrios/L1BB.jpg","null","",NA,NA,NA,NA,""
"image-keyboard-response",227,206143,"0.0-4.71-2.71","46d0uard7gtt24q",628,"91.csv","","null","resources/images/fishbone.png","null","",NA,NA,NA,NA,""
"image-keyboard-response",228,206374,"0.0-4.72-0.72","46d0uard7gtt24q",628,"91.csv","","230.39999999990687","resources/trios/L1T4A2.jpg","39","restless",0.6,0.8,0.4,0.918554586296554,"false"
"image-keyboard-response",229,206778,"0.0-4.72-1.72","46d0uard7gtt24q",628,"91.csv","","null","resources/maskTrios/BBA2.jpg","null","",NA,NA,NA,NA,""
"image-keyboard-response",230,207992,"0.0-4.72-2.72","46d0uard7gtt24q",628,"91.csv","","null","resources/images/fishbone.png","null","",NA,NA,NA,NA,""
"image-keyboard-response",231,208150,"0.0-4.73-0.73","46d0uard7gtt24q",628,"91.csv","","157.29999999981374","resources/trios/L1T4A2.jpg","38","restless",0.6,0.8,0.4,0.86682055995175,"false"
"image-keyboard-response",232,208560,"0.0-4.73-1.73","46d0uard7gtt24q",628,"91.csv","","null","resources/maskTrios/BT4B.jpg","null","",NA,NA,NA,NA,""
"image-keyboard-response",233,209767,"0.0-4.73-2.73","46d0uard7gtt24q",628,"91.csv","","null","resources/images/fishbone.png","null","",NA,NA,NA,NA,""
"image-keyboard-response",234,209949,"0.0-4.74-0.74","46d0uard7gtt24q",628,"91.csv","","181.5","resources/trios/L1T4A2.jpg","39","restless",0.5,0.8,0.4,0.541933142948405,"false"
"image-keyboard-response",235,210364,"0.0-4.74-1.74","46d0uard7gtt24q",628,"91.csv","","null","resources/maskTrios/BBA2.jpg","null","",NA,NA,NA,NA,""
"image-keyboard-response",236,211577,"0.0-4.74-2.74","46d0uard7gtt24q",628,"91.csv","","null","resources/images/fishbone.png","null","",NA,NA,NA,NA,""
"image-keyboard-response",237,211797,"0.0-4.75-0.75","46d0uard7gtt24q",628,"91.csv","","219.39999999990687","resources/trios/L1T4A2.jpg","38","restless",0.4,0.8,0.4,0.787736077530491,"true"
"image-keyboard-response",238,212211,"0.0-4.75-1.75","46d0uard7gtt24q",628,"91.csv","","null","resources/maskTrios/BT4B.jpg","null","",NA,NA,NA,NA,""
"image-keyboard-response",239,213416,"0.0-4.75-2.75","46d0uard7gtt24q",628,"91.csv","","null","resources/images/coin2.png","null","",NA,NA,NA,NA,""
"image-keyboard-response",240,213622,"0.0-4.76-0.76","46d0uard7gtt24q",628,"91.csv","","204.60000000009313","resources/trios/L1T4A2.jpg","38","restless",0.4,0.7,0.4,0.959577098560584,"false"
"image-keyboard-response",241,214034,"0.0-4.76-1.76","46d0uard7gtt24q",628,"91.csv","","null","resources/maskTrios/BT4B.jpg","null","",NA,NA,NA,NA,""
"image-keyboard-response",242,215246,"0.0-4.76-2.76","46d0uard7gtt24q",628,"91.csv","","null","resources/images/fishbone.png","null","",NA,NA,NA,NA,""
"image-keyboard-response",243,215621,"0.0-4.77-0.77","46d0uard7gtt24q",628,"91.csv","","374.60000000009313","resources/trios/L1T4A2.jpg","38","restless",0.4,0.7,0.4,0.857204284174429,"false"
"image-keyboard-response",244,216035,"0.0-4.77-1.77","46d0uard7gtt24q",628,"91.csv","","null","resources/maskTrios/BT4B.jpg","null","",NA,NA,NA,NA,""
"image-keyboard-response",245,217244,"0.0-4.77-2.77","46d0uard7gtt24q",628,"91.csv","","null","resources/images/fishbone.png","null","",NA,NA,NA,NA,""
"image-keyboard-response",246,217477,"0.0-4.78-0.78","46d0uard7gtt24q",628,"91.csv","","233.29999999981374","resources/trios/L1T4A2.jpg","38","restless",0.4,0.7,0.4,0.654557310010426,"true"
"image-keyboard-response",247,217879,"0.0-4.78-1.78","46d0uard7gtt24q",628,"91.csv","","null","resources/maskTrios/BT4B.jpg","null","",NA,NA,NA,NA,""
"image-keyboard-response",248,219096,"0.0-4.78-2.78","46d0uard7gtt24q",628,"91.csv","","null","resources/images/coin2.png","null","",NA,NA,NA,NA,""
"image-keyboard-response",249,219334,"0.0-4.79-0.79","46d0uard7gtt24q",628,"91.csv","","237.5","resources/trios/L1T4A2.jpg","37","restless",0.4,0.7,0.4,0.866915953502133,"false"
"image-keyboard-response",250,219744,"0.0-4.79-1.79","46d0uard7gtt24q",628,"91.csv","","null","resources/maskTrios/L1BB.jpg","null","",NA,NA,NA,NA,""
"image-keyboard-response",251,220953,"0.0-4.79-2.79","46d0uard7gtt24q",628,"91.csv","","null","resources/images/fishbone.png","null","",NA,NA,NA,NA,""
"image-keyboard-response",252,221837,"0.0-4.80-0.80","46d0uard7gtt24q",628,"91.csv","","884.2000000001863","resources/trios/L1T4A2.jpg","38","restless",0.4,0.7,0.4,0.598722294661413,"true"
"image-keyboard-response",253,222242,"0.0-4.80-1.80","46d0uard7gtt24q",628,"91.csv","","null","resources/maskTrios/BT4B.jpg","null","",NA,NA,NA,NA,""
"image-keyboard-response",254,223451,"0.0-4.80-2.80","46d0uard7gtt24q",628,"91.csv","","null","resources/images/coin2.png","null","",NA,NA,NA,NA,""
"image-keyboard-response",255,223734,"0.0-4.81-0.81","46d0uard7gtt24q",628,"91.csv","","281.89999999990687","resources/trios/L1T4A2.jpg","37","restless",0.4,0.7,0.5,0.349112479462554,"true"
"image-keyboard-response",256,224144,"0.0-4.81-1.81","46d0uard7gtt24q",628,"91.csv","","null","resources/maskTrios/L1BB.jpg","null","",NA,NA,NA,NA,""
"image-keyboard-response",257,225360,"0.0-4.81-2.81","46d0uard7gtt24q",628,"91.csv","","null","resources/images/coin2.png","null","",NA,NA,NA,NA,""
"image-keyboard-response",258,225637,"0.0-4.82-0.82","46d0uard7gtt24q",628,"91.csv","","276.70000000018626","resources/trios/L1T4A2.jpg","39","restless",0.4,0.7,0.5,0.805277681794834,"false"
"image-keyboard-response",259,226039,"0.0-4.82-1.82","46d0uard7gtt24q",628,"91.csv","","null","resources/maskTrios/BBA2.jpg","null","",NA,NA,NA,NA,""
"image-keyboard-response",260,227249,"0.0-4.82-2.82","46d0uard7gtt24q",628,"91.csv","","null","resources/images/fishbone.png","null","",NA,NA,NA,NA,""
"image-keyboard-response",261,227470,"0.0-4.83-0.83","46d0uard7gtt24q",628,"91.csv","","220.29999999981374","resources/trios/L1T4A2.jpg","38","restless",0.4,0.7,0.5,0.461117044074435,"true"
"image-keyboard-response",262,227883,"0.0-4.83-1.83","46d0uard7gtt24q",628,"91.csv","","null","resources/maskTrios/BT4B.jpg","null","",NA,NA,NA,NA,""
"image-keyboard-response",263,229099,"0.0-4.83-2.83","46d0uard7gtt24q",628,"91.csv","","null","resources/images/coin2.png","null","",NA,NA,NA,NA,""
"image-keyboard-response",264,229334,"0.0-4.84-0.84","46d0uard7gtt24q",628,"91.csv","","233.60000000009313","resources/trios/L1T4A2.jpg","37","restless",0.4,0.7,0.5,0.772279239093189,"false"
"image-keyboard-response",265,229749,"0.0-4.84-1.84","46d0uard7gtt24q",628,"91.csv","","null","resources/maskTrios/L1BB.jpg","null","",NA,NA,NA,NA,""
"image-keyboard-response",266,230965,"0.0-4.84-2.84","46d0uard7gtt24q",628,"91.csv","","null","resources/images/fishbone.png","null","",NA,NA,NA,NA,""
"image-keyboard-response",267,231334,"0.0-4.85-0.85","46d0uard7gtt24q",628,"91.csv","","368.10000000009313","resources/trios/L1T4A2.jpg","37","restless",0.4,0.7,0.5,0.305585653958975,"true"
"image-keyboard-response",268,231740,"0.0-4.85-1.85","46d0uard7gtt24q",628,"91.csv","","null","resources/maskTrios/L1BB.jpg","null","",NA,NA,NA,NA,""
"image-keyboard-response",269,232944,"0.0-4.85-2.85","46d0uard7gtt24q",628,"91.csv","","null","resources/images/coin2.png","null","",NA,NA,NA,NA,""
"image-keyboard-response",270,233222,"0.0-4.86-0.86","46d0uard7gtt24q",628,"91.csv","","276.90000000037253","resources/trios/L1T4A2.jpg","38","restless",0.4,0.7,0.6,0.496460804287962,"true"
"image-keyboard-response",271,233627,"0.0-4.86-1.86","46d0uard7gtt24q",628,"91.csv","","null","resources/maskTrios/BT4B.jpg","null","",NA,NA,NA,NA,""
"image-keyboard-response",272,234829,"0.0-4.86-2.86","46d0uard7gtt24q",628,"91.csv","","null","resources/images/coin2.png","null","",NA,NA,NA,NA,""
"image-keyboard-response",273,235069,"0.0-4.87-0.87","46d0uard7gtt24q",628,"91.csv","","239.60000000009313","resources/trios/L1T4A2.jpg","38","restless",0.4,0.6,0.6,0.651330374304041,"false"
"image-keyboard-response",274,235480,"0.0-4.87-1.87","46d0uard7gtt24q",628,"91.csv","","null","resources/maskTrios/BT4B.jpg","null","",NA,NA,NA,NA,""
"image-keyboard-response",275,236686,"0.0-4.87-2.87","46d0uard7gtt24q",628,"91.csv","","null","resources/images/fishbone.png","null","",NA,NA,NA,NA,""
"image-keyboard-response",276,236886,"0.0-4.88-0.88","46d0uard7gtt24q",628,"91.csv","","198.60000000009313","resources/trios/L1T4A2.jpg","37","restless",0.4,0.6,0.6,0.361248284599406,"true"
"image-keyboard-response",277,237301,"0.0-4.88-1.88","46d0uard7gtt24q",628,"91.csv","","null","resources/maskTrios/L1BB.jpg","null","",NA,NA,NA,NA,""
"image-keyboard-response",278,238513,"0.0-4.88-2.88","46d0uard7gtt24q",628,"91.csv","","null","resources/images/coin2.png","null","",NA,NA,NA,NA,""
"image-keyboard-response",279,238782,"0.0-4.89-0.89","46d0uard7gtt24q",628,"91.csv","","268","resources/trios/L1T4A2.jpg","38","restless",0.4,0.6,0.6,0.155224930567132,"true"
"image-keyboard-response",280,239183,"0.0-4.89-1.89","46d0uard7gtt24q",628,"91.csv","","null","resources/maskTrios/BT4B.jpg","null","",NA,NA,NA,NA,""
"image-keyboard-response",281,240387,"0.0-4.89-2.89","46d0uard7gtt24q",628,"91.csv","","null","resources/images/coin2.png","null","",NA,NA,NA,NA,""
"image-keyboard-response",282,240637,"0.0-4.90-0.90","46d0uard7gtt24q",628,"91.csv","","249.89999999990687","resources/trios/L1T4A2.jpg","39","restless",0.4,0.6,0.5,0.775694622450649,"false"
"image-keyboard-response",283,241049,"0.0-4.90-1.90","46d0uard7gtt24q",628,"91.csv","","null","resources/maskTrios/BBA2.jpg","null","",NA,NA,NA,NA,""
"image-keyboard-response",284,242257,"0.0-4.90-2.90","46d0uard7gtt24q",628,"91.csv","","null","resources/images/fishbone.png","null","",NA,NA,NA,NA,""
"image-keyboard-response",285,242486,"0.0-4.91-0.91","46d0uard7gtt24q",628,"91.csv","","228.10000000009313","resources/trios/L1T4A2.jpg","37","restless",0.3,0.6,0.5,0.716623734042887,"false"
"image-keyboard-response",286,242901,"0.0-4.91-1.91","46d0uard7gtt24q",628,"91.csv","","null","resources/maskTrios/L1BB.jpg","null","",NA,NA,NA,NA,""
"image-keyboard-response",287,244114,"0.0-4.91-2.91","46d0uard7gtt24q",628,"91.csv","","null","resources/images/fishbone.png","null","",NA,NA,NA,NA,""
"image-keyboard-response",288,244318,"0.0-4.92-0.92","46d0uard7gtt24q",628,"91.csv","","203.3000000002794","resources/trios/L1T4A2.jpg","37","restless",0.3,0.6,0.5,0.960087486840824,"false"
"image-keyboard-response",289,244733,"0.0-4.92-1.92","46d0uard7gtt24q",628,"91.csv","","null","resources/maskTrios/L1BB.jpg","null","",NA,NA,NA,NA,""
"image-keyboard-response",290,245947,"0.0-4.92-2.92","46d0uard7gtt24q",628,"91.csv","","null","resources/images/fishbone.png","null","",NA,NA,NA,NA,""
"image-keyboard-response",291,246238,"0.0-4.93-0.93","46d0uard7gtt24q",628,"91.csv","","289.70000000018626","resources/trios/L1T4A2.jpg","37","restless",0.3,0.6,0.5,0.185794097015471,"true"
"image-keyboard-response",292,246644,"0.0-4.93-1.93","46d0uard7gtt24q",628,"91.csv","","null","resources/maskTrios/L1BB.jpg","null","",NA,NA,NA,NA,""
"image-keyboard-response",293,247857,"0.0-4.93-2.93","46d0uard7gtt24q",628,"91.csv","","null","resources/images/coin2.png","null","",NA,NA,NA,NA,""
"image-keyboard-response",294,248117,"0.0-4.94-0.94","46d0uard7gtt24q",628,"91.csv","","259.29999999981374","resources/trios/L1T4A2.jpg","37","restless",0.3,0.6,0.5,0.540204787826906,"false"
"image-keyboard-response",295,248520,"0.0-4.94-1.94","46d0uard7gtt24q",628,"91.csv","","null","resources/maskTrios/L1BB.jpg","null","",NA,NA,NA,NA,""
"image-keyboard-response",296,249735,"0.0-4.94-2.94","46d0uard7gtt24q",628,"91.csv","","null","resources/images/fishbone.png","null","",NA,NA,NA,NA,""
"image-keyboard-response",297,249933,"0.0-4.95-0.95","46d0uard7gtt24q",628,"91.csv","","197.5","resources/trios/L1T4A2.jpg","39","restless",0.3,0.6,0.5,0.324025043950819,"true"
"image-keyboard-response",298,250335,"0.0-4.95-1.95","46d0uard7gtt24q",628,"91.csv","","null","resources/maskTrios/BBA2.jpg","null","",NA,NA,NA,NA,""
"image-keyboard-response",299,251549,"0.0-4.95-2.95","46d0uard7gtt24q",628,"91.csv","","null","resources/images/coin2.png","null","",NA,NA,NA,NA,""
"image-keyboard-response",300,251645,"0.0-4.96-0.96","46d0uard7gtt24q",628,"91.csv","","95.89999999990687","resources/trios/L1T4A2.jpg","38","restless",0.3,0.6,0.4,0.320954082733621,"true"
"image-keyboard-response",301,252054,"0.0-4.96-1.96","46d0uard7gtt24q",628,"91.csv","","null","resources/maskTrios/BT4B.jpg","null","",NA,NA,NA,NA,""
"image-keyboard-response",302,253269,"0.0-4.96-2.96","46d0uard7gtt24q",628,"91.csv","","null","resources/images/coin2.png","null","",NA,NA,NA,NA,""
"image-keyboard-response",303,253438,"0.0-4.97-0.97","46d0uard7gtt24q",628,"91.csv","","168.20000000018626","resources/trios/L1T4A2.jpg","38","restless",0.3,0.6,0.5,0.76426569438535,"false"
"image-keyboard-response",304,253854,"0.0-4.97-1.97","46d0uard7gtt24q",628,"91.csv","","null","resources/maskTrios/BT4B.jpg","null","",NA,NA,NA,NA,""
"image-keyboard-response",305,255070,"0.0-4.97-2.97","46d0uard7gtt24q",628,"91.csv","","null","resources/images/fishbone.png","null","",NA,NA,NA,NA,""
"image-keyboard-response",306,255278,"0.0-4.98-0.98","46d0uard7gtt24q",628,"91.csv","","207.20000000018626","resources/trios/L1T4A2.jpg","39","restless",0.3,0.6,0.5,0.120262441774285,"true"
"image-keyboard-response",307,255684,"0.0-4.98-1.98","46d0uard7gtt24q",628,"91.csv","","null","resources/maskTrios/BBA2.jpg","null","",NA,NA,NA,NA,""
"image-keyboard-response",308,256899,"0.0-4.98-2.98","46d0uard7gtt24q",628,"91.csv","","null","resources/images/coin2.png","null","",NA,NA,NA,NA,""
"image-keyboard-response",309,256958,"0.0-4.99-0.99","46d0uard7gtt24q",628,"91.csv","","58.3000000002794","resources/trios/L1T4A2.jpg","37","restless",0.3,0.6,0.5,0.766871412774787,"false"
"image-keyboard-response",310,257371,"0.0-4.99-1.99","46d0uard7gtt24q",628,"91.csv","","null","resources/maskTrios/L1BB.jpg","null","",NA,NA,NA,NA,""
"image-keyboard-response",311,258584,"0.0-4.99-2.99","46d0uard7gtt24q",628,"91.csv","","null","resources/images/fishbone.png","null","",NA,NA,NA,NA,""
"image-keyboard-response",312,258805,"0.0-4.100-0.100","46d0uard7gtt24q",628,"91.csv","","220.60000000009313","resources/trios/L1T4A2.jpg","37","restless",0.3,0.6,0.5,0.584011675359944,"false"
"image-keyboard-response",313,259220,"0.0-4.100-1.100","46d0uard7gtt24q",628,"91.csv","","null","resources/maskTrios/L1BB.jpg","null","",NA,NA,NA,NA,""
"image-keyboard-response",314,260436,"0.0-4.100-2.100","46d0uard7gtt24q",628,"91.csv","","null","resources/images/fishbone.png","null","",NA,NA,NA,NA,""
"image-keyboard-response",315,260630,"0.0-4.101-0.101","46d0uard7gtt24q",628,"91.csv","","193.09999999962747","resources/trios/L1T4A2.jpg","38","restless",0.3,0.6,0.5,0.462831753925492,"true"
"image-keyboard-response",316,261036,"0.0-4.101-1.101","46d0uard7gtt24q",628,"91.csv","","null","resources/maskTrios/BT4B.jpg","null","",NA,NA,NA,NA,""
"image-keyboard-response",317,262247,"0.0-4.101-2.101","46d0uard7gtt24q",628,"91.csv","","null","resources/images/coin2.png","null","",NA,NA,NA,NA,""
"image-keyboard-response",318,262461,"0.0-4.102-0.102","46d0uard7gtt24q",628,"91.csv","","214","resources/trios/L1T4A2.jpg","38","restless",0.3,0.6,0.5,0.802556312275302,"false"
"image-keyboard-response",319,262867,"0.0-4.102-1.102","46d0uard7gtt24q",628,"91.csv","","null","resources/maskTrios/BT4B.jpg","null","",NA,NA,NA,NA,""
"image-keyboard-response",320,264069,"0.0-4.102-2.102","46d0uard7gtt24q",628,"91.csv","","null","resources/images/fishbone.png","null","",NA,NA,NA,NA,""
"image-keyboard-response",321,264117,"0.0-4.103-0.103","46d0uard7gtt24q",628,"91.csv","","47","resources/trios/L1T4A2.jpg","39","restless",0.3,0.6,0.5,0.227734831421922,"true"
"image-keyboard-response",322,264526,"0.0-4.103-1.103","46d0uard7gtt24q",628,"91.csv","","null","resources/maskTrios/BBA2.jpg","null","",NA,NA,NA,NA,""
"image-keyboard-response",323,265731,"0.0-4.103-2.103","46d0uard7gtt24q",628,"91.csv","","null","resources/images/coin2.png","null","",NA,NA,NA,NA,""
"image-keyboard-response",324,265885,"0.0-4.104-0.104","46d0uard7gtt24q",628,"91.csv","","154","resources/trios/L1T4A2.jpg","39","restless",0.3,0.6,0.5,0.359798432859299,"true"
"image-keyboard-response",325,266297,"0.0-4.104-1.104","46d0uard7gtt24q",628,"91.csv","","null","resources/maskTrios/BBA2.jpg","null","",NA,NA,NA,NA,""
"image-keyboard-response",326,267503,"0.0-4.104-2.104","46d0uard7gtt24q",628,"91.csv","","null","resources/images/coin2.png","null","",NA,NA,NA,NA,""
"image-keyboard-response",327,267510,"0.0-4.105-0.105","46d0uard7gtt24q",628,"91.csv","","6.399999999906868","resources/trios/L1T4A2.jpg","39","restless",0.2,0.6,0.5,0.196181818196841,"true"
"image-keyboard-response",328,267911,"0.0-4.105-1.105","46d0uard7gtt24q",628,"91.csv","","null","resources/maskTrios/BBA2.jpg","null","",NA,NA,NA,NA,""
"image-keyboard-response",329,269116,"0.0-4.105-2.105","46d0uard7gtt24q",628,"91.csv","","null","resources/images/coin2.png","null","",NA,NA,NA,NA,""
"image-keyboard-response",330,269237,"0.0-4.106-0.106","46d0uard7gtt24q",628,"91.csv","","120.89999999990687","resources/trios/L1T4A2.jpg","39","restless",0.2,0.6,0.5,0.0806240871220805,"true"
"image-keyboard-response",331,269641,"0.0-4.106-1.106","46d0uard7gtt24q",628,"91.csv","","null","resources/maskTrios/BBA2.jpg","null","",NA,NA,NA,NA,""
"image-keyboard-response",332,270849,"0.0-4.106-2.106","46d0uard7gtt24q",628,"91.csv","","null","resources/images/coin2.png","null","",NA,NA,NA,NA,""
"image-keyboard-response",333,270917,"0.0-4.107-0.107","46d0uard7gtt24q",628,"91.csv","","67.89999999990687","resources/trios/L1T4A2.jpg","39","restless",0.2,0.6,0.5,0.493216821342534,"true"
"image-keyboard-response",334,271321,"0.0-4.107-1.107","46d0uard7gtt24q",628,"91.csv","","null","resources/maskTrios/BBA2.jpg","null","",NA,NA,NA,NA,""
"image-keyboard-response",335,272531,"0.0-4.107-2.107","46d0uard7gtt24q",628,"91.csv","","null","resources/images/coin2.png","null","",NA,NA,NA,NA,""
"image-keyboard-response",336,272949,"0.0-4.108-0.108","46d0uard7gtt24q",628,"91.csv","","417.89999999990687","resources/trios/L1T4A2.jpg","39","restless",0.2,0.6,0.5,0.462404003275358,"true"
"image-keyboard-response",337,273366,"0.0-4.108-1.108","46d0uard7gtt24q",628,"91.csv","","null","resources/maskTrios/BBA2.jpg","null","",NA,NA,NA,NA,""
"image-keyboard-response",338,274575,"0.0-4.108-2.108","46d0uard7gtt24q",628,"91.csv","","null","resources/images/coin2.png","null","",NA,NA,NA,NA,""
"image-keyboard-response",339,274822,"0.0-4.109-0.109","46d0uard7gtt24q",628,"91.csv","","246.10000000009313","resources/trios/L1T4A2.jpg","39","restless",0.2,0.6,0.5,0.932692707246262,"false"
"image-keyboard-response",340,275238,"0.0-4.109-1.109","46d0uard7gtt24q",628,"91.csv","","null","resources/maskTrios/BBA2.jpg","null","",NA,NA,NA,NA,""
"image-keyboard-response",341,276445,"0.0-4.109-2.109","46d0uard7gtt24q",628,"91.csv","","null","resources/images/fishbone.png","null","",NA,NA,NA,NA,""
"image-keyboard-response",342,276662,"0.0-4.110-0.110","46d0uard7gtt24q",628,"91.csv","","215.70000000018626","resources/trios/L1T4A2.jpg","38","restless",0.2,0.6,0.5,0.486910271819758,"true"
"image-keyboard-response",343,277077,"0.0-4.110-1.110","46d0uard7gtt24q",628,"91.csv","","null","resources/maskTrios/BT4B.jpg","null","",NA,NA,NA,NA,""
"image-keyboard-response",344,278283,"0.0-4.110-2.110","46d0uard7gtt24q",628,"91.csv","","null","resources/images/coin2.png","null","",NA,NA,NA,NA,""
"image-keyboard-response",345,278509,"0.0-4.111-0.111","46d0uard7gtt24q",628,"91.csv","","225.60000000009313","resources/trios/L1T4A2.jpg","38","restless",0.3,0.6,0.5,0.0997152064842501,"true"
"image-keyboard-response",346,278920,"0.0-4.111-1.111","46d0uard7gtt24q",628,"91.csv","","null","resources/maskTrios/BT4B.jpg","null","",NA,NA,NA,NA,""
"image-keyboard-response",347,280122,"0.0-4.111-2.111","46d0uard7gtt24q",628,"91.csv","","null","resources/images/coin2.png","null","",NA,NA,NA,NA,""
"image-keyboard-response",348,280317,"0.0-4.112-0.112","46d0uard7gtt24q",628,"91.csv","","194.59999999962747","resources/trios/L1T4A2.jpg","38","restless",0.3,0.6,0.5,0.150734303739098,"true"
"image-keyboard-response",349,280723,"0.0-4.112-1.112","46d0uard7gtt24q",628,"91.csv","","null","resources/maskTrios/BT4B.jpg","null","",NA,NA,NA,NA,""
"image-keyboard-response",350,281935,"0.0-4.112-2.112","46d0uard7gtt24q",628,"91.csv","","null","resources/images/coin2.png","null","",NA,NA,NA,NA,""
"image-keyboard-response",351,282117,"0.0-4.113-0.113","46d0uard7gtt24q",628,"91.csv","","181.60000000009313","resources/trios/L1T4A2.jpg","38","restless",0.3,0.6,0.5,0.212941312436601,"true"
"image-keyboard-response",352,282532,"0.0-4.113-1.113","46d0uard7gtt24q",628,"91.csv","","null","resources/maskTrios/BT4B.jpg","null","",NA,NA,NA,NA,""
"image-keyboard-response",353,283744,"0.0-4.113-2.113","46d0uard7gtt24q",628,"91.csv","","null","resources/images/coin2.png","null","",NA,NA,NA,NA,""
"image-keyboard-response",354,283877,"0.0-4.114-0.114","46d0uard7gtt24q",628,"91.csv","","133.09999999962747","resources/trios/L1T4A2.jpg","38","restless",0.3,0.6,0.5,0.652182314554366,"false"
"image-keyboard-response",355,284292,"0.0-4.114-1.114","46d0uard7gtt24q",628,"91.csv","","null","resources/maskTrios/BT4B.jpg","null","",NA,NA,NA,NA,""
"image-keyboard-response",356,285503,"0.0-4.114-2.114","46d0uard7gtt24q",628,"91.csv","","null","resources/images/fishbone.png","null","",NA,NA,NA,NA,""
"image-keyboard-response",357,285613,"0.0-4.115-0.115","46d0uard7gtt24q",628,"91.csv","","109.90000000037253","resources/trios/L1T4A2.jpg","37","restless",0.3,0.6,0.5,0.628652873741809,"false"
"image-keyboard-response",358,286026,"0.0-4.115-1.115","46d0uard7gtt24q",628,"91.csv","","null","resources/maskTrios/L1BB.jpg","null","",NA,NA,NA,NA,""
"image-keyboard-response",359,287240,"0.0-4.115-2.115","46d0uard7gtt24q",628,"91.csv","","null","resources/images/fishbone.png","null","",NA,NA,NA,NA,""
"image-keyboard-response",360,287414,"0.0-4.116-0.116","46d0uard7gtt24q",628,"91.csv","","173.8000000002794","resources/trios/L1T4A2.jpg","39","restless",0.2,0.6,0.5,0.608794301168049,"false"
"image-keyboard-response",361,287827,"0.0-4.116-1.116","46d0uard7gtt24q",628,"91.csv","","null","resources/maskTrios/BBA2.jpg","null","",NA,NA,NA,NA,""
"image-keyboard-response",362,289038,"0.0-4.116-2.116","46d0uard7gtt24q",628,"91.csv","","null","resources/images/fishbone.png","null","",NA,NA,NA,NA,""
"image-keyboard-response",363,289254,"0.0-4.117-0.117","46d0uard7gtt24q",628,"91.csv","","215.39999999990687","resources/trios/L1T4A2.jpg","37","restless",0.2,0.6,0.5,0.718661065923778,"false"
"image-keyboard-response",364,289668,"0.0-4.117-1.117","46d0uard7gtt24q",628,"91.csv","","null","resources/maskTrios/L1BB.jpg","null","",NA,NA,NA,NA,""
"image-keyboard-response",365,290875,"0.0-4.117-2.117","46d0uard7gtt24q",628,"91.csv","","null","resources/images/fishbone.png","null","",NA,NA,NA,NA,""
"image-keyboard-response",366,291102,"0.0-4.118-0.118","46d0uard7gtt24q",628,"91.csv","","227.09999999962747","resources/trios/L1T4A2.jpg","39","restless",0.2,0.6,0.5,0.933918674837339,"false"
"image-keyboard-response",367,291512,"0.0-4.118-1.118","46d0uard7gtt24q",628,"91.csv","","null","resources/maskTrios/BBA2.jpg","null","",NA,NA,NA,NA,""
"image-keyboard-response",368,292719,"0.0-4.118-2.118","46d0uard7gtt24q",628,"91.csv","","null","resources/images/fishbone.png","null","",NA,NA,NA,NA,""
"image-keyboard-response",369,292893,"0.0-4.119-0.119","46d0uard7gtt24q",628,"91.csv","","173.29999999981374","resources/trios/L1T4A2.jpg","38","restless",0.3,0.6,0.5,0.713489312993124,"false"
"image-keyboard-response",370,293305,"0.0-4.119-1.119","46d0uard7gtt24q",628,"91.csv","","null","resources/maskTrios/BT4B.jpg","null","",NA,NA,NA,NA,""
"image-keyboard-response",371,294512,"0.0-4.119-2.119","46d0uard7gtt24q",628,"91.csv","","null","resources/images/fishbone.png","null","",NA,NA,NA,NA,""
"image-keyboard-response",372,294717,"0.0-4.120-0.120","46d0uard7gtt24q",628,"91.csv","","204.29999999981374","resources/trios/L1T4A2.jpg","38","restless",0.3,0.6,0.5,0.255731366421041,"true"
"image-keyboard-response",373,295119,"0.0-4.120-1.120","46d0uard7gtt24q",628,"91.csv","","null","resources/maskTrios/BT4B.jpg","null","",NA,NA,NA,NA,""
"image-keyboard-response",374,296335,"0.0-4.120-2.120","46d0uard7gtt24q",628,"91.csv","","null","resources/images/coin2.png","null","",NA,NA,NA,NA,""
"image-keyboard-response",375,296533,"0.0-4.121-0.121","46d0uard7gtt24q",628,"91.csv","","197.70000000018626","resources/trios/L1T4A2.jpg","38","restless",0.3,0.6,0.5,0.538067837313897,"true"
"image-keyboard-response",376,296950,"0.0-4.121-1.121","46d0uard7gtt24q",628,"91.csv","","null","resources/maskTrios/BT4B.jpg","null","",NA,NA,NA,NA,""
"image-keyboard-response",377,298160,"0.0-4.121-2.121","46d0uard7gtt24q",628,"91.csv","","null","resources/images/coin2.png","null","",NA,NA,NA,NA,""
"image-keyboard-response",378,298374,"0.0-4.122-0.122","46d0uard7gtt24q",628,"91.csv","","212.60000000009313","resources/trios/L1T4A2.jpg","38","restless",0.4,0.6,0.6,0.378922046581143,"true"
"image-keyboard-response",379,298791,"0.0-4.122-1.122","46d0uard7gtt24q",628,"91.csv","","null","resources/maskTrios/BT4B.jpg","null","",NA,NA,NA,NA,""
"image-keyboard-response",380,300003,"0.0-4.122-2.122","46d0uard7gtt24q",628,"91.csv","","null","resources/images/coin2.png","null","",NA,NA,NA,NA,""
"image-keyboard-response",381,300278,"0.0-4.123-0.123","46d0uard7gtt24q",628,"91.csv","","274.3000000002794","resources/trios/L1T4A2.jpg","38","restless",0.4,0.6,0.6,0.892080301214292,"false"
"image-keyboard-response",382,300682,"0.0-4.123-1.123","46d0uard7gtt24q",628,"91.csv","","null","resources/maskTrios/BT4B.jpg","null","",NA,NA,NA,NA,""
"image-keyboard-response",383,301889,"0.0-4.123-2.123","46d0uard7gtt24q",628,"91.csv","","null","resources/images/fishbone.png","null","",NA,NA,NA,NA,""
"image-keyboard-response",384,302109,"0.0-4.124-0.124","46d0uard7gtt24q",628,"91.csv","","220.20000000018626","resources/trios/L1T4A2.jpg","39","restless",0.4,0.6,0.6,0.514013249272481,"true"
"image-keyboard-response",385,302522,"0.0-4.124-1.124","46d0uard7gtt24q",628,"91.csv","","null","resources/maskTrios/BBA2.jpg","null","",NA,NA,NA,NA,""
"image-keyboard-response",386,303730,"0.0-4.124-2.124","46d0uard7gtt24q",628,"91.csv","","null","resources/images/coin2.png","null","",NA,NA,NA,NA,""
"image-keyboard-response",387,303933,"0.0-4.125-0.125","46d0uard7gtt24q",628,"91.csv","","202.29999999981374","resources/trios/L1T4A2.jpg","38","restless",0.4,0.6,0.6,0.450655001216366,"true"
"image-keyboard-response",388,304335,"0.0-4.125-1.125","46d0uard7gtt24q",628,"91.csv","","null","resources/maskTrios/BT4B.jpg","null","",NA,NA,NA,NA,""
"image-keyboard-response",389,305551,"0.0-4.125-2.125","46d0uard7gtt24q",628,"91.csv","","null","resources/images/coin2.png","null","",NA,NA,NA,NA,""
"image-keyboard-response",390,305782,"0.0-4.126-0.126","46d0uard7gtt24q",628,"91.csv","","230.39999999990687","resources/trios/L1T4A2.jpg","38","restless",0.4,0.6,0.6,0.796089189204435,"false"
"image-keyboard-response",391,306184,"0.0-4.126-1.126","46d0uard7gtt24q",628,"91.csv","","null","resources/maskTrios/BT4B.jpg","null","",NA,NA,NA,NA,""
"image-keyboard-response",392,307397,"0.0-4.126-2.126","46d0uard7gtt24q",628,"91.csv","","null","resources/images/fishbone.png","null","",NA,NA,NA,NA,""
"image-keyboard-response",393,307613,"0.0-4.127-0.127","46d0uard7gtt24q",628,"91.csv","","215.70000000018626","resources/trios/L1T4A2.jpg","39","restless",0.4,0.6,0.6,0.671172087339391,"false"
"image-keyboard-response",394,308030,"0.0-4.127-1.127","46d0uard7gtt24q",628,"91.csv","","null","resources/maskTrios/BBA2.jpg","null","",NA,NA,NA,NA,""
"image-keyboard-response",395,309238,"0.0-4.127-2.127","46d0uard7gtt24q",628,"91.csv","","null","resources/images/fishbone.png","null","",NA,NA,NA,NA,""
"image-keyboard-response",396,309485,"0.0-4.128-0.128","46d0uard7gtt24q",628,"91.csv","","247.10000000009313","resources/trios/L1T4A2.jpg","39","restless",0.4,0.6,0.6,0.0991523118892019,"true"
"image-keyboard-response",397,309903,"0.0-4.128-1.128","46d0uard7gtt24q",628,"91.csv","","null","resources/maskTrios/BBA2.jpg","null","",NA,NA,NA,NA,""
"image-keyboard-response",398,311117,"0.0-4.128-2.128","46d0uard7gtt24q",628,"91.csv","","null","resources/images/coin2.png","null","",NA,NA,NA,NA,""
"image-keyboard-response",399,311437,"0.0-4.129-0.129","46d0uard7gtt24q",628,"91.csv","","319.79999999981374","resources/trios/L1T4A2.jpg","38","restless",0.4,0.6,0.6,0.903207594310322,"false"
"image-keyboard-response",400,311845,"0.0-4.129-1.129","46d0uard7gtt24q",628,"91.csv","","null","resources/maskTrios/BT4B.jpg","null","",NA,NA,NA,NA,""
"image-keyboard-response",401,313051,"0.0-4.129-2.129","46d0uard7gtt24q",628,"91.csv","","null","resources/images/fishbone.png","null","",NA,NA,NA,NA,""
"image-keyboard-response",402,313277,"0.0-4.130-0.130","46d0uard7gtt24q",628,"91.csv","","225.60000000009313","resources/trios/L1T4A2.jpg","37","restless",0.4,0.6,0.6,0.257705655450487,"true"
"image-keyboard-response",403,313689,"0.0-4.130-1.130","46d0uard7gtt24q",628,"91.csv","","null","resources/maskTrios/L1BB.jpg","null","",NA,NA,NA,NA,""
"image-keyboard-response",404,314901,"0.0-4.130-2.130","46d0uard7gtt24q",628,"91.csv","","null","resources/images/coin2.png","null","",NA,NA,NA,NA,""
"image-keyboard-response",405,315109,"0.0-4.131-0.131","46d0uard7gtt24q",628,"91.csv","","208","resources/trios/L1T4A2.jpg","38","restless",0.4,0.6,0.6,0.253213847491878,"true"
"image-keyboard-response",406,315516,"0.0-4.131-1.131","46d0uard7gtt24q",628,"91.csv","","null","resources/maskTrios/BT4B.jpg","null","",NA,NA,NA,NA,""
"image-keyboard-response",407,316722,"0.0-4.131-2.131","46d0uard7gtt24q",628,"91.csv","","null","resources/images/coin2.png","null","",NA,NA,NA,NA,""
"image-keyboard-response",408,316981,"0.0-4.132-0.132","46d0uard7gtt24q",628,"91.csv","","258.59999999962747","resources/trios/L1T4A2.jpg","39","restless",0.4,0.6,0.6,0.105600789593097,"true"
"image-keyboard-response",409,317383,"0.0-4.132-1.132","46d0uard7gtt24q",628,"91.csv","","null","resources/maskTrios/BBA2.jpg","null","",NA,NA,NA,NA,""
"image-keyboard-response",410,318598,"0.0-4.132-2.132","46d0uard7gtt24q",628,"91.csv","","null","resources/images/coin2.png","null","",NA,NA,NA,NA,""
"image-keyboard-response",411,318917,"0.0-4.133-0.133","46d0uard7gtt24q",628,"91.csv","","318.5","resources/trios/L1T4A2.jpg","38","restless",0.4,0.6,0.5,0.225442101836248,"true"
"image-keyboard-response",412,319327,"0.0-4.133-1.133","46d0uard7gtt24q",628,"91.csv","","null","resources/maskTrios/BT4B.jpg","null","",NA,NA,NA,NA,""
"image-keyboard-response",413,320529,"0.0-4.133-2.133","46d0uard7gtt24q",628,"91.csv","","null","resources/images/coin2.png","null","",NA,NA,NA,NA,""
"image-keyboard-response",414,320726,"0.0-4.134-0.134","46d0uard7gtt24q",628,"91.csv","","195.60000000009313","resources/trios/L1T4A2.jpg","37","restless",0.4,0.6,0.5,0.0186497819263196,"true"
"image-keyboard-response",415,321133,"0.0-4.134-1.134","46d0uard7gtt24q",628,"91.csv","","null","resources/maskTrios/L1BB.jpg","null","",NA,NA,NA,NA,""
"image-keyboard-response",416,322348,"0.0-4.134-2.134","46d0uard7gtt24q",628,"91.csv","","null","resources/images/coin2.png","null","",NA,NA,NA,NA,""
"image-keyboard-response",417,322589,"0.0-4.135-0.135","46d0uard7gtt24q",628,"91.csv","","240.29999999981374","resources/trios/L1T4A2.jpg","38","restless",0.4,0.6,0.5,0.9642897072696,"false"
"image-keyboard-response",418,322994,"0.0-4.135-1.135","46d0uard7gtt24q",628,"91.csv","","null","resources/maskTrios/BT4B.jpg","null","",NA,NA,NA,NA,""
"image-keyboard-response",419,324201,"0.0-4.135-2.135","46d0uard7gtt24q",628,"91.csv","","null","resources/images/fishbone.png","null","",NA,NA,NA,NA,""
"image-keyboard-response",420,324397,"0.0-4.136-0.136","46d0uard7gtt24q",628,"91.csv","","195.29999999981374","resources/trios/L1T4A2.jpg","37","restless",0.4,0.6,0.5,0.172129895283207,"true"
"image-keyboard-response",421,324814,"0.0-4.136-1.136","46d0uard7gtt24q",628,"91.csv","","null","resources/maskTrios/L1BB.jpg","null","",NA,NA,NA,NA,""
"image-keyboard-response",422,326018,"0.0-4.136-2.136","46d0uard7gtt24q",628,"91.csv","","null","resources/images/coin2.png","null","",NA,NA,NA,NA,""
"image-keyboard-response",423,326222,"0.0-4.137-0.137","46d0uard7gtt24q",628,"91.csv","","203.20000000018626","resources/trios/L1T4A2.jpg","39","restless",0.4,0.6,0.5,0.114691349110597,"true"
"image-keyboard-response",424,326634,"0.0-4.137-1.137","46d0uard7gtt24q",628,"91.csv","","null","resources/maskTrios/BBA2.jpg","null","",NA,NA,NA,NA,""
"image-keyboard-response",425,327840,"0.0-4.137-2.137","46d0uard7gtt24q",628,"91.csv","","null","resources/images/coin2.png","null","",NA,NA,NA,NA,""
"image-keyboard-response",426,328038,"0.0-4.138-0.138","46d0uard7gtt24q",628,"91.csv","","197.3000000002794","resources/trios/L1T4A2.jpg","37","restless",0.4,0.7,0.5,0.120458431159523,"true"
"image-keyboard-response",427,328452,"0.0-4.138-1.138","46d0uard7gtt24q",628,"91.csv","","null","resources/maskTrios/L1BB.jpg","null","",NA,NA,NA,NA,""
"image-keyboard-response",428,329661,"0.0-4.138-2.138","46d0uard7gtt24q",628,"91.csv","","null","resources/images/coin2.png","null","",NA,NA,NA,NA,""
"image-keyboard-response",429,329909,"0.0-4.139-0.139","46d0uard7gtt24q",628,"91.csv","","247.40000000037253","resources/trios/L1T4A2.jpg","39","restless",0.4,0.7,0.5,0.788454678553918,"false"
"image-keyboard-response",430,330324,"0.0-4.139-1.139","46d0uard7gtt24q",628,"91.csv","","null","resources/maskTrios/BBA2.jpg","null","",NA,NA,NA,NA,""
"image-keyboard-response",431,331533,"0.0-4.139-2.139","46d0uard7gtt24q",628,"91.csv","","null","resources/images/fishbone.png","null","",NA,NA,NA,NA,""
"image-keyboard-response",432,331710,"0.0-4.140-0.140","46d0uard7gtt24q",628,"91.csv","","176.5","resources/trios/L1T4A2.jpg","37","restless",0.4,0.7,0.5,0.328190213523153,"true"
"image-keyboard-response",433,332119,"0.0-4.140-1.140","46d0uard7gtt24q",628,"91.csv","","null","resources/maskTrios/L1BB.jpg","null","",NA,NA,NA,NA,""
"image-keyboard-response",434,333322,"0.0-4.140-2.140","46d0uard7gtt24q",628,"91.csv","","null","resources/images/coin2.png","null","",NA,NA,NA,NA,""
"image-keyboard-response",435,333469,"0.0-4.141-0.141","46d0uard7gtt24q",628,"91.csv","","146.39999999990687","resources/trios/L1T4A2.jpg","37","restless",0.4,0.7,0.5,0.297235581200869,"true"
"image-keyboard-response",436,333879,"0.0-4.141-1.141","46d0uard7gtt24q",628,"91.csv","","null","resources/maskTrios/L1BB.jpg","null","",NA,NA,NA,NA,""
"image-keyboard-response",437,335092,"0.0-4.141-2.141","46d0uard7gtt24q",628,"91.csv","","null","resources/images/coin2.png","null","",NA,NA,NA,NA,""
"image-keyboard-response",438,335301,"0.0-4.142-0.142","46d0uard7gtt24q",628,"91.csv","","209","resources/trios/L1T4A2.jpg","37","restless",0.4,0.7,0.5,0.237106064288652,"true"
"image-keyboard-response",439,335706,"0.0-4.142-1.142","46d0uard7gtt24q",628,"91.csv","","null","resources/maskTrios/L1BB.jpg","null","",NA,NA,NA,NA,""
"image-keyboard-response",440,336909,"0.0-4.142-2.142","46d0uard7gtt24q",628,"91.csv","","null","resources/images/coin2.png","null","",NA,NA,NA,NA,""
"image-keyboard-response",441,337061,"0.0-4.143-0.143","46d0uard7gtt24q",628,"91.csv","","151.20000000018626","resources/trios/L1T4A2.jpg","37","restless",0.4,0.7,0.5,0.358273447502503,"true"
"image-keyboard-response",442,337466,"0.0-4.143-1.143","46d0uard7gtt24q",628,"91.csv","","null","resources/maskTrios/L1BB.jpg","null","",NA,NA,NA,NA,""
"image-keyboard-response",443,338671,"0.0-4.143-2.143","46d0uard7gtt24q",628,"91.csv","","null","resources/images/coin2.png","null","",NA,NA,NA,NA,""
"image-keyboard-response",444,338853,"0.0-4.144-0.144","46d0uard7gtt24q",628,"91.csv","","181.39999999990687","resources/trios/L1T4A2.jpg","37","restless",0.4,0.7,0.5,0.0190502220930044,"true"
"image-keyboard-response",445,339255,"0.0-4.144-1.144","46d0uard7gtt24q",628,"91.csv","","null","resources/maskTrios/L1BB.jpg","null","",NA,NA,NA,NA,""
"image-keyboard-response",446,340460,"0.0-4.144-2.144","46d0uard7gtt24q",628,"91.csv","","null","resources/images/coin2.png","null","",NA,NA,NA,NA,""
"image-keyboard-response",447,340821,"0.0-4.145-0.145","46d0uard7gtt24q",628,"91.csv","","360.60000000009313","resources/trios/L1T4A2.jpg","37","restless",0.4,0.7,0.5,0.094724529729177,"true"
"image-keyboard-response",448,341237,"0.0-4.145-1.145","46d0uard7gtt24q",628,"91.csv","","null","resources/maskTrios/L1BB.jpg","null","",NA,NA,NA,NA,""
"image-keyboard-response",449,342452,"0.0-4.145-2.145","46d0uard7gtt24q",628,"91.csv","","null","resources/images/coin2.png","null","",NA,NA,NA,NA,""
"image-keyboard-response",450,342662,"0.0-4.146-0.146","46d0uard7gtt24q",628,"91.csv","","209.29999999981374","resources/trios/L1T4A2.jpg","37","restless",0.4,0.7,0.5,0.578975520218251,"false"
"image-keyboard-response",451,343072,"0.0-4.146-1.146","46d0uard7gtt24q",628,"91.csv","","null","resources/maskTrios/L1BB.jpg","null","",NA,NA,NA,NA,""
"image-keyboard-response",452,344280,"0.0-4.146-2.146","46d0uard7gtt24q",628,"91.csv","","null","resources/images/fishbone.png","null","",NA,NA,NA,NA,""
"image-keyboard-response",453,344533,"0.0-4.147-0.147","46d0uard7gtt24q",628,"91.csv","","252.5","resources/trios/L1T4A2.jpg","39","restless",0.4,0.7,0.5,0.925625891438113,"false"
"image-keyboard-response",454,344945,"0.0-4.147-1.147","46d0uard7gtt24q",628,"91.csv","","null","resources/maskTrios/BBA2.jpg","null","",NA,NA,NA,NA,""
"image-keyboard-response",455,346148,"0.0-4.147-2.147","46d0uard7gtt24q",628,"91.csv","","null","resources/images/fishbone.png","null","",NA,NA,NA,NA,""
"image-keyboard-response",456,346357,"0.0-4.148-0.148","46d0uard7gtt24q",628,"91.csv","","209","resources/trios/L1T4A2.jpg","38","restless",0.4,0.7,0.6,0.887642546687008,"false"
"image-keyboard-response",457,346768,"0.0-4.148-1.148","46d0uard7gtt24q",628,"91.csv","","null","resources/maskTrios/BT4B.jpg","null","",NA,NA,NA,NA,""
"image-keyboard-response",458,347982,"0.0-4.148-2.148","46d0uard7gtt24q",628,"91.csv","","null","resources/images/fishbone.png","null","",NA,NA,NA,NA,""
"image-keyboard-response",459,348182,"0.0-4.149-0.149","46d0uard7gtt24q",628,"91.csv","","198.8000000002794","resources/trios/L1T4A2.jpg","39","restless",0.4,0.7,0.6,0.270883650203915,"true"
"image-keyboard-response",460,348583,"0.0-4.149-1.149","46d0uard7gtt24q",628,"91.csv","","null","resources/maskTrios/BBA2.jpg","null","",NA,NA,NA,NA,""
"image-keyboard-response",461,349792,"0.0-4.149-2.149","46d0uard7gtt24q",628,"91.csv","","null","resources/images/coin2.png","null","",NA,NA,NA,NA,""
"image-keyboard-response",462,350021,"0.0-4.150-0.150","46d0uard7gtt24q",628,"91.csv","","229","resources/trios/L1T4A2.jpg","38","restless",0.4,0.7,0.6,0.289120577582796,"true"
"image-keyboard-response",463,350426,"0.0-4.150-1.150","46d0uard7gtt24q",628,"91.csv","","null","resources/maskTrios/BT4B.jpg","null","",NA,NA,NA,NA,""
"image-keyboard-response",464,351632,"0.0-4.150-2.150","46d0uard7gtt24q",628,"91.csv","","null","resources/images/coin2.png","null","",NA,NA,NA,NA,""
"image-keyboard-response",465,351854,"0.0-4.151-0.151","46d0uard7gtt24q",628,"91.csv","","221.29999999981374","resources/trios/L1T4A2.jpg","37","restless",0.4,0.6,0.6,0.119805694888187,"true"
"image-keyboard-response",466,352262,"0.0-4.151-1.151","46d0uard7gtt24q",628,"91.csv","","null","resources/maskTrios/L1BB.jpg","null","",NA,NA,NA,NA,""
"image-keyboard-response",467,353470,"0.0-4.151-2.151","46d0uard7gtt24q",628,"91.csv","","null","resources/images/coin2.png","null","",NA,NA,NA,NA,""
"image-keyboard-response",468,353549,"0.0-4.152-0.152","46d0uard7gtt24q",628,"91.csv","","78.89999999990687","resources/trios/L1T4A2.jpg","39","restless",0.4,0.6,0.6,0.0569138038704031,"true"
"image-keyboard-response",469,353964,"0.0-4.152-1.152","46d0uard7gtt24q",628,"91.csv","","null","resources/maskTrios/BBA2.jpg","null","",NA,NA,NA,NA,""
"image-keyboard-response",470,355168,"0.0-4.152-2.152","46d0uard7gtt24q",628,"91.csv","","null","resources/images/coin2.png","null","",NA,NA,NA,NA,""
"image-keyboard-response",471,355389,"0.0-4.153-0.153","46d0uard7gtt24q",628,"91.csv","","220.40000000037253","resources/trios/L1T4A2.jpg","39","restless",0.4,0.7,0.6,0.753061714193032,"false"
"image-keyboard-response",472,355800,"0.0-4.153-1.153","46d0uard7gtt24q",628,"91.csv","","null","resources/maskTrios/BBA2.jpg","null","",NA,NA,NA,NA,""
"image-keyboard-response",473,357003,"0.0-4.153-2.153","46d0uard7gtt24q",628,"91.csv","","null","resources/images/fishbone.png","null","",NA,NA,NA,NA,""
"image-keyboard-response",474,357221,"0.0-4.154-0.154","46d0uard7gtt24q",628,"91.csv","","217.29999999981374","resources/trios/L1T4A2.jpg","38","restless",0.4,0.7,0.6,0.622997882938706,"true"
"image-keyboard-response",475,357637,"0.0-4.154-1.154","46d0uard7gtt24q",628,"91.csv","","null","resources/maskTrios/BT4B.jpg","null","",NA,NA,NA,NA,""
"image-keyboard-response",476,358849,"0.0-4.154-2.154","46d0uard7gtt24q",628,"91.csv","","null","resources/images/coin2.png","null","",NA,NA,NA,NA,""
"image-keyboard-response",477,359069,"0.0-4.155-0.155","46d0uard7gtt24q",628,"91.csv","","219.29999999981374","resources/trios/L1T4A2.jpg","38","restless",0.4,0.7,0.6,0.276973163414985,"true"
"image-keyboard-response",478,359474,"0.0-4.155-1.155","46d0uard7gtt24q",628,"91.csv","","null","resources/maskTrios/BT4B.jpg","null","",NA,NA,NA,NA,""
"image-keyboard-response",479,360679,"0.0-4.155-2.155","46d0uard7gtt24q",628,"91.csv","","null","resources/images/coin2.png","null","",NA,NA,NA,NA,""
"image-keyboard-response",480,360877,"0.0-4.156-0.156","46d0uard7gtt24q",628,"91.csv","","197","resources/trios/L1T4A2.jpg","38","restless",0.4,0.6,0.6,0.413942458623986,"true"
"image-keyboard-response",481,361280,"0.0-4.156-1.156","46d0uard7gtt24q",628,"91.csv","","null","resources/maskTrios/BT4B.jpg","null","",NA,NA,NA,NA,""
"image-keyboard-response",482,362493,"0.0-4.156-2.156","46d0uard7gtt24q",628,"91.csv","","null","resources/images/coin2.png","null","",NA,NA,NA,NA,""
"image-keyboard-response",483,363021,"0.0-4.157-0.157","46d0uard7gtt24q",628,"91.csv","","527.5","resources/trios/L1T4A2.jpg","38","restless",0.4,0.5,0.6,0.584719506118366,"false"
"image-keyboard-response",484,363436,"0.0-4.157-1.157","46d0uard7gtt24q",628,"91.csv","","null","resources/maskTrios/BT4B.jpg","null","",NA,NA,NA,NA,""
"image-keyboard-response",485,364647,"0.0-4.157-2.157","46d0uard7gtt24q",628,"91.csv","","null","resources/images/fishbone.png","null","",NA,NA,NA,NA,""
"image-keyboard-response",486,365013,"0.0-4.158-0.158","46d0uard7gtt24q",628,"91.csv","","365.8000000002794","resources/trios/L1T4A2.jpg","38","restless",0.4,0.5,0.6,0.717122796338188,"false"
"image-keyboard-response",487,365421,"0.0-4.158-1.158","46d0uard7gtt24q",628,"91.csv","","null","resources/maskTrios/BT4B.jpg","null","",NA,NA,NA,NA,""
"image-keyboard-response",488,366627,"0.0-4.158-2.158","46d0uard7gtt24q",628,"91.csv","","null","resources/images/fishbone.png","null","",NA,NA,NA,NA,""
"image-keyboard-response",489,366693,"0.0-4.159-0.159","46d0uard7gtt24q",628,"91.csv","","65.29999999981374","resources/trios/L1T4A2.jpg","38","restless",0.5,0.5,0.7,0.303716784489425,"true"
"image-keyboard-response",490,367103,"0.0-4.159-1.159","46d0uard7gtt24q",628,"91.csv","","null","resources/maskTrios/BT4B.jpg","null","",NA,NA,NA,NA,""
"image-keyboard-response",491,368306,"0.0-4.159-2.159","46d0uard7gtt24q",628,"91.csv","","null","resources/images/coin2.png","null","",NA,NA,NA,NA,""
"image-keyboard-response",492,368701,"0.0-4.160-0.160","46d0uard7gtt24q",628,"91.csv","","394.60000000009313","resources/trios/L1T4A2.jpg","37","restless",0.5,0.5,0.8,0.615894423416645,"false"
"image-keyboard-response",493,369116,"0.0-4.160-1.160","46d0uard7gtt24q",628,"91.csv","","null","resources/maskTrios/L1BB.jpg","null","",NA,NA,NA,NA,""
"image-keyboard-response",494,370331,"0.0-4.160-2.160","46d0uard7gtt24q",628,"91.csv","","null","resources/images/fishbone.png","null","",NA,NA,NA,NA,""
"image-keyboard-response",495,370773,"0.0-4.161-0.161","46d0uard7gtt24q",628,"91.csv","","442","resources/trios/L1T4A2.jpg","39","restless",0.5,0.5,0.8,0.00164375672964812,"true"
"image-keyboard-response",496,371185,"0.0-4.161-1.161","46d0uard7gtt24q",628,"91.csv","","null","resources/maskTrios/BBA2.jpg","null","",NA,NA,NA,NA,""
"image-keyboard-response",497,372387,"0.0-4.161-2.161","46d0uard7gtt24q",628,"91.csv","","null","resources/images/coin2.png","null","",NA,NA,NA,NA,""
"image-keyboard-response",498,373381,"0.0-4.162-0.162","46d0uard7gtt24q",628,"91.csv","","993.1999999997206","resources/trios/L1T4A2.jpg","39","restless",0.5,0.5,0.8,0.224972370786334,"true"
"image-keyboard-response",499,373789,"0.0-4.162-1.162","46d0uard7gtt24q",628,"91.csv","","null","resources/maskTrios/BBA2.jpg","null","",NA,NA,NA,NA,""
"image-keyboard-response",500,374992,"0.0-4.162-2.162","46d0uard7gtt24q",628,"91.csv","","null","resources/images/coin2.png","null","",NA,NA,NA,NA,""
"image-keyboard-response",501,375270,"0.0-4.163-0.163","46d0uard7gtt24q",628,"91.csv","","277","resources/trios/L1T4A2.jpg","39","restless",0.5,0.5,0.8,0.798549120910013,"true"
"image-keyboard-response",502,375671,"0.0-4.163-1.163","46d0uard7gtt24q",628,"91.csv","","null","resources/maskTrios/BBA2.jpg","null","",NA,NA,NA,NA,""
"image-keyboard-response",503,376875,"0.0-4.163-2.163","46d0uard7gtt24q",628,"91.csv","","null","resources/images/coin2.png","null","",NA,NA,NA,NA,""
"image-keyboard-response",504,377901,"0.0-4.164-0.164","46d0uard7gtt24q",628,"91.csv","","1025.2000000001863","resources/trios/L1T4A2.jpg","39","restless",0.5,0.5,0.8,0.00503951279873704,"true"
"image-keyboard-response",505,378310,"0.0-4.164-1.164","46d0uard7gtt24q",628,"91.csv","","null","resources/maskTrios/BBA2.jpg","null","",NA,NA,NA,NA,""
"image-keyboard-response",506,379522,"0.0-4.164-2.164","46d0uard7gtt24q",628,"91.csv","","null","resources/images/coin2.png","null","",NA,NA,NA,NA,""
"image-keyboard-response",507,382717,"0.0-4.165-0.165","46d0uard7gtt24q",628,"91.csv","","3194","resources/trios/L1T4A2.jpg","37","restless",0.5,0.5,0.8,0.232778207866017,"true"
"image-keyboard-response",508,383131,"0.0-4.165-1.165","46d0uard7gtt24q",628,"91.csv","","null","resources/maskTrios/L1BB.jpg","null","",NA,NA,NA,NA,""
"image-keyboard-response",509,384346,"0.0-4.165-2.165","46d0uard7gtt24q",628,"91.csv","","null","resources/images/coin2.png","null","",NA,NA,NA,NA,""
"image-keyboard-response",510,384678,"0.0-4.166-0.166","46d0uard7gtt24q",628,"91.csv","","330.60000000009313","resources/trios/L1T4A2.jpg","37","restless",0.5,0.5,0.8,0.297966976941606,"true"
"image-keyboard-response",511,385088,"0.0-4.166-1.166","46d0uard7gtt24q",628,"91.csv","","null","resources/maskTrios/L1BB.jpg","null","",NA,NA,NA,NA,""
"image-keyboard-response",512,386301,"0.0-4.166-2.166","46d0uard7gtt24q",628,"91.csv","","null","resources/images/coin2.png","null","",NA,NA,NA,NA,""
"image-keyboard-response",513,386502,"0.0-4.167-0.167","46d0uard7gtt24q",628,"91.csv","","200","resources/trios/L1T4A2.jpg","37","restless",0.5,0.5,0.8,0.588735944717453,"false"
"image-keyboard-response",514,386916,"0.0-4.167-1.167","46d0uard7gtt24q",628,"91.csv","","null","resources/maskTrios/L1BB.jpg","null","",NA,NA,NA,NA,""
"image-keyboard-response",515,388121,"0.0-4.167-2.167","46d0uard7gtt24q",628,"91.csv","","null","resources/images/fishbone.png","null","",NA,NA,NA,NA,""
"image-keyboard-response",516,388381,"0.0-4.168-0.168","46d0uard7gtt24q",628,"91.csv","","259.89999999990687","resources/trios/L1T4A2.jpg","39","restless",0.5,0.5,0.8,0.951064632823463,"false"
"image-keyboard-response",517,388784,"0.0-4.168-1.168","46d0uard7gtt24q",628,"91.csv","","null","resources/maskTrios/BBA2.jpg","null","",NA,NA,NA,NA,""
"image-keyboard-response",518,389996,"0.0-4.168-2.168","46d0uard7gtt24q",628,"91.csv","","null","resources/images/fishbone.png","null","",NA,NA,NA,NA,""
"image-keyboard-response",519,390245,"0.0-4.169-0.169","46d0uard7gtt24q",628,"91.csv","","248.29999999981374","resources/trios/L1T4A2.jpg","38","restless",0.5,0.5,0.9,0.858716479281244,"false"
"image-keyboard-response",520,390647,"0.0-4.169-1.169","46d0uard7gtt24q",628,"91.csv","","null","resources/maskTrios/BT4B.jpg","null","",NA,NA,NA,NA,""
"image-keyboard-response",521,391852,"0.0-4.169-2.169","46d0uard7gtt24q",628,"91.csv","","null","resources/images/fishbone.png","null","",NA,NA,NA,NA,""
"image-keyboard-response",522,391997,"0.0-4.170-0.170","46d0uard7gtt24q",628,"91.csv","","144.1999999997206","resources/trios/L1T4A2.jpg","37","restless",0.5,0.5,0.9,0.719547553869146,"false"
"image-keyboard-response",523,392407,"0.0-4.170-1.170","46d0uard7gtt24q",628,"91.csv","","null","resources/maskTrios/L1BB.jpg","null","",NA,NA,NA,NA,""
"image-keyboard-response",524,393612,"0.0-4.170-2.170","46d0uard7gtt24q",628,"91.csv","","null","resources/images/fishbone.png","null","",NA,NA,NA,NA,""
"image-keyboard-response",525,394150,"0.0-4.171-0.171","46d0uard7gtt24q",628,"91.csv","","537.2999999998137","resources/trios/L1T4A2.jpg","37","restless",0.5,0.5,0.9,0.02331610179763,"true"
"image-keyboard-response",526,394564,"0.0-4.171-1.171","46d0uard7gtt24q",628,"91.csv","","null","resources/maskTrios/L1BB.jpg","null","",NA,NA,NA,NA,""
"image-keyboard-response",527,395773,"0.0-4.171-2.171","46d0uard7gtt24q",628,"91.csv","","null","resources/images/coin2.png","null","",NA,NA,NA,NA,""
"image-keyboard-response",528,396021,"0.0-4.172-0.172","46d0uard7gtt24q",628,"91.csv","","247.3000000002794","resources/trios/L1T4A2.jpg","37","restless",0.5,0.4,0.9,0.111538046549275,"true"
"image-keyboard-response",529,396437,"0.0-4.172-1.172","46d0uard7gtt24q",628,"91.csv","","null","resources/maskTrios/L1BB.jpg","null","",NA,NA,NA,NA,""
"image-keyboard-response",530,397647,"0.0-4.172-2.172","46d0uard7gtt24q",628,"91.csv","","null","resources/images/coin2.png","null","",NA,NA,NA,NA,""
"image-keyboard-response",531,398678,"0.0-4.173-0.173","46d0uard7gtt24q",628,"91.csv","","1029.8999999999069","resources/trios/L1T4A2.jpg","37","restless",0.5,0.4,0.9,0.671191669469635,"false"
"image-keyboard-response",532,399090,"0.0-4.173-1.173","46d0uard7gtt24q",628,"91.csv","","null","resources/maskTrios/L1BB.jpg","null","",NA,NA,NA,NA,""
"image-keyboard-response",533,400296,"0.0-4.173-2.173","46d0uard7gtt24q",628,"91.csv","","null","resources/images/fishbone.png","null","",NA,NA,NA,NA,""
"image-keyboard-response",534,400917,"0.0-4.174-0.174","46d0uard7gtt24q",628,"91.csv","","620.4000000003725","resources/trios/L1T4A2.jpg","37","restless",0.5,0.4,0.9,0.183718926365142,"true"
"image-keyboard-response",535,401330,"0.0-4.174-1.174","46d0uard7gtt24q",628,"91.csv","","null","resources/maskTrios/L1BB.jpg","null","",NA,NA,NA,NA,""
"image-keyboard-response",536,402545,"0.0-4.174-2.174","46d0uard7gtt24q",628,"91.csv","","null","resources/images/coin2.png","null","",NA,NA,NA,NA,""
"image-keyboard-response",537,402741,"0.0-4.175-0.175","46d0uard7gtt24q",628,"91.csv","","195.10000000009313","resources/trios/L1T4A2.jpg","37","restless",0.5,0.4,0.9,0.716439695410078,"false"
"image-keyboard-response",538,403146,"0.0-4.175-1.175","46d0uard7gtt24q",628,"91.csv","","null","resources/maskTrios/L1BB.jpg","null","",NA,NA,NA,NA,""
"image-keyboard-response",539,404355,"0.0-4.175-2.175","46d0uard7gtt24q",628,"91.csv","","null","resources/images/fishbone.png","null","",NA,NA,NA,NA,""
"image-keyboard-response",540,404798,"0.0-4.176-0.176","46d0uard7gtt24q",628,"91.csv","","441.39999999990687","resources/trios/L1T4A2.jpg","38","restless",0.5,0.4,0.9,0.878997682559505,"false"
"image-keyboard-response",541,405208,"0.0-4.176-1.176","46d0uard7gtt24q",628,"91.csv","","null","resources/maskTrios/BT4B.jpg","null","",NA,NA,NA,NA,""
"image-keyboard-response",542,406417,"0.0-4.176-2.176","46d0uard7gtt24q",628,"91.csv","","null","resources/images/fishbone.png","null","",NA,NA,NA,NA,""
"image-keyboard-response",543,406837,"0.0-4.177-0.177","46d0uard7gtt24q",628,"91.csv","","419.60000000009313","resources/trios/L1T4A2.jpg","38","restless",0.5,0.4,0.9,0.340074161418258,"true"
"image-keyboard-response",544,407241,"0.0-4.177-1.177","46d0uard7gtt24q",628,"91.csv","","null","resources/maskTrios/BT4B.jpg","null","",NA,NA,NA,NA,""
"image-keyboard-response",545,408447,"0.0-4.177-2.177","46d0uard7gtt24q",628,"91.csv","","null","resources/images/coin2.png","null","",NA,NA,NA,NA,""
"image-keyboard-response",546,408734,"0.0-4.178-0.178","46d0uard7gtt24q",628,"91.csv","","286.8000000002794","resources/trios/L1T4A2.jpg","39","restless",0.5,0.4,0.9,0.412044768954933,"true"
"image-keyboard-response",547,409143,"0.0-4.178-1.178","46d0uard7gtt24q",628,"91.csv","","null","resources/maskTrios/BBA2.jpg","null","",NA,NA,NA,NA,""
"image-keyboard-response",548,410360,"0.0-4.178-2.178","46d0uard7gtt24q",628,"91.csv","","null","resources/images/coin2.png","null","",NA,NA,NA,NA,""
"image-keyboard-response",549,410574,"0.0-4.179-0.179","46d0uard7gtt24q",628,"91.csv","","213.39999999990687","resources/trios/L1T4A2.jpg","38","restless",0.5,0.4,0.9,0.537440701589537,"false"
"image-keyboard-response",550,410975,"0.0-4.179-1.179","46d0uard7gtt24q",628,"91.csv","","null","resources/maskTrios/BT4B.jpg","null","",NA,NA,NA,NA,""
"image-keyboard-response",551,412184,"0.0-4.179-2.179","46d0uard7gtt24q",628,"91.csv","","null","resources/images/fishbone.png","null","",NA,NA,NA,NA,""
"image-keyboard-response",552,412471,"0.0-4.180-0.180","46d0uard7gtt24q",628,"91.csv","","286.5","resources/trios/L1T4A2.jpg","38","restless",0.5,0.4,0.9,0.0286562058507489,"true"
"image-keyboard-response",553,412879,"0.0-4.180-1.180","46d0uard7gtt24q",628,"91.csv","","null","resources/maskTrios/BT4B.jpg","null","",NA,NA,NA,NA,""
"image-keyboard-response",554,414089,"0.0-4.180-2.180","46d0uard7gtt24q",628,"91.csv","","null","resources/images/coin2.png","null","",NA,NA,NA,NA,""
"image-keyboard-response",555,415533,"0.0-4.181-0.181","46d0uard7gtt24q",628,"91.csv","","1443.8000000002794","resources/trios/L1T4A2.jpg","37","restless",0.5,0.4,0.9,0.971225340660812,"false"
"image-keyboard-response",556,415942,"0.0-4.181-1.181","46d0uard7gtt24q",628,"91.csv","","null","resources/maskTrios/L1BB.jpg","null","",NA,NA,NA,NA,""
"image-keyboard-response",557,417155,"0.0-4.181-2.181","46d0uard7gtt24q",628,"91.csv","","null","resources/images/fishbone.png","null","",NA,NA,NA,NA,""
"image-keyboard-response",558,418262,"0.0-4.182-0.182","46d0uard7gtt24q",628,"91.csv","","1106.2999999998137","resources/trios/L1T4A2.jpg","37","restless",0.5,0.4,0.8,0.422585777984871,"true"
"image-keyboard-response",559,418677,"0.0-4.182-1.182","46d0uard7gtt24q",628,"91.csv","","null","resources/maskTrios/L1BB.jpg","null","",NA,NA,NA,NA,""
"image-keyboard-response",560,419883,"0.0-4.182-2.182","46d0uard7gtt24q",628,"91.csv","","null","resources/images/coin2.png","null","",NA,NA,NA,NA,""
"image-keyboard-response",561,420366,"0.0-4.183-0.183","46d0uard7gtt24q",628,"91.csv","","481.89999999990687","resources/trios/L1T4A2.jpg","37","restless",0.5,0.4,0.8,0.314421820766234,"true"
"image-keyboard-response",562,420777,"0.0-4.183-1.183","46d0uard7gtt24q",628,"91.csv","","null","resources/maskTrios/L1BB.jpg","null","",NA,NA,NA,NA,""
"image-keyboard-response",563,421983,"0.0-4.183-2.183","46d0uard7gtt24q",628,"91.csv","","null","resources/images/coin2.png","null","",NA,NA,NA,NA,""
"image-keyboard-response",564,422653,"0.0-4.184-0.184","46d0uard7gtt24q",628,"91.csv","","669.9000000003725","resources/trios/L1T4A2.jpg","37","restless",0.5,0.4,0.7,0.982346984137867,"false"
"image-keyboard-response",565,423055,"0.0-4.184-1.184","46d0uard7gtt24q",628,"91.csv","","null","resources/maskTrios/L1BB.jpg","null","",NA,NA,NA,NA,""
"image-keyboard-response",566,424261,"0.0-4.184-2.184","46d0uard7gtt24q",628,"91.csv","","null","resources/images/fishbone.png","null","",NA,NA,NA,NA,""
"image-keyboard-response",567,424566,"0.0-4.185-0.185","46d0uard7gtt24q",628,"91.csv","","303.60000000009313","resources/trios/L1T4A2.jpg","38","restless",0.6,0.4,0.7,0.50028522836905,"false"
"image-keyboard-response",568,424974,"0.0-4.185-1.185","46d0uard7gtt24q",628,"91.csv","","null","resources/maskTrios/BT4B.jpg","null","",NA,NA,NA,NA,""
"image-keyboard-response",569,426184,"0.0-4.185-2.185","46d0uard7gtt24q",628,"91.csv","","null","resources/images/fishbone.png","null","",NA,NA,NA,NA,""
"image-keyboard-response",570,426798,"0.0-4.186-0.186","46d0uard7gtt24q",628,"91.csv","","613.2999999998137","resources/trios/L1T4A2.jpg","39","restless",0.6,0.4,0.7,0.460204372504312,"true"
"image-keyboard-response",571,427214,"0.0-4.186-1.186","46d0uard7gtt24q",628,"91.csv","","null","resources/maskTrios/BBA2.jpg","null","",NA,NA,NA,NA,""
"image-keyboard-response",572,428424,"0.0-4.186-2.186","46d0uard7gtt24q",628,"91.csv","","null","resources/images/coin2.png","null","",NA,NA,NA,NA,""
"image-keyboard-response",573,429373,"0.0-4.187-0.187","46d0uard7gtt24q",628,"91.csv","","948.2999999998137","resources/trios/L1T4A2.jpg","37","restless",0.6,0.4,0.7,0.456691703531388,"true"
"image-keyboard-response",574,429786,"0.0-4.187-1.187","46d0uard7gtt24q",628,"91.csv","","null","resources/maskTrios/L1BB.jpg","null","",NA,NA,NA,NA,""
"image-keyboard-response",575,430994,"0.0-4.187-2.187","46d0uard7gtt24q",628,"91.csv","","null","resources/images/coin2.png","null","",NA,NA,NA,NA,""
"image-keyboard-response",576,431773,"0.0-4.188-0.188","46d0uard7gtt24q",628,"91.csv","","778.2999999998137","resources/trios/L1T4A2.jpg","37","restless",0.6,0.4,0.6,0.949443609628073,"false"
"image-keyboard-response",577,432184,"0.0-4.188-1.188","46d0uard7gtt24q",628,"91.csv","","null","resources/maskTrios/L1BB.jpg","null","",NA,NA,NA,NA,""
"image-keyboard-response",578,433390,"0.0-4.188-2.188","46d0uard7gtt24q",628,"91.csv","","null","resources/images/fishbone.png","null","",NA,NA,NA,NA,""
"image-keyboard-response",579,434909,"0.0-4.189-0.189","46d0uard7gtt24q",628,"91.csv","","1518.4000000003725","resources/trios/L1T4A2.jpg","38","restless",0.6,0.4,0.6,0.792528875357816,"false"
"image-keyboard-response",580,435324,"0.0-4.189-1.189","46d0uard7gtt24q",628,"91.csv","","null","resources/maskTrios/BT4B.jpg","null","",NA,NA,NA,NA,""
"image-keyboard-response",581,436533,"0.0-4.189-2.189","46d0uard7gtt24q",628,"91.csv","","null","resources/images/fishbone.png","null","",NA,NA,NA,NA,""
"image-keyboard-response",582,437885,"0.0-4.190-0.190","46d0uard7gtt24q",628,"91.csv","","1351.6000000000931","resources/trios/L1T4A2.jpg","39","restless",0.6,0.4,0.6,0.112224360822309,"true"
"image-keyboard-response",583,438301,"0.0-4.190-1.190","46d0uard7gtt24q",628,"91.csv","","null","resources/maskTrios/BBA2.jpg","null","",NA,NA,NA,NA,""
"image-keyboard-response",584,439509,"0.0-4.190-2.190","46d0uard7gtt24q",628,"91.csv","","null","resources/images/coin2.png","null","",NA,NA,NA,NA,""
"image-keyboard-response",585,440213,"0.0-4.191-0.191","46d0uard7gtt24q",628,"91.csv","","703.6000000000931","resources/trios/L1T4A2.jpg","39","restless",0.6,0.4,0.6,0.379830100602397,"true"
"image-keyboard-response",586,440618,"0.0-4.191-1.191","46d0uard7gtt24q",628,"91.csv","","null","resources/maskTrios/BBA2.jpg","null","",NA,NA,NA,NA,""
"image-keyboard-response",587,441829,"0.0-4.191-2.191","46d0uard7gtt24q",628,"91.csv","","null","resources/images/coin2.png","null","",NA,NA,NA,NA,""
"image-keyboard-response",588,442150,"0.0-4.192-0.192","46d0uard7gtt24q",628,"91.csv","","319.89999999990687","resources/trios/L1T4A2.jpg","39","restless",0.7,0.4,0.5,0.657509525820587,"false"
"image-keyboard-response",589,442560,"0.0-4.192-1.192","46d0uard7gtt24q",628,"91.csv","","null","resources/maskTrios/BBA2.jpg","null","",NA,NA,NA,NA,""
"image-keyboard-response",590,443762,"0.0-4.192-2.192","46d0uard7gtt24q",628,"91.csv","","null","resources/images/fishbone.png","null","",NA,NA,NA,NA,""
"image-keyboard-response",591,444061,"0.0-4.193-0.193","46d0uard7gtt24q",628,"91.csv","","298.3000000002794","resources/trios/L1T4A2.jpg","38","restless",0.8,0.4,0.5,0.828374960321645,"false"
"image-keyboard-response",592,444475,"0.0-4.193-1.193","46d0uard7gtt24q",628,"91.csv","","null","resources/maskTrios/BT4B.jpg","null","",NA,NA,NA,NA,""
"image-keyboard-response",593,445684,"0.0-4.193-2.193","46d0uard7gtt24q",628,"91.csv","","null","resources/images/fishbone.png","null","",NA,NA,NA,NA,""
"image-keyboard-response",594,445917,"0.0-4.194-0.194","46d0uard7gtt24q",628,"91.csv","","232.39999999990687","resources/trios/L1T4A2.jpg","38","restless",0.9,0.4,0.5,0.505779287449854,"false"
"image-keyboard-response",595,446333,"0.0-4.194-1.194","46d0uard7gtt24q",628,"91.csv","","null","resources/maskTrios/BT4B.jpg","null","",NA,NA,NA,NA,""
"image-keyboard-response",596,447545,"0.0-4.194-2.194","46d0uard7gtt24q",628,"91.csv","","null","resources/images/fishbone.png","null","",NA,NA,NA,NA,""
"image-keyboard-response",597,447717,"0.0-4.195-0.195","46d0uard7gtt24q",628,"91.csv","","170.89999999990687","resources/trios/L1T4A2.jpg","37","restless",0.9,0.4,0.4,0.523384950266976,"true"
"image-keyboard-response",598,448125,"0.0-4.195-1.195","46d0uard7gtt24q",628,"91.csv","","null","resources/maskTrios/L1BB.jpg","null","",NA,NA,NA,NA,""
"image-keyboard-response",599,449338,"0.0-4.195-2.195","46d0uard7gtt24q",628,"91.csv","","null","resources/images/coin2.png","null","",NA,NA,NA,NA,""
"image-keyboard-response",600,449413,"0.0-4.196-0.196","46d0uard7gtt24q",628,"91.csv","","74.6999999997206","resources/trios/L1T4A2.jpg","37","restless",0.9,0.3,0.4,0.740208123911649,"true"
"image-keyboard-response",601,449815,"0.0-4.196-1.196","46d0uard7gtt24q",628,"91.csv","","null","resources/maskTrios/L1BB.jpg","null","",NA,NA,NA,NA,""
"image-keyboard-response",602,451020,"0.0-4.196-2.196","46d0uard7gtt24q",628,"91.csv","","null","resources/images/coin2.png","null","",NA,NA,NA,NA,""
"image-keyboard-response",603,451317,"0.0-4.197-0.197","46d0uard7gtt24q",628,"91.csv","","297.10000000009313","resources/trios/L1T4A2.jpg","37","restless",0.9,0.3,0.4,0.586384751164517,"true"
"image-keyboard-response",604,451729,"0.0-4.197-1.197","46d0uard7gtt24q",628,"91.csv","","null","resources/maskTrios/L1BB.jpg","null","",NA,NA,NA,NA,""
"image-keyboard-response",605,452931,"0.0-4.197-2.197","46d0uard7gtt24q",628,"91.csv","","null","resources/images/coin2.png","null","",NA,NA,NA,NA,""
"image-keyboard-response",606,453150,"0.0-4.198-0.198","46d0uard7gtt24q",628,"91.csv","","218.40000000037253","resources/trios/L1T4A2.jpg","37","restless",0.9,0.3,0.4,0.0941227976958467,"true"
"image-keyboard-response",607,453559,"0.0-4.198-1.198","46d0uard7gtt24q",628,"91.csv","","null","resources/maskTrios/L1BB.jpg","null","",NA,NA,NA,NA,""
"image-keyboard-response",608,454760,"0.0-4.198-2.198","46d0uard7gtt24q",628,"91.csv","","null","resources/images/coin2.png","null","",NA,NA,NA,NA,""
"image-keyboard-response",609,454982,"0.0-4.199-0.199","46d0uard7gtt24q",628,"91.csv","","221.29999999981374","resources/trios/L1T4A2.jpg","37","restless",0.9,0.3,0.4,0.289049407168539,"true"
"image-keyboard-response",610,455392,"0.0-4.199-1.199","46d0uard7gtt24q",628,"91.csv","","null","resources/maskTrios/L1BB.jpg","null","",NA,NA,NA,NA,""
"image-keyboard-response",611,456596,"0.0-4.199-2.199","46d0uard7gtt24q",628,"91.csv","","null","resources/images/coin2.png","null","",NA,NA,NA,NA,""
"survey-text",612,476438,"0.0-5.0","46d0uard7gtt24q",628,"91.csv","","19840.69999999972","","","",NA,NA,NA,NA,""
