"trial_type","trial_index","time_elapsed","internal_node_id","subject","participantCode","walkNumber","success","rt","stimulus","key_press","test_part","leftProb","midProb","rightProb","generatedNum","correct"
"pavlovia",0,704,"0.0-0.0","81jb1n2bueb365f",865,"91.csv","","","","","",NA,NA,NA,NA,""
"fullscreen",1,4794,"0.0-1.0","81jb1n2bueb365f",865,"91.csv","true","","","","",NA,NA,NA,NA,""
"survey-html-form",2,26562,"0.0-2.0","81jb1n2bueb365f",865,"91.csv","","21767","","","",NA,NA,NA,NA,""
"image-keyboard-response",3,52794,"0.0-3.0-0.0","81jb1n2bueb365f",865,"91.csv","","26230.09999999404","resources/images/parrot_nobg.png","13","",NA,NA,NA,NA,""
"image-keyboard-response",4,55796,"0.0-3.0-1.0","81jb1n2bueb365f",865,"91.csv","","null","resources/image_sets/111.png","null","",NA,NA,NA,NA,""
"image-keyboard-response",5,60877,"0.0-3.0-2.0","81jb1n2bueb365f",865,"91.csv","","5080.600000023842","resources/image_sets/left_highlight.png","37","",NA,NA,NA,NA,""
"image-keyboard-response",6,67221,"0.0-3.0-3.0","81jb1n2bueb365f",865,"91.csv","","6343.5","resources/image_sets/mid_highlight.png","38","",NA,NA,NA,NA,""
"image-keyboard-response",7,70514,"0.0-3.0-4.0","81jb1n2bueb365f",865,"91.csv","","3292.7000000178814","resources/image_sets/right_highlight.png","39","",NA,NA,NA,NA,""
"image-keyboard-response",8,72910,"0.0-3.0-5.0","81jb1n2bueb365f",865,"91.csv","","2394.4000000059605","resources/image_sets/111.png","13","",NA,NA,NA,NA,""
"image-keyboard-response",9,80188,"0.0-3.0-6.0","81jb1n2bueb365f",865,"91.csv","","7277.300000011921","resources/images/coin2.png","13","",NA,NA,NA,NA,""
"image-keyboard-response",10,82813,"0.0-3.0-7.0","81jb1n2bueb365f",865,"91.csv","","2624.699999988079","resources/images/fishbone.png","13","",NA,NA,NA,NA,""
"html-keyboard-response",11,92523,"0.0-3.0-8.0","81jb1n2bueb365f",865,"91.csv","","9709.199999988079","<p>You can track your coin total on the top right of your screen. </p><p>At the end of your journey you will be directed to a survey, so please click on the link before exiting the task</p><p>Press Enter to begin</p>","13","",NA,NA,NA,NA,""
"image-keyboard-response",12,93588,"0.0-4.0-0.0","81jb1n2bueb365f",865,"91.csv","","1064.7000000178814","resources/trios/L1T2A3.jpg","37","restless",0.7,0.9,0.3,0.627487070481966,"true"
"image-keyboard-response",13,93990,"0.0-4.0-1.0","81jb1n2bueb365f",865,"91.csv","","null","resources/maskTrios/L1BB.jpg","null","",NA,NA,NA,NA,""
"image-keyboard-response",14,95193,"0.0-4.0-2.0","81jb1n2bueb365f",865,"91.csv","","null","resources/images/coin2.png","null","",NA,NA,NA,NA,""
"image-keyboard-response",15,97093,"0.0-4.1-0.1","81jb1n2bueb365f",865,"91.csv","","1899.9000000059605","resources/trios/L1T2A3.jpg","38","restless",0.7,0.9,0.4,0.486168618829829,"true"
"image-keyboard-response",16,97495,"0.0-4.1-1.1","81jb1n2bueb365f",865,"91.csv","","null","resources/maskTrios/BT2B.jpg","null","",NA,NA,NA,NA,""
"image-keyboard-response",17,98696,"0.0-4.1-2.1","81jb1n2bueb365f",865,"91.csv","","null","resources/images/coin2.png","null","",NA,NA,NA,NA,""
"image-keyboard-response",18,100084,"0.0-4.2-0.2","81jb1n2bueb365f",865,"91.csv","","1386.0999999940395","resources/trios/L1T2A3.jpg","39","restless",0.7,0.9,0.4,0.657770210215487,"false"
"image-keyboard-response",19,100485,"0.0-4.2-1.2","81jb1n2bueb365f",865,"91.csv","","null","resources/maskTrios/BBA3.jpg","null","",NA,NA,NA,NA,""
"image-keyboard-response",20,101687,"0.0-4.2-2.2","81jb1n2bueb365f",865,"91.csv","","null","resources/images/fishbone.png","null","",NA,NA,NA,NA,""
"image-keyboard-response",21,102381,"0.0-4.3-0.3","81jb1n2bueb365f",865,"91.csv","","693.2000000178814","resources/trios/L1T2A3.jpg","37","restless",0.7,0.9,0.4,0.603998514050415,"true"
"image-keyboard-response",22,102782,"0.0-4.3-1.3","81jb1n2bueb365f",865,"91.csv","","null","resources/maskTrios/L1BB.jpg","null","",NA,NA,NA,NA,""
"image-keyboard-response",23,103984,"0.0-4.3-2.3","81jb1n2bueb365f",865,"91.csv","","null","resources/images/coin2.png","null","",NA,NA,NA,NA,""
"image-keyboard-response",24,104549,"0.0-4.4-0.4","81jb1n2bueb365f",865,"91.csv","","564.1999999880791","resources/trios/L1T2A3.jpg","38","restless",0.7,0.9,0.4,0.295242126090158,"true"
"image-keyboard-response",25,104950,"0.0-4.4-1.4","81jb1n2bueb365f",865,"91.csv","","null","resources/maskTrios/BT2B.jpg","null","",NA,NA,NA,NA,""
"image-keyboard-response",26,106153,"0.0-4.4-2.4","81jb1n2bueb365f",865,"91.csv","","null","resources/images/coin2.png","null","",NA,NA,NA,NA,""
"image-keyboard-response",27,106933,"0.0-4.5-0.5","81jb1n2bueb365f",865,"91.csv","","780.2000000178814","resources/trios/L1T2A3.jpg","39","restless",0.7,0.9,0.4,0.828316991867323,"false"
"image-keyboard-response",28,107335,"0.0-4.5-1.5","81jb1n2bueb365f",865,"91.csv","","null","resources/maskTrios/BBA3.jpg","null","",NA,NA,NA,NA,""
"image-keyboard-response",29,108536,"0.0-4.5-2.5","81jb1n2bueb365f",865,"91.csv","","null","resources/images/fishbone.png","null","",NA,NA,NA,NA,""
"image-keyboard-response",30,109853,"0.0-4.6-0.6","81jb1n2bueb365f",865,"91.csv","","1316.2999999821186","resources/trios/L1T2A3.jpg","37","restless",0.7,0.9,0.4,0.227609024767141,"true"
"image-keyboard-response",31,110255,"0.0-4.6-1.6","81jb1n2bueb365f",865,"91.csv","","null","resources/maskTrios/L1BB.jpg","null","",NA,NA,NA,NA,""
"image-keyboard-response",32,111456,"0.0-4.6-2.6","81jb1n2bueb365f",865,"91.csv","","null","resources/images/coin2.png","null","",NA,NA,NA,NA,""
"image-keyboard-response",33,111781,"0.0-4.7-0.7","81jb1n2bueb365f",865,"91.csv","","324.39999997615814","resources/trios/L1T2A3.jpg","38","restless",0.7,0.9,0.4,0.471222302923724,"true"
"image-keyboard-response",34,112184,"0.0-4.7-1.7","81jb1n2bueb365f",865,"91.csv","","null","resources/maskTrios/BT2B.jpg","null","",NA,NA,NA,NA,""
"image-keyboard-response",35,113385,"0.0-4.7-2.7","81jb1n2bueb365f",865,"91.csv","","null","resources/images/coin2.png","null","",NA,NA,NA,NA,""
"image-keyboard-response",36,113741,"0.0-4.8-0.8","81jb1n2bueb365f",865,"91.csv","","355.7000000178814","resources/trios/L1T2A3.jpg","37","restless",0.7,0.9,0.4,0.855164459975792,"false"
"image-keyboard-response",37,114143,"0.0-4.8-1.8","81jb1n2bueb365f",865,"91.csv","","null","resources/maskTrios/L1BB.jpg","null","",NA,NA,NA,NA,""
"image-keyboard-response",38,115344,"0.0-4.8-2.8","81jb1n2bueb365f",865,"91.csv","","null","resources/images/fishbone.png","null","",NA,NA,NA,NA,""
"image-keyboard-response",39,115672,"0.0-4.9-0.9","81jb1n2bueb365f",865,"91.csv","","327.5","resources/trios/L1T2A3.jpg","38","restless",0.7,0.9,0.4,0.674011059900385,"true"
"image-keyboard-response",40,116074,"0.0-4.9-1.9","81jb1n2bueb365f",865,"91.csv","","null","resources/maskTrios/BT2B.jpg","null","",NA,NA,NA,NA,""
"image-keyboard-response",41,117275,"0.0-4.9-2.9","81jb1n2bueb365f",865,"91.csv","","null","resources/images/coin2.png","null","",NA,NA,NA,NA,""
"image-keyboard-response",42,118108,"0.0-4.10-0.10","81jb1n2bueb365f",865,"91.csv","","832.7999999821186","resources/trios/L1T2A3.jpg","39","restless",0.8,0.9,0.4,0.16691491929457,"true"
"image-keyboard-response",43,118510,"0.0-4.10-1.10","81jb1n2bueb365f",865,"91.csv","","null","resources/maskTrios/BBA3.jpg","null","",NA,NA,NA,NA,""
"image-keyboard-response",44,119712,"0.0-4.10-2.10","81jb1n2bueb365f",865,"91.csv","","null","resources/images/coin2.png","null","",NA,NA,NA,NA,""
"image-keyboard-response",45,120209,"0.0-4.11-0.11","81jb1n2bueb365f",865,"91.csv","","496","resources/trios/L1T2A3.jpg","38","restless",0.8,0.9,0.4,0.392672001300833,"true"
"image-keyboard-response",46,120610,"0.0-4.11-1.11","81jb1n2bueb365f",865,"91.csv","","null","resources/maskTrios/BT2B.jpg","null","",NA,NA,NA,NA,""
"image-keyboard-response",47,121812,"0.0-4.11-2.11","81jb1n2bueb365f",865,"91.csv","","null","resources/images/coin2.png","null","",NA,NA,NA,NA,""
"image-keyboard-response",48,123358,"0.0-4.12-0.12","81jb1n2bueb365f",865,"91.csv","","1545.0999999940395","resources/trios/L1T2A3.jpg","38","restless",0.8,0.9,0.4,0.71237791968983,"true"
"image-keyboard-response",49,123760,"0.0-4.12-1.12","81jb1n2bueb365f",865,"91.csv","","null","resources/maskTrios/BT2B.jpg","null","",NA,NA,NA,NA,""
"image-keyboard-response",50,124961,"0.0-4.12-2.12","81jb1n2bueb365f",865,"91.csv","","null","resources/images/coin2.png","null","",NA,NA,NA,NA,""
"image-keyboard-response",51,126078,"0.0-4.13-0.13","81jb1n2bueb365f",865,"91.csv","","1116.300000011921","resources/trios/L1T2A3.jpg","38","restless",0.8,0.9,0.4,0.643024284214201,"true"
"image-keyboard-response",52,126479,"0.0-4.13-1.13","81jb1n2bueb365f",865,"91.csv","","null","resources/maskTrios/BT2B.jpg","null","",NA,NA,NA,NA,""
"image-keyboard-response",53,127681,"0.0-4.13-2.13","81jb1n2bueb365f",865,"91.csv","","null","resources/images/coin2.png","null","",NA,NA,NA,NA,""
"image-keyboard-response",54,128888,"0.0-4.14-0.14","81jb1n2bueb365f",865,"91.csv","","1205.7000000178814","resources/trios/L1T2A3.jpg","38","restless",0.8,0.9,0.4,0.153695953377157,"true"
"image-keyboard-response",55,129290,"0.0-4.14-1.14","81jb1n2bueb365f",865,"91.csv","","null","resources/maskTrios/BT2B.jpg","null","",NA,NA,NA,NA,""
"image-keyboard-response",56,130492,"0.0-4.14-2.14","81jb1n2bueb365f",865,"91.csv","","null","resources/images/coin2.png","null","",NA,NA,NA,NA,""
"image-keyboard-response",57,130908,"0.0-4.15-0.15","81jb1n2bueb365f",865,"91.csv","","415.5","resources/trios/L1T2A3.jpg","38","restless",0.8,0.9,0.4,0.224237283557501,"true"
"image-keyboard-response",58,131310,"0.0-4.15-1.15","81jb1n2bueb365f",865,"91.csv","","null","resources/maskTrios/BT2B.jpg","null","",NA,NA,NA,NA,""
"image-keyboard-response",59,132511,"0.0-4.15-2.15","81jb1n2bueb365f",865,"91.csv","","null","resources/images/coin2.png","null","",NA,NA,NA,NA,""
"image-keyboard-response",60,132827,"0.0-4.16-0.16","81jb1n2bueb365f",865,"91.csv","","315.7999999821186","resources/trios/L1T2A3.jpg","38","restless",0.8,0.9,0.4,0.543345494539684,"true"
"image-keyboard-response",61,133229,"0.0-4.16-1.16","81jb1n2bueb365f",865,"91.csv","","null","resources/maskTrios/BT2B.jpg","null","",NA,NA,NA,NA,""
"image-keyboard-response",62,134431,"0.0-4.16-2.16","81jb1n2bueb365f",865,"91.csv","","null","resources/images/coin2.png","null","",NA,NA,NA,NA,""
"image-keyboard-response",63,134845,"0.0-4.17-0.17","81jb1n2bueb365f",865,"91.csv","","412.40000000596046","resources/trios/L1T2A3.jpg","38","restless",0.8,0.9,0.3,0.683491690793444,"true"
"image-keyboard-response",64,135246,"0.0-4.17-1.17","81jb1n2bueb365f",865,"91.csv","","null","resources/maskTrios/BT2B.jpg","null","",NA,NA,NA,NA,""
"image-keyboard-response",65,136447,"0.0-4.17-2.17","81jb1n2bueb365f",865,"91.csv","","null","resources/images/coin2.png","null","",NA,NA,NA,NA,""
"image-keyboard-response",66,136776,"0.0-4.18-0.18","81jb1n2bueb365f",865,"91.csv","","327.40000000596046","resources/trios/L1T2A3.jpg","38","restless",0.8,0.9,0.3,0.90527613485925,"false"
"image-keyboard-response",67,137177,"0.0-4.18-1.18","81jb1n2bueb365f",865,"91.csv","","null","resources/maskTrios/BT2B.jpg","null","",NA,NA,NA,NA,""
"image-keyboard-response",68,138379,"0.0-4.18-2.18","81jb1n2bueb365f",865,"91.csv","","null","resources/images/fishbone.png","null","",NA,NA,NA,NA,""
"image-keyboard-response",69,138710,"0.0-4.19-0.19","81jb1n2bueb365f",865,"91.csv","","331.30000001192093","resources/trios/L1T2A3.jpg","37","restless",0.8,0.9,0.3,0.538507419018721,"true"
"image-keyboard-response",70,139112,"0.0-4.19-1.19","81jb1n2bueb365f",865,"91.csv","","null","resources/maskTrios/L1BB.jpg","null","",NA,NA,NA,NA,""
"image-keyboard-response",71,140313,"0.0-4.19-2.19","81jb1n2bueb365f",865,"91.csv","","null","resources/images/coin2.png","null","",NA,NA,NA,NA,""
"image-keyboard-response",72,140835,"0.0-4.20-0.20","81jb1n2bueb365f",865,"91.csv","","520.3000000119209","resources/trios/L1T2A3.jpg","39","restless",0.8,0.9,0.3,0.95701821319092,"false"
"image-keyboard-response",73,141236,"0.0-4.20-1.20","81jb1n2bueb365f",865,"91.csv","","null","resources/maskTrios/BBA3.jpg","null","",NA,NA,NA,NA,""
"image-keyboard-response",74,142443,"0.0-4.20-2.20","81jb1n2bueb365f",865,"91.csv","","null","resources/images/fishbone.png","null","",NA,NA,NA,NA,""
"image-keyboard-response",75,142977,"0.0-4.21-0.21","81jb1n2bueb365f",865,"91.csv","","533.3000000119209","resources/trios/L1T2A3.jpg","38","restless",0.8,0.9,0.3,0.452707366957299,"true"
"image-keyboard-response",76,143379,"0.0-4.21-1.21","81jb1n2bueb365f",865,"91.csv","","null","resources/maskTrios/BT2B.jpg","null","",NA,NA,NA,NA,""
"image-keyboard-response",77,144581,"0.0-4.21-2.21","81jb1n2bueb365f",865,"91.csv","","null","resources/images/coin2.png","null","",NA,NA,NA,NA,""
"image-keyboard-response",78,144964,"0.0-4.22-0.22","81jb1n2bueb365f",865,"91.csv","","381.90000000596046","resources/trios/L1T2A3.jpg","38","restless",0.8,0.8,0.4,0.627660585978905,"true"
"image-keyboard-response",79,145365,"0.0-4.22-1.22","81jb1n2bueb365f",865,"91.csv","","null","resources/maskTrios/BT2B.jpg","null","",NA,NA,NA,NA,""
"image-keyboard-response",80,146567,"0.0-4.22-2.22","81jb1n2bueb365f",865,"91.csv","","null","resources/images/coin2.png","null","",NA,NA,NA,NA,""
"image-keyboard-response",81,147197,"0.0-4.23-0.23","81jb1n2bueb365f",865,"91.csv","","630.1000000238419","resources/trios/L1T2A3.jpg","38","restless",0.8,0.8,0.3,0.374828534072514,"true"
"image-keyboard-response",82,147599,"0.0-4.23-1.23","81jb1n2bueb365f",865,"91.csv","","null","resources/maskTrios/BT2B.jpg","null","",NA,NA,NA,NA,""
"image-keyboard-response",83,148801,"0.0-4.23-2.23","81jb1n2bueb365f",865,"91.csv","","null","resources/images/coin2.png","null","",NA,NA,NA,NA,""
"image-keyboard-response",84,149114,"0.0-4.24-0.24","81jb1n2bueb365f",865,"91.csv","","311.90000000596046","resources/trios/L1T2A3.jpg","38","restless",0.8,0.8,0.3,0.212634613674391,"true"
"image-keyboard-response",85,149516,"0.0-4.24-1.24","81jb1n2bueb365f",865,"91.csv","","null","resources/maskTrios/BT2B.jpg","null","",NA,NA,NA,NA,""
"image-keyboard-response",86,150718,"0.0-4.24-2.24","81jb1n2bueb365f",865,"91.csv","","null","resources/images/coin2.png","null","",NA,NA,NA,NA,""
"image-keyboard-response",87,151042,"0.0-4.25-0.25","81jb1n2bueb365f",865,"91.csv","","323.5","resources/trios/L1T2A3.jpg","38","restless",0.8,0.8,0.3,0.438745428604924,"true"
"image-keyboard-response",88,151444,"0.0-4.25-1.25","81jb1n2bueb365f",865,"91.csv","","null","resources/maskTrios/BT2B.jpg","null","",NA,NA,NA,NA,""
"image-keyboard-response",89,152645,"0.0-4.25-2.25","81jb1n2bueb365f",865,"91.csv","","null","resources/images/coin2.png","null","",NA,NA,NA,NA,""
"image-keyboard-response",90,153119,"0.0-4.26-0.26","81jb1n2bueb365f",865,"91.csv","","472.80000001192093","resources/trios/L1T2A3.jpg","38","restless",0.8,0.8,0.3,0.802323869564864,"false"
"image-keyboard-response",91,153520,"0.0-4.26-1.26","81jb1n2bueb365f",865,"91.csv","","null","resources/maskTrios/BT2B.jpg","null","",NA,NA,NA,NA,""
"image-keyboard-response",92,154722,"0.0-4.26-2.26","81jb1n2bueb365f",865,"91.csv","","null","resources/images/fishbone.png","null","",NA,NA,NA,NA,""
"image-keyboard-response",93,155065,"0.0-4.27-0.27","81jb1n2bueb365f",865,"91.csv","","342.7000000178814","resources/trios/L1T2A3.jpg","37","restless",0.8,0.8,0.4,0.105813509861348,"true"
"image-keyboard-response",94,155479,"0.0-4.27-1.27","81jb1n2bueb365f",865,"91.csv","","null","resources/maskTrios/L1BB.jpg","null","",NA,NA,NA,NA,""
"image-keyboard-response",95,156681,"0.0-4.27-2.27","81jb1n2bueb365f",865,"91.csv","","null","resources/images/coin2.png","null","",NA,NA,NA,NA,""
"image-keyboard-response",96,157713,"0.0-4.28-0.28","81jb1n2bueb365f",865,"91.csv","","1030.3999999761581","resources/trios/L1T2A3.jpg","39","restless",0.7,0.8,0.4,0.500172704339984,"false"
"image-keyboard-response",97,158115,"0.0-4.28-1.28","81jb1n2bueb365f",865,"91.csv","","null","resources/maskTrios/BBA3.jpg","null","",NA,NA,NA,NA,""
"image-keyboard-response",98,159316,"0.0-4.28-2.28","81jb1n2bueb365f",865,"91.csv","","null","resources/images/fishbone.png","null","",NA,NA,NA,NA,""
"image-keyboard-response",99,159414,"0.0-4.29-0.29","81jb1n2bueb365f",865,"91.csv","","97","resources/trios/L1T2A3.jpg","38","restless",0.7,0.8,0.4,0.228869883969485,"true"
"image-keyboard-response",100,159815,"0.0-4.29-1.29","81jb1n2bueb365f",865,"91.csv","","null","resources/maskTrios/BT2B.jpg","null","",NA,NA,NA,NA,""
"image-keyboard-response",101,161017,"0.0-4.29-2.29","81jb1n2bueb365f",865,"91.csv","","null","resources/images/coin2.png","null","",NA,NA,NA,NA,""
"image-keyboard-response",102,161432,"0.0-4.30-0.30","81jb1n2bueb365f",865,"91.csv","","413.5","resources/trios/L1T2A3.jpg","38","restless",0.7,0.8,0.4,0.616007131992157,"true"
"image-keyboard-response",103,161834,"0.0-4.30-1.30","81jb1n2bueb365f",865,"91.csv","","null","resources/maskTrios/BT2B.jpg","null","",NA,NA,NA,NA,""
"image-keyboard-response",104,163036,"0.0-4.30-2.30","81jb1n2bueb365f",865,"91.csv","","null","resources/images/coin2.png","null","",NA,NA,NA,NA,""
"image-keyboard-response",105,163425,"0.0-4.31-0.31","81jb1n2bueb365f",865,"91.csv","","388.7000000178814","resources/trios/L1T2A3.jpg","37","restless",0.7,0.8,0.4,0.996686060151356,"false"
"image-keyboard-response",106,163826,"0.0-4.31-1.31","81jb1n2bueb365f",865,"91.csv","","null","resources/maskTrios/L1BB.jpg","null","",NA,NA,NA,NA,""
"image-keyboard-response",107,165028,"0.0-4.31-2.31","81jb1n2bueb365f",865,"91.csv","","null","resources/images/fishbone.png","null","",NA,NA,NA,NA,""
"image-keyboard-response",108,165475,"0.0-4.32-0.32","81jb1n2bueb365f",865,"91.csv","","446.90000000596046","resources/trios/L1T2A3.jpg","38","restless",0.7,0.8,0.4,0.948722641453556,"false"
"image-keyboard-response",109,165877,"0.0-4.32-1.32","81jb1n2bueb365f",865,"91.csv","","null","resources/maskTrios/BT2B.jpg","null","",NA,NA,NA,NA,""
"image-keyboard-response",110,167079,"0.0-4.32-2.32","81jb1n2bueb365f",865,"91.csv","","null","resources/images/fishbone.png","null","",NA,NA,NA,NA,""
"image-keyboard-response",111,167700,"0.0-4.33-0.33","81jb1n2bueb365f",865,"91.csv","","619.2000000178814","resources/trios/L1T2A3.jpg","37","restless",0.7,0.8,0.4,0.0997862335939212,"true"
"image-keyboard-response",112,168101,"0.0-4.33-1.33","81jb1n2bueb365f",865,"91.csv","","null","resources/maskTrios/L1BB.jpg","null","",NA,NA,NA,NA,""
"image-keyboard-response",113,169302,"0.0-4.33-2.33","81jb1n2bueb365f",865,"91.csv","","null","resources/images/coin2.png","null","",NA,NA,NA,NA,""
"image-keyboard-response",114,170104,"0.0-4.34-0.34","81jb1n2bueb365f",865,"91.csv","","801.2000000178814","resources/trios/L1T2A3.jpg","39","restless",0.7,0.8,0.5,0.356614799855558,"true"
"image-keyboard-response",115,170505,"0.0-4.34-1.34","81jb1n2bueb365f",865,"91.csv","","null","resources/maskTrios/BBA3.jpg","null","",NA,NA,NA,NA,""
"image-keyboard-response",116,171706,"0.0-4.34-2.34","81jb1n2bueb365f",865,"91.csv","","null","resources/images/coin2.png","null","",NA,NA,NA,NA,""
"image-keyboard-response",117,173299,"0.0-4.35-0.35","81jb1n2bueb365f",865,"91.csv","","1591","resources/trios/L1T2A3.jpg","38","restless",0.7,0.8,0.5,0.174652150672574,"true"
"image-keyboard-response",118,173700,"0.0-4.35-1.35","81jb1n2bueb365f",865,"91.csv","","null","resources/maskTrios/BT2B.jpg","null","",NA,NA,NA,NA,""
"image-keyboard-response",119,174903,"0.0-4.35-2.35","81jb1n2bueb365f",865,"91.csv","","null","resources/images/coin2.png","null","",NA,NA,NA,NA,""
"image-keyboard-response",120,175596,"0.0-4.36-0.36","81jb1n2bueb365f",865,"91.csv","","693.4000000059605","resources/trios/L1T2A3.jpg","39","restless",0.7,0.8,0.5,0.823273144987072,"false"
"image-keyboard-response",121,175998,"0.0-4.36-1.36","81jb1n2bueb365f",865,"91.csv","","null","resources/maskTrios/BBA3.jpg","null","",NA,NA,NA,NA,""
"image-keyboard-response",122,177199,"0.0-4.36-2.36","81jb1n2bueb365f",865,"91.csv","","null","resources/images/fishbone.png","null","",NA,NA,NA,NA,""
"image-keyboard-response",123,177722,"0.0-4.37-0.37","81jb1n2bueb365f",865,"91.csv","","522.1999999880791","resources/trios/L1T2A3.jpg","38","restless",0.7,0.8,0.5,0.666086065153133,"true"
"image-keyboard-response",124,178123,"0.0-4.37-1.37","81jb1n2bueb365f",865,"91.csv","","null","resources/maskTrios/BT2B.jpg","null","",NA,NA,NA,NA,""
"image-keyboard-response",125,179326,"0.0-4.37-2.37","81jb1n2bueb365f",865,"91.csv","","null","resources/images/coin2.png","null","",NA,NA,NA,NA,""
"image-keyboard-response",126,179655,"0.0-4.38-0.38","81jb1n2bueb365f",865,"91.csv","","328.7000000178814","resources/trios/L1T2A3.jpg","38","restless",0.7,0.8,0.5,0.953863932263369,"false"
"image-keyboard-response",127,180057,"0.0-4.38-1.38","81jb1n2bueb365f",865,"91.csv","","null","resources/maskTrios/BT2B.jpg","null","",NA,NA,NA,NA,""
"image-keyboard-response",128,181259,"0.0-4.38-2.38","81jb1n2bueb365f",865,"91.csv","","null","resources/images/fishbone.png","null","",NA,NA,NA,NA,""
"image-keyboard-response",129,181603,"0.0-4.39-0.39","81jb1n2bueb365f",865,"91.csv","","343.7999999821186","resources/trios/L1T2A3.jpg","37","restless",0.7,0.8,0.4,0.997960432845401,"false"
"image-keyboard-response",130,182005,"0.0-4.39-1.39","81jb1n2bueb365f",865,"91.csv","","null","resources/maskTrios/L1BB.jpg","null","",NA,NA,NA,NA,""
"image-keyboard-response",131,183206,"0.0-4.39-2.39","81jb1n2bueb365f",865,"91.csv","","null","resources/images/fishbone.png","null","",NA,NA,NA,NA,""
"image-keyboard-response",132,183944,"0.0-4.40-0.40","81jb1n2bueb365f",865,"91.csv","","737.7999999821186","resources/trios/L1T2A3.jpg","38","restless",0.7,0.7,0.4,0.668210384747352,"true"
"image-keyboard-response",133,184345,"0.0-4.40-1.40","81jb1n2bueb365f",865,"91.csv","","null","resources/maskTrios/BT2B.jpg","null","",NA,NA,NA,NA,""
"image-keyboard-response",134,185546,"0.0-4.40-2.40","81jb1n2bueb365f",865,"91.csv","","null","resources/images/coin2.png","null","",NA,NA,NA,NA,""
"image-keyboard-response",135,186523,"0.0-4.41-0.41","81jb1n2bueb365f",865,"91.csv","","976.5","resources/trios/L1T2A3.jpg","39","restless",0.7,0.7,0.4,0.24570596006771,"true"
"image-keyboard-response",136,186936,"0.0-4.41-1.41","81jb1n2bueb365f",865,"91.csv","","null","resources/maskTrios/BBA3.jpg","null","",NA,NA,NA,NA,""
"image-keyboard-response",137,188137,"0.0-4.41-2.41","81jb1n2bueb365f",865,"91.csv","","null","resources/images/coin2.png","null","",NA,NA,NA,NA,""
"image-keyboard-response",138,189263,"0.0-4.42-0.42","81jb1n2bueb365f",865,"91.csv","","1125.199999988079","resources/trios/L1T2A3.jpg","39","restless",0.7,0.7,0.4,0.871363812364937,"false"
"image-keyboard-response",139,189664,"0.0-4.42-1.42","81jb1n2bueb365f",865,"91.csv","","null","resources/maskTrios/BBA3.jpg","null","",NA,NA,NA,NA,""
"image-keyboard-response",140,190866,"0.0-4.42-2.42","81jb1n2bueb365f",865,"91.csv","","null","resources/images/fishbone.png","null","",NA,NA,NA,NA,""
"image-keyboard-response",141,191624,"0.0-4.43-0.43","81jb1n2bueb365f",865,"91.csv","","758.0999999940395","resources/trios/L1T2A3.jpg","38","restless",0.7,0.7,0.4,0.389616234970603,"true"
"image-keyboard-response",142,192025,"0.0-4.43-1.43","81jb1n2bueb365f",865,"91.csv","","null","resources/maskTrios/BT2B.jpg","null","",NA,NA,NA,NA,""
"image-keyboard-response",143,193227,"0.0-4.43-2.43","81jb1n2bueb365f",865,"91.csv","","null","resources/images/coin2.png","null","",NA,NA,NA,NA,""
"image-keyboard-response",144,195168,"0.0-4.44-0.44","81jb1n2bueb365f",865,"91.csv","","1940.7999999821186","resources/trios/L1T2A3.jpg","37","restless",0.7,0.7,0.5,0.289410280868482,"true"
"image-keyboard-response",145,195569,"0.0-4.44-1.44","81jb1n2bueb365f",865,"91.csv","","null","resources/maskTrios/L1BB.jpg","null","",NA,NA,NA,NA,""
"image-keyboard-response",146,196771,"0.0-4.44-2.44","81jb1n2bueb365f",865,"91.csv","","null","resources/images/coin2.png","null","",NA,NA,NA,NA,""
"image-keyboard-response",147,197687,"0.0-4.45-0.45","81jb1n2bueb365f",865,"91.csv","","915","resources/trios/L1T2A3.jpg","39","restless",0.7,0.7,0.5,0.441092710217744,"true"
"image-keyboard-response",148,198088,"0.0-4.45-1.45","81jb1n2bueb365f",865,"91.csv","","null","resources/maskTrios/BBA3.jpg","null","",NA,NA,NA,NA,""
"image-keyboard-response",149,199289,"0.0-4.45-2.45","81jb1n2bueb365f",865,"91.csv","","null","resources/images/coin2.png","null","",NA,NA,NA,NA,""
"image-keyboard-response",150,199697,"0.0-4.46-0.46","81jb1n2bueb365f",865,"91.csv","","407.5","resources/trios/L1T2A3.jpg","38","restless",0.7,0.7,0.5,0.944990686302137,"false"
"image-keyboard-response",151,200099,"0.0-4.46-1.46","81jb1n2bueb365f",865,"91.csv","","null","resources/maskTrios/BT2B.jpg","null","",NA,NA,NA,NA,""
"image-keyboard-response",152,201307,"0.0-4.46-2.46","81jb1n2bueb365f",865,"91.csv","","null","resources/images/fishbone.png","null","",NA,NA,NA,NA,""
"image-keyboard-response",153,201989,"0.0-4.47-0.47","81jb1n2bueb365f",865,"91.csv","","681.5","resources/trios/L1T2A3.jpg","39","restless",0.7,0.7,0.5,0.819177576792535,"false"
"image-keyboard-response",154,202390,"0.0-4.47-1.47","81jb1n2bueb365f",865,"91.csv","","null","resources/maskTrios/BBA3.jpg","null","",NA,NA,NA,NA,""
"image-keyboard-response",155,203594,"0.0-4.47-2.47","81jb1n2bueb365f",865,"91.csv","","null","resources/images/fishbone.png","null","",NA,NA,NA,NA,""
"image-keyboard-response",156,204138,"0.0-4.48-0.48","81jb1n2bueb365f",865,"91.csv","","543.5999999940395","resources/trios/L1T2A3.jpg","39","restless",0.7,0.7,0.5,0.13959992400074,"true"
"image-keyboard-response",157,204540,"0.0-4.48-1.48","81jb1n2bueb365f",865,"91.csv","","null","resources/maskTrios/BBA3.jpg","null","",NA,NA,NA,NA,""
"image-keyboard-response",158,205742,"0.0-4.48-2.48","81jb1n2bueb365f",865,"91.csv","","null","resources/images/coin2.png","null","",NA,NA,NA,NA,""
"image-keyboard-response",159,206210,"0.0-4.49-0.49","81jb1n2bueb365f",865,"91.csv","","466.5","resources/trios/L1T2A3.jpg","38","restless",0.7,0.7,0.5,0.650976755457543,"true"
"image-keyboard-response",160,206611,"0.0-4.49-1.49","81jb1n2bueb365f",865,"91.csv","","null","resources/maskTrios/BT2B.jpg","null","",NA,NA,NA,NA,""
"image-keyboard-response",161,207812,"0.0-4.49-2.49","81jb1n2bueb365f",865,"91.csv","","null","resources/images/coin2.png","null","",NA,NA,NA,NA,""
"image-keyboard-response",162,208596,"0.0-4.50-0.50","81jb1n2bueb365f",865,"91.csv","","783.7000000178814","resources/trios/L1T2A3.jpg","39","restless",0.7,0.7,0.5,0.342883378726214,"true"
"image-keyboard-response",163,208997,"0.0-4.50-1.50","81jb1n2bueb365f",865,"91.csv","","null","resources/maskTrios/BBA3.jpg","null","",NA,NA,NA,NA,""
"image-keyboard-response",164,210199,"0.0-4.50-2.50","81jb1n2bueb365f",865,"91.csv","","null","resources/images/coin2.png","null","",NA,NA,NA,NA,""
"image-keyboard-response",165,210530,"0.0-4.51-0.51","81jb1n2bueb365f",865,"91.csv","","330.5","resources/trios/L1T2A3.jpg","37","restless",0.7,0.7,0.5,0.203410515085301,"true"
"image-keyboard-response",166,210932,"0.0-4.51-1.51","81jb1n2bueb365f",865,"91.csv","","null","resources/maskTrios/L1BB.jpg","null","",NA,NA,NA,NA,""
"image-keyboard-response",167,212133,"0.0-4.51-2.51","81jb1n2bueb365f",865,"91.csv","","null","resources/images/coin2.png","null","",NA,NA,NA,NA,""
"image-keyboard-response",168,212596,"0.0-4.52-0.52","81jb1n2bueb365f",865,"91.csv","","462.59999999403954","resources/trios/L1T2A3.jpg","38","restless",0.7,0.7,0.5,0.0351854977153878,"true"
"image-keyboard-response",169,212997,"0.0-4.52-1.52","81jb1n2bueb365f",865,"91.csv","","null","resources/maskTrios/BT2B.jpg","null","",NA,NA,NA,NA,""
"image-keyboard-response",170,214200,"0.0-4.52-2.52","81jb1n2bueb365f",865,"91.csv","","null","resources/images/coin2.png","null","",NA,NA,NA,NA,""
"image-keyboard-response",171,214802,"0.0-4.53-0.53","81jb1n2bueb365f",865,"91.csv","","601.1000000238419","resources/trios/L1T2A3.jpg","37","restless",0.7,0.8,0.6,0.475771414188535,"true"
"image-keyboard-response",172,215203,"0.0-4.53-1.53","81jb1n2bueb365f",865,"91.csv","","null","resources/maskTrios/L1BB.jpg","null","",NA,NA,NA,NA,""
"image-keyboard-response",173,216404,"0.0-4.53-2.53","81jb1n2bueb365f",865,"91.csv","","null","resources/images/coin2.png","null","",NA,NA,NA,NA,""
"image-keyboard-response",174,216858,"0.0-4.54-0.54","81jb1n2bueb365f",865,"91.csv","","451.90000000596046","resources/trios/L1T2A3.jpg","38","restless",0.7,0.7,0.5,0.913305343011253,"false"
"image-keyboard-response",175,217260,"0.0-4.54-1.54","81jb1n2bueb365f",865,"91.csv","","null","resources/maskTrios/BT2B.jpg","null","",NA,NA,NA,NA,""
"image-keyboard-response",176,218462,"0.0-4.54-2.54","81jb1n2bueb365f",865,"91.csv","","null","resources/images/fishbone.png","null","",NA,NA,NA,NA,""
"image-keyboard-response",177,219477,"0.0-4.55-0.55","81jb1n2bueb365f",865,"91.csv","","1014.5","resources/trios/L1T2A3.jpg","39","restless",0.7,0.7,0.5,0.409796508873252,"true"
"image-keyboard-response",178,219878,"0.0-4.55-1.55","81jb1n2bueb365f",865,"91.csv","","null","resources/maskTrios/BBA3.jpg","null","",NA,NA,NA,NA,""
"image-keyboard-response",179,221080,"0.0-4.55-2.55","81jb1n2bueb365f",865,"91.csv","","null","resources/images/coin2.png","null","",NA,NA,NA,NA,""
"image-keyboard-response",180,221707,"0.0-4.56-0.56","81jb1n2bueb365f",865,"91.csv","","626.6000000238419","resources/trios/L1T2A3.jpg","37","restless",0.7,0.7,0.5,0.294186374112626,"true"
"image-keyboard-response",181,222109,"0.0-4.56-1.56","81jb1n2bueb365f",865,"91.csv","","null","resources/maskTrios/L1BB.jpg","null","",NA,NA,NA,NA,""
"image-keyboard-response",182,223310,"0.0-4.56-2.56","81jb1n2bueb365f",865,"91.csv","","null","resources/images/coin2.png","null","",NA,NA,NA,NA,""
"image-keyboard-response",183,223908,"0.0-4.57-0.57","81jb1n2bueb365f",865,"91.csv","","597","resources/trios/L1T2A3.jpg","38","restless",0.7,0.7,0.5,0.384760037056994,"true"
"image-keyboard-response",184,224310,"0.0-4.57-1.57","81jb1n2bueb365f",865,"91.csv","","null","resources/maskTrios/BT2B.jpg","null","",NA,NA,NA,NA,""
"image-keyboard-response",185,225511,"0.0-4.57-2.57","81jb1n2bueb365f",865,"91.csv","","null","resources/images/coin2.png","null","",NA,NA,NA,NA,""
"image-keyboard-response",186,226012,"0.0-4.58-0.58","81jb1n2bueb365f",865,"91.csv","","500.5","resources/trios/L1T2A3.jpg","39","restless",0.7,0.7,0.5,0.515344749792328,"false"
"image-keyboard-response",187,226413,"0.0-4.58-1.58","81jb1n2bueb365f",865,"91.csv","","null","resources/maskTrios/BBA3.jpg","null","",NA,NA,NA,NA,""
"image-keyboard-response",188,227624,"0.0-4.58-2.58","81jb1n2bueb365f",865,"91.csv","","null","resources/images/fishbone.png","null","",NA,NA,NA,NA,""
"image-keyboard-response",189,228261,"0.0-4.59-0.59","81jb1n2bueb365f",865,"91.csv","","636.8000000119209","resources/trios/L1T2A3.jpg","37","restless",0.7,0.7,0.5,0.608061473582968,"true"
"image-keyboard-response",190,228663,"0.0-4.59-1.59","81jb1n2bueb365f",865,"91.csv","","null","resources/maskTrios/L1BB.jpg","null","",NA,NA,NA,NA,""
"image-keyboard-response",191,229865,"0.0-4.59-2.59","81jb1n2bueb365f",865,"91.csv","","null","resources/images/coin2.png","null","",NA,NA,NA,NA,""
"image-keyboard-response",192,230780,"0.0-4.60-0.60","81jb1n2bueb365f",865,"91.csv","","914.0999999940395","resources/trios/L1T2A3.jpg","38","restless",0.7,0.7,0.4,0.401101581245803,"true"
"image-keyboard-response",193,231182,"0.0-4.60-1.60","81jb1n2bueb365f",865,"91.csv","","null","resources/maskTrios/BT2B.jpg","null","",NA,NA,NA,NA,""
"image-keyboard-response",194,232385,"0.0-4.60-2.60","81jb1n2bueb365f",865,"91.csv","","null","resources/images/coin2.png","null","",NA,NA,NA,NA,""
"image-keyboard-response",195,233263,"0.0-4.61-0.61","81jb1n2bueb365f",865,"91.csv","","876.6999999880791","resources/trios/L1T2A3.jpg","39","restless",0.6,0.7,0.4,0.140333723998187,"true"
"image-keyboard-response",196,233664,"0.0-4.61-1.61","81jb1n2bueb365f",865,"91.csv","","null","resources/maskTrios/BBA3.jpg","null","",NA,NA,NA,NA,""
"image-keyboard-response",197,234865,"0.0-4.61-2.61","81jb1n2bueb365f",865,"91.csv","","null","resources/images/coin2.png","null","",NA,NA,NA,NA,""
"image-keyboard-response",198,236038,"0.0-4.62-0.62","81jb1n2bueb365f",865,"91.csv","","1171.9000000059605","resources/trios/L1T2A3.jpg","38","restless",0.6,0.7,0.4,0.554565848323896,"true"
"image-keyboard-response",199,236439,"0.0-4.62-1.62","81jb1n2bueb365f",865,"91.csv","","null","resources/maskTrios/BT2B.jpg","null","",NA,NA,NA,NA,""
"image-keyboard-response",200,237640,"0.0-4.62-2.62","81jb1n2bueb365f",865,"91.csv","","null","resources/images/coin2.png","null","",NA,NA,NA,NA,""
"image-keyboard-response",201,238115,"0.0-4.63-0.63","81jb1n2bueb365f",865,"91.csv","","474.40000000596046","resources/trios/L1T2A3.jpg","39","restless",0.6,0.7,0.4,0.462411504397683,"false"
"image-keyboard-response",202,238516,"0.0-4.63-1.63","81jb1n2bueb365f",865,"91.csv","","null","resources/maskTrios/BBA3.jpg","null","",NA,NA,NA,NA,""
"image-keyboard-response",203,239718,"0.0-4.63-2.63","81jb1n2bueb365f",865,"91.csv","","null","resources/images/fishbone.png","null","",NA,NA,NA,NA,""
"image-keyboard-response",204,240038,"0.0-4.64-0.64","81jb1n2bueb365f",865,"91.csv","","319.39999997615814","resources/trios/L1T2A3.jpg","38","restless",0.6,0.7,0.4,0.469163154849487,"true"
"image-keyboard-response",205,240440,"0.0-4.64-1.64","81jb1n2bueb365f",865,"91.csv","","null","resources/maskTrios/BT2B.jpg","null","",NA,NA,NA,NA,""
"image-keyboard-response",206,241641,"0.0-4.64-2.64","81jb1n2bueb365f",865,"91.csv","","null","resources/images/coin2.png","null","",NA,NA,NA,NA,""
"image-keyboard-response",207,242001,"0.0-4.65-0.65","81jb1n2bueb365f",865,"91.csv","","359","resources/trios/L1T2A3.jpg","38","restless",0.6,0.8,0.4,0.798403678183861,"true"
"image-keyboard-response",208,242402,"0.0-4.65-1.65","81jb1n2bueb365f",865,"91.csv","","null","resources/maskTrios/BT2B.jpg","null","",NA,NA,NA,NA,""
"image-keyboard-response",209,243604,"0.0-4.65-2.65","81jb1n2bueb365f",865,"91.csv","","null","resources/images/coin2.png","null","",NA,NA,NA,NA,""
"image-keyboard-response",210,243857,"0.0-4.66-0.66","81jb1n2bueb365f",865,"91.csv","","252.09999999403954","resources/trios/L1T2A3.jpg","38","restless",0.6,0.8,0.4,0.950449538933857,"false"
"image-keyboard-response",211,244258,"0.0-4.66-1.66","81jb1n2bueb365f",865,"91.csv","","null","resources/maskTrios/BT2B.jpg","null","",NA,NA,NA,NA,""
"image-keyboard-response",212,245459,"0.0-4.66-2.66","81jb1n2bueb365f",865,"91.csv","","null","resources/images/fishbone.png","null","",NA,NA,NA,NA,""
"image-keyboard-response",213,245815,"0.0-4.67-0.67","81jb1n2bueb365f",865,"91.csv","","356","resources/trios/L1T2A3.jpg","39","restless",0.6,0.8,0.4,0.711995168809203,"false"
"image-keyboard-response",214,246217,"0.0-4.67-1.67","81jb1n2bueb365f",865,"91.csv","","null","resources/maskTrios/BBA3.jpg","null","",NA,NA,NA,NA,""
"image-keyboard-response",215,247418,"0.0-4.67-2.67","81jb1n2bueb365f",865,"91.csv","","null","resources/images/fishbone.png","null","",NA,NA,NA,NA,""
"image-keyboard-response",216,247695,"0.0-4.68-0.68","81jb1n2bueb365f",865,"91.csv","","276.19999998807907","resources/trios/L1T2A3.jpg","39","restless",0.6,0.8,0.4,0.98329557543056,"false"
"image-keyboard-response",217,248104,"0.0-4.68-1.68","81jb1n2bueb365f",865,"91.csv","","null","resources/maskTrios/BBA3.jpg","null","",NA,NA,NA,NA,""
"image-keyboard-response",218,249304,"0.0-4.68-2.68","81jb1n2bueb365f",865,"91.csv","","null","resources/images/fishbone.png","null","",NA,NA,NA,NA,""
"image-keyboard-response",219,249529,"0.0-4.69-0.69","81jb1n2bueb365f",865,"91.csv","","224.69999998807907","resources/trios/L1T2A3.jpg","37","restless",0.6,0.8,0.4,0.70302519794895,"false"
"image-keyboard-response",220,249930,"0.0-4.69-1.69","81jb1n2bueb365f",865,"91.csv","","null","resources/maskTrios/L1BB.jpg","null","",NA,NA,NA,NA,""
"image-keyboard-response",221,251131,"0.0-4.69-2.69","81jb1n2bueb365f",865,"91.csv","","null","resources/images/fishbone.png","null","",NA,NA,NA,NA,""
"image-keyboard-response",222,251185,"0.0-4.70-0.70","81jb1n2bueb365f",865,"91.csv","","52.099999994039536","resources/trios/L1T2A3.jpg","38","restless",0.6,0.8,0.4,0.142582249181734,"true"
"image-keyboard-response",223,251587,"0.0-4.70-1.70","81jb1n2bueb365f",865,"91.csv","","null","resources/maskTrios/BT2B.jpg","null","",NA,NA,NA,NA,""
"image-keyboard-response",224,252788,"0.0-4.70-2.70","81jb1n2bueb365f",865,"91.csv","","null","resources/images/coin2.png","null","",NA,NA,NA,NA,""
"image-keyboard-response",225,253123,"0.0-4.71-0.71","81jb1n2bueb365f",865,"91.csv","","334","resources/trios/L1T2A3.jpg","38","restless",0.6,0.8,0.4,0.985190138750001,"false"
"image-keyboard-response",226,253524,"0.0-4.71-1.71","81jb1n2bueb365f",865,"91.csv","","null","resources/maskTrios/BT2B.jpg","null","",NA,NA,NA,NA,""
"image-keyboard-response",227,254726,"0.0-4.71-2.71","81jb1n2bueb365f",865,"91.csv","","null","resources/images/fishbone.png","null","",NA,NA,NA,NA,""
"image-keyboard-response",228,255009,"0.0-4.72-0.72","81jb1n2bueb365f",865,"91.csv","","280.7999999821186","resources/trios/L1T2A3.jpg","39","restless",0.6,0.8,0.4,0.731696816598551,"false"
"image-keyboard-response",229,255411,"0.0-4.72-1.72","81jb1n2bueb365f",865,"91.csv","","null","resources/maskTrios/BBA3.jpg","null","",NA,NA,NA,NA,""
"image-keyboard-response",230,256612,"0.0-4.72-2.72","81jb1n2bueb365f",865,"91.csv","","null","resources/images/fishbone.png","null","",NA,NA,NA,NA,""
"image-keyboard-response",231,257345,"0.0-4.73-0.73","81jb1n2bueb365f",865,"91.csv","","732.4000000059605","resources/trios/L1T2A3.jpg","37","restless",0.6,0.8,0.4,0.579676439704472,"true"
"image-keyboard-response",232,257747,"0.0-4.73-1.73","81jb1n2bueb365f",865,"91.csv","","null","resources/maskTrios/L1BB.jpg","null","",NA,NA,NA,NA,""
"image-keyboard-response",233,258948,"0.0-4.73-2.73","81jb1n2bueb365f",865,"91.csv","","null","resources/images/coin2.png","null","",NA,NA,NA,NA,""
"image-keyboard-response",234,259598,"0.0-4.74-0.74","81jb1n2bueb365f",865,"91.csv","","649.0999999940395","resources/trios/L1T2A3.jpg","39","restless",0.5,0.8,0.4,0.0222397187412509,"true"
"image-keyboard-response",235,259999,"0.0-4.74-1.74","81jb1n2bueb365f",865,"91.csv","","null","resources/maskTrios/BBA3.jpg","null","",NA,NA,NA,NA,""
"image-keyboard-response",236,261201,"0.0-4.74-2.74","81jb1n2bueb365f",865,"91.csv","","null","resources/images/coin2.png","null","",NA,NA,NA,NA,""
"image-keyboard-response",237,261305,"0.0-4.75-0.75","81jb1n2bueb365f",865,"91.csv","","103.89999997615814","resources/trios/L1T2A3.jpg","38","restless",0.4,0.8,0.4,0.421437490436031,"true"
"image-keyboard-response",238,261707,"0.0-4.75-1.75","81jb1n2bueb365f",865,"91.csv","","null","resources/maskTrios/BT2B.jpg","null","",NA,NA,NA,NA,""
"image-keyboard-response",239,262909,"0.0-4.75-2.75","81jb1n2bueb365f",865,"91.csv","","null","resources/images/coin2.png","null","",NA,NA,NA,NA,""
"image-keyboard-response",240,263689,"0.0-4.76-0.76","81jb1n2bueb365f",865,"91.csv","","779.2000000178814","resources/trios/L1T2A3.jpg","37","restless",0.4,0.7,0.4,0.940150927954827,"false"
"image-keyboard-response",241,264091,"0.0-4.76-1.76","81jb1n2bueb365f",865,"91.csv","","null","resources/maskTrios/L1BB.jpg","null","",NA,NA,NA,NA,""
"image-keyboard-response",242,265293,"0.0-4.76-2.76","81jb1n2bueb365f",865,"91.csv","","null","resources/images/fishbone.png","null","",NA,NA,NA,NA,""
"image-keyboard-response",243,266313,"0.0-4.77-0.77","81jb1n2bueb365f",865,"91.csv","","1018.0999999940395","resources/trios/L1T2A3.jpg","38","restless",0.4,0.7,0.4,0.944081384339027,"false"
"image-keyboard-response",244,266715,"0.0-4.77-1.77","81jb1n2bueb365f",865,"91.csv","","null","resources/maskTrios/BT2B.jpg","null","",NA,NA,NA,NA,""
"image-keyboard-response",245,267917,"0.0-4.77-2.77","81jb1n2bueb365f",865,"91.csv","","null","resources/images/fishbone.png","null","",NA,NA,NA,NA,""
"image-keyboard-response",246,268483,"0.0-4.78-0.78","81jb1n2bueb365f",865,"91.csv","","564.8000000119209","resources/trios/L1T2A3.jpg","37","restless",0.4,0.7,0.4,0.268007038591908,"true"
"image-keyboard-response",247,268885,"0.0-4.78-1.78","81jb1n2bueb365f",865,"91.csv","","null","resources/maskTrios/L1BB.jpg","null","",NA,NA,NA,NA,""
"image-keyboard-response",248,270087,"0.0-4.78-2.78","81jb1n2bueb365f",865,"91.csv","","null","resources/images/coin2.png","null","",NA,NA,NA,NA,""
"image-keyboard-response",249,270829,"0.0-4.79-0.79","81jb1n2bueb365f",865,"91.csv","","741.9000000059605","resources/trios/L1T2A3.jpg","39","restless",0.4,0.7,0.4,0.777075825482936,"false"
"image-keyboard-response",250,271231,"0.0-4.79-1.79","81jb1n2bueb365f",865,"91.csv","","null","resources/maskTrios/BBA3.jpg","null","",NA,NA,NA,NA,""
"image-keyboard-response",251,272432,"0.0-4.79-2.79","81jb1n2bueb365f",865,"91.csv","","null","resources/images/fishbone.png","null","",NA,NA,NA,NA,""
"image-keyboard-response",252,273050,"0.0-4.80-0.80","81jb1n2bueb365f",865,"91.csv","","617.4000000059605","resources/trios/L1T2A3.jpg","39","restless",0.4,0.7,0.4,0.491339227605403,"false"
"image-keyboard-response",253,273452,"0.0-4.80-1.80","81jb1n2bueb365f",865,"91.csv","","null","resources/maskTrios/BBA3.jpg","null","",NA,NA,NA,NA,""
"image-keyboard-response",254,274653,"0.0-4.80-2.80","81jb1n2bueb365f",865,"91.csv","","null","resources/images/fishbone.png","null","",NA,NA,NA,NA,""
"image-keyboard-response",255,275026,"0.0-4.81-0.81","81jb1n2bueb365f",865,"91.csv","","372.69999998807907","resources/trios/L1T2A3.jpg","38","restless",0.4,0.7,0.5,0.938796015235904,"false"
"image-keyboard-response",256,275429,"0.0-4.81-1.81","81jb1n2bueb365f",865,"91.csv","","null","resources/maskTrios/BT2B.jpg","null","",NA,NA,NA,NA,""
"image-keyboard-response",257,276630,"0.0-4.81-2.81","81jb1n2bueb365f",865,"91.csv","","null","resources/images/fishbone.png","null","",NA,NA,NA,NA,""
"image-keyboard-response",258,276974,"0.0-4.82-0.82","81jb1n2bueb365f",865,"91.csv","","342.69999998807907","resources/trios/L1T2A3.jpg","37","restless",0.4,0.7,0.5,0.303238454223302,"true"
"image-keyboard-response",259,277374,"0.0-4.82-1.82","81jb1n2bueb365f",865,"91.csv","","null","resources/maskTrios/L1BB.jpg","null","",NA,NA,NA,NA,""
"image-keyboard-response",260,278576,"0.0-4.82-2.82","81jb1n2bueb365f",865,"91.csv","","null","resources/images/coin2.png","null","",NA,NA,NA,NA,""
"image-keyboard-response",261,279091,"0.0-4.83-0.83","81jb1n2bueb365f",865,"91.csv","","514.9000000059605","resources/trios/L1T2A3.jpg","39","restless",0.4,0.7,0.5,0.507422092868802,"false"
"image-keyboard-response",262,279494,"0.0-4.83-1.83","81jb1n2bueb365f",865,"91.csv","","null","resources/maskTrios/BBA3.jpg","null","",NA,NA,NA,NA,""
"image-keyboard-response",263,280695,"0.0-4.83-2.83","81jb1n2bueb365f",865,"91.csv","","null","resources/images/fishbone.png","null","",NA,NA,NA,NA,""
"image-keyboard-response",264,281302,"0.0-4.84-0.84","81jb1n2bueb365f",865,"91.csv","","606","resources/trios/L1T2A3.jpg","38","restless",0.4,0.7,0.5,0.179199391352508,"true"
"image-keyboard-response",265,281704,"0.0-4.84-1.84","81jb1n2bueb365f",865,"91.csv","","null","resources/maskTrios/BT2B.jpg","null","",NA,NA,NA,NA,""
"image-keyboard-response",266,282906,"0.0-4.84-2.84","81jb1n2bueb365f",865,"91.csv","","null","resources/images/coin2.png","null","",NA,NA,NA,NA,""
"image-keyboard-response",267,283928,"0.0-4.85-0.85","81jb1n2bueb365f",865,"91.csv","","1020.8000000119209","resources/trios/L1T2A3.jpg","39","restless",0.4,0.7,0.5,0.235307857832041,"true"
"image-keyboard-response",268,284330,"0.0-4.85-1.85","81jb1n2bueb365f",865,"91.csv","","null","resources/maskTrios/BBA3.jpg","null","",NA,NA,NA,NA,""
"image-keyboard-response",269,285531,"0.0-4.85-2.85","81jb1n2bueb365f",865,"91.csv","","null","resources/images/coin2.png","null","",NA,NA,NA,NA,""
"image-keyboard-response",270,286240,"0.0-4.86-0.86","81jb1n2bueb365f",865,"91.csv","","708.5","resources/trios/L1T2A3.jpg","37","restless",0.4,0.7,0.6,0.355497638394181,"true"
"image-keyboard-response",271,286641,"0.0-4.86-1.86","81jb1n2bueb365f",865,"91.csv","","null","resources/maskTrios/L1BB.jpg","null","",NA,NA,NA,NA,""
"image-keyboard-response",272,287843,"0.0-4.86-2.86","81jb1n2bueb365f",865,"91.csv","","null","resources/images/coin2.png","null","",NA,NA,NA,NA,""
"image-keyboard-response",273,288428,"0.0-4.87-0.87","81jb1n2bueb365f",865,"91.csv","","585","resources/trios/L1T2A3.jpg","39","restless",0.4,0.6,0.6,0.0433357370277618,"true"
"image-keyboard-response",274,288829,"0.0-4.87-1.87","81jb1n2bueb365f",865,"91.csv","","null","resources/maskTrios/BBA3.jpg","null","",NA,NA,NA,NA,""
"image-keyboard-response",275,290032,"0.0-4.87-2.87","81jb1n2bueb365f",865,"91.csv","","null","resources/images/coin2.png","null","",NA,NA,NA,NA,""
"image-keyboard-response",276,290705,"0.0-4.88-0.88","81jb1n2bueb365f",865,"91.csv","","671.2999999821186","resources/trios/L1T2A3.jpg","38","restless",0.4,0.6,0.6,0.115542149964446,"true"
"image-keyboard-response",277,291107,"0.0-4.88-1.88","81jb1n2bueb365f",865,"91.csv","","null","resources/maskTrios/BT2B.jpg","null","",NA,NA,NA,NA,""
"image-keyboard-response",278,292309,"0.0-4.88-2.88","81jb1n2bueb365f",865,"91.csv","","null","resources/images/coin2.png","null","",NA,NA,NA,NA,""
"image-keyboard-response",279,292720,"0.0-4.89-0.89","81jb1n2bueb365f",865,"91.csv","","410.5","resources/trios/L1T2A3.jpg","37","restless",0.4,0.6,0.6,0.724880258602515,"false"
"image-keyboard-response",280,293122,"0.0-4.89-1.89","81jb1n2bueb365f",865,"91.csv","","null","resources/maskTrios/L1BB.jpg","null","",NA,NA,NA,NA,""
"image-keyboard-response",281,294323,"0.0-4.89-2.89","81jb1n2bueb365f",865,"91.csv","","null","resources/images/fishbone.png","null","",NA,NA,NA,NA,""
"image-keyboard-response",282,294623,"0.0-4.90-0.90","81jb1n2bueb365f",865,"91.csv","","297.7999999821186","resources/trios/L1T2A3.jpg","38","restless",0.4,0.6,0.5,0.99130702345097,"false"
"image-keyboard-response",283,295024,"0.0-4.90-1.90","81jb1n2bueb365f",865,"91.csv","","null","resources/maskTrios/BT2B.jpg","null","",NA,NA,NA,NA,""
"image-keyboard-response",284,296226,"0.0-4.90-2.90","81jb1n2bueb365f",865,"91.csv","","null","resources/images/fishbone.png","null","",NA,NA,NA,NA,""
"image-keyboard-response",285,296490,"0.0-4.91-0.91","81jb1n2bueb365f",865,"91.csv","","263.40000000596046","resources/trios/L1T2A3.jpg","39","restless",0.3,0.6,0.5,0.963686061722127,"false"
"image-keyboard-response",286,296893,"0.0-4.91-1.91","81jb1n2bueb365f",865,"91.csv","","null","resources/maskTrios/BBA3.jpg","null","",NA,NA,NA,NA,""
"image-keyboard-response",287,298093,"0.0-4.91-2.91","81jb1n2bueb365f",865,"91.csv","","null","resources/images/fishbone.png","null","",NA,NA,NA,NA,""
"image-keyboard-response",288,300533,"0.0-4.92-0.92","81jb1n2bueb365f",865,"91.csv","","2439.7000000178814","resources/trios/L1T2A3.jpg","37","restless",0.3,0.6,0.5,0.141194095020661,"true"
"image-keyboard-response",289,300936,"0.0-4.92-1.92","81jb1n2bueb365f",865,"91.csv","","null","resources/maskTrios/L1BB.jpg","null","",NA,NA,NA,NA,""
"image-keyboard-response",290,302138,"0.0-4.92-2.92","81jb1n2bueb365f",865,"91.csv","","null","resources/images/coin2.png","null","",NA,NA,NA,NA,""
"image-keyboard-response",291,302750,"0.0-4.93-0.93","81jb1n2bueb365f",865,"91.csv","","611.6999999880791","resources/trios/L1T2A3.jpg","39","restless",0.3,0.6,0.5,0.42003689809729,"true"
"image-keyboard-response",292,303152,"0.0-4.93-1.93","81jb1n2bueb365f",865,"91.csv","","null","resources/maskTrios/BBA3.jpg","null","",NA,NA,NA,NA,""
"image-keyboard-response",293,304355,"0.0-4.93-2.93","81jb1n2bueb365f",865,"91.csv","","null","resources/images/coin2.png","null","",NA,NA,NA,NA,""
"image-keyboard-response",294,304768,"0.0-4.94-0.94","81jb1n2bueb365f",865,"91.csv","","412.5","resources/trios/L1T2A3.jpg","38","restless",0.3,0.6,0.5,0.640630593127243,"false"
"image-keyboard-response",295,305171,"0.0-4.94-1.94","81jb1n2bueb365f",865,"91.csv","","null","resources/maskTrios/BT2B.jpg","null","",NA,NA,NA,NA,""
"image-keyboard-response",296,306372,"0.0-4.94-2.94","81jb1n2bueb365f",865,"91.csv","","null","resources/images/fishbone.png","null","",NA,NA,NA,NA,""
"image-keyboard-response",297,307062,"0.0-4.95-0.95","81jb1n2bueb365f",865,"91.csv","","690","resources/trios/L1T2A3.jpg","37","restless",0.3,0.6,0.5,0.407438502782187,"false"
"image-keyboard-response",298,307464,"0.0-4.95-1.95","81jb1n2bueb365f",865,"91.csv","","null","resources/maskTrios/L1BB.jpg","null","",NA,NA,NA,NA,""
"image-keyboard-response",299,308664,"0.0-4.95-2.95","81jb1n2bueb365f",865,"91.csv","","null","resources/images/fishbone.png","null","",NA,NA,NA,NA,""
"image-keyboard-response",300,309379,"0.0-4.96-0.96","81jb1n2bueb365f",865,"91.csv","","713.9000000059605","resources/trios/L1T2A3.jpg","38","restless",0.3,0.6,0.4,0.718391903400398,"false"
"image-keyboard-response",301,309780,"0.0-4.96-1.96","81jb1n2bueb365f",865,"91.csv","","null","resources/maskTrios/BT2B.jpg","null","",NA,NA,NA,NA,""
"image-keyboard-response",302,310981,"0.0-4.96-2.96","81jb1n2bueb365f",865,"91.csv","","null","resources/images/fishbone.png","null","",NA,NA,NA,NA,""
"image-keyboard-response",303,311343,"0.0-4.97-0.97","81jb1n2bueb365f",865,"91.csv","","361.09999999403954","resources/trios/L1T2A3.jpg","37","restless",0.3,0.6,0.5,0.0847508442492519,"true"
"image-keyboard-response",304,311744,"0.0-4.97-1.97","81jb1n2bueb365f",865,"91.csv","","null","resources/maskTrios/L1BB.jpg","null","",NA,NA,NA,NA,""
"image-keyboard-response",305,312946,"0.0-4.97-2.97","81jb1n2bueb365f",865,"91.csv","","null","resources/images/coin2.png","null","",NA,NA,NA,NA,""
"image-keyboard-response",306,313324,"0.0-4.98-0.98","81jb1n2bueb365f",865,"91.csv","","377.7999999821186","resources/trios/L1T2A3.jpg","39","restless",0.3,0.6,0.5,0.171367826605549,"true"
"image-keyboard-response",307,313725,"0.0-4.98-1.98","81jb1n2bueb365f",865,"91.csv","","null","resources/maskTrios/BBA3.jpg","null","",NA,NA,NA,NA,""
"image-keyboard-response",308,314927,"0.0-4.98-2.98","81jb1n2bueb365f",865,"91.csv","","null","resources/images/coin2.png","null","",NA,NA,NA,NA,""
"image-keyboard-response",309,315716,"0.0-4.99-0.99","81jb1n2bueb365f",865,"91.csv","","787.5","resources/trios/L1T2A3.jpg","38","restless",0.3,0.6,0.5,0.234360199319966,"true"
"image-keyboard-response",310,316118,"0.0-4.99-1.99","81jb1n2bueb365f",865,"91.csv","","null","resources/maskTrios/BT2B.jpg","null","",NA,NA,NA,NA,""
"image-keyboard-response",311,317319,"0.0-4.99-2.99","81jb1n2bueb365f",865,"91.csv","","null","resources/images/coin2.png","null","",NA,NA,NA,NA,""
"image-keyboard-response",312,318083,"0.0-4.100-0.100","81jb1n2bueb365f",865,"91.csv","","763.0999999940395","resources/trios/L1T2A3.jpg","37","restless",0.3,0.6,0.5,0.422949998949176,"false"
"image-keyboard-response",313,318485,"0.0-4.100-1.100","81jb1n2bueb365f",865,"91.csv","","null","resources/maskTrios/L1BB.jpg","null","",NA,NA,NA,NA,""
"image-keyboard-response",314,319688,"0.0-4.100-2.100","81jb1n2bueb365f",865,"91.csv","","null","resources/images/fishbone.png","null","",NA,NA,NA,NA,""
"image-keyboard-response",315,320012,"0.0-4.101-0.101","81jb1n2bueb365f",865,"91.csv","","324.09999999403954","resources/trios/L1T2A3.jpg","39","restless",0.3,0.6,0.5,0.42545769577379,"true"
"image-keyboard-response",316,320414,"0.0-4.101-1.101","81jb1n2bueb365f",865,"91.csv","","null","resources/maskTrios/BBA3.jpg","null","",NA,NA,NA,NA,""
"image-keyboard-response",317,321615,"0.0-4.101-2.101","81jb1n2bueb365f",865,"91.csv","","null","resources/images/coin2.png","null","",NA,NA,NA,NA,""
"image-keyboard-response",318,321913,"0.0-4.102-0.102","81jb1n2bueb365f",865,"91.csv","","296.09999999403954","resources/trios/L1T2A3.jpg","38","restless",0.3,0.6,0.5,0.807537025824528,"false"
"image-keyboard-response",319,322315,"0.0-4.102-1.102","81jb1n2bueb365f",865,"91.csv","","null","resources/maskTrios/BT2B.jpg","null","",NA,NA,NA,NA,""
"image-keyboard-response",320,323515,"0.0-4.102-2.102","81jb1n2bueb365f",865,"91.csv","","null","resources/images/fishbone.png","null","",NA,NA,NA,NA,""
"image-keyboard-response",321,323671,"0.0-4.103-0.103","81jb1n2bueb365f",865,"91.csv","","155","resources/trios/L1T2A3.jpg","37","restless",0.3,0.6,0.5,0.55235774304086,"false"
"image-keyboard-response",322,324072,"0.0-4.103-1.103","81jb1n2bueb365f",865,"91.csv","","null","resources/maskTrios/L1BB.jpg","null","",NA,NA,NA,NA,""
"image-keyboard-response",323,325283,"0.0-4.103-2.103","81jb1n2bueb365f",865,"91.csv","","null","resources/images/fishbone.png","null","",NA,NA,NA,NA,""
"image-keyboard-response",324,326328,"0.0-4.104-0.104","81jb1n2bueb365f",865,"91.csv","","1044.7999999821186","resources/trios/L1T2A3.jpg","37","restless",0.3,0.6,0.5,0.700480153615754,"false"
"image-keyboard-response",325,326743,"0.0-4.104-1.104","81jb1n2bueb365f",865,"91.csv","","null","resources/maskTrios/L1BB.jpg","null","",NA,NA,NA,NA,""
"image-keyboard-response",326,327945,"0.0-4.104-2.104","81jb1n2bueb365f",865,"91.csv","","null","resources/images/fishbone.png","null","",NA,NA,NA,NA,""
"image-keyboard-response",327,327994,"0.0-4.105-0.105","81jb1n2bueb365f",865,"91.csv","","48.29999998211861","resources/trios/L1T2A3.jpg","38","restless",0.2,0.6,0.5,0.0104156834607347,"true"
"image-keyboard-response",328,328395,"0.0-4.105-1.105","81jb1n2bueb365f",865,"91.csv","","null","resources/maskTrios/BT2B.jpg","null","",NA,NA,NA,NA,""
"image-keyboard-response",329,329597,"0.0-4.105-2.105","81jb1n2bueb365f",865,"91.csv","","null","resources/images/coin2.png","null","",NA,NA,NA,NA,""
"image-keyboard-response",330,331230,"0.0-4.106-0.106","81jb1n2bueb365f",865,"91.csv","","1631.699999988079","resources/trios/L1T2A3.jpg","39","restless",0.2,0.6,0.5,0.394791568572329,"true"
"image-keyboard-response",331,331632,"0.0-4.106-1.106","81jb1n2bueb365f",865,"91.csv","","null","resources/maskTrios/BBA3.jpg","null","",NA,NA,NA,NA,""
"image-keyboard-response",332,332834,"0.0-4.106-2.106","81jb1n2bueb365f",865,"91.csv","","null","resources/images/coin2.png","null","",NA,NA,NA,NA,""
"image-keyboard-response",333,333597,"0.0-4.107-0.107","81jb1n2bueb365f",865,"91.csv","","762.5","resources/trios/L1T2A3.jpg","39","restless",0.2,0.6,0.5,0.137183865964781,"true"
"image-keyboard-response",334,333998,"0.0-4.107-1.107","81jb1n2bueb365f",865,"91.csv","","null","resources/maskTrios/BBA3.jpg","null","",NA,NA,NA,NA,""
"image-keyboard-response",335,335200,"0.0-4.107-2.107","81jb1n2bueb365f",865,"91.csv","","null","resources/images/coin2.png","null","",NA,NA,NA,NA,""
"image-keyboard-response",336,335892,"0.0-4.108-0.108","81jb1n2bueb365f",865,"91.csv","","691","resources/trios/L1T2A3.jpg","39","restless",0.2,0.6,0.5,0.229404635451389,"true"
"image-keyboard-response",337,336294,"0.0-4.108-1.108","81jb1n2bueb365f",865,"91.csv","","null","resources/maskTrios/BBA3.jpg","null","",NA,NA,NA,NA,""
"image-keyboard-response",338,337495,"0.0-4.108-2.108","81jb1n2bueb365f",865,"91.csv","","null","resources/images/coin2.png","null","",NA,NA,NA,NA,""
"image-keyboard-response",339,337742,"0.0-4.109-0.109","81jb1n2bueb365f",865,"91.csv","","246","resources/trios/L1T2A3.jpg","39","restless",0.2,0.6,0.5,0.421329070389515,"true"
"image-keyboard-response",340,338143,"0.0-4.109-1.109","81jb1n2bueb365f",865,"91.csv","","null","resources/maskTrios/BBA3.jpg","null","",NA,NA,NA,NA,""
"image-keyboard-response",341,339345,"0.0-4.109-2.109","81jb1n2bueb365f",865,"91.csv","","null","resources/images/coin2.png","null","",NA,NA,NA,NA,""
"image-keyboard-response",342,339523,"0.0-4.110-0.110","81jb1n2bueb365f",865,"91.csv","","177.59999999403954","resources/trios/L1T2A3.jpg","39","restless",0.2,0.6,0.5,0.818431995828276,"false"
"image-keyboard-response",343,339924,"0.0-4.110-1.110","81jb1n2bueb365f",865,"91.csv","","null","resources/maskTrios/BBA3.jpg","null","",NA,NA,NA,NA,""
"image-keyboard-response",344,341125,"0.0-4.110-2.110","81jb1n2bueb365f",865,"91.csv","","null","resources/images/fishbone.png","null","",NA,NA,NA,NA,""
"image-keyboard-response",345,341640,"0.0-4.111-0.111","81jb1n2bueb365f",865,"91.csv","","514.2000000178814","resources/trios/L1T2A3.jpg","37","restless",0.3,0.6,0.5,0.139594572937792,"true"
"image-keyboard-response",346,342055,"0.0-4.111-1.111","81jb1n2bueb365f",865,"91.csv","","null","resources/maskTrios/L1BB.jpg","null","",NA,NA,NA,NA,""
"image-keyboard-response",347,343257,"0.0-4.111-2.111","81jb1n2bueb365f",865,"91.csv","","null","resources/images/coin2.png","null","",NA,NA,NA,NA,""
"image-keyboard-response",348,343342,"0.0-4.112-0.112","81jb1n2bueb365f",865,"91.csv","","84.60000002384186","resources/trios/L1T2A3.jpg","37","restless",0.3,0.6,0.5,0.330033747545353,"false"
"image-keyboard-response",349,343743,"0.0-4.112-1.112","81jb1n2bueb365f",865,"91.csv","","null","resources/maskTrios/L1BB.jpg","null","",NA,NA,NA,NA,""
"image-keyboard-response",350,344944,"0.0-4.112-2.112","81jb1n2bueb365f",865,"91.csv","","null","resources/images/fishbone.png","null","",NA,NA,NA,NA,""
"image-keyboard-response",351,344948,"0.0-4.113-0.113","81jb1n2bueb365f",865,"91.csv","","3.199999988079071","resources/trios/L1T2A3.jpg","38","restless",0.3,0.6,0.5,0.620554524300775,"false"
"image-keyboard-response",352,345349,"0.0-4.113-1.113","81jb1n2bueb365f",865,"91.csv","","null","resources/maskTrios/BT2B.jpg","null","",NA,NA,NA,NA,""
"image-keyboard-response",353,346551,"0.0-4.113-2.113","81jb1n2bueb365f",865,"91.csv","","null","resources/images/fishbone.png","null","",NA,NA,NA,NA,""
"image-keyboard-response",354,346833,"0.0-4.114-0.114","81jb1n2bueb365f",865,"91.csv","","279.69999998807907","resources/trios/L1T2A3.jpg","38","restless",0.3,0.6,0.5,0.920976745419523,"false"
"image-keyboard-response",355,347234,"0.0-4.114-1.114","81jb1n2bueb365f",865,"91.csv","","null","resources/maskTrios/BT2B.jpg","null","",NA,NA,NA,NA,""
"image-keyboard-response",356,348437,"0.0-4.114-2.114","81jb1n2bueb365f",865,"91.csv","","null","resources/images/fishbone.png","null","",NA,NA,NA,NA,""
"image-keyboard-response",357,348878,"0.0-4.115-0.115","81jb1n2bueb365f",865,"91.csv","","440.59999999403954","resources/trios/L1T2A3.jpg","39","restless",0.3,0.6,0.5,0.445471914563023,"true"
"image-keyboard-response",358,349279,"0.0-4.115-1.115","81jb1n2bueb365f",865,"91.csv","","null","resources/maskTrios/BBA3.jpg","null","",NA,NA,NA,NA,""
"image-keyboard-response",359,350481,"0.0-4.115-2.115","81jb1n2bueb365f",865,"91.csv","","null","resources/images/coin2.png","null","",NA,NA,NA,NA,""
"image-keyboard-response",360,350792,"0.0-4.116-0.116","81jb1n2bueb365f",865,"91.csv","","309.40000000596046","resources/trios/L1T2A3.jpg","39","restless",0.2,0.6,0.5,0.406024341562405,"true"
"image-keyboard-response",361,351194,"0.0-4.116-1.116","81jb1n2bueb365f",865,"91.csv","","null","resources/maskTrios/BBA3.jpg","null","",NA,NA,NA,NA,""
"image-keyboard-response",362,352395,"0.0-4.116-2.116","81jb1n2bueb365f",865,"91.csv","","null","resources/images/coin2.png","null","",NA,NA,NA,NA,""
"image-keyboard-response",363,352547,"0.0-4.117-0.117","81jb1n2bueb365f",865,"91.csv","","151.40000000596046","resources/trios/L1T2A3.jpg","39","restless",0.2,0.6,0.5,0.129291727683835,"true"
"image-keyboard-response",364,352948,"0.0-4.117-1.117","81jb1n2bueb365f",865,"91.csv","","null","resources/maskTrios/BBA3.jpg","null","",NA,NA,NA,NA,""
"image-keyboard-response",365,354151,"0.0-4.117-2.117","81jb1n2bueb365f",865,"91.csv","","null","resources/images/coin2.png","null","",NA,NA,NA,NA,""
"image-keyboard-response",366,354621,"0.0-4.118-0.118","81jb1n2bueb365f",865,"91.csv","","469.5","resources/trios/L1T2A3.jpg","39","restless",0.2,0.6,0.5,0.85352878689939,"false"
"image-keyboard-response",367,355022,"0.0-4.118-1.118","81jb1n2bueb365f",865,"91.csv","","null","resources/maskTrios/BBA3.jpg","null","",NA,NA,NA,NA,""
"image-keyboard-response",368,356223,"0.0-4.118-2.118","81jb1n2bueb365f",865,"91.csv","","null","resources/images/fishbone.png","null","",NA,NA,NA,NA,""
"image-keyboard-response",369,356774,"0.0-4.119-0.119","81jb1n2bueb365f",865,"91.csv","","550.7999999821186","resources/trios/L1T2A3.jpg","38","restless",0.3,0.6,0.5,0.60835284174245,"false"
"image-keyboard-response",370,357176,"0.0-4.119-1.119","81jb1n2bueb365f",865,"91.csv","","null","resources/maskTrios/BT2B.jpg","null","",NA,NA,NA,NA,""
"image-keyboard-response",371,358377,"0.0-4.119-2.119","81jb1n2bueb365f",865,"91.csv","","null","resources/images/fishbone.png","null","",NA,NA,NA,NA,""
"image-keyboard-response",372,358782,"0.0-4.120-0.120","81jb1n2bueb365f",865,"91.csv","","404.59999999403954","resources/trios/L1T2A3.jpg","39","restless",0.3,0.6,0.5,0.517083037239303,"false"
"image-keyboard-response",373,359185,"0.0-4.120-1.120","81jb1n2bueb365f",865,"91.csv","","null","resources/maskTrios/BBA3.jpg","null","",NA,NA,NA,NA,""
"image-keyboard-response",374,360389,"0.0-4.120-2.120","81jb1n2bueb365f",865,"91.csv","","null","resources/images/fishbone.png","null","",NA,NA,NA,NA,""
"image-keyboard-response",375,360784,"0.0-4.121-0.121","81jb1n2bueb365f",865,"91.csv","","393","resources/trios/L1T2A3.jpg","38","restless",0.3,0.6,0.5,0.324287847462385,"true"
"image-keyboard-response",376,361186,"0.0-4.121-1.121","81jb1n2bueb365f",865,"91.csv","","null","resources/maskTrios/BT2B.jpg","null","",NA,NA,NA,NA,""
"image-keyboard-response",377,362388,"0.0-4.121-2.121","81jb1n2bueb365f",865,"91.csv","","null","resources/images/coin2.png","null","",NA,NA,NA,NA,""
"image-keyboard-response",378,363188,"0.0-4.122-0.122","81jb1n2bueb365f",865,"91.csv","","799.5","resources/trios/L1T2A3.jpg","37","restless",0.4,0.6,0.6,0.272934572830066,"true"
"image-keyboard-response",379,363589,"0.0-4.122-1.122","81jb1n2bueb365f",865,"91.csv","","null","resources/maskTrios/L1BB.jpg","null","",NA,NA,NA,NA,""
"image-keyboard-response",380,364790,"0.0-4.122-2.122","81jb1n2bueb365f",865,"91.csv","","null","resources/images/coin2.png","null","",NA,NA,NA,NA,""
"image-keyboard-response",381,365067,"0.0-4.123-0.123","81jb1n2bueb365f",865,"91.csv","","276.5","resources/trios/L1T2A3.jpg","39","restless",0.4,0.6,0.6,0.643614206790314,"false"
"image-keyboard-response",382,365482,"0.0-4.123-1.123","81jb1n2bueb365f",865,"91.csv","","null","resources/maskTrios/BBA3.jpg","null","",NA,NA,NA,NA,""
"image-keyboard-response",383,366683,"0.0-4.123-2.123","81jb1n2bueb365f",865,"91.csv","","null","resources/images/fishbone.png","null","",NA,NA,NA,NA,""
"image-keyboard-response",384,366967,"0.0-4.124-0.124","81jb1n2bueb365f",865,"91.csv","","283.90000000596046","resources/trios/L1T2A3.jpg","38","restless",0.4,0.6,0.6,0.0681990379742823,"true"
"image-keyboard-response",385,367369,"0.0-4.124-1.124","81jb1n2bueb365f",865,"91.csv","","null","resources/maskTrios/BT2B.jpg","null","",NA,NA,NA,NA,""
"image-keyboard-response",386,368571,"0.0-4.124-2.124","81jb1n2bueb365f",865,"91.csv","","null","resources/images/coin2.png","null","",NA,NA,NA,NA,""
"image-keyboard-response",387,369034,"0.0-4.125-0.125","81jb1n2bueb365f",865,"91.csv","","461.7000000178814","resources/trios/L1T2A3.jpg","39","restless",0.4,0.6,0.6,0.664048994249644,"false"
"image-keyboard-response",388,369435,"0.0-4.125-1.125","81jb1n2bueb365f",865,"91.csv","","null","resources/maskTrios/BBA3.jpg","null","",NA,NA,NA,NA,""
"image-keyboard-response",389,370637,"0.0-4.125-2.125","81jb1n2bueb365f",865,"91.csv","","null","resources/images/fishbone.png","null","",NA,NA,NA,NA,""
"image-keyboard-response",390,371180,"0.0-4.126-0.126","81jb1n2bueb365f",865,"91.csv","","542.7000000178814","resources/trios/L1T2A3.jpg","38","restless",0.4,0.6,0.6,0.877880909874034,"false"
"image-keyboard-response",391,371582,"0.0-4.126-1.126","81jb1n2bueb365f",865,"91.csv","","null","resources/maskTrios/BT2B.jpg","null","",NA,NA,NA,NA,""
"image-keyboard-response",392,372784,"0.0-4.126-2.126","81jb1n2bueb365f",865,"91.csv","","null","resources/images/fishbone.png","null","",NA,NA,NA,NA,""
"image-keyboard-response",393,373066,"0.0-4.127-0.127","81jb1n2bueb365f",865,"91.csv","","281.80000001192093","resources/trios/L1T2A3.jpg","37","restless",0.4,0.6,0.6,0.585972291903609,"false"
"image-keyboard-response",394,373467,"0.0-4.127-1.127","81jb1n2bueb365f",865,"91.csv","","null","resources/maskTrios/L1BB.jpg","null","",NA,NA,NA,NA,""
"image-keyboard-response",395,374668,"0.0-4.127-2.127","81jb1n2bueb365f",865,"91.csv","","null","resources/images/fishbone.png","null","",NA,NA,NA,NA,""
"image-keyboard-response",396,375189,"0.0-4.128-0.128","81jb1n2bueb365f",865,"91.csv","","520.0999999940395","resources/trios/L1T2A3.jpg","39","restless",0.4,0.6,0.6,0.846315885933181,"false"
"image-keyboard-response",397,375590,"0.0-4.128-1.128","81jb1n2bueb365f",865,"91.csv","","null","resources/maskTrios/BBA3.jpg","null","",NA,NA,NA,NA,""
"image-keyboard-response",398,376791,"0.0-4.128-2.128","81jb1n2bueb365f",865,"91.csv","","null","resources/images/fishbone.png","null","",NA,NA,NA,NA,""
"image-keyboard-response",399,377091,"0.0-4.129-0.129","81jb1n2bueb365f",865,"91.csv","","299","resources/trios/L1T2A3.jpg","38","restless",0.4,0.6,0.6,0.342067897924134,"true"
"image-keyboard-response",400,377494,"0.0-4.129-1.129","81jb1n2bueb365f",865,"91.csv","","null","resources/maskTrios/BT2B.jpg","null","",NA,NA,NA,NA,""
"image-keyboard-response",401,378695,"0.0-4.129-2.129","81jb1n2bueb365f",865,"91.csv","","null","resources/images/coin2.png","null","",NA,NA,NA,NA,""
"image-keyboard-response",402,379151,"0.0-4.130-0.130","81jb1n2bueb365f",865,"91.csv","","455.2000000178814","resources/trios/L1T2A3.jpg","38","restless",0.4,0.6,0.6,0.0777653648276446,"true"
"image-keyboard-response",403,379551,"0.0-4.130-1.130","81jb1n2bueb365f",865,"91.csv","","null","resources/maskTrios/BT2B.jpg","null","",NA,NA,NA,NA,""
"image-keyboard-response",404,380753,"0.0-4.130-2.130","81jb1n2bueb365f",865,"91.csv","","null","resources/images/coin2.png","null","",NA,NA,NA,NA,""
"image-keyboard-response",405,380969,"0.0-4.131-0.131","81jb1n2bueb365f",865,"91.csv","","215.40000000596046","resources/trios/L1T2A3.jpg","38","restless",0.4,0.6,0.6,0.605974389294773,"false"
"image-keyboard-response",406,381370,"0.0-4.131-1.131","81jb1n2bueb365f",865,"91.csv","","null","resources/maskTrios/BT2B.jpg","null","",NA,NA,NA,NA,""
"image-keyboard-response",407,382571,"0.0-4.131-2.131","81jb1n2bueb365f",865,"91.csv","","null","resources/images/fishbone.png","null","",NA,NA,NA,NA,""
"image-keyboard-response",408,382756,"0.0-4.132-0.132","81jb1n2bueb365f",865,"91.csv","","184.60000002384186","resources/trios/L1T2A3.jpg","39","restless",0.4,0.6,0.6,0.921336678284719,"false"
"image-keyboard-response",409,383158,"0.0-4.132-1.132","81jb1n2bueb365f",865,"91.csv","","null","resources/maskTrios/BBA3.jpg","null","",NA,NA,NA,NA,""
"image-keyboard-response",410,384360,"0.0-4.132-2.132","81jb1n2bueb365f",865,"91.csv","","null","resources/images/fishbone.png","null","",NA,NA,NA,NA,""
"image-keyboard-response",411,385799,"0.0-4.133-0.133","81jb1n2bueb365f",865,"91.csv","","1439.199999988079","resources/trios/L1T2A3.jpg","39","restless",0.4,0.6,0.5,0.944660834966499,"false"
"image-keyboard-response",412,386201,"0.0-4.133-1.133","81jb1n2bueb365f",865,"91.csv","","null","resources/maskTrios/BBA3.jpg","null","",NA,NA,NA,NA,""
"image-keyboard-response",413,387403,"0.0-4.133-2.133","81jb1n2bueb365f",865,"91.csv","","null","resources/images/fishbone.png","null","",NA,NA,NA,NA,""
"image-keyboard-response",414,387750,"0.0-4.134-0.134","81jb1n2bueb365f",865,"91.csv","","347","resources/trios/L1T2A3.jpg","38","restless",0.4,0.6,0.5,0.160809678460549,"true"
"image-keyboard-response",415,388151,"0.0-4.134-1.134","81jb1n2bueb365f",865,"91.csv","","null","resources/maskTrios/BT2B.jpg","null","",NA,NA,NA,NA,""
"image-keyboard-response",416,389353,"0.0-4.134-2.134","81jb1n2bueb365f",865,"91.csv","","null","resources/images/coin2.png","null","",NA,NA,NA,NA,""
"image-keyboard-response",417,389666,"0.0-4.135-0.135","81jb1n2bueb365f",865,"91.csv","","312.40000000596046","resources/trios/L1T2A3.jpg","38","restless",0.4,0.6,0.5,0.663267277482379,"false"
"image-keyboard-response",418,390068,"0.0-4.135-1.135","81jb1n2bueb365f",865,"91.csv","","null","resources/maskTrios/BT2B.jpg","null","",NA,NA,NA,NA,""
"image-keyboard-response",419,391272,"0.0-4.135-2.135","81jb1n2bueb365f",865,"91.csv","","null","resources/images/fishbone.png","null","",NA,NA,NA,NA,""
"image-keyboard-response",420,393391,"0.0-4.136-0.136","81jb1n2bueb365f",865,"91.csv","","2118.600000023842","resources/trios/L1T2A3.jpg","39","restless",0.4,0.6,0.5,0.128229984571935,"true"
"image-keyboard-response",421,393793,"0.0-4.136-1.136","81jb1n2bueb365f",865,"91.csv","","null","resources/maskTrios/BBA3.jpg","null","",NA,NA,NA,NA,""
"image-keyboard-response",422,394995,"0.0-4.136-2.136","81jb1n2bueb365f",865,"91.csv","","null","resources/images/coin2.png","null","",NA,NA,NA,NA,""
"image-keyboard-response",423,395686,"0.0-4.137-0.137","81jb1n2bueb365f",865,"91.csv","","690.8000000119209","resources/trios/L1T2A3.jpg","39","restless",0.4,0.6,0.5,0.955229815835454,"false"
"image-keyboard-response",424,396088,"0.0-4.137-1.137","81jb1n2bueb365f",865,"91.csv","","null","resources/maskTrios/BBA3.jpg","null","",NA,NA,NA,NA,""
"image-keyboard-response",425,397289,"0.0-4.137-2.137","81jb1n2bueb365f",865,"91.csv","","null","resources/images/fishbone.png","null","",NA,NA,NA,NA,""
"image-keyboard-response",426,397811,"0.0-4.138-0.138","81jb1n2bueb365f",865,"91.csv","","521.9000000059605","resources/trios/L1T2A3.jpg","39","restless",0.4,0.7,0.5,0.579615398538703,"false"
"image-keyboard-response",427,398212,"0.0-4.138-1.138","81jb1n2bueb365f",865,"91.csv","","null","resources/maskTrios/BBA3.jpg","null","",NA,NA,NA,NA,""
"image-keyboard-response",428,399413,"0.0-4.138-2.138","81jb1n2bueb365f",865,"91.csv","","null","resources/images/fishbone.png","null","",NA,NA,NA,NA,""
"image-keyboard-response",429,399721,"0.0-4.139-0.139","81jb1n2bueb365f",865,"91.csv","","307.90000000596046","resources/trios/L1T2A3.jpg","37","restless",0.4,0.7,0.5,0.0527019979056647,"true"
"image-keyboard-response",430,400123,"0.0-4.139-1.139","81jb1n2bueb365f",865,"91.csv","","null","resources/maskTrios/L1BB.jpg","null","",NA,NA,NA,NA,""
"image-keyboard-response",431,401324,"0.0-4.139-2.139","81jb1n2bueb365f",865,"91.csv","","null","resources/images/coin2.png","null","",NA,NA,NA,NA,""
"image-keyboard-response",432,401504,"0.0-4.140-0.140","81jb1n2bueb365f",865,"91.csv","","179","resources/trios/L1T2A3.jpg","37","restless",0.4,0.7,0.5,0.429214875803287,"false"
"image-keyboard-response",433,401905,"0.0-4.140-1.140","81jb1n2bueb365f",865,"91.csv","","null","resources/maskTrios/L1BB.jpg","null","",NA,NA,NA,NA,""
"image-keyboard-response",434,403106,"0.0-4.140-2.140","81jb1n2bueb365f",865,"91.csv","","null","resources/images/fishbone.png","null","",NA,NA,NA,NA,""
"image-keyboard-response",435,403474,"0.0-4.141-0.141","81jb1n2bueb365f",865,"91.csv","","368","resources/trios/L1T2A3.jpg","38","restless",0.4,0.7,0.5,0.155029544185814,"true"
"image-keyboard-response",436,403876,"0.0-4.141-1.141","81jb1n2bueb365f",865,"91.csv","","null","resources/maskTrios/BT2B.jpg","null","",NA,NA,NA,NA,""
"image-keyboard-response",437,405079,"0.0-4.141-2.141","81jb1n2bueb365f",865,"91.csv","","null","resources/images/coin2.png","null","",NA,NA,NA,NA,""
"image-keyboard-response",438,405417,"0.0-4.142-0.142","81jb1n2bueb365f",865,"91.csv","","337.2999999821186","resources/trios/L1T2A3.jpg","38","restless",0.4,0.7,0.5,0.777447193578362,"false"
"image-keyboard-response",439,405817,"0.0-4.142-1.142","81jb1n2bueb365f",865,"91.csv","","null","resources/maskTrios/BT2B.jpg","null","",NA,NA,NA,NA,""
"image-keyboard-response",440,407018,"0.0-4.142-2.142","81jb1n2bueb365f",865,"91.csv","","null","resources/images/fishbone.png","null","",NA,NA,NA,NA,""
"image-keyboard-response",441,407283,"0.0-4.143-0.143","81jb1n2bueb365f",865,"91.csv","","263","resources/trios/L1T2A3.jpg","39","restless",0.4,0.7,0.5,0.664557070054124,"false"
"image-keyboard-response",442,407685,"0.0-4.143-1.143","81jb1n2bueb365f",865,"91.csv","","null","resources/maskTrios/BBA3.jpg","null","",NA,NA,NA,NA,""
"image-keyboard-response",443,408887,"0.0-4.143-2.143","81jb1n2bueb365f",865,"91.csv","","null","resources/images/fishbone.png","null","",NA,NA,NA,NA,""
"image-keyboard-response",444,409280,"0.0-4.144-0.144","81jb1n2bueb365f",865,"91.csv","","392.2000000178814","resources/trios/L1T2A3.jpg","37","restless",0.4,0.7,0.5,0.184277714632006,"true"
"image-keyboard-response",445,409682,"0.0-4.144-1.144","81jb1n2bueb365f",865,"91.csv","","null","resources/maskTrios/L1BB.jpg","null","",NA,NA,NA,NA,""
"image-keyboard-response",446,410884,"0.0-4.144-2.144","81jb1n2bueb365f",865,"91.csv","","null","resources/images/coin2.png","null","",NA,NA,NA,NA,""
"image-keyboard-response",447,410974,"0.0-4.145-0.145","81jb1n2bueb365f",865,"91.csv","","88.80000001192093","resources/trios/L1T2A3.jpg","37","restless",0.4,0.7,0.5,0.669962531717455,"false"
"image-keyboard-response",448,411375,"0.0-4.145-1.145","81jb1n2bueb365f",865,"91.csv","","null","resources/maskTrios/L1BB.jpg","null","",NA,NA,NA,NA,""
"image-keyboard-response",449,412576,"0.0-4.145-2.145","81jb1n2bueb365f",865,"91.csv","","null","resources/images/fishbone.png","null","",NA,NA,NA,NA,""
"image-keyboard-response",450,415419,"0.0-4.146-0.146","81jb1n2bueb365f",865,"91.csv","","2841.800000011921","resources/trios/L1T2A3.jpg","37","restless",0.4,0.7,0.5,0.421534461630356,"false"
"image-keyboard-response",451,415821,"0.0-4.146-1.146","81jb1n2bueb365f",865,"91.csv","","null","resources/maskTrios/L1BB.jpg","null","",NA,NA,NA,NA,""
"image-keyboard-response",452,417023,"0.0-4.146-2.146","81jb1n2bueb365f",865,"91.csv","","null","resources/images/fishbone.png","null","",NA,NA,NA,NA,""
"image-keyboard-response",453,417463,"0.0-4.147-0.147","81jb1n2bueb365f",865,"91.csv","","440","resources/trios/L1T2A3.jpg","38","restless",0.4,0.7,0.5,0.14168220860808,"true"
"image-keyboard-response",454,417866,"0.0-4.147-1.147","81jb1n2bueb365f",865,"91.csv","","null","resources/maskTrios/BT2B.jpg","null","",NA,NA,NA,NA,""
"image-keyboard-response",455,419067,"0.0-4.147-2.147","81jb1n2bueb365f",865,"91.csv","","null","resources/images/coin2.png","null","",NA,NA,NA,NA,""
"image-keyboard-response",456,419406,"0.0-4.148-0.148","81jb1n2bueb365f",865,"91.csv","","338.90000000596046","resources/trios/L1T2A3.jpg","39","restless",0.4,0.7,0.6,0.441767400614099,"true"
"image-keyboard-response",457,419808,"0.0-4.148-1.148","81jb1n2bueb365f",865,"91.csv","","null","resources/maskTrios/BBA3.jpg","null","",NA,NA,NA,NA,""
"image-keyboard-response",458,421009,"0.0-4.148-2.148","81jb1n2bueb365f",865,"91.csv","","null","resources/images/coin2.png","null","",NA,NA,NA,NA,""
"image-keyboard-response",459,421350,"0.0-4.149-0.149","81jb1n2bueb365f",865,"91.csv","","339.80000001192093","resources/trios/L1T2A3.jpg","37","restless",0.4,0.7,0.6,0.703735593595419,"false"
"image-keyboard-response",460,421752,"0.0-4.149-1.149","81jb1n2bueb365f",865,"91.csv","","null","resources/maskTrios/L1BB.jpg","null","",NA,NA,NA,NA,""
"image-keyboard-response",461,422953,"0.0-4.149-2.149","81jb1n2bueb365f",865,"91.csv","","null","resources/images/fishbone.png","null","",NA,NA,NA,NA,""
"image-keyboard-response",462,423169,"0.0-4.150-0.150","81jb1n2bueb365f",865,"91.csv","","215.30000001192093","resources/trios/L1T2A3.jpg","38","restless",0.4,0.7,0.6,0.832200615753788,"false"
"image-keyboard-response",463,423570,"0.0-4.150-1.150","81jb1n2bueb365f",865,"91.csv","","null","resources/maskTrios/BT2B.jpg","null","",NA,NA,NA,NA,""
"image-keyboard-response",464,424772,"0.0-4.150-2.150","81jb1n2bueb365f",865,"91.csv","","null","resources/images/fishbone.png","null","",NA,NA,NA,NA,""
"image-keyboard-response",465,424927,"0.0-4.151-0.151","81jb1n2bueb365f",865,"91.csv","","153.90000000596046","resources/trios/L1T2A3.jpg","39","restless",0.4,0.6,0.6,0.00608930097184501,"true"
"image-keyboard-response",466,425329,"0.0-4.151-1.151","81jb1n2bueb365f",865,"91.csv","","null","resources/maskTrios/BBA3.jpg","null","",NA,NA,NA,NA,""
"image-keyboard-response",467,426529,"0.0-4.151-2.151","81jb1n2bueb365f",865,"91.csv","","null","resources/images/coin2.png","null","",NA,NA,NA,NA,""
"image-keyboard-response",468,426808,"0.0-4.152-0.152","81jb1n2bueb365f",865,"91.csv","","277.7999999821186","resources/trios/L1T2A3.jpg","37","restless",0.4,0.6,0.6,0.0826821556233421,"true"
"image-keyboard-response",469,427209,"0.0-4.152-1.152","81jb1n2bueb365f",865,"91.csv","","null","resources/maskTrios/L1BB.jpg","null","",NA,NA,NA,NA,""
"image-keyboard-response",470,428412,"0.0-4.152-2.152","81jb1n2bueb365f",865,"91.csv","","null","resources/images/coin2.png","null","",NA,NA,NA,NA,""
"image-keyboard-response",471,428627,"0.0-4.153-0.153","81jb1n2bueb365f",865,"91.csv","","215.09999999403954","resources/trios/L1T2A3.jpg","37","restless",0.4,0.7,0.6,0.427118460489769,"false"
"image-keyboard-response",472,429029,"0.0-4.153-1.153","81jb1n2bueb365f",865,"91.csv","","null","resources/maskTrios/L1BB.jpg","null","",NA,NA,NA,NA,""
"image-keyboard-response",473,430230,"0.0-4.153-2.153","81jb1n2bueb365f",865,"91.csv","","null","resources/images/fishbone.png","null","",NA,NA,NA,NA,""
"image-keyboard-response",474,430640,"0.0-4.154-0.154","81jb1n2bueb365f",865,"91.csv","","410.2000000178814","resources/trios/L1T2A3.jpg","39","restless",0.4,0.7,0.6,0.479212765331183,"true"
"image-keyboard-response",475,431042,"0.0-4.154-1.154","81jb1n2bueb365f",865,"91.csv","","null","resources/maskTrios/BBA3.jpg","null","",NA,NA,NA,NA,""
"image-keyboard-response",476,432244,"0.0-4.154-2.154","81jb1n2bueb365f",865,"91.csv","","null","resources/images/coin2.png","null","",NA,NA,NA,NA,""
"image-keyboard-response",477,432938,"0.0-4.155-0.155","81jb1n2bueb365f",865,"91.csv","","693.5999999940395","resources/trios/L1T2A3.jpg","39","restless",0.4,0.7,0.6,0.0391215805987193,"true"
"image-keyboard-response",478,433340,"0.0-4.155-1.155","81jb1n2bueb365f",865,"91.csv","","null","resources/maskTrios/BBA3.jpg","null","",NA,NA,NA,NA,""
"image-keyboard-response",479,434541,"0.0-4.155-2.155","81jb1n2bueb365f",865,"91.csv","","null","resources/images/coin2.png","null","",NA,NA,NA,NA,""
"image-keyboard-response",480,434893,"0.0-4.156-0.156","81jb1n2bueb365f",865,"91.csv","","352.2000000178814","resources/trios/L1T2A3.jpg","39","restless",0.4,0.6,0.6,0.877139728523185,"false"
"image-keyboard-response",481,435295,"0.0-4.156-1.156","81jb1n2bueb365f",865,"91.csv","","null","resources/maskTrios/BBA3.jpg","null","",NA,NA,NA,NA,""
"image-keyboard-response",482,436496,"0.0-4.156-2.156","81jb1n2bueb365f",865,"91.csv","","null","resources/images/fishbone.png","null","",NA,NA,NA,NA,""
"image-keyboard-response",483,436883,"0.0-4.157-0.157","81jb1n2bueb365f",865,"91.csv","","384.7999999821186","resources/trios/L1T2A3.jpg","38","restless",0.4,0.5,0.6,0.743268185582514,"false"
"image-keyboard-response",484,437283,"0.0-4.157-1.157","81jb1n2bueb365f",865,"91.csv","","null","resources/maskTrios/BT2B.jpg","null","",NA,NA,NA,NA,""
"image-keyboard-response",485,438485,"0.0-4.157-2.157","81jb1n2bueb365f",865,"91.csv","","null","resources/images/fishbone.png","null","",NA,NA,NA,NA,""
"image-keyboard-response",486,438518,"0.0-4.158-0.158","81jb1n2bueb365f",865,"91.csv","","31.599999994039536","resources/trios/L1T2A3.jpg","39","restless",0.4,0.5,0.6,0.0782884174307032,"true"
"image-keyboard-response",487,438920,"0.0-4.158-1.158","81jb1n2bueb365f",865,"91.csv","","null","resources/maskTrios/BBA3.jpg","null","",NA,NA,NA,NA,""
"image-keyboard-response",488,440121,"0.0-4.158-2.158","81jb1n2bueb365f",865,"91.csv","","null","resources/images/coin2.png","null","",NA,NA,NA,NA,""
"image-keyboard-response",489,440309,"0.0-4.159-0.159","81jb1n2bueb365f",865,"91.csv","","187.69999998807907","resources/trios/L1T2A3.jpg","39","restless",0.5,0.5,0.7,0.271913293787186,"true"
"image-keyboard-response",490,440712,"0.0-4.159-1.159","81jb1n2bueb365f",865,"91.csv","","null","resources/maskTrios/BBA3.jpg","null","",NA,NA,NA,NA,""
"image-keyboard-response",491,441913,"0.0-4.159-2.159","81jb1n2bueb365f",865,"91.csv","","null","resources/images/coin2.png","null","",NA,NA,NA,NA,""
"image-keyboard-response",492,442205,"0.0-4.160-0.160","81jb1n2bueb365f",865,"91.csv","","290.89999997615814","resources/trios/L1T2A3.jpg","39","restless",0.5,0.5,0.8,0.650768657520031,"true"
"image-keyboard-response",493,442606,"0.0-4.160-1.160","81jb1n2bueb365f",865,"91.csv","","null","resources/maskTrios/BBA3.jpg","null","",NA,NA,NA,NA,""
"image-keyboard-response",494,443809,"0.0-4.160-2.160","81jb1n2bueb365f",865,"91.csv","","null","resources/images/coin2.png","null","",NA,NA,NA,NA,""
"image-keyboard-response",495,444734,"0.0-4.161-0.161","81jb1n2bueb365f",865,"91.csv","","923.8000000119209","resources/trios/L1T2A3.jpg","39","restless",0.5,0.5,0.8,0.1096865935313,"true"
"image-keyboard-response",496,445135,"0.0-4.161-1.161","81jb1n2bueb365f",865,"91.csv","","null","resources/maskTrios/BBA3.jpg","null","",NA,NA,NA,NA,""
"image-keyboard-response",497,446337,"0.0-4.161-2.161","81jb1n2bueb365f",865,"91.csv","","null","resources/images/coin2.png","null","",NA,NA,NA,NA,""
"image-keyboard-response",498,446606,"0.0-4.162-0.162","81jb1n2bueb365f",865,"91.csv","","268.90000000596046","resources/trios/L1T2A3.jpg","39","restless",0.5,0.5,0.8,0.419985077551198,"true"
"image-keyboard-response",499,447008,"0.0-4.162-1.162","81jb1n2bueb365f",865,"91.csv","","null","resources/maskTrios/BBA3.jpg","null","",NA,NA,NA,NA,""
"image-keyboard-response",500,448211,"0.0-4.162-2.162","81jb1n2bueb365f",865,"91.csv","","null","resources/images/coin2.png","null","",NA,NA,NA,NA,""
"image-keyboard-response",501,448458,"0.0-4.163-0.163","81jb1n2bueb365f",865,"91.csv","","247","resources/trios/L1T2A3.jpg","39","restless",0.5,0.5,0.8,0.834944710201665,"false"
"image-keyboard-response",502,448860,"0.0-4.163-1.163","81jb1n2bueb365f",865,"91.csv","","null","resources/maskTrios/BBA3.jpg","null","",NA,NA,NA,NA,""
"image-keyboard-response",503,450062,"0.0-4.163-2.163","81jb1n2bueb365f",865,"91.csv","","null","resources/images/fishbone.png","null","",NA,NA,NA,NA,""
"image-keyboard-response",504,450478,"0.0-4.164-0.164","81jb1n2bueb365f",865,"91.csv","","415.2999999821186","resources/trios/L1T2A3.jpg","37","restless",0.5,0.5,0.8,0.656413197104381,"false"
"image-keyboard-response",505,450879,"0.0-4.164-1.164","81jb1n2bueb365f",865,"91.csv","","null","resources/maskTrios/L1BB.jpg","null","",NA,NA,NA,NA,""
"image-keyboard-response",506,452081,"0.0-4.164-2.164","81jb1n2bueb365f",865,"91.csv","","null","resources/images/fishbone.png","null","",NA,NA,NA,NA,""
"image-keyboard-response",507,452396,"0.0-4.165-0.165","81jb1n2bueb365f",865,"91.csv","","313.60000002384186","resources/trios/L1T2A3.jpg","38","restless",0.5,0.5,0.8,0.352915510466804,"true"
"image-keyboard-response",508,452797,"0.0-4.165-1.165","81jb1n2bueb365f",865,"91.csv","","null","resources/maskTrios/BT2B.jpg","null","",NA,NA,NA,NA,""
"image-keyboard-response",509,453999,"0.0-4.165-2.165","81jb1n2bueb365f",865,"91.csv","","null","resources/images/coin2.png","null","",NA,NA,NA,NA,""
"image-keyboard-response",510,454244,"0.0-4.166-0.166","81jb1n2bueb365f",865,"91.csv","","244.40000000596046","resources/trios/L1T2A3.jpg","38","restless",0.5,0.5,0.8,0.296028859995861,"true"
"image-keyboard-response",511,454645,"0.0-4.166-1.166","81jb1n2bueb365f",865,"91.csv","","null","resources/maskTrios/BT2B.jpg","null","",NA,NA,NA,NA,""
"image-keyboard-response",512,455846,"0.0-4.166-2.166","81jb1n2bueb365f",865,"91.csv","","null","resources/images/coin2.png","null","",NA,NA,NA,NA,""
"image-keyboard-response",513,456080,"0.0-4.167-0.167","81jb1n2bueb365f",865,"91.csv","","232.90000000596046","resources/trios/L1T2A3.jpg","38","restless",0.5,0.5,0.8,0.440409631452087,"true"
"image-keyboard-response",514,456482,"0.0-4.167-1.167","81jb1n2bueb365f",865,"91.csv","","null","resources/maskTrios/BT2B.jpg","null","",NA,NA,NA,NA,""
"image-keyboard-response",515,457683,"0.0-4.167-2.167","81jb1n2bueb365f",865,"91.csv","","null","resources/images/coin2.png","null","",NA,NA,NA,NA,""
"image-keyboard-response",516,457793,"0.0-4.168-0.168","81jb1n2bueb365f",865,"91.csv","","108.69999998807907","resources/trios/L1T2A3.jpg","38","restless",0.5,0.5,0.8,0.705992708320943,"false"
"image-keyboard-response",517,458194,"0.0-4.168-1.168","81jb1n2bueb365f",865,"91.csv","","null","resources/maskTrios/BT2B.jpg","null","",NA,NA,NA,NA,""
"image-keyboard-response",518,459396,"0.0-4.168-2.168","81jb1n2bueb365f",865,"91.csv","","null","resources/images/fishbone.png","null","",NA,NA,NA,NA,""
"image-keyboard-response",519,460438,"0.0-4.169-0.169","81jb1n2bueb365f",865,"91.csv","","1041.6000000238419","resources/trios/L1T2A3.jpg","39","restless",0.5,0.5,0.9,0.661152752615172,"true"
"image-keyboard-response",520,460840,"0.0-4.169-1.169","81jb1n2bueb365f",865,"91.csv","","null","resources/maskTrios/BBA3.jpg","null","",NA,NA,NA,NA,""
"image-keyboard-response",521,462041,"0.0-4.169-2.169","81jb1n2bueb365f",865,"91.csv","","null","resources/images/coin2.png","null","",NA,NA,NA,NA,""
"image-keyboard-response",522,462290,"0.0-4.170-0.170","81jb1n2bueb365f",865,"91.csv","","247.19999998807907","resources/trios/L1T2A3.jpg","39","restless",0.5,0.5,0.9,0.243901993556848,"true"
"image-keyboard-response",523,462692,"0.0-4.170-1.170","81jb1n2bueb365f",865,"91.csv","","null","resources/maskTrios/BBA3.jpg","null","",NA,NA,NA,NA,""
"image-keyboard-response",524,463894,"0.0-4.170-2.170","81jb1n2bueb365f",865,"91.csv","","null","resources/images/coin2.png","null","",NA,NA,NA,NA,""
"image-keyboard-response",525,463958,"0.0-4.171-0.171","81jb1n2bueb365f",865,"91.csv","","63.599999994039536","resources/trios/L1T2A3.jpg","39","restless",0.5,0.5,0.9,0.8349845666812,"true"
"image-keyboard-response",526,464359,"0.0-4.171-1.171","81jb1n2bueb365f",865,"91.csv","","null","resources/maskTrios/BBA3.jpg","null","",NA,NA,NA,NA,""
"image-keyboard-response",527,465560,"0.0-4.171-2.171","81jb1n2bueb365f",865,"91.csv","","null","resources/images/coin2.png","null","",NA,NA,NA,NA,""
"image-keyboard-response",528,465786,"0.0-4.172-0.172","81jb1n2bueb365f",865,"91.csv","","225.60000002384186","resources/trios/L1T2A3.jpg","39","restless",0.5,0.4,0.9,0.72126249978482,"true"
"image-keyboard-response",529,466199,"0.0-4.172-1.172","81jb1n2bueb365f",865,"91.csv","","null","resources/maskTrios/BBA3.jpg","null","",NA,NA,NA,NA,""
"image-keyboard-response",530,467400,"0.0-4.172-2.172","81jb1n2bueb365f",865,"91.csv","","null","resources/images/coin2.png","null","",NA,NA,NA,NA,""
"image-keyboard-response",531,467543,"0.0-4.173-0.173","81jb1n2bueb365f",865,"91.csv","","143","resources/trios/L1T2A3.jpg","39","restless",0.5,0.4,0.9,0.555928332330035,"true"
"image-keyboard-response",532,467944,"0.0-4.173-1.173","81jb1n2bueb365f",865,"91.csv","","null","resources/maskTrios/BBA3.jpg","null","",NA,NA,NA,NA,""
"image-keyboard-response",533,469145,"0.0-4.173-2.173","81jb1n2bueb365f",865,"91.csv","","null","resources/images/coin2.png","null","",NA,NA,NA,NA,""
"image-keyboard-response",534,469405,"0.0-4.174-0.174","81jb1n2bueb365f",865,"91.csv","","259.40000000596046","resources/trios/L1T2A3.jpg","39","restless",0.5,0.4,0.9,0.822285941501748,"true"
"image-keyboard-response",535,469808,"0.0-4.174-1.174","81jb1n2bueb365f",865,"91.csv","","null","resources/maskTrios/BBA3.jpg","null","",NA,NA,NA,NA,""
"image-keyboard-response",536,471009,"0.0-4.174-2.174","81jb1n2bueb365f",865,"91.csv","","null","resources/images/coin2.png","null","",NA,NA,NA,NA,""
"image-keyboard-response",537,471208,"0.0-4.175-0.175","81jb1n2bueb365f",865,"91.csv","","198.60000002384186","resources/trios/L1T2A3.jpg","39","restless",0.5,0.4,0.9,0.401257776521446,"true"
"image-keyboard-response",538,471610,"0.0-4.175-1.175","81jb1n2bueb365f",865,"91.csv","","null","resources/maskTrios/BBA3.jpg","null","",NA,NA,NA,NA,""
"image-keyboard-response",539,472810,"0.0-4.175-2.175","81jb1n2bueb365f",865,"91.csv","","null","resources/images/coin2.png","null","",NA,NA,NA,NA,""
"image-keyboard-response",540,473020,"0.0-4.176-0.176","81jb1n2bueb365f",865,"91.csv","","208.89999997615814","resources/trios/L1T2A3.jpg","39","restless",0.5,0.4,0.9,0.626272090997215,"true"
"image-keyboard-response",541,473421,"0.0-4.176-1.176","81jb1n2bueb365f",865,"91.csv","","null","resources/maskTrios/BBA3.jpg","null","",NA,NA,NA,NA,""
"image-keyboard-response",542,474624,"0.0-4.176-2.176","81jb1n2bueb365f",865,"91.csv","","null","resources/images/coin2.png","null","",NA,NA,NA,NA,""
"image-keyboard-response",543,474832,"0.0-4.177-0.177","81jb1n2bueb365f",865,"91.csv","","207.69999998807907","resources/trios/L1T2A3.jpg","39","restless",0.5,0.4,0.9,0.693537297621994,"true"
"image-keyboard-response",544,475234,"0.0-4.177-1.177","81jb1n2bueb365f",865,"91.csv","","null","resources/maskTrios/BBA3.jpg","null","",NA,NA,NA,NA,""
"image-keyboard-response",545,476435,"0.0-4.177-2.177","81jb1n2bueb365f",865,"91.csv","","null","resources/images/coin2.png","null","",NA,NA,NA,NA,""
"image-keyboard-response",546,476584,"0.0-4.178-0.178","81jb1n2bueb365f",865,"91.csv","","148.2000000178814","resources/trios/L1T2A3.jpg","39","restless",0.5,0.4,0.9,0.509647282724678,"true"
"image-keyboard-response",547,476986,"0.0-4.178-1.178","81jb1n2bueb365f",865,"91.csv","","null","resources/maskTrios/BBA3.jpg","null","",NA,NA,NA,NA,""
"image-keyboard-response",548,478187,"0.0-4.178-2.178","81jb1n2bueb365f",865,"91.csv","","null","resources/images/coin2.png","null","",NA,NA,NA,NA,""
"image-keyboard-response",549,478253,"0.0-4.179-0.179","81jb1n2bueb365f",865,"91.csv","","65.5","resources/trios/L1T2A3.jpg","39","restless",0.5,0.4,0.9,0.874222064156751,"true"
"image-keyboard-response",550,478654,"0.0-4.179-1.179","81jb1n2bueb365f",865,"91.csv","","null","resources/maskTrios/BBA3.jpg","null","",NA,NA,NA,NA,""
"image-keyboard-response",551,479855,"0.0-4.179-2.179","81jb1n2bueb365f",865,"91.csv","","null","resources/images/coin2.png","null","",NA,NA,NA,NA,""
"image-keyboard-response",552,480120,"0.0-4.180-0.180","81jb1n2bueb365f",865,"91.csv","","264","resources/trios/L1T2A3.jpg","39","restless",0.5,0.4,0.9,0.783427579466035,"true"
"image-keyboard-response",553,480521,"0.0-4.180-1.180","81jb1n2bueb365f",865,"91.csv","","null","resources/maskTrios/BBA3.jpg","null","",NA,NA,NA,NA,""
"image-keyboard-response",554,481723,"0.0-4.180-2.180","81jb1n2bueb365f",865,"91.csv","","null","resources/images/coin2.png","null","",NA,NA,NA,NA,""
"image-keyboard-response",555,481968,"0.0-4.181-0.181","81jb1n2bueb365f",865,"91.csv","","243.7999999821186","resources/trios/L1T2A3.jpg","39","restless",0.5,0.4,0.9,0.470290736738332,"true"
"image-keyboard-response",556,482373,"0.0-4.181-1.181","81jb1n2bueb365f",865,"91.csv","","null","resources/maskTrios/BBA3.jpg","null","",NA,NA,NA,NA,""
"image-keyboard-response",557,483575,"0.0-4.181-2.181","81jb1n2bueb365f",865,"91.csv","","null","resources/images/coin2.png","null","",NA,NA,NA,NA,""
"image-keyboard-response",558,483723,"0.0-4.182-0.182","81jb1n2bueb365f",865,"91.csv","","147.2000000178814","resources/trios/L1T2A3.jpg","39","restless",0.5,0.4,0.8,0.370806496601295,"true"
"image-keyboard-response",559,484124,"0.0-4.182-1.182","81jb1n2bueb365f",865,"91.csv","","null","resources/maskTrios/BBA3.jpg","null","",NA,NA,NA,NA,""
"image-keyboard-response",560,485326,"0.0-4.182-2.182","81jb1n2bueb365f",865,"91.csv","","null","resources/images/coin2.png","null","",NA,NA,NA,NA,""
"image-keyboard-response",561,485387,"0.0-4.183-0.183","81jb1n2bueb365f",865,"91.csv","","60.900000005960464","resources/trios/L1T2A3.jpg","39","restless",0.5,0.4,0.8,0.807737916588787,"false"
"image-keyboard-response",562,485790,"0.0-4.183-1.183","81jb1n2bueb365f",865,"91.csv","","null","resources/maskTrios/BBA3.jpg","null","",NA,NA,NA,NA,""
"image-keyboard-response",563,486992,"0.0-4.183-2.183","81jb1n2bueb365f",865,"91.csv","","null","resources/images/fishbone.png","null","",NA,NA,NA,NA,""
"image-keyboard-response",564,487404,"0.0-4.184-0.184","81jb1n2bueb365f",865,"91.csv","","410.7999999821186","resources/trios/L1T2A3.jpg","38","restless",0.5,0.4,0.7,0.339879470205689,"true"
"image-keyboard-response",565,487805,"0.0-4.184-1.184","81jb1n2bueb365f",865,"91.csv","","null","resources/maskTrios/BT2B.jpg","null","",NA,NA,NA,NA,""
"image-keyboard-response",566,489007,"0.0-4.184-2.184","81jb1n2bueb365f",865,"91.csv","","null","resources/images/coin2.png","null","",NA,NA,NA,NA,""
"image-keyboard-response",567,489232,"0.0-4.185-0.185","81jb1n2bueb365f",865,"91.csv","","222.89999997615814","resources/trios/L1T2A3.jpg","38","restless",0.6,0.4,0.7,0.781859685087006,"false"
"image-keyboard-response",568,489633,"0.0-4.185-1.185","81jb1n2bueb365f",865,"91.csv","","null","resources/maskTrios/BT2B.jpg","null","",NA,NA,NA,NA,""
"image-keyboard-response",569,490846,"0.0-4.185-2.185","81jb1n2bueb365f",865,"91.csv","","null","resources/images/fishbone.png","null","",NA,NA,NA,NA,""
"image-keyboard-response",570,490968,"0.0-4.186-0.186","81jb1n2bueb365f",865,"91.csv","","121.2999999821186","resources/trios/L1T2A3.jpg","39","restless",0.6,0.4,0.7,0.923196960815988,"false"
"image-keyboard-response",571,491373,"0.0-4.186-1.186","81jb1n2bueb365f",865,"91.csv","","null","resources/maskTrios/BBA3.jpg","null","",NA,NA,NA,NA,""
"image-keyboard-response",572,492575,"0.0-4.186-2.186","81jb1n2bueb365f",865,"91.csv","","null","resources/images/fishbone.png","null","",NA,NA,NA,NA,""
"image-keyboard-response",573,494084,"0.0-4.187-0.187","81jb1n2bueb365f",865,"91.csv","","1508.7999999821186","resources/trios/L1T2A3.jpg","38","restless",0.6,0.4,0.7,0.856617153063269,"false"
"image-keyboard-response",574,494485,"0.0-4.187-1.187","81jb1n2bueb365f",865,"91.csv","","null","resources/maskTrios/BT2B.jpg","null","",NA,NA,NA,NA,""
"image-keyboard-response",575,495686,"0.0-4.187-2.187","81jb1n2bueb365f",865,"91.csv","","null","resources/images/fishbone.png","null","",NA,NA,NA,NA,""
"image-keyboard-response",576,495997,"0.0-4.188-0.188","81jb1n2bueb365f",865,"91.csv","","309.59999999403954","resources/trios/L1T2A3.jpg","37","restless",0.6,0.4,0.6,0.753610049017575,"false"
"image-keyboard-response",577,496398,"0.0-4.188-1.188","81jb1n2bueb365f",865,"91.csv","","null","resources/maskTrios/L1BB.jpg","null","",NA,NA,NA,NA,""
"image-keyboard-response",578,497600,"0.0-4.188-2.188","81jb1n2bueb365f",865,"91.csv","","null","resources/images/fishbone.png","null","",NA,NA,NA,NA,""
"image-keyboard-response",579,497979,"0.0-4.189-0.189","81jb1n2bueb365f",865,"91.csv","","377.09999999403954","resources/trios/L1T2A3.jpg","39","restless",0.6,0.4,0.6,0.988504399353841,"false"
"image-keyboard-response",580,498381,"0.0-4.189-1.189","81jb1n2bueb365f",865,"91.csv","","null","resources/maskTrios/BBA3.jpg","null","",NA,NA,NA,NA,""
"image-keyboard-response",581,499581,"0.0-4.189-2.189","81jb1n2bueb365f",865,"91.csv","","null","resources/images/fishbone.png","null","",NA,NA,NA,NA,""
"image-keyboard-response",582,499963,"0.0-4.190-0.190","81jb1n2bueb365f",865,"91.csv","","381.10000002384186","resources/trios/L1T2A3.jpg","38","restless",0.6,0.4,0.6,0.714914047039773,"false"
"image-keyboard-response",583,500365,"0.0-4.190-1.190","81jb1n2bueb365f",865,"91.csv","","null","resources/maskTrios/BT2B.jpg","null","",NA,NA,NA,NA,""
"image-keyboard-response",584,501566,"0.0-4.190-2.190","81jb1n2bueb365f",865,"91.csv","","null","resources/images/fishbone.png","null","",NA,NA,NA,NA,""
"image-keyboard-response",585,501965,"0.0-4.191-0.191","81jb1n2bueb365f",865,"91.csv","","398.69999998807907","resources/trios/L1T2A3.jpg","39","restless",0.6,0.4,0.6,0.327436943616185,"true"
"image-keyboard-response",586,502368,"0.0-4.191-1.191","81jb1n2bueb365f",865,"91.csv","","null","resources/maskTrios/BBA3.jpg","null","",NA,NA,NA,NA,""
"image-keyboard-response",587,503570,"0.0-4.191-2.191","81jb1n2bueb365f",865,"91.csv","","null","resources/images/coin2.png","null","",NA,NA,NA,NA,""
"image-keyboard-response",588,503928,"0.0-4.192-0.192","81jb1n2bueb365f",865,"91.csv","","358.19999998807907","resources/trios/L1T2A3.jpg","39","restless",0.7,0.4,0.5,0.0963312972710599,"true"
"image-keyboard-response",589,504330,"0.0-4.192-1.192","81jb1n2bueb365f",865,"91.csv","","null","resources/maskTrios/BBA3.jpg","null","",NA,NA,NA,NA,""
"image-keyboard-response",590,505533,"0.0-4.192-2.192","81jb1n2bueb365f",865,"91.csv","","null","resources/images/coin2.png","null","",NA,NA,NA,NA,""
"image-keyboard-response",591,505803,"0.0-4.193-0.193","81jb1n2bueb365f",865,"91.csv","","269.30000001192093","resources/trios/L1T2A3.jpg","39","restless",0.8,0.4,0.5,0.996986424545761,"false"
"image-keyboard-response",592,506205,"0.0-4.193-1.193","81jb1n2bueb365f",865,"91.csv","","null","resources/maskTrios/BBA3.jpg","null","",NA,NA,NA,NA,""
"image-keyboard-response",593,507406,"0.0-4.193-2.193","81jb1n2bueb365f",865,"91.csv","","null","resources/images/fishbone.png","null","",NA,NA,NA,NA,""
"image-keyboard-response",594,507681,"0.0-4.194-0.194","81jb1n2bueb365f",865,"91.csv","","274.40000000596046","resources/trios/L1T2A3.jpg","38","restless",0.9,0.4,0.5,0.937927342379179,"false"
"image-keyboard-response",595,508083,"0.0-4.194-1.194","81jb1n2bueb365f",865,"91.csv","","null","resources/maskTrios/BT2B.jpg","null","",NA,NA,NA,NA,""
"image-keyboard-response",596,509284,"0.0-4.194-2.194","81jb1n2bueb365f",865,"91.csv","","null","resources/images/fishbone.png","null","",NA,NA,NA,NA,""
"image-keyboard-response",597,509587,"0.0-4.195-0.195","81jb1n2bueb365f",865,"91.csv","","302.5","resources/trios/L1T2A3.jpg","37","restless",0.9,0.4,0.4,0.756648473420161,"true"
"image-keyboard-response",598,509988,"0.0-4.195-1.195","81jb1n2bueb365f",865,"91.csv","","null","resources/maskTrios/L1BB.jpg","null","",NA,NA,NA,NA,""
"image-keyboard-response",599,511189,"0.0-4.195-2.195","81jb1n2bueb365f",865,"91.csv","","null","resources/images/coin2.png","null","",NA,NA,NA,NA,""
"image-keyboard-response",600,511683,"0.0-4.196-0.196","81jb1n2bueb365f",865,"91.csv","","493.69999998807907","resources/trios/L1T2A3.jpg","37","restless",0.9,0.3,0.4,0.277851467535817,"true"
"image-keyboard-response",601,512085,"0.0-4.196-1.196","81jb1n2bueb365f",865,"91.csv","","null","resources/maskTrios/L1BB.jpg","null","",NA,NA,NA,NA,""
"image-keyboard-response",602,513286,"0.0-4.196-2.196","81jb1n2bueb365f",865,"91.csv","","null","resources/images/coin2.png","null","",NA,NA,NA,NA,""
"image-keyboard-response",603,513849,"0.0-4.197-0.197","81jb1n2bueb365f",865,"91.csv","","560.5","resources/trios/L1T2A3.jpg","37","restless",0.9,0.3,0.4,0.365212735470505,"true"
"image-keyboard-response",604,514250,"0.0-4.197-1.197","81jb1n2bueb365f",865,"91.csv","","null","resources/maskTrios/L1BB.jpg","null","",NA,NA,NA,NA,""
"image-keyboard-response",605,515452,"0.0-4.197-2.197","81jb1n2bueb365f",865,"91.csv","","null","resources/images/coin2.png","null","",NA,NA,NA,NA,""
"image-keyboard-response",606,515746,"0.0-4.198-0.198","81jb1n2bueb365f",865,"91.csv","","293.5","resources/trios/L1T2A3.jpg","37","restless",0.9,0.3,0.4,0.848227718479056,"true"
"image-keyboard-response",607,516158,"0.0-4.198-1.198","81jb1n2bueb365f",865,"91.csv","","null","resources/maskTrios/L1BB.jpg","null","",NA,NA,NA,NA,""
"image-keyboard-response",608,517360,"0.0-4.198-2.198","81jb1n2bueb365f",865,"91.csv","","null","resources/images/coin2.png","null","",NA,NA,NA,NA,""
"image-keyboard-response",609,517644,"0.0-4.199-0.199","81jb1n2bueb365f",865,"91.csv","","283.2999999821186","resources/trios/L1T2A3.jpg","37","restless",0.9,0.3,0.4,0.802552962672634,"true"
"image-keyboard-response",610,518046,"0.0-4.199-1.199","81jb1n2bueb365f",865,"91.csv","","null","resources/maskTrios/L1BB.jpg","null","",NA,NA,NA,NA,""
"image-keyboard-response",611,519247,"0.0-4.199-2.199","81jb1n2bueb365f",865,"91.csv","","null","resources/images/coin2.png","null","",NA,NA,NA,NA,""
"survey-text",612,668217,"0.0-5.0","81jb1n2bueb365f",865,"91.csv","","148968.5","","","",NA,NA,NA,NA,""
