"trial_type","trial_index","time_elapsed","internal_node_id","subject","participantCode","walkNumber","success","rt","stimulus","key_press","test_part","leftProb","midProb","rightProb","generatedNum","correct"
"pavlovia",0,1131,"0.0-0.0","1d1pe5uwhmxgssn",626,"47.csv","","","","","",NA,NA,NA,NA,""
"fullscreen",1,20120,"0.0-1.0","1d1pe5uwhmxgssn",626,"47.csv","true","","","","",NA,NA,NA,NA,""
"survey-html-form",2,35579,"0.0-2.0","1d1pe5uwhmxgssn",626,"47.csv","","15457.800000011921","","","",NA,NA,NA,NA,""
"image-keyboard-response",3,52303,"0.0-3.0-0.0","1d1pe5uwhmxgssn",626,"47.csv","","16723","resources/images/parrot_nobg.png","13","",NA,NA,NA,NA,""
"image-keyboard-response",4,55307,"0.0-3.0-1.0","1d1pe5uwhmxgssn",626,"47.csv","","null","resources/image_sets/111.png","null","",NA,NA,NA,NA,""
"image-keyboard-response",5,69396,"0.0-3.0-2.0","1d1pe5uwhmxgssn",626,"47.csv","","14087.799999982119","resources/image_sets/left_highlight.png","37","",NA,NA,NA,NA,""
"image-keyboard-response",6,71385,"0.0-3.0-3.0","1d1pe5uwhmxgssn",626,"47.csv","","1988.5","resources/image_sets/mid_highlight.png","38","",NA,NA,NA,NA,""
"image-keyboard-response",7,72101,"0.0-3.0-4.0","1d1pe5uwhmxgssn",626,"47.csv","","715.7000000178814","resources/image_sets/right_highlight.png","39","",NA,NA,NA,NA,""
"image-keyboard-response",8,75709,"0.0-3.0-5.0","1d1pe5uwhmxgssn",626,"47.csv","","3607.5","resources/image_sets/111.png","13","",NA,NA,NA,NA,""
"image-keyboard-response",9,77679,"0.0-3.0-6.0","1d1pe5uwhmxgssn",626,"47.csv","","1969.5","resources/images/coin2.png","13","",NA,NA,NA,NA,""
"image-keyboard-response",10,80365,"0.0-3.0-7.0","1d1pe5uwhmxgssn",626,"47.csv","","2685.5999999940395","resources/images/fishbone.png","13","",NA,NA,NA,NA,""
"html-keyboard-response",11,84099,"0.0-3.0-8.0","1d1pe5uwhmxgssn",626,"47.csv","","3733.7000000178814","<p>You can track your coin total on the top right of your screen. </p><p>At the end of your journey you will be directed to a survey, so please click on the link before exiting the task</p><p>Press Enter to begin</p>","13","",NA,NA,NA,NA,""
"image-keyboard-response",12,87219,"0.0-4.0-0.0","1d1pe5uwhmxgssn",626,"47.csv","","3119","resources/trios/L1T4A3.jpg","39","restless",0.7,0.3,0.9,0.868182166733383,"true"
"image-keyboard-response",13,87621,"0.0-4.0-1.0","1d1pe5uwhmxgssn",626,"47.csv","","null","resources/maskTrios/BBA3.jpg","null","",NA,NA,NA,NA,""
"image-keyboard-response",14,88838,"0.0-4.0-2.0","1d1pe5uwhmxgssn",626,"47.csv","","null","resources/images/coin2.png","null","",NA,NA,NA,NA,""
"image-keyboard-response",15,90790,"0.0-4.1-0.1","1d1pe5uwhmxgssn",626,"47.csv","","1950.5","resources/trios/L1T4A3.jpg","39","restless",0.6,0.3,0.9,0.708599237334295,"true"
"image-keyboard-response",16,91203,"0.0-4.1-1.1","1d1pe5uwhmxgssn",626,"47.csv","","null","resources/maskTrios/BBA3.jpg","null","",NA,NA,NA,NA,""
"image-keyboard-response",17,92420,"0.0-4.1-2.1","1d1pe5uwhmxgssn",626,"47.csv","","null","resources/images/coin2.png","null","",NA,NA,NA,NA,""
"image-keyboard-response",18,93297,"0.0-4.2-0.2","1d1pe5uwhmxgssn",626,"47.csv","","876.5","resources/trios/L1T4A3.jpg","39","restless",0.6,0.3,0.9,0.844848581959895,"true"
"image-keyboard-response",19,93700,"0.0-4.2-1.2","1d1pe5uwhmxgssn",626,"47.csv","","null","resources/maskTrios/BBA3.jpg","null","",NA,NA,NA,NA,""
"image-keyboard-response",20,94914,"0.0-4.2-2.2","1d1pe5uwhmxgssn",626,"47.csv","","null","resources/images/coin2.png","null","",NA,NA,NA,NA,""
"image-keyboard-response",21,95393,"0.0-4.3-0.3","1d1pe5uwhmxgssn",626,"47.csv","","478.30000001192093","resources/trios/L1T4A3.jpg","39","restless",0.6,0.3,0.9,0.751731684983937,"true"
"image-keyboard-response",22,95794,"0.0-4.3-1.3","1d1pe5uwhmxgssn",626,"47.csv","","null","resources/maskTrios/BBA3.jpg","null","",NA,NA,NA,NA,""
"image-keyboard-response",23,97010,"0.0-4.3-2.3","1d1pe5uwhmxgssn",626,"47.csv","","null","resources/images/coin2.png","null","",NA,NA,NA,NA,""
"image-keyboard-response",24,97378,"0.0-4.4-0.4","1d1pe5uwhmxgssn",626,"47.csv","","368.19999998807907","resources/trios/L1T4A3.jpg","39","restless",0.6,0.3,0.9,0.628578407092849,"true"
"image-keyboard-response",25,97794,"0.0-4.4-1.4","1d1pe5uwhmxgssn",626,"47.csv","","null","resources/maskTrios/BBA3.jpg","null","",NA,NA,NA,NA,""
"image-keyboard-response",26,99010,"0.0-4.4-2.4","1d1pe5uwhmxgssn",626,"47.csv","","null","resources/images/coin2.png","null","",NA,NA,NA,NA,""
"image-keyboard-response",27,99279,"0.0-4.5-0.5","1d1pe5uwhmxgssn",626,"47.csv","","269.39999997615814","resources/trios/L1T4A3.jpg","39","restless",0.7,0.3,0.9,0.505014081043824,"true"
"image-keyboard-response",28,99694,"0.0-4.5-1.5","1d1pe5uwhmxgssn",626,"47.csv","","null","resources/maskTrios/BBA3.jpg","null","",NA,NA,NA,NA,""
"image-keyboard-response",29,100908,"0.0-4.5-2.5","1d1pe5uwhmxgssn",626,"47.csv","","null","resources/images/coin2.png","null","",NA,NA,NA,NA,""
"image-keyboard-response",30,101305,"0.0-4.6-0.6","1d1pe5uwhmxgssn",626,"47.csv","","396.59999999403954","resources/trios/L1T4A3.jpg","39","restless",0.7,0.3,0.9,0.0621831171853136,"true"
"image-keyboard-response",31,101707,"0.0-4.6-1.6","1d1pe5uwhmxgssn",626,"47.csv","","null","resources/maskTrios/BBA3.jpg","null","",NA,NA,NA,NA,""
"image-keyboard-response",32,102922,"0.0-4.6-2.6","1d1pe5uwhmxgssn",626,"47.csv","","null","resources/images/coin2.png","null","",NA,NA,NA,NA,""
"image-keyboard-response",33,103193,"0.0-4.7-0.7","1d1pe5uwhmxgssn",626,"47.csv","","269.89999997615814","resources/trios/L1T4A3.jpg","39","restless",0.7,0.3,0.9,0.708128821412648,"true"
"image-keyboard-response",34,103594,"0.0-4.7-1.7","1d1pe5uwhmxgssn",626,"47.csv","","null","resources/maskTrios/BBA3.jpg","null","",NA,NA,NA,NA,""
"image-keyboard-response",35,104810,"0.0-4.7-2.7","1d1pe5uwhmxgssn",626,"47.csv","","null","resources/images/coin2.png","null","",NA,NA,NA,NA,""
"image-keyboard-response",36,105129,"0.0-4.8-0.8","1d1pe5uwhmxgssn",626,"47.csv","","318.09999999403954","resources/trios/L1T4A3.jpg","39","restless",0.7,0.3,0.9,0.737024107413327,"true"
"image-keyboard-response",37,105529,"0.0-4.8-1.8","1d1pe5uwhmxgssn",626,"47.csv","","null","resources/maskTrios/BBA3.jpg","null","",NA,NA,NA,NA,""
"image-keyboard-response",38,106743,"0.0-4.8-2.8","1d1pe5uwhmxgssn",626,"47.csv","","null","resources/images/coin2.png","null","",NA,NA,NA,NA,""
"image-keyboard-response",39,107043,"0.0-4.9-0.9","1d1pe5uwhmxgssn",626,"47.csv","","299.60000002384186","resources/trios/L1T4A3.jpg","39","restless",0.7,0.3,0.9,0.2856624484228,"true"
"image-keyboard-response",40,107446,"0.0-4.9-1.9","1d1pe5uwhmxgssn",626,"47.csv","","null","resources/maskTrios/BBA3.jpg","null","",NA,NA,NA,NA,""
"image-keyboard-response",41,108662,"0.0-4.9-2.9","1d1pe5uwhmxgssn",626,"47.csv","","null","resources/images/coin2.png","null","",NA,NA,NA,NA,""
"image-keyboard-response",42,108901,"0.0-4.10-0.10","1d1pe5uwhmxgssn",626,"47.csv","","238.7999999821186","resources/trios/L1T4A3.jpg","39","restless",0.7,0.3,0.9,0.146241489463225,"true"
"image-keyboard-response",43,109318,"0.0-4.10-1.10","1d1pe5uwhmxgssn",626,"47.csv","","null","resources/maskTrios/BBA3.jpg","null","",NA,NA,NA,NA,""
"image-keyboard-response",44,110534,"0.0-4.10-2.10","1d1pe5uwhmxgssn",626,"47.csv","","null","resources/images/coin2.png","null","",NA,NA,NA,NA,""
"image-keyboard-response",45,110773,"0.0-4.11-0.11","1d1pe5uwhmxgssn",626,"47.csv","","239","resources/trios/L1T4A3.jpg","39","restless",0.7,0.3,0.9,0.29140903002558,"true"
"image-keyboard-response",46,111189,"0.0-4.11-1.11","1d1pe5uwhmxgssn",626,"47.csv","","null","resources/maskTrios/BBA3.jpg","null","",NA,NA,NA,NA,""
"image-keyboard-response",47,112404,"0.0-4.11-2.11","1d1pe5uwhmxgssn",626,"47.csv","","null","resources/images/coin2.png","null","",NA,NA,NA,NA,""
"image-keyboard-response",48,112614,"0.0-4.12-0.12","1d1pe5uwhmxgssn",626,"47.csv","","210.19999998807907","resources/trios/L1T4A3.jpg","39","restless",0.7,0.3,0.9,0.272586765817861,"true"
"image-keyboard-response",49,113027,"0.0-4.12-1.12","1d1pe5uwhmxgssn",626,"47.csv","","null","resources/maskTrios/BBA3.jpg","null","",NA,NA,NA,NA,""
"image-keyboard-response",50,114240,"0.0-4.12-2.12","1d1pe5uwhmxgssn",626,"47.csv","","null","resources/images/coin2.png","null","",NA,NA,NA,NA,""
"image-keyboard-response",51,114518,"0.0-4.13-0.13","1d1pe5uwhmxgssn",626,"47.csv","","277.69999998807907","resources/trios/L1T4A3.jpg","39","restless",0.7,0.3,0.9,0.741418182450603,"true"
"image-keyboard-response",52,114928,"0.0-4.13-1.13","1d1pe5uwhmxgssn",626,"47.csv","","null","resources/maskTrios/BBA3.jpg","null","",NA,NA,NA,NA,""
"image-keyboard-response",53,116140,"0.0-4.13-2.13","1d1pe5uwhmxgssn",626,"47.csv","","null","resources/images/coin2.png","null","",NA,NA,NA,NA,""
"image-keyboard-response",54,116519,"0.0-4.14-0.14","1d1pe5uwhmxgssn",626,"47.csv","","378.10000002384186","resources/trios/L1T4A3.jpg","39","restless",0.7,0.3,0.9,0.574992835954923,"true"
"image-keyboard-response",55,116924,"0.0-4.14-1.14","1d1pe5uwhmxgssn",626,"47.csv","","null","resources/maskTrios/BBA3.jpg","null","",NA,NA,NA,NA,""
"image-keyboard-response",56,118140,"0.0-4.14-2.14","1d1pe5uwhmxgssn",626,"47.csv","","null","resources/images/coin2.png","null","",NA,NA,NA,NA,""
"image-keyboard-response",57,118487,"0.0-4.15-0.15","1d1pe5uwhmxgssn",626,"47.csv","","346.10000002384186","resources/trios/L1T4A3.jpg","39","restless",0.7,0.3,0.9,0.29765131987439,"true"
"image-keyboard-response",58,118891,"0.0-4.15-1.15","1d1pe5uwhmxgssn",626,"47.csv","","null","resources/maskTrios/BBA3.jpg","null","",NA,NA,NA,NA,""
"image-keyboard-response",59,120103,"0.0-4.15-2.15","1d1pe5uwhmxgssn",626,"47.csv","","null","resources/images/coin2.png","null","",NA,NA,NA,NA,""
"image-keyboard-response",60,120376,"0.0-4.16-0.16","1d1pe5uwhmxgssn",626,"47.csv","","273.19999998807907","resources/trios/L1T4A3.jpg","39","restless",0.7,0.3,0.9,0.064034128295674,"true"
"image-keyboard-response",61,120790,"0.0-4.16-1.16","1d1pe5uwhmxgssn",626,"47.csv","","null","resources/maskTrios/BBA3.jpg","null","",NA,NA,NA,NA,""
"image-keyboard-response",62,122006,"0.0-4.16-2.16","1d1pe5uwhmxgssn",626,"47.csv","","null","resources/images/coin2.png","null","",NA,NA,NA,NA,""
"image-keyboard-response",63,122303,"0.0-4.17-0.17","1d1pe5uwhmxgssn",626,"47.csv","","296.59999999403954","resources/trios/L1T4A3.jpg","39","restless",0.7,0.3,0.9,0.225619507888779,"true"
"image-keyboard-response",64,122710,"0.0-4.17-1.17","1d1pe5uwhmxgssn",626,"47.csv","","null","resources/maskTrios/BBA3.jpg","null","",NA,NA,NA,NA,""
"image-keyboard-response",65,123926,"0.0-4.17-2.17","1d1pe5uwhmxgssn",626,"47.csv","","null","resources/images/coin2.png","null","",NA,NA,NA,NA,""
"image-keyboard-response",66,124130,"0.0-4.18-0.18","1d1pe5uwhmxgssn",626,"47.csv","","203.7999999821186","resources/trios/L1T4A3.jpg","39","restless",0.7,0.3,0.9,0.175163380879143,"true"
"image-keyboard-response",67,124534,"0.0-4.18-1.18","1d1pe5uwhmxgssn",626,"47.csv","","null","resources/maskTrios/BBA3.jpg","null","",NA,NA,NA,NA,""
"image-keyboard-response",68,125734,"0.0-4.18-2.18","1d1pe5uwhmxgssn",626,"47.csv","","null","resources/images/coin2.png","null","",NA,NA,NA,NA,""
"image-keyboard-response",69,126491,"0.0-4.19-0.19","1d1pe5uwhmxgssn",626,"47.csv","","756.5","resources/trios/L1T4A3.jpg","39","restless",0.7,0.3,0.9,0.0794727497778727,"true"
"image-keyboard-response",70,126901,"0.0-4.19-1.19","1d1pe5uwhmxgssn",626,"47.csv","","null","resources/maskTrios/BBA3.jpg","null","",NA,NA,NA,NA,""
"image-keyboard-response",71,128114,"0.0-4.19-2.19","1d1pe5uwhmxgssn",626,"47.csv","","null","resources/images/coin2.png","null","",NA,NA,NA,NA,""
"image-keyboard-response",72,128505,"0.0-4.20-0.20","1d1pe5uwhmxgssn",626,"47.csv","","391.09999999403954","resources/trios/L1T4A3.jpg","39","restless",0.7,0.2,0.9,0.488723309553211,"true"
"image-keyboard-response",73,128914,"0.0-4.20-1.20","1d1pe5uwhmxgssn",626,"47.csv","","null","resources/maskTrios/BBA3.jpg","null","",NA,NA,NA,NA,""
"image-keyboard-response",74,130129,"0.0-4.20-2.20","1d1pe5uwhmxgssn",626,"47.csv","","null","resources/images/coin2.png","null","",NA,NA,NA,NA,""
"image-keyboard-response",75,130368,"0.0-4.21-0.21","1d1pe5uwhmxgssn",626,"47.csv","","239.19999998807907","resources/trios/L1T4A3.jpg","39","restless",0.7,0.2,0.9,0.712460234859844,"true"
"image-keyboard-response",76,130784,"0.0-4.21-1.21","1d1pe5uwhmxgssn",626,"47.csv","","null","resources/maskTrios/BBA3.jpg","null","",NA,NA,NA,NA,""
"image-keyboard-response",77,131996,"0.0-4.21-2.21","1d1pe5uwhmxgssn",626,"47.csv","","null","resources/images/coin2.png","null","",NA,NA,NA,NA,""
"image-keyboard-response",78,132205,"0.0-4.22-0.22","1d1pe5uwhmxgssn",626,"47.csv","","208.5","resources/trios/L1T4A3.jpg","39","restless",0.7,0.2,0.9,0.537933596547812,"true"
"image-keyboard-response",79,132618,"0.0-4.22-1.22","1d1pe5uwhmxgssn",626,"47.csv","","null","resources/maskTrios/BBA3.jpg","null","",NA,NA,NA,NA,""
"image-keyboard-response",80,133830,"0.0-4.22-2.22","1d1pe5uwhmxgssn",626,"47.csv","","null","resources/images/coin2.png","null","",NA,NA,NA,NA,""
"image-keyboard-response",81,134054,"0.0-4.23-0.23","1d1pe5uwhmxgssn",626,"47.csv","","223.7999999821186","resources/trios/L1T4A3.jpg","39","restless",0.7,0.2,0.9,0.389362995358508,"true"
"image-keyboard-response",82,134468,"0.0-4.23-1.23","1d1pe5uwhmxgssn",626,"47.csv","","null","resources/maskTrios/BBA3.jpg","null","",NA,NA,NA,NA,""
"image-keyboard-response",83,135682,"0.0-4.23-2.23","1d1pe5uwhmxgssn",626,"47.csv","","null","resources/images/coin2.png","null","",NA,NA,NA,NA,""
"image-keyboard-response",84,136237,"0.0-4.24-0.24","1d1pe5uwhmxgssn",626,"47.csv","","555","resources/trios/L1T4A3.jpg","39","restless",0.7,0.2,0.9,0.476461681492518,"true"
"image-keyboard-response",85,136642,"0.0-4.24-1.24","1d1pe5uwhmxgssn",626,"47.csv","","null","resources/maskTrios/BBA3.jpg","null","",NA,NA,NA,NA,""
"image-keyboard-response",86,137858,"0.0-4.24-2.24","1d1pe5uwhmxgssn",626,"47.csv","","null","resources/images/coin2.png","null","",NA,NA,NA,NA,""
"image-keyboard-response",87,138095,"0.0-4.25-0.25","1d1pe5uwhmxgssn",626,"47.csv","","237.19999998807907","resources/trios/L1T4A3.jpg","39","restless",0.6,0.2,0.9,0.644538557612475,"true"
"image-keyboard-response",88,138497,"0.0-4.25-1.25","1d1pe5uwhmxgssn",626,"47.csv","","null","resources/maskTrios/BBA3.jpg","null","",NA,NA,NA,NA,""
"image-keyboard-response",89,139712,"0.0-4.25-2.25","1d1pe5uwhmxgssn",626,"47.csv","","null","resources/images/coin2.png","null","",NA,NA,NA,NA,""
"image-keyboard-response",90,139960,"0.0-4.26-0.26","1d1pe5uwhmxgssn",626,"47.csv","","247.59999999403954","resources/trios/L1T4A3.jpg","39","restless",0.6,0.2,0.9,0.723751604125965,"true"
"image-keyboard-response",91,140365,"0.0-4.26-1.26","1d1pe5uwhmxgssn",626,"47.csv","","null","resources/maskTrios/BBA3.jpg","null","",NA,NA,NA,NA,""
"image-keyboard-response",92,141580,"0.0-4.26-2.26","1d1pe5uwhmxgssn",626,"47.csv","","null","resources/images/coin2.png","null","",NA,NA,NA,NA,""
"image-keyboard-response",93,141839,"0.0-4.27-0.27","1d1pe5uwhmxgssn",626,"47.csv","","257.90000000596046","resources/trios/L1T4A3.jpg","39","restless",0.5,0.2,0.9,0.968731050333736,"false"
"image-keyboard-response",94,142252,"0.0-4.27-1.27","1d1pe5uwhmxgssn",626,"47.csv","","null","resources/maskTrios/BBA3.jpg","null","",NA,NA,NA,NA,""
"image-keyboard-response",95,143466,"0.0-4.27-2.27","1d1pe5uwhmxgssn",626,"47.csv","","null","resources/images/fishbone.png","null","",NA,NA,NA,NA,""
"image-keyboard-response",96,145887,"0.0-4.28-0.28","1d1pe5uwhmxgssn",626,"47.csv","","2421.0999999940395","resources/trios/L1T4A3.jpg","39","restless",0.4,0.2,0.9,0.29179302376378,"true"
"image-keyboard-response",97,146297,"0.0-4.28-1.28","1d1pe5uwhmxgssn",626,"47.csv","","null","resources/maskTrios/BBA3.jpg","null","",NA,NA,NA,NA,""
"image-keyboard-response",98,147513,"0.0-4.28-2.28","1d1pe5uwhmxgssn",626,"47.csv","","null","resources/images/coin2.png","null","",NA,NA,NA,NA,""
"image-keyboard-response",99,147835,"0.0-4.29-0.29","1d1pe5uwhmxgssn",626,"47.csv","","321.2999999821186","resources/trios/L1T4A3.jpg","39","restless",0.4,0.2,0.9,0.736608168448471,"true"
"image-keyboard-response",100,148247,"0.0-4.29-1.29","1d1pe5uwhmxgssn",626,"47.csv","","null","resources/maskTrios/BBA3.jpg","null","",NA,NA,NA,NA,""
"image-keyboard-response",101,149461,"0.0-4.29-2.29","1d1pe5uwhmxgssn",626,"47.csv","","null","resources/images/coin2.png","null","",NA,NA,NA,NA,""
"image-keyboard-response",102,150279,"0.0-4.30-0.30","1d1pe5uwhmxgssn",626,"47.csv","","817.6999999880791","resources/trios/L1T4A3.jpg","39","restless",0.4,0.2,0.9,0.143932721487779,"true"
"image-keyboard-response",103,150690,"0.0-4.30-1.30","1d1pe5uwhmxgssn",626,"47.csv","","null","resources/maskTrios/BBA3.jpg","null","",NA,NA,NA,NA,""
"image-keyboard-response",104,151902,"0.0-4.30-2.30","1d1pe5uwhmxgssn",626,"47.csv","","null","resources/images/coin2.png","null","",NA,NA,NA,NA,""
"image-keyboard-response",105,152663,"0.0-4.31-0.31","1d1pe5uwhmxgssn",626,"47.csv","","760.4000000059605","resources/trios/L1T4A3.jpg","39","restless",0.4,0.2,0.9,0.690308599425922,"true"
"image-keyboard-response",106,153067,"0.0-4.31-1.31","1d1pe5uwhmxgssn",626,"47.csv","","null","resources/maskTrios/BBA3.jpg","null","",NA,NA,NA,NA,""
"image-keyboard-response",107,154282,"0.0-4.31-2.31","1d1pe5uwhmxgssn",626,"47.csv","","null","resources/images/coin2.png","null","",NA,NA,NA,NA,""
"image-keyboard-response",108,154541,"0.0-4.32-0.32","1d1pe5uwhmxgssn",626,"47.csv","","259.09999999403954","resources/trios/L1T4A3.jpg","39","restless",0.4,0.2,0.9,0.069324394166717,"true"
"image-keyboard-response",109,154954,"0.0-4.32-1.32","1d1pe5uwhmxgssn",626,"47.csv","","null","resources/maskTrios/BBA3.jpg","null","",NA,NA,NA,NA,""
"image-keyboard-response",110,156170,"0.0-4.32-2.32","1d1pe5uwhmxgssn",626,"47.csv","","null","resources/images/coin2.png","null","",NA,NA,NA,NA,""
"image-keyboard-response",111,156260,"0.0-4.33-0.33","1d1pe5uwhmxgssn",626,"47.csv","","89.40000000596046","resources/trios/L1T4A3.jpg","39","restless",0.4,0.2,0.9,0.790903697174313,"true"
"image-keyboard-response",112,156666,"0.0-4.33-1.33","1d1pe5uwhmxgssn",626,"47.csv","","null","resources/maskTrios/BBA3.jpg","null","",NA,NA,NA,NA,""
"image-keyboard-response",113,157881,"0.0-4.33-2.33","1d1pe5uwhmxgssn",626,"47.csv","","null","resources/images/coin2.png","null","",NA,NA,NA,NA,""
"image-keyboard-response",114,158144,"0.0-4.34-0.34","1d1pe5uwhmxgssn",626,"47.csv","","262.90000000596046","resources/trios/L1T4A3.jpg","39","restless",0.4,0.2,0.9,0.987035603778009,"false"
"image-keyboard-response",115,158549,"0.0-4.34-1.34","1d1pe5uwhmxgssn",626,"47.csv","","null","resources/maskTrios/BBA3.jpg","null","",NA,NA,NA,NA,""
"image-keyboard-response",116,159765,"0.0-4.34-2.34","1d1pe5uwhmxgssn",626,"47.csv","","null","resources/images/fishbone.png","null","",NA,NA,NA,NA,""
"image-keyboard-response",117,160086,"0.0-4.35-0.35","1d1pe5uwhmxgssn",626,"47.csv","","321.39999997615814","resources/trios/L1T4A3.jpg","39","restless",0.4,0.2,0.9,0.700232980595582,"true"
"image-keyboard-response",118,160500,"0.0-4.35-1.35","1d1pe5uwhmxgssn",626,"47.csv","","null","resources/maskTrios/BBA3.jpg","null","",NA,NA,NA,NA,""
"image-keyboard-response",119,161713,"0.0-4.35-2.35","1d1pe5uwhmxgssn",626,"47.csv","","null","resources/images/coin2.png","null","",NA,NA,NA,NA,""
"image-keyboard-response",120,161975,"0.0-4.36-0.36","1d1pe5uwhmxgssn",626,"47.csv","","261.60000002384186","resources/trios/L1T4A3.jpg","39","restless",0.4,0.2,0.9,0.520251099918794,"true"
"image-keyboard-response",121,162386,"0.0-4.36-1.36","1d1pe5uwhmxgssn",626,"47.csv","","null","resources/maskTrios/BBA3.jpg","null","",NA,NA,NA,NA,""
"image-keyboard-response",122,163602,"0.0-4.36-2.36","1d1pe5uwhmxgssn",626,"47.csv","","null","resources/images/coin2.png","null","",NA,NA,NA,NA,""
"image-keyboard-response",123,163904,"0.0-4.37-0.37","1d1pe5uwhmxgssn",626,"47.csv","","300.90000000596046","resources/trios/L1T4A3.jpg","39","restless",0.4,0.2,0.9,0.915590673820621,"false"
"image-keyboard-response",124,164306,"0.0-4.37-1.37","1d1pe5uwhmxgssn",626,"47.csv","","null","resources/maskTrios/BBA3.jpg","null","",NA,NA,NA,NA,""
"image-keyboard-response",125,165522,"0.0-4.37-2.37","1d1pe5uwhmxgssn",626,"47.csv","","null","resources/images/fishbone.png","null","",NA,NA,NA,NA,""
"image-keyboard-response",126,165946,"0.0-4.38-0.38","1d1pe5uwhmxgssn",626,"47.csv","","423.90000000596046","resources/trios/L1T4A3.jpg","37","restless",0.4,0.2,0.8,0.816041018894517,"false"
"image-keyboard-response",127,166352,"0.0-4.38-1.38","1d1pe5uwhmxgssn",626,"47.csv","","null","resources/maskTrios/L1BB.jpg","null","",NA,NA,NA,NA,""
"image-keyboard-response",128,167564,"0.0-4.38-2.38","1d1pe5uwhmxgssn",626,"47.csv","","null","resources/images/fishbone.png","null","",NA,NA,NA,NA,""
"image-keyboard-response",129,167821,"0.0-4.39-0.39","1d1pe5uwhmxgssn",626,"47.csv","","257.09999999403954","resources/trios/L1T4A3.jpg","39","restless",0.4,0.2,0.8,0.236567607703015,"true"
"image-keyboard-response",130,168235,"0.0-4.39-1.39","1d1pe5uwhmxgssn",626,"47.csv","","null","resources/maskTrios/BBA3.jpg","null","",NA,NA,NA,NA,""
"image-keyboard-response",131,169450,"0.0-4.39-2.39","1d1pe5uwhmxgssn",626,"47.csv","","null","resources/images/coin2.png","null","",NA,NA,NA,NA,""
"image-keyboard-response",132,169668,"0.0-4.40-0.40","1d1pe5uwhmxgssn",626,"47.csv","","217.59999999403954","resources/trios/L1T4A3.jpg","39","restless",0.4,0.3,0.8,0.0948787234808766,"true"
"image-keyboard-response",133,170074,"0.0-4.40-1.40","1d1pe5uwhmxgssn",626,"47.csv","","null","resources/maskTrios/BBA3.jpg","null","",NA,NA,NA,NA,""
"image-keyboard-response",134,171290,"0.0-4.40-2.40","1d1pe5uwhmxgssn",626,"47.csv","","null","resources/images/coin2.png","null","",NA,NA,NA,NA,""
"image-keyboard-response",135,171552,"0.0-4.41-0.41","1d1pe5uwhmxgssn",626,"47.csv","","261.7999999821186","resources/trios/L1T4A3.jpg","39","restless",0.4,0.4,0.8,0.184443119760277,"true"
"image-keyboard-response",136,171962,"0.0-4.41-1.41","1d1pe5uwhmxgssn",626,"47.csv","","null","resources/maskTrios/BBA3.jpg","null","",NA,NA,NA,NA,""
"image-keyboard-response",137,173175,"0.0-4.41-2.41","1d1pe5uwhmxgssn",626,"47.csv","","null","resources/images/coin2.png","null","",NA,NA,NA,NA,""
"image-keyboard-response",138,173431,"0.0-4.42-0.42","1d1pe5uwhmxgssn",626,"47.csv","","255.2000000178814","resources/trios/L1T4A3.jpg","39","restless",0.4,0.4,0.8,0.747593090343365,"true"
"image-keyboard-response",139,173845,"0.0-4.42-1.42","1d1pe5uwhmxgssn",626,"47.csv","","null","resources/maskTrios/BBA3.jpg","null","",NA,NA,NA,NA,""
"image-keyboard-response",140,175061,"0.0-4.42-2.42","1d1pe5uwhmxgssn",626,"47.csv","","null","resources/images/coin2.png","null","",NA,NA,NA,NA,""
"image-keyboard-response",141,175282,"0.0-4.43-0.43","1d1pe5uwhmxgssn",626,"47.csv","","220.40000000596046","resources/trios/L1T4A3.jpg","39","restless",0.4,0.5,0.7,0.776864524684997,"false"
"image-keyboard-response",142,175686,"0.0-4.43-1.43","1d1pe5uwhmxgssn",626,"47.csv","","null","resources/maskTrios/BBA3.jpg","null","",NA,NA,NA,NA,""
"image-keyboard-response",143,176902,"0.0-4.43-2.43","1d1pe5uwhmxgssn",626,"47.csv","","null","resources/images/fishbone.png","null","",NA,NA,NA,NA,""
"image-keyboard-response",144,177193,"0.0-4.44-0.44","1d1pe5uwhmxgssn",626,"47.csv","","290.69999998807907","resources/trios/L1T4A3.jpg","39","restless",0.4,0.5,0.7,0.391937879203038,"true"
"image-keyboard-response",145,177603,"0.0-4.44-1.44","1d1pe5uwhmxgssn",626,"47.csv","","null","resources/maskTrios/BBA3.jpg","null","",NA,NA,NA,NA,""
"image-keyboard-response",146,178818,"0.0-4.44-2.44","1d1pe5uwhmxgssn",626,"47.csv","","null","resources/images/coin2.png","null","",NA,NA,NA,NA,""
"image-keyboard-response",147,179140,"0.0-4.45-0.45","1d1pe5uwhmxgssn",626,"47.csv","","321.90000000596046","resources/trios/L1T4A3.jpg","39","restless",0.4,0.5,0.7,0.790669695212695,"false"
"image-keyboard-response",148,179553,"0.0-4.45-1.45","1d1pe5uwhmxgssn",626,"47.csv","","null","resources/maskTrios/BBA3.jpg","null","",NA,NA,NA,NA,""
"image-keyboard-response",149,180769,"0.0-4.45-2.45","1d1pe5uwhmxgssn",626,"47.csv","","null","resources/images/fishbone.png","null","",NA,NA,NA,NA,""
"image-keyboard-response",150,181278,"0.0-4.46-0.46","1d1pe5uwhmxgssn",626,"47.csv","","508.09999999403954","resources/trios/L1T4A3.jpg","38","restless",0.4,0.5,0.7,0.952694376256333,"false"
"image-keyboard-response",151,181679,"0.0-4.46-1.46","1d1pe5uwhmxgssn",626,"47.csv","","null","resources/maskTrios/BT4B.jpg","null","",NA,NA,NA,NA,""
"image-keyboard-response",152,182893,"0.0-4.46-2.46","1d1pe5uwhmxgssn",626,"47.csv","","null","resources/images/fishbone.png","null","",NA,NA,NA,NA,""
"image-keyboard-response",153,183464,"0.0-4.47-0.47","1d1pe5uwhmxgssn",626,"47.csv","","569.8999999761581","resources/trios/L1T4A3.jpg","39","restless",0.4,0.5,0.7,0.3613011635906,"true"
"image-keyboard-response",154,183869,"0.0-4.47-1.47","1d1pe5uwhmxgssn",626,"47.csv","","null","resources/maskTrios/BBA3.jpg","null","",NA,NA,NA,NA,""
"image-keyboard-response",155,185085,"0.0-4.47-2.47","1d1pe5uwhmxgssn",626,"47.csv","","null","resources/images/coin2.png","null","",NA,NA,NA,NA,""
"image-keyboard-response",156,185438,"0.0-4.48-0.48","1d1pe5uwhmxgssn",626,"47.csv","","352.2999999821186","resources/trios/L1T4A3.jpg","39","restless",0.4,0.5,0.7,0.991960312765271,"false"
"image-keyboard-response",157,185853,"0.0-4.48-1.48","1d1pe5uwhmxgssn",626,"47.csv","","null","resources/maskTrios/BBA3.jpg","null","",NA,NA,NA,NA,""
"image-keyboard-response",158,187065,"0.0-4.48-2.48","1d1pe5uwhmxgssn",626,"47.csv","","null","resources/images/fishbone.png","null","",NA,NA,NA,NA,""
"image-keyboard-response",159,189465,"0.0-4.49-0.49","1d1pe5uwhmxgssn",626,"47.csv","","2399.5","resources/trios/L1T4A3.jpg","39","restless",0.4,0.5,0.7,0.708179509844613,"false"
"image-keyboard-response",160,189882,"0.0-4.49-1.49","1d1pe5uwhmxgssn",626,"47.csv","","null","resources/maskTrios/BBA3.jpg","null","",NA,NA,NA,NA,""
"image-keyboard-response",161,191094,"0.0-4.49-2.49","1d1pe5uwhmxgssn",626,"47.csv","","null","resources/images/fishbone.png","null","",NA,NA,NA,NA,""
"image-keyboard-response",162,191458,"0.0-4.50-0.50","1d1pe5uwhmxgssn",626,"47.csv","","363.80000001192093","resources/trios/L1T4A3.jpg","37","restless",0.4,0.5,0.7,0.538521079438776,"false"
"image-keyboard-response",163,191862,"0.0-4.50-1.50","1d1pe5uwhmxgssn",626,"47.csv","","null","resources/maskTrios/L1BB.jpg","null","",NA,NA,NA,NA,""
"image-keyboard-response",164,193078,"0.0-4.50-2.50","1d1pe5uwhmxgssn",626,"47.csv","","null","resources/images/fishbone.png","null","",NA,NA,NA,NA,""
"image-keyboard-response",165,193401,"0.0-4.51-0.51","1d1pe5uwhmxgssn",626,"47.csv","","323.09999999403954","resources/trios/L1T4A3.jpg","38","restless",0.4,0.5,0.8,0.657737839139715,"false"
"image-keyboard-response",166,193813,"0.0-4.51-1.51","1d1pe5uwhmxgssn",626,"47.csv","","null","resources/maskTrios/BT4B.jpg","null","",NA,NA,NA,NA,""
"image-keyboard-response",167,195029,"0.0-4.51-2.51","1d1pe5uwhmxgssn",626,"47.csv","","null","resources/images/fishbone.png","null","",NA,NA,NA,NA,""
"image-keyboard-response",168,195662,"0.0-4.52-0.52","1d1pe5uwhmxgssn",626,"47.csv","","632.2999999821186","resources/trios/L1T4A3.jpg","39","restless",0.4,0.5,0.8,0.757594384187867,"true"
"image-keyboard-response",169,196068,"0.0-4.52-1.52","1d1pe5uwhmxgssn",626,"47.csv","","null","resources/maskTrios/BBA3.jpg","null","",NA,NA,NA,NA,""
"image-keyboard-response",170,197282,"0.0-4.52-2.52","1d1pe5uwhmxgssn",626,"47.csv","","null","resources/images/coin2.png","null","",NA,NA,NA,NA,""
"image-keyboard-response",171,197560,"0.0-4.53-0.53","1d1pe5uwhmxgssn",626,"47.csv","","277.19999998807907","resources/trios/L1T4A3.jpg","39","restless",0.4,0.5,0.8,0.488190483376436,"true"
"image-keyboard-response",172,197970,"0.0-4.53-1.53","1d1pe5uwhmxgssn",626,"47.csv","","null","resources/maskTrios/BBA3.jpg","null","",NA,NA,NA,NA,""
"image-keyboard-response",173,199181,"0.0-4.53-2.53","1d1pe5uwhmxgssn",626,"47.csv","","null","resources/images/coin2.png","null","",NA,NA,NA,NA,""
"image-keyboard-response",174,199530,"0.0-4.54-0.54","1d1pe5uwhmxgssn",626,"47.csv","","348.30000001192093","resources/trios/L1T4A3.jpg","39","restless",0.3,0.5,0.8,0.756323653808534,"true"
"image-keyboard-response",175,199934,"0.0-4.54-1.54","1d1pe5uwhmxgssn",626,"47.csv","","null","resources/maskTrios/BBA3.jpg","null","",NA,NA,NA,NA,""
"image-keyboard-response",176,201150,"0.0-4.54-2.54","1d1pe5uwhmxgssn",626,"47.csv","","null","resources/images/coin2.png","null","",NA,NA,NA,NA,""
"image-keyboard-response",177,201473,"0.0-4.55-0.55","1d1pe5uwhmxgssn",626,"47.csv","","322.69999998807907","resources/trios/L1T4A3.jpg","39","restless",0.3,0.5,0.8,0.648750486961718,"true"
"image-keyboard-response",178,201886,"0.0-4.55-1.55","1d1pe5uwhmxgssn",626,"47.csv","","null","resources/maskTrios/BBA3.jpg","null","",NA,NA,NA,NA,""
"image-keyboard-response",179,203102,"0.0-4.55-2.55","1d1pe5uwhmxgssn",626,"47.csv","","null","resources/images/coin2.png","null","",NA,NA,NA,NA,""
"image-keyboard-response",180,203407,"0.0-4.56-0.56","1d1pe5uwhmxgssn",626,"47.csv","","304.80000001192093","resources/trios/L1T4A3.jpg","39","restless",0.3,0.5,0.8,0.421332728520423,"true"
"image-keyboard-response",181,203821,"0.0-4.56-1.56","1d1pe5uwhmxgssn",626,"47.csv","","null","resources/maskTrios/BBA3.jpg","null","",NA,NA,NA,NA,""
"image-keyboard-response",182,205036,"0.0-4.56-2.56","1d1pe5uwhmxgssn",626,"47.csv","","null","resources/images/coin2.png","null","",NA,NA,NA,NA,""
"image-keyboard-response",183,205400,"0.0-4.57-0.57","1d1pe5uwhmxgssn",626,"47.csv","","364.09999999403954","resources/trios/L1T4A3.jpg","39","restless",0.3,0.5,0.7,0.0213521562057517,"true"
"image-keyboard-response",184,205803,"0.0-4.57-1.57","1d1pe5uwhmxgssn",626,"47.csv","","null","resources/maskTrios/BBA3.jpg","null","",NA,NA,NA,NA,""
"image-keyboard-response",185,207019,"0.0-4.57-2.57","1d1pe5uwhmxgssn",626,"47.csv","","null","resources/images/coin2.png","null","",NA,NA,NA,NA,""
"image-keyboard-response",186,207310,"0.0-4.58-0.58","1d1pe5uwhmxgssn",626,"47.csv","","290.2999999821186","resources/trios/L1T4A3.jpg","39","restless",0.3,0.5,0.7,0.759243437679613,"false"
"image-keyboard-response",187,207722,"0.0-4.58-1.58","1d1pe5uwhmxgssn",626,"47.csv","","null","resources/maskTrios/BBA3.jpg","null","",NA,NA,NA,NA,""
"image-keyboard-response",188,208933,"0.0-4.58-2.58","1d1pe5uwhmxgssn",626,"47.csv","","null","resources/images/fishbone.png","null","",NA,NA,NA,NA,""
"image-keyboard-response",189,211629,"0.0-4.59-0.59","1d1pe5uwhmxgssn",626,"47.csv","","2695.5999999940395","resources/trios/L1T4A3.jpg","39","restless",0.3,0.5,0.7,0.887465367003317,"false"
"image-keyboard-response",190,212031,"0.0-4.59-1.59","1d1pe5uwhmxgssn",626,"47.csv","","null","resources/maskTrios/BBA3.jpg","null","",NA,NA,NA,NA,""
"image-keyboard-response",191,213245,"0.0-4.59-2.59","1d1pe5uwhmxgssn",626,"47.csv","","null","resources/images/fishbone.png","null","",NA,NA,NA,NA,""
"image-keyboard-response",192,214561,"0.0-4.60-0.60","1d1pe5uwhmxgssn",626,"47.csv","","1315.699999988079","resources/trios/L1T4A3.jpg","39","restless",0.3,0.5,0.7,0.356692543879858,"true"
"image-keyboard-response",193,214972,"0.0-4.60-1.60","1d1pe5uwhmxgssn",626,"47.csv","","null","resources/maskTrios/BBA3.jpg","null","",NA,NA,NA,NA,""
"image-keyboard-response",194,216188,"0.0-4.60-2.60","1d1pe5uwhmxgssn",626,"47.csv","","null","resources/images/coin2.png","null","",NA,NA,NA,NA,""
"image-keyboard-response",195,216595,"0.0-4.61-0.61","1d1pe5uwhmxgssn",626,"47.csv","","407","resources/trios/L1T4A3.jpg","39","restless",0.3,0.5,0.7,0.499071417549987,"true"
"image-keyboard-response",196,217003,"0.0-4.61-1.61","1d1pe5uwhmxgssn",626,"47.csv","","null","resources/maskTrios/BBA3.jpg","null","",NA,NA,NA,NA,""
"image-keyboard-response",197,218220,"0.0-4.61-2.61","1d1pe5uwhmxgssn",626,"47.csv","","null","resources/images/coin2.png","null","",NA,NA,NA,NA,""
"image-keyboard-response",198,218534,"0.0-4.62-0.62","1d1pe5uwhmxgssn",626,"47.csv","","313.5","resources/trios/L1T4A3.jpg","39","restless",0.3,0.5,0.7,0.384993152074704,"true"
"image-keyboard-response",199,218938,"0.0-4.62-1.62","1d1pe5uwhmxgssn",626,"47.csv","","null","resources/maskTrios/BBA3.jpg","null","",NA,NA,NA,NA,""
"image-keyboard-response",200,220154,"0.0-4.62-2.62","1d1pe5uwhmxgssn",626,"47.csv","","null","resources/images/coin2.png","null","",NA,NA,NA,NA,""
"image-keyboard-response",201,220626,"0.0-4.63-0.63","1d1pe5uwhmxgssn",626,"47.csv","","471.30000001192093","resources/trios/L1T4A3.jpg","39","restless",0.3,0.5,0.6,0.858179307999771,"false"
"image-keyboard-response",202,221033,"0.0-4.63-1.63","1d1pe5uwhmxgssn",626,"47.csv","","null","resources/maskTrios/BBA3.jpg","null","",NA,NA,NA,NA,""
"image-keyboard-response",203,222249,"0.0-4.63-2.63","1d1pe5uwhmxgssn",626,"47.csv","","null","resources/images/fishbone.png","null","",NA,NA,NA,NA,""
"image-keyboard-response",204,233840,"0.0-4.64-0.64","1d1pe5uwhmxgssn",626,"47.csv","","11590.699999988079","resources/trios/L1T4A3.jpg","39","restless",0.3,0.5,0.6,0.74476603883856,"false"
"image-keyboard-response",205,234254,"0.0-4.64-1.64","1d1pe5uwhmxgssn",626,"47.csv","","null","resources/maskTrios/BBA3.jpg","null","",NA,NA,NA,NA,""
"image-keyboard-response",206,235470,"0.0-4.64-2.64","1d1pe5uwhmxgssn",626,"47.csv","","null","resources/images/fishbone.png","null","",NA,NA,NA,NA,""
"image-keyboard-response",207,235856,"0.0-4.65-0.65","1d1pe5uwhmxgssn",626,"47.csv","","385.40000000596046","resources/trios/L1T4A3.jpg","38","restless",0.3,0.5,0.6,0.397322603716119,"true"
"image-keyboard-response",208,236270,"0.0-4.65-1.65","1d1pe5uwhmxgssn",626,"47.csv","","null","resources/maskTrios/BT4B.jpg","null","",NA,NA,NA,NA,""
"image-keyboard-response",209,237482,"0.0-4.65-2.65","1d1pe5uwhmxgssn",626,"47.csv","","null","resources/images/coin2.png","null","",NA,NA,NA,NA,""
"image-keyboard-response",210,237817,"0.0-4.66-0.66","1d1pe5uwhmxgssn",626,"47.csv","","334.69999998807907","resources/trios/L1T4A3.jpg","38","restless",0.3,0.5,0.6,0.605711064148705,"false"
"image-keyboard-response",211,238218,"0.0-4.66-1.66","1d1pe5uwhmxgssn",626,"47.csv","","null","resources/maskTrios/BT4B.jpg","null","",NA,NA,NA,NA,""
"image-keyboard-response",212,239434,"0.0-4.66-2.66","1d1pe5uwhmxgssn",626,"47.csv","","null","resources/images/fishbone.png","null","",NA,NA,NA,NA,""
"image-keyboard-response",213,239804,"0.0-4.67-0.67","1d1pe5uwhmxgssn",626,"47.csv","","369.80000001192093","resources/trios/L1T4A3.jpg","39","restless",0.3,0.5,0.6,0.405517094673216,"true"
"image-keyboard-response",214,240218,"0.0-4.67-1.67","1d1pe5uwhmxgssn",626,"47.csv","","null","resources/maskTrios/BBA3.jpg","null","",NA,NA,NA,NA,""
"image-keyboard-response",215,241434,"0.0-4.67-2.67","1d1pe5uwhmxgssn",626,"47.csv","","null","resources/images/coin2.png","null","",NA,NA,NA,NA,""
"image-keyboard-response",216,241704,"0.0-4.68-0.68","1d1pe5uwhmxgssn",626,"47.csv","","269.90000000596046","resources/trios/L1T4A3.jpg","39","restless",0.3,0.5,0.6,0.538750782887308,"true"
"image-keyboard-response",217,242106,"0.0-4.68-1.68","1d1pe5uwhmxgssn",626,"47.csv","","null","resources/maskTrios/BBA3.jpg","null","",NA,NA,NA,NA,""
"image-keyboard-response",218,243320,"0.0-4.68-2.68","1d1pe5uwhmxgssn",626,"47.csv","","null","resources/images/coin2.png","null","",NA,NA,NA,NA,""
"image-keyboard-response",219,243791,"0.0-4.69-0.69","1d1pe5uwhmxgssn",626,"47.csv","","470.2999999821186","resources/trios/L1T4A3.jpg","39","restless",0.4,0.5,0.6,0.145853466353954,"true"
"image-keyboard-response",220,244200,"0.0-4.69-1.69","1d1pe5uwhmxgssn",626,"47.csv","","null","resources/maskTrios/BBA3.jpg","null","",NA,NA,NA,NA,""
"image-keyboard-response",221,245413,"0.0-4.69-2.69","1d1pe5uwhmxgssn",626,"47.csv","","null","resources/images/coin2.png","null","",NA,NA,NA,NA,""
"image-keyboard-response",222,245655,"0.0-4.70-0.70","1d1pe5uwhmxgssn",626,"47.csv","","241.5","resources/trios/L1T4A3.jpg","39","restless",0.4,0.5,0.6,0.966569914697573,"false"
"image-keyboard-response",223,246070,"0.0-4.70-1.70","1d1pe5uwhmxgssn",626,"47.csv","","null","resources/maskTrios/BBA3.jpg","null","",NA,NA,NA,NA,""
"image-keyboard-response",224,247286,"0.0-4.70-2.70","1d1pe5uwhmxgssn",626,"47.csv","","null","resources/images/fishbone.png","null","",NA,NA,NA,NA,""
"image-keyboard-response",225,248639,"0.0-4.71-0.71","1d1pe5uwhmxgssn",626,"47.csv","","1352.699999988079","resources/trios/L1T4A3.jpg","37","restless",0.4,0.5,0.6,0.170672773090861,"true"
"image-keyboard-response",226,249046,"0.0-4.71-1.71","1d1pe5uwhmxgssn",626,"47.csv","","null","resources/maskTrios/L1BB.jpg","null","",NA,NA,NA,NA,""
"image-keyboard-response",227,250258,"0.0-4.71-2.71","1d1pe5uwhmxgssn",626,"47.csv","","null","resources/images/coin2.png","null","",NA,NA,NA,NA,""
"image-keyboard-response",228,250726,"0.0-4.72-0.72","1d1pe5uwhmxgssn",626,"47.csv","","467.90000000596046","resources/trios/L1T4A3.jpg","37","restless",0.4,0.5,0.6,0.757442687884019,"false"
"image-keyboard-response",229,251138,"0.0-4.72-1.72","1d1pe5uwhmxgssn",626,"47.csv","","null","resources/maskTrios/L1BB.jpg","null","",NA,NA,NA,NA,""
"image-keyboard-response",230,252353,"0.0-4.72-2.72","1d1pe5uwhmxgssn",626,"47.csv","","null","resources/images/fishbone.png","null","",NA,NA,NA,NA,""
"image-keyboard-response",231,252666,"0.0-4.73-0.73","1d1pe5uwhmxgssn",626,"47.csv","","313.09999999403954","resources/trios/L1T4A3.jpg","39","restless",0.4,0.6,0.6,0.453383704978274,"true"
"image-keyboard-response",232,253071,"0.0-4.73-1.73","1d1pe5uwhmxgssn",626,"47.csv","","null","resources/maskTrios/BBA3.jpg","null","",NA,NA,NA,NA,""
"image-keyboard-response",233,254286,"0.0-4.73-2.73","1d1pe5uwhmxgssn",626,"47.csv","","null","resources/images/coin2.png","null","",NA,NA,NA,NA,""
"image-keyboard-response",234,254548,"0.0-4.74-0.74","1d1pe5uwhmxgssn",626,"47.csv","","261.30000001192093","resources/trios/L1T4A3.jpg","39","restless",0.4,0.6,0.5,0.540592137066171,"false"
"image-keyboard-response",235,254956,"0.0-4.74-1.74","1d1pe5uwhmxgssn",626,"47.csv","","null","resources/maskTrios/BBA3.jpg","null","",NA,NA,NA,NA,""
"image-keyboard-response",236,256170,"0.0-4.74-2.74","1d1pe5uwhmxgssn",626,"47.csv","","null","resources/images/fishbone.png","null","",NA,NA,NA,NA,""
"image-keyboard-response",237,256563,"0.0-4.75-0.75","1d1pe5uwhmxgssn",626,"47.csv","","392.7999999821186","resources/trios/L1T4A3.jpg","39","restless",0.4,0.6,0.5,0.827365350508011,"false"
"image-keyboard-response",238,256970,"0.0-4.75-1.75","1d1pe5uwhmxgssn",626,"47.csv","","null","resources/maskTrios/BBA3.jpg","null","",NA,NA,NA,NA,""
"image-keyboard-response",239,258186,"0.0-4.75-2.75","1d1pe5uwhmxgssn",626,"47.csv","","null","resources/images/fishbone.png","null","",NA,NA,NA,NA,""
"image-keyboard-response",240,258554,"0.0-4.76-0.76","1d1pe5uwhmxgssn",626,"47.csv","","367.69999998807907","resources/trios/L1T4A3.jpg","39","restless",0.4,0.6,0.5,0.841968206577343,"false"
"image-keyboard-response",241,258970,"0.0-4.76-1.76","1d1pe5uwhmxgssn",626,"47.csv","","null","resources/maskTrios/BBA3.jpg","null","",NA,NA,NA,NA,""
"image-keyboard-response",242,260185,"0.0-4.76-2.76","1d1pe5uwhmxgssn",626,"47.csv","","null","resources/images/fishbone.png","null","",NA,NA,NA,NA,""
"image-keyboard-response",243,260551,"0.0-4.77-0.77","1d1pe5uwhmxgssn",626,"47.csv","","366","resources/trios/L1T4A3.jpg","38","restless",0.4,0.6,0.5,0.603354148495185,"false"
"image-keyboard-response",244,260965,"0.0-4.77-1.77","1d1pe5uwhmxgssn",626,"47.csv","","null","resources/maskTrios/BT4B.jpg","null","",NA,NA,NA,NA,""
"image-keyboard-response",245,262180,"0.0-4.77-2.77","1d1pe5uwhmxgssn",626,"47.csv","","null","resources/images/fishbone.png","null","",NA,NA,NA,NA,""
"image-keyboard-response",246,262475,"0.0-4.78-0.78","1d1pe5uwhmxgssn",626,"47.csv","","295.09999999403954","resources/trios/L1T4A3.jpg","37","restless",0.4,0.6,0.5,0.546855214973587,"false"
"image-keyboard-response",247,262881,"0.0-4.78-1.78","1d1pe5uwhmxgssn",626,"47.csv","","null","resources/maskTrios/L1BB.jpg","null","",NA,NA,NA,NA,""
"image-keyboard-response",248,264097,"0.0-4.78-2.78","1d1pe5uwhmxgssn",626,"47.csv","","null","resources/images/fishbone.png","null","",NA,NA,NA,NA,""
"image-keyboard-response",249,264380,"0.0-4.79-0.79","1d1pe5uwhmxgssn",626,"47.csv","","282.40000000596046","resources/trios/L1T4A3.jpg","39","restless",0.4,0.6,0.5,0.175545660990723,"true"
"image-keyboard-response",250,264786,"0.0-4.79-1.79","1d1pe5uwhmxgssn",626,"47.csv","","null","resources/maskTrios/BBA3.jpg","null","",NA,NA,NA,NA,""
"image-keyboard-response",251,266002,"0.0-4.79-2.79","1d1pe5uwhmxgssn",626,"47.csv","","null","resources/images/coin2.png","null","",NA,NA,NA,NA,""
"image-keyboard-response",252,266308,"0.0-4.80-0.80","1d1pe5uwhmxgssn",626,"47.csv","","305.59999999403954","resources/trios/L1T4A3.jpg","39","restless",0.4,0.6,0.5,0.672871076249141,"false"
"image-keyboard-response",253,266722,"0.0-4.80-1.80","1d1pe5uwhmxgssn",626,"47.csv","","null","resources/maskTrios/BBA3.jpg","null","",NA,NA,NA,NA,""
"image-keyboard-response",254,267938,"0.0-4.80-2.80","1d1pe5uwhmxgssn",626,"47.csv","","null","resources/images/fishbone.png","null","",NA,NA,NA,NA,""
"image-keyboard-response",255,268414,"0.0-4.81-0.81","1d1pe5uwhmxgssn",626,"47.csv","","476","resources/trios/L1T4A3.jpg","38","restless",0.4,0.6,0.5,0.700864358029235,"false"
"image-keyboard-response",256,268817,"0.0-4.81-1.81","1d1pe5uwhmxgssn",626,"47.csv","","null","resources/maskTrios/BT4B.jpg","null","",NA,NA,NA,NA,""
"image-keyboard-response",257,270030,"0.0-4.81-2.81","1d1pe5uwhmxgssn",626,"47.csv","","null","resources/images/fishbone.png","null","",NA,NA,NA,NA,""
"image-keyboard-response",258,270250,"0.0-4.82-0.82","1d1pe5uwhmxgssn",626,"47.csv","","220","resources/trios/L1T4A3.jpg","38","restless",0.4,0.6,0.5,0.473966804530841,"true"
"image-keyboard-response",259,270654,"0.0-4.82-1.82","1d1pe5uwhmxgssn",626,"47.csv","","null","resources/maskTrios/BT4B.jpg","null","",NA,NA,NA,NA,""
"image-keyboard-response",260,271868,"0.0-4.82-2.82","1d1pe5uwhmxgssn",626,"47.csv","","null","resources/images/coin2.png","null","",NA,NA,NA,NA,""
"image-keyboard-response",261,272155,"0.0-4.83-0.83","1d1pe5uwhmxgssn",626,"47.csv","","286.2000000178814","resources/trios/L1T4A3.jpg","38","restless",0.4,0.6,0.5,0.571645635285241,"true"
"image-keyboard-response",262,272556,"0.0-4.83-1.83","1d1pe5uwhmxgssn",626,"47.csv","","null","resources/maskTrios/BT4B.jpg","null","",NA,NA,NA,NA,""
"image-keyboard-response",263,273772,"0.0-4.83-2.83","1d1pe5uwhmxgssn",626,"47.csv","","null","resources/images/coin2.png","null","",NA,NA,NA,NA,""
"image-keyboard-response",264,274024,"0.0-4.84-0.84","1d1pe5uwhmxgssn",626,"47.csv","","251.5","resources/trios/L1T4A3.jpg","38","restless",0.4,0.6,0.5,0.841315853506615,"false"
"image-keyboard-response",265,274428,"0.0-4.84-1.84","1d1pe5uwhmxgssn",626,"47.csv","","null","resources/maskTrios/BT4B.jpg","null","",NA,NA,NA,NA,""
"image-keyboard-response",266,275644,"0.0-4.84-2.84","1d1pe5uwhmxgssn",626,"47.csv","","null","resources/images/fishbone.png","null","",NA,NA,NA,NA,""
"image-keyboard-response",267,275906,"0.0-4.85-0.85","1d1pe5uwhmxgssn",626,"47.csv","","261.90000000596046","resources/trios/L1T4A3.jpg","39","restless",0.4,0.6,0.5,0.341938147193039,"true"
"image-keyboard-response",268,276315,"0.0-4.85-1.85","1d1pe5uwhmxgssn",626,"47.csv","","null","resources/maskTrios/BBA3.jpg","null","",NA,NA,NA,NA,""
"image-keyboard-response",269,277530,"0.0-4.85-2.85","1d1pe5uwhmxgssn",626,"47.csv","","null","resources/images/coin2.png","null","",NA,NA,NA,NA,""
"image-keyboard-response",270,277802,"0.0-4.86-0.86","1d1pe5uwhmxgssn",626,"47.csv","","272.09999999403954","resources/trios/L1T4A3.jpg","39","restless",0.4,0.6,0.5,0.23272049812363,"true"
"image-keyboard-response",271,278217,"0.0-4.86-1.86","1d1pe5uwhmxgssn",626,"47.csv","","null","resources/maskTrios/BBA3.jpg","null","",NA,NA,NA,NA,""
"image-keyboard-response",272,279433,"0.0-4.86-2.86","1d1pe5uwhmxgssn",626,"47.csv","","null","resources/images/coin2.png","null","",NA,NA,NA,NA,""
"image-keyboard-response",273,279648,"0.0-4.87-0.87","1d1pe5uwhmxgssn",626,"47.csv","","214.59999999403954","resources/trios/L1T4A3.jpg","39","restless",0.4,0.6,0.5,0.307067400383897,"true"
"image-keyboard-response",274,280058,"0.0-4.87-1.87","1d1pe5uwhmxgssn",626,"47.csv","","null","resources/maskTrios/BBA3.jpg","null","",NA,NA,NA,NA,""
"image-keyboard-response",275,281272,"0.0-4.87-2.87","1d1pe5uwhmxgssn",626,"47.csv","","null","resources/images/coin2.png","null","",NA,NA,NA,NA,""
"image-keyboard-response",276,281535,"0.0-4.88-0.88","1d1pe5uwhmxgssn",626,"47.csv","","262.80000001192093","resources/trios/L1T4A3.jpg","39","restless",0.4,0.7,0.5,0.500121858563627,"false"
"image-keyboard-response",277,281942,"0.0-4.88-1.88","1d1pe5uwhmxgssn",626,"47.csv","","null","resources/maskTrios/BBA3.jpg","null","",NA,NA,NA,NA,""
"image-keyboard-response",278,283157,"0.0-4.88-2.88","1d1pe5uwhmxgssn",626,"47.csv","","null","resources/images/fishbone.png","null","",NA,NA,NA,NA,""
"image-keyboard-response",279,284749,"0.0-4.89-0.89","1d1pe5uwhmxgssn",626,"47.csv","","1592","resources/trios/L1T4A3.jpg","38","restless",0.4,0.7,0.5,0.305465874999171,"true"
"image-keyboard-response",280,285155,"0.0-4.89-1.89","1d1pe5uwhmxgssn",626,"47.csv","","null","resources/maskTrios/BT4B.jpg","null","",NA,NA,NA,NA,""
"image-keyboard-response",281,286372,"0.0-4.89-2.89","1d1pe5uwhmxgssn",626,"47.csv","","null","resources/images/coin2.png","null","",NA,NA,NA,NA,""
"image-keyboard-response",282,287196,"0.0-4.90-0.90","1d1pe5uwhmxgssn",626,"47.csv","","824.0999999940395","resources/trios/L1T4A3.jpg","38","restless",0.4,0.7,0.5,0.806796432871167,"false"
"image-keyboard-response",283,287604,"0.0-4.90-1.90","1d1pe5uwhmxgssn",626,"47.csv","","null","resources/maskTrios/BT4B.jpg","null","",NA,NA,NA,NA,""
"image-keyboard-response",284,288816,"0.0-4.90-2.90","1d1pe5uwhmxgssn",626,"47.csv","","null","resources/images/fishbone.png","null","",NA,NA,NA,NA,""
"image-keyboard-response",285,289051,"0.0-4.91-0.91","1d1pe5uwhmxgssn",626,"47.csv","","235","resources/trios/L1T4A3.jpg","39","restless",0.4,0.7,0.5,0.677952530066511,"false"
"image-keyboard-response",286,289455,"0.0-4.91-1.91","1d1pe5uwhmxgssn",626,"47.csv","","null","resources/maskTrios/BBA3.jpg","null","",NA,NA,NA,NA,""
"image-keyboard-response",287,290669,"0.0-4.91-2.91","1d1pe5uwhmxgssn",626,"47.csv","","null","resources/images/fishbone.png","null","",NA,NA,NA,NA,""
"image-keyboard-response",288,290933,"0.0-4.92-0.92","1d1pe5uwhmxgssn",626,"47.csv","","263.5","resources/trios/L1T4A3.jpg","37","restless",0.4,0.7,0.5,0.619941431081603,"false"
"image-keyboard-response",289,291342,"0.0-4.92-1.92","1d1pe5uwhmxgssn",626,"47.csv","","null","resources/maskTrios/L1BB.jpg","null","",NA,NA,NA,NA,""
"image-keyboard-response",290,292558,"0.0-4.92-2.92","1d1pe5uwhmxgssn",626,"47.csv","","null","resources/images/fishbone.png","null","",NA,NA,NA,NA,""
"image-keyboard-response",291,292870,"0.0-4.93-0.93","1d1pe5uwhmxgssn",626,"47.csv","","311.59999999403954","resources/trios/L1T4A3.jpg","37","restless",0.4,0.7,0.5,0.802052966452694,"false"
"image-keyboard-response",292,293278,"0.0-4.93-1.93","1d1pe5uwhmxgssn",626,"47.csv","","null","resources/maskTrios/L1BB.jpg","null","",NA,NA,NA,NA,""
"image-keyboard-response",293,294494,"0.0-4.93-2.93","1d1pe5uwhmxgssn",626,"47.csv","","null","resources/images/fishbone.png","null","",NA,NA,NA,NA,""
"image-keyboard-response",294,294771,"0.0-4.94-0.94","1d1pe5uwhmxgssn",626,"47.csv","","276.80000001192093","resources/trios/L1T4A3.jpg","37","restless",0.4,0.7,0.5,0.242437922463543,"true"
"image-keyboard-response",295,295182,"0.0-4.94-1.94","1d1pe5uwhmxgssn",626,"47.csv","","null","resources/maskTrios/L1BB.jpg","null","",NA,NA,NA,NA,""
"image-keyboard-response",296,296398,"0.0-4.94-2.94","1d1pe5uwhmxgssn",626,"47.csv","","null","resources/images/coin2.png","null","",NA,NA,NA,NA,""
"image-keyboard-response",297,296717,"0.0-4.95-0.95","1d1pe5uwhmxgssn",626,"47.csv","","318.90000000596046","resources/trios/L1T4A3.jpg","37","restless",0.4,0.7,0.5,0.598780070497905,"false"
"image-keyboard-response",298,297133,"0.0-4.95-1.95","1d1pe5uwhmxgssn",626,"47.csv","","null","resources/maskTrios/L1BB.jpg","null","",NA,NA,NA,NA,""
"image-keyboard-response",299,298347,"0.0-4.95-2.95","1d1pe5uwhmxgssn",626,"47.csv","","null","resources/images/fishbone.png","null","",NA,NA,NA,NA,""
"image-keyboard-response",300,298705,"0.0-4.96-0.96","1d1pe5uwhmxgssn",626,"47.csv","","357.2000000178814","resources/trios/L1T4A3.jpg","39","restless",0.4,0.7,0.5,0.324114197019821,"true"
"image-keyboard-response",301,299116,"0.0-4.96-1.96","1d1pe5uwhmxgssn",626,"47.csv","","null","resources/maskTrios/BBA3.jpg","null","",NA,NA,NA,NA,""
"image-keyboard-response",302,300330,"0.0-4.96-2.96","1d1pe5uwhmxgssn",626,"47.csv","","null","resources/images/coin2.png","null","",NA,NA,NA,NA,""
"image-keyboard-response",303,300547,"0.0-4.97-0.97","1d1pe5uwhmxgssn",626,"47.csv","","216.40000000596046","resources/trios/L1T4A3.jpg","39","restless",0.5,0.8,0.5,0.111183675530903,"true"
"image-keyboard-response",304,300954,"0.0-4.97-1.97","1d1pe5uwhmxgssn",626,"47.csv","","null","resources/maskTrios/BBA3.jpg","null","",NA,NA,NA,NA,""
"image-keyboard-response",305,302170,"0.0-4.97-2.97","1d1pe5uwhmxgssn",626,"47.csv","","null","resources/images/coin2.png","null","",NA,NA,NA,NA,""
"image-keyboard-response",306,302429,"0.0-4.98-0.98","1d1pe5uwhmxgssn",626,"47.csv","","258.80000001192093","resources/trios/L1T4A3.jpg","39","restless",0.5,0.9,0.5,0.736625597380943,"false"
"image-keyboard-response",307,302842,"0.0-4.98-1.98","1d1pe5uwhmxgssn",626,"47.csv","","null","resources/maskTrios/BBA3.jpg","null","",NA,NA,NA,NA,""
"image-keyboard-response",308,304058,"0.0-4.98-2.98","1d1pe5uwhmxgssn",626,"47.csv","","null","resources/images/fishbone.png","null","",NA,NA,NA,NA,""
"image-keyboard-response",309,304504,"0.0-4.99-0.99","1d1pe5uwhmxgssn",626,"47.csv","","446","resources/trios/L1T4A3.jpg","38","restless",0.5,0.9,0.5,0.280703719486025,"true"
"image-keyboard-response",310,304917,"0.0-4.99-1.99","1d1pe5uwhmxgssn",626,"47.csv","","null","resources/maskTrios/BT4B.jpg","null","",NA,NA,NA,NA,""
"image-keyboard-response",311,306134,"0.0-4.99-2.99","1d1pe5uwhmxgssn",626,"47.csv","","null","resources/images/coin2.png","null","",NA,NA,NA,NA,""
"image-keyboard-response",312,306418,"0.0-4.100-0.100","1d1pe5uwhmxgssn",626,"47.csv","","284.2000000178814","resources/trios/L1T4A3.jpg","39","restless",0.5,0.9,0.5,0.715096028659723,"false"
"image-keyboard-response",313,306822,"0.0-4.100-1.100","1d1pe5uwhmxgssn",626,"47.csv","","null","resources/maskTrios/BBA3.jpg","null","",NA,NA,NA,NA,""
"image-keyboard-response",314,308037,"0.0-4.100-2.100","1d1pe5uwhmxgssn",626,"47.csv","","null","resources/images/fishbone.png","null","",NA,NA,NA,NA,""
"image-keyboard-response",315,308310,"0.0-4.101-0.101","1d1pe5uwhmxgssn",626,"47.csv","","272.40000000596046","resources/trios/L1T4A3.jpg","38","restless",0.5,0.8,0.5,0.127385419082358,"true"
"image-keyboard-response",316,308726,"0.0-4.101-1.101","1d1pe5uwhmxgssn",626,"47.csv","","null","resources/maskTrios/BT4B.jpg","null","",NA,NA,NA,NA,""
"image-keyboard-response",317,309940,"0.0-4.101-2.101","1d1pe5uwhmxgssn",626,"47.csv","","null","resources/images/coin2.png","null","",NA,NA,NA,NA,""
"image-keyboard-response",318,310362,"0.0-4.102-0.102","1d1pe5uwhmxgssn",626,"47.csv","","421.69999998807907","resources/trios/L1T4A3.jpg","38","restless",0.5,0.8,0.5,0.995788139976939,"false"
"image-keyboard-response",319,310772,"0.0-4.102-1.102","1d1pe5uwhmxgssn",626,"47.csv","","null","resources/maskTrios/BT4B.jpg","null","",NA,NA,NA,NA,""
"image-keyboard-response",320,311986,"0.0-4.102-2.102","1d1pe5uwhmxgssn",626,"47.csv","","null","resources/images/fishbone.png","null","",NA,NA,NA,NA,""
"image-keyboard-response",321,312550,"0.0-4.103-0.103","1d1pe5uwhmxgssn",626,"47.csv","","563.9000000059605","resources/trios/L1T4A3.jpg","39","restless",0.5,0.8,0.5,0.0877004941912392,"true"
"image-keyboard-response",322,312962,"0.0-4.103-1.103","1d1pe5uwhmxgssn",626,"47.csv","","null","resources/maskTrios/BBA3.jpg","null","",NA,NA,NA,NA,""
"image-keyboard-response",323,314178,"0.0-4.103-2.103","1d1pe5uwhmxgssn",626,"47.csv","","null","resources/images/coin2.png","null","",NA,NA,NA,NA,""
"image-keyboard-response",324,314443,"0.0-4.104-0.104","1d1pe5uwhmxgssn",626,"47.csv","","264.80000001192093","resources/trios/L1T4A3.jpg","38","restless",0.5,0.8,0.5,0.358746382803899,"true"
"image-keyboard-response",325,314849,"0.0-4.104-1.104","1d1pe5uwhmxgssn",626,"47.csv","","null","resources/maskTrios/BT4B.jpg","null","",NA,NA,NA,NA,""
"image-keyboard-response",326,316066,"0.0-4.104-2.104","1d1pe5uwhmxgssn",626,"47.csv","","null","resources/images/coin2.png","null","",NA,NA,NA,NA,""
"image-keyboard-response",327,316368,"0.0-4.105-0.105","1d1pe5uwhmxgssn",626,"47.csv","","302.19999998807907","resources/trios/L1T4A3.jpg","37","restless",0.5,0.8,0.5,0.517506162726211,"false"
"image-keyboard-response",328,316784,"0.0-4.105-1.105","1d1pe5uwhmxgssn",626,"47.csv","","null","resources/maskTrios/L1BB.jpg","null","",NA,NA,NA,NA,""
"image-keyboard-response",329,317997,"0.0-4.105-2.105","1d1pe5uwhmxgssn",626,"47.csv","","null","resources/images/fishbone.png","null","",NA,NA,NA,NA,""
"image-keyboard-response",330,318953,"0.0-4.106-0.106","1d1pe5uwhmxgssn",626,"47.csv","","955.4000000059605","resources/trios/L1T4A3.jpg","39","restless",0.5,0.8,0.5,0.951448630443794,"false"
"image-keyboard-response",331,319358,"0.0-4.106-1.106","1d1pe5uwhmxgssn",626,"47.csv","","null","resources/maskTrios/BBA3.jpg","null","",NA,NA,NA,NA,""
"image-keyboard-response",332,320574,"0.0-4.106-2.106","1d1pe5uwhmxgssn",626,"47.csv","","null","resources/images/fishbone.png","null","",NA,NA,NA,NA,""
"image-keyboard-response",333,320987,"0.0-4.107-0.107","1d1pe5uwhmxgssn",626,"47.csv","","413","resources/trios/L1T4A3.jpg","39","restless",0.5,0.8,0.5,0.411459394800058,"true"
"image-keyboard-response",334,321388,"0.0-4.107-1.107","1d1pe5uwhmxgssn",626,"47.csv","","null","resources/maskTrios/BBA3.jpg","null","",NA,NA,NA,NA,""
"image-keyboard-response",335,322603,"0.0-4.107-2.107","1d1pe5uwhmxgssn",626,"47.csv","","null","resources/images/coin2.png","null","",NA,NA,NA,NA,""
"image-keyboard-response",336,323098,"0.0-4.108-0.108","1d1pe5uwhmxgssn",626,"47.csv","","494.40000000596046","resources/trios/L1T4A3.jpg","38","restless",0.5,0.7,0.5,0.797444386717251,"false"
"image-keyboard-response",337,323514,"0.0-4.108-1.108","1d1pe5uwhmxgssn",626,"47.csv","","null","resources/maskTrios/BT4B.jpg","null","",NA,NA,NA,NA,""
"image-keyboard-response",338,324729,"0.0-4.108-2.108","1d1pe5uwhmxgssn",626,"47.csv","","null","resources/images/fishbone.png","null","",NA,NA,NA,NA,""
"image-keyboard-response",339,325058,"0.0-4.109-0.109","1d1pe5uwhmxgssn",626,"47.csv","","328.30000001192093","resources/trios/L1T4A3.jpg","38","restless",0.5,0.7,0.5,0.0737055506363362,"true"
"image-keyboard-response",340,325465,"0.0-4.109-1.109","1d1pe5uwhmxgssn",626,"47.csv","","null","resources/maskTrios/BT4B.jpg","null","",NA,NA,NA,NA,""
"image-keyboard-response",341,326678,"0.0-4.109-2.109","1d1pe5uwhmxgssn",626,"47.csv","","null","resources/images/coin2.png","null","",NA,NA,NA,NA,""
"image-keyboard-response",342,327433,"0.0-4.110-0.110","1d1pe5uwhmxgssn",626,"47.csv","","754.5999999940395","resources/trios/L1T4A3.jpg","37","restless",0.5,0.7,0.5,0.870860854250575,"false"
"image-keyboard-response",343,327843,"0.0-4.110-1.110","1d1pe5uwhmxgssn",626,"47.csv","","null","resources/maskTrios/L1BB.jpg","null","",NA,NA,NA,NA,""
"image-keyboard-response",344,329059,"0.0-4.110-2.110","1d1pe5uwhmxgssn",626,"47.csv","","null","resources/images/fishbone.png","null","",NA,NA,NA,NA,""
"image-keyboard-response",345,330948,"0.0-4.111-0.111","1d1pe5uwhmxgssn",626,"47.csv","","1888.300000011921","resources/trios/L1T4A3.jpg","39","restless",0.5,0.7,0.5,0.172071235507941,"true"
"image-keyboard-response",346,331363,"0.0-4.111-1.111","1d1pe5uwhmxgssn",626,"47.csv","","null","resources/maskTrios/BBA3.jpg","null","",NA,NA,NA,NA,""
"image-keyboard-response",347,332578,"0.0-4.111-2.111","1d1pe5uwhmxgssn",626,"47.csv","","null","resources/images/coin2.png","null","",NA,NA,NA,NA,""
"image-keyboard-response",348,334036,"0.0-4.112-0.112","1d1pe5uwhmxgssn",626,"47.csv","","1458","resources/trios/L1T4A3.jpg","39","restless",0.5,0.7,0.5,0.246231175556969,"true"
"image-keyboard-response",349,334449,"0.0-4.112-1.112","1d1pe5uwhmxgssn",626,"47.csv","","null","resources/maskTrios/BBA3.jpg","null","",NA,NA,NA,NA,""
"image-keyboard-response",350,335665,"0.0-4.112-2.112","1d1pe5uwhmxgssn",626,"47.csv","","null","resources/images/coin2.png","null","",NA,NA,NA,NA,""
"image-keyboard-response",351,336100,"0.0-4.113-0.113","1d1pe5uwhmxgssn",626,"47.csv","","434.2000000178814","resources/trios/L1T4A3.jpg","38","restless",0.6,0.6,0.5,0.951314987041467,"false"
"image-keyboard-response",352,336513,"0.0-4.113-1.113","1d1pe5uwhmxgssn",626,"47.csv","","null","resources/maskTrios/BT4B.jpg","null","",NA,NA,NA,NA,""
"image-keyboard-response",353,337726,"0.0-4.113-2.113","1d1pe5uwhmxgssn",626,"47.csv","","null","resources/images/fishbone.png","null","",NA,NA,NA,NA,""
"image-keyboard-response",354,338102,"0.0-4.114-0.114","1d1pe5uwhmxgssn",626,"47.csv","","375.40000000596046","resources/trios/L1T4A3.jpg","39","restless",0.6,0.6,0.5,0.62525202431196,"false"
"image-keyboard-response",355,338508,"0.0-4.114-1.114","1d1pe5uwhmxgssn",626,"47.csv","","null","resources/maskTrios/BBA3.jpg","null","",NA,NA,NA,NA,""
"image-keyboard-response",356,339724,"0.0-4.114-2.114","1d1pe5uwhmxgssn",626,"47.csv","","null","resources/images/fishbone.png","null","",NA,NA,NA,NA,""
"image-keyboard-response",357,340171,"0.0-4.115-0.115","1d1pe5uwhmxgssn",626,"47.csv","","446.59999999403954","resources/trios/L1T4A3.jpg","38","restless",0.6,0.6,0.4,0.119537794003301,"true"
"image-keyboard-response",358,340572,"0.0-4.115-1.115","1d1pe5uwhmxgssn",626,"47.csv","","null","resources/maskTrios/BT4B.jpg","null","",NA,NA,NA,NA,""
"image-keyboard-response",359,341787,"0.0-4.115-2.115","1d1pe5uwhmxgssn",626,"47.csv","","null","resources/images/coin2.png","null","",NA,NA,NA,NA,""
"image-keyboard-response",360,343477,"0.0-4.116-0.116","1d1pe5uwhmxgssn",626,"47.csv","","1689.7000000178814","resources/trios/L1T4A3.jpg","37","restless",0.6,0.6,0.4,0.557971464317923,"true"
"image-keyboard-response",361,343882,"0.0-4.116-1.116","1d1pe5uwhmxgssn",626,"47.csv","","null","resources/maskTrios/L1BB.jpg","null","",NA,NA,NA,NA,""
"image-keyboard-response",362,345098,"0.0-4.116-2.116","1d1pe5uwhmxgssn",626,"47.csv","","null","resources/images/coin2.png","null","",NA,NA,NA,NA,""
"image-keyboard-response",363,347923,"0.0-4.117-0.117","1d1pe5uwhmxgssn",626,"47.csv","","2824.800000011921","resources/trios/L1T4A3.jpg","37","restless",0.6,0.6,0.4,0.805516403265512,"false"
"image-keyboard-response",364,348324,"0.0-4.117-1.117","1d1pe5uwhmxgssn",626,"47.csv","","null","resources/maskTrios/L1BB.jpg","null","",NA,NA,NA,NA,""
"image-keyboard-response",365,349536,"0.0-4.117-2.117","1d1pe5uwhmxgssn",626,"47.csv","","null","resources/images/fishbone.png","null","",NA,NA,NA,NA,""
"image-keyboard-response",366,350252,"0.0-4.118-0.118","1d1pe5uwhmxgssn",626,"47.csv","","715.8000000119209","resources/trios/L1T4A3.jpg","38","restless",0.6,0.6,0.4,0.171553726141041,"true"
"image-keyboard-response",367,350653,"0.0-4.118-1.118","1d1pe5uwhmxgssn",626,"47.csv","","null","resources/maskTrios/BT4B.jpg","null","",NA,NA,NA,NA,""
"image-keyboard-response",368,351860,"0.0-4.118-2.118","1d1pe5uwhmxgssn",626,"47.csv","","null","resources/images/coin2.png","null","",NA,NA,NA,NA,""
"image-keyboard-response",369,352934,"0.0-4.119-0.119","1d1pe5uwhmxgssn",626,"47.csv","","1073.5","resources/trios/L1T4A3.jpg","39","restless",0.6,0.6,0.4,0.781310148001219,"false"
"image-keyboard-response",370,353341,"0.0-4.119-1.119","1d1pe5uwhmxgssn",626,"47.csv","","null","resources/maskTrios/BBA3.jpg","null","",NA,NA,NA,NA,""
"image-keyboard-response",371,354556,"0.0-4.119-2.119","1d1pe5uwhmxgssn",626,"47.csv","","null","resources/images/fishbone.png","null","",NA,NA,NA,NA,""
"image-keyboard-response",372,355493,"0.0-4.120-0.120","1d1pe5uwhmxgssn",626,"47.csv","","937.0999999940395","resources/trios/L1T4A3.jpg","39","restless",0.6,0.6,0.4,0.120009376861784,"true"
"image-keyboard-response",373,355898,"0.0-4.120-1.120","1d1pe5uwhmxgssn",626,"47.csv","","null","resources/maskTrios/BBA3.jpg","null","",NA,NA,NA,NA,""
"image-keyboard-response",374,357114,"0.0-4.120-2.120","1d1pe5uwhmxgssn",626,"47.csv","","null","resources/images/coin2.png","null","",NA,NA,NA,NA,""
"image-keyboard-response",375,357823,"0.0-4.121-0.121","1d1pe5uwhmxgssn",626,"47.csv","","708.9000000059605","resources/trios/L1T4A3.jpg","38","restless",0.6,0.5,0.4,0.456798318049181,"true"
"image-keyboard-response",376,358238,"0.0-4.121-1.121","1d1pe5uwhmxgssn",626,"47.csv","","null","resources/maskTrios/BT4B.jpg","null","",NA,NA,NA,NA,""
"image-keyboard-response",377,359449,"0.0-4.121-2.121","1d1pe5uwhmxgssn",626,"47.csv","","null","resources/images/coin2.png","null","",NA,NA,NA,NA,""
"image-keyboard-response",378,360222,"0.0-4.122-0.122","1d1pe5uwhmxgssn",626,"47.csv","","772.8000000119209","resources/trios/L1T4A3.jpg","37","restless",0.6,0.5,0.4,0.649827113009317,"false"
"image-keyboard-response",379,360627,"0.0-4.122-1.122","1d1pe5uwhmxgssn",626,"47.csv","","null","resources/maskTrios/L1BB.jpg","null","",NA,NA,NA,NA,""
"image-keyboard-response",380,361839,"0.0-4.122-2.122","1d1pe5uwhmxgssn",626,"47.csv","","null","resources/images/fishbone.png","null","",NA,NA,NA,NA,""
"image-keyboard-response",381,362352,"0.0-4.123-0.123","1d1pe5uwhmxgssn",626,"47.csv","","512.5","resources/trios/L1T4A3.jpg","39","restless",0.6,0.6,0.4,0.255723499984249,"true"
"image-keyboard-response",382,362761,"0.0-4.123-1.123","1d1pe5uwhmxgssn",626,"47.csv","","null","resources/maskTrios/BBA3.jpg","null","",NA,NA,NA,NA,""
"image-keyboard-response",383,363970,"0.0-4.123-2.123","1d1pe5uwhmxgssn",626,"47.csv","","null","resources/images/coin2.png","null","",NA,NA,NA,NA,""
"image-keyboard-response",384,364413,"0.0-4.124-0.124","1d1pe5uwhmxgssn",626,"47.csv","","442.40000000596046","resources/trios/L1T4A3.jpg","38","restless",0.6,0.6,0.4,0.651431459856896,"false"
"image-keyboard-response",385,364814,"0.0-4.124-1.124","1d1pe5uwhmxgssn",626,"47.csv","","null","resources/maskTrios/BT4B.jpg","null","",NA,NA,NA,NA,""
"image-keyboard-response",386,366026,"0.0-4.124-2.124","1d1pe5uwhmxgssn",626,"47.csv","","null","resources/images/fishbone.png","null","",NA,NA,NA,NA,""
"image-keyboard-response",387,366424,"0.0-4.125-0.125","1d1pe5uwhmxgssn",626,"47.csv","","397.5","resources/trios/L1T4A3.jpg","37","restless",0.6,0.6,0.4,0.719781052507092,"false"
"image-keyboard-response",388,366836,"0.0-4.125-1.125","1d1pe5uwhmxgssn",626,"47.csv","","null","resources/maskTrios/L1BB.jpg","null","",NA,NA,NA,NA,""
"image-keyboard-response",389,368044,"0.0-4.125-2.125","1d1pe5uwhmxgssn",626,"47.csv","","null","resources/images/fishbone.png","null","",NA,NA,NA,NA,""
"image-keyboard-response",390,368367,"0.0-4.126-0.126","1d1pe5uwhmxgssn",626,"47.csv","","322.80000001192093","resources/trios/L1T4A3.jpg","39","restless",0.6,0.5,0.4,0.0219815919051198,"true"
"image-keyboard-response",391,368777,"0.0-4.126-1.126","1d1pe5uwhmxgssn",626,"47.csv","","null","resources/maskTrios/BBA3.jpg","null","",NA,NA,NA,NA,""
"image-keyboard-response",392,369988,"0.0-4.126-2.126","1d1pe5uwhmxgssn",626,"47.csv","","null","resources/images/coin2.png","null","",NA,NA,NA,NA,""
"image-keyboard-response",393,370337,"0.0-4.127-0.127","1d1pe5uwhmxgssn",626,"47.csv","","349.39999997615814","resources/trios/L1T4A3.jpg","39","restless",0.6,0.5,0.4,0.407003895710694,"false"
"image-keyboard-response",394,370749,"0.0-4.127-1.127","1d1pe5uwhmxgssn",626,"47.csv","","null","resources/maskTrios/BBA3.jpg","null","",NA,NA,NA,NA,""
"image-keyboard-response",395,371953,"0.0-4.127-2.127","1d1pe5uwhmxgssn",626,"47.csv","","null","resources/images/fishbone.png","null","",NA,NA,NA,NA,""
"image-keyboard-response",396,372384,"0.0-4.128-0.128","1d1pe5uwhmxgssn",626,"47.csv","","430.30000001192093","resources/trios/L1T4A3.jpg","39","restless",0.6,0.5,0.4,0.00161803541796757,"true"
"image-keyboard-response",397,372798,"0.0-4.128-1.128","1d1pe5uwhmxgssn",626,"47.csv","","null","resources/maskTrios/BBA3.jpg","null","",NA,NA,NA,NA,""
"image-keyboard-response",398,374014,"0.0-4.128-2.128","1d1pe5uwhmxgssn",626,"47.csv","","null","resources/images/coin2.png","null","",NA,NA,NA,NA,""
"image-keyboard-response",399,374436,"0.0-4.129-0.129","1d1pe5uwhmxgssn",626,"47.csv","","421.30000001192093","resources/trios/L1T4A3.jpg","39","restless",0.6,0.5,0.4,0.76083826304853,"false"
"image-keyboard-response",400,374844,"0.0-4.129-1.129","1d1pe5uwhmxgssn",626,"47.csv","","null","resources/maskTrios/BBA3.jpg","null","",NA,NA,NA,NA,""
"image-keyboard-response",401,376058,"0.0-4.129-2.129","1d1pe5uwhmxgssn",626,"47.csv","","null","resources/images/fishbone.png","null","",NA,NA,NA,NA,""
"image-keyboard-response",402,376287,"0.0-4.130-0.130","1d1pe5uwhmxgssn",626,"47.csv","","228.5","resources/trios/L1T4A3.jpg","39","restless",0.6,0.5,0.4,0.0664240796535669,"true"
"image-keyboard-response",403,376698,"0.0-4.130-1.130","1d1pe5uwhmxgssn",626,"47.csv","","null","resources/maskTrios/BBA3.jpg","null","",NA,NA,NA,NA,""
"image-keyboard-response",404,377914,"0.0-4.130-2.130","1d1pe5uwhmxgssn",626,"47.csv","","null","resources/images/coin2.png","null","",NA,NA,NA,NA,""
"image-keyboard-response",405,379078,"0.0-4.131-0.131","1d1pe5uwhmxgssn",626,"47.csv","","1164","resources/trios/L1T4A3.jpg","39","restless",0.6,0.5,0.4,0.0454144183227358,"true"
"image-keyboard-response",406,379482,"0.0-4.131-1.131","1d1pe5uwhmxgssn",626,"47.csv","","null","resources/maskTrios/BBA3.jpg","null","",NA,NA,NA,NA,""
"image-keyboard-response",407,380696,"0.0-4.131-2.131","1d1pe5uwhmxgssn",626,"47.csv","","null","resources/images/coin2.png","null","",NA,NA,NA,NA,""
"image-keyboard-response",408,380975,"0.0-4.132-0.132","1d1pe5uwhmxgssn",626,"47.csv","","278.40000000596046","resources/trios/L1T4A3.jpg","38","restless",0.6,0.5,0.4,0.0374475062903148,"true"
"image-keyboard-response",409,381384,"0.0-4.132-1.132","1d1pe5uwhmxgssn",626,"47.csv","","null","resources/maskTrios/BT4B.jpg","null","",NA,NA,NA,NA,""
"image-keyboard-response",410,382600,"0.0-4.132-2.132","1d1pe5uwhmxgssn",626,"47.csv","","null","resources/images/coin2.png","null","",NA,NA,NA,NA,""
"image-keyboard-response",411,382873,"0.0-4.133-0.133","1d1pe5uwhmxgssn",626,"47.csv","","272.40000000596046","resources/trios/L1T4A3.jpg","39","restless",0.6,0.5,0.4,0.0367595196854686,"true"
"image-keyboard-response",412,383288,"0.0-4.133-1.133","1d1pe5uwhmxgssn",626,"47.csv","","null","resources/maskTrios/BBA3.jpg","null","",NA,NA,NA,NA,""
"image-keyboard-response",413,384502,"0.0-4.133-2.133","1d1pe5uwhmxgssn",626,"47.csv","","null","resources/images/coin2.png","null","",NA,NA,NA,NA,""
"image-keyboard-response",414,384770,"0.0-4.134-0.134","1d1pe5uwhmxgssn",626,"47.csv","","267.90000000596046","resources/trios/L1T4A3.jpg","38","restless",0.6,0.5,0.4,0.650076580495886,"false"
"image-keyboard-response",415,385174,"0.0-4.134-1.134","1d1pe5uwhmxgssn",626,"47.csv","","null","resources/maskTrios/BT4B.jpg","null","",NA,NA,NA,NA,""
"image-keyboard-response",416,386386,"0.0-4.134-2.134","1d1pe5uwhmxgssn",626,"47.csv","","null","resources/images/fishbone.png","null","",NA,NA,NA,NA,""
"image-keyboard-response",417,387027,"0.0-4.135-0.135","1d1pe5uwhmxgssn",626,"47.csv","","640.3999999761581","resources/trios/L1T4A3.jpg","39","restless",0.6,0.5,0.4,0.16279916449348,"true"
"image-keyboard-response",418,387441,"0.0-4.135-1.135","1d1pe5uwhmxgssn",626,"47.csv","","null","resources/maskTrios/BBA3.jpg","null","",NA,NA,NA,NA,""
"image-keyboard-response",419,388658,"0.0-4.135-2.135","1d1pe5uwhmxgssn",626,"47.csv","","null","resources/images/coin2.png","null","",NA,NA,NA,NA,""
"image-keyboard-response",420,389138,"0.0-4.136-0.136","1d1pe5uwhmxgssn",626,"47.csv","","480","resources/trios/L1T4A3.jpg","38","restless",0.6,0.5,0.3,0.632813933902617,"false"
"image-keyboard-response",421,389554,"0.0-4.136-1.136","1d1pe5uwhmxgssn",626,"47.csv","","null","resources/maskTrios/BT4B.jpg","null","",NA,NA,NA,NA,""
"image-keyboard-response",422,390768,"0.0-4.136-2.136","1d1pe5uwhmxgssn",626,"47.csv","","null","resources/images/fishbone.png","null","",NA,NA,NA,NA,""
"image-keyboard-response",423,391108,"0.0-4.137-0.137","1d1pe5uwhmxgssn",626,"47.csv","","339.30000001192093","resources/trios/L1T4A3.jpg","39","restless",0.6,0.5,0.3,0.0669487010041916,"true"
"image-keyboard-response",424,391518,"0.0-4.137-1.137","1d1pe5uwhmxgssn",626,"47.csv","","null","resources/maskTrios/BBA3.jpg","null","",NA,NA,NA,NA,""
"image-keyboard-response",425,392732,"0.0-4.137-2.137","1d1pe5uwhmxgssn",626,"47.csv","","null","resources/images/coin2.png","null","",NA,NA,NA,NA,""
"image-keyboard-response",426,393074,"0.0-4.138-0.138","1d1pe5uwhmxgssn",626,"47.csv","","341.30000001192093","resources/trios/L1T4A3.jpg","37","restless",0.6,0.4,0.3,0.355903368960788,"true"
"image-keyboard-response",427,393484,"0.0-4.138-1.138","1d1pe5uwhmxgssn",626,"47.csv","","null","resources/maskTrios/L1BB.jpg","null","",NA,NA,NA,NA,""
"image-keyboard-response",428,394700,"0.0-4.138-2.138","1d1pe5uwhmxgssn",626,"47.csv","","null","resources/images/coin2.png","null","",NA,NA,NA,NA,""
"image-keyboard-response",429,394984,"0.0-4.139-0.139","1d1pe5uwhmxgssn",626,"47.csv","","283.5","resources/trios/L1T4A3.jpg","39","restless",0.6,0.4,0.3,0.0955824468195232,"true"
"image-keyboard-response",430,395388,"0.0-4.139-1.139","1d1pe5uwhmxgssn",626,"47.csv","","null","resources/maskTrios/BBA3.jpg","null","",NA,NA,NA,NA,""
"image-keyboard-response",431,396603,"0.0-4.139-2.139","1d1pe5uwhmxgssn",626,"47.csv","","null","resources/images/coin2.png","null","",NA,NA,NA,NA,""
"image-keyboard-response",432,396868,"0.0-4.140-0.140","1d1pe5uwhmxgssn",626,"47.csv","","264.80000001192093","resources/trios/L1T4A3.jpg","37","restless",0.6,0.4,0.3,0.629261506767729,"false"
"image-keyboard-response",433,397273,"0.0-4.140-1.140","1d1pe5uwhmxgssn",626,"47.csv","","null","resources/maskTrios/L1BB.jpg","null","",NA,NA,NA,NA,""
"image-keyboard-response",434,398489,"0.0-4.140-2.140","1d1pe5uwhmxgssn",626,"47.csv","","null","resources/images/fishbone.png","null","",NA,NA,NA,NA,""
"image-keyboard-response",435,399280,"0.0-4.141-0.141","1d1pe5uwhmxgssn",626,"47.csv","","790.2000000178814","resources/trios/L1T4A3.jpg","39","restless",0.6,0.4,0.3,0.075309675511765,"true"
"image-keyboard-response",436,399690,"0.0-4.141-1.141","1d1pe5uwhmxgssn",626,"47.csv","","null","resources/maskTrios/BBA3.jpg","null","",NA,NA,NA,NA,""
"image-keyboard-response",437,400906,"0.0-4.141-2.141","1d1pe5uwhmxgssn",626,"47.csv","","null","resources/images/coin2.png","null","",NA,NA,NA,NA,""
"image-keyboard-response",438,401182,"0.0-4.142-0.142","1d1pe5uwhmxgssn",626,"47.csv","","276","resources/trios/L1T4A3.jpg","38","restless",0.6,0.4,0.3,0.91517455836636,"false"
"image-keyboard-response",439,401594,"0.0-4.142-1.142","1d1pe5uwhmxgssn",626,"47.csv","","null","resources/maskTrios/BT4B.jpg","null","",NA,NA,NA,NA,""
"image-keyboard-response",440,402806,"0.0-4.142-2.142","1d1pe5uwhmxgssn",626,"47.csv","","null","resources/images/fishbone.png","null","",NA,NA,NA,NA,""
"image-keyboard-response",441,403097,"0.0-4.143-0.143","1d1pe5uwhmxgssn",626,"47.csv","","290.30000001192093","resources/trios/L1T4A3.jpg","39","restless",0.6,0.4,0.3,0.311961888417482,"false"
"image-keyboard-response",442,403510,"0.0-4.143-1.143","1d1pe5uwhmxgssn",626,"47.csv","","null","resources/maskTrios/BBA3.jpg","null","",NA,NA,NA,NA,""
"image-keyboard-response",443,404725,"0.0-4.143-2.143","1d1pe5uwhmxgssn",626,"47.csv","","null","resources/images/fishbone.png","null","",NA,NA,NA,NA,""
"image-keyboard-response",444,405460,"0.0-4.144-0.144","1d1pe5uwhmxgssn",626,"47.csv","","734.4000000059605","resources/trios/L1T4A3.jpg","39","restless",0.6,0.4,0.3,0.916001485460827,"false"
"image-keyboard-response",445,405875,"0.0-4.144-1.144","1d1pe5uwhmxgssn",626,"47.csv","","null","resources/maskTrios/BBA3.jpg","null","",NA,NA,NA,NA,""
"image-keyboard-response",446,407091,"0.0-4.144-2.144","1d1pe5uwhmxgssn",626,"47.csv","","null","resources/images/fishbone.png","null","",NA,NA,NA,NA,""
"image-keyboard-response",447,407457,"0.0-4.145-0.145","1d1pe5uwhmxgssn",626,"47.csv","","365.30000001192093","resources/trios/L1T4A3.jpg","37","restless",0.6,0.4,0.3,0.655868528003043,"false"
"image-keyboard-response",448,407860,"0.0-4.145-1.145","1d1pe5uwhmxgssn",626,"47.csv","","null","resources/maskTrios/L1BB.jpg","null","",NA,NA,NA,NA,""
"image-keyboard-response",449,409073,"0.0-4.145-2.145","1d1pe5uwhmxgssn",626,"47.csv","","null","resources/images/fishbone.png","null","",NA,NA,NA,NA,""
"image-keyboard-response",450,409491,"0.0-4.146-0.146","1d1pe5uwhmxgssn",626,"47.csv","","417.5","resources/trios/L1T4A3.jpg","39","restless",0.6,0.4,0.4,0.376376665810682,"true"
"image-keyboard-response",451,409902,"0.0-4.146-1.146","1d1pe5uwhmxgssn",626,"47.csv","","null","resources/maskTrios/BBA3.jpg","null","",NA,NA,NA,NA,""
"image-keyboard-response",452,411116,"0.0-4.146-2.146","1d1pe5uwhmxgssn",626,"47.csv","","null","resources/images/coin2.png","null","",NA,NA,NA,NA,""
"image-keyboard-response",453,411447,"0.0-4.147-0.147","1d1pe5uwhmxgssn",626,"47.csv","","330.59999999403954","resources/trios/L1T4A3.jpg","39","restless",0.6,0.4,0.5,0.99932820177055,"false"
"image-keyboard-response",454,411852,"0.0-4.147-1.147","1d1pe5uwhmxgssn",626,"47.csv","","null","resources/maskTrios/BBA3.jpg","null","",NA,NA,NA,NA,""
"image-keyboard-response",455,413068,"0.0-4.147-2.147","1d1pe5uwhmxgssn",626,"47.csv","","null","resources/images/fishbone.png","null","",NA,NA,NA,NA,""
"image-keyboard-response",456,413463,"0.0-4.148-0.148","1d1pe5uwhmxgssn",626,"47.csv","","395.09999999403954","resources/trios/L1T4A3.jpg","39","restless",0.6,0.4,0.5,0.659030068882145,"false"
"image-keyboard-response",457,413867,"0.0-4.148-1.148","1d1pe5uwhmxgssn",626,"47.csv","","null","resources/maskTrios/BBA3.jpg","null","",NA,NA,NA,NA,""
"image-keyboard-response",458,415082,"0.0-4.148-2.148","1d1pe5uwhmxgssn",626,"47.csv","","null","resources/images/fishbone.png","null","",NA,NA,NA,NA,""
"image-keyboard-response",459,415361,"0.0-4.149-0.149","1d1pe5uwhmxgssn",626,"47.csv","","279","resources/trios/L1T4A3.jpg","39","restless",0.6,0.4,0.5,0.417303660984357,"true"
"image-keyboard-response",460,415768,"0.0-4.149-1.149","1d1pe5uwhmxgssn",626,"47.csv","","null","resources/maskTrios/BBA3.jpg","null","",NA,NA,NA,NA,""
"image-keyboard-response",461,416984,"0.0-4.149-2.149","1d1pe5uwhmxgssn",626,"47.csv","","null","resources/images/coin2.png","null","",NA,NA,NA,NA,""
"image-keyboard-response",462,417281,"0.0-4.150-0.150","1d1pe5uwhmxgssn",626,"47.csv","","296.30000001192093","resources/trios/L1T4A3.jpg","38","restless",0.6,0.4,0.5,0.470952184948851,"false"
"image-keyboard-response",463,417688,"0.0-4.150-1.150","1d1pe5uwhmxgssn",626,"47.csv","","null","resources/maskTrios/BT4B.jpg","null","",NA,NA,NA,NA,""
"image-keyboard-response",464,418903,"0.0-4.150-2.150","1d1pe5uwhmxgssn",626,"47.csv","","null","resources/images/fishbone.png","null","",NA,NA,NA,NA,""
"image-keyboard-response",465,419338,"0.0-4.151-0.151","1d1pe5uwhmxgssn",626,"47.csv","","434.60000002384186","resources/trios/L1T4A3.jpg","38","restless",0.6,0.4,0.5,0.145735031302284,"true"
"image-keyboard-response",466,419749,"0.0-4.151-1.151","1d1pe5uwhmxgssn",626,"47.csv","","null","resources/maskTrios/BT4B.jpg","null","",NA,NA,NA,NA,""
"image-keyboard-response",467,420962,"0.0-4.151-2.151","1d1pe5uwhmxgssn",626,"47.csv","","null","resources/images/coin2.png","null","",NA,NA,NA,NA,""
"image-keyboard-response",468,421842,"0.0-4.152-0.152","1d1pe5uwhmxgssn",626,"47.csv","","880","resources/trios/L1T4A3.jpg","39","restless",0.6,0.4,0.5,0.962645652954557,"false"
"image-keyboard-response",469,422256,"0.0-4.152-1.152","1d1pe5uwhmxgssn",626,"47.csv","","null","resources/maskTrios/BBA3.jpg","null","",NA,NA,NA,NA,""
"image-keyboard-response",470,423470,"0.0-4.152-2.152","1d1pe5uwhmxgssn",626,"47.csv","","null","resources/images/fishbone.png","null","",NA,NA,NA,NA,""
"image-keyboard-response",471,423571,"0.0-4.153-0.153","1d1pe5uwhmxgssn",626,"47.csv","","100.30000001192093","resources/trios/L1T4A3.jpg","39","restless",0.5,0.4,0.5,0.480731080962665,"true"
"image-keyboard-response",472,423982,"0.0-4.153-1.153","1d1pe5uwhmxgssn",626,"47.csv","","null","resources/maskTrios/BBA3.jpg","null","",NA,NA,NA,NA,""
"image-keyboard-response",473,425198,"0.0-4.153-2.153","1d1pe5uwhmxgssn",626,"47.csv","","null","resources/images/coin2.png","null","",NA,NA,NA,NA,""
"image-keyboard-response",474,425504,"0.0-4.154-0.154","1d1pe5uwhmxgssn",626,"47.csv","","305.80000001192093","resources/trios/L1T4A3.jpg","37","restless",0.5,0.4,0.5,0.107570113684607,"true"
"image-keyboard-response",475,425917,"0.0-4.154-1.154","1d1pe5uwhmxgssn",626,"47.csv","","null","resources/maskTrios/L1BB.jpg","null","",NA,NA,NA,NA,""
"image-keyboard-response",476,427133,"0.0-4.154-2.154","1d1pe5uwhmxgssn",626,"47.csv","","null","resources/images/coin2.png","null","",NA,NA,NA,NA,""
"image-keyboard-response",477,427443,"0.0-4.155-0.155","1d1pe5uwhmxgssn",626,"47.csv","","309.09999999403954","resources/trios/L1T4A3.jpg","38","restless",0.4,0.4,0.5,0.820704615566574,"false"
"image-keyboard-response",478,427852,"0.0-4.155-1.155","1d1pe5uwhmxgssn",626,"47.csv","","null","resources/maskTrios/BT4B.jpg","null","",NA,NA,NA,NA,""
"image-keyboard-response",479,429065,"0.0-4.155-2.155","1d1pe5uwhmxgssn",626,"47.csv","","null","resources/images/fishbone.png","null","",NA,NA,NA,NA,""
"image-keyboard-response",480,429339,"0.0-4.156-0.156","1d1pe5uwhmxgssn",626,"47.csv","","273.30000001192093","resources/trios/L1T4A3.jpg","39","restless",0.4,0.5,0.5,0.853932594411817,"false"
"image-keyboard-response",481,429746,"0.0-4.156-1.156","1d1pe5uwhmxgssn",626,"47.csv","","null","resources/maskTrios/BBA3.jpg","null","",NA,NA,NA,NA,""
"image-keyboard-response",482,430955,"0.0-4.156-2.156","1d1pe5uwhmxgssn",626,"47.csv","","null","resources/images/fishbone.png","null","",NA,NA,NA,NA,""
"image-keyboard-response",483,431245,"0.0-4.157-0.157","1d1pe5uwhmxgssn",626,"47.csv","","289.60000002384186","resources/trios/L1T4A3.jpg","39","restless",0.3,0.5,0.5,0.0357038595167842,"true"
"image-keyboard-response",484,431658,"0.0-4.157-1.157","1d1pe5uwhmxgssn",626,"47.csv","","null","resources/maskTrios/BBA3.jpg","null","",NA,NA,NA,NA,""
"image-keyboard-response",485,432873,"0.0-4.157-2.157","1d1pe5uwhmxgssn",626,"47.csv","","null","resources/images/coin2.png","null","",NA,NA,NA,NA,""
"image-keyboard-response",486,433164,"0.0-4.158-0.158","1d1pe5uwhmxgssn",626,"47.csv","","290.90000000596046","resources/trios/L1T4A3.jpg","37","restless",0.3,0.5,0.4,0.175941557659743,"true"
"image-keyboard-response",487,433574,"0.0-4.158-1.158","1d1pe5uwhmxgssn",626,"47.csv","","null","resources/maskTrios/L1BB.jpg","null","",NA,NA,NA,NA,""
"image-keyboard-response",488,434789,"0.0-4.158-2.158","1d1pe5uwhmxgssn",626,"47.csv","","null","resources/images/coin2.png","null","",NA,NA,NA,NA,""
"image-keyboard-response",489,435821,"0.0-4.159-0.159","1d1pe5uwhmxgssn",626,"47.csv","","1031.1000000238419","resources/trios/L1T4A3.jpg","37","restless",0.3,0.5,0.4,0.074162056273654,"true"
"image-keyboard-response",490,436230,"0.0-4.159-1.159","1d1pe5uwhmxgssn",626,"47.csv","","null","resources/maskTrios/L1BB.jpg","null","",NA,NA,NA,NA,""
"image-keyboard-response",491,437444,"0.0-4.159-2.159","1d1pe5uwhmxgssn",626,"47.csv","","null","resources/images/coin2.png","null","",NA,NA,NA,NA,""
"image-keyboard-response",492,438242,"0.0-4.160-0.160","1d1pe5uwhmxgssn",626,"47.csv","","797.7000000178814","resources/trios/L1T4A3.jpg","39","restless",0.3,0.5,0.4,0.598910583178055,"false"
"image-keyboard-response",493,438644,"0.0-4.160-1.160","1d1pe5uwhmxgssn",626,"47.csv","","null","resources/maskTrios/BBA3.jpg","null","",NA,NA,NA,NA,""
"image-keyboard-response",494,439856,"0.0-4.160-2.160","1d1pe5uwhmxgssn",626,"47.csv","","null","resources/images/fishbone.png","null","",NA,NA,NA,NA,""
"image-keyboard-response",495,440130,"0.0-4.161-0.161","1d1pe5uwhmxgssn",626,"47.csv","","273.39999997615814","resources/trios/L1T4A3.jpg","39","restless",0.3,0.5,0.5,0.186676077204703,"true"
"image-keyboard-response",496,440542,"0.0-4.161-1.161","1d1pe5uwhmxgssn",626,"47.csv","","null","resources/maskTrios/BBA3.jpg","null","",NA,NA,NA,NA,""
"image-keyboard-response",497,441758,"0.0-4.161-2.161","1d1pe5uwhmxgssn",626,"47.csv","","null","resources/images/coin2.png","null","",NA,NA,NA,NA,""
"image-keyboard-response",498,442077,"0.0-4.162-0.162","1d1pe5uwhmxgssn",626,"47.csv","","318.7000000178814","resources/trios/L1T4A3.jpg","37","restless",0.3,0.5,0.5,0.967332616952219,"false"
"image-keyboard-response",499,442493,"0.0-4.162-1.162","1d1pe5uwhmxgssn",626,"47.csv","","null","resources/maskTrios/L1BB.jpg","null","",NA,NA,NA,NA,""
"image-keyboard-response",500,443709,"0.0-4.162-2.162","1d1pe5uwhmxgssn",626,"47.csv","","null","resources/images/fishbone.png","null","",NA,NA,NA,NA,""
"image-keyboard-response",501,444339,"0.0-4.163-0.163","1d1pe5uwhmxgssn",626,"47.csv","","629.0999999940395","resources/trios/L1T4A3.jpg","37","restless",0.3,0.5,0.5,0.352310169811974,"false"
"image-keyboard-response",502,444749,"0.0-4.163-1.163","1d1pe5uwhmxgssn",626,"47.csv","","null","resources/maskTrios/L1BB.jpg","null","",NA,NA,NA,NA,""
"image-keyboard-response",503,445962,"0.0-4.163-2.163","1d1pe5uwhmxgssn",626,"47.csv","","null","resources/images/fishbone.png","null","",NA,NA,NA,NA,""
"image-keyboard-response",504,446208,"0.0-4.164-0.164","1d1pe5uwhmxgssn",626,"47.csv","","245.80000001192093","resources/trios/L1T4A3.jpg","38","restless",0.3,0.5,0.5,0.0244726104978596,"true"
"image-keyboard-response",505,446618,"0.0-4.164-1.164","1d1pe5uwhmxgssn",626,"47.csv","","null","resources/maskTrios/BT4B.jpg","null","",NA,NA,NA,NA,""
"image-keyboard-response",506,447833,"0.0-4.164-2.164","1d1pe5uwhmxgssn",626,"47.csv","","null","resources/images/coin2.png","null","",NA,NA,NA,NA,""
"image-keyboard-response",507,448338,"0.0-4.165-0.165","1d1pe5uwhmxgssn",626,"47.csv","","504.2000000178814","resources/trios/L1T4A3.jpg","38","restless",0.3,0.4,0.5,0.372201409118393,"true"
"image-keyboard-response",508,448746,"0.0-4.165-1.165","1d1pe5uwhmxgssn",626,"47.csv","","null","resources/maskTrios/BT4B.jpg","null","",NA,NA,NA,NA,""
"image-keyboard-response",509,449961,"0.0-4.165-2.165","1d1pe5uwhmxgssn",626,"47.csv","","null","resources/images/coin2.png","null","",NA,NA,NA,NA,""
"image-keyboard-response",510,451020,"0.0-4.166-0.166","1d1pe5uwhmxgssn",626,"47.csv","","1058.300000011921","resources/trios/L1T4A3.jpg","39","restless",0.3,0.4,0.5,0.726470294903298,"false"
"image-keyboard-response",511,451430,"0.0-4.166-1.166","1d1pe5uwhmxgssn",626,"47.csv","","null","resources/maskTrios/BBA3.jpg","null","",NA,NA,NA,NA,""
"image-keyboard-response",512,452646,"0.0-4.166-2.166","1d1pe5uwhmxgssn",626,"47.csv","","null","resources/images/fishbone.png","null","",NA,NA,NA,NA,""
"image-keyboard-response",513,452926,"0.0-4.167-0.167","1d1pe5uwhmxgssn",626,"47.csv","","279.90000000596046","resources/trios/L1T4A3.jpg","38","restless",0.3,0.4,0.4,0.0379008277303594,"true"
"image-keyboard-response",514,453333,"0.0-4.167-1.167","1d1pe5uwhmxgssn",626,"47.csv","","null","resources/maskTrios/BT4B.jpg","null","",NA,NA,NA,NA,""
"image-keyboard-response",515,454549,"0.0-4.167-2.167","1d1pe5uwhmxgssn",626,"47.csv","","null","resources/images/coin2.png","null","",NA,NA,NA,NA,""
"image-keyboard-response",516,454923,"0.0-4.168-0.168","1d1pe5uwhmxgssn",626,"47.csv","","373.19999998807907","resources/trios/L1T4A3.jpg","38","restless",0.2,0.4,0.3,0.401751745048382,"false"
"image-keyboard-response",517,455334,"0.0-4.168-1.168","1d1pe5uwhmxgssn",626,"47.csv","","null","resources/maskTrios/BT4B.jpg","null","",NA,NA,NA,NA,""
"image-keyboard-response",518,456548,"0.0-4.168-2.168","1d1pe5uwhmxgssn",626,"47.csv","","null","resources/images/fishbone.png","null","",NA,NA,NA,NA,""
"image-keyboard-response",519,457039,"0.0-4.169-0.169","1d1pe5uwhmxgssn",626,"47.csv","","490.40000000596046","resources/trios/L1T4A3.jpg","37","restless",0.2,0.4,0.3,0.909214220283276,"false"
"image-keyboard-response",520,457444,"0.0-4.169-1.169","1d1pe5uwhmxgssn",626,"47.csv","","null","resources/maskTrios/L1BB.jpg","null","",NA,NA,NA,NA,""
"image-keyboard-response",521,458659,"0.0-4.169-2.169","1d1pe5uwhmxgssn",626,"47.csv","","null","resources/images/fishbone.png","null","",NA,NA,NA,NA,""
"image-keyboard-response",522,459013,"0.0-4.170-0.170","1d1pe5uwhmxgssn",626,"47.csv","","353.40000000596046","resources/trios/L1T4A3.jpg","37","restless",0.2,0.4,0.3,0.424345975298694,"false"
"image-keyboard-response",523,459428,"0.0-4.170-1.170","1d1pe5uwhmxgssn",626,"47.csv","","null","resources/maskTrios/L1BB.jpg","null","",NA,NA,NA,NA,""
"image-keyboard-response",524,460643,"0.0-4.170-2.170","1d1pe5uwhmxgssn",626,"47.csv","","null","resources/images/fishbone.png","null","",NA,NA,NA,NA,""
"image-keyboard-response",525,460947,"0.0-4.171-0.171","1d1pe5uwhmxgssn",626,"47.csv","","303.5","resources/trios/L1T4A3.jpg","37","restless",0.1,0.5,0.3,0.32437978246369,"false"
"image-keyboard-response",526,461362,"0.0-4.171-1.171","1d1pe5uwhmxgssn",626,"47.csv","","null","resources/maskTrios/L1BB.jpg","null","",NA,NA,NA,NA,""
"image-keyboard-response",527,462574,"0.0-4.171-2.171","1d1pe5uwhmxgssn",626,"47.csv","","null","resources/images/fishbone.png","null","",NA,NA,NA,NA,""
"image-keyboard-response",528,462880,"0.0-4.172-0.172","1d1pe5uwhmxgssn",626,"47.csv","","305.7999999821186","resources/trios/L1T4A3.jpg","37","restless",0.2,0.5,0.3,0.100982387432042,"true"
"image-keyboard-response",529,463294,"0.0-4.172-1.172","1d1pe5uwhmxgssn",626,"47.csv","","null","resources/maskTrios/L1BB.jpg","null","",NA,NA,NA,NA,""
"image-keyboard-response",530,464509,"0.0-4.172-2.172","1d1pe5uwhmxgssn",626,"47.csv","","null","resources/images/coin2.png","null","",NA,NA,NA,NA,""
"image-keyboard-response",531,464914,"0.0-4.173-0.173","1d1pe5uwhmxgssn",626,"47.csv","","404.2000000178814","resources/trios/L1T4A3.jpg","39","restless",0.2,0.5,0.3,0.658931395417936,"false"
"image-keyboard-response",532,465326,"0.0-4.173-1.173","1d1pe5uwhmxgssn",626,"47.csv","","null","resources/maskTrios/BBA3.jpg","null","",NA,NA,NA,NA,""
"image-keyboard-response",533,466540,"0.0-4.173-2.173","1d1pe5uwhmxgssn",626,"47.csv","","null","resources/images/fishbone.png","null","",NA,NA,NA,NA,""
"image-keyboard-response",534,467103,"0.0-4.174-0.174","1d1pe5uwhmxgssn",626,"47.csv","","562.4000000059605","resources/trios/L1T4A3.jpg","38","restless",0.2,0.5,0.3,0.033488847910629,"true"
"image-keyboard-response",535,467516,"0.0-4.174-1.174","1d1pe5uwhmxgssn",626,"47.csv","","null","resources/maskTrios/BT4B.jpg","null","",NA,NA,NA,NA,""
"image-keyboard-response",536,468732,"0.0-4.174-2.174","1d1pe5uwhmxgssn",626,"47.csv","","null","resources/images/coin2.png","null","",NA,NA,NA,NA,""
"image-keyboard-response",537,468991,"0.0-4.175-0.175","1d1pe5uwhmxgssn",626,"47.csv","","258.30000001192093","resources/trios/L1T4A3.jpg","39","restless",0.2,0.5,0.3,0.95947622227887,"false"
"image-keyboard-response",538,469404,"0.0-4.175-1.175","1d1pe5uwhmxgssn",626,"47.csv","","null","resources/maskTrios/BBA3.jpg","null","",NA,NA,NA,NA,""
"image-keyboard-response",539,470618,"0.0-4.175-2.175","1d1pe5uwhmxgssn",626,"47.csv","","null","resources/images/fishbone.png","null","",NA,NA,NA,NA,""
"image-keyboard-response",540,471098,"0.0-4.176-0.176","1d1pe5uwhmxgssn",626,"47.csv","","479.5","resources/trios/L1T4A3.jpg","39","restless",0.2,0.5,0.4,0.478144731011011,"false"
"image-keyboard-response",541,471511,"0.0-4.176-1.176","1d1pe5uwhmxgssn",626,"47.csv","","null","resources/maskTrios/BBA3.jpg","null","",NA,NA,NA,NA,""
"image-keyboard-response",542,472725,"0.0-4.176-2.176","1d1pe5uwhmxgssn",626,"47.csv","","null","resources/images/fishbone.png","null","",NA,NA,NA,NA,""
"image-keyboard-response",543,473068,"0.0-4.177-0.177","1d1pe5uwhmxgssn",626,"47.csv","","342.60000002384186","resources/trios/L1T4A3.jpg","39","restless",0.2,0.5,0.4,0.639647770895519,"false"
"image-keyboard-response",544,473477,"0.0-4.177-1.177","1d1pe5uwhmxgssn",626,"47.csv","","null","resources/maskTrios/BBA3.jpg","null","",NA,NA,NA,NA,""
"image-keyboard-response",545,474692,"0.0-4.177-2.177","1d1pe5uwhmxgssn",626,"47.csv","","null","resources/images/fishbone.png","null","",NA,NA,NA,NA,""
"image-keyboard-response",546,475020,"0.0-4.178-0.178","1d1pe5uwhmxgssn",626,"47.csv","","327.90000000596046","resources/trios/L1T4A3.jpg","39","restless",0.2,0.5,0.3,0.282388489515404,"true"
"image-keyboard-response",547,475427,"0.0-4.178-1.178","1d1pe5uwhmxgssn",626,"47.csv","","null","resources/maskTrios/BBA3.jpg","null","",NA,NA,NA,NA,""
"image-keyboard-response",548,476643,"0.0-4.178-2.178","1d1pe5uwhmxgssn",626,"47.csv","","null","resources/images/coin2.png","null","",NA,NA,NA,NA,""
"image-keyboard-response",549,476913,"0.0-4.179-0.179","1d1pe5uwhmxgssn",626,"47.csv","","269.2000000178814","resources/trios/L1T4A3.jpg","39","restless",0.3,0.5,0.2,0.0816981111887956,"true"
"image-keyboard-response",550,477314,"0.0-4.179-1.179","1d1pe5uwhmxgssn",626,"47.csv","","null","resources/maskTrios/BBA3.jpg","null","",NA,NA,NA,NA,""
"image-keyboard-response",551,478527,"0.0-4.179-2.179","1d1pe5uwhmxgssn",626,"47.csv","","null","resources/images/coin2.png","null","",NA,NA,NA,NA,""
"image-keyboard-response",552,478778,"0.0-4.180-0.180","1d1pe5uwhmxgssn",626,"47.csv","","250.40000000596046","resources/trios/L1T4A3.jpg","39","restless",0.3,0.5,0.2,0.446788690251729,"false"
"image-keyboard-response",553,479184,"0.0-4.180-1.180","1d1pe5uwhmxgssn",626,"47.csv","","null","resources/maskTrios/BBA3.jpg","null","",NA,NA,NA,NA,""
"image-keyboard-response",554,480398,"0.0-4.180-2.180","1d1pe5uwhmxgssn",626,"47.csv","","null","resources/images/fishbone.png","null","",NA,NA,NA,NA,""
"image-keyboard-response",555,480725,"0.0-4.181-0.181","1d1pe5uwhmxgssn",626,"47.csv","","326.59999999403954","resources/trios/L1T4A3.jpg","38","restless",0.3,0.5,0.2,0.368917332846523,"true"
"image-keyboard-response",556,481134,"0.0-4.181-1.181","1d1pe5uwhmxgssn",626,"47.csv","","null","resources/maskTrios/BT4B.jpg","null","",NA,NA,NA,NA,""
"image-keyboard-response",557,482348,"0.0-4.181-2.181","1d1pe5uwhmxgssn",626,"47.csv","","null","resources/images/coin2.png","null","",NA,NA,NA,NA,""
"image-keyboard-response",558,482690,"0.0-4.182-0.182","1d1pe5uwhmxgssn",626,"47.csv","","341.90000000596046","resources/trios/L1T4A3.jpg","38","restless",0.3,0.5,0.2,0.445334665529341,"true"
"image-keyboard-response",559,483100,"0.0-4.182-1.182","1d1pe5uwhmxgssn",626,"47.csv","","null","resources/maskTrios/BT4B.jpg","null","",NA,NA,NA,NA,""
"image-keyboard-response",560,484315,"0.0-4.182-2.182","1d1pe5uwhmxgssn",626,"47.csv","","null","resources/images/coin2.png","null","",NA,NA,NA,NA,""
"image-keyboard-response",561,485531,"0.0-4.183-0.183","1d1pe5uwhmxgssn",626,"47.csv","","1215.0999999940395","resources/trios/L1T4A3.jpg","37","restless",0.3,0.5,0.2,0.383842974611653,"false"
"image-keyboard-response",562,485947,"0.0-4.183-1.183","1d1pe5uwhmxgssn",626,"47.csv","","null","resources/maskTrios/L1BB.jpg","null","",NA,NA,NA,NA,""
"image-keyboard-response",563,487162,"0.0-4.183-2.183","1d1pe5uwhmxgssn",626,"47.csv","","null","resources/images/fishbone.png","null","",NA,NA,NA,NA,""
"image-keyboard-response",564,487204,"0.0-4.184-0.184","1d1pe5uwhmxgssn",626,"47.csv","","41.39999997615814","resources/trios/L1T4A3.jpg","37","restless",0.3,0.6,0.2,0.726944186346961,"false"
"image-keyboard-response",565,487609,"0.0-4.184-1.184","1d1pe5uwhmxgssn",626,"47.csv","","null","resources/maskTrios/L1BB.jpg","null","",NA,NA,NA,NA,""
"image-keyboard-response",566,488825,"0.0-4.184-2.184","1d1pe5uwhmxgssn",626,"47.csv","","null","resources/images/fishbone.png","null","",NA,NA,NA,NA,""
"image-keyboard-response",567,489106,"0.0-4.185-0.185","1d1pe5uwhmxgssn",626,"47.csv","","280","resources/trios/L1T4A3.jpg","39","restless",0.3,0.6,0.2,0.372000139499114,"false"
"image-keyboard-response",568,489514,"0.0-4.185-1.185","1d1pe5uwhmxgssn",626,"47.csv","","null","resources/maskTrios/BBA3.jpg","null","",NA,NA,NA,NA,""
"image-keyboard-response",569,490726,"0.0-4.185-2.185","1d1pe5uwhmxgssn",626,"47.csv","","null","resources/images/fishbone.png","null","",NA,NA,NA,NA,""
"image-keyboard-response",570,490984,"0.0-4.186-0.186","1d1pe5uwhmxgssn",626,"47.csv","","257.19999998807907","resources/trios/L1T4A3.jpg","38","restless",0.3,0.6,0.2,0.947045568057466,"false"
"image-keyboard-response",571,491398,"0.0-4.186-1.186","1d1pe5uwhmxgssn",626,"47.csv","","null","resources/maskTrios/BT4B.jpg","null","",NA,NA,NA,NA,""
"image-keyboard-response",572,492614,"0.0-4.186-2.186","1d1pe5uwhmxgssn",626,"47.csv","","null","resources/images/fishbone.png","null","",NA,NA,NA,NA,""
"image-keyboard-response",573,492903,"0.0-4.187-0.187","1d1pe5uwhmxgssn",626,"47.csv","","288.7000000178814","resources/trios/L1T4A3.jpg","38","restless",0.4,0.6,0.2,0.347198107934291,"true"
"image-keyboard-response",574,493318,"0.0-4.187-1.187","1d1pe5uwhmxgssn",626,"47.csv","","null","resources/maskTrios/BT4B.jpg","null","",NA,NA,NA,NA,""
"image-keyboard-response",575,494533,"0.0-4.187-2.187","1d1pe5uwhmxgssn",626,"47.csv","","null","resources/images/coin2.png","null","",NA,NA,NA,NA,""
"image-keyboard-response",576,494846,"0.0-4.188-0.188","1d1pe5uwhmxgssn",626,"47.csv","","312.7999999821186","resources/trios/L1T4A3.jpg","38","restless",0.4,0.6,0.2,0.725108451597077,"false"
"image-keyboard-response",577,495249,"0.0-4.188-1.188","1d1pe5uwhmxgssn",626,"47.csv","","null","resources/maskTrios/BT4B.jpg","null","",NA,NA,NA,NA,""
"image-keyboard-response",578,496465,"0.0-4.188-2.188","1d1pe5uwhmxgssn",626,"47.csv","","null","resources/images/fishbone.png","null","",NA,NA,NA,NA,""
"image-keyboard-response",579,496844,"0.0-4.189-0.189","1d1pe5uwhmxgssn",626,"47.csv","","378.10000002384186","resources/trios/L1T4A3.jpg","39","restless",0.4,0.6,0.2,0.508346957266673,"false"
"image-keyboard-response",580,497250,"0.0-4.189-1.189","1d1pe5uwhmxgssn",626,"47.csv","","null","resources/maskTrios/BBA3.jpg","null","",NA,NA,NA,NA,""
"image-keyboard-response",581,498465,"0.0-4.189-2.189","1d1pe5uwhmxgssn",626,"47.csv","","null","resources/images/fishbone.png","null","",NA,NA,NA,NA,""
"image-keyboard-response",582,499999,"0.0-4.190-0.190","1d1pe5uwhmxgssn",626,"47.csv","","1533.199999988079","resources/trios/L1T4A3.jpg","37","restless",0.4,0.6,0.2,0.0576445124760514,"true"
"image-keyboard-response",583,500414,"0.0-4.190-1.190","1d1pe5uwhmxgssn",626,"47.csv","","null","resources/maskTrios/L1BB.jpg","null","",NA,NA,NA,NA,""
"image-keyboard-response",584,501629,"0.0-4.190-2.190","1d1pe5uwhmxgssn",626,"47.csv","","null","resources/images/coin2.png","null","",NA,NA,NA,NA,""
"image-keyboard-response",585,502241,"0.0-4.191-0.191","1d1pe5uwhmxgssn",626,"47.csv","","611.2999999821186","resources/trios/L1T4A3.jpg","39","restless",0.4,0.6,0.1,0.106851657137991,"false"
"image-keyboard-response",586,502652,"0.0-4.191-1.191","1d1pe5uwhmxgssn",626,"47.csv","","null","resources/maskTrios/BBA3.jpg","null","",NA,NA,NA,NA,""
"image-keyboard-response",587,503868,"0.0-4.191-2.191","1d1pe5uwhmxgssn",626,"47.csv","","null","resources/images/fishbone.png","null","",NA,NA,NA,NA,""
"image-keyboard-response",588,504712,"0.0-4.192-0.192","1d1pe5uwhmxgssn",626,"47.csv","","843.1999999880791","resources/trios/L1T4A3.jpg","39","restless",0.4,0.6,0.2,0.997371750940967,"false"
"image-keyboard-response",589,505116,"0.0-4.192-1.192","1d1pe5uwhmxgssn",626,"47.csv","","null","resources/maskTrios/BBA3.jpg","null","",NA,NA,NA,NA,""
"image-keyboard-response",590,506329,"0.0-4.192-2.192","1d1pe5uwhmxgssn",626,"47.csv","","null","resources/images/fishbone.png","null","",NA,NA,NA,NA,""
"image-keyboard-response",591,506641,"0.0-4.193-0.193","1d1pe5uwhmxgssn",626,"47.csv","","310.89999997615814","resources/trios/L1T4A3.jpg","39","restless",0.4,0.6,0.2,0.466661986645364,"false"
"image-keyboard-response",592,507050,"0.0-4.193-1.193","1d1pe5uwhmxgssn",626,"47.csv","","null","resources/maskTrios/BBA3.jpg","null","",NA,NA,NA,NA,""
"image-keyboard-response",593,508266,"0.0-4.193-2.193","1d1pe5uwhmxgssn",626,"47.csv","","null","resources/images/fishbone.png","null","",NA,NA,NA,NA,""
"image-keyboard-response",594,508511,"0.0-4.194-0.194","1d1pe5uwhmxgssn",626,"47.csv","","244.19999998807907","resources/trios/L1T4A3.jpg","39","restless",0.4,0.6,0.2,0.204173207920404,"false"
"image-keyboard-response",595,508922,"0.0-4.194-1.194","1d1pe5uwhmxgssn",626,"47.csv","","null","resources/maskTrios/BBA3.jpg","null","",NA,NA,NA,NA,""
"image-keyboard-response",596,510138,"0.0-4.194-2.194","1d1pe5uwhmxgssn",626,"47.csv","","null","resources/images/fishbone.png","null","",NA,NA,NA,NA,""
"image-keyboard-response",597,510398,"0.0-4.195-0.195","1d1pe5uwhmxgssn",626,"47.csv","","259.7000000178814","resources/trios/L1T4A3.jpg","39","restless",0.4,0.7,0.1,0.492741302042526,"false"
"image-keyboard-response",598,510809,"0.0-4.195-1.195","1d1pe5uwhmxgssn",626,"47.csv","","null","resources/maskTrios/BBA3.jpg","null","",NA,NA,NA,NA,""
"image-keyboard-response",599,512022,"0.0-4.195-2.195","1d1pe5uwhmxgssn",626,"47.csv","","null","resources/images/fishbone.png","null","",NA,NA,NA,NA,""
"image-keyboard-response",600,512204,"0.0-4.196-0.196","1d1pe5uwhmxgssn",626,"47.csv","","181.90000000596046","resources/trios/L1T4A3.jpg","39","restless",0.4,0.7,0.1,0.693164148660772,"false"
"image-keyboard-response",601,512614,"0.0-4.196-1.196","1d1pe5uwhmxgssn",626,"47.csv","","null","resources/maskTrios/BBA3.jpg","null","",NA,NA,NA,NA,""
"image-keyboard-response",602,513830,"0.0-4.196-2.196","1d1pe5uwhmxgssn",626,"47.csv","","null","resources/images/fishbone.png","null","",NA,NA,NA,NA,""
"image-keyboard-response",603,514073,"0.0-4.197-0.197","1d1pe5uwhmxgssn",626,"47.csv","","242.19999998807907","resources/trios/L1T4A3.jpg","39","restless",0.4,0.7,0.1,0.159593063536949,"false"
"image-keyboard-response",604,514485,"0.0-4.197-1.197","1d1pe5uwhmxgssn",626,"47.csv","","null","resources/maskTrios/BBA3.jpg","null","",NA,NA,NA,NA,""
"image-keyboard-response",605,515700,"0.0-4.197-2.197","1d1pe5uwhmxgssn",626,"47.csv","","null","resources/images/fishbone.png","null","",NA,NA,NA,NA,""
"image-keyboard-response",606,515956,"0.0-4.198-0.198","1d1pe5uwhmxgssn",626,"47.csv","","255.40000000596046","resources/trios/L1T4A3.jpg","39","restless",0.4,0.7,0.1,0.766480033603869,"false"
"image-keyboard-response",607,516372,"0.0-4.198-1.198","1d1pe5uwhmxgssn",626,"47.csv","","null","resources/maskTrios/BBA3.jpg","null","",NA,NA,NA,NA,""
"image-keyboard-response",608,517588,"0.0-4.198-2.198","1d1pe5uwhmxgssn",626,"47.csv","","null","resources/images/fishbone.png","null","",NA,NA,NA,NA,""
"image-keyboard-response",609,517917,"0.0-4.199-0.199","1d1pe5uwhmxgssn",626,"47.csv","","328.89999997615814","resources/trios/L1T4A3.jpg","39","restless",0.3,0.7,0.1,0.168620565932927,"false"
"image-keyboard-response",610,518323,"0.0-4.199-1.199","1d1pe5uwhmxgssn",626,"47.csv","","null","resources/maskTrios/BBA3.jpg","null","",NA,NA,NA,NA,""
"image-keyboard-response",611,519536,"0.0-4.199-2.199","1d1pe5uwhmxgssn",626,"47.csv","","null","resources/images/fishbone.png","null","",NA,NA,NA,NA,""
