"trial_type","trial_index","time_elapsed","internal_node_id","subject","participantCode","walkNumber","success","rt","stimulus","key_press","test_part","leftProb","midProb","rightProb","generatedNum","correct"
"pavlovia",0,761,"0.0-0.0","omhxvnwssrwzkau",41,"111.csv","","","","","",NA,NA,NA,NA,""
"fullscreen",1,2273,"0.0-1.0","omhxvnwssrwzkau",41,"111.csv","true","","","","",NA,NA,NA,NA,""
"survey-html-form",2,8621,"0.0-2.0","omhxvnwssrwzkau",41,"111.csv","","6345.39999999851","","","",NA,NA,NA,NA,""
"image-keyboard-response",3,9643,"0.0-3.0-0.0","omhxvnwssrwzkau",41,"111.csv","","1019.8000000007451","resources/images/parrot_nobg.png","13","",NA,NA,NA,NA,""
"image-keyboard-response",4,12646,"0.0-3.0-1.0","omhxvnwssrwzkau",41,"111.csv","","null","resources/image_sets/111.png","null","",NA,NA,NA,NA,""
"image-keyboard-response",5,13955,"0.0-3.0-2.0","omhxvnwssrwzkau",41,"111.csv","","1307.1000000014901","resources/image_sets/left_highlight.png","37","",NA,NA,NA,NA,""
"image-keyboard-response",6,14495,"0.0-3.0-3.0","omhxvnwssrwzkau",41,"111.csv","","538.8000000007451","resources/image_sets/mid_highlight.png","38","",NA,NA,NA,NA,""
"image-keyboard-response",7,14688,"0.0-3.0-4.0","omhxvnwssrwzkau",41,"111.csv","","191.5","resources/image_sets/right_highlight.png","39","",NA,NA,NA,NA,""
"image-keyboard-response",8,15035,"0.0-3.0-5.0","omhxvnwssrwzkau",41,"111.csv","","345.29999999701977","resources/image_sets/111.png","13","",NA,NA,NA,NA,""
"image-keyboard-response",9,15208,"0.0-3.0-6.0","omhxvnwssrwzkau",41,"111.csv","","171.40000000223517","resources/images/coin2.png","13","",NA,NA,NA,NA,""
"image-keyboard-response",10,15531,"0.0-3.0-7.0","omhxvnwssrwzkau",41,"111.csv","","321.30000000074506","resources/images/fishbone.png","13","",NA,NA,NA,NA,""
"html-keyboard-response",11,16190,"0.0-3.0-8.0","omhxvnwssrwzkau",41,"111.csv","","658","<p>You can track your coin total on the top right of your screen. </p><p>At the end of your journey you will be directed to a survey, so please click on the link before exiting the task</p><p>Press Enter to begin</p>","13","",NA,NA,NA,NA,""
"image-keyboard-response",12,16438,"0.0-4.0-0.0","omhxvnwssrwzkau",41,"111.csv","","245.89999999850988","resources/trios/L1T4A3.jpg","37","restless",0.9,0.3,0.7,0.498822837754787,"true"
"image-keyboard-response",13,16842,"0.0-4.0-1.0","omhxvnwssrwzkau",41,"111.csv","","null","resources/maskTrios/L1BB.jpg","null","",NA,NA,NA,NA,""
"image-keyboard-response",14,18046,"0.0-4.0-2.0","omhxvnwssrwzkau",41,"111.csv","","null","resources/images/coin2.png","null","",NA,NA,NA,NA,""
"image-keyboard-response",15,18075,"0.0-4.1-0.1","omhxvnwssrwzkau",41,"111.csv","","26.5","resources/trios/L1T4A3.jpg","37","restless",0.9,0.4,0.7,0.896053111271802,"true"
"image-keyboard-response",16,18477,"0.0-4.1-1.1","omhxvnwssrwzkau",41,"111.csv","","null","resources/maskTrios/L1BB.jpg","null","",NA,NA,NA,NA,""
"image-keyboard-response",17,19680,"0.0-4.1-2.1","omhxvnwssrwzkau",41,"111.csv","","null","resources/images/coin2.png","null","",NA,NA,NA,NA,""
"image-keyboard-response",18,19747,"0.0-4.2-0.2","omhxvnwssrwzkau",41,"111.csv","","65.69999999925494","resources/trios/L1T4A3.jpg","37","restless",0.9,0.4,0.7,0.378453908047236,"true"
"image-keyboard-response",19,20151,"0.0-4.2-1.2","omhxvnwssrwzkau",41,"111.csv","","null","resources/maskTrios/L1BB.jpg","null","",NA,NA,NA,NA,""
"image-keyboard-response",20,21355,"0.0-4.2-2.2","omhxvnwssrwzkau",41,"111.csv","","null","resources/images/coin2.png","null","",NA,NA,NA,NA,""
"image-keyboard-response",21,21393,"0.0-4.3-0.3","omhxvnwssrwzkau",41,"111.csv","","36.399999998509884","resources/trios/L1T4A3.jpg","37","restless",0.9,0.4,0.7,0.563303533208235,"true"
"image-keyboard-response",22,21796,"0.0-4.3-1.3","omhxvnwssrwzkau",41,"111.csv","","null","resources/maskTrios/L1BB.jpg","null","",NA,NA,NA,NA,""
"image-keyboard-response",23,22999,"0.0-4.3-2.3","omhxvnwssrwzkau",41,"111.csv","","null","resources/images/coin2.png","null","",NA,NA,NA,NA,""
"image-keyboard-response",24,23088,"0.0-4.4-0.4","omhxvnwssrwzkau",41,"111.csv","","86.69999999925494","resources/trios/L1T4A3.jpg","37","restless",0.9,0.4,0.7,0.468889805913892,"true"
"image-keyboard-response",25,23491,"0.0-4.4-1.4","omhxvnwssrwzkau",41,"111.csv","","null","resources/maskTrios/L1BB.jpg","null","",NA,NA,NA,NA,""
"image-keyboard-response",26,24694,"0.0-4.4-2.4","omhxvnwssrwzkau",41,"111.csv","","null","resources/images/coin2.png","null","",NA,NA,NA,NA,""
"image-keyboard-response",27,24839,"0.0-4.5-0.5","omhxvnwssrwzkau",41,"111.csv","","142.19999999925494","resources/trios/L1T4A3.jpg","37","restless",0.9,0.4,0.7,0.27296994326566,"true"
"image-keyboard-response",28,25242,"0.0-4.5-1.5","omhxvnwssrwzkau",41,"111.csv","","null","resources/maskTrios/L1BB.jpg","null","",NA,NA,NA,NA,""
"image-keyboard-response",29,26445,"0.0-4.5-2.5","omhxvnwssrwzkau",41,"111.csv","","null","resources/images/coin2.png","null","",NA,NA,NA,NA,""
"image-keyboard-response",30,26653,"0.0-4.6-0.6","omhxvnwssrwzkau",41,"111.csv","","205.80000000074506","resources/trios/L1T4A3.jpg","37","restless",0.9,0.4,0.7,0.281022091643552,"true"
"image-keyboard-response",31,27056,"0.0-4.6-1.6","omhxvnwssrwzkau",41,"111.csv","","null","resources/maskTrios/L1BB.jpg","null","",NA,NA,NA,NA,""
"image-keyboard-response",32,28260,"0.0-4.6-2.6","omhxvnwssrwzkau",41,"111.csv","","null","resources/images/coin2.png","null","",NA,NA,NA,NA,""
"image-keyboard-response",33,28268,"0.0-4.7-0.7","omhxvnwssrwzkau",41,"111.csv","","5.799999997019768","resources/trios/L1T4A3.jpg","37","restless",0.8,0.4,0.7,0.811652000526587,"false"
"image-keyboard-response",34,28670,"0.0-4.7-1.7","omhxvnwssrwzkau",41,"111.csv","","null","resources/maskTrios/L1BB.jpg","null","",NA,NA,NA,NA,""
"image-keyboard-response",35,29873,"0.0-4.7-2.7","omhxvnwssrwzkau",41,"111.csv","","null","resources/images/fishbone.png","null","",NA,NA,NA,NA,""
"image-keyboard-response",36,29961,"0.0-4.8-0.8","omhxvnwssrwzkau",41,"111.csv","","86","resources/trios/L1T4A3.jpg","38","restless",0.8,0.4,0.7,0.986385019917895,"false"
"image-keyboard-response",37,30364,"0.0-4.8-1.8","omhxvnwssrwzkau",41,"111.csv","","null","resources/maskTrios/BT4B.jpg","null","",NA,NA,NA,NA,""
"image-keyboard-response",38,31567,"0.0-4.8-2.8","omhxvnwssrwzkau",41,"111.csv","","null","resources/images/fishbone.png","null","",NA,NA,NA,NA,""
"image-keyboard-response",39,32015,"0.0-4.9-0.9","omhxvnwssrwzkau",41,"111.csv","","446.29999999701977","resources/trios/L1T4A3.jpg","37","restless",0.8,0.4,0.7,0.458557058512784,"true"
"image-keyboard-response",40,32420,"0.0-4.9-1.9","omhxvnwssrwzkau",41,"111.csv","","null","resources/maskTrios/L1BB.jpg","null","",NA,NA,NA,NA,""
"image-keyboard-response",41,33621,"0.0-4.9-2.9","omhxvnwssrwzkau",41,"111.csv","","null","resources/images/coin2.png","null","",NA,NA,NA,NA,""
"image-keyboard-response",42,33784,"0.0-4.10-0.10","omhxvnwssrwzkau",41,"111.csv","","160.69999999925494","resources/trios/L1T4A3.jpg","37","restless",0.8,0.4,0.7,0.0172798566344012,"true"
"image-keyboard-response",43,34188,"0.0-4.10-1.10","omhxvnwssrwzkau",41,"111.csv","","null","resources/maskTrios/L1BB.jpg","null","",NA,NA,NA,NA,""
"image-keyboard-response",44,35390,"0.0-4.10-2.10","omhxvnwssrwzkau",41,"111.csv","","null","resources/images/coin2.png","null","",NA,NA,NA,NA,""
"image-keyboard-response",45,35427,"0.0-4.11-0.11","omhxvnwssrwzkau",41,"111.csv","","35.19999999925494","resources/trios/L1T4A3.jpg","37","restless",0.8,0.4,0.7,0.819964400575462,"false"
"image-keyboard-response",46,35829,"0.0-4.11-1.11","omhxvnwssrwzkau",41,"111.csv","","null","resources/maskTrios/L1BB.jpg","null","",NA,NA,NA,NA,""
"image-keyboard-response",47,37032,"0.0-4.11-2.11","omhxvnwssrwzkau",41,"111.csv","","null","resources/images/fishbone.png","null","",NA,NA,NA,NA,""
"image-keyboard-response",48,37240,"0.0-4.12-0.12","omhxvnwssrwzkau",41,"111.csv","","206.90000000223517","resources/trios/L1T4A3.jpg","39","restless",0.7,0.4,0.7,0.00666045001721272,"true"
"image-keyboard-response",49,37642,"0.0-4.12-1.12","omhxvnwssrwzkau",41,"111.csv","","null","resources/maskTrios/BBA3.jpg","null","",NA,NA,NA,NA,""
"image-keyboard-response",50,38845,"0.0-4.12-2.12","omhxvnwssrwzkau",41,"111.csv","","null","resources/images/coin2.png","null","",NA,NA,NA,NA,""
"image-keyboard-response",51,39026,"0.0-4.13-0.13","omhxvnwssrwzkau",41,"111.csv","","179.89999999850988","resources/trios/L1T4A3.jpg","39","restless",0.7,0.4,0.7,0.761919728934109,"false"
"image-keyboard-response",52,39429,"0.0-4.13-1.13","omhxvnwssrwzkau",41,"111.csv","","null","resources/maskTrios/BBA3.jpg","null","",NA,NA,NA,NA,""
"image-keyboard-response",53,40632,"0.0-4.13-2.13","omhxvnwssrwzkau",41,"111.csv","","null","resources/images/fishbone.png","null","",NA,NA,NA,NA,""
"image-keyboard-response",54,40748,"0.0-4.14-0.14","omhxvnwssrwzkau",41,"111.csv","","114.59999999776483","resources/trios/L1T4A3.jpg","38","restless",0.7,0.4,0.7,0.0740485896576319,"true"
"image-keyboard-response",55,41152,"0.0-4.14-1.14","omhxvnwssrwzkau",41,"111.csv","","null","resources/maskTrios/BT4B.jpg","null","",NA,NA,NA,NA,""
"image-keyboard-response",56,42355,"0.0-4.14-2.14","omhxvnwssrwzkau",41,"111.csv","","null","resources/images/coin2.png","null","",NA,NA,NA,NA,""
"image-keyboard-response",57,42738,"0.0-4.15-0.15","omhxvnwssrwzkau",41,"111.csv","","381","resources/trios/L1T4A3.jpg","38","restless",0.7,0.4,0.7,0.957813965213964,"false"
"image-keyboard-response",58,43140,"0.0-4.15-1.15","omhxvnwssrwzkau",41,"111.csv","","null","resources/maskTrios/BT4B.jpg","null","",NA,NA,NA,NA,""
"image-keyboard-response",59,44343,"0.0-4.15-2.15","omhxvnwssrwzkau",41,"111.csv","","null","resources/images/fishbone.png","null","",NA,NA,NA,NA,""
"image-keyboard-response",60,44518,"0.0-4.16-0.16","omhxvnwssrwzkau",41,"111.csv","","173.09999999776483","resources/trios/L1T4A3.jpg","38","restless",0.7,0.4,0.7,0.0141895165985584,"true"
"image-keyboard-response",61,44921,"0.0-4.16-1.16","omhxvnwssrwzkau",41,"111.csv","","null","resources/maskTrios/BT4B.jpg","null","",NA,NA,NA,NA,""
"image-keyboard-response",62,46124,"0.0-4.16-2.16","omhxvnwssrwzkau",41,"111.csv","","null","resources/images/coin2.png","null","",NA,NA,NA,NA,""
"image-keyboard-response",63,58528,"0.0-4.17-0.17","omhxvnwssrwzkau",41,"111.csv","","12401.79999999702","resources/trios/L1T4A3.jpg","37","restless",0.7,0.4,0.7,0.590689330122855,"true"
"image-keyboard-response",64,58931,"0.0-4.17-1.17","omhxvnwssrwzkau",41,"111.csv","","null","resources/maskTrios/L1BB.jpg","null","",NA,NA,NA,NA,""
"image-keyboard-response",65,60134,"0.0-4.17-2.17","omhxvnwssrwzkau",41,"111.csv","","null","resources/images/coin2.png","null","",NA,NA,NA,NA,""
"image-keyboard-response",66,60523,"0.0-4.18-0.18","omhxvnwssrwzkau",41,"111.csv","","387.30000000074506","resources/trios/L1T4A3.jpg","37","restless",0.7,0.4,0.7,0.773698804358339,"false"
"image-keyboard-response",67,60926,"0.0-4.18-1.18","omhxvnwssrwzkau",41,"111.csv","","null","resources/maskTrios/L1BB.jpg","null","",NA,NA,NA,NA,""
"image-keyboard-response",68,62129,"0.0-4.18-2.18","omhxvnwssrwzkau",41,"111.csv","","null","resources/images/fishbone.png","null","",NA,NA,NA,NA,""
"image-keyboard-response",69,62697,"0.0-4.19-0.19","omhxvnwssrwzkau",41,"111.csv","","565.8999999985099","resources/trios/L1T4A3.jpg","37","restless",0.7,0.4,0.7,0.432997644715625,"true"
"image-keyboard-response",70,63100,"0.0-4.19-1.19","omhxvnwssrwzkau",41,"111.csv","","null","resources/maskTrios/L1BB.jpg","null","",NA,NA,NA,NA,""
"image-keyboard-response",71,64304,"0.0-4.19-2.19","omhxvnwssrwzkau",41,"111.csv","","null","resources/images/coin2.png","null","",NA,NA,NA,NA,""
"image-keyboard-response",72,64773,"0.0-4.20-0.20","omhxvnwssrwzkau",41,"111.csv","","467.19999999925494","resources/trios/L1T4A3.jpg","38","restless",0.8,0.4,0.7,0.328143339163017,"true"
"image-keyboard-response",73,65176,"0.0-4.20-1.20","omhxvnwssrwzkau",41,"111.csv","","null","resources/maskTrios/BT4B.jpg","null","",NA,NA,NA,NA,""
"image-keyboard-response",74,66379,"0.0-4.20-2.20","omhxvnwssrwzkau",41,"111.csv","","null","resources/images/coin2.png","null","",NA,NA,NA,NA,""
"image-keyboard-response",75,66442,"0.0-4.21-0.21","omhxvnwssrwzkau",41,"111.csv","","61.30000000074506","resources/trios/L1T4A3.jpg","38","restless",0.8,0.4,0.6,0.56613190187257,"false"
"image-keyboard-response",76,66845,"0.0-4.21-1.21","omhxvnwssrwzkau",41,"111.csv","","null","resources/maskTrios/BT4B.jpg","null","",NA,NA,NA,NA,""
"image-keyboard-response",77,68049,"0.0-4.21-2.21","omhxvnwssrwzkau",41,"111.csv","","null","resources/images/fishbone.png","null","",NA,NA,NA,NA,""
"image-keyboard-response",78,68060,"0.0-4.22-0.22","omhxvnwssrwzkau",41,"111.csv","","9.100000001490116","resources/trios/L1T4A3.jpg","37","restless",0.8,0.4,0.6,0.220154392612648,"true"
"image-keyboard-response",79,68462,"0.0-4.22-1.22","omhxvnwssrwzkau",41,"111.csv","","null","resources/maskTrios/L1BB.jpg","null","",NA,NA,NA,NA,""
"image-keyboard-response",80,69666,"0.0-4.22-2.22","omhxvnwssrwzkau",41,"111.csv","","null","resources/images/coin2.png","null","",NA,NA,NA,NA,""
"image-keyboard-response",81,69758,"0.0-4.23-0.23","omhxvnwssrwzkau",41,"111.csv","","90.40000000223517","resources/trios/L1T4A3.jpg","37","restless",0.8,0.4,0.6,0.440636148177721,"true"
"image-keyboard-response",82,70162,"0.0-4.23-1.23","omhxvnwssrwzkau",41,"111.csv","","null","resources/maskTrios/L1BB.jpg","null","",NA,NA,NA,NA,""
"image-keyboard-response",83,71365,"0.0-4.23-2.23","omhxvnwssrwzkau",41,"111.csv","","null","resources/images/coin2.png","null","",NA,NA,NA,NA,""
"image-keyboard-response",84,71553,"0.0-4.24-0.24","omhxvnwssrwzkau",41,"111.csv","","185.59999999776483","resources/trios/L1T4A3.jpg","39","restless",0.7,0.4,0.6,0.292711886268149,"true"
"image-keyboard-response",85,71956,"0.0-4.24-1.24","omhxvnwssrwzkau",41,"111.csv","","null","resources/maskTrios/BBA3.jpg","null","",NA,NA,NA,NA,""
"image-keyboard-response",86,73160,"0.0-4.24-2.24","omhxvnwssrwzkau",41,"111.csv","","null","resources/images/coin2.png","null","",NA,NA,NA,NA,""
"image-keyboard-response",87,73429,"0.0-4.25-0.25","omhxvnwssrwzkau",41,"111.csv","","267.0999999977648","resources/trios/L1T4A3.jpg","39","restless",0.7,0.4,0.6,0.0306882036902063,"true"
"image-keyboard-response",88,73833,"0.0-4.25-1.25","omhxvnwssrwzkau",41,"111.csv","","null","resources/maskTrios/BBA3.jpg","null","",NA,NA,NA,NA,""
"image-keyboard-response",89,75036,"0.0-4.25-2.25","omhxvnwssrwzkau",41,"111.csv","","null","resources/images/coin2.png","null","",NA,NA,NA,NA,""
"image-keyboard-response",90,75045,"0.0-4.26-0.26","omhxvnwssrwzkau",41,"111.csv","","7.5","resources/trios/L1T4A3.jpg","39","restless",0.7,0.4,0.6,0.944002926541625,"false"
"image-keyboard-response",91,75448,"0.0-4.26-1.26","omhxvnwssrwzkau",41,"111.csv","","null","resources/maskTrios/BBA3.jpg","null","",NA,NA,NA,NA,""
"image-keyboard-response",92,76651,"0.0-4.26-2.26","omhxvnwssrwzkau",41,"111.csv","","null","resources/images/fishbone.png","null","",NA,NA,NA,NA,""
"image-keyboard-response",93,76752,"0.0-4.27-0.27","omhxvnwssrwzkau",41,"111.csv","","99.40000000223517","resources/trios/L1T4A3.jpg","39","restless",0.7,0.4,0.6,0.821372926533848,"false"
"image-keyboard-response",94,77156,"0.0-4.27-1.27","omhxvnwssrwzkau",41,"111.csv","","null","resources/maskTrios/BBA3.jpg","null","",NA,NA,NA,NA,""
"image-keyboard-response",95,78359,"0.0-4.27-2.27","omhxvnwssrwzkau",41,"111.csv","","null","resources/images/fishbone.png","null","",NA,NA,NA,NA,""
"image-keyboard-response",96,78598,"0.0-4.28-0.28","omhxvnwssrwzkau",41,"111.csv","","237.10000000149012","resources/trios/L1T4A3.jpg","37","restless",0.7,0.4,0.6,0.615347263527033,"true"
"image-keyboard-response",97,79001,"0.0-4.28-1.28","omhxvnwssrwzkau",41,"111.csv","","null","resources/maskTrios/L1BB.jpg","null","",NA,NA,NA,NA,""
"image-keyboard-response",98,80204,"0.0-4.28-2.28","omhxvnwssrwzkau",41,"111.csv","","null","resources/images/coin2.png","null","",NA,NA,NA,NA,""
"image-keyboard-response",99,80366,"0.0-4.29-0.29","omhxvnwssrwzkau",41,"111.csv","","160.80000000074506","resources/trios/L1T4A3.jpg","37","restless",0.6,0.4,0.6,0.731866996720609,"false"
"image-keyboard-response",100,80770,"0.0-4.29-1.29","omhxvnwssrwzkau",41,"111.csv","","null","resources/maskTrios/L1BB.jpg","null","",NA,NA,NA,NA,""
"image-keyboard-response",101,81972,"0.0-4.29-2.29","omhxvnwssrwzkau",41,"111.csv","","null","resources/images/fishbone.png","null","",NA,NA,NA,NA,""
"image-keyboard-response",102,83621,"0.0-4.30-0.30","omhxvnwssrwzkau",41,"111.csv","","1646.9000000022352","resources/trios/L1T4A3.jpg","37","restless",0.6,0.3,0.6,0.296885410027722,"true"
"image-keyboard-response",103,84024,"0.0-4.30-1.30","omhxvnwssrwzkau",41,"111.csv","","null","resources/maskTrios/L1BB.jpg","null","",NA,NA,NA,NA,""
"image-keyboard-response",104,85228,"0.0-4.30-2.30","omhxvnwssrwzkau",41,"111.csv","","null","resources/images/coin2.png","null","",NA,NA,NA,NA,""
"image-keyboard-response",105,85444,"0.0-4.31-0.31","omhxvnwssrwzkau",41,"111.csv","","214.10000000149012","resources/trios/L1T4A3.jpg","37","restless",0.6,0.3,0.6,0.90679187457061,"false"
"image-keyboard-response",106,85848,"0.0-4.31-1.31","omhxvnwssrwzkau",41,"111.csv","","null","resources/maskTrios/L1BB.jpg","null","",NA,NA,NA,NA,""
"image-keyboard-response",107,87050,"0.0-4.31-2.31","omhxvnwssrwzkau",41,"111.csv","","null","resources/images/fishbone.png","null","",NA,NA,NA,NA,""
"image-keyboard-response",108,87147,"0.0-4.32-0.32","omhxvnwssrwzkau",41,"111.csv","","95.10000000149012","resources/trios/L1T4A3.jpg","38","restless",0.6,0.3,0.6,0.147115672187212,"true"
"image-keyboard-response",109,87550,"0.0-4.32-1.32","omhxvnwssrwzkau",41,"111.csv","","null","resources/maskTrios/BT4B.jpg","null","",NA,NA,NA,NA,""
"image-keyboard-response",110,88753,"0.0-4.32-2.32","omhxvnwssrwzkau",41,"111.csv","","null","resources/images/coin2.png","null","",NA,NA,NA,NA,""
"image-keyboard-response",111,88793,"0.0-4.33-0.33","omhxvnwssrwzkau",41,"111.csv","","38.099999997764826","resources/trios/L1T4A3.jpg","38","restless",0.6,0.3,0.6,0.124339075613716,"true"
"image-keyboard-response",112,89196,"0.0-4.33-1.33","omhxvnwssrwzkau",41,"111.csv","","null","resources/maskTrios/BT4B.jpg","null","",NA,NA,NA,NA,""
"image-keyboard-response",113,90400,"0.0-4.33-2.33","omhxvnwssrwzkau",41,"111.csv","","null","resources/images/coin2.png","null","",NA,NA,NA,NA,""
"image-keyboard-response",114,90614,"0.0-4.34-0.34","omhxvnwssrwzkau",41,"111.csv","","212.69999999925494","resources/trios/L1T4A3.jpg","38","restless",0.6,0.4,0.6,0.750570140922689,"false"
"image-keyboard-response",115,91018,"0.0-4.34-1.34","omhxvnwssrwzkau",41,"111.csv","","null","resources/maskTrios/BT4B.jpg","null","",NA,NA,NA,NA,""
"image-keyboard-response",116,92221,"0.0-4.34-2.34","omhxvnwssrwzkau",41,"111.csv","","null","resources/images/fishbone.png","null","",NA,NA,NA,NA,""
"image-keyboard-response",117,92441,"0.0-4.35-0.35","omhxvnwssrwzkau",41,"111.csv","","217.60000000149012","resources/trios/L1T4A3.jpg","38","restless",0.6,0.4,0.6,0.365806280037004,"true"
"image-keyboard-response",118,92844,"0.0-4.35-1.35","omhxvnwssrwzkau",41,"111.csv","","null","resources/maskTrios/BT4B.jpg","null","",NA,NA,NA,NA,""
"image-keyboard-response",119,94047,"0.0-4.35-2.35","omhxvnwssrwzkau",41,"111.csv","","null","resources/images/coin2.png","null","",NA,NA,NA,NA,""
"image-keyboard-response",120,94196,"0.0-4.36-0.36","omhxvnwssrwzkau",41,"111.csv","","146.20000000298023","resources/trios/L1T4A3.jpg","38","restless",0.6,0.4,0.6,0.683221804684619,"false"
"image-keyboard-response",121,94599,"0.0-4.36-1.36","omhxvnwssrwzkau",41,"111.csv","","null","resources/maskTrios/BT4B.jpg","null","",NA,NA,NA,NA,""
"image-keyboard-response",122,95802,"0.0-4.36-2.36","omhxvnwssrwzkau",41,"111.csv","","null","resources/images/fishbone.png","null","",NA,NA,NA,NA,""
"image-keyboard-response",123,95925,"0.0-4.37-0.37","omhxvnwssrwzkau",41,"111.csv","","121.19999999925494","resources/trios/L1T4A3.jpg","39","restless",0.6,0.4,0.6,0.672973021794229,"false"
"image-keyboard-response",124,96328,"0.0-4.37-1.37","omhxvnwssrwzkau",41,"111.csv","","null","resources/maskTrios/BBA3.jpg","null","",NA,NA,NA,NA,""
"image-keyboard-response",125,97531,"0.0-4.37-2.37","omhxvnwssrwzkau",41,"111.csv","","null","resources/images/fishbone.png","null","",NA,NA,NA,NA,""
"image-keyboard-response",126,97543,"0.0-4.38-0.38","omhxvnwssrwzkau",41,"111.csv","","10.600000001490116","resources/trios/L1T4A3.jpg","37","restless",0.6,0.4,0.6,0.109961006787584,"true"
"image-keyboard-response",127,97946,"0.0-4.38-1.38","omhxvnwssrwzkau",41,"111.csv","","null","resources/maskTrios/L1BB.jpg","null","",NA,NA,NA,NA,""
"image-keyboard-response",128,99149,"0.0-4.38-2.38","omhxvnwssrwzkau",41,"111.csv","","null","resources/images/coin2.png","null","",NA,NA,NA,NA,""
"image-keyboard-response",129,99260,"0.0-4.39-0.39","omhxvnwssrwzkau",41,"111.csv","","110.59999999776483","resources/trios/L1T4A3.jpg","37","restless",0.6,0.4,0.6,0.259058271965427,"true"
"image-keyboard-response",130,99663,"0.0-4.39-1.39","omhxvnwssrwzkau",41,"111.csv","","null","resources/maskTrios/L1BB.jpg","null","",NA,NA,NA,NA,""
"image-keyboard-response",131,100867,"0.0-4.39-2.39","omhxvnwssrwzkau",41,"111.csv","","null","resources/images/coin2.png","null","",NA,NA,NA,NA,""
"image-keyboard-response",132,101202,"0.0-4.40-0.40","omhxvnwssrwzkau",41,"111.csv","","333.5999999977648","resources/trios/L1T4A3.jpg","37","restless",0.6,0.4,0.6,0.227383336742174,"true"
"image-keyboard-response",133,101604,"0.0-4.40-1.40","omhxvnwssrwzkau",41,"111.csv","","null","resources/maskTrios/L1BB.jpg","null","",NA,NA,NA,NA,""
"image-keyboard-response",134,102808,"0.0-4.40-2.40","omhxvnwssrwzkau",41,"111.csv","","null","resources/images/coin2.png","null","",NA,NA,NA,NA,""
"image-keyboard-response",135,102990,"0.0-4.41-0.41","omhxvnwssrwzkau",41,"111.csv","","180","resources/trios/L1T4A3.jpg","37","restless",0.6,0.4,0.6,0.704144985250106,"false"
"image-keyboard-response",136,103393,"0.0-4.41-1.41","omhxvnwssrwzkau",41,"111.csv","","null","resources/maskTrios/L1BB.jpg","null","",NA,NA,NA,NA,""
"image-keyboard-response",137,104597,"0.0-4.41-2.41","omhxvnwssrwzkau",41,"111.csv","","null","resources/images/fishbone.png","null","",NA,NA,NA,NA,""
"image-keyboard-response",138,104794,"0.0-4.42-0.42","omhxvnwssrwzkau",41,"111.csv","","195.69999999925494","resources/trios/L1T4A3.jpg","38","restless",0.6,0.4,0.6,0.722926733094026,"false"
"image-keyboard-response",139,105197,"0.0-4.42-1.42","omhxvnwssrwzkau",41,"111.csv","","null","resources/maskTrios/BT4B.jpg","null","",NA,NA,NA,NA,""
"image-keyboard-response",140,106400,"0.0-4.42-2.42","omhxvnwssrwzkau",41,"111.csv","","null","resources/images/fishbone.png","null","",NA,NA,NA,NA,""
"image-keyboard-response",141,106444,"0.0-4.43-0.43","omhxvnwssrwzkau",41,"111.csv","","42.399999998509884","resources/trios/L1T4A3.jpg","37","restless",0.6,0.4,0.6,0.462934747077897,"true"
"image-keyboard-response",142,106846,"0.0-4.43-1.43","omhxvnwssrwzkau",41,"111.csv","","null","resources/maskTrios/L1BB.jpg","null","",NA,NA,NA,NA,""
"image-keyboard-response",143,108050,"0.0-4.43-2.43","omhxvnwssrwzkau",41,"111.csv","","null","resources/images/coin2.png","null","",NA,NA,NA,NA,""
"image-keyboard-response",144,108327,"0.0-4.44-0.44","omhxvnwssrwzkau",41,"111.csv","","275.3999999985099","resources/trios/L1T4A3.jpg","37","restless",0.6,0.5,0.6,0.759473787877038,"false"
"image-keyboard-response",145,108730,"0.0-4.44-1.44","omhxvnwssrwzkau",41,"111.csv","","null","resources/maskTrios/L1BB.jpg","null","",NA,NA,NA,NA,""
"image-keyboard-response",146,109933,"0.0-4.44-2.44","omhxvnwssrwzkau",41,"111.csv","","null","resources/images/fishbone.png","null","",NA,NA,NA,NA,""
"image-keyboard-response",147,109961,"0.0-4.45-0.45","omhxvnwssrwzkau",41,"111.csv","","27.100000001490116","resources/trios/L1T4A3.jpg","39","restless",0.6,0.5,0.6,0.323030172823425,"true"
"image-keyboard-response",148,110364,"0.0-4.45-1.45","omhxvnwssrwzkau",41,"111.csv","","null","resources/maskTrios/BBA3.jpg","null","",NA,NA,NA,NA,""
"image-keyboard-response",149,111567,"0.0-4.45-2.45","omhxvnwssrwzkau",41,"111.csv","","null","resources/images/coin2.png","null","",NA,NA,NA,NA,""
"image-keyboard-response",150,111627,"0.0-4.46-0.46","omhxvnwssrwzkau",41,"111.csv","","58.399999998509884","resources/trios/L1T4A3.jpg","39","restless",0.6,0.5,0.6,0.368193615443919,"true"
"image-keyboard-response",151,112029,"0.0-4.46-1.46","omhxvnwssrwzkau",41,"111.csv","","null","resources/maskTrios/BBA3.jpg","null","",NA,NA,NA,NA,""
"image-keyboard-response",152,113233,"0.0-4.46-2.46","omhxvnwssrwzkau",41,"111.csv","","null","resources/images/coin2.png","null","",NA,NA,NA,NA,""
"image-keyboard-response",153,113781,"0.0-4.47-0.47","omhxvnwssrwzkau",41,"111.csv","","545.8000000007451","resources/trios/L1T4A3.jpg","39","restless",0.6,0.5,0.7,0.659709714483278,"true"
"image-keyboard-response",154,114183,"0.0-4.47-1.47","omhxvnwssrwzkau",41,"111.csv","","null","resources/maskTrios/BBA3.jpg","null","",NA,NA,NA,NA,""
"image-keyboard-response",155,115387,"0.0-4.47-2.47","omhxvnwssrwzkau",41,"111.csv","","null","resources/images/coin2.png","null","",NA,NA,NA,NA,""
"image-keyboard-response",156,115392,"0.0-4.48-0.48","omhxvnwssrwzkau",41,"111.csv","","3.2999999970197678","resources/trios/L1T4A3.jpg","39","restless",0.5,0.5,0.7,0.26450005408465,"true"
"image-keyboard-response",157,115795,"0.0-4.48-1.48","omhxvnwssrwzkau",41,"111.csv","","null","resources/maskTrios/BBA3.jpg","null","",NA,NA,NA,NA,""
"image-keyboard-response",158,116998,"0.0-4.48-2.48","omhxvnwssrwzkau",41,"111.csv","","null","resources/images/coin2.png","null","",NA,NA,NA,NA,""
"image-keyboard-response",159,117171,"0.0-4.49-0.49","omhxvnwssrwzkau",41,"111.csv","","171.69999999925494","resources/trios/L1T4A3.jpg","39","restless",0.5,0.4,0.7,0.317074385290688,"true"
"image-keyboard-response",160,117574,"0.0-4.49-1.49","omhxvnwssrwzkau",41,"111.csv","","null","resources/maskTrios/BBA3.jpg","null","",NA,NA,NA,NA,""
"image-keyboard-response",161,118778,"0.0-4.49-2.49","omhxvnwssrwzkau",41,"111.csv","","null","resources/images/coin2.png","null","",NA,NA,NA,NA,""
"image-keyboard-response",162,118784,"0.0-4.50-0.50","omhxvnwssrwzkau",41,"111.csv","","4.5","resources/trios/L1T4A3.jpg","39","restless",0.5,0.4,0.7,0.0776539574142709,"true"
"image-keyboard-response",163,119186,"0.0-4.50-1.50","omhxvnwssrwzkau",41,"111.csv","","null","resources/maskTrios/BBA3.jpg","null","",NA,NA,NA,NA,""
"image-keyboard-response",164,120390,"0.0-4.50-2.50","omhxvnwssrwzkau",41,"111.csv","","null","resources/images/coin2.png","null","",NA,NA,NA,NA,""
"image-keyboard-response",165,120710,"0.0-4.51-0.51","omhxvnwssrwzkau",41,"111.csv","","318.19999999925494","resources/trios/L1T4A3.jpg","39","restless",0.5,0.4,0.8,0.00653390702093359,"true"
"image-keyboard-response",166,121113,"0.0-4.51-1.51","omhxvnwssrwzkau",41,"111.csv","","null","resources/maskTrios/BBA3.jpg","null","",NA,NA,NA,NA,""
"image-keyboard-response",167,122314,"0.0-4.51-2.51","omhxvnwssrwzkau",41,"111.csv","","null","resources/images/coin2.png","null","",NA,NA,NA,NA,""
"image-keyboard-response",168,122471,"0.0-4.52-0.52","omhxvnwssrwzkau",41,"111.csv","","154.80000000074506","resources/trios/L1T4A3.jpg","39","restless",0.5,0.4,0.8,0.924151373776132,"false"
"image-keyboard-response",169,122873,"0.0-4.52-1.52","omhxvnwssrwzkau",41,"111.csv","","null","resources/maskTrios/BBA3.jpg","null","",NA,NA,NA,NA,""
"image-keyboard-response",170,124076,"0.0-4.52-2.52","omhxvnwssrwzkau",41,"111.csv","","null","resources/images/fishbone.png","null","",NA,NA,NA,NA,""
"image-keyboard-response",171,124109,"0.0-4.53-0.53","omhxvnwssrwzkau",41,"111.csv","","31.300000000745058","resources/trios/L1T4A3.jpg","39","restless",0.4,0.4,0.8,0.314310172684245,"true"
"image-keyboard-response",172,124512,"0.0-4.53-1.53","omhxvnwssrwzkau",41,"111.csv","","null","resources/maskTrios/BBA3.jpg","null","",NA,NA,NA,NA,""
"image-keyboard-response",173,125715,"0.0-4.53-2.53","omhxvnwssrwzkau",41,"111.csv","","null","resources/images/coin2.png","null","",NA,NA,NA,NA,""
"image-keyboard-response",174,125731,"0.0-4.54-0.54","omhxvnwssrwzkau",41,"111.csv","","14.600000001490116","resources/trios/L1T4A3.jpg","39","restless",0.4,0.4,0.8,0.562828791059309,"true"
"image-keyboard-response",175,126134,"0.0-4.54-1.54","omhxvnwssrwzkau",41,"111.csv","","null","resources/maskTrios/BBA3.jpg","null","",NA,NA,NA,NA,""
"image-keyboard-response",176,127337,"0.0-4.54-2.54","omhxvnwssrwzkau",41,"111.csv","","null","resources/images/coin2.png","null","",NA,NA,NA,NA,""
"image-keyboard-response",177,127790,"0.0-4.55-0.55","omhxvnwssrwzkau",41,"111.csv","","450.9000000022352","resources/trios/L1T4A3.jpg","39","restless",0.4,0.4,0.8,0.359999640222181,"true"
"image-keyboard-response",178,128192,"0.0-4.55-1.55","omhxvnwssrwzkau",41,"111.csv","","null","resources/maskTrios/BBA3.jpg","null","",NA,NA,NA,NA,""
"image-keyboard-response",179,129395,"0.0-4.55-2.55","omhxvnwssrwzkau",41,"111.csv","","null","resources/images/coin2.png","null","",NA,NA,NA,NA,""
"image-keyboard-response",180,129751,"0.0-4.56-0.56","omhxvnwssrwzkau",41,"111.csv","","354","resources/trios/L1T4A3.jpg","39","restless",0.4,0.4,0.8,0.232914846053984,"true"
"image-keyboard-response",181,130154,"0.0-4.56-1.56","omhxvnwssrwzkau",41,"111.csv","","null","resources/maskTrios/BBA3.jpg","null","",NA,NA,NA,NA,""
"image-keyboard-response",182,131357,"0.0-4.56-2.56","omhxvnwssrwzkau",41,"111.csv","","null","resources/images/coin2.png","null","",NA,NA,NA,NA,""
"image-keyboard-response",183,131484,"0.0-4.57-0.57","omhxvnwssrwzkau",41,"111.csv","","124.10000000149012","resources/trios/L1T4A3.jpg","39","restless",0.4,0.4,0.8,0.315401973817434,"true"
"image-keyboard-response",184,131887,"0.0-4.57-1.57","omhxvnwssrwzkau",41,"111.csv","","null","resources/maskTrios/BBA3.jpg","null","",NA,NA,NA,NA,""
"image-keyboard-response",185,133090,"0.0-4.57-2.57","omhxvnwssrwzkau",41,"111.csv","","null","resources/images/coin2.png","null","",NA,NA,NA,NA,""
"image-keyboard-response",186,133343,"0.0-4.58-0.58","omhxvnwssrwzkau",41,"111.csv","","250.89999999850988","resources/trios/L1T4A3.jpg","39","restless",0.5,0.4,0.8,0.0280883369574061,"true"
"image-keyboard-response",187,133747,"0.0-4.58-1.58","omhxvnwssrwzkau",41,"111.csv","","null","resources/maskTrios/BBA3.jpg","null","",NA,NA,NA,NA,""
"image-keyboard-response",188,134950,"0.0-4.58-2.58","omhxvnwssrwzkau",41,"111.csv","","null","resources/images/coin2.png","null","",NA,NA,NA,NA,""
"image-keyboard-response",189,135198,"0.0-4.59-0.59","omhxvnwssrwzkau",41,"111.csv","","245.90000000223517","resources/trios/L1T4A3.jpg","39","restless",0.5,0.4,0.8,0.186183140525073,"true"
"image-keyboard-response",190,135601,"0.0-4.59-1.59","omhxvnwssrwzkau",41,"111.csv","","null","resources/maskTrios/BBA3.jpg","null","",NA,NA,NA,NA,""
"image-keyboard-response",191,136805,"0.0-4.59-2.59","omhxvnwssrwzkau",41,"111.csv","","null","resources/images/coin2.png","null","",NA,NA,NA,NA,""
"image-keyboard-response",192,137134,"0.0-4.60-0.60","omhxvnwssrwzkau",41,"111.csv","","326.8999999985099","resources/trios/L1T4A3.jpg","39","restless",0.5,0.4,0.8,0.490291527403788,"true"
"image-keyboard-response",193,137537,"0.0-4.60-1.60","omhxvnwssrwzkau",41,"111.csv","","null","resources/maskTrios/BBA3.jpg","null","",NA,NA,NA,NA,""
"image-keyboard-response",194,138740,"0.0-4.60-2.60","omhxvnwssrwzkau",41,"111.csv","","null","resources/images/coin2.png","null","",NA,NA,NA,NA,""
"image-keyboard-response",195,138868,"0.0-4.61-0.61","omhxvnwssrwzkau",41,"111.csv","","126","resources/trios/L1T4A3.jpg","39","restless",0.5,0.4,0.8,0.586958030480296,"true"
"image-keyboard-response",196,139272,"0.0-4.61-1.61","omhxvnwssrwzkau",41,"111.csv","","null","resources/maskTrios/BBA3.jpg","null","",NA,NA,NA,NA,""
"image-keyboard-response",197,140476,"0.0-4.61-2.61","omhxvnwssrwzkau",41,"111.csv","","null","resources/images/coin2.png","null","",NA,NA,NA,NA,""
"image-keyboard-response",198,140492,"0.0-4.62-0.62","omhxvnwssrwzkau",41,"111.csv","","14.5","resources/trios/L1T4A3.jpg","39","restless",0.5,0.4,0.7,0.381108727746079,"true"
"image-keyboard-response",199,140894,"0.0-4.62-1.62","omhxvnwssrwzkau",41,"111.csv","","null","resources/maskTrios/BBA3.jpg","null","",NA,NA,NA,NA,""
"image-keyboard-response",200,142098,"0.0-4.62-2.62","omhxvnwssrwzkau",41,"111.csv","","null","resources/images/coin2.png","null","",NA,NA,NA,NA,""
"image-keyboard-response",201,142435,"0.0-4.63-0.63","omhxvnwssrwzkau",41,"111.csv","","335.19999999925494","resources/trios/L1T4A3.jpg","39","restless",0.5,0.4,0.7,0.569989456393931,"true"
"image-keyboard-response",202,142839,"0.0-4.63-1.63","omhxvnwssrwzkau",41,"111.csv","","null","resources/maskTrios/BBA3.jpg","null","",NA,NA,NA,NA,""
"image-keyboard-response",203,144042,"0.0-4.63-2.63","omhxvnwssrwzkau",41,"111.csv","","null","resources/images/coin2.png","null","",NA,NA,NA,NA,""
"image-keyboard-response",204,144279,"0.0-4.64-0.64","omhxvnwssrwzkau",41,"111.csv","","235","resources/trios/L1T4A3.jpg","39","restless",0.5,0.4,0.7,0.00205435764795103,"true"
"image-keyboard-response",205,144683,"0.0-4.64-1.64","omhxvnwssrwzkau",41,"111.csv","","null","resources/maskTrios/BBA3.jpg","null","",NA,NA,NA,NA,""
"image-keyboard-response",206,145886,"0.0-4.64-2.64","omhxvnwssrwzkau",41,"111.csv","","null","resources/images/coin2.png","null","",NA,NA,NA,NA,""
"image-keyboard-response",207,146002,"0.0-4.65-0.65","omhxvnwssrwzkau",41,"111.csv","","113.59999999776483","resources/trios/L1T4A3.jpg","39","restless",0.5,0.4,0.7,0.994507253362597,"false"
"image-keyboard-response",208,146405,"0.0-4.65-1.65","omhxvnwssrwzkau",41,"111.csv","","null","resources/maskTrios/BBA3.jpg","null","",NA,NA,NA,NA,""
"image-keyboard-response",209,147608,"0.0-4.65-2.65","omhxvnwssrwzkau",41,"111.csv","","null","resources/images/fishbone.png","null","",NA,NA,NA,NA,""
"image-keyboard-response",210,147720,"0.0-4.66-0.66","omhxvnwssrwzkau",41,"111.csv","","109.69999999925494","resources/trios/L1T4A3.jpg","39","restless",0.4,0.4,0.7,0.96182524363549,"false"
"image-keyboard-response",211,148123,"0.0-4.66-1.66","omhxvnwssrwzkau",41,"111.csv","","null","resources/maskTrios/BBA3.jpg","null","",NA,NA,NA,NA,""
"image-keyboard-response",212,149326,"0.0-4.66-2.66","omhxvnwssrwzkau",41,"111.csv","","null","resources/images/fishbone.png","null","",NA,NA,NA,NA,""
"image-keyboard-response",213,149841,"0.0-4.67-0.67","omhxvnwssrwzkau",41,"111.csv","","513","resources/trios/L1T4A3.jpg","37","restless",0.4,0.4,0.6,0.832156712794554,"false"
"image-keyboard-response",214,150244,"0.0-4.67-1.67","omhxvnwssrwzkau",41,"111.csv","","null","resources/maskTrios/L1BB.jpg","null","",NA,NA,NA,NA,""
"image-keyboard-response",215,151448,"0.0-4.67-2.67","omhxvnwssrwzkau",41,"111.csv","","null","resources/images/fishbone.png","null","",NA,NA,NA,NA,""
"image-keyboard-response",216,151576,"0.0-4.68-0.68","omhxvnwssrwzkau",41,"111.csv","","126.30000000074506","resources/trios/L1T4A3.jpg","39","restless",0.4,0.4,0.6,0.462967425816358,"true"
"image-keyboard-response",217,151979,"0.0-4.68-1.68","omhxvnwssrwzkau",41,"111.csv","","null","resources/maskTrios/BBA3.jpg","null","",NA,NA,NA,NA,""
"image-keyboard-response",218,153182,"0.0-4.68-2.68","omhxvnwssrwzkau",41,"111.csv","","null","resources/images/coin2.png","null","",NA,NA,NA,NA,""
"image-keyboard-response",219,153344,"0.0-4.69-0.69","omhxvnwssrwzkau",41,"111.csv","","159.5","resources/trios/L1T4A3.jpg","39","restless",0.4,0.4,0.6,0.355994682858055,"true"
"image-keyboard-response",220,153748,"0.0-4.69-1.69","omhxvnwssrwzkau",41,"111.csv","","null","resources/maskTrios/BBA3.jpg","null","",NA,NA,NA,NA,""
"image-keyboard-response",221,154951,"0.0-4.69-2.69","omhxvnwssrwzkau",41,"111.csv","","null","resources/images/coin2.png","null","",NA,NA,NA,NA,""
"image-keyboard-response",222,155155,"0.0-4.70-0.70","omhxvnwssrwzkau",41,"111.csv","","202.5","resources/trios/L1T4A3.jpg","39","restless",0.4,0.4,0.6,0.152447624570299,"true"
"image-keyboard-response",223,155558,"0.0-4.70-1.70","omhxvnwssrwzkau",41,"111.csv","","null","resources/maskTrios/BBA3.jpg","null","",NA,NA,NA,NA,""
"image-keyboard-response",224,156762,"0.0-4.70-2.70","omhxvnwssrwzkau",41,"111.csv","","null","resources/images/coin2.png","null","",NA,NA,NA,NA,""
"image-keyboard-response",225,156940,"0.0-4.71-0.71","omhxvnwssrwzkau",41,"111.csv","","177.10000000149012","resources/trios/L1T4A3.jpg","39","restless",0.4,0.4,0.6,0.735936820684525,"false"
"image-keyboard-response",226,157344,"0.0-4.71-1.71","omhxvnwssrwzkau",41,"111.csv","","null","resources/maskTrios/BBA3.jpg","null","",NA,NA,NA,NA,""
"image-keyboard-response",227,158546,"0.0-4.71-2.71","omhxvnwssrwzkau",41,"111.csv","","null","resources/images/fishbone.png","null","",NA,NA,NA,NA,""
"image-keyboard-response",228,158891,"0.0-4.72-0.72","omhxvnwssrwzkau",41,"111.csv","","343","resources/trios/L1T4A3.jpg","38","restless",0.4,0.4,0.6,0.0174690185831627,"true"
"image-keyboard-response",229,159294,"0.0-4.72-1.72","omhxvnwssrwzkau",41,"111.csv","","null","resources/maskTrios/BT4B.jpg","null","",NA,NA,NA,NA,""
"image-keyboard-response",230,160497,"0.0-4.72-2.72","omhxvnwssrwzkau",41,"111.csv","","null","resources/images/coin2.png","null","",NA,NA,NA,NA,""
"image-keyboard-response",231,160773,"0.0-4.73-0.73","omhxvnwssrwzkau",41,"111.csv","","274","resources/trios/L1T4A3.jpg","38","restless",0.3,0.4,0.6,0.474529512848687,"false"
"image-keyboard-response",232,161176,"0.0-4.73-1.73","omhxvnwssrwzkau",41,"111.csv","","null","resources/maskTrios/BT4B.jpg","null","",NA,NA,NA,NA,""
"image-keyboard-response",233,162380,"0.0-4.73-2.73","omhxvnwssrwzkau",41,"111.csv","","null","resources/images/fishbone.png","null","",NA,NA,NA,NA,""
"image-keyboard-response",234,162451,"0.0-4.74-0.74","omhxvnwssrwzkau",41,"111.csv","","69.69999999925494","resources/trios/L1T4A3.jpg","37","restless",0.3,0.4,0.6,0.687822039576438,"false"
"image-keyboard-response",235,162854,"0.0-4.74-1.74","omhxvnwssrwzkau",41,"111.csv","","null","resources/maskTrios/L1BB.jpg","null","",NA,NA,NA,NA,""
"image-keyboard-response",236,164057,"0.0-4.74-2.74","omhxvnwssrwzkau",41,"111.csv","","null","resources/images/fishbone.png","null","",NA,NA,NA,NA,""
"image-keyboard-response",237,164110,"0.0-4.75-0.75","omhxvnwssrwzkau",41,"111.csv","","50.899999998509884","resources/trios/L1T4A3.jpg","39","restless",0.3,0.4,0.6,0.888331355632898,"false"
"image-keyboard-response",238,164512,"0.0-4.75-1.75","omhxvnwssrwzkau",41,"111.csv","","null","resources/maskTrios/BBA3.jpg","null","",NA,NA,NA,NA,""
"image-keyboard-response",239,165716,"0.0-4.75-2.75","omhxvnwssrwzkau",41,"111.csv","","null","resources/images/fishbone.png","null","",NA,NA,NA,NA,""
"image-keyboard-response",240,166021,"0.0-4.76-0.76","omhxvnwssrwzkau",41,"111.csv","","303","resources/trios/L1T4A3.jpg","39","restless",0.3,0.4,0.6,0.775968719733755,"false"
"image-keyboard-response",241,166425,"0.0-4.76-1.76","omhxvnwssrwzkau",41,"111.csv","","null","resources/maskTrios/BBA3.jpg","null","",NA,NA,NA,NA,""
"image-keyboard-response",242,167628,"0.0-4.76-2.76","omhxvnwssrwzkau",41,"111.csv","","null","resources/images/fishbone.png","null","",NA,NA,NA,NA,""
"image-keyboard-response",243,167756,"0.0-4.77-0.77","omhxvnwssrwzkau",41,"111.csv","","126.5","resources/trios/L1T4A3.jpg","39","restless",0.3,0.4,0.6,0.696651234230067,"false"
"image-keyboard-response",244,168160,"0.0-4.77-1.77","omhxvnwssrwzkau",41,"111.csv","","null","resources/maskTrios/BBA3.jpg","null","",NA,NA,NA,NA,""
"image-keyboard-response",245,169362,"0.0-4.77-2.77","omhxvnwssrwzkau",41,"111.csv","","null","resources/images/fishbone.png","null","",NA,NA,NA,NA,""
"image-keyboard-response",246,169433,"0.0-4.78-0.78","omhxvnwssrwzkau",41,"111.csv","","69.19999999925494","resources/trios/L1T4A3.jpg","38","restless",0.3,0.4,0.6,0.752398594558402,"false"
"image-keyboard-response",247,169836,"0.0-4.78-1.78","omhxvnwssrwzkau",41,"111.csv","","null","resources/maskTrios/BT4B.jpg","null","",NA,NA,NA,NA,""
"image-keyboard-response",248,171039,"0.0-4.78-2.78","omhxvnwssrwzkau",41,"111.csv","","null","resources/images/fishbone.png","null","",NA,NA,NA,NA,""
"image-keyboard-response",249,171043,"0.0-4.79-0.79","omhxvnwssrwzkau",41,"111.csv","","2.900000002235174","resources/trios/L1T4A3.jpg","39","restless",0.4,0.4,0.5,0.0379343286633209,"true"
"image-keyboard-response",250,171446,"0.0-4.79-1.79","omhxvnwssrwzkau",41,"111.csv","","null","resources/maskTrios/BBA3.jpg","null","",NA,NA,NA,NA,""
"image-keyboard-response",251,172649,"0.0-4.79-2.79","omhxvnwssrwzkau",41,"111.csv","","null","resources/images/coin2.png","null","",NA,NA,NA,NA,""
"image-keyboard-response",252,172838,"0.0-4.80-0.80","omhxvnwssrwzkau",41,"111.csv","","186.5","resources/trios/L1T4A3.jpg","39","restless",0.4,0.4,0.5,0.71094754177555,"false"
"image-keyboard-response",253,173241,"0.0-4.80-1.80","omhxvnwssrwzkau",41,"111.csv","","null","resources/maskTrios/BBA3.jpg","null","",NA,NA,NA,NA,""
"image-keyboard-response",254,174444,"0.0-4.80-2.80","omhxvnwssrwzkau",41,"111.csv","","null","resources/images/fishbone.png","null","",NA,NA,NA,NA,""
"image-keyboard-response",255,174445,"0.0-4.81-0.81","omhxvnwssrwzkau",41,"111.csv","","0.20000000298023224","resources/trios/L1T4A3.jpg","37","restless",0.4,0.5,0.5,0.38341648338309,"true"
"image-keyboard-response",256,174848,"0.0-4.81-1.81","omhxvnwssrwzkau",41,"111.csv","","null","resources/maskTrios/L1BB.jpg","null","",NA,NA,NA,NA,""
"image-keyboard-response",257,176051,"0.0-4.81-2.81","omhxvnwssrwzkau",41,"111.csv","","null","resources/images/coin2.png","null","",NA,NA,NA,NA,""
"image-keyboard-response",258,176088,"0.0-4.82-0.82","omhxvnwssrwzkau",41,"111.csv","","34.80000000074506","resources/trios/L1T4A3.jpg","37","restless",0.4,0.5,0.5,0.620264950328553,"false"
"image-keyboard-response",259,176491,"0.0-4.82-1.82","omhxvnwssrwzkau",41,"111.csv","","null","resources/maskTrios/L1BB.jpg","null","",NA,NA,NA,NA,""
"image-keyboard-response",260,177694,"0.0-4.82-2.82","omhxvnwssrwzkau",41,"111.csv","","null","resources/images/fishbone.png","null","",NA,NA,NA,NA,""
"image-keyboard-response",261,177709,"0.0-4.83-0.83","omhxvnwssrwzkau",41,"111.csv","","13.100000001490116","resources/trios/L1T4A3.jpg","37","restless",0.3,0.5,0.5,0.776238065389657,"false"
"image-keyboard-response",262,178111,"0.0-4.83-1.83","omhxvnwssrwzkau",41,"111.csv","","null","resources/maskTrios/L1BB.jpg","null","",NA,NA,NA,NA,""
"image-keyboard-response",263,179315,"0.0-4.83-2.83","omhxvnwssrwzkau",41,"111.csv","","null","resources/images/fishbone.png","null","",NA,NA,NA,NA,""
"image-keyboard-response",264,179476,"0.0-4.84-0.84","omhxvnwssrwzkau",41,"111.csv","","158.89999999850988","resources/trios/L1T4A3.jpg","37","restless",0.3,0.6,0.4,0.32963065956036,"false"
"image-keyboard-response",265,179879,"0.0-4.84-1.84","omhxvnwssrwzkau",41,"111.csv","","null","resources/maskTrios/L1BB.jpg","null","",NA,NA,NA,NA,""
"image-keyboard-response",266,181082,"0.0-4.84-2.84","omhxvnwssrwzkau",41,"111.csv","","null","resources/images/fishbone.png","null","",NA,NA,NA,NA,""
"image-keyboard-response",267,181281,"0.0-4.85-0.85","omhxvnwssrwzkau",41,"111.csv","","197.19999999925494","resources/trios/L1T4A3.jpg","38","restless",0.3,0.6,0.4,0.106805365796486,"true"
"image-keyboard-response",268,181684,"0.0-4.85-1.85","omhxvnwssrwzkau",41,"111.csv","","null","resources/maskTrios/BT4B.jpg","null","",NA,NA,NA,NA,""
"image-keyboard-response",269,182887,"0.0-4.85-2.85","omhxvnwssrwzkau",41,"111.csv","","null","resources/images/coin2.png","null","",NA,NA,NA,NA,""
"image-keyboard-response",270,182889,"0.0-4.86-0.86","omhxvnwssrwzkau",41,"111.csv","","0.29999999701976776","resources/trios/L1T4A3.jpg","38","restless",0.3,0.6,0.4,0.988083234285249,"false"
"image-keyboard-response",271,183292,"0.0-4.86-1.86","omhxvnwssrwzkau",41,"111.csv","","null","resources/maskTrios/BT4B.jpg","null","",NA,NA,NA,NA,""
"image-keyboard-response",272,184494,"0.0-4.86-2.86","omhxvnwssrwzkau",41,"111.csv","","null","resources/images/fishbone.png","null","",NA,NA,NA,NA,""
"image-keyboard-response",273,184600,"0.0-4.87-0.87","omhxvnwssrwzkau",41,"111.csv","","103.30000000074506","resources/trios/L1T4A3.jpg","38","restless",0.3,0.6,0.3,0.142264860873473,"true"
"image-keyboard-response",274,185002,"0.0-4.87-1.87","omhxvnwssrwzkau",41,"111.csv","","null","resources/maskTrios/BT4B.jpg","null","",NA,NA,NA,NA,""
"image-keyboard-response",275,186206,"0.0-4.87-2.87","omhxvnwssrwzkau",41,"111.csv","","null","resources/images/coin2.png","null","",NA,NA,NA,NA,""
"image-keyboard-response",276,186495,"0.0-4.88-0.88","omhxvnwssrwzkau",41,"111.csv","","287.1000000014901","resources/trios/L1T4A3.jpg","38","restless",0.3,0.7,0.3,0.478283351813224,"true"
"image-keyboard-response",277,186897,"0.0-4.88-1.88","omhxvnwssrwzkau",41,"111.csv","","null","resources/maskTrios/BT4B.jpg","null","",NA,NA,NA,NA,""
"image-keyboard-response",278,188101,"0.0-4.88-2.88","omhxvnwssrwzkau",41,"111.csv","","null","resources/images/coin2.png","null","",NA,NA,NA,NA,""
"image-keyboard-response",279,188442,"0.0-4.89-0.89","omhxvnwssrwzkau",41,"111.csv","","339","resources/trios/L1T4A3.jpg","38","restless",0.3,0.7,0.3,0.937979247053611,"false"
"image-keyboard-response",280,188844,"0.0-4.89-1.89","omhxvnwssrwzkau",41,"111.csv","","null","resources/maskTrios/BT4B.jpg","null","",NA,NA,NA,NA,""
"image-keyboard-response",281,190047,"0.0-4.89-2.89","omhxvnwssrwzkau",41,"111.csv","","null","resources/images/fishbone.png","null","",NA,NA,NA,NA,""
"image-keyboard-response",282,190147,"0.0-4.90-0.90","omhxvnwssrwzkau",41,"111.csv","","98.09999999776483","resources/trios/L1T4A3.jpg","38","restless",0.3,0.7,0.3,0.421946721183018,"true"
"image-keyboard-response",283,190550,"0.0-4.90-1.90","omhxvnwssrwzkau",41,"111.csv","","null","resources/maskTrios/BT4B.jpg","null","",NA,NA,NA,NA,""
"image-keyboard-response",284,191754,"0.0-4.90-2.90","omhxvnwssrwzkau",41,"111.csv","","null","resources/images/coin2.png","null","",NA,NA,NA,NA,""
"image-keyboard-response",285,191893,"0.0-4.91-0.91","omhxvnwssrwzkau",41,"111.csv","","137.59999999776483","resources/trios/L1T4A3.jpg","38","restless",0.3,0.7,0.4,0.52270036734634,"true"
"image-keyboard-response",286,192296,"0.0-4.91-1.91","omhxvnwssrwzkau",41,"111.csv","","null","resources/maskTrios/BT4B.jpg","null","",NA,NA,NA,NA,""
"image-keyboard-response",287,193499,"0.0-4.91-2.91","omhxvnwssrwzkau",41,"111.csv","","null","resources/images/coin2.png","null","",NA,NA,NA,NA,""
"image-keyboard-response",288,194216,"0.0-4.92-0.92","omhxvnwssrwzkau",41,"111.csv","","715.1999999992549","resources/trios/L1T4A3.jpg","38","restless",0.4,0.7,0.4,0.323612087023836,"true"
"image-keyboard-response",289,194619,"0.0-4.92-1.92","omhxvnwssrwzkau",41,"111.csv","","null","resources/maskTrios/BT4B.jpg","null","",NA,NA,NA,NA,""
"image-keyboard-response",290,195822,"0.0-4.92-2.92","omhxvnwssrwzkau",41,"111.csv","","null","resources/images/coin2.png","null","",NA,NA,NA,NA,""
"image-keyboard-response",291,195879,"0.0-4.93-0.93","omhxvnwssrwzkau",41,"111.csv","","55","resources/trios/L1T4A3.jpg","38","restless",0.4,0.7,0.3,0.261171089915536,"true"
"image-keyboard-response",292,196282,"0.0-4.93-1.93","omhxvnwssrwzkau",41,"111.csv","","null","resources/maskTrios/BT4B.jpg","null","",NA,NA,NA,NA,""
"image-keyboard-response",293,197486,"0.0-4.93-2.93","omhxvnwssrwzkau",41,"111.csv","","null","resources/images/coin2.png","null","",NA,NA,NA,NA,""
"image-keyboard-response",294,197583,"0.0-4.94-0.94","omhxvnwssrwzkau",41,"111.csv","","95.5","resources/trios/L1T4A3.jpg","38","restless",0.4,0.7,0.3,0.466308094108348,"true"
"image-keyboard-response",295,197986,"0.0-4.94-1.94","omhxvnwssrwzkau",41,"111.csv","","null","resources/maskTrios/BT4B.jpg","null","",NA,NA,NA,NA,""
"image-keyboard-response",296,199189,"0.0-4.94-2.94","omhxvnwssrwzkau",41,"111.csv","","null","resources/images/coin2.png","null","",NA,NA,NA,NA,""
"image-keyboard-response",297,199200,"0.0-4.95-0.95","omhxvnwssrwzkau",41,"111.csv","","8.799999997019768","resources/trios/L1T4A3.jpg","38","restless",0.4,0.7,0.3,0.698426596593632,"true"
"image-keyboard-response",298,199602,"0.0-4.95-1.95","omhxvnwssrwzkau",41,"111.csv","","null","resources/maskTrios/BT4B.jpg","null","",NA,NA,NA,NA,""
"image-keyboard-response",299,200804,"0.0-4.95-2.95","omhxvnwssrwzkau",41,"111.csv","","null","resources/images/coin2.png","null","",NA,NA,NA,NA,""
"image-keyboard-response",300,200838,"0.0-4.96-0.96","omhxvnwssrwzkau",41,"111.csv","","32.599999997764826","resources/trios/L1T4A3.jpg","38","restless",0.4,0.7,0.2,0.171755306447624,"true"
"image-keyboard-response",301,201241,"0.0-4.96-1.96","omhxvnwssrwzkau",41,"111.csv","","null","resources/maskTrios/BT4B.jpg","null","",NA,NA,NA,NA,""
"image-keyboard-response",302,202444,"0.0-4.96-2.96","omhxvnwssrwzkau",41,"111.csv","","null","resources/images/coin2.png","null","",NA,NA,NA,NA,""
"image-keyboard-response",303,202598,"0.0-4.97-0.97","omhxvnwssrwzkau",41,"111.csv","","151.60000000149012","resources/trios/L1T4A3.jpg","38","restless",0.3,0.7,0.2,0.397032318541084,"true"
"image-keyboard-response",304,203001,"0.0-4.97-1.97","omhxvnwssrwzkau",41,"111.csv","","null","resources/maskTrios/BT4B.jpg","null","",NA,NA,NA,NA,""
"image-keyboard-response",305,204204,"0.0-4.97-2.97","omhxvnwssrwzkau",41,"111.csv","","null","resources/images/coin2.png","null","",NA,NA,NA,NA,""
"image-keyboard-response",306,204211,"0.0-4.98-0.98","omhxvnwssrwzkau",41,"111.csv","","5.600000001490116","resources/trios/L1T4A3.jpg","38","restless",0.3,0.7,0.2,0.553256708113989,"true"
"image-keyboard-response",307,204614,"0.0-4.98-1.98","omhxvnwssrwzkau",41,"111.csv","","null","resources/maskTrios/BT4B.jpg","null","",NA,NA,NA,NA,""
"image-keyboard-response",308,205817,"0.0-4.98-2.98","omhxvnwssrwzkau",41,"111.csv","","null","resources/images/coin2.png","null","",NA,NA,NA,NA,""
"image-keyboard-response",309,205947,"0.0-4.99-0.99","omhxvnwssrwzkau",41,"111.csv","","127.29999999701977","resources/trios/L1T4A3.jpg","38","restless",0.3,0.7,0.2,0.0713599784539243,"true"
"image-keyboard-response",310,206349,"0.0-4.99-1.99","omhxvnwssrwzkau",41,"111.csv","","null","resources/maskTrios/BT4B.jpg","null","",NA,NA,NA,NA,""
"image-keyboard-response",311,207552,"0.0-4.99-2.99","omhxvnwssrwzkau",41,"111.csv","","null","resources/images/coin2.png","null","",NA,NA,NA,NA,""
"image-keyboard-response",312,207645,"0.0-4.100-0.100","omhxvnwssrwzkau",41,"111.csv","","91.30000000074506","resources/trios/L1T4A3.jpg","38","restless",0.3,0.7,0.2,0.628536592903683,"true"
"image-keyboard-response",313,208048,"0.0-4.100-1.100","omhxvnwssrwzkau",41,"111.csv","","null","resources/maskTrios/BT4B.jpg","null","",NA,NA,NA,NA,""
"image-keyboard-response",314,209251,"0.0-4.100-2.100","omhxvnwssrwzkau",41,"111.csv","","null","resources/images/coin2.png","null","",NA,NA,NA,NA,""
"image-keyboard-response",315,209349,"0.0-4.101-0.101","omhxvnwssrwzkau",41,"111.csv","","95.80000000074506","resources/trios/L1T4A3.jpg","38","restless",0.3,0.7,0.2,0.0736959028989701,"true"
"image-keyboard-response",316,209752,"0.0-4.101-1.101","omhxvnwssrwzkau",41,"111.csv","","null","resources/maskTrios/BT4B.jpg","null","",NA,NA,NA,NA,""
"image-keyboard-response",317,210955,"0.0-4.101-2.101","omhxvnwssrwzkau",41,"111.csv","","null","resources/images/coin2.png","null","",NA,NA,NA,NA,""
"image-keyboard-response",318,210961,"0.0-4.102-0.102","omhxvnwssrwzkau",41,"111.csv","","4","resources/trios/L1T4A3.jpg","38","restless",0.3,0.7,0.2,0.356751187330394,"true"
"image-keyboard-response",319,211364,"0.0-4.102-1.102","omhxvnwssrwzkau",41,"111.csv","","null","resources/maskTrios/BT4B.jpg","null","",NA,NA,NA,NA,""
"image-keyboard-response",320,212566,"0.0-4.102-2.102","omhxvnwssrwzkau",41,"111.csv","","null","resources/images/coin2.png","null","",NA,NA,NA,NA,""
"image-keyboard-response",321,212712,"0.0-4.103-0.103","omhxvnwssrwzkau",41,"111.csv","","144.30000000074506","resources/trios/L1T4A3.jpg","38","restless",0.3,0.7,0.2,0.860269225068534,"false"
"image-keyboard-response",322,213116,"0.0-4.103-1.103","omhxvnwssrwzkau",41,"111.csv","","null","resources/maskTrios/BT4B.jpg","null","",NA,NA,NA,NA,""
"image-keyboard-response",323,214319,"0.0-4.103-2.103","omhxvnwssrwzkau",41,"111.csv","","null","resources/images/fishbone.png","null","",NA,NA,NA,NA,""
"image-keyboard-response",324,214329,"0.0-4.104-0.104","omhxvnwssrwzkau",41,"111.csv","","8.799999997019768","resources/trios/L1T4A3.jpg","39","restless",0.3,0.7,0.2,0.639171266342677,"false"
"image-keyboard-response",325,214732,"0.0-4.104-1.104","omhxvnwssrwzkau",41,"111.csv","","null","resources/maskTrios/BBA3.jpg","null","",NA,NA,NA,NA,""
"image-keyboard-response",326,215935,"0.0-4.104-2.104","omhxvnwssrwzkau",41,"111.csv","","null","resources/images/fishbone.png","null","",NA,NA,NA,NA,""
"image-keyboard-response",327,216519,"0.0-4.105-0.105","omhxvnwssrwzkau",41,"111.csv","","583.1999999992549","resources/trios/L1T4A3.jpg","37","restless",0.3,0.7,0.2,0.16358420897132,"true"
"image-keyboard-response",328,216922,"0.0-4.105-1.105","omhxvnwssrwzkau",41,"111.csv","","null","resources/maskTrios/L1BB.jpg","null","",NA,NA,NA,NA,""
"image-keyboard-response",329,218126,"0.0-4.105-2.105","omhxvnwssrwzkau",41,"111.csv","","null","resources/images/coin2.png","null","",NA,NA,NA,NA,""
"image-keyboard-response",330,218334,"0.0-4.106-0.106","omhxvnwssrwzkau",41,"111.csv","","206.40000000223517","resources/trios/L1T4A3.jpg","37","restless",0.3,0.7,0.2,0.815590158802126,"false"
"image-keyboard-response",331,218736,"0.0-4.106-1.106","omhxvnwssrwzkau",41,"111.csv","","null","resources/maskTrios/L1BB.jpg","null","",NA,NA,NA,NA,""
"image-keyboard-response",332,219939,"0.0-4.106-2.106","omhxvnwssrwzkau",41,"111.csv","","null","resources/images/fishbone.png","null","",NA,NA,NA,NA,""
"image-keyboard-response",333,220029,"0.0-4.107-0.107","omhxvnwssrwzkau",41,"111.csv","","87.79999999701977","resources/trios/L1T4A3.jpg","37","restless",0.3,0.7,0.2,0.31796570541746,"false"
"image-keyboard-response",334,220431,"0.0-4.107-1.107","omhxvnwssrwzkau",41,"111.csv","","null","resources/maskTrios/L1BB.jpg","null","",NA,NA,NA,NA,""
"image-keyboard-response",335,221635,"0.0-4.107-2.107","omhxvnwssrwzkau",41,"111.csv","","null","resources/images/fishbone.png","null","",NA,NA,NA,NA,""
"image-keyboard-response",336,221664,"0.0-4.108-0.108","omhxvnwssrwzkau",41,"111.csv","","27.599999997764826","resources/trios/L1T4A3.jpg","38","restless",0.3,0.7,0.2,0.151728598828941,"true"
"image-keyboard-response",337,222066,"0.0-4.108-1.108","omhxvnwssrwzkau",41,"111.csv","","null","resources/maskTrios/BT4B.jpg","null","",NA,NA,NA,NA,""
"image-keyboard-response",338,223269,"0.0-4.108-2.108","omhxvnwssrwzkau",41,"111.csv","","null","resources/images/coin2.png","null","",NA,NA,NA,NA,""
"image-keyboard-response",339,223295,"0.0-4.109-0.109","omhxvnwssrwzkau",41,"111.csv","","23.899999998509884","resources/trios/L1T4A3.jpg","38","restless",0.3,0.7,0.2,0.37970736355177,"true"
"image-keyboard-response",340,223697,"0.0-4.109-1.109","omhxvnwssrwzkau",41,"111.csv","","null","resources/maskTrios/BT4B.jpg","null","",NA,NA,NA,NA,""
"image-keyboard-response",341,224901,"0.0-4.109-2.109","omhxvnwssrwzkau",41,"111.csv","","null","resources/images/coin2.png","null","",NA,NA,NA,NA,""
"image-keyboard-response",342,225122,"0.0-4.110-0.110","omhxvnwssrwzkau",41,"111.csv","","219.09999999776483","resources/trios/L1T4A3.jpg","38","restless",0.3,0.7,0.2,0.389880928690845,"true"
"image-keyboard-response",343,225525,"0.0-4.110-1.110","omhxvnwssrwzkau",41,"111.csv","","null","resources/maskTrios/BT4B.jpg","null","",NA,NA,NA,NA,""
"image-keyboard-response",344,226729,"0.0-4.110-2.110","omhxvnwssrwzkau",41,"111.csv","","null","resources/images/coin2.png","null","",NA,NA,NA,NA,""
"image-keyboard-response",345,226738,"0.0-4.111-0.111","omhxvnwssrwzkau",41,"111.csv","","7.600000001490116","resources/trios/L1T4A3.jpg","38","restless",0.3,0.7,0.2,0.8033953509228,"false"
"image-keyboard-response",346,227142,"0.0-4.111-1.111","omhxvnwssrwzkau",41,"111.csv","","null","resources/maskTrios/BT4B.jpg","null","",NA,NA,NA,NA,""
"image-keyboard-response",347,228345,"0.0-4.111-2.111","omhxvnwssrwzkau",41,"111.csv","","null","resources/images/fishbone.png","null","",NA,NA,NA,NA,""
"image-keyboard-response",348,228420,"0.0-4.112-0.112","omhxvnwssrwzkau",41,"111.csv","","73.10000000149012","resources/trios/L1T4A3.jpg","38","restless",0.4,0.7,0.2,0.314511948388064,"true"
"image-keyboard-response",349,228823,"0.0-4.112-1.112","omhxvnwssrwzkau",41,"111.csv","","null","resources/maskTrios/BT4B.jpg","null","",NA,NA,NA,NA,""
"image-keyboard-response",350,230026,"0.0-4.112-2.112","omhxvnwssrwzkau",41,"111.csv","","null","resources/images/coin2.png","null","",NA,NA,NA,NA,""
"image-keyboard-response",351,230049,"0.0-4.113-0.113","omhxvnwssrwzkau",41,"111.csv","","21.199999999254942","resources/trios/L1T4A3.jpg","38","restless",0.4,0.7,0.2,0.228075085802039,"true"
"image-keyboard-response",352,230450,"0.0-4.113-1.113","omhxvnwssrwzkau",41,"111.csv","","null","resources/maskTrios/BT4B.jpg","null","",NA,NA,NA,NA,""
"image-keyboard-response",353,231653,"0.0-4.113-2.113","omhxvnwssrwzkau",41,"111.csv","","null","resources/images/coin2.png","null","",NA,NA,NA,NA,""
"image-keyboard-response",354,231777,"0.0-4.114-0.114","omhxvnwssrwzkau",41,"111.csv","","121.80000000074506","resources/trios/L1T4A3.jpg","37","restless",0.4,0.7,0.2,0.94920777361958,"false"
"image-keyboard-response",355,232181,"0.0-4.114-1.114","omhxvnwssrwzkau",41,"111.csv","","null","resources/maskTrios/L1BB.jpg","null","",NA,NA,NA,NA,""
"image-keyboard-response",356,233384,"0.0-4.114-2.114","omhxvnwssrwzkau",41,"111.csv","","null","resources/images/fishbone.png","null","",NA,NA,NA,NA,""
"image-keyboard-response",357,233455,"0.0-4.115-0.115","omhxvnwssrwzkau",41,"111.csv","","70.19999999925494","resources/trios/L1T4A3.jpg","38","restless",0.4,0.7,0.2,0.631611894505536,"true"
"image-keyboard-response",358,233858,"0.0-4.115-1.115","omhxvnwssrwzkau",41,"111.csv","","null","resources/maskTrios/BT4B.jpg","null","",NA,NA,NA,NA,""
"image-keyboard-response",359,235062,"0.0-4.115-2.115","omhxvnwssrwzkau",41,"111.csv","","null","resources/images/coin2.png","null","",NA,NA,NA,NA,""
"image-keyboard-response",360,235169,"0.0-4.116-0.116","omhxvnwssrwzkau",41,"111.csv","","104.90000000223517","resources/trios/L1T4A3.jpg","39","restless",0.4,0.7,0.2,0.895370597561446,"false"
"image-keyboard-response",361,235572,"0.0-4.116-1.116","omhxvnwssrwzkau",41,"111.csv","","null","resources/maskTrios/BBA3.jpg","null","",NA,NA,NA,NA,""
"image-keyboard-response",362,236775,"0.0-4.116-2.116","omhxvnwssrwzkau",41,"111.csv","","null","resources/images/fishbone.png","null","",NA,NA,NA,NA,""
"image-keyboard-response",363,236873,"0.0-4.117-0.117","omhxvnwssrwzkau",41,"111.csv","","95.90000000223517","resources/trios/L1T4A3.jpg","38","restless",0.4,0.7,0.2,0.95355317220441,"false"
"image-keyboard-response",364,237276,"0.0-4.117-1.117","omhxvnwssrwzkau",41,"111.csv","","null","resources/maskTrios/BT4B.jpg","null","",NA,NA,NA,NA,""
"image-keyboard-response",365,238479,"0.0-4.117-2.117","omhxvnwssrwzkau",41,"111.csv","","null","resources/images/fishbone.png","null","",NA,NA,NA,NA,""
"image-keyboard-response",366,239126,"0.0-4.118-0.118","omhxvnwssrwzkau",41,"111.csv","","645.2999999970198","resources/trios/L1T4A3.jpg","37","restless",0.4,0.7,0.2,0.481467297058394,"false"
"image-keyboard-response",367,239530,"0.0-4.118-1.118","omhxvnwssrwzkau",41,"111.csv","","null","resources/maskTrios/L1BB.jpg","null","",NA,NA,NA,NA,""
"image-keyboard-response",368,240732,"0.0-4.118-2.118","omhxvnwssrwzkau",41,"111.csv","","null","resources/images/fishbone.png","null","",NA,NA,NA,NA,""
"image-keyboard-response",369,240897,"0.0-4.119-0.119","omhxvnwssrwzkau",41,"111.csv","","163.19999999925494","resources/trios/L1T4A3.jpg","38","restless",0.4,0.7,0.2,0.362397664924446,"true"
"image-keyboard-response",370,241300,"0.0-4.119-1.119","omhxvnwssrwzkau",41,"111.csv","","null","resources/maskTrios/BT4B.jpg","null","",NA,NA,NA,NA,""
"image-keyboard-response",371,242502,"0.0-4.119-2.119","omhxvnwssrwzkau",41,"111.csv","","null","resources/images/coin2.png","null","",NA,NA,NA,NA,""
"image-keyboard-response",372,242690,"0.0-4.120-0.120","omhxvnwssrwzkau",41,"111.csv","","185.89999999850988","resources/trios/L1T4A3.jpg","38","restless",0.4,0.7,0.2,0.526609743947128,"true"
"image-keyboard-response",373,243094,"0.0-4.120-1.120","omhxvnwssrwzkau",41,"111.csv","","null","resources/maskTrios/BT4B.jpg","null","",NA,NA,NA,NA,""
"image-keyboard-response",374,244297,"0.0-4.120-2.120","omhxvnwssrwzkau",41,"111.csv","","null","resources/images/coin2.png","null","",NA,NA,NA,NA,""
"image-keyboard-response",375,244671,"0.0-4.121-0.121","omhxvnwssrwzkau",41,"111.csv","","372.3999999985099","resources/trios/L1T4A3.jpg","38","restless",0.5,0.7,0.2,0.436787805369976,"true"
"image-keyboard-response",376,245074,"0.0-4.121-1.121","omhxvnwssrwzkau",41,"111.csv","","null","resources/maskTrios/BT4B.jpg","null","",NA,NA,NA,NA,""
"image-keyboard-response",377,246277,"0.0-4.121-2.121","omhxvnwssrwzkau",41,"111.csv","","null","resources/images/coin2.png","null","",NA,NA,NA,NA,""
"image-keyboard-response",378,246281,"0.0-4.122-0.122","omhxvnwssrwzkau",41,"111.csv","","3.100000001490116","resources/trios/L1T4A3.jpg","38","restless",0.5,0.7,0.2,0.472968105256098,"true"
"image-keyboard-response",379,246684,"0.0-4.122-1.122","omhxvnwssrwzkau",41,"111.csv","","null","resources/maskTrios/BT4B.jpg","null","",NA,NA,NA,NA,""
"image-keyboard-response",380,247887,"0.0-4.122-2.122","omhxvnwssrwzkau",41,"111.csv","","null","resources/images/coin2.png","null","",NA,NA,NA,NA,""
"image-keyboard-response",381,247912,"0.0-4.123-0.123","omhxvnwssrwzkau",41,"111.csv","","23.199999999254942","resources/trios/L1T4A3.jpg","38","restless",0.5,0.7,0.2,0.336991196680242,"true"
"image-keyboard-response",382,248314,"0.0-4.123-1.123","omhxvnwssrwzkau",41,"111.csv","","null","resources/maskTrios/BT4B.jpg","null","",NA,NA,NA,NA,""
"image-keyboard-response",383,249517,"0.0-4.123-2.123","omhxvnwssrwzkau",41,"111.csv","","null","resources/images/coin2.png","null","",NA,NA,NA,NA,""
"image-keyboard-response",384,249603,"0.0-4.124-0.124","omhxvnwssrwzkau",41,"111.csv","","84","resources/trios/L1T4A3.jpg","38","restless",0.5,0.7,0.2,0.0742969614043942,"true"
"image-keyboard-response",385,250006,"0.0-4.124-1.124","omhxvnwssrwzkau",41,"111.csv","","null","resources/maskTrios/BT4B.jpg","null","",NA,NA,NA,NA,""
"image-keyboard-response",386,251210,"0.0-4.124-2.124","omhxvnwssrwzkau",41,"111.csv","","null","resources/images/coin2.png","null","",NA,NA,NA,NA,""
"image-keyboard-response",387,251441,"0.0-4.125-0.125","omhxvnwssrwzkau",41,"111.csv","","229.30000000074506","resources/trios/L1T4A3.jpg","38","restless",0.5,0.7,0.2,0.555968769504916,"true"
"image-keyboard-response",388,251845,"0.0-4.125-1.125","omhxvnwssrwzkau",41,"111.csv","","null","resources/maskTrios/BT4B.jpg","null","",NA,NA,NA,NA,""
"image-keyboard-response",389,253048,"0.0-4.125-2.125","omhxvnwssrwzkau",41,"111.csv","","null","resources/images/coin2.png","null","",NA,NA,NA,NA,""
"image-keyboard-response",390,253215,"0.0-4.126-0.126","omhxvnwssrwzkau",41,"111.csv","","165.80000000074506","resources/trios/L1T4A3.jpg","38","restless",0.5,0.7,0.2,0.0955045436051147,"true"
"image-keyboard-response",391,253618,"0.0-4.126-1.126","omhxvnwssrwzkau",41,"111.csv","","null","resources/maskTrios/BT4B.jpg","null","",NA,NA,NA,NA,""
"image-keyboard-response",392,254822,"0.0-4.126-2.126","omhxvnwssrwzkau",41,"111.csv","","null","resources/images/coin2.png","null","",NA,NA,NA,NA,""
"image-keyboard-response",393,254875,"0.0-4.127-0.127","omhxvnwssrwzkau",41,"111.csv","","51.100000001490116","resources/trios/L1T4A3.jpg","38","restless",0.5,0.7,0.2,0.776739482692471,"false"
"image-keyboard-response",394,255277,"0.0-4.127-1.127","omhxvnwssrwzkau",41,"111.csv","","null","resources/maskTrios/BT4B.jpg","null","",NA,NA,NA,NA,""
"image-keyboard-response",395,256479,"0.0-4.127-2.127","omhxvnwssrwzkau",41,"111.csv","","null","resources/images/fishbone.png","null","",NA,NA,NA,NA,""
"image-keyboard-response",396,256564,"0.0-4.128-0.128","omhxvnwssrwzkau",41,"111.csv","","82.90000000223517","resources/trios/L1T4A3.jpg","38","restless",0.5,0.7,0.2,0.210173990908369,"true"
"image-keyboard-response",397,256966,"0.0-4.128-1.128","omhxvnwssrwzkau",41,"111.csv","","null","resources/maskTrios/BT4B.jpg","null","",NA,NA,NA,NA,""
"image-keyboard-response",398,258170,"0.0-4.128-2.128","omhxvnwssrwzkau",41,"111.csv","","null","resources/images/coin2.png","null","",NA,NA,NA,NA,""
"image-keyboard-response",399,258318,"0.0-4.129-0.129","omhxvnwssrwzkau",41,"111.csv","","146.09999999776483","resources/trios/L1T4A3.jpg","39","restless",0.5,0.7,0.2,0.563604103546686,"false"
"image-keyboard-response",400,258721,"0.0-4.129-1.129","omhxvnwssrwzkau",41,"111.csv","","null","resources/maskTrios/BBA3.jpg","null","",NA,NA,NA,NA,""
"image-keyboard-response",401,259925,"0.0-4.129-2.129","omhxvnwssrwzkau",41,"111.csv","","null","resources/images/fishbone.png","null","",NA,NA,NA,NA,""
"image-keyboard-response",402,260254,"0.0-4.130-0.130","omhxvnwssrwzkau",41,"111.csv","","327.3999999985099","resources/trios/L1T4A3.jpg","37","restless",0.5,0.8,0.2,0.415260229714938,"true"
"image-keyboard-response",403,260656,"0.0-4.130-1.130","omhxvnwssrwzkau",41,"111.csv","","null","resources/maskTrios/L1BB.jpg","null","",NA,NA,NA,NA,""
"image-keyboard-response",404,261859,"0.0-4.130-2.130","omhxvnwssrwzkau",41,"111.csv","","null","resources/images/coin2.png","null","",NA,NA,NA,NA,""
"image-keyboard-response",405,262006,"0.0-4.131-0.131","omhxvnwssrwzkau",41,"111.csv","","145.30000000074506","resources/trios/L1T4A3.jpg","37","restless",0.5,0.8,0.2,0.0650503535497426,"true"
"image-keyboard-response",406,262410,"0.0-4.131-1.131","omhxvnwssrwzkau",41,"111.csv","","null","resources/maskTrios/L1BB.jpg","null","",NA,NA,NA,NA,""
"image-keyboard-response",407,263613,"0.0-4.131-2.131","omhxvnwssrwzkau",41,"111.csv","","null","resources/images/coin2.png","null","",NA,NA,NA,NA,""
"image-keyboard-response",408,263779,"0.0-4.132-0.132","omhxvnwssrwzkau",41,"111.csv","","163.89999999850988","resources/trios/L1T4A3.jpg","37","restless",0.5,0.8,0.2,0.960546579301975,"false"
"image-keyboard-response",409,264183,"0.0-4.132-1.132","omhxvnwssrwzkau",41,"111.csv","","null","resources/maskTrios/L1BB.jpg","null","",NA,NA,NA,NA,""
"image-keyboard-response",410,265387,"0.0-4.132-2.132","omhxvnwssrwzkau",41,"111.csv","","null","resources/images/fishbone.png","null","",NA,NA,NA,NA,""
"image-keyboard-response",411,265469,"0.0-4.133-0.133","omhxvnwssrwzkau",41,"111.csv","","80","resources/trios/L1T4A3.jpg","38","restless",0.5,0.8,0.2,0.85944996494131,"false"
"image-keyboard-response",412,265871,"0.0-4.133-1.133","omhxvnwssrwzkau",41,"111.csv","","null","resources/maskTrios/BT4B.jpg","null","",NA,NA,NA,NA,""
"image-keyboard-response",413,267074,"0.0-4.133-2.133","omhxvnwssrwzkau",41,"111.csv","","null","resources/images/fishbone.png","null","",NA,NA,NA,NA,""
"image-keyboard-response",414,267162,"0.0-4.134-0.134","omhxvnwssrwzkau",41,"111.csv","","86.09999999776483","resources/trios/L1T4A3.jpg","37","restless",0.5,0.8,0.2,0.558909561671633,"false"
"image-keyboard-response",415,267566,"0.0-4.134-1.134","omhxvnwssrwzkau",41,"111.csv","","null","resources/maskTrios/L1BB.jpg","null","",NA,NA,NA,NA,""
"image-keyboard-response",416,268769,"0.0-4.134-2.134","omhxvnwssrwzkau",41,"111.csv","","null","resources/images/fishbone.png","null","",NA,NA,NA,NA,""
"image-keyboard-response",417,268980,"0.0-4.135-0.135","omhxvnwssrwzkau",41,"111.csv","","209.09999999776483","resources/trios/L1T4A3.jpg","39","restless",0.6,0.8,0.2,0.0583653487054085,"true"
"image-keyboard-response",418,269383,"0.0-4.135-1.135","omhxvnwssrwzkau",41,"111.csv","","null","resources/maskTrios/BBA3.jpg","null","",NA,NA,NA,NA,""
"image-keyboard-response",419,270587,"0.0-4.135-2.135","omhxvnwssrwzkau",41,"111.csv","","null","resources/images/coin2.png","null","",NA,NA,NA,NA,""
"image-keyboard-response",420,270608,"0.0-4.136-0.136","omhxvnwssrwzkau",41,"111.csv","","19.899999998509884","resources/trios/L1T4A3.jpg","39","restless",0.6,0.8,0.2,0.368082644372373,"false"
"image-keyboard-response",421,271011,"0.0-4.136-1.136","omhxvnwssrwzkau",41,"111.csv","","null","resources/maskTrios/BBA3.jpg","null","",NA,NA,NA,NA,""
"image-keyboard-response",422,272214,"0.0-4.136-2.136","omhxvnwssrwzkau",41,"111.csv","","null","resources/images/fishbone.png","null","",NA,NA,NA,NA,""
"image-keyboard-response",423,272220,"0.0-4.137-0.137","omhxvnwssrwzkau",41,"111.csv","","3.699999999254942","resources/trios/L1T4A3.jpg","38","restless",0.6,0.8,0.2,0.569408814978621,"true"
"image-keyboard-response",424,272623,"0.0-4.137-1.137","omhxvnwssrwzkau",41,"111.csv","","null","resources/maskTrios/BT4B.jpg","null","",NA,NA,NA,NA,""
"image-keyboard-response",425,273827,"0.0-4.137-2.137","omhxvnwssrwzkau",41,"111.csv","","null","resources/images/coin2.png","null","",NA,NA,NA,NA,""
"image-keyboard-response",426,274210,"0.0-4.138-0.138","omhxvnwssrwzkau",41,"111.csv","","381.0999999977648","resources/trios/L1T4A3.jpg","38","restless",0.6,0.8,0.2,0.430503831816891,"true"
"image-keyboard-response",427,274614,"0.0-4.138-1.138","omhxvnwssrwzkau",41,"111.csv","","null","resources/maskTrios/BT4B.jpg","null","",NA,NA,NA,NA,""
"image-keyboard-response",428,275817,"0.0-4.138-2.138","omhxvnwssrwzkau",41,"111.csv","","null","resources/images/coin2.png","null","",NA,NA,NA,NA,""
"image-keyboard-response",429,276302,"0.0-4.139-0.139","omhxvnwssrwzkau",41,"111.csv","","483.30000000074506","resources/trios/L1T4A3.jpg","38","restless",0.6,0.8,0.2,0.777679938663752,"true"
"image-keyboard-response",430,276706,"0.0-4.139-1.139","omhxvnwssrwzkau",41,"111.csv","","null","resources/maskTrios/BT4B.jpg","null","",NA,NA,NA,NA,""
"image-keyboard-response",431,277909,"0.0-4.139-2.139","omhxvnwssrwzkau",41,"111.csv","","null","resources/images/coin2.png","null","",NA,NA,NA,NA,""
"image-keyboard-response",432,278684,"0.0-4.140-0.140","omhxvnwssrwzkau",41,"111.csv","","773","resources/trios/L1T4A3.jpg","38","restless",0.6,0.8,0.2,0.849301078924469,"false"
"image-keyboard-response",433,279088,"0.0-4.140-1.140","omhxvnwssrwzkau",41,"111.csv","","null","resources/maskTrios/BT4B.jpg","null","",NA,NA,NA,NA,""
"image-keyboard-response",434,280291,"0.0-4.140-2.140","omhxvnwssrwzkau",41,"111.csv","","null","resources/images/fishbone.png","null","",NA,NA,NA,NA,""
"image-keyboard-response",435,280361,"0.0-4.141-0.141","omhxvnwssrwzkau",41,"111.csv","","67.5","resources/trios/L1T4A3.jpg","37","restless",0.6,0.8,0.2,0.452324902739414,"true"
"image-keyboard-response",436,280764,"0.0-4.141-1.141","omhxvnwssrwzkau",41,"111.csv","","null","resources/maskTrios/L1BB.jpg","null","",NA,NA,NA,NA,""
"image-keyboard-response",437,281967,"0.0-4.141-2.141","omhxvnwssrwzkau",41,"111.csv","","null","resources/images/coin2.png","null","",NA,NA,NA,NA,""
"image-keyboard-response",438,281973,"0.0-4.142-0.142","omhxvnwssrwzkau",41,"111.csv","","4.300000000745058","resources/trios/L1T4A3.jpg","37","restless",0.6,0.8,0.2,0.468054498353046,"true"
"image-keyboard-response",439,282376,"0.0-4.142-1.142","omhxvnwssrwzkau",41,"111.csv","","null","resources/maskTrios/L1BB.jpg","null","",NA,NA,NA,NA,""
"image-keyboard-response",440,283579,"0.0-4.142-2.142","omhxvnwssrwzkau",41,"111.csv","","null","resources/images/coin2.png","null","",NA,NA,NA,NA,""
"image-keyboard-response",441,283663,"0.0-4.143-0.143","omhxvnwssrwzkau",41,"111.csv","","82.60000000149012","resources/trios/L1T4A3.jpg","37","restless",0.6,0.8,0.2,0.688596613837371,"false"
"image-keyboard-response",442,284067,"0.0-4.143-1.143","omhxvnwssrwzkau",41,"111.csv","","null","resources/maskTrios/L1BB.jpg","null","",NA,NA,NA,NA,""
"image-keyboard-response",443,285270,"0.0-4.143-2.143","omhxvnwssrwzkau",41,"111.csv","","null","resources/images/fishbone.png","null","",NA,NA,NA,NA,""
"image-keyboard-response",444,285795,"0.0-4.144-0.144","omhxvnwssrwzkau",41,"111.csv","","523.5","resources/trios/L1T4A3.jpg","39","restless",0.6,0.8,0.3,0.0897258800589134,"true"
"image-keyboard-response",445,286199,"0.0-4.144-1.144","omhxvnwssrwzkau",41,"111.csv","","null","resources/maskTrios/BBA3.jpg","null","",NA,NA,NA,NA,""
"image-keyboard-response",446,287403,"0.0-4.144-2.144","omhxvnwssrwzkau",41,"111.csv","","null","resources/images/coin2.png","null","",NA,NA,NA,NA,""
"image-keyboard-response",447,287467,"0.0-4.145-0.145","omhxvnwssrwzkau",41,"111.csv","","62.599999997764826","resources/trios/L1T4A3.jpg","39","restless",0.6,0.8,0.3,0.924835397134578,"false"
"image-keyboard-response",448,287870,"0.0-4.145-1.145","omhxvnwssrwzkau",41,"111.csv","","null","resources/maskTrios/BBA3.jpg","null","",NA,NA,NA,NA,""
"image-keyboard-response",449,289073,"0.0-4.145-2.145","omhxvnwssrwzkau",41,"111.csv","","null","resources/images/fishbone.png","null","",NA,NA,NA,NA,""
"image-keyboard-response",450,289108,"0.0-4.146-0.146","omhxvnwssrwzkau",41,"111.csv","","33.29999999701977","resources/trios/L1T4A3.jpg","38","restless",0.5,0.8,0.3,0.287582754691912,"true"
"image-keyboard-response",451,289510,"0.0-4.146-1.146","omhxvnwssrwzkau",41,"111.csv","","null","resources/maskTrios/BT4B.jpg","null","",NA,NA,NA,NA,""
"image-keyboard-response",452,290712,"0.0-4.146-2.146","omhxvnwssrwzkau",41,"111.csv","","null","resources/images/coin2.png","null","",NA,NA,NA,NA,""
"image-keyboard-response",453,290845,"0.0-4.147-0.147","omhxvnwssrwzkau",41,"111.csv","","131","resources/trios/L1T4A3.jpg","38","restless",0.5,0.8,0.3,0.477013520727847,"true"
"image-keyboard-response",454,291249,"0.0-4.147-1.147","omhxvnwssrwzkau",41,"111.csv","","null","resources/maskTrios/BT4B.jpg","null","",NA,NA,NA,NA,""
"image-keyboard-response",455,292453,"0.0-4.147-2.147","omhxvnwssrwzkau",41,"111.csv","","null","resources/images/coin2.png","null","",NA,NA,NA,NA,""
"image-keyboard-response",456,292574,"0.0-4.148-0.148","omhxvnwssrwzkau",41,"111.csv","","119","resources/trios/L1T4A3.jpg","38","restless",0.5,0.8,0.3,0.55747555295929,"true"
"image-keyboard-response",457,292977,"0.0-4.148-1.148","omhxvnwssrwzkau",41,"111.csv","","null","resources/maskTrios/BT4B.jpg","null","",NA,NA,NA,NA,""
"image-keyboard-response",458,294181,"0.0-4.148-2.148","omhxvnwssrwzkau",41,"111.csv","","null","resources/images/coin2.png","null","",NA,NA,NA,NA,""
"image-keyboard-response",459,294268,"0.0-4.149-0.149","omhxvnwssrwzkau",41,"111.csv","","85.19999999925494","resources/trios/L1T4A3.jpg","38","restless",0.5,0.8,0.3,0.156007496367045,"true"
"image-keyboard-response",460,294670,"0.0-4.149-1.149","omhxvnwssrwzkau",41,"111.csv","","null","resources/maskTrios/BT4B.jpg","null","",NA,NA,NA,NA,""
"image-keyboard-response",461,295874,"0.0-4.149-2.149","omhxvnwssrwzkau",41,"111.csv","","null","resources/images/coin2.png","null","",NA,NA,NA,NA,""
"image-keyboard-response",462,295910,"0.0-4.150-0.150","omhxvnwssrwzkau",41,"111.csv","","34.5","resources/trios/L1T4A3.jpg","38","restless",0.5,0.8,0.3,0.0792898601538239,"true"
"image-keyboard-response",463,296313,"0.0-4.150-1.150","omhxvnwssrwzkau",41,"111.csv","","null","resources/maskTrios/BT4B.jpg","null","",NA,NA,NA,NA,""
"image-keyboard-response",464,297516,"0.0-4.150-2.150","omhxvnwssrwzkau",41,"111.csv","","null","resources/images/coin2.png","null","",NA,NA,NA,NA,""
"image-keyboard-response",465,297871,"0.0-4.151-0.151","omhxvnwssrwzkau",41,"111.csv","","353","resources/trios/L1T4A3.jpg","38","restless",0.5,0.7,0.3,0.232151243249424,"true"
"image-keyboard-response",466,298274,"0.0-4.151-1.151","omhxvnwssrwzkau",41,"111.csv","","null","resources/maskTrios/BT4B.jpg","null","",NA,NA,NA,NA,""
"image-keyboard-response",467,299478,"0.0-4.151-2.151","omhxvnwssrwzkau",41,"111.csv","","null","resources/images/coin2.png","null","",NA,NA,NA,NA,""
"image-keyboard-response",468,299486,"0.0-4.152-0.152","omhxvnwssrwzkau",41,"111.csv","","6.699999999254942","resources/trios/L1T4A3.jpg","38","restless",0.4,0.7,0.3,0.58202341997048,"true"
"image-keyboard-response",469,299889,"0.0-4.152-1.152","omhxvnwssrwzkau",41,"111.csv","","null","resources/maskTrios/BT4B.jpg","null","",NA,NA,NA,NA,""
"image-keyboard-response",470,301092,"0.0-4.152-2.152","omhxvnwssrwzkau",41,"111.csv","","null","resources/images/coin2.png","null","",NA,NA,NA,NA,""
"image-keyboard-response",471,301319,"0.0-4.153-0.153","omhxvnwssrwzkau",41,"111.csv","","225","resources/trios/L1T4A3.jpg","38","restless",0.4,0.7,0.3,0.311721369729682,"true"
"image-keyboard-response",472,301722,"0.0-4.153-1.153","omhxvnwssrwzkau",41,"111.csv","","null","resources/maskTrios/BT4B.jpg","null","",NA,NA,NA,NA,""
"image-keyboard-response",473,302925,"0.0-4.153-2.153","omhxvnwssrwzkau",41,"111.csv","","null","resources/images/coin2.png","null","",NA,NA,NA,NA,""
"image-keyboard-response",474,302989,"0.0-4.154-0.154","omhxvnwssrwzkau",41,"111.csv","","61.600000001490116","resources/trios/L1T4A3.jpg","38","restless",0.4,0.7,0.3,0.757280368757794,"false"
"image-keyboard-response",475,303391,"0.0-4.154-1.154","omhxvnwssrwzkau",41,"111.csv","","null","resources/maskTrios/BT4B.jpg","null","",NA,NA,NA,NA,""
"image-keyboard-response",476,304594,"0.0-4.154-2.154","omhxvnwssrwzkau",41,"111.csv","","null","resources/images/fishbone.png","null","",NA,NA,NA,NA,""
"image-keyboard-response",477,304817,"0.0-4.155-0.155","omhxvnwssrwzkau",41,"111.csv","","220.40000000223517","resources/trios/L1T4A3.jpg","37","restless",0.4,0.7,0.3,0.319390660536918,"true"
"image-keyboard-response",478,305220,"0.0-4.155-1.155","omhxvnwssrwzkau",41,"111.csv","","null","resources/maskTrios/L1BB.jpg","null","",NA,NA,NA,NA,""
"image-keyboard-response",479,306423,"0.0-4.155-2.155","omhxvnwssrwzkau",41,"111.csv","","null","resources/images/coin2.png","null","",NA,NA,NA,NA,""
"image-keyboard-response",480,306472,"0.0-4.156-0.156","omhxvnwssrwzkau",41,"111.csv","","46.69999999925494","resources/trios/L1T4A3.jpg","37","restless",0.4,0.6,0.3,0.00653484045824659,"true"
"image-keyboard-response",481,306874,"0.0-4.156-1.156","omhxvnwssrwzkau",41,"111.csv","","null","resources/maskTrios/L1BB.jpg","null","",NA,NA,NA,NA,""
"image-keyboard-response",482,308077,"0.0-4.156-2.156","omhxvnwssrwzkau",41,"111.csv","","null","resources/images/coin2.png","null","",NA,NA,NA,NA,""
"image-keyboard-response",483,308187,"0.0-4.157-0.157","omhxvnwssrwzkau",41,"111.csv","","108.09999999776483","resources/trios/L1T4A3.jpg","37","restless",0.4,0.6,0.3,0.648917024141254,"false"
"image-keyboard-response",484,308590,"0.0-4.157-1.157","omhxvnwssrwzkau",41,"111.csv","","null","resources/maskTrios/L1BB.jpg","null","",NA,NA,NA,NA,""
"image-keyboard-response",485,309793,"0.0-4.157-2.157","omhxvnwssrwzkau",41,"111.csv","","null","resources/images/fishbone.png","null","",NA,NA,NA,NA,""
"image-keyboard-response",486,309859,"0.0-4.158-0.158","omhxvnwssrwzkau",41,"111.csv","","63.399999998509884","resources/trios/L1T4A3.jpg","37","restless",0.3,0.6,0.3,0.00102030750653381,"true"
"image-keyboard-response",487,310261,"0.0-4.158-1.158","omhxvnwssrwzkau",41,"111.csv","","null","resources/maskTrios/L1BB.jpg","null","",NA,NA,NA,NA,""
"image-keyboard-response",488,311464,"0.0-4.158-2.158","omhxvnwssrwzkau",41,"111.csv","","null","resources/images/coin2.png","null","",NA,NA,NA,NA,""
"image-keyboard-response",489,311611,"0.0-4.159-0.159","omhxvnwssrwzkau",41,"111.csv","","144.69999999925494","resources/trios/L1T4A3.jpg","37","restless",0.3,0.6,0.3,0.144409440179308,"true"
"image-keyboard-response",490,312014,"0.0-4.159-1.159","omhxvnwssrwzkau",41,"111.csv","","null","resources/maskTrios/L1BB.jpg","null","",NA,NA,NA,NA,""
"image-keyboard-response",491,313217,"0.0-4.159-2.159","omhxvnwssrwzkau",41,"111.csv","","null","resources/images/coin2.png","null","",NA,NA,NA,NA,""
"image-keyboard-response",492,313346,"0.0-4.160-0.160","omhxvnwssrwzkau",41,"111.csv","","126.89999999850988","resources/trios/L1T4A3.jpg","37","restless",0.3,0.6,0.3,0.425313563256992,"false"
"image-keyboard-response",493,313750,"0.0-4.160-1.160","omhxvnwssrwzkau",41,"111.csv","","null","resources/maskTrios/L1BB.jpg","null","",NA,NA,NA,NA,""
"image-keyboard-response",494,314954,"0.0-4.160-2.160","omhxvnwssrwzkau",41,"111.csv","","null","resources/images/fishbone.png","null","",NA,NA,NA,NA,""
"image-keyboard-response",495,319238,"0.0-4.161-0.161","omhxvnwssrwzkau",41,"111.csv","","4281.900000002235","resources/trios/L1T4A3.jpg","39","restless",0.3,0.6,0.3,0.626503279906084,"false"
"image-keyboard-response",496,319641,"0.0-4.161-1.161","omhxvnwssrwzkau",41,"111.csv","","null","resources/maskTrios/BBA3.jpg","null","",NA,NA,NA,NA,""
"image-keyboard-response",497,320844,"0.0-4.161-2.161","omhxvnwssrwzkau",41,"111.csv","","null","resources/images/fishbone.png","null","",NA,NA,NA,NA,""
"image-keyboard-response",498,321040,"0.0-4.162-0.162","omhxvnwssrwzkau",41,"111.csv","","193.80000000074506","resources/trios/L1T4A3.jpg","39","restless",0.3,0.6,0.3,0.859784191188962,"false"
"image-keyboard-response",499,321444,"0.0-4.162-1.162","omhxvnwssrwzkau",41,"111.csv","","null","resources/maskTrios/BBA3.jpg","null","",NA,NA,NA,NA,""
"image-keyboard-response",500,322647,"0.0-4.162-2.162","omhxvnwssrwzkau",41,"111.csv","","null","resources/images/fishbone.png","null","",NA,NA,NA,NA,""
"image-keyboard-response",501,322818,"0.0-4.163-0.163","omhxvnwssrwzkau",41,"111.csv","","168.39999999850988","resources/trios/L1T4A3.jpg","38","restless",0.3,0.6,0.3,0.853974271038463,"false"
"image-keyboard-response",502,323221,"0.0-4.163-1.163","omhxvnwssrwzkau",41,"111.csv","","null","resources/maskTrios/BT4B.jpg","null","",NA,NA,NA,NA,""
"image-keyboard-response",503,324423,"0.0-4.163-2.163","omhxvnwssrwzkau",41,"111.csv","","null","resources/images/fishbone.png","null","",NA,NA,NA,NA,""
"image-keyboard-response",504,324475,"0.0-4.164-0.164","omhxvnwssrwzkau",41,"111.csv","","49.19999999925494","resources/trios/L1T4A3.jpg","37","restless",0.3,0.6,0.3,0.932400617794987,"false"
"image-keyboard-response",505,324877,"0.0-4.164-1.164","omhxvnwssrwzkau",41,"111.csv","","null","resources/maskTrios/L1BB.jpg","null","",NA,NA,NA,NA,""
"image-keyboard-response",506,326079,"0.0-4.164-2.164","omhxvnwssrwzkau",41,"111.csv","","null","resources/images/fishbone.png","null","",NA,NA,NA,NA,""
"image-keyboard-response",507,326229,"0.0-4.165-0.165","omhxvnwssrwzkau",41,"111.csv","","147.79999999701977","resources/trios/L1T4A3.jpg","37","restless",0.3,0.6,0.3,0.839519118568967,"false"
"image-keyboard-response",508,326632,"0.0-4.165-1.165","omhxvnwssrwzkau",41,"111.csv","","null","resources/maskTrios/L1BB.jpg","null","",NA,NA,NA,NA,""
"image-keyboard-response",509,327835,"0.0-4.165-2.165","omhxvnwssrwzkau",41,"111.csv","","null","resources/images/fishbone.png","null","",NA,NA,NA,NA,""
"image-keyboard-response",510,327900,"0.0-4.166-0.166","omhxvnwssrwzkau",41,"111.csv","","63.399999998509884","resources/trios/L1T4A3.jpg","38","restless",0.3,0.6,0.3,0.500786308457686,"true"
"image-keyboard-response",511,328303,"0.0-4.166-1.166","omhxvnwssrwzkau",41,"111.csv","","null","resources/maskTrios/BT4B.jpg","null","",NA,NA,NA,NA,""
"image-keyboard-response",512,329507,"0.0-4.166-2.166","omhxvnwssrwzkau",41,"111.csv","","null","resources/images/coin2.png","null","",NA,NA,NA,NA,""
"image-keyboard-response",513,329588,"0.0-4.167-0.167","omhxvnwssrwzkau",41,"111.csv","","79.79999999701977","resources/trios/L1T4A3.jpg","38","restless",0.3,0.5,0.3,0.730096246964118,"false"
"image-keyboard-response",514,329991,"0.0-4.167-1.167","omhxvnwssrwzkau",41,"111.csv","","null","resources/maskTrios/BT4B.jpg","null","",NA,NA,NA,NA,""
"image-keyboard-response",515,331195,"0.0-4.167-2.167","omhxvnwssrwzkau",41,"111.csv","","null","resources/images/fishbone.png","null","",NA,NA,NA,NA,""
"image-keyboard-response",516,331352,"0.0-4.168-0.168","omhxvnwssrwzkau",41,"111.csv","","155","resources/trios/L1T4A3.jpg","38","restless",0.3,0.4,0.3,0.822357041942827,"false"
"image-keyboard-response",517,331754,"0.0-4.168-1.168","omhxvnwssrwzkau",41,"111.csv","","null","resources/maskTrios/BT4B.jpg","null","",NA,NA,NA,NA,""
"image-keyboard-response",518,332957,"0.0-4.168-2.168","omhxvnwssrwzkau",41,"111.csv","","null","resources/images/fishbone.png","null","",NA,NA,NA,NA,""
"image-keyboard-response",519,332962,"0.0-4.169-0.169","omhxvnwssrwzkau",41,"111.csv","","3.399999998509884","resources/trios/L1T4A3.jpg","39","restless",0.3,0.4,0.3,0.711575359231621,"false"
"image-keyboard-response",520,333364,"0.0-4.169-1.169","omhxvnwssrwzkau",41,"111.csv","","null","resources/maskTrios/BBA3.jpg","null","",NA,NA,NA,NA,""
"image-keyboard-response",521,334567,"0.0-4.169-2.169","omhxvnwssrwzkau",41,"111.csv","","null","resources/images/fishbone.png","null","",NA,NA,NA,NA,""
"image-keyboard-response",522,334923,"0.0-4.170-0.170","omhxvnwssrwzkau",41,"111.csv","","354.5","resources/trios/L1T4A3.jpg","37","restless",0.3,0.4,0.3,0.970634803537914,"false"
"image-keyboard-response",523,335327,"0.0-4.170-1.170","omhxvnwssrwzkau",41,"111.csv","","null","resources/maskTrios/L1BB.jpg","null","",NA,NA,NA,NA,""
"image-keyboard-response",524,336530,"0.0-4.170-2.170","omhxvnwssrwzkau",41,"111.csv","","null","resources/images/fishbone.png","null","",NA,NA,NA,NA,""
"image-keyboard-response",525,336601,"0.0-4.171-0.171","omhxvnwssrwzkau",41,"111.csv","","69.19999999925494","resources/trios/L1T4A3.jpg","37","restless",0.3,0.4,0.3,0.327141395995062,"false"
"image-keyboard-response",526,337003,"0.0-4.171-1.171","omhxvnwssrwzkau",41,"111.csv","","null","resources/maskTrios/L1BB.jpg","null","",NA,NA,NA,NA,""
"image-keyboard-response",527,338206,"0.0-4.171-2.171","omhxvnwssrwzkau",41,"111.csv","","null","resources/images/fishbone.png","null","",NA,NA,NA,NA,""
"image-keyboard-response",528,338381,"0.0-4.172-0.172","omhxvnwssrwzkau",41,"111.csv","","173","resources/trios/L1T4A3.jpg","38","restless",0.3,0.4,0.3,0.978190189056068,"false"
"image-keyboard-response",529,338785,"0.0-4.172-1.172","omhxvnwssrwzkau",41,"111.csv","","null","resources/maskTrios/BT4B.jpg","null","",NA,NA,NA,NA,""
"image-keyboard-response",530,339988,"0.0-4.172-2.172","omhxvnwssrwzkau",41,"111.csv","","null","resources/images/fishbone.png","null","",NA,NA,NA,NA,""
"image-keyboard-response",531,340091,"0.0-4.173-0.173","omhxvnwssrwzkau",41,"111.csv","","100.19999999925494","resources/trios/L1T4A3.jpg","38","restless",0.4,0.4,0.3,0.277381860057631,"true"
"image-keyboard-response",532,340494,"0.0-4.173-1.173","omhxvnwssrwzkau",41,"111.csv","","null","resources/maskTrios/BT4B.jpg","null","",NA,NA,NA,NA,""
"image-keyboard-response",533,341697,"0.0-4.173-2.173","omhxvnwssrwzkau",41,"111.csv","","null","resources/images/coin2.png","null","",NA,NA,NA,NA,""
"image-keyboard-response",534,341837,"0.0-4.174-0.174","omhxvnwssrwzkau",41,"111.csv","","137.59999999776483","resources/trios/L1T4A3.jpg","39","restless",0.5,0.4,0.3,0.169526597596406,"true"
"image-keyboard-response",535,342241,"0.0-4.174-1.174","omhxvnwssrwzkau",41,"111.csv","","null","resources/maskTrios/BBA3.jpg","null","",NA,NA,NA,NA,""
"image-keyboard-response",536,343444,"0.0-4.174-2.174","omhxvnwssrwzkau",41,"111.csv","","null","resources/images/coin2.png","null","",NA,NA,NA,NA,""
"image-keyboard-response",537,343450,"0.0-4.175-0.175","omhxvnwssrwzkau",41,"111.csv","","4.399999998509884","resources/trios/L1T4A3.jpg","39","restless",0.5,0.4,0.3,0.325694132474141,"false"
"image-keyboard-response",538,343853,"0.0-4.175-1.175","omhxvnwssrwzkau",41,"111.csv","","null","resources/maskTrios/BBA3.jpg","null","",NA,NA,NA,NA,""
"image-keyboard-response",539,345056,"0.0-4.175-2.175","omhxvnwssrwzkau",41,"111.csv","","null","resources/images/fishbone.png","null","",NA,NA,NA,NA,""
"image-keyboard-response",540,345084,"0.0-4.176-0.176","omhxvnwssrwzkau",41,"111.csv","","26.199999999254942","resources/trios/L1T4A3.jpg","38","restless",0.5,0.4,0.3,0.502815465276168,"false"
"image-keyboard-response",541,345487,"0.0-4.176-1.176","omhxvnwssrwzkau",41,"111.csv","","null","resources/maskTrios/BT4B.jpg","null","",NA,NA,NA,NA,""
"image-keyboard-response",542,346690,"0.0-4.176-2.176","omhxvnwssrwzkau",41,"111.csv","","null","resources/images/fishbone.png","null","",NA,NA,NA,NA,""
"image-keyboard-response",543,346756,"0.0-4.177-0.177","omhxvnwssrwzkau",41,"111.csv","","63.80000000074506","resources/trios/L1T4A3.jpg","39","restless",0.6,0.4,0.3,0.130391055975545,"true"
"image-keyboard-response",544,347158,"0.0-4.177-1.177","omhxvnwssrwzkau",41,"111.csv","","null","resources/maskTrios/BBA3.jpg","null","",NA,NA,NA,NA,""
"image-keyboard-response",545,348362,"0.0-4.177-2.177","omhxvnwssrwzkau",41,"111.csv","","null","resources/images/coin2.png","null","",NA,NA,NA,NA,""
"image-keyboard-response",546,348397,"0.0-4.178-0.178","omhxvnwssrwzkau",41,"111.csv","","33.399999998509884","resources/trios/L1T4A3.jpg","38","restless",0.6,0.4,0.4,0.48161852818189,"false"
"image-keyboard-response",547,348799,"0.0-4.178-1.178","omhxvnwssrwzkau",41,"111.csv","","null","resources/maskTrios/BT4B.jpg","null","",NA,NA,NA,NA,""
"image-keyboard-response",548,350002,"0.0-4.178-2.178","omhxvnwssrwzkau",41,"111.csv","","null","resources/images/fishbone.png","null","",NA,NA,NA,NA,""
"image-keyboard-response",549,350143,"0.0-4.179-0.179","omhxvnwssrwzkau",41,"111.csv","","139.5","resources/trios/L1T4A3.jpg","39","restless",0.6,0.4,0.4,0.112234870759053,"true"
"image-keyboard-response",550,350546,"0.0-4.179-1.179","omhxvnwssrwzkau",41,"111.csv","","null","resources/maskTrios/BBA3.jpg","null","",NA,NA,NA,NA,""
"image-keyboard-response",551,351749,"0.0-4.179-2.179","omhxvnwssrwzkau",41,"111.csv","","null","resources/images/coin2.png","null","",NA,NA,NA,NA,""
"image-keyboard-response",552,352696,"0.0-4.180-0.180","omhxvnwssrwzkau",41,"111.csv","","944.7000000029802","resources/trios/L1T4A3.jpg","39","restless",0.6,0.4,0.4,0.536526870507628,"false"
"image-keyboard-response",553,353099,"0.0-4.180-1.180","omhxvnwssrwzkau",41,"111.csv","","null","resources/maskTrios/BBA3.jpg","null","",NA,NA,NA,NA,""
"image-keyboard-response",554,354302,"0.0-4.180-2.180","omhxvnwssrwzkau",41,"111.csv","","null","resources/images/fishbone.png","null","",NA,NA,NA,NA,""
"image-keyboard-response",555,354446,"0.0-4.181-0.181","omhxvnwssrwzkau",41,"111.csv","","141.39999999850988","resources/trios/L1T4A3.jpg","39","restless",0.6,0.4,0.4,0.847931128635114,"false"
"image-keyboard-response",556,354849,"0.0-4.181-1.181","omhxvnwssrwzkau",41,"111.csv","","null","resources/maskTrios/BBA3.jpg","null","",NA,NA,NA,NA,""
"image-keyboard-response",557,356052,"0.0-4.181-2.181","omhxvnwssrwzkau",41,"111.csv","","null","resources/images/fishbone.png","null","",NA,NA,NA,NA,""
"image-keyboard-response",558,356185,"0.0-4.182-0.182","omhxvnwssrwzkau",41,"111.csv","","130.90000000223517","resources/trios/L1T4A3.jpg","38","restless",0.6,0.4,0.4,0.878967417465659,"false"
"image-keyboard-response",559,356589,"0.0-4.182-1.182","omhxvnwssrwzkau",41,"111.csv","","null","resources/maskTrios/BT4B.jpg","null","",NA,NA,NA,NA,""
"image-keyboard-response",560,357792,"0.0-4.182-2.182","omhxvnwssrwzkau",41,"111.csv","","null","resources/images/fishbone.png","null","",NA,NA,NA,NA,""
"image-keyboard-response",561,357831,"0.0-4.183-0.183","omhxvnwssrwzkau",41,"111.csv","","36.5","resources/trios/L1T4A3.jpg","37","restless",0.6,0.5,0.4,0.833487580917877,"false"
"image-keyboard-response",562,358233,"0.0-4.183-1.183","omhxvnwssrwzkau",41,"111.csv","","null","resources/maskTrios/L1BB.jpg","null","",NA,NA,NA,NA,""
"image-keyboard-response",563,359436,"0.0-4.183-2.183","omhxvnwssrwzkau",41,"111.csv","","null","resources/images/fishbone.png","null","",NA,NA,NA,NA,""
"image-keyboard-response",564,359449,"0.0-4.184-0.184","omhxvnwssrwzkau",41,"111.csv","","11.5","resources/trios/L1T4A3.jpg","38","restless",0.6,0.5,0.4,0.445516404102007,"true"
"image-keyboard-response",565,359852,"0.0-4.184-1.184","omhxvnwssrwzkau",41,"111.csv","","null","resources/maskTrios/BT4B.jpg","null","",NA,NA,NA,NA,""
"image-keyboard-response",566,361055,"0.0-4.184-2.184","omhxvnwssrwzkau",41,"111.csv","","null","resources/images/coin2.png","null","",NA,NA,NA,NA,""
"image-keyboard-response",567,361189,"0.0-4.185-0.185","omhxvnwssrwzkau",41,"111.csv","","132.5","resources/trios/L1T4A3.jpg","38","restless",0.6,0.5,0.4,0.835818409511059,"false"
"image-keyboard-response",568,361591,"0.0-4.185-1.185","omhxvnwssrwzkau",41,"111.csv","","null","resources/maskTrios/BT4B.jpg","null","",NA,NA,NA,NA,""
"image-keyboard-response",569,362795,"0.0-4.185-2.185","omhxvnwssrwzkau",41,"111.csv","","null","resources/images/fishbone.png","null","",NA,NA,NA,NA,""
"image-keyboard-response",570,362802,"0.0-4.186-0.186","omhxvnwssrwzkau",41,"111.csv","","5.099999997764826","resources/trios/L1T4A3.jpg","39","restless",0.7,0.5,0.4,0.814892574843477,"false"
"image-keyboard-response",571,363203,"0.0-4.186-1.186","omhxvnwssrwzkau",41,"111.csv","","null","resources/maskTrios/BBA3.jpg","null","",NA,NA,NA,NA,""
"image-keyboard-response",572,364406,"0.0-4.186-2.186","omhxvnwssrwzkau",41,"111.csv","","null","resources/images/fishbone.png","null","",NA,NA,NA,NA,""
"image-keyboard-response",573,364615,"0.0-4.187-0.187","omhxvnwssrwzkau",41,"111.csv","","206.89999999850988","resources/trios/L1T4A3.jpg","38","restless",0.7,0.5,0.4,0.757941346627808,"false"
"image-keyboard-response",574,365019,"0.0-4.187-1.187","omhxvnwssrwzkau",41,"111.csv","","null","resources/maskTrios/BT4B.jpg","null","",NA,NA,NA,NA,""
"image-keyboard-response",575,366221,"0.0-4.187-2.187","omhxvnwssrwzkau",41,"111.csv","","null","resources/images/fishbone.png","null","",NA,NA,NA,NA,""
"image-keyboard-response",576,366223,"0.0-4.188-0.188","omhxvnwssrwzkau",41,"111.csv","","0.30000000074505806","resources/trios/L1T4A3.jpg","37","restless",0.7,0.5,0.4,0.00176881727217193,"true"
"image-keyboard-response",577,366626,"0.0-4.188-1.188","omhxvnwssrwzkau",41,"111.csv","","null","resources/maskTrios/L1BB.jpg","null","",NA,NA,NA,NA,""
"image-keyboard-response",578,367830,"0.0-4.188-2.188","omhxvnwssrwzkau",41,"111.csv","","null","resources/images/coin2.png","null","",NA,NA,NA,NA,""
"image-keyboard-response",579,368077,"0.0-4.189-0.189","omhxvnwssrwzkau",41,"111.csv","","245.60000000149012","resources/trios/L1T4A3.jpg","37","restless",0.7,0.5,0.4,0.332454866939846,"true"
"image-keyboard-response",580,368480,"0.0-4.189-1.189","omhxvnwssrwzkau",41,"111.csv","","null","resources/maskTrios/L1BB.jpg","null","",NA,NA,NA,NA,""
"image-keyboard-response",581,369684,"0.0-4.189-2.189","omhxvnwssrwzkau",41,"111.csv","","null","resources/images/coin2.png","null","",NA,NA,NA,NA,""
"image-keyboard-response",582,369805,"0.0-4.190-0.190","omhxvnwssrwzkau",41,"111.csv","","119.19999999925494","resources/trios/L1T4A3.jpg","37","restless",0.7,0.5,0.4,0.391927227752362,"true"
"image-keyboard-response",583,370209,"0.0-4.190-1.190","omhxvnwssrwzkau",41,"111.csv","","null","resources/maskTrios/L1BB.jpg","null","",NA,NA,NA,NA,""
"image-keyboard-response",584,371412,"0.0-4.190-2.190","omhxvnwssrwzkau",41,"111.csv","","null","resources/images/coin2.png","null","",NA,NA,NA,NA,""
"image-keyboard-response",585,371439,"0.0-4.191-0.191","omhxvnwssrwzkau",41,"111.csv","","24.699999999254942","resources/trios/L1T4A3.jpg","37","restless",0.7,0.5,0.4,0.186291150946885,"true"
"image-keyboard-response",586,371842,"0.0-4.191-1.191","omhxvnwssrwzkau",41,"111.csv","","null","resources/maskTrios/L1BB.jpg","null","",NA,NA,NA,NA,""
"image-keyboard-response",587,373045,"0.0-4.191-2.191","omhxvnwssrwzkau",41,"111.csv","","null","resources/images/coin2.png","null","",NA,NA,NA,NA,""
"image-keyboard-response",588,373089,"0.0-4.192-0.192","omhxvnwssrwzkau",41,"111.csv","","42.19999999925494","resources/trios/L1T4A3.jpg","37","restless",0.6,0.5,0.4,0.265783567922093,"true"
"image-keyboard-response",589,373492,"0.0-4.192-1.192","omhxvnwssrwzkau",41,"111.csv","","null","resources/maskTrios/L1BB.jpg","null","",NA,NA,NA,NA,""
"image-keyboard-response",590,374695,"0.0-4.192-2.192","omhxvnwssrwzkau",41,"111.csv","","null","resources/images/coin2.png","null","",NA,NA,NA,NA,""
"image-keyboard-response",591,374840,"0.0-4.193-0.193","omhxvnwssrwzkau",41,"111.csv","","143.69999999925494","resources/trios/L1T4A3.jpg","37","restless",0.6,0.5,0.4,0.231729700821223,"true"
"image-keyboard-response",592,375244,"0.0-4.193-1.193","omhxvnwssrwzkau",41,"111.csv","","null","resources/maskTrios/L1BB.jpg","null","",NA,NA,NA,NA,""
"image-keyboard-response",593,376447,"0.0-4.193-2.193","omhxvnwssrwzkau",41,"111.csv","","null","resources/images/coin2.png","null","",NA,NA,NA,NA,""
"image-keyboard-response",594,376553,"0.0-4.194-0.194","omhxvnwssrwzkau",41,"111.csv","","105.30000000074506","resources/trios/L1T4A3.jpg","37","restless",0.6,0.5,0.4,0.661438931587538,"false"
"image-keyboard-response",595,376957,"0.0-4.194-1.194","omhxvnwssrwzkau",41,"111.csv","","null","resources/maskTrios/L1BB.jpg","null","",NA,NA,NA,NA,""
"image-keyboard-response",596,378160,"0.0-4.194-2.194","omhxvnwssrwzkau",41,"111.csv","","null","resources/images/fishbone.png","null","",NA,NA,NA,NA,""
"image-keyboard-response",597,378224,"0.0-4.195-0.195","omhxvnwssrwzkau",41,"111.csv","","62","resources/trios/L1T4A3.jpg","37","restless",0.6,0.5,0.4,0.279727010401402,"true"
"image-keyboard-response",598,378627,"0.0-4.195-1.195","omhxvnwssrwzkau",41,"111.csv","","null","resources/maskTrios/L1BB.jpg","null","",NA,NA,NA,NA,""
"image-keyboard-response",599,379830,"0.0-4.195-2.195","omhxvnwssrwzkau",41,"111.csv","","null","resources/images/coin2.png","null","",NA,NA,NA,NA,""
"image-keyboard-response",600,379970,"0.0-4.196-0.196","omhxvnwssrwzkau",41,"111.csv","","137.80000000074506","resources/trios/L1T4A3.jpg","37","restless",0.6,0.5,0.4,0.530274311197141,"true"
"image-keyboard-response",601,380373,"0.0-4.196-1.196","omhxvnwssrwzkau",41,"111.csv","","null","resources/maskTrios/L1BB.jpg","null","",NA,NA,NA,NA,""
"image-keyboard-response",602,381576,"0.0-4.196-2.196","omhxvnwssrwzkau",41,"111.csv","","null","resources/images/coin2.png","null","",NA,NA,NA,NA,""
"image-keyboard-response",603,381804,"0.0-4.197-0.197","omhxvnwssrwzkau",41,"111.csv","","225.60000000149012","resources/trios/L1T4A3.jpg","37","restless",0.6,0.5,0.4,0.0377922684607768,"true"
"image-keyboard-response",604,382207,"0.0-4.197-1.197","omhxvnwssrwzkau",41,"111.csv","","null","resources/maskTrios/L1BB.jpg","null","",NA,NA,NA,NA,""
"image-keyboard-response",605,383411,"0.0-4.197-2.197","omhxvnwssrwzkau",41,"111.csv","","null","resources/images/coin2.png","null","",NA,NA,NA,NA,""
"image-keyboard-response",606,383650,"0.0-4.198-0.198","omhxvnwssrwzkau",41,"111.csv","","237.60000000149012","resources/trios/L1T4A3.jpg","37","restless",0.6,0.5,0.4,0.06466387869226,"true"
"image-keyboard-response",607,384053,"0.0-4.198-1.198","omhxvnwssrwzkau",41,"111.csv","","null","resources/maskTrios/L1BB.jpg","null","",NA,NA,NA,NA,""
"image-keyboard-response",608,385257,"0.0-4.198-2.198","omhxvnwssrwzkau",41,"111.csv","","null","resources/images/coin2.png","null","",NA,NA,NA,NA,""
"image-keyboard-response",609,385554,"0.0-4.199-0.199","omhxvnwssrwzkau",41,"111.csv","","295.0999999977648","resources/trios/L1T4A3.jpg","37","restless",0.6,0.5,0.4,0.708435504873142,"false"
"image-keyboard-response",610,385957,"0.0-4.199-1.199","omhxvnwssrwzkau",41,"111.csv","","null","resources/maskTrios/L1BB.jpg","null","",NA,NA,NA,NA,""
"image-keyboard-response",611,387160,"0.0-4.199-2.199","omhxvnwssrwzkau",41,"111.csv","","null","resources/images/fishbone.png","null","",NA,NA,NA,NA,""
"survey-text",612,392350,"0.0-5.0","omhxvnwssrwzkau",41,"111.csv","","5184.5","","","",NA,NA,NA,NA,""
