"trial_type","trial_index","time_elapsed","internal_node_id","subject","participantCode","walkNumber","success","rt","stimulus","key_press","test_part","leftProb","midProb","rightProb","generatedNum","correct"
"pavlovia",0,725,"0.0-0.0","lrjngex4bcj0q9o",474,"79.csv","","","","","",NA,NA,NA,NA,""
"fullscreen",1,5251,"0.0-1.0","lrjngex4bcj0q9o",474,"79.csv","true","","","","",NA,NA,NA,NA,""
"survey-html-form",2,12946,"0.0-2.0","lrjngex4bcj0q9o",474,"79.csv","","7693","","","",NA,NA,NA,NA,""
"image-keyboard-response",3,31368,"0.0-3.0-0.0","lrjngex4bcj0q9o",474,"79.csv","","18419.700000286102","resources/images/parrot_nobg.png","13","",NA,NA,NA,NA,""
"image-keyboard-response",4,34369,"0.0-3.0-1.0","lrjngex4bcj0q9o",474,"79.csv","","null","resources/image_sets/111.png","null","",NA,NA,NA,NA,""
"image-keyboard-response",5,37960,"0.0-3.0-2.0","lrjngex4bcj0q9o",474,"79.csv","","3590.0999999046326","resources/image_sets/left_highlight.png","37","",NA,NA,NA,NA,""
"image-keyboard-response",6,39944,"0.0-3.0-3.0","lrjngex4bcj0q9o",474,"79.csv","","1982.5999999046326","resources/image_sets/mid_highlight.png","38","",NA,NA,NA,NA,""
"image-keyboard-response",7,41392,"0.0-3.0-4.0","lrjngex4bcj0q9o",474,"79.csv","","1446.7999997138977","resources/image_sets/right_highlight.png","39","",NA,NA,NA,NA,""
"image-keyboard-response",8,43679,"0.0-3.0-5.0","lrjngex4bcj0q9o",474,"79.csv","","2286.5","resources/image_sets/111.png","13","",NA,NA,NA,NA,""
"image-keyboard-response",9,46407,"0.0-3.0-6.0","lrjngex4bcj0q9o",474,"79.csv","","2727.4000000953674","resources/images/coin2.png","13","",NA,NA,NA,NA,""
"image-keyboard-response",10,48127,"0.0-3.0-7.0","lrjngex4bcj0q9o",474,"79.csv","","1719.5999999046326","resources/images/fishbone.png","13","",NA,NA,NA,NA,""
"html-keyboard-response",11,53183,"0.0-3.0-8.0","lrjngex4bcj0q9o",474,"79.csv","","5055.300000190735","<p>You can track your coin total on the top right of your screen. </p><p>At the end of your journey you will be directed to a survey, so please click on the link before exiting the task</p><p>Press Enter to begin</p>","13","",NA,NA,NA,NA,""
"image-keyboard-response",12,55959,"0.0-4.0-0.0","lrjngex4bcj0q9o",474,"79.csv","","2775.0999999046326","resources/trios/L4T4A3.jpg","39","restless",0.9,0.3,0.7,0.560281065213118,"true"
"image-keyboard-response",13,56363,"0.0-4.0-1.0","lrjngex4bcj0q9o",474,"79.csv","","null","resources/maskTrios/BBA3.jpg","null","",NA,NA,NA,NA,""
"image-keyboard-response",14,57568,"0.0-4.0-2.0","lrjngex4bcj0q9o",474,"79.csv","","null","resources/images/coin2.png","null","",NA,NA,NA,NA,""
"image-keyboard-response",15,59007,"0.0-4.1-0.1","lrjngex4bcj0q9o",474,"79.csv","","1438.1999998092651","resources/trios/L4T4A3.jpg","37","restless",0.9,0.3,0.7,0.236123452487271,"true"
"image-keyboard-response",16,59410,"0.0-4.1-1.1","lrjngex4bcj0q9o",474,"79.csv","","null","resources/maskTrios/L4BB.jpg","null","",NA,NA,NA,NA,""
"image-keyboard-response",17,60612,"0.0-4.1-2.1","lrjngex4bcj0q9o",474,"79.csv","","null","resources/images/coin2.png","null","",NA,NA,NA,NA,""
"image-keyboard-response",18,62279,"0.0-4.2-0.2","lrjngex4bcj0q9o",474,"79.csv","","1666","resources/trios/L4T4A3.jpg","37","restless",0.9,0.3,0.7,0.531278904461059,"true"
"image-keyboard-response",19,62681,"0.0-4.2-1.2","lrjngex4bcj0q9o",474,"79.csv","","null","resources/maskTrios/L4BB.jpg","null","",NA,NA,NA,NA,""
"image-keyboard-response",20,63883,"0.0-4.2-2.2","lrjngex4bcj0q9o",474,"79.csv","","null","resources/images/coin2.png","null","",NA,NA,NA,NA,""
"image-keyboard-response",21,64447,"0.0-4.3-0.3","lrjngex4bcj0q9o",474,"79.csv","","562.9000000953674","resources/trios/L4T4A3.jpg","38","restless",0.9,0.3,0.7,0.380136201317236,"false"
"image-keyboard-response",22,64849,"0.0-4.3-1.3","lrjngex4bcj0q9o",474,"79.csv","","null","resources/maskTrios/BT4B.jpg","null","",NA,NA,NA,NA,""
"image-keyboard-response",23,66051,"0.0-4.3-2.3","lrjngex4bcj0q9o",474,"79.csv","","null","resources/images/fishbone.png","null","",NA,NA,NA,NA,""
"image-keyboard-response",24,68239,"0.0-4.4-0.4","lrjngex4bcj0q9o",474,"79.csv","","2187.0999999046326","resources/trios/L4T4A3.jpg","39","restless",0.9,0.3,0.7,0.114847158827222,"true"
"image-keyboard-response",25,68641,"0.0-4.4-1.4","lrjngex4bcj0q9o",474,"79.csv","","null","resources/maskTrios/BBA3.jpg","null","",NA,NA,NA,NA,""
"image-keyboard-response",26,69843,"0.0-4.4-2.4","lrjngex4bcj0q9o",474,"79.csv","","null","resources/images/coin2.png","null","",NA,NA,NA,NA,""
"image-keyboard-response",27,70256,"0.0-4.5-0.5","lrjngex4bcj0q9o",474,"79.csv","","411.2000002861023","resources/trios/L4T4A3.jpg","38","restless",0.9,0.3,0.7,0.242633645014189,"true"
"image-keyboard-response",28,70657,"0.0-4.5-1.5","lrjngex4bcj0q9o",474,"79.csv","","null","resources/maskTrios/BT4B.jpg","null","",NA,NA,NA,NA,""
"image-keyboard-response",29,71860,"0.0-4.5-2.5","lrjngex4bcj0q9o",474,"79.csv","","null","resources/images/coin2.png","null","",NA,NA,NA,NA,""
"image-keyboard-response",30,72751,"0.0-4.6-0.6","lrjngex4bcj0q9o",474,"79.csv","","889.9000000953674","resources/trios/L4T4A3.jpg","37","restless",0.9,0.3,0.7,0.571800856605412,"true"
"image-keyboard-response",31,73153,"0.0-4.6-1.6","lrjngex4bcj0q9o",474,"79.csv","","null","resources/maskTrios/L4BB.jpg","null","",NA,NA,NA,NA,""
"image-keyboard-response",32,74355,"0.0-4.6-2.6","lrjngex4bcj0q9o",474,"79.csv","","null","resources/images/coin2.png","null","",NA,NA,NA,NA,""
"image-keyboard-response",33,74823,"0.0-4.7-0.7","lrjngex4bcj0q9o",474,"79.csv","","466.80000019073486","resources/trios/L4T4A3.jpg","39","restless",0.8,0.3,0.7,0.795338298014768,"false"
"image-keyboard-response",34,75225,"0.0-4.7-1.7","lrjngex4bcj0q9o",474,"79.csv","","null","resources/maskTrios/BBA3.jpg","null","",NA,NA,NA,NA,""
"image-keyboard-response",35,76427,"0.0-4.7-2.7","lrjngex4bcj0q9o",474,"79.csv","","null","resources/images/fishbone.png","null","",NA,NA,NA,NA,""
"image-keyboard-response",36,76903,"0.0-4.8-0.8","lrjngex4bcj0q9o",474,"79.csv","","474.90000009536743","resources/trios/L4T4A3.jpg","37","restless",0.8,0.3,0.7,0.518201672664595,"true"
"image-keyboard-response",37,77305,"0.0-4.8-1.8","lrjngex4bcj0q9o",474,"79.csv","","null","resources/maskTrios/L4BB.jpg","null","",NA,NA,NA,NA,""
"image-keyboard-response",38,78508,"0.0-4.8-2.8","lrjngex4bcj0q9o",474,"79.csv","","null","resources/images/coin2.png","null","",NA,NA,NA,NA,""
"image-keyboard-response",39,79559,"0.0-4.9-0.9","lrjngex4bcj0q9o",474,"79.csv","","1050","resources/trios/L4T4A3.jpg","38","restless",0.8,0.3,0.7,0.92417382190132,"false"
"image-keyboard-response",40,79961,"0.0-4.9-1.9","lrjngex4bcj0q9o",474,"79.csv","","null","resources/maskTrios/BT4B.jpg","null","",NA,NA,NA,NA,""
"image-keyboard-response",41,81162,"0.0-4.9-2.9","lrjngex4bcj0q9o",474,"79.csv","","null","resources/images/fishbone.png","null","",NA,NA,NA,NA,""
"image-keyboard-response",42,82807,"0.0-4.10-0.10","lrjngex4bcj0q9o",474,"79.csv","","1643.6999998092651","resources/trios/L4T4A3.jpg","39","restless",0.8,0.3,0.7,0.60646476211431,"true"
"image-keyboard-response",43,83209,"0.0-4.10-1.10","lrjngex4bcj0q9o",474,"79.csv","","null","resources/maskTrios/BBA3.jpg","null","",NA,NA,NA,NA,""
"image-keyboard-response",44,84411,"0.0-4.10-2.10","lrjngex4bcj0q9o",474,"79.csv","","null","resources/images/coin2.png","null","",NA,NA,NA,NA,""
"image-keyboard-response",45,84695,"0.0-4.11-0.11","lrjngex4bcj0q9o",474,"79.csv","","282.80000019073486","resources/trios/L4T4A3.jpg","39","restless",0.8,0.3,0.7,0.49867899047613,"true"
"image-keyboard-response",46,85097,"0.0-4.11-1.11","lrjngex4bcj0q9o",474,"79.csv","","null","resources/maskTrios/BBA3.jpg","null","",NA,NA,NA,NA,""
"image-keyboard-response",47,86300,"0.0-4.11-2.11","lrjngex4bcj0q9o",474,"79.csv","","null","resources/images/coin2.png","null","",NA,NA,NA,NA,""
"image-keyboard-response",48,86631,"0.0-4.12-0.12","lrjngex4bcj0q9o",474,"79.csv","","329.80000019073486","resources/trios/L4T4A3.jpg","37","restless",0.8,0.2,0.7,0.0790761334350694,"true"
"image-keyboard-response",49,87042,"0.0-4.12-1.12","lrjngex4bcj0q9o",474,"79.csv","","null","resources/maskTrios/L4BB.jpg","null","",NA,NA,NA,NA,""
"image-keyboard-response",50,88244,"0.0-4.12-2.12","lrjngex4bcj0q9o",474,"79.csv","","null","resources/images/coin2.png","null","",NA,NA,NA,NA,""
"image-keyboard-response",51,88567,"0.0-4.13-0.13","lrjngex4bcj0q9o",474,"79.csv","","322.09999990463257","resources/trios/L4T4A3.jpg","38","restless",0.8,0.2,0.7,0.176386366891075,"true"
"image-keyboard-response",52,88968,"0.0-4.13-1.13","lrjngex4bcj0q9o",474,"79.csv","","null","resources/maskTrios/BT4B.jpg","null","",NA,NA,NA,NA,""
"image-keyboard-response",53,90170,"0.0-4.13-2.13","lrjngex4bcj0q9o",474,"79.csv","","null","resources/images/coin2.png","null","",NA,NA,NA,NA,""
"image-keyboard-response",54,90455,"0.0-4.14-0.14","lrjngex4bcj0q9o",474,"79.csv","","283.5","resources/trios/L4T4A3.jpg","37","restless",0.8,0.2,0.7,0.729990679155727,"true"
"image-keyboard-response",55,90857,"0.0-4.14-1.14","lrjngex4bcj0q9o",474,"79.csv","","null","resources/maskTrios/L4BB.jpg","null","",NA,NA,NA,NA,""
"image-keyboard-response",56,92059,"0.0-4.14-2.14","lrjngex4bcj0q9o",474,"79.csv","","null","resources/images/coin2.png","null","",NA,NA,NA,NA,""
"image-keyboard-response",57,92319,"0.0-4.15-0.15","lrjngex4bcj0q9o",474,"79.csv","","258.5","resources/trios/L4T4A3.jpg","38","restless",0.8,0.2,0.7,0.0524015608881867,"true"
"image-keyboard-response",58,92721,"0.0-4.15-1.15","lrjngex4bcj0q9o",474,"79.csv","","null","resources/maskTrios/BT4B.jpg","null","",NA,NA,NA,NA,""
"image-keyboard-response",59,93923,"0.0-4.15-2.15","lrjngex4bcj0q9o",474,"79.csv","","null","resources/images/coin2.png","null","",NA,NA,NA,NA,""
"image-keyboard-response",60,94207,"0.0-4.16-0.16","lrjngex4bcj0q9o",474,"79.csv","","283.59999990463257","resources/trios/L4T4A3.jpg","39","restless",0.8,0.2,0.7,0.0682497006729068,"true"
"image-keyboard-response",61,94609,"0.0-4.16-1.16","lrjngex4bcj0q9o",474,"79.csv","","null","resources/maskTrios/BBA3.jpg","null","",NA,NA,NA,NA,""
"image-keyboard-response",62,95811,"0.0-4.16-2.16","lrjngex4bcj0q9o",474,"79.csv","","null","resources/images/coin2.png","null","",NA,NA,NA,NA,""
"image-keyboard-response",63,96087,"0.0-4.17-0.17","lrjngex4bcj0q9o",474,"79.csv","","274.90000009536743","resources/trios/L4T4A3.jpg","37","restless",0.8,0.2,0.6,0.730615990898147,"true"
"image-keyboard-response",64,96490,"0.0-4.17-1.17","lrjngex4bcj0q9o",474,"79.csv","","null","resources/maskTrios/L4BB.jpg","null","",NA,NA,NA,NA,""
"image-keyboard-response",65,97691,"0.0-4.17-2.17","lrjngex4bcj0q9o",474,"79.csv","","null","resources/images/coin2.png","null","",NA,NA,NA,NA,""
"image-keyboard-response",66,97919,"0.0-4.18-0.18","lrjngex4bcj0q9o",474,"79.csv","","226.60000038146973","resources/trios/L4T4A3.jpg","38","restless",0.8,0.3,0.5,0.825788238549933,"false"
"image-keyboard-response",67,98321,"0.0-4.18-1.18","lrjngex4bcj0q9o",474,"79.csv","","null","resources/maskTrios/BT4B.jpg","null","",NA,NA,NA,NA,""
"image-keyboard-response",68,99523,"0.0-4.18-2.18","lrjngex4bcj0q9o",474,"79.csv","","null","resources/images/fishbone.png","null","",NA,NA,NA,NA,""
"image-keyboard-response",69,99815,"0.0-4.19-0.19","lrjngex4bcj0q9o",474,"79.csv","","290.90000009536743","resources/trios/L4T4A3.jpg","39","restless",0.8,0.3,0.5,0.878798601295673,"false"
"image-keyboard-response",70,100217,"0.0-4.19-1.19","lrjngex4bcj0q9o",474,"79.csv","","null","resources/maskTrios/BBA3.jpg","null","",NA,NA,NA,NA,""
"image-keyboard-response",71,101419,"0.0-4.19-2.19","lrjngex4bcj0q9o",474,"79.csv","","null","resources/images/fishbone.png","null","",NA,NA,NA,NA,""
"image-keyboard-response",72,101695,"0.0-4.20-0.20","lrjngex4bcj0q9o",474,"79.csv","","275.1000003814697","resources/trios/L4T4A3.jpg","37","restless",0.8,0.3,0.5,0.689501472655017,"true"
"image-keyboard-response",73,102097,"0.0-4.20-1.20","lrjngex4bcj0q9o",474,"79.csv","","null","resources/maskTrios/L4BB.jpg","null","",NA,NA,NA,NA,""
"image-keyboard-response",74,103298,"0.0-4.20-2.20","lrjngex4bcj0q9o",474,"79.csv","","null","resources/images/coin2.png","null","",NA,NA,NA,NA,""
"image-keyboard-response",75,103599,"0.0-4.21-0.21","lrjngex4bcj0q9o",474,"79.csv","","299.6000003814697","resources/trios/L4T4A3.jpg","37","restless",0.8,0.4,0.5,0.209773996522891,"true"
"image-keyboard-response",76,104002,"0.0-4.21-1.21","lrjngex4bcj0q9o",474,"79.csv","","null","resources/maskTrios/L4BB.jpg","null","",NA,NA,NA,NA,""
"image-keyboard-response",77,105203,"0.0-4.21-2.21","lrjngex4bcj0q9o",474,"79.csv","","null","resources/images/coin2.png","null","",NA,NA,NA,NA,""
"image-keyboard-response",78,105496,"0.0-4.22-0.22","lrjngex4bcj0q9o",474,"79.csv","","291.2000002861023","resources/trios/L4T4A3.jpg","37","restless",0.8,0.4,0.5,0.927490585553624,"false"
"image-keyboard-response",79,105899,"0.0-4.22-1.22","lrjngex4bcj0q9o",474,"79.csv","","null","resources/maskTrios/L4BB.jpg","null","",NA,NA,NA,NA,""
"image-keyboard-response",80,107100,"0.0-4.22-2.22","lrjngex4bcj0q9o",474,"79.csv","","null","resources/images/fishbone.png","null","",NA,NA,NA,NA,""
"image-keyboard-response",81,107360,"0.0-4.23-0.23","lrjngex4bcj0q9o",474,"79.csv","","258","resources/trios/L4T4A3.jpg","38","restless",0.7,0.4,0.5,0.616214158683922,"false"
"image-keyboard-response",82,107762,"0.0-4.23-1.23","lrjngex4bcj0q9o",474,"79.csv","","null","resources/maskTrios/BT4B.jpg","null","",NA,NA,NA,NA,""
"image-keyboard-response",83,108971,"0.0-4.23-2.23","lrjngex4bcj0q9o",474,"79.csv","","null","resources/images/fishbone.png","null","",NA,NA,NA,NA,""
"image-keyboard-response",84,109216,"0.0-4.24-0.24","lrjngex4bcj0q9o",474,"79.csv","","243.80000019073486","resources/trios/L4T4A3.jpg","39","restless",0.7,0.4,0.5,0.977337710630879,"false"
"image-keyboard-response",85,109618,"0.0-4.24-1.24","lrjngex4bcj0q9o",474,"79.csv","","null","resources/maskTrios/BBA3.jpg","null","",NA,NA,NA,NA,""
"image-keyboard-response",86,110821,"0.0-4.24-2.24","lrjngex4bcj0q9o",474,"79.csv","","null","resources/images/fishbone.png","null","",NA,NA,NA,NA,""
"image-keyboard-response",87,111080,"0.0-4.25-0.25","lrjngex4bcj0q9o",474,"79.csv","","257.90000009536743","resources/trios/L4T4A3.jpg","37","restless",0.7,0.4,0.5,0.114026563074557,"true"
"image-keyboard-response",88,111482,"0.0-4.25-1.25","lrjngex4bcj0q9o",474,"79.csv","","null","resources/maskTrios/L4BB.jpg","null","",NA,NA,NA,NA,""
"image-keyboard-response",89,112684,"0.0-4.25-2.25","lrjngex4bcj0q9o",474,"79.csv","","null","resources/images/coin2.png","null","",NA,NA,NA,NA,""
"image-keyboard-response",90,113032,"0.0-4.26-0.26","lrjngex4bcj0q9o",474,"79.csv","","346.30000019073486","resources/trios/L4T4A3.jpg","38","restless",0.7,0.5,0.5,0.632553197380315,"false"
"image-keyboard-response",91,113433,"0.0-4.26-1.26","lrjngex4bcj0q9o",474,"79.csv","","null","resources/maskTrios/BT4B.jpg","null","",NA,NA,NA,NA,""
"image-keyboard-response",92,114635,"0.0-4.26-2.26","lrjngex4bcj0q9o",474,"79.csv","","null","resources/images/fishbone.png","null","",NA,NA,NA,NA,""
"image-keyboard-response",93,114896,"0.0-4.27-0.27","lrjngex4bcj0q9o",474,"79.csv","","259.09999990463257","resources/trios/L4T4A3.jpg","37","restless",0.6,0.5,0.5,0.573793315053987,"true"
"image-keyboard-response",94,115298,"0.0-4.27-1.27","lrjngex4bcj0q9o",474,"79.csv","","null","resources/maskTrios/L4BB.jpg","null","",NA,NA,NA,NA,""
"image-keyboard-response",95,116499,"0.0-4.27-2.27","lrjngex4bcj0q9o",474,"79.csv","","null","resources/images/coin2.png","null","",NA,NA,NA,NA,""
"image-keyboard-response",96,116832,"0.0-4.28-0.28","lrjngex4bcj0q9o",474,"79.csv","","331.5","resources/trios/L4T4A3.jpg","39","restless",0.6,0.5,0.5,0.997942871559255,"false"
"image-keyboard-response",97,117234,"0.0-4.28-1.28","lrjngex4bcj0q9o",474,"79.csv","","null","resources/maskTrios/BBA3.jpg","null","",NA,NA,NA,NA,""
"image-keyboard-response",98,118436,"0.0-4.28-2.28","lrjngex4bcj0q9o",474,"79.csv","","null","resources/images/fishbone.png","null","",NA,NA,NA,NA,""
"image-keyboard-response",99,118688,"0.0-4.29-0.29","lrjngex4bcj0q9o",474,"79.csv","","250.69999980926514","resources/trios/L4T4A3.jpg","38","restless",0.6,0.5,0.5,0.807684083990251,"false"
"image-keyboard-response",100,119090,"0.0-4.29-1.29","lrjngex4bcj0q9o",474,"79.csv","","null","resources/maskTrios/BT4B.jpg","null","",NA,NA,NA,NA,""
"image-keyboard-response",101,120291,"0.0-4.29-2.29","lrjngex4bcj0q9o",474,"79.csv","","null","resources/images/fishbone.png","null","",NA,NA,NA,NA,""
"image-keyboard-response",102,120520,"0.0-4.30-0.30","lrjngex4bcj0q9o",474,"79.csv","","227.39999961853027","resources/trios/L4T4A3.jpg","37","restless",0.6,0.5,0.5,0.983095730681607,"false"
"image-keyboard-response",103,120922,"0.0-4.30-1.30","lrjngex4bcj0q9o",474,"79.csv","","null","resources/maskTrios/L4BB.jpg","null","",NA,NA,NA,NA,""
"image-keyboard-response",104,122123,"0.0-4.30-2.30","lrjngex4bcj0q9o",474,"79.csv","","null","resources/images/fishbone.png","null","",NA,NA,NA,NA,""
"image-keyboard-response",105,122360,"0.0-4.31-0.31","lrjngex4bcj0q9o",474,"79.csv","","235.5","resources/trios/L4T4A3.jpg","38","restless",0.6,0.5,0.5,0.0771185391462073,"true"
"image-keyboard-response",106,122761,"0.0-4.31-1.31","lrjngex4bcj0q9o",474,"79.csv","","null","resources/maskTrios/BT4B.jpg","null","",NA,NA,NA,NA,""
"image-keyboard-response",107,123962,"0.0-4.31-2.31","lrjngex4bcj0q9o",474,"79.csv","","null","resources/images/coin2.png","null","",NA,NA,NA,NA,""
"image-keyboard-response",108,124856,"0.0-4.32-0.32","lrjngex4bcj0q9o",474,"79.csv","","892","resources/trios/L4T4A3.jpg","39","restless",0.5,0.5,0.5,0.195647183439512,"true"
"image-keyboard-response",109,125258,"0.0-4.32-1.32","lrjngex4bcj0q9o",474,"79.csv","","null","resources/maskTrios/BBA3.jpg","null","",NA,NA,NA,NA,""
"image-keyboard-response",110,126459,"0.0-4.32-2.32","lrjngex4bcj0q9o",474,"79.csv","","null","resources/images/coin2.png","null","",NA,NA,NA,NA,""
"image-keyboard-response",111,131592,"0.0-4.33-0.33","lrjngex4bcj0q9o",474,"79.csv","","5131.200000286102","resources/trios/L4T4A3.jpg","37","restless",0.5,0.5,0.5,0.227220137944857,"true"
"image-keyboard-response",112,132009,"0.0-4.33-1.33","lrjngex4bcj0q9o",474,"79.csv","","null","resources/maskTrios/L4BB.jpg","null","",NA,NA,NA,NA,""
"image-keyboard-response",113,133212,"0.0-4.33-2.33","lrjngex4bcj0q9o",474,"79.csv","","null","resources/images/coin2.png","null","",NA,NA,NA,NA,""
"image-keyboard-response",114,134056,"0.0-4.34-0.34","lrjngex4bcj0q9o",474,"79.csv","","842.1999998092651","resources/trios/L4T4A3.jpg","39","restless",0.5,0.5,0.5,0.648782123092917,"false"
"image-keyboard-response",115,134458,"0.0-4.34-1.34","lrjngex4bcj0q9o",474,"79.csv","","null","resources/maskTrios/BBA3.jpg","null","",NA,NA,NA,NA,""
"image-keyboard-response",116,135659,"0.0-4.34-2.34","lrjngex4bcj0q9o",474,"79.csv","","null","resources/images/fishbone.png","null","",NA,NA,NA,NA,""
"image-keyboard-response",117,135952,"0.0-4.35-0.35","lrjngex4bcj0q9o",474,"79.csv","","291.5","resources/trios/L4T4A3.jpg","38","restless",0.4,0.5,0.5,0.750336753924105,"false"
"image-keyboard-response",118,136354,"0.0-4.35-1.35","lrjngex4bcj0q9o",474,"79.csv","","null","resources/maskTrios/BT4B.jpg","null","",NA,NA,NA,NA,""
"image-keyboard-response",119,137555,"0.0-4.35-2.35","lrjngex4bcj0q9o",474,"79.csv","","null","resources/images/fishbone.png","null","",NA,NA,NA,NA,""
"image-keyboard-response",120,139400,"0.0-4.36-0.36","lrjngex4bcj0q9o",474,"79.csv","","1843.0999999046326","resources/trios/L4T4A3.jpg","38","restless",0.4,0.5,0.5,0.902121190258201,"false"
"image-keyboard-response",121,139801,"0.0-4.36-1.36","lrjngex4bcj0q9o",474,"79.csv","","null","resources/maskTrios/BT4B.jpg","null","",NA,NA,NA,NA,""
"image-keyboard-response",122,141002,"0.0-4.36-2.36","lrjngex4bcj0q9o",474,"79.csv","","null","resources/images/fishbone.png","null","",NA,NA,NA,NA,""
"image-keyboard-response",123,142176,"0.0-4.37-0.37","lrjngex4bcj0q9o",474,"79.csv","","1172.5999999046326","resources/trios/L4T4A3.jpg","37","restless",0.4,0.5,0.5,0.237906974375924,"true"
"image-keyboard-response",124,142578,"0.0-4.37-1.37","lrjngex4bcj0q9o",474,"79.csv","","null","resources/maskTrios/L4BB.jpg","null","",NA,NA,NA,NA,""
"image-keyboard-response",125,143780,"0.0-4.37-2.37","lrjngex4bcj0q9o",474,"79.csv","","null","resources/images/coin2.png","null","",NA,NA,NA,NA,""
"image-keyboard-response",126,145112,"0.0-4.38-0.38","lrjngex4bcj0q9o",474,"79.csv","","1330.0999999046326","resources/trios/L4T4A3.jpg","39","restless",0.4,0.5,0.5,0.567176488080399,"false"
"image-keyboard-response",127,145513,"0.0-4.38-1.38","lrjngex4bcj0q9o",474,"79.csv","","null","resources/maskTrios/BBA3.jpg","null","",NA,NA,NA,NA,""
"image-keyboard-response",128,146714,"0.0-4.38-2.38","lrjngex4bcj0q9o",474,"79.csv","","null","resources/images/fishbone.png","null","",NA,NA,NA,NA,""
"image-keyboard-response",129,147007,"0.0-4.39-0.39","lrjngex4bcj0q9o",474,"79.csv","","291.80000019073486","resources/trios/L4T4A3.jpg","37","restless",0.4,0.5,0.5,0.949580155501289,"false"
"image-keyboard-response",130,147410,"0.0-4.39-1.39","lrjngex4bcj0q9o",474,"79.csv","","null","resources/maskTrios/L4BB.jpg","null","",NA,NA,NA,NA,""
"image-keyboard-response",131,148611,"0.0-4.39-2.39","lrjngex4bcj0q9o",474,"79.csv","","null","resources/images/fishbone.png","null","",NA,NA,NA,NA,""
"image-keyboard-response",132,148831,"0.0-4.40-0.40","lrjngex4bcj0q9o",474,"79.csv","","219.5","resources/trios/L4T4A3.jpg","38","restless",0.4,0.5,0.5,0.551333490664878,"false"
"image-keyboard-response",133,149233,"0.0-4.40-1.40","lrjngex4bcj0q9o",474,"79.csv","","null","resources/maskTrios/BT4B.jpg","null","",NA,NA,NA,NA,""
"image-keyboard-response",134,150434,"0.0-4.40-2.40","lrjngex4bcj0q9o",474,"79.csv","","null","resources/images/fishbone.png","null","",NA,NA,NA,NA,""
"image-keyboard-response",135,150695,"0.0-4.41-0.41","lrjngex4bcj0q9o",474,"79.csv","","259.69999980926514","resources/trios/L4T4A3.jpg","37","restless",0.4,0.5,0.5,0.974835260335989,"false"
"image-keyboard-response",136,151098,"0.0-4.41-1.41","lrjngex4bcj0q9o",474,"79.csv","","null","resources/maskTrios/L4BB.jpg","null","",NA,NA,NA,NA,""
"image-keyboard-response",137,152300,"0.0-4.41-2.41","lrjngex4bcj0q9o",474,"79.csv","","null","resources/images/fishbone.png","null","",NA,NA,NA,NA,""
"image-keyboard-response",138,152592,"0.0-4.42-0.42","lrjngex4bcj0q9o",474,"79.csv","","290.09999990463257","resources/trios/L4T4A3.jpg","37","restless",0.4,0.5,0.5,0.864444400306999,"false"
"image-keyboard-response",139,152994,"0.0-4.42-1.42","lrjngex4bcj0q9o",474,"79.csv","","null","resources/maskTrios/L4BB.jpg","null","",NA,NA,NA,NA,""
"image-keyboard-response",140,154196,"0.0-4.42-2.42","lrjngex4bcj0q9o",474,"79.csv","","null","resources/images/fishbone.png","null","",NA,NA,NA,NA,""
"image-keyboard-response",141,154455,"0.0-4.43-0.43","lrjngex4bcj0q9o",474,"79.csv","","258.5","resources/trios/L4T4A3.jpg","39","restless",0.4,0.5,0.5,0.083760621287998,"true"
"image-keyboard-response",142,154858,"0.0-4.43-1.43","lrjngex4bcj0q9o",474,"79.csv","","null","resources/maskTrios/BBA3.jpg","null","",NA,NA,NA,NA,""
"image-keyboard-response",143,156059,"0.0-4.43-2.43","lrjngex4bcj0q9o",474,"79.csv","","null","resources/images/coin2.png","null","",NA,NA,NA,NA,""
"image-keyboard-response",144,156335,"0.0-4.44-0.44","lrjngex4bcj0q9o",474,"79.csv","","274.80000019073486","resources/trios/L4T4A3.jpg","39","restless",0.4,0.5,0.5,0.240325004623499,"true"
"image-keyboard-response",145,156738,"0.0-4.44-1.44","lrjngex4bcj0q9o",474,"79.csv","","null","resources/maskTrios/BBA3.jpg","null","",NA,NA,NA,NA,""
"image-keyboard-response",146,157940,"0.0-4.44-2.44","lrjngex4bcj0q9o",474,"79.csv","","null","resources/images/coin2.png","null","",NA,NA,NA,NA,""
"image-keyboard-response",147,158199,"0.0-4.45-0.45","lrjngex4bcj0q9o",474,"79.csv","","258.5","resources/trios/L4T4A3.jpg","38","restless",0.4,0.5,0.5,0.863471132436244,"false"
"image-keyboard-response",148,158602,"0.0-4.45-1.45","lrjngex4bcj0q9o",474,"79.csv","","null","resources/maskTrios/BT4B.jpg","null","",NA,NA,NA,NA,""
"image-keyboard-response",149,159803,"0.0-4.45-2.45","lrjngex4bcj0q9o",474,"79.csv","","null","resources/images/fishbone.png","null","",NA,NA,NA,NA,""
"image-keyboard-response",150,160047,"0.0-4.46-0.46","lrjngex4bcj0q9o",474,"79.csv","","242.80000019073486","resources/trios/L4T4A3.jpg","37","restless",0.4,0.5,0.5,0.684641859987882,"false"
"image-keyboard-response",151,160450,"0.0-4.46-1.46","lrjngex4bcj0q9o",474,"79.csv","","null","resources/maskTrios/L4BB.jpg","null","",NA,NA,NA,NA,""
"image-keyboard-response",152,161651,"0.0-4.46-2.46","lrjngex4bcj0q9o",474,"79.csv","","null","resources/images/fishbone.png","null","",NA,NA,NA,NA,""
"image-keyboard-response",153,161991,"0.0-4.47-0.47","lrjngex4bcj0q9o",474,"79.csv","","339.1000003814697","resources/trios/L4T4A3.jpg","39","restless",0.4,0.5,0.5,0.42002828885301,"true"
"image-keyboard-response",154,162394,"0.0-4.47-1.47","lrjngex4bcj0q9o",474,"79.csv","","null","resources/maskTrios/BBA3.jpg","null","",NA,NA,NA,NA,""
"image-keyboard-response",155,163595,"0.0-4.47-2.47","lrjngex4bcj0q9o",474,"79.csv","","null","resources/images/coin2.png","null","",NA,NA,NA,NA,""
"image-keyboard-response",156,163904,"0.0-4.48-0.48","lrjngex4bcj0q9o",474,"79.csv","","307.2999997138977","resources/trios/L4T4A3.jpg","39","restless",0.4,0.5,0.5,0.227485152620094,"true"
"image-keyboard-response",157,164305,"0.0-4.48-1.48","lrjngex4bcj0q9o",474,"79.csv","","null","resources/maskTrios/BBA3.jpg","null","",NA,NA,NA,NA,""
"image-keyboard-response",158,165508,"0.0-4.48-2.48","lrjngex4bcj0q9o",474,"79.csv","","null","resources/images/coin2.png","null","",NA,NA,NA,NA,""
"image-keyboard-response",159,165815,"0.0-4.49-0.49","lrjngex4bcj0q9o",474,"79.csv","","305.90000009536743","resources/trios/L4T4A3.jpg","39","restless",0.4,0.5,0.6,0.459908433873381,"true"
"image-keyboard-response",160,166218,"0.0-4.49-1.49","lrjngex4bcj0q9o",474,"79.csv","","null","resources/maskTrios/BBA3.jpg","null","",NA,NA,NA,NA,""
"image-keyboard-response",161,167420,"0.0-4.49-2.49","lrjngex4bcj0q9o",474,"79.csv","","null","resources/images/coin2.png","null","",NA,NA,NA,NA,""
"image-keyboard-response",162,167711,"0.0-4.50-0.50","lrjngex4bcj0q9o",474,"79.csv","","289.80000019073486","resources/trios/L4T4A3.jpg","39","restless",0.4,0.5,0.6,0.757567684229661,"false"
"image-keyboard-response",163,168114,"0.0-4.50-1.50","lrjngex4bcj0q9o",474,"79.csv","","null","resources/maskTrios/BBA3.jpg","null","",NA,NA,NA,NA,""
"image-keyboard-response",164,169315,"0.0-4.50-2.50","lrjngex4bcj0q9o",474,"79.csv","","null","resources/images/fishbone.png","null","",NA,NA,NA,NA,""
"image-keyboard-response",165,169607,"0.0-4.51-0.51","lrjngex4bcj0q9o",474,"79.csv","","290.80000019073486","resources/trios/L4T4A3.jpg","37","restless",0.4,0.5,0.6,0.37424113251035,"true"
"image-keyboard-response",166,170009,"0.0-4.51-1.51","lrjngex4bcj0q9o",474,"79.csv","","null","resources/maskTrios/L4BB.jpg","null","",NA,NA,NA,NA,""
"image-keyboard-response",167,171212,"0.0-4.51-2.51","lrjngex4bcj0q9o",474,"79.csv","","null","resources/images/coin2.png","null","",NA,NA,NA,NA,""
"image-keyboard-response",168,171775,"0.0-4.52-0.52","lrjngex4bcj0q9o",474,"79.csv","","562.4000000953674","resources/trios/L4T4A3.jpg","37","restless",0.4,0.5,0.7,0.294729774798711,"true"
"image-keyboard-response",169,172178,"0.0-4.52-1.52","lrjngex4bcj0q9o",474,"79.csv","","null","resources/maskTrios/L4BB.jpg","null","",NA,NA,NA,NA,""
"image-keyboard-response",170,173379,"0.0-4.52-2.52","lrjngex4bcj0q9o",474,"79.csv","","null","resources/images/coin2.png","null","",NA,NA,NA,NA,""
"image-keyboard-response",171,173663,"0.0-4.53-0.53","lrjngex4bcj0q9o",474,"79.csv","","282.6000003814697","resources/trios/L4T4A3.jpg","37","restless",0.4,0.5,0.7,0.890912706704573,"false"
"image-keyboard-response",172,174065,"0.0-4.53-1.53","lrjngex4bcj0q9o",474,"79.csv","","null","resources/maskTrios/L4BB.jpg","null","",NA,NA,NA,NA,""
"image-keyboard-response",173,175267,"0.0-4.53-2.53","lrjngex4bcj0q9o",474,"79.csv","","null","resources/images/fishbone.png","null","",NA,NA,NA,NA,""
"image-keyboard-response",174,175512,"0.0-4.54-0.54","lrjngex4bcj0q9o",474,"79.csv","","243.5","resources/trios/L4T4A3.jpg","38","restless",0.4,0.5,0.6,0.769387932747213,"false"
"image-keyboard-response",175,175913,"0.0-4.54-1.54","lrjngex4bcj0q9o",474,"79.csv","","null","resources/maskTrios/BT4B.jpg","null","",NA,NA,NA,NA,""
"image-keyboard-response",176,177115,"0.0-4.54-2.54","lrjngex4bcj0q9o",474,"79.csv","","null","resources/images/fishbone.png","null","",NA,NA,NA,NA,""
"image-keyboard-response",177,177391,"0.0-4.55-0.55","lrjngex4bcj0q9o",474,"79.csv","","275.30000019073486","resources/trios/L4T4A3.jpg","37","restless",0.4,0.5,0.6,0.556999953605101,"false"
"image-keyboard-response",178,177794,"0.0-4.55-1.55","lrjngex4bcj0q9o",474,"79.csv","","null","resources/maskTrios/L4BB.jpg","null","",NA,NA,NA,NA,""
"image-keyboard-response",179,178995,"0.0-4.55-2.55","lrjngex4bcj0q9o",474,"79.csv","","null","resources/images/fishbone.png","null","",NA,NA,NA,NA,""
"image-keyboard-response",180,179239,"0.0-4.56-0.56","lrjngex4bcj0q9o",474,"79.csv","","243.30000019073486","resources/trios/L4T4A3.jpg","39","restless",0.4,0.5,0.7,0.931053411178066,"false"
"image-keyboard-response",181,179642,"0.0-4.56-1.56","lrjngex4bcj0q9o",474,"79.csv","","null","resources/maskTrios/BBA3.jpg","null","",NA,NA,NA,NA,""
"image-keyboard-response",182,180843,"0.0-4.56-2.56","lrjngex4bcj0q9o",474,"79.csv","","null","resources/images/fishbone.png","null","",NA,NA,NA,NA,""
"image-keyboard-response",183,181183,"0.0-4.57-0.57","lrjngex4bcj0q9o",474,"79.csv","","338.6000003814697","resources/trios/L4T4A3.jpg","39","restless",0.4,0.5,0.7,0.546432358518156,"true"
"image-keyboard-response",184,181585,"0.0-4.57-1.57","lrjngex4bcj0q9o",474,"79.csv","","null","resources/maskTrios/BBA3.jpg","null","",NA,NA,NA,NA,""
"image-keyboard-response",185,182788,"0.0-4.57-2.57","lrjngex4bcj0q9o",474,"79.csv","","null","resources/images/coin2.png","null","",NA,NA,NA,NA,""
"image-keyboard-response",186,183039,"0.0-4.58-0.58","lrjngex4bcj0q9o",474,"79.csv","","250.5","resources/trios/L4T4A3.jpg","39","restless",0.4,0.5,0.7,0.103359706169304,"true"
"image-keyboard-response",187,183441,"0.0-4.58-1.58","lrjngex4bcj0q9o",474,"79.csv","","null","resources/maskTrios/BBA3.jpg","null","",NA,NA,NA,NA,""
"image-keyboard-response",188,184643,"0.0-4.58-2.58","lrjngex4bcj0q9o",474,"79.csv","","null","resources/images/coin2.png","null","",NA,NA,NA,NA,""
"image-keyboard-response",189,184919,"0.0-4.59-0.59","lrjngex4bcj0q9o",474,"79.csv","","274.30000019073486","resources/trios/L4T4A3.jpg","39","restless",0.4,0.5,0.6,0.424031348754456,"true"
"image-keyboard-response",190,185321,"0.0-4.59-1.59","lrjngex4bcj0q9o",474,"79.csv","","null","resources/maskTrios/BBA3.jpg","null","",NA,NA,NA,NA,""
"image-keyboard-response",191,186523,"0.0-4.59-2.59","lrjngex4bcj0q9o",474,"79.csv","","null","resources/images/coin2.png","null","",NA,NA,NA,NA,""
"image-keyboard-response",192,186783,"0.0-4.60-0.60","lrjngex4bcj0q9o",474,"79.csv","","259.19999980926514","resources/trios/L4T4A3.jpg","39","restless",0.4,0.5,0.7,0.376825390958903,"true"
"image-keyboard-response",193,187185,"0.0-4.60-1.60","lrjngex4bcj0q9o",474,"79.csv","","null","resources/maskTrios/BBA3.jpg","null","",NA,NA,NA,NA,""
"image-keyboard-response",194,188388,"0.0-4.60-2.60","lrjngex4bcj0q9o",474,"79.csv","","null","resources/images/coin2.png","null","",NA,NA,NA,NA,""
"image-keyboard-response",195,188639,"0.0-4.61-0.61","lrjngex4bcj0q9o",474,"79.csv","","249.7000002861023","resources/trios/L4T4A3.jpg","37","restless",0.4,0.5,0.7,0.611360836584954,"false"
"image-keyboard-response",196,189041,"0.0-4.61-1.61","lrjngex4bcj0q9o",474,"79.csv","","null","resources/maskTrios/L4BB.jpg","null","",NA,NA,NA,NA,""
"image-keyboard-response",197,190243,"0.0-4.61-2.61","lrjngex4bcj0q9o",474,"79.csv","","null","resources/images/fishbone.png","null","",NA,NA,NA,NA,""
"image-keyboard-response",198,190471,"0.0-4.62-0.62","lrjngex4bcj0q9o",474,"79.csv","","227","resources/trios/L4T4A3.jpg","38","restless",0.4,0.5,0.7,0.0145183670476841,"true"
"image-keyboard-response",199,190873,"0.0-4.62-1.62","lrjngex4bcj0q9o",474,"79.csv","","null","resources/maskTrios/BT4B.jpg","null","",NA,NA,NA,NA,""
"image-keyboard-response",200,192074,"0.0-4.62-2.62","lrjngex4bcj0q9o",474,"79.csv","","null","resources/images/coin2.png","null","",NA,NA,NA,NA,""
"image-keyboard-response",201,192343,"0.0-4.63-0.63","lrjngex4bcj0q9o",474,"79.csv","","267.40000009536743","resources/trios/L4T4A3.jpg","39","restless",0.3,0.5,0.7,0.190919555342707,"true"
"image-keyboard-response",202,192744,"0.0-4.63-1.63","lrjngex4bcj0q9o",474,"79.csv","","null","resources/maskTrios/BBA3.jpg","null","",NA,NA,NA,NA,""
"image-keyboard-response",203,193946,"0.0-4.63-2.63","lrjngex4bcj0q9o",474,"79.csv","","null","resources/images/coin2.png","null","",NA,NA,NA,NA,""
"image-keyboard-response",204,194223,"0.0-4.64-0.64","lrjngex4bcj0q9o",474,"79.csv","","276.19999980926514","resources/trios/L4T4A3.jpg","38","restless",0.3,0.5,0.7,0.467833375383211,"true"
"image-keyboard-response",205,194625,"0.0-4.64-1.64","lrjngex4bcj0q9o",474,"79.csv","","null","resources/maskTrios/BT4B.jpg","null","",NA,NA,NA,NA,""
"image-keyboard-response",206,195828,"0.0-4.64-2.64","lrjngex4bcj0q9o",474,"79.csv","","null","resources/images/coin2.png","null","",NA,NA,NA,NA,""
"image-keyboard-response",207,196159,"0.0-4.65-0.65","lrjngex4bcj0q9o",474,"79.csv","","330.19999980926514","resources/trios/L4T4A3.jpg","38","restless",0.3,0.6,0.7,0.110660054825599,"true"
"image-keyboard-response",208,196561,"0.0-4.65-1.65","lrjngex4bcj0q9o",474,"79.csv","","null","resources/maskTrios/BT4B.jpg","null","",NA,NA,NA,NA,""
"image-keyboard-response",209,197763,"0.0-4.65-2.65","lrjngex4bcj0q9o",474,"79.csv","","null","resources/images/coin2.png","null","",NA,NA,NA,NA,""
"image-keyboard-response",210,197999,"0.0-4.66-0.66","lrjngex4bcj0q9o",474,"79.csv","","235.5","resources/trios/L4T4A3.jpg","39","restless",0.3,0.6,0.8,0.1637430438305,"true"
"image-keyboard-response",211,198401,"0.0-4.66-1.66","lrjngex4bcj0q9o",474,"79.csv","","null","resources/maskTrios/BBA3.jpg","null","",NA,NA,NA,NA,""
"image-keyboard-response",212,199603,"0.0-4.66-2.66","lrjngex4bcj0q9o",474,"79.csv","","null","resources/images/coin2.png","null","",NA,NA,NA,NA,""
"image-keyboard-response",213,199847,"0.0-4.67-0.67","lrjngex4bcj0q9o",474,"79.csv","","242.90000009536743","resources/trios/L4T4A3.jpg","39","restless",0.3,0.6,0.8,0.39243484583933,"true"
"image-keyboard-response",214,200250,"0.0-4.67-1.67","lrjngex4bcj0q9o",474,"79.csv","","null","resources/maskTrios/BBA3.jpg","null","",NA,NA,NA,NA,""
"image-keyboard-response",215,201451,"0.0-4.67-2.67","lrjngex4bcj0q9o",474,"79.csv","","null","resources/images/coin2.png","null","",NA,NA,NA,NA,""
"image-keyboard-response",216,201711,"0.0-4.68-0.68","lrjngex4bcj0q9o",474,"79.csv","","258.59999990463257","resources/trios/L4T4A3.jpg","39","restless",0.3,0.6,0.8,0.276520623172254,"true"
"image-keyboard-response",217,202113,"0.0-4.68-1.68","lrjngex4bcj0q9o",474,"79.csv","","null","resources/maskTrios/BBA3.jpg","null","",NA,NA,NA,NA,""
"image-keyboard-response",218,203315,"0.0-4.68-2.68","lrjngex4bcj0q9o",474,"79.csv","","null","resources/images/coin2.png","null","",NA,NA,NA,NA,""
"image-keyboard-response",219,203583,"0.0-4.69-0.69","lrjngex4bcj0q9o",474,"79.csv","","266.7999997138977","resources/trios/L4T4A3.jpg","39","restless",0.3,0.6,0.8,0.0882009767046603,"true"
"image-keyboard-response",220,203985,"0.0-4.69-1.69","lrjngex4bcj0q9o",474,"79.csv","","null","resources/maskTrios/BBA3.jpg","null","",NA,NA,NA,NA,""
"image-keyboard-response",221,205187,"0.0-4.69-2.69","lrjngex4bcj0q9o",474,"79.csv","","null","resources/images/coin2.png","null","",NA,NA,NA,NA,""
"image-keyboard-response",222,205431,"0.0-4.70-0.70","lrjngex4bcj0q9o",474,"79.csv","","243.19999980926514","resources/trios/L4T4A3.jpg","39","restless",0.3,0.6,0.8,0.360180145246049,"true"
"image-keyboard-response",223,205836,"0.0-4.70-1.70","lrjngex4bcj0q9o",474,"79.csv","","null","resources/maskTrios/BBA3.jpg","null","",NA,NA,NA,NA,""
"image-keyboard-response",224,207038,"0.0-4.70-2.70","lrjngex4bcj0q9o",474,"79.csv","","null","resources/images/coin2.png","null","",NA,NA,NA,NA,""
"image-keyboard-response",225,207247,"0.0-4.71-0.71","lrjngex4bcj0q9o",474,"79.csv","","208.09999990463257","resources/trios/L4T4A3.jpg","39","restless",0.3,0.6,0.8,0.806587371146968,"false"
"image-keyboard-response",226,207649,"0.0-4.71-1.71","lrjngex4bcj0q9o",474,"79.csv","","null","resources/maskTrios/BBA3.jpg","null","",NA,NA,NA,NA,""
"image-keyboard-response",227,208850,"0.0-4.71-2.71","lrjngex4bcj0q9o",474,"79.csv","","null","resources/images/fishbone.png","null","",NA,NA,NA,NA,""
"image-keyboard-response",228,209127,"0.0-4.72-0.72","lrjngex4bcj0q9o",474,"79.csv","","275.80000019073486","resources/trios/L4T4A3.jpg","38","restless",0.3,0.6,0.8,0.245366438696062,"true"
"image-keyboard-response",229,209529,"0.0-4.72-1.72","lrjngex4bcj0q9o",474,"79.csv","","null","resources/maskTrios/BT4B.jpg","null","",NA,NA,NA,NA,""
"image-keyboard-response",230,210731,"0.0-4.72-2.72","lrjngex4bcj0q9o",474,"79.csv","","null","resources/images/coin2.png","null","",NA,NA,NA,NA,""
"image-keyboard-response",231,210999,"0.0-4.73-0.73","lrjngex4bcj0q9o",474,"79.csv","","267.19999980926514","resources/trios/L4T4A3.jpg","38","restless",0.3,0.6,0.8,0.321101679356578,"true"
"image-keyboard-response",232,211401,"0.0-4.73-1.73","lrjngex4bcj0q9o",474,"79.csv","","null","resources/maskTrios/BT4B.jpg","null","",NA,NA,NA,NA,""
"image-keyboard-response",233,212603,"0.0-4.73-2.73","lrjngex4bcj0q9o",474,"79.csv","","null","resources/images/coin2.png","null","",NA,NA,NA,NA,""
"image-keyboard-response",234,212855,"0.0-4.74-0.74","lrjngex4bcj0q9o",474,"79.csv","","250.90000009536743","resources/trios/L4T4A3.jpg","38","restless",0.4,0.6,0.8,0.286708271927951,"true"
"image-keyboard-response",235,213258,"0.0-4.74-1.74","lrjngex4bcj0q9o",474,"79.csv","","null","resources/maskTrios/BT4B.jpg","null","",NA,NA,NA,NA,""
"image-keyboard-response",236,214460,"0.0-4.74-2.74","lrjngex4bcj0q9o",474,"79.csv","","null","resources/images/coin2.png","null","",NA,NA,NA,NA,""
"image-keyboard-response",237,214711,"0.0-4.75-0.75","lrjngex4bcj0q9o",474,"79.csv","","249.80000019073486","resources/trios/L4T4A3.jpg","38","restless",0.4,0.6,0.8,0.849966038808614,"false"
"image-keyboard-response",238,215113,"0.0-4.75-1.75","lrjngex4bcj0q9o",474,"79.csv","","null","resources/maskTrios/BT4B.jpg","null","",NA,NA,NA,NA,""
"image-keyboard-response",239,216316,"0.0-4.75-2.75","lrjngex4bcj0q9o",474,"79.csv","","null","resources/images/fishbone.png","null","",NA,NA,NA,NA,""
"image-keyboard-response",240,216647,"0.0-4.76-0.76","lrjngex4bcj0q9o",474,"79.csv","","330.2999997138977","resources/trios/L4T4A3.jpg","39","restless",0.4,0.6,0.8,0.559508286518177,"true"
"image-keyboard-response",241,217048,"0.0-4.76-1.76","lrjngex4bcj0q9o",474,"79.csv","","null","resources/maskTrios/BBA3.jpg","null","",NA,NA,NA,NA,""
"image-keyboard-response",242,218251,"0.0-4.76-2.76","lrjngex4bcj0q9o",474,"79.csv","","null","resources/images/coin2.png","null","",NA,NA,NA,NA,""
"image-keyboard-response",243,218495,"0.0-4.77-0.77","lrjngex4bcj0q9o",474,"79.csv","","243.09999990463257","resources/trios/L4T4A3.jpg","39","restless",0.3,0.6,0.8,0.0776284063730226,"true"
"image-keyboard-response",244,218898,"0.0-4.77-1.77","lrjngex4bcj0q9o",474,"79.csv","","null","resources/maskTrios/BBA3.jpg","null","",NA,NA,NA,NA,""
"image-keyboard-response",245,220099,"0.0-4.77-2.77","lrjngex4bcj0q9o",474,"79.csv","","null","resources/images/coin2.png","null","",NA,NA,NA,NA,""
"image-keyboard-response",246,220223,"0.0-4.78-0.78","lrjngex4bcj0q9o",474,"79.csv","","122.5","resources/trios/L4T4A3.jpg","39","restless",0.3,0.6,0.8,0.708049189534724,"true"
"image-keyboard-response",247,220625,"0.0-4.78-1.78","lrjngex4bcj0q9o",474,"79.csv","","null","resources/maskTrios/BBA3.jpg","null","",NA,NA,NA,NA,""
"image-keyboard-response",248,221827,"0.0-4.78-2.78","lrjngex4bcj0q9o",474,"79.csv","","null","resources/images/coin2.png","null","",NA,NA,NA,NA,""
"image-keyboard-response",249,222047,"0.0-4.79-0.79","lrjngex4bcj0q9o",474,"79.csv","","218.90000009536743","resources/trios/L4T4A3.jpg","39","restless",0.3,0.6,0.8,0.421989944052808,"true"
"image-keyboard-response",250,222449,"0.0-4.79-1.79","lrjngex4bcj0q9o",474,"79.csv","","null","resources/maskTrios/BBA3.jpg","null","",NA,NA,NA,NA,""
"image-keyboard-response",251,223651,"0.0-4.79-2.79","lrjngex4bcj0q9o",474,"79.csv","","null","resources/images/coin2.png","null","",NA,NA,NA,NA,""
"image-keyboard-response",252,223871,"0.0-4.80-0.80","lrjngex4bcj0q9o",474,"79.csv","","218.7000002861023","resources/trios/L4T4A3.jpg","39","restless",0.3,0.6,0.8,0.483922525095696,"true"
"image-keyboard-response",253,224274,"0.0-4.80-1.80","lrjngex4bcj0q9o",474,"79.csv","","null","resources/maskTrios/BBA3.jpg","null","",NA,NA,NA,NA,""
"image-keyboard-response",254,225476,"0.0-4.80-2.80","lrjngex4bcj0q9o",474,"79.csv","","null","resources/images/coin2.png","null","",NA,NA,NA,NA,""
"image-keyboard-response",255,225583,"0.0-4.81-0.81","lrjngex4bcj0q9o",474,"79.csv","","106","resources/trios/L4T4A3.jpg","39","restless",0.3,0.6,0.8,0.81912019581465,"false"
"image-keyboard-response",256,225984,"0.0-4.81-1.81","lrjngex4bcj0q9o",474,"79.csv","","null","resources/maskTrios/BBA3.jpg","null","",NA,NA,NA,NA,""
"image-keyboard-response",257,227186,"0.0-4.81-2.81","lrjngex4bcj0q9o",474,"79.csv","","null","resources/images/fishbone.png","null","",NA,NA,NA,NA,""
"image-keyboard-response",258,227463,"0.0-4.82-0.82","lrjngex4bcj0q9o",474,"79.csv","","276","resources/trios/L4T4A3.jpg","37","restless",0.3,0.6,0.8,0.868317771310929,"false"
"image-keyboard-response",259,227864,"0.0-4.82-1.82","lrjngex4bcj0q9o",474,"79.csv","","null","resources/maskTrios/L4BB.jpg","null","",NA,NA,NA,NA,""
"image-keyboard-response",260,229066,"0.0-4.82-2.82","lrjngex4bcj0q9o",474,"79.csv","","null","resources/images/fishbone.png","null","",NA,NA,NA,NA,""
"image-keyboard-response",261,229071,"0.0-4.83-0.83","lrjngex4bcj0q9o",474,"79.csv","","4","resources/trios/L4T4A3.jpg","38","restless",0.3,0.6,0.8,0.303704130105749,"true"
"image-keyboard-response",262,229473,"0.0-4.83-1.83","lrjngex4bcj0q9o",474,"79.csv","","null","resources/maskTrios/BT4B.jpg","null","",NA,NA,NA,NA,""
"image-keyboard-response",263,230674,"0.0-4.83-2.83","lrjngex4bcj0q9o",474,"79.csv","","null","resources/images/coin2.png","null","",NA,NA,NA,NA,""
"image-keyboard-response",264,230951,"0.0-4.84-0.84","lrjngex4bcj0q9o",474,"79.csv","","275.5","resources/trios/L4T4A3.jpg","38","restless",0.3,0.6,0.9,0.319676488215082,"true"
"image-keyboard-response",265,231354,"0.0-4.84-1.84","lrjngex4bcj0q9o",474,"79.csv","","null","resources/maskTrios/BT4B.jpg","null","",NA,NA,NA,NA,""
"image-keyboard-response",266,232556,"0.0-4.84-2.84","lrjngex4bcj0q9o",474,"79.csv","","null","resources/images/coin2.png","null","",NA,NA,NA,NA,""
"image-keyboard-response",267,232703,"0.0-4.85-0.85","lrjngex4bcj0q9o",474,"79.csv","","146","resources/trios/L4T4A3.jpg","38","restless",0.3,0.6,0.9,0.93779570583099,"false"
"image-keyboard-response",268,233105,"0.0-4.85-1.85","lrjngex4bcj0q9o",474,"79.csv","","null","resources/maskTrios/BT4B.jpg","null","",NA,NA,NA,NA,""
"image-keyboard-response",269,234307,"0.0-4.85-2.85","lrjngex4bcj0q9o",474,"79.csv","","null","resources/images/fishbone.png","null","",NA,NA,NA,NA,""
"image-keyboard-response",270,234687,"0.0-4.86-0.86","lrjngex4bcj0q9o",474,"79.csv","","378.7000002861023","resources/trios/L4T4A3.jpg","37","restless",0.3,0.6,0.9,0.457433073994324,"false"
"image-keyboard-response",271,235088,"0.0-4.86-1.86","lrjngex4bcj0q9o",474,"79.csv","","null","resources/maskTrios/L4BB.jpg","null","",NA,NA,NA,NA,""
"image-keyboard-response",272,236290,"0.0-4.86-2.86","lrjngex4bcj0q9o",474,"79.csv","","null","resources/images/fishbone.png","null","",NA,NA,NA,NA,""
"image-keyboard-response",273,236679,"0.0-4.87-0.87","lrjngex4bcj0q9o",474,"79.csv","","387.69999980926514","resources/trios/L4T4A3.jpg","37","restless",0.4,0.6,0.9,0.928169310979221,"false"
"image-keyboard-response",274,237081,"0.0-4.87-1.87","lrjngex4bcj0q9o",474,"79.csv","","null","resources/maskTrios/L4BB.jpg","null","",NA,NA,NA,NA,""
"image-keyboard-response",275,238292,"0.0-4.87-2.87","lrjngex4bcj0q9o",474,"79.csv","","null","resources/images/fishbone.png","null","",NA,NA,NA,NA,""
"image-keyboard-response",276,238551,"0.0-4.88-0.88","lrjngex4bcj0q9o",474,"79.csv","","257.5","resources/trios/L4T4A3.jpg","39","restless",0.4,0.6,0.9,0.951997268278962,"false"
"image-keyboard-response",277,238952,"0.0-4.88-1.88","lrjngex4bcj0q9o",474,"79.csv","","null","resources/maskTrios/BBA3.jpg","null","",NA,NA,NA,NA,""
"image-keyboard-response",278,240154,"0.0-4.88-2.88","lrjngex4bcj0q9o",474,"79.csv","","null","resources/images/fishbone.png","null","",NA,NA,NA,NA,""
"image-keyboard-response",279,240367,"0.0-4.89-0.89","lrjngex4bcj0q9o",474,"79.csv","","211.10000038146973","resources/trios/L4T4A3.jpg","38","restless",0.5,0.6,0.8,0.57810295789962,"true"
"image-keyboard-response",280,240769,"0.0-4.89-1.89","lrjngex4bcj0q9o",474,"79.csv","","null","resources/maskTrios/BT4B.jpg","null","",NA,NA,NA,NA,""
"image-keyboard-response",281,241970,"0.0-4.89-2.89","lrjngex4bcj0q9o",474,"79.csv","","null","resources/images/coin2.png","null","",NA,NA,NA,NA,""
"image-keyboard-response",282,242207,"0.0-4.90-0.90","lrjngex4bcj0q9o",474,"79.csv","","235.7999997138977","resources/trios/L4T4A3.jpg","38","restless",0.5,0.6,0.8,0.499861042716917,"true"
"image-keyboard-response",283,242609,"0.0-4.90-1.90","lrjngex4bcj0q9o",474,"79.csv","","null","resources/maskTrios/BT4B.jpg","null","",NA,NA,NA,NA,""
"image-keyboard-response",284,243811,"0.0-4.90-2.90","lrjngex4bcj0q9o",474,"79.csv","","null","resources/images/coin2.png","null","",NA,NA,NA,NA,""
"image-keyboard-response",285,244007,"0.0-4.91-0.91","lrjngex4bcj0q9o",474,"79.csv","","194.7000002861023","resources/trios/L4T4A3.jpg","38","restless",0.5,0.6,0.8,0.206688631252092,"true"
"image-keyboard-response",286,244409,"0.0-4.91-1.91","lrjngex4bcj0q9o",474,"79.csv","","null","resources/maskTrios/BT4B.jpg","null","",NA,NA,NA,NA,""
"image-keyboard-response",287,245611,"0.0-4.91-2.91","lrjngex4bcj0q9o",474,"79.csv","","null","resources/images/coin2.png","null","",NA,NA,NA,NA,""
"image-keyboard-response",288,245871,"0.0-4.92-0.92","lrjngex4bcj0q9o",474,"79.csv","","258.90000009536743","resources/trios/L4T4A3.jpg","38","restless",0.5,0.6,0.7,0.370680909298548,"true"
"image-keyboard-response",289,246273,"0.0-4.92-1.92","lrjngex4bcj0q9o",474,"79.csv","","null","resources/maskTrios/BT4B.jpg","null","",NA,NA,NA,NA,""
"image-keyboard-response",290,247475,"0.0-4.92-2.92","lrjngex4bcj0q9o",474,"79.csv","","null","resources/images/coin2.png","null","",NA,NA,NA,NA,""
"image-keyboard-response",291,247559,"0.0-4.93-0.93","lrjngex4bcj0q9o",474,"79.csv","","82.40000009536743","resources/trios/L4T4A3.jpg","38","restless",0.5,0.6,0.7,0.454605628995845,"true"
"image-keyboard-response",292,247961,"0.0-4.93-1.93","lrjngex4bcj0q9o",474,"79.csv","","null","resources/maskTrios/BT4B.jpg","null","",NA,NA,NA,NA,""
"image-keyboard-response",293,249162,"0.0-4.93-2.93","lrjngex4bcj0q9o",474,"79.csv","","null","resources/images/coin2.png","null","",NA,NA,NA,NA,""
"image-keyboard-response",294,249439,"0.0-4.94-0.94","lrjngex4bcj0q9o",474,"79.csv","","275","resources/trios/L4T4A3.jpg","37","restless",0.5,0.6,0.7,0.0693815129683402,"true"
"image-keyboard-response",295,249841,"0.0-4.94-1.94","lrjngex4bcj0q9o",474,"79.csv","","null","resources/maskTrios/L4BB.jpg","null","",NA,NA,NA,NA,""
"image-keyboard-response",296,251043,"0.0-4.94-2.94","lrjngex4bcj0q9o",474,"79.csv","","null","resources/images/coin2.png","null","",NA,NA,NA,NA,""
"image-keyboard-response",297,251255,"0.0-4.95-0.95","lrjngex4bcj0q9o",474,"79.csv","","210.40000009536743","resources/trios/L4T4A3.jpg","37","restless",0.5,0.6,0.7,0.348412122752016,"true"
"image-keyboard-response",298,251657,"0.0-4.95-1.95","lrjngex4bcj0q9o",474,"79.csv","","null","resources/maskTrios/L4BB.jpg","null","",NA,NA,NA,NA,""
"image-keyboard-response",299,252859,"0.0-4.95-2.95","lrjngex4bcj0q9o",474,"79.csv","","null","resources/images/coin2.png","null","",NA,NA,NA,NA,""
"image-keyboard-response",300,253111,"0.0-4.96-0.96","lrjngex4bcj0q9o",474,"79.csv","","251.09999990463257","resources/trios/L4T4A3.jpg","37","restless",0.5,0.6,0.7,0.70078242452235,"false"
"image-keyboard-response",301,253513,"0.0-4.96-1.96","lrjngex4bcj0q9o",474,"79.csv","","null","resources/maskTrios/L4BB.jpg","null","",NA,NA,NA,NA,""
"image-keyboard-response",302,254714,"0.0-4.96-2.96","lrjngex4bcj0q9o",474,"79.csv","","null","resources/images/fishbone.png","null","",NA,NA,NA,NA,""
"image-keyboard-response",303,255015,"0.0-4.97-0.97","lrjngex4bcj0q9o",474,"79.csv","","299.40000009536743","resources/trios/L4T4A3.jpg","38","restless",0.5,0.6,0.7,0.773346055199947,"false"
"image-keyboard-response",304,255417,"0.0-4.97-1.97","lrjngex4bcj0q9o",474,"79.csv","","null","resources/maskTrios/BT4B.jpg","null","",NA,NA,NA,NA,""
"image-keyboard-response",305,256618,"0.0-4.97-2.97","lrjngex4bcj0q9o",474,"79.csv","","null","resources/images/fishbone.png","null","",NA,NA,NA,NA,""
"image-keyboard-response",306,256647,"0.0-4.98-0.98","lrjngex4bcj0q9o",474,"79.csv","","27.09999990463257","resources/trios/L4T4A3.jpg","39","restless",0.5,0.6,0.7,0.874865184808455,"false"
"image-keyboard-response",307,257048,"0.0-4.98-1.98","lrjngex4bcj0q9o",474,"79.csv","","null","resources/maskTrios/BBA3.jpg","null","",NA,NA,NA,NA,""
"image-keyboard-response",308,258250,"0.0-4.98-2.98","lrjngex4bcj0q9o",474,"79.csv","","null","resources/images/fishbone.png","null","",NA,NA,NA,NA,""
"image-keyboard-response",309,258455,"0.0-4.99-0.99","lrjngex4bcj0q9o",474,"79.csv","","203.40000009536743","resources/trios/L4T4A3.jpg","37","restless",0.5,0.6,0.7,0.881241651761155,"false"
"image-keyboard-response",310,258856,"0.0-4.99-1.99","lrjngex4bcj0q9o",474,"79.csv","","null","resources/maskTrios/L4BB.jpg","null","",NA,NA,NA,NA,""
"image-keyboard-response",311,260058,"0.0-4.99-2.99","lrjngex4bcj0q9o",474,"79.csv","","null","resources/images/fishbone.png","null","",NA,NA,NA,NA,""
"image-keyboard-response",312,263303,"0.0-4.100-0.100","lrjngex4bcj0q9o",474,"79.csv","","3243.300000190735","resources/trios/L4T4A3.jpg","37","restless",0.5,0.6,0.7,0.887156326567694,"false"
"image-keyboard-response",313,263705,"0.0-4.100-1.100","lrjngex4bcj0q9o",474,"79.csv","","null","resources/maskTrios/L4BB.jpg","null","",NA,NA,NA,NA,""
"image-keyboard-response",314,264906,"0.0-4.100-2.100","lrjngex4bcj0q9o",474,"79.csv","","null","resources/images/fishbone.png","null","",NA,NA,NA,NA,""
"image-keyboard-response",315,265159,"0.0-4.101-0.101","lrjngex4bcj0q9o",474,"79.csv","","251.40000009536743","resources/trios/L4T4A3.jpg","38","restless",0.5,0.6,0.7,0.558111737460256,"true"
"image-keyboard-response",316,265561,"0.0-4.101-1.101","lrjngex4bcj0q9o",474,"79.csv","","null","resources/maskTrios/BT4B.jpg","null","",NA,NA,NA,NA,""
"image-keyboard-response",317,266763,"0.0-4.101-2.101","lrjngex4bcj0q9o",474,"79.csv","","null","resources/images/coin2.png","null","",NA,NA,NA,NA,""
"image-keyboard-response",318,267423,"0.0-4.102-0.102","lrjngex4bcj0q9o",474,"79.csv","","658.6999998092651","resources/trios/L4T4A3.jpg","38","restless",0.5,0.6,0.7,0.48030036837101,"true"
"image-keyboard-response",319,267825,"0.0-4.102-1.102","lrjngex4bcj0q9o",474,"79.csv","","null","resources/maskTrios/BT4B.jpg","null","",NA,NA,NA,NA,""
"image-keyboard-response",320,269027,"0.0-4.102-2.102","lrjngex4bcj0q9o",474,"79.csv","","null","resources/images/coin2.png","null","",NA,NA,NA,NA,""
"image-keyboard-response",321,270095,"0.0-4.103-0.103","lrjngex4bcj0q9o",474,"79.csv","","1066.5","resources/trios/L4T4A3.jpg","38","restless",0.5,0.6,0.7,0.462915815311019,"true"
"image-keyboard-response",322,270497,"0.0-4.103-1.103","lrjngex4bcj0q9o",474,"79.csv","","null","resources/maskTrios/BT4B.jpg","null","",NA,NA,NA,NA,""
"image-keyboard-response",323,271699,"0.0-4.103-2.103","lrjngex4bcj0q9o",474,"79.csv","","null","resources/images/coin2.png","null","",NA,NA,NA,NA,""
"image-keyboard-response",324,271895,"0.0-4.104-0.104","lrjngex4bcj0q9o",474,"79.csv","","194.69999980926514","resources/trios/L4T4A3.jpg","39","restless",0.5,0.6,0.7,0.244291167447676,"true"
"image-keyboard-response",325,272296,"0.0-4.104-1.104","lrjngex4bcj0q9o",474,"79.csv","","null","resources/maskTrios/BBA3.jpg","null","",NA,NA,NA,NA,""
"image-keyboard-response",326,273498,"0.0-4.104-2.104","lrjngex4bcj0q9o",474,"79.csv","","null","resources/images/coin2.png","null","",NA,NA,NA,NA,""
"image-keyboard-response",327,273871,"0.0-4.105-0.105","lrjngex4bcj0q9o",474,"79.csv","","371.2000002861023","resources/trios/L4T4A3.jpg","39","restless",0.5,0.6,0.7,0.65456389507418,"true"
"image-keyboard-response",328,274273,"0.0-4.105-1.105","lrjngex4bcj0q9o",474,"79.csv","","null","resources/maskTrios/BBA3.jpg","null","",NA,NA,NA,NA,""
"image-keyboard-response",329,275474,"0.0-4.105-2.105","lrjngex4bcj0q9o",474,"79.csv","","null","resources/images/coin2.png","null","",NA,NA,NA,NA,""
"image-keyboard-response",330,275735,"0.0-4.106-0.106","lrjngex4bcj0q9o",474,"79.csv","","259","resources/trios/L4T4A3.jpg","39","restless",0.5,0.6,0.7,0.569668440451698,"true"
"image-keyboard-response",331,276137,"0.0-4.106-1.106","lrjngex4bcj0q9o",474,"79.csv","","null","resources/maskTrios/BBA3.jpg","null","",NA,NA,NA,NA,""
"image-keyboard-response",332,277338,"0.0-4.106-2.106","lrjngex4bcj0q9o",474,"79.csv","","null","resources/images/coin2.png","null","",NA,NA,NA,NA,""
"image-keyboard-response",333,277527,"0.0-4.107-0.107","lrjngex4bcj0q9o",474,"79.csv","","187.5","resources/trios/L4T4A3.jpg","39","restless",0.5,0.6,0.7,0.0202036308899218,"true"
"image-keyboard-response",334,277929,"0.0-4.107-1.107","lrjngex4bcj0q9o",474,"79.csv","","null","resources/maskTrios/BBA3.jpg","null","",NA,NA,NA,NA,""
"image-keyboard-response",335,279131,"0.0-4.107-2.107","lrjngex4bcj0q9o",474,"79.csv","","null","resources/images/coin2.png","null","",NA,NA,NA,NA,""
"image-keyboard-response",336,279335,"0.0-4.108-0.108","lrjngex4bcj0q9o",474,"79.csv","","202.59999990463257","resources/trios/L4T4A3.jpg","39","restless",0.5,0.6,0.7,0.129866050665612,"true"
"image-keyboard-response",337,279736,"0.0-4.108-1.108","lrjngex4bcj0q9o",474,"79.csv","","null","resources/maskTrios/BBA3.jpg","null","",NA,NA,NA,NA,""
"image-keyboard-response",338,280938,"0.0-4.108-2.108","lrjngex4bcj0q9o",474,"79.csv","","null","resources/images/coin2.png","null","",NA,NA,NA,NA,""
"image-keyboard-response",339,281167,"0.0-4.109-0.109","lrjngex4bcj0q9o",474,"79.csv","","227.19999980926514","resources/trios/L4T4A3.jpg","39","restless",0.5,0.6,0.7,0.965799332382295,"false"
"image-keyboard-response",340,281569,"0.0-4.109-1.109","lrjngex4bcj0q9o",474,"79.csv","","null","resources/maskTrios/BBA3.jpg","null","",NA,NA,NA,NA,""
"image-keyboard-response",341,282770,"0.0-4.109-2.109","lrjngex4bcj0q9o",474,"79.csv","","null","resources/images/fishbone.png","null","",NA,NA,NA,NA,""
"image-keyboard-response",342,283055,"0.0-4.110-0.110","lrjngex4bcj0q9o",474,"79.csv","","283.19999980926514","resources/trios/L4T4A3.jpg","38","restless",0.5,0.6,0.7,0.653235162157001,"false"
"image-keyboard-response",343,283457,"0.0-4.110-1.110","lrjngex4bcj0q9o",474,"79.csv","","null","resources/maskTrios/BT4B.jpg","null","",NA,NA,NA,NA,""
"image-keyboard-response",344,284658,"0.0-4.110-2.110","lrjngex4bcj0q9o",474,"79.csv","","null","resources/images/fishbone.png","null","",NA,NA,NA,NA,""
"image-keyboard-response",345,284815,"0.0-4.111-0.111","lrjngex4bcj0q9o",474,"79.csv","","155.7000002861023","resources/trios/L4T4A3.jpg","39","restless",0.5,0.6,0.8,0.710707923674572,"true"
"image-keyboard-response",346,285218,"0.0-4.111-1.111","lrjngex4bcj0q9o",474,"79.csv","","null","resources/maskTrios/BBA3.jpg","null","",NA,NA,NA,NA,""
"image-keyboard-response",347,286419,"0.0-4.111-2.111","lrjngex4bcj0q9o",474,"79.csv","","null","resources/images/coin2.png","null","",NA,NA,NA,NA,""
"image-keyboard-response",348,286782,"0.0-4.112-0.112","lrjngex4bcj0q9o",474,"79.csv","","362.09999990463257","resources/trios/L4T4A3.jpg","39","restless",0.5,0.6,0.8,0.247143561328028,"true"
"image-keyboard-response",349,287184,"0.0-4.112-1.112","lrjngex4bcj0q9o",474,"79.csv","","null","resources/maskTrios/BBA3.jpg","null","",NA,NA,NA,NA,""
"image-keyboard-response",350,288385,"0.0-4.112-2.112","lrjngex4bcj0q9o",474,"79.csv","","null","resources/images/coin2.png","null","",NA,NA,NA,NA,""
"image-keyboard-response",351,288910,"0.0-4.113-0.113","lrjngex4bcj0q9o",474,"79.csv","","523.6999998092651","resources/trios/L4T4A3.jpg","39","restless",0.5,0.6,0.8,0.715975270009861,"true"
"image-keyboard-response",352,289312,"0.0-4.113-1.113","lrjngex4bcj0q9o",474,"79.csv","","null","resources/maskTrios/BBA3.jpg","null","",NA,NA,NA,NA,""
"image-keyboard-response",353,290515,"0.0-4.113-2.113","lrjngex4bcj0q9o",474,"79.csv","","null","resources/images/coin2.png","null","",NA,NA,NA,NA,""
"image-keyboard-response",354,290934,"0.0-4.114-0.114","lrjngex4bcj0q9o",474,"79.csv","","418.40000009536743","resources/trios/L4T4A3.jpg","37","restless",0.5,0.5,0.8,0.8586205853331,"false"
"image-keyboard-response",355,291338,"0.0-4.114-1.114","lrjngex4bcj0q9o",474,"79.csv","","null","resources/maskTrios/L4BB.jpg","null","",NA,NA,NA,NA,""
"image-keyboard-response",356,292539,"0.0-4.114-2.114","lrjngex4bcj0q9o",474,"79.csv","","null","resources/images/fishbone.png","null","",NA,NA,NA,NA,""
"image-keyboard-response",357,292814,"0.0-4.115-0.115","lrjngex4bcj0q9o",474,"79.csv","","274.40000009536743","resources/trios/L4T4A3.jpg","37","restless",0.5,0.5,0.8,0.745744494345696,"false"
"image-keyboard-response",358,293217,"0.0-4.115-1.115","lrjngex4bcj0q9o",474,"79.csv","","null","resources/maskTrios/L4BB.jpg","null","",NA,NA,NA,NA,""
"image-keyboard-response",359,294418,"0.0-4.115-2.115","lrjngex4bcj0q9o",474,"79.csv","","null","resources/images/fishbone.png","null","",NA,NA,NA,NA,""
"image-keyboard-response",360,294550,"0.0-4.116-0.116","lrjngex4bcj0q9o",474,"79.csv","","130.80000019073486","resources/trios/L4T4A3.jpg","39","restless",0.5,0.5,0.8,0.161359480958435,"true"
"image-keyboard-response",361,294953,"0.0-4.116-1.116","lrjngex4bcj0q9o",474,"79.csv","","null","resources/maskTrios/BBA3.jpg","null","",NA,NA,NA,NA,""
"image-keyboard-response",362,296155,"0.0-4.116-2.116","lrjngex4bcj0q9o",474,"79.csv","","null","resources/images/coin2.png","null","",NA,NA,NA,NA,""
"image-keyboard-response",363,296383,"0.0-4.117-0.117","lrjngex4bcj0q9o",474,"79.csv","","226.69999980926514","resources/trios/L4T4A3.jpg","39","restless",0.5,0.5,0.8,0.590616896968454,"true"
"image-keyboard-response",364,296784,"0.0-4.117-1.117","lrjngex4bcj0q9o",474,"79.csv","","null","resources/maskTrios/BBA3.jpg","null","",NA,NA,NA,NA,""
"image-keyboard-response",365,297985,"0.0-4.117-2.117","lrjngex4bcj0q9o",474,"79.csv","","null","resources/images/coin2.png","null","",NA,NA,NA,NA,""
"image-keyboard-response",366,298278,"0.0-4.118-0.118","lrjngex4bcj0q9o",474,"79.csv","","291.59999990463257","resources/trios/L4T4A3.jpg","39","restless",0.5,0.5,0.8,0.284691809731858,"true"
"image-keyboard-response",367,298680,"0.0-4.118-1.118","lrjngex4bcj0q9o",474,"79.csv","","null","resources/maskTrios/BBA3.jpg","null","",NA,NA,NA,NA,""
"image-keyboard-response",368,299882,"0.0-4.118-2.118","lrjngex4bcj0q9o",474,"79.csv","","null","resources/images/coin2.png","null","",NA,NA,NA,NA,""
"image-keyboard-response",369,300206,"0.0-4.119-0.119","lrjngex4bcj0q9o",474,"79.csv","","322.69999980926514","resources/trios/L4T4A3.jpg","39","restless",0.5,0.5,0.8,0.994329917706,"false"
"image-keyboard-response",370,300609,"0.0-4.119-1.119","lrjngex4bcj0q9o",474,"79.csv","","null","resources/maskTrios/BBA3.jpg","null","",NA,NA,NA,NA,""
"image-keyboard-response",371,301810,"0.0-4.119-2.119","lrjngex4bcj0q9o",474,"79.csv","","null","resources/images/fishbone.png","null","",NA,NA,NA,NA,""
"image-keyboard-response",372,305918,"0.0-4.120-0.120","lrjngex4bcj0q9o",474,"79.csv","","4106.900000095367","resources/trios/L4T4A3.jpg","38","restless",0.5,0.5,0.8,0.583126310168532,"false"
"image-keyboard-response",373,306321,"0.0-4.120-1.120","lrjngex4bcj0q9o",474,"79.csv","","null","resources/maskTrios/BT4B.jpg","null","",NA,NA,NA,NA,""
"image-keyboard-response",374,307523,"0.0-4.120-2.120","lrjngex4bcj0q9o",474,"79.csv","","null","resources/images/fishbone.png","null","",NA,NA,NA,NA,""
"image-keyboard-response",375,307807,"0.0-4.121-0.121","lrjngex4bcj0q9o",474,"79.csv","","282.7000002861023","resources/trios/L4T4A3.jpg","37","restless",0.5,0.5,0.8,0.615803334084178,"false"
"image-keyboard-response",376,308209,"0.0-4.121-1.121","lrjngex4bcj0q9o",474,"79.csv","","null","resources/maskTrios/L4BB.jpg","null","",NA,NA,NA,NA,""
"image-keyboard-response",377,309410,"0.0-4.121-2.121","lrjngex4bcj0q9o",474,"79.csv","","null","resources/images/fishbone.png","null","",NA,NA,NA,NA,""
"image-keyboard-response",378,309630,"0.0-4.122-0.122","lrjngex4bcj0q9o",474,"79.csv","","218.7000002861023","resources/trios/L4T4A3.jpg","38","restless",0.5,0.6,0.9,0.324532419056883,"true"
"image-keyboard-response",379,310032,"0.0-4.122-1.122","lrjngex4bcj0q9o",474,"79.csv","","null","resources/maskTrios/BT4B.jpg","null","",NA,NA,NA,NA,""
"image-keyboard-response",380,311233,"0.0-4.122-2.122","lrjngex4bcj0q9o",474,"79.csv","","null","resources/images/coin2.png","null","",NA,NA,NA,NA,""
"image-keyboard-response",381,311254,"0.0-4.123-0.123","lrjngex4bcj0q9o",474,"79.csv","","20.09999990463257","resources/trios/L4T4A3.jpg","38","restless",0.5,0.6,0.8,0.682592434138861,"false"
"image-keyboard-response",382,311656,"0.0-4.123-1.123","lrjngex4bcj0q9o",474,"79.csv","","null","resources/maskTrios/BT4B.jpg","null","",NA,NA,NA,NA,""
"image-keyboard-response",383,312858,"0.0-4.123-2.123","lrjngex4bcj0q9o",474,"79.csv","","null","resources/images/fishbone.png","null","",NA,NA,NA,NA,""
"image-keyboard-response",384,313310,"0.0-4.124-0.124","lrjngex4bcj0q9o",474,"79.csv","","450.80000019073486","resources/trios/L4T4A3.jpg","39","restless",0.5,0.6,0.8,0.67405657970505,"true"
"image-keyboard-response",385,313712,"0.0-4.124-1.124","lrjngex4bcj0q9o",474,"79.csv","","null","resources/maskTrios/BBA3.jpg","null","",NA,NA,NA,NA,""
"image-keyboard-response",386,314914,"0.0-4.124-2.124","lrjngex4bcj0q9o",474,"79.csv","","null","resources/images/coin2.png","null","",NA,NA,NA,NA,""
"image-keyboard-response",387,315094,"0.0-4.125-0.125","lrjngex4bcj0q9o",474,"79.csv","","178.80000019073486","resources/trios/L4T4A3.jpg","39","restless",0.5,0.7,0.8,0.673074040072379,"true"
"image-keyboard-response",388,315497,"0.0-4.125-1.125","lrjngex4bcj0q9o",474,"79.csv","","null","resources/maskTrios/BBA3.jpg","null","",NA,NA,NA,NA,""
"image-keyboard-response",389,316699,"0.0-4.125-2.125","lrjngex4bcj0q9o",474,"79.csv","","null","resources/images/coin2.png","null","",NA,NA,NA,NA,""
"image-keyboard-response",390,316958,"0.0-4.126-0.126","lrjngex4bcj0q9o",474,"79.csv","","258.5","resources/trios/L4T4A3.jpg","39","restless",0.5,0.7,0.8,0.756707612080353,"true"
"image-keyboard-response",391,317361,"0.0-4.126-1.126","lrjngex4bcj0q9o",474,"79.csv","","null","resources/maskTrios/BBA3.jpg","null","",NA,NA,NA,NA,""
"image-keyboard-response",392,318563,"0.0-4.126-2.126","lrjngex4bcj0q9o",474,"79.csv","","null","resources/images/coin2.png","null","",NA,NA,NA,NA,""
"image-keyboard-response",393,318902,"0.0-4.127-0.127","lrjngex4bcj0q9o",474,"79.csv","","337.7000002861023","resources/trios/L4T4A3.jpg","39","restless",0.5,0.7,0.8,0.294859589556185,"true"
"image-keyboard-response",394,319305,"0.0-4.127-1.127","lrjngex4bcj0q9o",474,"79.csv","","null","resources/maskTrios/BBA3.jpg","null","",NA,NA,NA,NA,""
"image-keyboard-response",395,320507,"0.0-4.127-2.127","lrjngex4bcj0q9o",474,"79.csv","","null","resources/images/coin2.png","null","",NA,NA,NA,NA,""
"image-keyboard-response",396,320846,"0.0-4.128-0.128","lrjngex4bcj0q9o",474,"79.csv","","338.30000019073486","resources/trios/L4T4A3.jpg","39","restless",0.5,0.7,0.8,0.249262079923816,"true"
"image-keyboard-response",397,321248,"0.0-4.128-1.128","lrjngex4bcj0q9o",474,"79.csv","","null","resources/maskTrios/BBA3.jpg","null","",NA,NA,NA,NA,""
"image-keyboard-response",398,322450,"0.0-4.128-2.128","lrjngex4bcj0q9o",474,"79.csv","","null","resources/images/coin2.png","null","",NA,NA,NA,NA,""
"image-keyboard-response",399,322734,"0.0-4.129-0.129","lrjngex4bcj0q9o",474,"79.csv","","283.30000019073486","resources/trios/L4T4A3.jpg","39","restless",0.5,0.8,0.8,0.607268053373766,"true"
"image-keyboard-response",400,323136,"0.0-4.129-1.129","lrjngex4bcj0q9o",474,"79.csv","","null","resources/maskTrios/BBA3.jpg","null","",NA,NA,NA,NA,""
"image-keyboard-response",401,324338,"0.0-4.129-2.129","lrjngex4bcj0q9o",474,"79.csv","","null","resources/images/coin2.png","null","",NA,NA,NA,NA,""
"image-keyboard-response",402,324622,"0.0-4.130-0.130","lrjngex4bcj0q9o",474,"79.csv","","282.5","resources/trios/L4T4A3.jpg","39","restless",0.5,0.8,0.8,0.704038191211962,"true"
"image-keyboard-response",403,325024,"0.0-4.130-1.130","lrjngex4bcj0q9o",474,"79.csv","","null","resources/maskTrios/BBA3.jpg","null","",NA,NA,NA,NA,""
"image-keyboard-response",404,326226,"0.0-4.130-2.130","lrjngex4bcj0q9o",474,"79.csv","","null","resources/images/coin2.png","null","",NA,NA,NA,NA,""
"image-keyboard-response",405,326462,"0.0-4.131-0.131","lrjngex4bcj0q9o",474,"79.csv","","235.10000038146973","resources/trios/L4T4A3.jpg","39","restless",0.5,0.8,0.8,0.961100179586022,"false"
"image-keyboard-response",406,326865,"0.0-4.131-1.131","lrjngex4bcj0q9o",474,"79.csv","","null","resources/maskTrios/BBA3.jpg","null","",NA,NA,NA,NA,""
"image-keyboard-response",407,328066,"0.0-4.131-2.131","lrjngex4bcj0q9o",474,"79.csv","","null","resources/images/fishbone.png","null","",NA,NA,NA,NA,""
"image-keyboard-response",408,328366,"0.0-4.132-0.132","lrjngex4bcj0q9o",474,"79.csv","","298.69999980926514","resources/trios/L4T4A3.jpg","38","restless",0.5,0.8,0.8,0.102681843365675,"true"
"image-keyboard-response",409,328768,"0.0-4.132-1.132","lrjngex4bcj0q9o",474,"79.csv","","null","resources/maskTrios/BT4B.jpg","null","",NA,NA,NA,NA,""
"image-keyboard-response",410,329971,"0.0-4.132-2.132","lrjngex4bcj0q9o",474,"79.csv","","null","resources/images/coin2.png","null","",NA,NA,NA,NA,""
"image-keyboard-response",411,330910,"0.0-4.133-0.133","lrjngex4bcj0q9o",474,"79.csv","","938","resources/trios/L4T4A3.jpg","38","restless",0.5,0.8,0.8,0.913100248431937,"false"
"image-keyboard-response",412,331312,"0.0-4.133-1.133","lrjngex4bcj0q9o",474,"79.csv","","null","resources/maskTrios/BT4B.jpg","null","",NA,NA,NA,NA,""
"image-keyboard-response",413,332513,"0.0-4.133-2.133","lrjngex4bcj0q9o",474,"79.csv","","null","resources/images/fishbone.png","null","",NA,NA,NA,NA,""
"image-keyboard-response",414,332910,"0.0-4.134-0.134","lrjngex4bcj0q9o",474,"79.csv","","395.6000003814697","resources/trios/L4T4A3.jpg","37","restless",0.5,0.8,0.8,0.269006305286125,"true"
"image-keyboard-response",415,333313,"0.0-4.134-1.134","lrjngex4bcj0q9o",474,"79.csv","","null","resources/maskTrios/L4BB.jpg","null","",NA,NA,NA,NA,""
"image-keyboard-response",416,334514,"0.0-4.134-2.134","lrjngex4bcj0q9o",474,"79.csv","","null","resources/images/coin2.png","null","",NA,NA,NA,NA,""
"image-keyboard-response",417,334702,"0.0-4.135-0.135","lrjngex4bcj0q9o",474,"79.csv","","186.59999990463257","resources/trios/L4T4A3.jpg","37","restless",0.6,0.8,0.8,0.294216004493784,"true"
"image-keyboard-response",418,335104,"0.0-4.135-1.135","lrjngex4bcj0q9o",474,"79.csv","","null","resources/maskTrios/L4BB.jpg","null","",NA,NA,NA,NA,""
"image-keyboard-response",419,336305,"0.0-4.135-2.135","lrjngex4bcj0q9o",474,"79.csv","","null","resources/images/coin2.png","null","",NA,NA,NA,NA,""
"image-keyboard-response",420,336638,"0.0-4.136-0.136","lrjngex4bcj0q9o",474,"79.csv","","331.5","resources/trios/L4T4A3.jpg","37","restless",0.6,0.8,0.8,0.618645024673478,"false"
"image-keyboard-response",421,337039,"0.0-4.136-1.136","lrjngex4bcj0q9o",474,"79.csv","","null","resources/maskTrios/L4BB.jpg","null","",NA,NA,NA,NA,""
"image-keyboard-response",422,338241,"0.0-4.136-2.136","lrjngex4bcj0q9o",474,"79.csv","","null","resources/images/fishbone.png","null","",NA,NA,NA,NA,""
"image-keyboard-response",423,338518,"0.0-4.137-0.137","lrjngex4bcj0q9o",474,"79.csv","","275.80000019073486","resources/trios/L4T4A3.jpg","39","restless",0.6,0.8,0.8,0.915315376834962,"false"
"image-keyboard-response",424,338920,"0.0-4.137-1.137","lrjngex4bcj0q9o",474,"79.csv","","null","resources/maskTrios/BBA3.jpg","null","",NA,NA,NA,NA,""
"image-keyboard-response",425,340122,"0.0-4.137-2.137","lrjngex4bcj0q9o",474,"79.csv","","null","resources/images/fishbone.png","null","",NA,NA,NA,NA,""
"image-keyboard-response",426,340374,"0.0-4.138-0.138","lrjngex4bcj0q9o",474,"79.csv","","250.90000009536743","resources/trios/L4T4A3.jpg","39","restless",0.6,0.7,0.7,0.466528221766824,"true"
"image-keyboard-response",427,340776,"0.0-4.138-1.138","lrjngex4bcj0q9o",474,"79.csv","","null","resources/maskTrios/BBA3.jpg","null","",NA,NA,NA,NA,""
"image-keyboard-response",428,341978,"0.0-4.138-2.138","lrjngex4bcj0q9o",474,"79.csv","","null","resources/images/coin2.png","null","",NA,NA,NA,NA,""
"image-keyboard-response",429,342158,"0.0-4.139-0.139","lrjngex4bcj0q9o",474,"79.csv","","178.69999980926514","resources/trios/L4T4A3.jpg","39","restless",0.6,0.7,0.7,0.659898340697352,"true"
"image-keyboard-response",430,342560,"0.0-4.139-1.139","lrjngex4bcj0q9o",474,"79.csv","","null","resources/maskTrios/BBA3.jpg","null","",NA,NA,NA,NA,""
"image-keyboard-response",431,343762,"0.0-4.139-2.139","lrjngex4bcj0q9o",474,"79.csv","","null","resources/images/coin2.png","null","",NA,NA,NA,NA,""
"image-keyboard-response",432,344110,"0.0-4.140-0.140","lrjngex4bcj0q9o",474,"79.csv","","347","resources/trios/L4T4A3.jpg","39","restless",0.6,0.7,0.7,0.664381306130114,"true"
"image-keyboard-response",433,344513,"0.0-4.140-1.140","lrjngex4bcj0q9o",474,"79.csv","","null","resources/maskTrios/BBA3.jpg","null","",NA,NA,NA,NA,""
"image-keyboard-response",434,345716,"0.0-4.140-2.140","lrjngex4bcj0q9o",474,"79.csv","","null","resources/images/coin2.png","null","",NA,NA,NA,NA,""
"image-keyboard-response",435,345862,"0.0-4.141-0.141","lrjngex4bcj0q9o",474,"79.csv","","144.7999997138977","resources/trios/L4T4A3.jpg","39","restless",0.6,0.7,0.7,0.763298872804014,"false"
"image-keyboard-response",436,346264,"0.0-4.141-1.141","lrjngex4bcj0q9o",474,"79.csv","","null","resources/maskTrios/BBA3.jpg","null","",NA,NA,NA,NA,""
"image-keyboard-response",437,347467,"0.0-4.141-2.141","lrjngex4bcj0q9o",474,"79.csv","","null","resources/images/fishbone.png","null","",NA,NA,NA,NA,""
"image-keyboard-response",438,347630,"0.0-4.142-0.142","lrjngex4bcj0q9o",474,"79.csv","","162.5","resources/trios/L4T4A3.jpg","38","restless",0.6,0.7,0.7,0.30571883565366,"true"
"image-keyboard-response",439,348032,"0.0-4.142-1.142","lrjngex4bcj0q9o",474,"79.csv","","null","resources/maskTrios/BT4B.jpg","null","",NA,NA,NA,NA,""
"image-keyboard-response",440,349234,"0.0-4.142-2.142","lrjngex4bcj0q9o",474,"79.csv","","null","resources/images/coin2.png","null","",NA,NA,NA,NA,""
"image-keyboard-response",441,349830,"0.0-4.143-0.143","lrjngex4bcj0q9o",474,"79.csv","","594.5999999046326","resources/trios/L4T4A3.jpg","38","restless",0.6,0.7,0.6,0.223898448101123,"true"
"image-keyboard-response",442,350232,"0.0-4.143-1.143","lrjngex4bcj0q9o",474,"79.csv","","null","resources/maskTrios/BT4B.jpg","null","",NA,NA,NA,NA,""
"image-keyboard-response",443,351434,"0.0-4.143-2.143","lrjngex4bcj0q9o",474,"79.csv","","null","resources/images/coin2.png","null","",NA,NA,NA,NA,""
"image-keyboard-response",444,351806,"0.0-4.144-0.144","lrjngex4bcj0q9o",474,"79.csv","","370.59999990463257","resources/trios/L4T4A3.jpg","38","restless",0.6,0.7,0.6,0.272838603382874,"true"
"image-keyboard-response",445,352208,"0.0-4.144-1.144","lrjngex4bcj0q9o",474,"79.csv","","null","resources/maskTrios/BT4B.jpg","null","",NA,NA,NA,NA,""
"image-keyboard-response",446,353410,"0.0-4.144-2.144","lrjngex4bcj0q9o",474,"79.csv","","null","resources/images/coin2.png","null","",NA,NA,NA,NA,""
"image-keyboard-response",447,353726,"0.0-4.145-0.145","lrjngex4bcj0q9o",474,"79.csv","","314.5","resources/trios/L4T4A3.jpg","38","restless",0.6,0.7,0.6,0.0517123163562914,"true"
"image-keyboard-response",448,354128,"0.0-4.145-1.145","lrjngex4bcj0q9o",474,"79.csv","","null","resources/maskTrios/BT4B.jpg","null","",NA,NA,NA,NA,""
"image-keyboard-response",449,355330,"0.0-4.145-2.145","lrjngex4bcj0q9o",474,"79.csv","","null","resources/images/coin2.png","null","",NA,NA,NA,NA,""
"image-keyboard-response",450,355630,"0.0-4.146-0.146","lrjngex4bcj0q9o",474,"79.csv","","299.19999980926514","resources/trios/L4T4A3.jpg","38","restless",0.6,0.7,0.6,0.410450810078868,"true"
"image-keyboard-response",451,356038,"0.0-4.146-1.146","lrjngex4bcj0q9o",474,"79.csv","","null","resources/maskTrios/BT4B.jpg","null","",NA,NA,NA,NA,""
"image-keyboard-response",452,357240,"0.0-4.146-2.146","lrjngex4bcj0q9o",474,"79.csv","","null","resources/images/coin2.png","null","",NA,NA,NA,NA,""
"image-keyboard-response",453,357638,"0.0-4.147-0.147","lrjngex4bcj0q9o",474,"79.csv","","397.19999980926514","resources/trios/L4T4A3.jpg","38","restless",0.7,0.7,0.6,0.661095015548304,"true"
"image-keyboard-response",454,358040,"0.0-4.147-1.147","lrjngex4bcj0q9o",474,"79.csv","","null","resources/maskTrios/BT4B.jpg","null","",NA,NA,NA,NA,""
"image-keyboard-response",455,359242,"0.0-4.147-2.147","lrjngex4bcj0q9o",474,"79.csv","","null","resources/images/coin2.png","null","",NA,NA,NA,NA,""
"image-keyboard-response",456,359566,"0.0-4.148-0.148","lrjngex4bcj0q9o",474,"79.csv","","323.30000019073486","resources/trios/L4T4A3.jpg","38","restless",0.7,0.7,0.6,0.630442961428405,"true"
"image-keyboard-response",457,359968,"0.0-4.148-1.148","lrjngex4bcj0q9o",474,"79.csv","","null","resources/maskTrios/BT4B.jpg","null","",NA,NA,NA,NA,""
"image-keyboard-response",458,361170,"0.0-4.148-2.148","lrjngex4bcj0q9o",474,"79.csv","","null","resources/images/coin2.png","null","",NA,NA,NA,NA,""
"image-keyboard-response",459,361438,"0.0-4.149-0.149","lrjngex4bcj0q9o",474,"79.csv","","266.69999980926514","resources/trios/L4T4A3.jpg","38","restless",0.7,0.7,0.6,0.121349035190752,"true"
"image-keyboard-response",460,361840,"0.0-4.149-1.149","lrjngex4bcj0q9o",474,"79.csv","","null","resources/maskTrios/BT4B.jpg","null","",NA,NA,NA,NA,""
"image-keyboard-response",461,363042,"0.0-4.149-2.149","lrjngex4bcj0q9o",474,"79.csv","","null","resources/images/coin2.png","null","",NA,NA,NA,NA,""
"image-keyboard-response",462,363366,"0.0-4.150-0.150","lrjngex4bcj0q9o",474,"79.csv","","323.09999990463257","resources/trios/L4T4A3.jpg","38","restless",0.7,0.7,0.6,0.00439404866163851,"true"
"image-keyboard-response",463,363768,"0.0-4.150-1.150","lrjngex4bcj0q9o",474,"79.csv","","null","resources/maskTrios/BT4B.jpg","null","",NA,NA,NA,NA,""
"image-keyboard-response",464,364971,"0.0-4.150-2.150","lrjngex4bcj0q9o",474,"79.csv","","null","resources/images/coin2.png","null","",NA,NA,NA,NA,""
"image-keyboard-response",465,365262,"0.0-4.151-0.151","lrjngex4bcj0q9o",474,"79.csv","","290.40000009536743","resources/trios/L4T4A3.jpg","38","restless",0.7,0.7,0.6,0.384655077103388,"true"
"image-keyboard-response",466,365664,"0.0-4.151-1.151","lrjngex4bcj0q9o",474,"79.csv","","null","resources/maskTrios/BT4B.jpg","null","",NA,NA,NA,NA,""
"image-keyboard-response",467,366865,"0.0-4.151-2.151","lrjngex4bcj0q9o",474,"79.csv","","null","resources/images/coin2.png","null","",NA,NA,NA,NA,""
"image-keyboard-response",468,367214,"0.0-4.152-0.152","lrjngex4bcj0q9o",474,"79.csv","","347.5","resources/trios/L4T4A3.jpg","38","restless",0.7,0.7,0.6,0.823645211840955,"false"
"image-keyboard-response",469,367616,"0.0-4.152-1.152","lrjngex4bcj0q9o",474,"79.csv","","null","resources/maskTrios/BT4B.jpg","null","",NA,NA,NA,NA,""
"image-keyboard-response",470,368817,"0.0-4.152-2.152","lrjngex4bcj0q9o",474,"79.csv","","null","resources/images/fishbone.png","null","",NA,NA,NA,NA,""
"image-keyboard-response",471,369038,"0.0-4.153-0.153","lrjngex4bcj0q9o",474,"79.csv","","220","resources/trios/L4T4A3.jpg","39","restless",0.7,0.7,0.5,0.930355917171488,"false"
"image-keyboard-response",472,369440,"0.0-4.153-1.153","lrjngex4bcj0q9o",474,"79.csv","","null","resources/maskTrios/BBA3.jpg","null","",NA,NA,NA,NA,""
"image-keyboard-response",473,370641,"0.0-4.153-2.153","lrjngex4bcj0q9o",474,"79.csv","","null","resources/images/fishbone.png","null","",NA,NA,NA,NA,""
"image-keyboard-response",474,370718,"0.0-4.154-0.154","lrjngex4bcj0q9o",474,"79.csv","","76.2000002861023","resources/trios/L4T4A3.jpg","37","restless",0.7,0.7,0.5,0.822292416011891,"false"
"image-keyboard-response",475,371121,"0.0-4.154-1.154","lrjngex4bcj0q9o",474,"79.csv","","null","resources/maskTrios/L4BB.jpg","null","",NA,NA,NA,NA,""
"image-keyboard-response",476,372322,"0.0-4.154-2.154","lrjngex4bcj0q9o",474,"79.csv","","null","resources/images/fishbone.png","null","",NA,NA,NA,NA,""
"image-keyboard-response",477,372606,"0.0-4.155-0.155","lrjngex4bcj0q9o",474,"79.csv","","282.40000009536743","resources/trios/L4T4A3.jpg","37","restless",0.6,0.7,0.4,0.00193135335651462,"true"
"image-keyboard-response",478,373008,"0.0-4.155-1.155","lrjngex4bcj0q9o",474,"79.csv","","null","resources/maskTrios/L4BB.jpg","null","",NA,NA,NA,NA,""
"image-keyboard-response",479,374209,"0.0-4.155-2.155","lrjngex4bcj0q9o",474,"79.csv","","null","resources/images/coin2.png","null","",NA,NA,NA,NA,""
"image-keyboard-response",480,374686,"0.0-4.156-0.156","lrjngex4bcj0q9o",474,"79.csv","","475.5","resources/trios/L4T4A3.jpg","37","restless",0.6,0.7,0.4,0.409507662850741,"true"
"image-keyboard-response",481,375088,"0.0-4.156-1.156","lrjngex4bcj0q9o",474,"79.csv","","null","resources/maskTrios/L4BB.jpg","null","",NA,NA,NA,NA,""
"image-keyboard-response",482,376290,"0.0-4.156-2.156","lrjngex4bcj0q9o",474,"79.csv","","null","resources/images/coin2.png","null","",NA,NA,NA,NA,""
"image-keyboard-response",483,376662,"0.0-4.157-0.157","lrjngex4bcj0q9o",474,"79.csv","","370.59999990463257","resources/trios/L4T4A3.jpg","37","restless",0.6,0.7,0.4,0.883393498081914,"false"
"image-keyboard-response",484,377067,"0.0-4.157-1.157","lrjngex4bcj0q9o",474,"79.csv","","null","resources/maskTrios/L4BB.jpg","null","",NA,NA,NA,NA,""
"image-keyboard-response",485,378268,"0.0-4.157-2.157","lrjngex4bcj0q9o",474,"79.csv","","null","resources/images/fishbone.png","null","",NA,NA,NA,NA,""
"image-keyboard-response",486,378558,"0.0-4.158-0.158","lrjngex4bcj0q9o",474,"79.csv","","288.30000019073486","resources/trios/L4T4A3.jpg","39","restless",0.6,0.7,0.4,0.479168047009739,"false"
"image-keyboard-response",487,378960,"0.0-4.158-1.158","lrjngex4bcj0q9o",474,"79.csv","","null","resources/maskTrios/BBA3.jpg","null","",NA,NA,NA,NA,""
"image-keyboard-response",488,380162,"0.0-4.158-2.158","lrjngex4bcj0q9o",474,"79.csv","","null","resources/images/fishbone.png","null","",NA,NA,NA,NA,""
"image-keyboard-response",489,380478,"0.0-4.159-0.159","lrjngex4bcj0q9o",474,"79.csv","","314.90000009536743","resources/trios/L4T4A3.jpg","39","restless",0.6,0.7,0.4,0.278938514789556,"true"
"image-keyboard-response",490,380880,"0.0-4.159-1.159","lrjngex4bcj0q9o",474,"79.csv","","null","resources/maskTrios/BBA3.jpg","null","",NA,NA,NA,NA,""
"image-keyboard-response",491,382082,"0.0-4.159-2.159","lrjngex4bcj0q9o",474,"79.csv","","null","resources/images/coin2.png","null","",NA,NA,NA,NA,""
"image-keyboard-response",492,382342,"0.0-4.160-0.160","lrjngex4bcj0q9o",474,"79.csv","","259.3999996185303","resources/trios/L4T4A3.jpg","39","restless",0.6,0.7,0.4,0.329865797517966,"true"
"image-keyboard-response",493,382745,"0.0-4.160-1.160","lrjngex4bcj0q9o",474,"79.csv","","null","resources/maskTrios/BBA3.jpg","null","",NA,NA,NA,NA,""
"image-keyboard-response",494,383946,"0.0-4.160-2.160","lrjngex4bcj0q9o",474,"79.csv","","null","resources/images/coin2.png","null","",NA,NA,NA,NA,""
"image-keyboard-response",495,384270,"0.0-4.161-0.161","lrjngex4bcj0q9o",474,"79.csv","","322.5","resources/trios/L4T4A3.jpg","39","restless",0.6,0.7,0.4,0.845130769277944,"false"
"image-keyboard-response",496,384672,"0.0-4.161-1.161","lrjngex4bcj0q9o",474,"79.csv","","null","resources/maskTrios/BBA3.jpg","null","",NA,NA,NA,NA,""
"image-keyboard-response",497,385874,"0.0-4.161-2.161","lrjngex4bcj0q9o",474,"79.csv","","null","resources/images/fishbone.png","null","",NA,NA,NA,NA,""
"image-keyboard-response",498,386110,"0.0-4.162-0.162","lrjngex4bcj0q9o",474,"79.csv","","235.19999980926514","resources/trios/L4T4A3.jpg","38","restless",0.6,0.7,0.4,0.519065196394682,"true"
"image-keyboard-response",499,386512,"0.0-4.162-1.162","lrjngex4bcj0q9o",474,"79.csv","","null","resources/maskTrios/BT4B.jpg","null","",NA,NA,NA,NA,""
"image-keyboard-response",500,387714,"0.0-4.162-2.162","lrjngex4bcj0q9o",474,"79.csv","","null","resources/images/coin2.png","null","",NA,NA,NA,NA,""
"image-keyboard-response",501,387926,"0.0-4.163-0.163","lrjngex4bcj0q9o",474,"79.csv","","210.69999980926514","resources/trios/L4T4A3.jpg","38","restless",0.6,0.7,0.3,0.166672307898539,"true"
"image-keyboard-response",502,388328,"0.0-4.163-1.163","lrjngex4bcj0q9o",474,"79.csv","","null","resources/maskTrios/BT4B.jpg","null","",NA,NA,NA,NA,""
"image-keyboard-response",503,389529,"0.0-4.163-2.163","lrjngex4bcj0q9o",474,"79.csv","","null","resources/images/coin2.png","null","",NA,NA,NA,NA,""
"image-keyboard-response",504,389774,"0.0-4.164-0.164","lrjngex4bcj0q9o",474,"79.csv","","243.59999990463257","resources/trios/L4T4A3.jpg","38","restless",0.6,0.7,0.3,0.099340811507332,"true"
"image-keyboard-response",505,390176,"0.0-4.164-1.164","lrjngex4bcj0q9o",474,"79.csv","","null","resources/maskTrios/BT4B.jpg","null","",NA,NA,NA,NA,""
"image-keyboard-response",506,391379,"0.0-4.164-2.164","lrjngex4bcj0q9o",474,"79.csv","","null","resources/images/coin2.png","null","",NA,NA,NA,NA,""
"image-keyboard-response",507,391630,"0.0-4.165-0.165","lrjngex4bcj0q9o",474,"79.csv","","250","resources/trios/L4T4A3.jpg","38","restless",0.6,0.7,0.3,0.604447804237977,"true"
"image-keyboard-response",508,392033,"0.0-4.165-1.165","lrjngex4bcj0q9o",474,"79.csv","","null","resources/maskTrios/BT4B.jpg","null","",NA,NA,NA,NA,""
"image-keyboard-response",509,393235,"0.0-4.165-2.165","lrjngex4bcj0q9o",474,"79.csv","","null","resources/images/coin2.png","null","",NA,NA,NA,NA,""
"image-keyboard-response",510,393558,"0.0-4.166-0.166","lrjngex4bcj0q9o",474,"79.csv","","321.69999980926514","resources/trios/L4T4A3.jpg","38","restless",0.6,0.8,0.3,0.766930946630347,"true"
"image-keyboard-response",511,393960,"0.0-4.166-1.166","lrjngex4bcj0q9o",474,"79.csv","","null","resources/maskTrios/BT4B.jpg","null","",NA,NA,NA,NA,""
"image-keyboard-response",512,395161,"0.0-4.166-2.166","lrjngex4bcj0q9o",474,"79.csv","","null","resources/images/coin2.png","null","",NA,NA,NA,NA,""
"image-keyboard-response",513,396174,"0.0-4.167-0.167","lrjngex4bcj0q9o",474,"79.csv","","1011.2000002861023","resources/trios/L4T4A3.jpg","38","restless",0.6,0.7,0.3,0.905713727781408,"false"
"image-keyboard-response",514,396577,"0.0-4.167-1.167","lrjngex4bcj0q9o",474,"79.csv","","null","resources/maskTrios/BT4B.jpg","null","",NA,NA,NA,NA,""
"image-keyboard-response",515,397779,"0.0-4.167-2.167","lrjngex4bcj0q9o",474,"79.csv","","null","resources/images/fishbone.png","null","",NA,NA,NA,NA,""
"image-keyboard-response",516,398086,"0.0-4.168-0.168","lrjngex4bcj0q9o",474,"79.csv","","305.69999980926514","resources/trios/L4T4A3.jpg","37","restless",0.5,0.7,0.3,0.857037014997614,"false"
"image-keyboard-response",517,398488,"0.0-4.168-1.168","lrjngex4bcj0q9o",474,"79.csv","","null","resources/maskTrios/L4BB.jpg","null","",NA,NA,NA,NA,""
"image-keyboard-response",518,399690,"0.0-4.168-2.168","lrjngex4bcj0q9o",474,"79.csv","","null","resources/images/fishbone.png","null","",NA,NA,NA,NA,""
"image-keyboard-response",519,399902,"0.0-4.169-0.169","lrjngex4bcj0q9o",474,"79.csv","","210.30000019073486","resources/trios/L4T4A3.jpg","39","restless",0.5,0.7,0.3,0.0664972115253437,"true"
"image-keyboard-response",520,400304,"0.0-4.169-1.169","lrjngex4bcj0q9o",474,"79.csv","","null","resources/maskTrios/BBA3.jpg","null","",NA,NA,NA,NA,""
"image-keyboard-response",521,401505,"0.0-4.169-2.169","lrjngex4bcj0q9o",474,"79.csv","","null","resources/images/coin2.png","null","",NA,NA,NA,NA,""
"image-keyboard-response",522,401782,"0.0-4.170-0.170","lrjngex4bcj0q9o",474,"79.csv","","275.40000009536743","resources/trios/L4T4A3.jpg","39","restless",0.5,0.7,0.3,0.863002551591305,"false"
"image-keyboard-response",523,402194,"0.0-4.170-1.170","lrjngex4bcj0q9o",474,"79.csv","","null","resources/maskTrios/BBA3.jpg","null","",NA,NA,NA,NA,""
"image-keyboard-response",524,403395,"0.0-4.170-2.170","lrjngex4bcj0q9o",474,"79.csv","","null","resources/images/fishbone.png","null","",NA,NA,NA,NA,""
"image-keyboard-response",525,403670,"0.0-4.171-0.171","lrjngex4bcj0q9o",474,"79.csv","","273.59999990463257","resources/trios/L4T4A3.jpg","39","restless",0.5,0.7,0.3,0.806528373752727,"false"
"image-keyboard-response",526,404072,"0.0-4.171-1.171","lrjngex4bcj0q9o",474,"79.csv","","null","resources/maskTrios/BBA3.jpg","null","",NA,NA,NA,NA,""
"image-keyboard-response",527,405274,"0.0-4.171-2.171","lrjngex4bcj0q9o",474,"79.csv","","null","resources/images/fishbone.png","null","",NA,NA,NA,NA,""
"image-keyboard-response",528,405534,"0.0-4.172-0.172","lrjngex4bcj0q9o",474,"79.csv","","258.80000019073486","resources/trios/L4T4A3.jpg","37","restless",0.5,0.7,0.3,0.393741847256336,"true"
"image-keyboard-response",529,405937,"0.0-4.172-1.172","lrjngex4bcj0q9o",474,"79.csv","","null","resources/maskTrios/L4BB.jpg","null","",NA,NA,NA,NA,""
"image-keyboard-response",530,407143,"0.0-4.172-2.172","lrjngex4bcj0q9o",474,"79.csv","","null","resources/images/coin2.png","null","",NA,NA,NA,NA,""
"image-keyboard-response",531,407366,"0.0-4.173-0.173","lrjngex4bcj0q9o",474,"79.csv","","221.7000002861023","resources/trios/L4T4A3.jpg","37","restless",0.5,0.7,0.3,0.0267845884807429,"true"
"image-keyboard-response",532,407768,"0.0-4.173-1.173","lrjngex4bcj0q9o",474,"79.csv","","null","resources/maskTrios/L4BB.jpg","null","",NA,NA,NA,NA,""
"image-keyboard-response",533,408970,"0.0-4.173-2.173","lrjngex4bcj0q9o",474,"79.csv","","null","resources/images/coin2.png","null","",NA,NA,NA,NA,""
"image-keyboard-response",534,409206,"0.0-4.174-0.174","lrjngex4bcj0q9o",474,"79.csv","","234.60000038146973","resources/trios/L4T4A3.jpg","37","restless",0.5,0.7,0.3,0.665224836912182,"false"
"image-keyboard-response",535,409608,"0.0-4.174-1.174","lrjngex4bcj0q9o",474,"79.csv","","null","resources/maskTrios/L4BB.jpg","null","",NA,NA,NA,NA,""
"image-keyboard-response",536,410810,"0.0-4.174-2.174","lrjngex4bcj0q9o",474,"79.csv","","null","resources/images/fishbone.png","null","",NA,NA,NA,NA,""
"image-keyboard-response",537,410982,"0.0-4.175-0.175","lrjngex4bcj0q9o",474,"79.csv","","170.90000009536743","resources/trios/L4T4A3.jpg","38","restless",0.5,0.7,0.3,0.338988608188877,"true"
"image-keyboard-response",538,411385,"0.0-4.175-1.175","lrjngex4bcj0q9o",474,"79.csv","","null","resources/maskTrios/BT4B.jpg","null","",NA,NA,NA,NA,""
"image-keyboard-response",539,412586,"0.0-4.175-2.175","lrjngex4bcj0q9o",474,"79.csv","","null","resources/images/coin2.png","null","",NA,NA,NA,NA,""
"image-keyboard-response",540,412774,"0.0-4.176-0.176","lrjngex4bcj0q9o",474,"79.csv","","185.90000009536743","resources/trios/L4T4A3.jpg","38","restless",0.5,0.7,0.3,0.218300548196073,"true"
"image-keyboard-response",541,413175,"0.0-4.176-1.176","lrjngex4bcj0q9o",474,"79.csv","","null","resources/maskTrios/BT4B.jpg","null","",NA,NA,NA,NA,""
"image-keyboard-response",542,414377,"0.0-4.176-2.176","lrjngex4bcj0q9o",474,"79.csv","","null","resources/images/coin2.png","null","",NA,NA,NA,NA,""
"image-keyboard-response",543,414678,"0.0-4.177-0.177","lrjngex4bcj0q9o",474,"79.csv","","299.69999980926514","resources/trios/L4T4A3.jpg","38","restless",0.5,0.7,0.3,0.570481342000807,"true"
"image-keyboard-response",544,415080,"0.0-4.177-1.177","lrjngex4bcj0q9o",474,"79.csv","","null","resources/maskTrios/BT4B.jpg","null","",NA,NA,NA,NA,""
"image-keyboard-response",545,416281,"0.0-4.177-2.177","lrjngex4bcj0q9o",474,"79.csv","","null","resources/images/coin2.png","null","",NA,NA,NA,NA,""
"image-keyboard-response",546,416510,"0.0-4.178-0.178","lrjngex4bcj0q9o",474,"79.csv","","227.30000019073486","resources/trios/L4T4A3.jpg","38","restless",0.5,0.7,0.3,0.602686144405287,"true"
"image-keyboard-response",547,416913,"0.0-4.178-1.178","lrjngex4bcj0q9o",474,"79.csv","","null","resources/maskTrios/BT4B.jpg","null","",NA,NA,NA,NA,""
"image-keyboard-response",548,418114,"0.0-4.178-2.178","lrjngex4bcj0q9o",474,"79.csv","","null","resources/images/coin2.png","null","",NA,NA,NA,NA,""
"image-keyboard-response",549,418430,"0.0-4.179-0.179","lrjngex4bcj0q9o",474,"79.csv","","314.2000002861023","resources/trios/L4T4A3.jpg","38","restless",0.5,0.7,0.3,0.550510940369196,"true"
"image-keyboard-response",550,418832,"0.0-4.179-1.179","lrjngex4bcj0q9o",474,"79.csv","","null","resources/maskTrios/BT4B.jpg","null","",NA,NA,NA,NA,""
"image-keyboard-response",551,420034,"0.0-4.179-2.179","lrjngex4bcj0q9o",474,"79.csv","","null","resources/images/coin2.png","null","",NA,NA,NA,NA,""
"image-keyboard-response",552,420206,"0.0-4.180-0.180","lrjngex4bcj0q9o",474,"79.csv","","170.30000019073486","resources/trios/L4T4A3.jpg","38","restless",0.5,0.7,0.3,0.77432002277378,"false"
"image-keyboard-response",553,420608,"0.0-4.180-1.180","lrjngex4bcj0q9o",474,"79.csv","","null","resources/maskTrios/BT4B.jpg","null","",NA,NA,NA,NA,""
"image-keyboard-response",554,421811,"0.0-4.180-2.180","lrjngex4bcj0q9o",474,"79.csv","","null","resources/images/fishbone.png","null","",NA,NA,NA,NA,""
"image-keyboard-response",555,422214,"0.0-4.181-0.181","lrjngex4bcj0q9o",474,"79.csv","","401.69999980926514","resources/trios/L4T4A3.jpg","39","restless",0.5,0.7,0.3,0.0193242027727327,"true"
"image-keyboard-response",556,422615,"0.0-4.181-1.181","lrjngex4bcj0q9o",474,"79.csv","","null","resources/maskTrios/BBA3.jpg","null","",NA,NA,NA,NA,""
"image-keyboard-response",557,423818,"0.0-4.181-2.181","lrjngex4bcj0q9o",474,"79.csv","","null","resources/images/coin2.png","null","",NA,NA,NA,NA,""
"image-keyboard-response",558,423942,"0.0-4.182-0.182","lrjngex4bcj0q9o",474,"79.csv","","122.60000038146973","resources/trios/L4T4A3.jpg","39","restless",0.5,0.7,0.3,0.0889508071524234,"true"
"image-keyboard-response",559,424344,"0.0-4.182-1.182","lrjngex4bcj0q9o",474,"79.csv","","null","resources/maskTrios/BBA3.jpg","null","",NA,NA,NA,NA,""
"image-keyboard-response",560,425546,"0.0-4.182-2.182","lrjngex4bcj0q9o",474,"79.csv","","null","resources/images/coin2.png","null","",NA,NA,NA,NA,""
"image-keyboard-response",561,425598,"0.0-4.183-0.183","lrjngex4bcj0q9o",474,"79.csv","","51","resources/trios/L4T4A3.jpg","39","restless",0.5,0.7,0.3,0.25039806433012,"true"
"image-keyboard-response",562,426000,"0.0-4.183-1.183","lrjngex4bcj0q9o",474,"79.csv","","null","resources/maskTrios/BBA3.jpg","null","",NA,NA,NA,NA,""
"image-keyboard-response",563,427202,"0.0-4.183-2.183","lrjngex4bcj0q9o",474,"79.csv","","null","resources/images/coin2.png","null","",NA,NA,NA,NA,""
"image-keyboard-response",564,427918,"0.0-4.184-0.184","lrjngex4bcj0q9o",474,"79.csv","","714.7999997138977","resources/trios/L4T4A3.jpg","39","restless",0.5,0.7,0.3,0.647641817578159,"false"
"image-keyboard-response",565,428320,"0.0-4.184-1.184","lrjngex4bcj0q9o",474,"79.csv","","null","resources/maskTrios/BBA3.jpg","null","",NA,NA,NA,NA,""
"image-keyboard-response",566,429521,"0.0-4.184-2.184","lrjngex4bcj0q9o",474,"79.csv","","null","resources/images/fishbone.png","null","",NA,NA,NA,NA,""
"image-keyboard-response",567,429862,"0.0-4.185-0.185","lrjngex4bcj0q9o",474,"79.csv","","338.8999996185303","resources/trios/L4T4A3.jpg","37","restless",0.5,0.7,0.3,0.00305023357085199,"true"
"image-keyboard-response",568,430264,"0.0-4.185-1.185","lrjngex4bcj0q9o",474,"79.csv","","null","resources/maskTrios/L4BB.jpg","null","",NA,NA,NA,NA,""
"image-keyboard-response",569,431466,"0.0-4.185-2.185","lrjngex4bcj0q9o",474,"79.csv","","null","resources/images/coin2.png","null","",NA,NA,NA,NA,""
"image-keyboard-response",570,431798,"0.0-4.186-0.186","lrjngex4bcj0q9o",474,"79.csv","","330.5","resources/trios/L4T4A3.jpg","37","restless",0.4,0.7,0.3,0.123836540672412,"true"
"image-keyboard-response",571,432200,"0.0-4.186-1.186","lrjngex4bcj0q9o",474,"79.csv","","null","resources/maskTrios/L4BB.jpg","null","",NA,NA,NA,NA,""
"image-keyboard-response",572,433401,"0.0-4.186-2.186","lrjngex4bcj0q9o",474,"79.csv","","null","resources/images/coin2.png","null","",NA,NA,NA,NA,""
"image-keyboard-response",573,433637,"0.0-4.187-0.187","lrjngex4bcj0q9o",474,"79.csv","","234.90000009536743","resources/trios/L4T4A3.jpg","37","restless",0.4,0.7,0.3,0.0413340901522341,"true"
"image-keyboard-response",574,434040,"0.0-4.187-1.187","lrjngex4bcj0q9o",474,"79.csv","","null","resources/maskTrios/L4BB.jpg","null","",NA,NA,NA,NA,""
"image-keyboard-response",575,435242,"0.0-4.187-2.187","lrjngex4bcj0q9o",474,"79.csv","","null","resources/images/coin2.png","null","",NA,NA,NA,NA,""
"image-keyboard-response",576,435566,"0.0-4.188-0.188","lrjngex4bcj0q9o",474,"79.csv","","322.7999997138977","resources/trios/L4T4A3.jpg","37","restless",0.4,0.7,0.3,0.82065207965171,"false"
"image-keyboard-response",577,435968,"0.0-4.188-1.188","lrjngex4bcj0q9o",474,"79.csv","","null","resources/maskTrios/L4BB.jpg","null","",NA,NA,NA,NA,""
"image-keyboard-response",578,437169,"0.0-4.188-2.188","lrjngex4bcj0q9o",474,"79.csv","","null","resources/images/fishbone.png","null","",NA,NA,NA,NA,""
"image-keyboard-response",579,437214,"0.0-4.189-0.189","lrjngex4bcj0q9o",474,"79.csv","","43.09999990463257","resources/trios/L4T4A3.jpg","38","restless",0.4,0.7,0.3,0.848616096246002,"false"
"image-keyboard-response",580,437617,"0.0-4.189-1.189","lrjngex4bcj0q9o",474,"79.csv","","null","resources/maskTrios/BT4B.jpg","null","",NA,NA,NA,NA,""
"image-keyboard-response",581,438822,"0.0-4.189-2.189","lrjngex4bcj0q9o",474,"79.csv","","null","resources/images/fishbone.png","null","",NA,NA,NA,NA,""
"image-keyboard-response",582,439038,"0.0-4.190-0.190","lrjngex4bcj0q9o",474,"79.csv","","214","resources/trios/L4T4A3.jpg","37","restless",0.4,0.7,0.3,0.50448418842492,"false"
"image-keyboard-response",583,439439,"0.0-4.190-1.190","lrjngex4bcj0q9o",474,"79.csv","","null","resources/maskTrios/L4BB.jpg","null","",NA,NA,NA,NA,""
"image-keyboard-response",584,440641,"0.0-4.190-2.190","lrjngex4bcj0q9o",474,"79.csv","","null","resources/images/fishbone.png","null","",NA,NA,NA,NA,""
"image-keyboard-response",585,440870,"0.0-4.191-0.191","lrjngex4bcj0q9o",474,"79.csv","","227.69999980926514","resources/trios/L4T4A3.jpg","37","restless",0.4,0.7,0.3,0.891496342176608,"false"
"image-keyboard-response",586,441271,"0.0-4.191-1.191","lrjngex4bcj0q9o",474,"79.csv","","null","resources/maskTrios/L4BB.jpg","null","",NA,NA,NA,NA,""
"image-keyboard-response",587,442473,"0.0-4.191-2.191","lrjngex4bcj0q9o",474,"79.csv","","null","resources/images/fishbone.png","null","",NA,NA,NA,NA,""
"image-keyboard-response",588,442830,"0.0-4.192-0.192","lrjngex4bcj0q9o",474,"79.csv","","354.90000009536743","resources/trios/L4T4A3.jpg","39","restless",0.4,0.7,0.3,0.010627804761411,"true"
"image-keyboard-response",589,443232,"0.0-4.192-1.192","lrjngex4bcj0q9o",474,"79.csv","","null","resources/maskTrios/BBA3.jpg","null","",NA,NA,NA,NA,""
"image-keyboard-response",590,444434,"0.0-4.192-2.192","lrjngex4bcj0q9o",474,"79.csv","","null","resources/images/coin2.png","null","",NA,NA,NA,NA,""
"image-keyboard-response",591,444677,"0.0-4.193-0.193","lrjngex4bcj0q9o",474,"79.csv","","242.40000009536743","resources/trios/L4T4A3.jpg","39","restless",0.4,0.7,0.3,0.688389547217174,"false"
"image-keyboard-response",592,445080,"0.0-4.193-1.193","lrjngex4bcj0q9o",474,"79.csv","","null","resources/maskTrios/BBA3.jpg","null","",NA,NA,NA,NA,""
"image-keyboard-response",593,446282,"0.0-4.193-2.193","lrjngex4bcj0q9o",474,"79.csv","","null","resources/images/fishbone.png","null","",NA,NA,NA,NA,""
"image-keyboard-response",594,446582,"0.0-4.194-0.194","lrjngex4bcj0q9o",474,"79.csv","","298.69999980926514","resources/trios/L4T4A3.jpg","38","restless",0.4,0.7,0.4,0.180141045335735,"true"
"image-keyboard-response",595,446995,"0.0-4.194-1.194","lrjngex4bcj0q9o",474,"79.csv","","null","resources/maskTrios/BT4B.jpg","null","",NA,NA,NA,NA,""
"image-keyboard-response",596,448198,"0.0-4.194-2.194","lrjngex4bcj0q9o",474,"79.csv","","null","resources/images/coin2.png","null","",NA,NA,NA,NA,""
"image-keyboard-response",597,448446,"0.0-4.195-0.195","lrjngex4bcj0q9o",474,"79.csv","","246.5","resources/trios/L4T4A3.jpg","38","restless",0.4,0.7,0.4,0.642873025646701,"true"
"image-keyboard-response",598,448848,"0.0-4.195-1.195","lrjngex4bcj0q9o",474,"79.csv","","null","resources/maskTrios/BT4B.jpg","null","",NA,NA,NA,NA,""
"image-keyboard-response",599,450050,"0.0-4.195-2.195","lrjngex4bcj0q9o",474,"79.csv","","null","resources/images/coin2.png","null","",NA,NA,NA,NA,""
"image-keyboard-response",600,450333,"0.0-4.196-0.196","lrjngex4bcj0q9o",474,"79.csv","","281.69999980926514","resources/trios/L4T4A3.jpg","38","restless",0.4,0.7,0.4,0.0144358822135944,"true"
"image-keyboard-response",601,450735,"0.0-4.196-1.196","lrjngex4bcj0q9o",474,"79.csv","","null","resources/maskTrios/BT4B.jpg","null","",NA,NA,NA,NA,""
"image-keyboard-response",602,451938,"0.0-4.196-2.196","lrjngex4bcj0q9o",474,"79.csv","","null","resources/images/coin2.png","null","",NA,NA,NA,NA,""
"image-keyboard-response",603,452093,"0.0-4.197-0.197","lrjngex4bcj0q9o",474,"79.csv","","154.59999990463257","resources/trios/L4T4A3.jpg","38","restless",0.4,0.7,0.4,0.287726293204215,"true"
"image-keyboard-response",604,452495,"0.0-4.197-1.197","lrjngex4bcj0q9o",474,"79.csv","","null","resources/maskTrios/BT4B.jpg","null","",NA,NA,NA,NA,""
"image-keyboard-response",605,453697,"0.0-4.197-2.197","lrjngex4bcj0q9o",474,"79.csv","","null","resources/images/coin2.png","null","",NA,NA,NA,NA,""
"image-keyboard-response",606,453974,"0.0-4.198-0.198","lrjngex4bcj0q9o",474,"79.csv","","275.2999997138977","resources/trios/L4T4A3.jpg","38","restless",0.4,0.7,0.4,0.169348874109329,"true"
"image-keyboard-response",607,454375,"0.0-4.198-1.198","lrjngex4bcj0q9o",474,"79.csv","","null","resources/maskTrios/BT4B.jpg","null","",NA,NA,NA,NA,""
"image-keyboard-response",608,455578,"0.0-4.198-2.198","lrjngex4bcj0q9o",474,"79.csv","","null","resources/images/coin2.png","null","",NA,NA,NA,NA,""
"image-keyboard-response",609,455829,"0.0-4.199-0.199","lrjngex4bcj0q9o",474,"79.csv","","250.5","resources/trios/L4T4A3.jpg","38","restless",0.4,0.7,0.4,0.576617029797414,"true"
"image-keyboard-response",610,456232,"0.0-4.199-1.199","lrjngex4bcj0q9o",474,"79.csv","","null","resources/maskTrios/BT4B.jpg","null","",NA,NA,NA,NA,""
"image-keyboard-response",611,457433,"0.0-4.199-2.199","lrjngex4bcj0q9o",474,"79.csv","","null","resources/images/coin2.png","null","",NA,NA,NA,NA,""
"survey-text",612,491632,"0.0-5.0","lrjngex4bcj0q9o",474,"79.csv","","34195.09999990463","","","",NA,NA,NA,NA,""
