"trial_type","trial_index","time_elapsed","internal_node_id","subject","participantCode","walkNumber","success","rt","stimulus","key_press","test_part","leftProb","midProb","rightProb","generatedNum","correct"
"pavlovia",0,738,"0.0-0.0","ebyoxtb4gdvrgk9",226,"199.csv","","","","","",NA,NA,NA,NA,""
"fullscreen",1,10668,"0.0-1.0","ebyoxtb4gdvrgk9",226,"199.csv","true","","","","",NA,NA,NA,NA,""
"survey-html-form",2,18102,"0.0-2.0","ebyoxtb4gdvrgk9",226,"199.csv","","7432.100000023842","","","",NA,NA,NA,NA,""
"image-keyboard-response",3,24307,"0.0-3.0-0.0","ebyoxtb4gdvrgk9",226,"199.csv","","6204.099999904633","resources/images/parrot_nobg.png","13","",NA,NA,NA,NA,""
"image-keyboard-response",4,27309,"0.0-3.0-1.0","ebyoxtb4gdvrgk9",226,"199.csv","","null","resources/image_sets/111.png","null","",NA,NA,NA,NA,""
"image-keyboard-response",5,29846,"0.0-3.0-2.0","ebyoxtb4gdvrgk9",226,"199.csv","","2534.100000023842","resources/image_sets/left_highlight.png","37","",NA,NA,NA,NA,""
"image-keyboard-response",6,31050,"0.0-3.0-3.0","ebyoxtb4gdvrgk9",226,"199.csv","","1202.8999999761581","resources/image_sets/mid_highlight.png","38","",NA,NA,NA,NA,""
"image-keyboard-response",7,31892,"0.0-3.0-4.0","ebyoxtb4gdvrgk9",226,"199.csv","","840.3999999761581","resources/image_sets/right_highlight.png","39","",NA,NA,NA,NA,""
"image-keyboard-response",8,33249,"0.0-3.0-5.0","ebyoxtb4gdvrgk9",226,"199.csv","","1356.1999999284744","resources/image_sets/111.png","13","",NA,NA,NA,NA,""
"image-keyboard-response",9,34607,"0.0-3.0-6.0","ebyoxtb4gdvrgk9",226,"199.csv","","1357.5","resources/images/coin2.png","13","",NA,NA,NA,NA,""
"image-keyboard-response",10,35455,"0.0-3.0-7.0","ebyoxtb4gdvrgk9",226,"199.csv","","847.7999999523163","resources/images/fishbone.png","13","",NA,NA,NA,NA,""
"html-keyboard-response",11,37385,"0.0-3.0-8.0","ebyoxtb4gdvrgk9",226,"199.csv","","1929.2999999523163","<p>You can track your coin total on the top right of your screen. </p><p>At the end of your journey you will be directed to a survey, so please click on the link before exiting the task</p><p>Press Enter to begin</p>","13","",NA,NA,NA,NA,""
"image-keyboard-response",12,38207,"0.0-4.0-0.0","ebyoxtb4gdvrgk9",226,"199.csv","","820.8999999761581","resources/trios/L4T2A2.jpg","37","restless",0.3,0.9,0.7,0.793697804695638,"false"
"image-keyboard-response",13,38610,"0.0-4.0-1.0","ebyoxtb4gdvrgk9",226,"199.csv","","null","resources/maskTrios/L4BB.jpg","null","",NA,NA,NA,NA,""
"image-keyboard-response",14,39812,"0.0-4.0-2.0","ebyoxtb4gdvrgk9",226,"199.csv","","null","resources/images/fishbone.png","null","",NA,NA,NA,NA,""
"image-keyboard-response",15,40211,"0.0-4.1-0.1","ebyoxtb4gdvrgk9",226,"199.csv","","397.2000000476837","resources/trios/L4T2A2.jpg","39","restless",0.3,0.9,0.7,0.562291026024534,"true"
"image-keyboard-response",16,40612,"0.0-4.1-1.1","ebyoxtb4gdvrgk9",226,"199.csv","","null","resources/maskTrios/BBA2.jpg","null","",NA,NA,NA,NA,""
"image-keyboard-response",17,41816,"0.0-4.1-2.1","ebyoxtb4gdvrgk9",226,"199.csv","","null","resources/images/coin2.png","null","",NA,NA,NA,NA,""
"image-keyboard-response",18,42146,"0.0-4.2-0.2","ebyoxtb4gdvrgk9",226,"199.csv","","328.59999990463257","resources/trios/L4T2A2.jpg","38","restless",0.3,0.9,0.7,0.84608965633478,"true"
"image-keyboard-response",19,42548,"0.0-4.2-1.2","ebyoxtb4gdvrgk9",226,"199.csv","","null","resources/maskTrios/BT2B.jpg","null","",NA,NA,NA,NA,""
"image-keyboard-response",20,43750,"0.0-4.2-2.2","ebyoxtb4gdvrgk9",226,"199.csv","","null","resources/images/coin2.png","null","",NA,NA,NA,NA,""
"image-keyboard-response",21,44374,"0.0-4.3-0.3","ebyoxtb4gdvrgk9",226,"199.csv","","621.8999999761581","resources/trios/L4T2A2.jpg","39","restless",0.3,0.9,0.8,0.791472234183203,"true"
"image-keyboard-response",22,44776,"0.0-4.3-1.3","ebyoxtb4gdvrgk9",226,"199.csv","","null","resources/maskTrios/BBA2.jpg","null","",NA,NA,NA,NA,""
"image-keyboard-response",23,45978,"0.0-4.3-2.3","ebyoxtb4gdvrgk9",226,"199.csv","","null","resources/images/coin2.png","null","",NA,NA,NA,NA,""
"image-keyboard-response",24,46287,"0.0-4.4-0.4","ebyoxtb4gdvrgk9",226,"199.csv","","307.6999999284744","resources/trios/L4T2A2.jpg","38","restless",0.3,0.9,0.8,0.193464613804464,"true"
"image-keyboard-response",25,46689,"0.0-4.4-1.4","ebyoxtb4gdvrgk9",226,"199.csv","","null","resources/maskTrios/BT2B.jpg","null","",NA,NA,NA,NA,""
"image-keyboard-response",26,47892,"0.0-4.4-2.4","ebyoxtb4gdvrgk9",226,"199.csv","","null","resources/images/coin2.png","null","",NA,NA,NA,NA,""
"image-keyboard-response",27,48349,"0.0-4.5-0.5","ebyoxtb4gdvrgk9",226,"199.csv","","455.2000000476837","resources/trios/L4T2A2.jpg","37","restless",0.3,0.9,0.8,0.4933145726826,"false"
"image-keyboard-response",28,48746,"0.0-4.5-1.5","ebyoxtb4gdvrgk9",226,"199.csv","","null","resources/maskTrios/L4BB.jpg","null","",NA,NA,NA,NA,""
"image-keyboard-response",29,49948,"0.0-4.5-2.5","ebyoxtb4gdvrgk9",226,"199.csv","","null","resources/images/fishbone.png","null","",NA,NA,NA,NA,""
"image-keyboard-response",30,50256,"0.0-4.6-0.6","ebyoxtb4gdvrgk9",226,"199.csv","","306.7999999523163","resources/trios/L4T2A2.jpg","39","restless",0.3,0.9,0.8,0.516755832874956,"true"
"image-keyboard-response",31,50658,"0.0-4.6-1.6","ebyoxtb4gdvrgk9",226,"199.csv","","null","resources/maskTrios/BBA2.jpg","null","",NA,NA,NA,NA,""
"image-keyboard-response",32,51861,"0.0-4.6-2.6","ebyoxtb4gdvrgk9",226,"199.csv","","null","resources/images/coin2.png","null","",NA,NA,NA,NA,""
"image-keyboard-response",33,52154,"0.0-4.7-0.7","ebyoxtb4gdvrgk9",226,"199.csv","","292.60000002384186","resources/trios/L4T2A2.jpg","38","restless",0.3,0.8,0.8,0.869585441532543,"false"
"image-keyboard-response",34,52556,"0.0-4.7-1.7","ebyoxtb4gdvrgk9",226,"199.csv","","null","resources/maskTrios/BT2B.jpg","null","",NA,NA,NA,NA,""
"image-keyboard-response",35,53758,"0.0-4.7-2.7","ebyoxtb4gdvrgk9",226,"199.csv","","null","resources/images/fishbone.png","null","",NA,NA,NA,NA,""
"image-keyboard-response",36,54193,"0.0-4.8-0.8","ebyoxtb4gdvrgk9",226,"199.csv","","433.5","resources/trios/L4T2A2.jpg","39","restless",0.3,0.8,0.8,0.245722473130555,"true"
"image-keyboard-response",37,54594,"0.0-4.8-1.8","ebyoxtb4gdvrgk9",226,"199.csv","","null","resources/maskTrios/BBA2.jpg","null","",NA,NA,NA,NA,""
"image-keyboard-response",38,55798,"0.0-4.8-2.8","ebyoxtb4gdvrgk9",226,"199.csv","","null","resources/images/coin2.png","null","",NA,NA,NA,NA,""
"image-keyboard-response",39,56035,"0.0-4.9-0.9","ebyoxtb4gdvrgk9",226,"199.csv","","236.20000004768372","resources/trios/L4T2A2.jpg","38","restless",0.3,0.8,0.8,0.0341173188966588,"true"
"image-keyboard-response",40,56437,"0.0-4.9-1.9","ebyoxtb4gdvrgk9",226,"199.csv","","null","resources/maskTrios/BT2B.jpg","null","",NA,NA,NA,NA,""
"image-keyboard-response",41,57639,"0.0-4.9-2.9","ebyoxtb4gdvrgk9",226,"199.csv","","null","resources/images/coin2.png","null","",NA,NA,NA,NA,""
"image-keyboard-response",42,58085,"0.0-4.10-0.10","ebyoxtb4gdvrgk9",226,"199.csv","","445.10000002384186","resources/trios/L4T2A2.jpg","39","restless",0.2,0.8,0.8,0.336946389314287,"true"
"image-keyboard-response",43,58487,"0.0-4.10-1.10","ebyoxtb4gdvrgk9",226,"199.csv","","null","resources/maskTrios/BBA2.jpg","null","",NA,NA,NA,NA,""
"image-keyboard-response",44,59691,"0.0-4.10-2.10","ebyoxtb4gdvrgk9",226,"199.csv","","null","resources/images/coin2.png","null","",NA,NA,NA,NA,""
"image-keyboard-response",45,61048,"0.0-4.11-0.11","ebyoxtb4gdvrgk9",226,"199.csv","","1355.3999999761581","resources/trios/L4T2A2.jpg","38","restless",0.2,0.8,0.8,0.623418304451356,"true"
"image-keyboard-response",46,61451,"0.0-4.11-1.11","ebyoxtb4gdvrgk9",226,"199.csv","","null","resources/maskTrios/BT2B.jpg","null","",NA,NA,NA,NA,""
"image-keyboard-response",47,62654,"0.0-4.11-2.11","ebyoxtb4gdvrgk9",226,"199.csv","","null","resources/images/coin2.png","null","",NA,NA,NA,NA,""
"image-keyboard-response",48,63120,"0.0-4.12-0.12","ebyoxtb4gdvrgk9",226,"199.csv","","464.7000000476837","resources/trios/L4T2A2.jpg","39","restless",0.2,0.8,0.8,0.901124254007507,"false"
"image-keyboard-response",49,63522,"0.0-4.12-1.12","ebyoxtb4gdvrgk9",226,"199.csv","","null","resources/maskTrios/BBA2.jpg","null","",NA,NA,NA,NA,""
"image-keyboard-response",50,64725,"0.0-4.12-2.12","ebyoxtb4gdvrgk9",226,"199.csv","","null","resources/images/fishbone.png","null","",NA,NA,NA,NA,""
"image-keyboard-response",51,65068,"0.0-4.13-0.13","ebyoxtb4gdvrgk9",226,"199.csv","","342","resources/trios/L4T2A2.jpg","38","restless",0.2,0.8,0.8,0.0840955512210437,"true"
"image-keyboard-response",52,65482,"0.0-4.13-1.13","ebyoxtb4gdvrgk9",226,"199.csv","","null","resources/maskTrios/BT2B.jpg","null","",NA,NA,NA,NA,""
"image-keyboard-response",53,66684,"0.0-4.13-2.13","ebyoxtb4gdvrgk9",226,"199.csv","","null","resources/images/coin2.png","null","",NA,NA,NA,NA,""
"image-keyboard-response",54,67064,"0.0-4.14-0.14","ebyoxtb4gdvrgk9",226,"199.csv","","379.39999997615814","resources/trios/L4T2A2.jpg","39","restless",0.2,0.8,0.8,0.867711348804329,"false"
"image-keyboard-response",55,67467,"0.0-4.14-1.14","ebyoxtb4gdvrgk9",226,"199.csv","","null","resources/maskTrios/BBA2.jpg","null","",NA,NA,NA,NA,""
"image-keyboard-response",56,68669,"0.0-4.14-2.14","ebyoxtb4gdvrgk9",226,"199.csv","","null","resources/images/fishbone.png","null","",NA,NA,NA,NA,""
"image-keyboard-response",57,68897,"0.0-4.15-0.15","ebyoxtb4gdvrgk9",226,"199.csv","","227.5","resources/trios/L4T2A2.jpg","37","restless",0.1,0.8,0.8,0.429949624415511,"false"
"image-keyboard-response",58,69300,"0.0-4.15-1.15","ebyoxtb4gdvrgk9",226,"199.csv","","null","resources/maskTrios/L4BB.jpg","null","",NA,NA,NA,NA,""
"image-keyboard-response",59,70502,"0.0-4.15-2.15","ebyoxtb4gdvrgk9",226,"199.csv","","null","resources/images/fishbone.png","null","",NA,NA,NA,NA,""
"image-keyboard-response",60,70764,"0.0-4.16-0.16","ebyoxtb4gdvrgk9",226,"199.csv","","260.2999999523163","resources/trios/L4T2A2.jpg","38","restless",0.1,0.8,0.8,0.884211958235336,"false"
"image-keyboard-response",61,71166,"0.0-4.16-1.16","ebyoxtb4gdvrgk9",226,"199.csv","","null","resources/maskTrios/BT2B.jpg","null","",NA,NA,NA,NA,""
"image-keyboard-response",62,72367,"0.0-4.16-2.16","ebyoxtb4gdvrgk9",226,"199.csv","","null","resources/images/fishbone.png","null","",NA,NA,NA,NA,""
"image-keyboard-response",63,72724,"0.0-4.17-0.17","ebyoxtb4gdvrgk9",226,"199.csv","","355.5","resources/trios/L4T2A2.jpg","37","restless",0.1,0.8,0.7,0.973808337322112,"false"
"image-keyboard-response",64,73126,"0.0-4.17-1.17","ebyoxtb4gdvrgk9",226,"199.csv","","null","resources/maskTrios/L4BB.jpg","null","",NA,NA,NA,NA,""
"image-keyboard-response",65,74328,"0.0-4.17-2.17","ebyoxtb4gdvrgk9",226,"199.csv","","null","resources/images/fishbone.png","null","",NA,NA,NA,NA,""
"image-keyboard-response",66,74596,"0.0-4.18-0.18","ebyoxtb4gdvrgk9",226,"199.csv","","266.5","resources/trios/L4T2A2.jpg","39","restless",0.1,0.8,0.7,0.109688578842583,"true"
"image-keyboard-response",67,74998,"0.0-4.18-1.18","ebyoxtb4gdvrgk9",226,"199.csv","","null","resources/maskTrios/BBA2.jpg","null","",NA,NA,NA,NA,""
"image-keyboard-response",68,76201,"0.0-4.18-2.18","ebyoxtb4gdvrgk9",226,"199.csv","","null","resources/images/coin2.png","null","",NA,NA,NA,NA,""
"image-keyboard-response",69,76474,"0.0-4.19-0.19","ebyoxtb4gdvrgk9",226,"199.csv","","271.60000002384186","resources/trios/L4T2A2.jpg","37","restless",0.1,0.7,0.7,0.607084624073471,"false"
"image-keyboard-response",70,76876,"0.0-4.19-1.19","ebyoxtb4gdvrgk9",226,"199.csv","","null","resources/maskTrios/L4BB.jpg","null","",NA,NA,NA,NA,""
"image-keyboard-response",71,78078,"0.0-4.19-2.19","ebyoxtb4gdvrgk9",226,"199.csv","","null","resources/images/fishbone.png","null","",NA,NA,NA,NA,""
"image-keyboard-response",72,78368,"0.0-4.20-0.20","ebyoxtb4gdvrgk9",226,"199.csv","","288.40000009536743","resources/trios/L4T2A2.jpg","38","restless",0.1,0.7,0.7,0.481565366144717,"true"
"image-keyboard-response",73,78770,"0.0-4.20-1.20","ebyoxtb4gdvrgk9",226,"199.csv","","null","resources/maskTrios/BT2B.jpg","null","",NA,NA,NA,NA,""
"image-keyboard-response",74,79973,"0.0-4.20-2.20","ebyoxtb4gdvrgk9",226,"199.csv","","null","resources/images/coin2.png","null","",NA,NA,NA,NA,""
"image-keyboard-response",75,81665,"0.0-4.21-0.21","ebyoxtb4gdvrgk9",226,"199.csv","","1690.8999999761581","resources/trios/L4T2A2.jpg","39","restless",0.1,0.7,0.7,0.99486550362385,"false"
"image-keyboard-response",76,82067,"0.0-4.21-1.21","ebyoxtb4gdvrgk9",226,"199.csv","","null","resources/maskTrios/BBA2.jpg","null","",NA,NA,NA,NA,""
"image-keyboard-response",77,83268,"0.0-4.21-2.21","ebyoxtb4gdvrgk9",226,"199.csv","","null","resources/images/fishbone.png","null","",NA,NA,NA,NA,""
"image-keyboard-response",78,83649,"0.0-4.22-0.22","ebyoxtb4gdvrgk9",226,"199.csv","","380.10000002384186","resources/trios/L4T2A2.jpg","38","restless",0.1,0.7,0.7,0.288424636461119,"true"
"image-keyboard-response",79,84052,"0.0-4.22-1.22","ebyoxtb4gdvrgk9",226,"199.csv","","null","resources/maskTrios/BT2B.jpg","null","",NA,NA,NA,NA,""
"image-keyboard-response",80,85254,"0.0-4.22-2.22","ebyoxtb4gdvrgk9",226,"199.csv","","null","resources/images/coin2.png","null","",NA,NA,NA,NA,""
"image-keyboard-response",81,85770,"0.0-4.23-0.23","ebyoxtb4gdvrgk9",226,"199.csv","","515.5","resources/trios/L4T2A2.jpg","37","restless",0.1,0.7,0.7,0.547240587099739,"false"
"image-keyboard-response",82,86173,"0.0-4.23-1.23","ebyoxtb4gdvrgk9",226,"199.csv","","null","resources/maskTrios/L4BB.jpg","null","",NA,NA,NA,NA,""
"image-keyboard-response",83,87375,"0.0-4.23-2.23","ebyoxtb4gdvrgk9",226,"199.csv","","null","resources/images/fishbone.png","null","",NA,NA,NA,NA,""
"image-keyboard-response",84,87643,"0.0-4.24-0.24","ebyoxtb4gdvrgk9",226,"199.csv","","266.2000000476837","resources/trios/L4T2A2.jpg","39","restless",0.2,0.7,0.7,0.159562944472232,"true"
"image-keyboard-response",85,88046,"0.0-4.24-1.24","ebyoxtb4gdvrgk9",226,"199.csv","","null","resources/maskTrios/BBA2.jpg","null","",NA,NA,NA,NA,""
"image-keyboard-response",86,89248,"0.0-4.24-2.24","ebyoxtb4gdvrgk9",226,"199.csv","","null","resources/images/coin2.png","null","",NA,NA,NA,NA,""
"image-keyboard-response",87,89737,"0.0-4.25-0.25","ebyoxtb4gdvrgk9",226,"199.csv","","487.10000002384186","resources/trios/L4T2A2.jpg","38","restless",0.2,0.6,0.7,0.207815381879106,"true"
"image-keyboard-response",88,90139,"0.0-4.25-1.25","ebyoxtb4gdvrgk9",226,"199.csv","","null","resources/maskTrios/BT2B.jpg","null","",NA,NA,NA,NA,""
"image-keyboard-response",89,91341,"0.0-4.25-2.25","ebyoxtb4gdvrgk9",226,"199.csv","","null","resources/images/coin2.png","null","",NA,NA,NA,NA,""
"image-keyboard-response",90,93015,"0.0-4.26-0.26","ebyoxtb4gdvrgk9",226,"199.csv","","1673.1999999284744","resources/trios/L4T2A2.jpg","39","restless",0.2,0.6,0.8,0.920230671859713,"false"
"image-keyboard-response",91,93418,"0.0-4.26-1.26","ebyoxtb4gdvrgk9",226,"199.csv","","null","resources/maskTrios/BBA2.jpg","null","",NA,NA,NA,NA,""
"image-keyboard-response",92,94619,"0.0-4.26-2.26","ebyoxtb4gdvrgk9",226,"199.csv","","null","resources/images/fishbone.png","null","",NA,NA,NA,NA,""
"image-keyboard-response",93,94968,"0.0-4.27-0.27","ebyoxtb4gdvrgk9",226,"199.csv","","347.5","resources/trios/L4T2A2.jpg","37","restless",0.2,0.6,0.8,0.0817612040423488,"true"
"image-keyboard-response",94,95370,"0.0-4.27-1.27","ebyoxtb4gdvrgk9",226,"199.csv","","null","resources/maskTrios/L4BB.jpg","null","",NA,NA,NA,NA,""
"image-keyboard-response",95,96573,"0.0-4.27-2.27","ebyoxtb4gdvrgk9",226,"199.csv","","null","resources/images/coin2.png","null","",NA,NA,NA,NA,""
"image-keyboard-response",96,97166,"0.0-4.28-0.28","ebyoxtb4gdvrgk9",226,"199.csv","","592","resources/trios/L4T2A2.jpg","38","restless",0.2,0.6,0.8,0.34600245337221,"true"
"image-keyboard-response",97,97568,"0.0-4.28-1.28","ebyoxtb4gdvrgk9",226,"199.csv","","null","resources/maskTrios/BT2B.jpg","null","",NA,NA,NA,NA,""
"image-keyboard-response",98,98771,"0.0-4.28-2.28","ebyoxtb4gdvrgk9",226,"199.csv","","null","resources/images/coin2.png","null","",NA,NA,NA,NA,""
"image-keyboard-response",99,101238,"0.0-4.29-0.29","ebyoxtb4gdvrgk9",226,"199.csv","","2466.399999976158","resources/trios/L4T2A2.jpg","37","restless",0.2,0.5,0.8,0.199881925626017,"true"
"image-keyboard-response",100,101640,"0.0-4.29-1.29","ebyoxtb4gdvrgk9",226,"199.csv","","null","resources/maskTrios/L4BB.jpg","null","",NA,NA,NA,NA,""
"image-keyboard-response",101,102842,"0.0-4.29-2.29","ebyoxtb4gdvrgk9",226,"199.csv","","null","resources/images/coin2.png","null","",NA,NA,NA,NA,""
"image-keyboard-response",102,103909,"0.0-4.30-0.30","ebyoxtb4gdvrgk9",226,"199.csv","","1065.7000000476837","resources/trios/L4T2A2.jpg","39","restless",0.2,0.5,0.8,0.128414139240013,"true"
"image-keyboard-response",103,104311,"0.0-4.30-1.30","ebyoxtb4gdvrgk9",226,"199.csv","","null","resources/maskTrios/BBA2.jpg","null","",NA,NA,NA,NA,""
"image-keyboard-response",104,105513,"0.0-4.30-2.30","ebyoxtb4gdvrgk9",226,"199.csv","","null","resources/images/coin2.png","null","",NA,NA,NA,NA,""
"image-keyboard-response",105,105806,"0.0-4.31-0.31","ebyoxtb4gdvrgk9",226,"199.csv","","291.2999999523163","resources/trios/L4T2A2.jpg","38","restless",0.2,0.4,0.8,0.816125317049649,"false"
"image-keyboard-response",106,106208,"0.0-4.31-1.31","ebyoxtb4gdvrgk9",226,"199.csv","","null","resources/maskTrios/BT2B.jpg","null","",NA,NA,NA,NA,""
"image-keyboard-response",107,107410,"0.0-4.31-2.31","ebyoxtb4gdvrgk9",226,"199.csv","","null","resources/images/fishbone.png","null","",NA,NA,NA,NA,""
"image-keyboard-response",108,108766,"0.0-4.32-0.32","ebyoxtb4gdvrgk9",226,"199.csv","","1360","resources/trios/L4T2A2.jpg","37","restless",0.2,0.4,0.8,0.279340077986378,"false"
"image-keyboard-response",109,109167,"0.0-4.32-1.32","ebyoxtb4gdvrgk9",226,"199.csv","","null","resources/maskTrios/L4BB.jpg","null","",NA,NA,NA,NA,""
"image-keyboard-response",110,110369,"0.0-4.32-2.32","ebyoxtb4gdvrgk9",226,"199.csv","","null","resources/images/fishbone.png","null","",NA,NA,NA,NA,""
"image-keyboard-response",111,113252,"0.0-4.33-0.33","ebyoxtb4gdvrgk9",226,"199.csv","","2882","resources/trios/L4T2A2.jpg","39","restless",0.2,0.4,0.8,0.855099942430926,"false"
"image-keyboard-response",112,113653,"0.0-4.33-1.33","ebyoxtb4gdvrgk9",226,"199.csv","","null","resources/maskTrios/BBA2.jpg","null","",NA,NA,NA,NA,""
"image-keyboard-response",113,114856,"0.0-4.33-2.33","ebyoxtb4gdvrgk9",226,"199.csv","","null","resources/images/fishbone.png","null","",NA,NA,NA,NA,""
"image-keyboard-response",114,114946,"0.0-4.34-0.34","ebyoxtb4gdvrgk9",226,"199.csv","","88.69999992847443","resources/trios/L4T2A2.jpg","38","restless",0.2,0.4,0.8,0.181967229306072,"true"
"image-keyboard-response",115,115349,"0.0-4.34-1.34","ebyoxtb4gdvrgk9",226,"199.csv","","null","resources/maskTrios/BT2B.jpg","null","",NA,NA,NA,NA,""
"image-keyboard-response",116,116551,"0.0-4.34-2.34","ebyoxtb4gdvrgk9",226,"199.csv","","null","resources/images/coin2.png","null","",NA,NA,NA,NA,""
"image-keyboard-response",117,116818,"0.0-4.35-0.35","ebyoxtb4gdvrgk9",226,"199.csv","","265.6999999284744","resources/trios/L4T2A2.jpg","37","restless",0.2,0.4,0.9,0.526714449072464,"false"
"image-keyboard-response",118,117220,"0.0-4.35-1.35","ebyoxtb4gdvrgk9",226,"199.csv","","null","resources/maskTrios/L4BB.jpg","null","",NA,NA,NA,NA,""
"image-keyboard-response",119,118421,"0.0-4.35-2.35","ebyoxtb4gdvrgk9",226,"199.csv","","null","resources/images/fishbone.png","null","",NA,NA,NA,NA,""
"image-keyboard-response",120,118703,"0.0-4.36-0.36","ebyoxtb4gdvrgk9",226,"199.csv","","280.5","resources/trios/L4T2A2.jpg","39","restless",0.2,0.4,0.9,0.232467162753577,"true"
"image-keyboard-response",121,119105,"0.0-4.36-1.36","ebyoxtb4gdvrgk9",226,"199.csv","","null","resources/maskTrios/BBA2.jpg","null","",NA,NA,NA,NA,""
"image-keyboard-response",122,120307,"0.0-4.36-2.36","ebyoxtb4gdvrgk9",226,"199.csv","","null","resources/images/coin2.png","null","",NA,NA,NA,NA,""
"image-keyboard-response",123,120504,"0.0-4.37-0.37","ebyoxtb4gdvrgk9",226,"199.csv","","196.10000002384186","resources/trios/L4T2A2.jpg","38","restless",0.2,0.4,0.9,0.414426505401902,"false"
"image-keyboard-response",124,120906,"0.0-4.37-1.37","ebyoxtb4gdvrgk9",226,"199.csv","","null","resources/maskTrios/BT2B.jpg","null","",NA,NA,NA,NA,""
"image-keyboard-response",125,122108,"0.0-4.37-2.37","ebyoxtb4gdvrgk9",226,"199.csv","","null","resources/images/fishbone.png","null","",NA,NA,NA,NA,""
"image-keyboard-response",126,122379,"0.0-4.38-0.38","ebyoxtb4gdvrgk9",226,"199.csv","","269.7999999523163","resources/trios/L4T2A2.jpg","39","restless",0.2,0.4,0.9,0.797315277842953,"true"
"image-keyboard-response",127,122780,"0.0-4.38-1.38","ebyoxtb4gdvrgk9",226,"199.csv","","null","resources/maskTrios/BBA2.jpg","null","",NA,NA,NA,NA,""
"image-keyboard-response",128,123982,"0.0-4.38-2.38","ebyoxtb4gdvrgk9",226,"199.csv","","null","resources/images/coin2.png","null","",NA,NA,NA,NA,""
"image-keyboard-response",129,124962,"0.0-4.39-0.39","ebyoxtb4gdvrgk9",226,"199.csv","","979.5","resources/trios/L4T2A2.jpg","37","restless",0.2,0.4,0.9,0.316317988928872,"false"
"image-keyboard-response",130,125365,"0.0-4.39-1.39","ebyoxtb4gdvrgk9",226,"199.csv","","null","resources/maskTrios/L4BB.jpg","null","",NA,NA,NA,NA,""
"image-keyboard-response",131,126566,"0.0-4.39-2.39","ebyoxtb4gdvrgk9",226,"199.csv","","null","resources/images/fishbone.png","null","",NA,NA,NA,NA,""
"image-keyboard-response",132,127178,"0.0-4.40-0.40","ebyoxtb4gdvrgk9",226,"199.csv","","610.6000000238419","resources/trios/L4T2A2.jpg","38","restless",0.2,0.4,0.9,0.239796658890683,"true"
"image-keyboard-response",133,127580,"0.0-4.40-1.40","ebyoxtb4gdvrgk9",226,"199.csv","","null","resources/maskTrios/BT2B.jpg","null","",NA,NA,NA,NA,""
"image-keyboard-response",134,128788,"0.0-4.40-2.40","ebyoxtb4gdvrgk9",226,"199.csv","","null","resources/images/coin2.png","null","",NA,NA,NA,NA,""
"image-keyboard-response",135,130663,"0.0-4.41-0.41","ebyoxtb4gdvrgk9",226,"199.csv","","1874.4000000953674","resources/trios/L4T2A2.jpg","39","restless",0.2,0.4,0.8,0.920853589684553,"false"
"image-keyboard-response",136,131065,"0.0-4.41-1.41","ebyoxtb4gdvrgk9",226,"199.csv","","null","resources/maskTrios/BBA2.jpg","null","",NA,NA,NA,NA,""
"image-keyboard-response",137,132266,"0.0-4.41-2.41","ebyoxtb4gdvrgk9",226,"199.csv","","null","resources/images/fishbone.png","null","",NA,NA,NA,NA,""
"image-keyboard-response",138,135901,"0.0-4.42-0.42","ebyoxtb4gdvrgk9",226,"199.csv","","3633.2000000476837","resources/trios/L4T2A2.jpg","37","restless",0.2,0.4,0.8,0.395451224269131,"false"
"image-keyboard-response",139,136303,"0.0-4.42-1.42","ebyoxtb4gdvrgk9",226,"199.csv","","null","resources/maskTrios/L4BB.jpg","null","",NA,NA,NA,NA,""
"image-keyboard-response",140,137504,"0.0-4.42-2.42","ebyoxtb4gdvrgk9",226,"199.csv","","null","resources/images/fishbone.png","null","",NA,NA,NA,NA,""
"image-keyboard-response",141,138338,"0.0-4.43-0.43","ebyoxtb4gdvrgk9",226,"199.csv","","832.2999999523163","resources/trios/L4T2A2.jpg","38","restless",0.2,0.4,0.8,0.404044939118618,"false"
"image-keyboard-response",142,138739,"0.0-4.43-1.43","ebyoxtb4gdvrgk9",226,"199.csv","","null","resources/maskTrios/BT2B.jpg","null","",NA,NA,NA,NA,""
"image-keyboard-response",143,139940,"0.0-4.43-2.43","ebyoxtb4gdvrgk9",226,"199.csv","","null","resources/images/fishbone.png","null","",NA,NA,NA,NA,""
"image-keyboard-response",144,141367,"0.0-4.44-0.44","ebyoxtb4gdvrgk9",226,"199.csv","","1425.6000000238419","resources/trios/L4T2A2.jpg","39","restless",0.2,0.4,0.8,0.407018990269648,"true"
"image-keyboard-response",145,141770,"0.0-4.44-1.44","ebyoxtb4gdvrgk9",226,"199.csv","","null","resources/maskTrios/BBA2.jpg","null","",NA,NA,NA,NA,""
"image-keyboard-response",146,142972,"0.0-4.44-2.44","ebyoxtb4gdvrgk9",226,"199.csv","","null","resources/images/coin2.png","null","",NA,NA,NA,NA,""
"image-keyboard-response",147,145623,"0.0-4.45-0.45","ebyoxtb4gdvrgk9",226,"199.csv","","2649.600000023842","resources/trios/L4T2A2.jpg","37","restless",0.2,0.4,0.8,0.434477702037349,"false"
"image-keyboard-response",148,146026,"0.0-4.45-1.45","ebyoxtb4gdvrgk9",226,"199.csv","","null","resources/maskTrios/L4BB.jpg","null","",NA,NA,NA,NA,""
"image-keyboard-response",149,147228,"0.0-4.45-2.45","ebyoxtb4gdvrgk9",226,"199.csv","","null","resources/images/fishbone.png","null","",NA,NA,NA,NA,""
"image-keyboard-response",150,147655,"0.0-4.46-0.46","ebyoxtb4gdvrgk9",226,"199.csv","","425.8000000715256","resources/trios/L4T2A2.jpg","39","restless",0.2,0.4,0.8,0.618113166166413,"true"
"image-keyboard-response",151,148058,"0.0-4.46-1.46","ebyoxtb4gdvrgk9",226,"199.csv","","null","resources/maskTrios/BBA2.jpg","null","",NA,NA,NA,NA,""
"image-keyboard-response",152,149260,"0.0-4.46-2.46","ebyoxtb4gdvrgk9",226,"199.csv","","null","resources/images/coin2.png","null","",NA,NA,NA,NA,""
"image-keyboard-response",153,149546,"0.0-4.47-0.47","ebyoxtb4gdvrgk9",226,"199.csv","","284.5","resources/trios/L4T2A2.jpg","38","restless",0.2,0.4,0.8,0.28420317234588,"true"
"image-keyboard-response",154,149948,"0.0-4.47-1.47","ebyoxtb4gdvrgk9",226,"199.csv","","null","resources/maskTrios/BT2B.jpg","null","",NA,NA,NA,NA,""
"image-keyboard-response",155,151151,"0.0-4.47-2.47","ebyoxtb4gdvrgk9",226,"199.csv","","null","resources/images/coin2.png","null","",NA,NA,NA,NA,""
"image-keyboard-response",156,151474,"0.0-4.48-0.48","ebyoxtb4gdvrgk9",226,"199.csv","","322.60000002384186","resources/trios/L4T2A2.jpg","38","restless",0.2,0.4,0.8,0.987615246620978,"false"
"image-keyboard-response",157,151876,"0.0-4.48-1.48","ebyoxtb4gdvrgk9",226,"199.csv","","null","resources/maskTrios/BT2B.jpg","null","",NA,NA,NA,NA,""
"image-keyboard-response",158,153077,"0.0-4.48-2.48","ebyoxtb4gdvrgk9",226,"199.csv","","null","resources/images/fishbone.png","null","",NA,NA,NA,NA,""
"image-keyboard-response",159,153303,"0.0-4.49-0.49","ebyoxtb4gdvrgk9",226,"199.csv","","224.90000009536743","resources/trios/L4T2A2.jpg","37","restless",0.1,0.4,0.8,0.80592460742362,"false"
"image-keyboard-response",160,153706,"0.0-4.49-1.49","ebyoxtb4gdvrgk9",226,"199.csv","","null","resources/maskTrios/L4BB.jpg","null","",NA,NA,NA,NA,""
"image-keyboard-response",161,154908,"0.0-4.49-2.49","ebyoxtb4gdvrgk9",226,"199.csv","","null","resources/images/fishbone.png","null","",NA,NA,NA,NA,""
"image-keyboard-response",162,155132,"0.0-4.50-0.50","ebyoxtb4gdvrgk9",226,"199.csv","","221.5","resources/trios/L4T2A2.jpg","39","restless",0.1,0.5,0.8,0.313641584428781,"true"
"image-keyboard-response",163,155534,"0.0-4.50-1.50","ebyoxtb4gdvrgk9",226,"199.csv","","null","resources/maskTrios/BBA2.jpg","null","",NA,NA,NA,NA,""
"image-keyboard-response",164,156736,"0.0-4.50-2.50","ebyoxtb4gdvrgk9",226,"199.csv","","null","resources/images/coin2.png","null","",NA,NA,NA,NA,""
"image-keyboard-response",165,157051,"0.0-4.51-0.51","ebyoxtb4gdvrgk9",226,"199.csv","","313.39999997615814","resources/trios/L4T2A2.jpg","37","restless",0.1,0.5,0.8,0.438249471493671,"false"
"image-keyboard-response",166,157452,"0.0-4.51-1.51","ebyoxtb4gdvrgk9",226,"199.csv","","null","resources/maskTrios/L4BB.jpg","null","",NA,NA,NA,NA,""
"image-keyboard-response",167,158654,"0.0-4.51-2.51","ebyoxtb4gdvrgk9",226,"199.csv","","null","resources/images/fishbone.png","null","",NA,NA,NA,NA,""
"image-keyboard-response",168,158859,"0.0-4.52-0.52","ebyoxtb4gdvrgk9",226,"199.csv","","203.39999997615814","resources/trios/L4T2A2.jpg","38","restless",0.1,0.5,0.8,0.369600305475281,"true"
"image-keyboard-response",169,159260,"0.0-4.52-1.52","ebyoxtb4gdvrgk9",226,"199.csv","","null","resources/maskTrios/BT2B.jpg","null","",NA,NA,NA,NA,""
"image-keyboard-response",170,160463,"0.0-4.52-2.52","ebyoxtb4gdvrgk9",226,"199.csv","","null","resources/images/coin2.png","null","",NA,NA,NA,NA,""
"image-keyboard-response",171,161305,"0.0-4.53-0.53","ebyoxtb4gdvrgk9",226,"199.csv","","841.5","resources/trios/L4T2A2.jpg","39","restless",0.1,0.5,0.8,0.992447636019573,"false"
"image-keyboard-response",172,161707,"0.0-4.53-1.53","ebyoxtb4gdvrgk9",226,"199.csv","","null","resources/maskTrios/BBA2.jpg","null","",NA,NA,NA,NA,""
"image-keyboard-response",173,162908,"0.0-4.53-2.53","ebyoxtb4gdvrgk9",226,"199.csv","","null","resources/images/fishbone.png","null","",NA,NA,NA,NA,""
"image-keyboard-response",174,163146,"0.0-4.54-0.54","ebyoxtb4gdvrgk9",226,"199.csv","","236.20000004768372","resources/trios/L4T2A2.jpg","38","restless",0.1,0.5,0.8,0.165372451268434,"true"
"image-keyboard-response",175,163548,"0.0-4.54-1.54","ebyoxtb4gdvrgk9",226,"199.csv","","null","resources/maskTrios/BT2B.jpg","null","",NA,NA,NA,NA,""
"image-keyboard-response",176,164750,"0.0-4.54-2.54","ebyoxtb4gdvrgk9",226,"199.csv","","null","resources/images/coin2.png","null","",NA,NA,NA,NA,""
"image-keyboard-response",177,164983,"0.0-4.55-0.55","ebyoxtb4gdvrgk9",226,"199.csv","","231.5","resources/trios/L4T2A2.jpg","37","restless",0.1,0.5,0.8,0.852843145665417,"false"
"image-keyboard-response",178,165385,"0.0-4.55-1.55","ebyoxtb4gdvrgk9",226,"199.csv","","null","resources/maskTrios/L4BB.jpg","null","",NA,NA,NA,NA,""
"image-keyboard-response",179,166586,"0.0-4.55-2.55","ebyoxtb4gdvrgk9",226,"199.csv","","null","resources/images/fishbone.png","null","",NA,NA,NA,NA,""
"image-keyboard-response",180,166868,"0.0-4.56-0.56","ebyoxtb4gdvrgk9",226,"199.csv","","280.8000000715256","resources/trios/L4T2A2.jpg","39","restless",0.1,0.5,0.7,0.847219441132425,"false"
"image-keyboard-response",181,167270,"0.0-4.56-1.56","ebyoxtb4gdvrgk9",226,"199.csv","","null","resources/maskTrios/BBA2.jpg","null","",NA,NA,NA,NA,""
"image-keyboard-response",182,168472,"0.0-4.56-2.56","ebyoxtb4gdvrgk9",226,"199.csv","","null","resources/images/fishbone.png","null","",NA,NA,NA,NA,""
"image-keyboard-response",183,168766,"0.0-4.57-0.57","ebyoxtb4gdvrgk9",226,"199.csv","","295.90000009536743","resources/trios/L4T2A2.jpg","38","restless",0.2,0.5,0.7,0.671748002727307,"false"
"image-keyboard-response",184,169168,"0.0-4.57-1.57","ebyoxtb4gdvrgk9",226,"199.csv","","null","resources/maskTrios/BT2B.jpg","null","",NA,NA,NA,NA,""
"image-keyboard-response",185,170369,"0.0-4.57-2.57","ebyoxtb4gdvrgk9",226,"199.csv","","null","resources/images/fishbone.png","null","",NA,NA,NA,NA,""
"image-keyboard-response",186,173838,"0.0-4.58-0.58","ebyoxtb4gdvrgk9",226,"199.csv","","3467.5","resources/trios/L4T2A2.jpg","39","restless",0.3,0.5,0.7,0.394062760268444,"true"
"image-keyboard-response",187,174240,"0.0-4.58-1.58","ebyoxtb4gdvrgk9",226,"199.csv","","null","resources/maskTrios/BBA2.jpg","null","",NA,NA,NA,NA,""
"image-keyboard-response",188,175443,"0.0-4.58-2.58","ebyoxtb4gdvrgk9",226,"199.csv","","null","resources/images/coin2.png","null","",NA,NA,NA,NA,""
"image-keyboard-response",189,191794,"0.0-4.59-0.59","ebyoxtb4gdvrgk9",226,"199.csv","","16350.200000047684","resources/trios/L4T2A2.jpg","37","restless",0.3,0.5,0.6,0.970005005174171,"false"
"image-keyboard-response",190,192197,"0.0-4.59-1.59","ebyoxtb4gdvrgk9",226,"199.csv","","null","resources/maskTrios/L4BB.jpg","null","",NA,NA,NA,NA,""
"image-keyboard-response",191,193412,"0.0-4.59-2.59","ebyoxtb4gdvrgk9",226,"199.csv","","null","resources/images/fishbone.png","null","",NA,NA,NA,NA,""
"image-keyboard-response",192,193671,"0.0-4.60-0.60","ebyoxtb4gdvrgk9",226,"199.csv","","258.3000000715256","resources/trios/L4T2A2.jpg","38","restless",0.3,0.5,0.6,0.76092344910954,"false"
"image-keyboard-response",193,194074,"0.0-4.60-1.60","ebyoxtb4gdvrgk9",226,"199.csv","","null","resources/maskTrios/BT2B.jpg","null","",NA,NA,NA,NA,""
"image-keyboard-response",194,195276,"0.0-4.60-2.60","ebyoxtb4gdvrgk9",226,"199.csv","","null","resources/images/fishbone.png","null","",NA,NA,NA,NA,""
"image-keyboard-response",195,195576,"0.0-4.61-0.61","ebyoxtb4gdvrgk9",226,"199.csv","","299.2000000476837","resources/trios/L4T2A2.jpg","39","restless",0.3,0.5,0.6,0.00365139174870577,"true"
"image-keyboard-response",196,195979,"0.0-4.61-1.61","ebyoxtb4gdvrgk9",226,"199.csv","","null","resources/maskTrios/BBA2.jpg","null","",NA,NA,NA,NA,""
"image-keyboard-response",197,197181,"0.0-4.61-2.61","ebyoxtb4gdvrgk9",226,"199.csv","","null","resources/images/coin2.png","null","",NA,NA,NA,NA,""
"image-keyboard-response",198,197405,"0.0-4.62-0.62","ebyoxtb4gdvrgk9",226,"199.csv","","223.29999995231628","resources/trios/L4T2A2.jpg","38","restless",0.3,0.4,0.5,0.0174476243751061,"true"
"image-keyboard-response",199,197807,"0.0-4.62-1.62","ebyoxtb4gdvrgk9",226,"199.csv","","null","resources/maskTrios/BT2B.jpg","null","",NA,NA,NA,NA,""
"image-keyboard-response",200,199009,"0.0-4.62-2.62","ebyoxtb4gdvrgk9",226,"199.csv","","null","resources/images/coin2.png","null","",NA,NA,NA,NA,""
"image-keyboard-response",201,199109,"0.0-4.63-0.63","ebyoxtb4gdvrgk9",226,"199.csv","","98.29999995231628","resources/trios/L4T2A2.jpg","39","restless",0.3,0.3,0.5,0.0737651878274903,"true"
"image-keyboard-response",202,199511,"0.0-4.63-1.63","ebyoxtb4gdvrgk9",226,"199.csv","","null","resources/maskTrios/BBA2.jpg","null","",NA,NA,NA,NA,""
"image-keyboard-response",203,200713,"0.0-4.63-2.63","ebyoxtb4gdvrgk9",226,"199.csv","","null","resources/images/coin2.png","null","",NA,NA,NA,NA,""
"image-keyboard-response",204,200951,"0.0-4.64-0.64","ebyoxtb4gdvrgk9",226,"199.csv","","236.19999992847443","resources/trios/L4T2A2.jpg","38","restless",0.3,0.3,0.4,0.234380130376685,"true"
"image-keyboard-response",205,201353,"0.0-4.64-1.64","ebyoxtb4gdvrgk9",226,"199.csv","","null","resources/maskTrios/BT2B.jpg","null","",NA,NA,NA,NA,""
"image-keyboard-response",206,202556,"0.0-4.64-2.64","ebyoxtb4gdvrgk9",226,"199.csv","","null","resources/images/coin2.png","null","",NA,NA,NA,NA,""
"image-keyboard-response",207,202817,"0.0-4.65-0.65","ebyoxtb4gdvrgk9",226,"199.csv","","259.6999999284744","resources/trios/L4T2A2.jpg","39","restless",0.3,0.3,0.4,0.781026884173508,"false"
"image-keyboard-response",208,203219,"0.0-4.65-1.65","ebyoxtb4gdvrgk9",226,"199.csv","","null","resources/maskTrios/BBA2.jpg","null","",NA,NA,NA,NA,""
"image-keyboard-response",209,204421,"0.0-4.65-2.65","ebyoxtb4gdvrgk9",226,"199.csv","","null","resources/images/fishbone.png","null","",NA,NA,NA,NA,""
"image-keyboard-response",210,204732,"0.0-4.66-0.66","ebyoxtb4gdvrgk9",226,"199.csv","","310.60000002384186","resources/trios/L4T2A2.jpg","38","restless",0.2,0.3,0.3,0.0456788107611437,"true"
"image-keyboard-response",211,205135,"0.0-4.66-1.66","ebyoxtb4gdvrgk9",226,"199.csv","","null","resources/maskTrios/BT2B.jpg","null","",NA,NA,NA,NA,""
"image-keyboard-response",212,206337,"0.0-4.66-2.66","ebyoxtb4gdvrgk9",226,"199.csv","","null","resources/images/coin2.png","null","",NA,NA,NA,NA,""
"image-keyboard-response",213,206357,"0.0-4.67-0.67","ebyoxtb4gdvrgk9",226,"199.csv","","19.199999928474426","resources/trios/L4T2A2.jpg","37","restless",0.2,0.3,0.3,0.102915717810562,"true"
"image-keyboard-response",214,206760,"0.0-4.67-1.67","ebyoxtb4gdvrgk9",226,"199.csv","","null","resources/maskTrios/L4BB.jpg","null","",NA,NA,NA,NA,""
"image-keyboard-response",215,207962,"0.0-4.67-2.67","ebyoxtb4gdvrgk9",226,"199.csv","","null","resources/images/coin2.png","null","",NA,NA,NA,NA,""
"image-keyboard-response",216,208462,"0.0-4.68-0.68","ebyoxtb4gdvrgk9",226,"199.csv","","498.6999999284744","resources/trios/L4T2A2.jpg","38","restless",0.2,0.4,0.3,0.20207722324956,"true"
"image-keyboard-response",217,208864,"0.0-4.68-1.68","ebyoxtb4gdvrgk9",226,"199.csv","","null","resources/maskTrios/BT2B.jpg","null","",NA,NA,NA,NA,""
"image-keyboard-response",218,210072,"0.0-4.68-2.68","ebyoxtb4gdvrgk9",226,"199.csv","","null","resources/images/coin2.png","null","",NA,NA,NA,NA,""
"image-keyboard-response",219,210334,"0.0-4.69-0.69","ebyoxtb4gdvrgk9",226,"199.csv","","261","resources/trios/L4T2A2.jpg","37","restless",0.2,0.4,0.3,0.498263796746817,"false"
"image-keyboard-response",220,210736,"0.0-4.69-1.69","ebyoxtb4gdvrgk9",226,"199.csv","","null","resources/maskTrios/L4BB.jpg","null","",NA,NA,NA,NA,""
"image-keyboard-response",221,211947,"0.0-4.69-2.69","ebyoxtb4gdvrgk9",226,"199.csv","","null","resources/images/fishbone.png","null","",NA,NA,NA,NA,""
"image-keyboard-response",222,212054,"0.0-4.70-0.70","ebyoxtb4gdvrgk9",226,"199.csv","","105.30000007152557","resources/trios/L4T2A2.jpg","39","restless",0.2,0.4,0.2,0.835800668333135,"false"
"image-keyboard-response",223,212455,"0.0-4.70-1.70","ebyoxtb4gdvrgk9",226,"199.csv","","null","resources/maskTrios/BBA2.jpg","null","",NA,NA,NA,NA,""
"image-keyboard-response",224,213658,"0.0-4.70-2.70","ebyoxtb4gdvrgk9",226,"199.csv","","null","resources/images/fishbone.png","null","",NA,NA,NA,NA,""
"image-keyboard-response",225,213909,"0.0-4.71-0.71","ebyoxtb4gdvrgk9",226,"199.csv","","248.79999995231628","resources/trios/L4T2A2.jpg","38","restless",0.2,0.4,0.2,0.587738886195374,"false"
"image-keyboard-response",226,214311,"0.0-4.71-1.71","ebyoxtb4gdvrgk9",226,"199.csv","","null","resources/maskTrios/BT2B.jpg","null","",NA,NA,NA,NA,""
"image-keyboard-response",227,215514,"0.0-4.71-2.71","ebyoxtb4gdvrgk9",226,"199.csv","","null","resources/images/fishbone.png","null","",NA,NA,NA,NA,""
"image-keyboard-response",228,215616,"0.0-4.72-0.72","ebyoxtb4gdvrgk9",226,"199.csv","","101.29999995231628","resources/trios/L4T2A2.jpg","37","restless",0.2,0.4,0.2,0.276735598771693,"false"
"image-keyboard-response",229,216019,"0.0-4.72-1.72","ebyoxtb4gdvrgk9",226,"199.csv","","null","resources/maskTrios/L4BB.jpg","null","",NA,NA,NA,NA,""
"image-keyboard-response",230,217222,"0.0-4.72-2.72","ebyoxtb4gdvrgk9",226,"199.csv","","null","resources/images/fishbone.png","null","",NA,NA,NA,NA,""
"image-keyboard-response",231,218284,"0.0-4.73-0.73","ebyoxtb4gdvrgk9",226,"199.csv","","1060","resources/trios/L4T2A2.jpg","37","restless",0.2,0.4,0.2,0.0417137406399564,"true"
"image-keyboard-response",232,218685,"0.0-4.73-1.73","ebyoxtb4gdvrgk9",226,"199.csv","","null","resources/maskTrios/L4BB.jpg","null","",NA,NA,NA,NA,""
"image-keyboard-response",233,219888,"0.0-4.73-2.73","ebyoxtb4gdvrgk9",226,"199.csv","","null","resources/images/coin2.png","null","",NA,NA,NA,NA,""
"image-keyboard-response",234,220306,"0.0-4.74-0.74","ebyoxtb4gdvrgk9",226,"199.csv","","417","resources/trios/L4T2A2.jpg","37","restless",0.2,0.4,0.2,0.728076978684754,"false"
"image-keyboard-response",235,220709,"0.0-4.74-1.74","ebyoxtb4gdvrgk9",226,"199.csv","","null","resources/maskTrios/L4BB.jpg","null","",NA,NA,NA,NA,""
"image-keyboard-response",236,221910,"0.0-4.74-2.74","ebyoxtb4gdvrgk9",226,"199.csv","","null","resources/images/fishbone.png","null","",NA,NA,NA,NA,""
"image-keyboard-response",237,222489,"0.0-4.75-0.75","ebyoxtb4gdvrgk9",226,"199.csv","","578.1999999284744","resources/trios/L4T2A2.jpg","38","restless",0.2,0.4,0.2,0.720089914299139,"false"
"image-keyboard-response",238,222891,"0.0-4.75-1.75","ebyoxtb4gdvrgk9",226,"199.csv","","null","resources/maskTrios/BT2B.jpg","null","",NA,NA,NA,NA,""
"image-keyboard-response",239,224093,"0.0-4.75-2.75","ebyoxtb4gdvrgk9",226,"199.csv","","null","resources/images/fishbone.png","null","",NA,NA,NA,NA,""
"image-keyboard-response",240,224313,"0.0-4.76-0.76","ebyoxtb4gdvrgk9",226,"199.csv","","219","resources/trios/L4T2A2.jpg","38","restless",0.2,0.4,0.2,0.545718010206893,"false"
"image-keyboard-response",241,224715,"0.0-4.76-1.76","ebyoxtb4gdvrgk9",226,"199.csv","","null","resources/maskTrios/BT2B.jpg","null","",NA,NA,NA,NA,""
"image-keyboard-response",242,225917,"0.0-4.76-2.76","ebyoxtb4gdvrgk9",226,"199.csv","","null","resources/images/fishbone.png","null","",NA,NA,NA,NA,""
"image-keyboard-response",243,226760,"0.0-4.77-0.77","ebyoxtb4gdvrgk9",226,"199.csv","","842.5","resources/trios/L4T2A2.jpg","39","restless",0.2,0.4,0.2,0.742563229934723,"false"
"image-keyboard-response",244,227162,"0.0-4.77-1.77","ebyoxtb4gdvrgk9",226,"199.csv","","null","resources/maskTrios/BBA2.jpg","null","",NA,NA,NA,NA,""
"image-keyboard-response",245,228365,"0.0-4.77-2.77","ebyoxtb4gdvrgk9",226,"199.csv","","null","resources/images/fishbone.png","null","",NA,NA,NA,NA,""
"image-keyboard-response",246,232636,"0.0-4.78-0.78","ebyoxtb4gdvrgk9",226,"199.csv","","4274","resources/trios/L4T2A2.jpg","38","restless",0.2,0.4,0.2,0.906342603027469,"false"
"image-keyboard-response",247,233039,"0.0-4.78-1.78","ebyoxtb4gdvrgk9",226,"199.csv","","null","resources/maskTrios/BT2B.jpg","null","",NA,NA,NA,NA,""
"image-keyboard-response",248,234240,"0.0-4.78-2.78","ebyoxtb4gdvrgk9",226,"199.csv","","null","resources/images/fishbone.png","null","",NA,NA,NA,NA,""
"image-keyboard-response",249,234518,"0.0-4.79-0.79","ebyoxtb4gdvrgk9",226,"199.csv","","276.6999999284744","resources/trios/L4T2A2.jpg","39","restless",0.2,0.4,0.3,0.367074510242452,"false"
"image-keyboard-response",250,234919,"0.0-4.79-1.79","ebyoxtb4gdvrgk9",226,"199.csv","","null","resources/maskTrios/BBA2.jpg","null","",NA,NA,NA,NA,""
"image-keyboard-response",251,236121,"0.0-4.79-2.79","ebyoxtb4gdvrgk9",226,"199.csv","","null","resources/images/fishbone.png","null","",NA,NA,NA,NA,""
"image-keyboard-response",252,236402,"0.0-4.80-0.80","ebyoxtb4gdvrgk9",226,"199.csv","","280.39999997615814","resources/trios/L4T2A2.jpg","37","restless",0.2,0.3,0.3,0.419805245607279,"false"
"image-keyboard-response",253,236805,"0.0-4.80-1.80","ebyoxtb4gdvrgk9",226,"199.csv","","null","resources/maskTrios/L4BB.jpg","null","",NA,NA,NA,NA,""
"image-keyboard-response",254,238006,"0.0-4.80-2.80","ebyoxtb4gdvrgk9",226,"199.csv","","null","resources/images/fishbone.png","null","",NA,NA,NA,NA,""
"image-keyboard-response",255,238255,"0.0-4.81-0.81","ebyoxtb4gdvrgk9",226,"199.csv","","247.19999992847443","resources/trios/L4T2A2.jpg","38","restless",0.2,0.3,0.3,0.0631732772442859,"true"
"image-keyboard-response",256,238658,"0.0-4.81-1.81","ebyoxtb4gdvrgk9",226,"199.csv","","null","resources/maskTrios/BT2B.jpg","null","",NA,NA,NA,NA,""
"image-keyboard-response",257,239860,"0.0-4.81-2.81","ebyoxtb4gdvrgk9",226,"199.csv","","null","resources/images/coin2.png","null","",NA,NA,NA,NA,""
"image-keyboard-response",258,240045,"0.0-4.82-0.82","ebyoxtb4gdvrgk9",226,"199.csv","","184","resources/trios/L4T2A2.jpg","39","restless",0.2,0.3,0.3,0.832794239498045,"false"
"image-keyboard-response",259,240447,"0.0-4.82-1.82","ebyoxtb4gdvrgk9",226,"199.csv","","null","resources/maskTrios/BBA2.jpg","null","",NA,NA,NA,NA,""
"image-keyboard-response",260,241647,"0.0-4.82-2.82","ebyoxtb4gdvrgk9",226,"199.csv","","null","resources/images/fishbone.png","null","",NA,NA,NA,NA,""
"image-keyboard-response",261,241962,"0.0-4.83-0.83","ebyoxtb4gdvrgk9",226,"199.csv","","313.5","resources/trios/L4T2A2.jpg","38","restless",0.2,0.3,0.3,0.50129908335065,"false"
"image-keyboard-response",262,242363,"0.0-4.83-1.83","ebyoxtb4gdvrgk9",226,"199.csv","","null","resources/maskTrios/BT2B.jpg","null","",NA,NA,NA,NA,""
"image-keyboard-response",263,243566,"0.0-4.83-2.83","ebyoxtb4gdvrgk9",226,"199.csv","","null","resources/images/fishbone.png","null","",NA,NA,NA,NA,""
"image-keyboard-response",264,243797,"0.0-4.84-0.84","ebyoxtb4gdvrgk9",226,"199.csv","","229.59999990463257","resources/trios/L4T2A2.jpg","37","restless",0.2,0.2,0.3,0.805976844306251,"false"
"image-keyboard-response",265,244199,"0.0-4.84-1.84","ebyoxtb4gdvrgk9",226,"199.csv","","null","resources/maskTrios/L4BB.jpg","null","",NA,NA,NA,NA,""
"image-keyboard-response",266,245401,"0.0-4.84-2.84","ebyoxtb4gdvrgk9",226,"199.csv","","null","resources/images/fishbone.png","null","",NA,NA,NA,NA,""
"image-keyboard-response",267,246919,"0.0-4.85-0.85","ebyoxtb4gdvrgk9",226,"199.csv","","1516.6000000238419","resources/trios/L4T2A2.jpg","38","restless",0.2,0.3,0.3,0.649160157323173,"false"
"image-keyboard-response",268,247321,"0.0-4.85-1.85","ebyoxtb4gdvrgk9",226,"199.csv","","null","resources/maskTrios/BT2B.jpg","null","",NA,NA,NA,NA,""
"image-keyboard-response",269,248526,"0.0-4.85-2.85","ebyoxtb4gdvrgk9",226,"199.csv","","null","resources/images/fishbone.png","null","",NA,NA,NA,NA,""
"image-keyboard-response",270,251074,"0.0-4.86-0.86","ebyoxtb4gdvrgk9",226,"199.csv","","2546.100000023842","resources/trios/L4T2A2.jpg","39","restless",0.2,0.3,0.3,0.309614790210249,"false"
"image-keyboard-response",271,251475,"0.0-4.86-1.86","ebyoxtb4gdvrgk9",226,"199.csv","","null","resources/maskTrios/BBA2.jpg","null","",NA,NA,NA,NA,""
"image-keyboard-response",272,252677,"0.0-4.86-2.86","ebyoxtb4gdvrgk9",226,"199.csv","","null","resources/images/fishbone.png","null","",NA,NA,NA,NA,""
"image-keyboard-response",273,252899,"0.0-4.87-0.87","ebyoxtb4gdvrgk9",226,"199.csv","","221.10000002384186","resources/trios/L4T2A2.jpg","38","restless",0.2,0.3,0.3,0.592626268642673,"false"
"image-keyboard-response",274,253302,"0.0-4.87-1.87","ebyoxtb4gdvrgk9",226,"199.csv","","null","resources/maskTrios/BT2B.jpg","null","",NA,NA,NA,NA,""
"image-keyboard-response",275,254504,"0.0-4.87-2.87","ebyoxtb4gdvrgk9",226,"199.csv","","null","resources/images/fishbone.png","null","",NA,NA,NA,NA,""
"image-keyboard-response",276,254781,"0.0-4.88-0.88","ebyoxtb4gdvrgk9",226,"199.csv","","276.2000000476837","resources/trios/L4T2A2.jpg","37","restless",0.2,0.3,0.4,0.904038409517065,"false"
"image-keyboard-response",277,255182,"0.0-4.88-1.88","ebyoxtb4gdvrgk9",226,"199.csv","","null","resources/maskTrios/L4BB.jpg","null","",NA,NA,NA,NA,""
"image-keyboard-response",278,256384,"0.0-4.88-2.88","ebyoxtb4gdvrgk9",226,"199.csv","","null","resources/images/fishbone.png","null","",NA,NA,NA,NA,""
"image-keyboard-response",279,257234,"0.0-4.89-0.89","ebyoxtb4gdvrgk9",226,"199.csv","","848.1999999284744","resources/trios/L4T2A2.jpg","37","restless",0.2,0.3,0.5,0.781936764178995,"false"
"image-keyboard-response",280,257636,"0.0-4.89-1.89","ebyoxtb4gdvrgk9",226,"199.csv","","null","resources/maskTrios/L4BB.jpg","null","",NA,NA,NA,NA,""
"image-keyboard-response",281,258837,"0.0-4.89-2.89","ebyoxtb4gdvrgk9",226,"199.csv","","null","resources/images/fishbone.png","null","",NA,NA,NA,NA,""
"image-keyboard-response",282,259147,"0.0-4.90-0.90","ebyoxtb4gdvrgk9",226,"199.csv","","309.2000000476837","resources/trios/L4T2A2.jpg","38","restless",0.2,0.3,0.5,0.826600222296934,"false"
"image-keyboard-response",283,259550,"0.0-4.90-1.90","ebyoxtb4gdvrgk9",226,"199.csv","","null","resources/maskTrios/BT2B.jpg","null","",NA,NA,NA,NA,""
"image-keyboard-response",284,260752,"0.0-4.90-2.90","ebyoxtb4gdvrgk9",226,"199.csv","","null","resources/images/fishbone.png","null","",NA,NA,NA,NA,""
"image-keyboard-response",285,260830,"0.0-4.91-0.91","ebyoxtb4gdvrgk9",226,"199.csv","","76.80000007152557","resources/trios/L4T2A2.jpg","39","restless",0.3,0.3,0.5,0.198037725482504,"true"
"image-keyboard-response",286,261231,"0.0-4.91-1.91","ebyoxtb4gdvrgk9",226,"199.csv","","null","resources/maskTrios/BBA2.jpg","null","",NA,NA,NA,NA,""
"image-keyboard-response",287,262434,"0.0-4.91-2.91","ebyoxtb4gdvrgk9",226,"199.csv","","null","resources/images/coin2.png","null","",NA,NA,NA,NA,""
"image-keyboard-response",288,262660,"0.0-4.92-0.92","ebyoxtb4gdvrgk9",226,"199.csv","","224.5","resources/trios/L4T2A2.jpg","37","restless",0.3,0.3,0.5,0.828297897711591,"false"
"image-keyboard-response",289,263062,"0.0-4.92-1.92","ebyoxtb4gdvrgk9",226,"199.csv","","null","resources/maskTrios/L4BB.jpg","null","",NA,NA,NA,NA,""
"image-keyboard-response",290,264264,"0.0-4.92-2.92","ebyoxtb4gdvrgk9",226,"199.csv","","null","resources/images/fishbone.png","null","",NA,NA,NA,NA,""
"image-keyboard-response",291,264459,"0.0-4.93-0.93","ebyoxtb4gdvrgk9",226,"199.csv","","193.30000007152557","resources/trios/L4T2A2.jpg","38","restless",0.3,0.3,0.5,0.407868773969755,"false"
"image-keyboard-response",292,264861,"0.0-4.93-1.93","ebyoxtb4gdvrgk9",226,"199.csv","","null","resources/maskTrios/BT2B.jpg","null","",NA,NA,NA,NA,""
"image-keyboard-response",293,266063,"0.0-4.93-2.93","ebyoxtb4gdvrgk9",226,"199.csv","","null","resources/images/fishbone.png","null","",NA,NA,NA,NA,""
"image-keyboard-response",294,266315,"0.0-4.94-0.94","ebyoxtb4gdvrgk9",226,"199.csv","","250.70000004768372","resources/trios/L4T2A2.jpg","39","restless",0.3,0.3,0.5,0.731285917353285,"false"
"image-keyboard-response",295,266717,"0.0-4.94-1.94","ebyoxtb4gdvrgk9",226,"199.csv","","null","resources/maskTrios/BBA2.jpg","null","",NA,NA,NA,NA,""
"image-keyboard-response",296,267919,"0.0-4.94-2.94","ebyoxtb4gdvrgk9",226,"199.csv","","null","resources/images/fishbone.png","null","",NA,NA,NA,NA,""
"image-keyboard-response",297,268150,"0.0-4.95-0.95","ebyoxtb4gdvrgk9",226,"199.csv","","229.39999997615814","resources/trios/L4T2A2.jpg","37","restless",0.3,0.3,0.5,0.480703319737682,"false"
"image-keyboard-response",298,268552,"0.0-4.95-1.95","ebyoxtb4gdvrgk9",226,"199.csv","","null","resources/maskTrios/L4BB.jpg","null","",NA,NA,NA,NA,""
"image-keyboard-response",299,269755,"0.0-4.95-2.95","ebyoxtb4gdvrgk9",226,"199.csv","","null","resources/images/fishbone.png","null","",NA,NA,NA,NA,""
"image-keyboard-response",300,269984,"0.0-4.96-0.96","ebyoxtb4gdvrgk9",226,"199.csv","","227.40000009536743","resources/trios/L4T2A2.jpg","38","restless",0.3,0.4,0.5,0.787430682433167,"false"
"image-keyboard-response",301,270387,"0.0-4.96-1.96","ebyoxtb4gdvrgk9",226,"199.csv","","null","resources/maskTrios/BT2B.jpg","null","",NA,NA,NA,NA,""
"image-keyboard-response",302,271588,"0.0-4.96-2.96","ebyoxtb4gdvrgk9",226,"199.csv","","null","resources/images/fishbone.png","null","",NA,NA,NA,NA,""
"image-keyboard-response",303,271976,"0.0-4.97-0.97","ebyoxtb4gdvrgk9",226,"199.csv","","387.5","resources/trios/L4T2A2.jpg","39","restless",0.3,0.4,0.5,0.0808323511175162,"true"
"image-keyboard-response",304,272379,"0.0-4.97-1.97","ebyoxtb4gdvrgk9",226,"199.csv","","null","resources/maskTrios/BBA2.jpg","null","",NA,NA,NA,NA,""
"image-keyboard-response",305,273581,"0.0-4.97-2.97","ebyoxtb4gdvrgk9",226,"199.csv","","null","resources/images/coin2.png","null","",NA,NA,NA,NA,""
"image-keyboard-response",306,273779,"0.0-4.98-0.98","ebyoxtb4gdvrgk9",226,"199.csv","","197.70000004768372","resources/trios/L4T2A2.jpg","38","restless",0.3,0.4,0.5,0.148258657672988,"true"
"image-keyboard-response",307,274182,"0.0-4.98-1.98","ebyoxtb4gdvrgk9",226,"199.csv","","null","resources/maskTrios/BT2B.jpg","null","",NA,NA,NA,NA,""
"image-keyboard-response",308,275388,"0.0-4.98-2.98","ebyoxtb4gdvrgk9",226,"199.csv","","null","resources/images/coin2.png","null","",NA,NA,NA,NA,""
"image-keyboard-response",309,275477,"0.0-4.99-0.99","ebyoxtb4gdvrgk9",226,"199.csv","","87.60000002384186","resources/trios/L4T2A2.jpg","39","restless",0.4,0.4,0.5,0.204963593781764,"true"
"image-keyboard-response",310,275878,"0.0-4.99-1.99","ebyoxtb4gdvrgk9",226,"199.csv","","null","resources/maskTrios/BBA2.jpg","null","",NA,NA,NA,NA,""
"image-keyboard-response",311,277080,"0.0-4.99-2.99","ebyoxtb4gdvrgk9",226,"199.csv","","null","resources/images/coin2.png","null","",NA,NA,NA,NA,""
"image-keyboard-response",312,277127,"0.0-4.100-0.100","ebyoxtb4gdvrgk9",226,"199.csv","","46","resources/trios/L4T2A2.jpg","38","restless",0.4,0.5,0.5,0.396013397736143,"true"
"image-keyboard-response",313,277530,"0.0-4.100-1.100","ebyoxtb4gdvrgk9",226,"199.csv","","null","resources/maskTrios/BT2B.jpg","null","",NA,NA,NA,NA,""
"image-keyboard-response",314,278731,"0.0-4.100-2.100","ebyoxtb4gdvrgk9",226,"199.csv","","null","resources/images/coin2.png","null","",NA,NA,NA,NA,""
"image-keyboard-response",315,279544,"0.0-4.101-0.101","ebyoxtb4gdvrgk9",226,"199.csv","","811","resources/trios/L4T2A2.jpg","38","restless",0.4,0.4,0.5,0.786120986248378,"false"
"image-keyboard-response",316,279946,"0.0-4.101-1.101","ebyoxtb4gdvrgk9",226,"199.csv","","null","resources/maskTrios/BT2B.jpg","null","",NA,NA,NA,NA,""
"image-keyboard-response",317,281152,"0.0-4.101-2.101","ebyoxtb4gdvrgk9",226,"199.csv","","null","resources/images/fishbone.png","null","",NA,NA,NA,NA,""
"image-keyboard-response",318,281459,"0.0-4.102-0.102","ebyoxtb4gdvrgk9",226,"199.csv","","305.2000000476837","resources/trios/L4T2A2.jpg","37","restless",0.4,0.4,0.5,0.609074017683264,"false"
"image-keyboard-response",319,281861,"0.0-4.102-1.102","ebyoxtb4gdvrgk9",226,"199.csv","","null","resources/maskTrios/L4BB.jpg","null","",NA,NA,NA,NA,""
"image-keyboard-response",320,283063,"0.0-4.102-2.102","ebyoxtb4gdvrgk9",226,"199.csv","","null","resources/images/fishbone.png","null","",NA,NA,NA,NA,""
"image-keyboard-response",321,283359,"0.0-4.103-0.103","ebyoxtb4gdvrgk9",226,"199.csv","","294.40000009536743","resources/trios/L4T2A2.jpg","39","restless",0.4,0.4,0.5,0.592200202565777,"false"
"image-keyboard-response",322,283761,"0.0-4.103-1.103","ebyoxtb4gdvrgk9",226,"199.csv","","null","resources/maskTrios/BBA2.jpg","null","",NA,NA,NA,NA,""
"image-keyboard-response",323,284964,"0.0-4.103-2.103","ebyoxtb4gdvrgk9",226,"199.csv","","null","resources/images/fishbone.png","null","",NA,NA,NA,NA,""
"image-keyboard-response",324,285223,"0.0-4.104-0.104","ebyoxtb4gdvrgk9",226,"199.csv","","258.5","resources/trios/L4T2A2.jpg","38","restless",0.4,0.4,0.5,0.900198568412918,"false"
"image-keyboard-response",325,285624,"0.0-4.104-1.104","ebyoxtb4gdvrgk9",226,"199.csv","","null","resources/maskTrios/BT2B.jpg","null","",NA,NA,NA,NA,""
"image-keyboard-response",326,286825,"0.0-4.104-2.104","ebyoxtb4gdvrgk9",226,"199.csv","","null","resources/images/fishbone.png","null","",NA,NA,NA,NA,""
"image-keyboard-response",327,287066,"0.0-4.105-0.105","ebyoxtb4gdvrgk9",226,"199.csv","","239","resources/trios/L4T2A2.jpg","37","restless",0.4,0.4,0.5,0.762557184570984,"false"
"image-keyboard-response",328,287468,"0.0-4.105-1.105","ebyoxtb4gdvrgk9",226,"199.csv","","null","resources/maskTrios/L4BB.jpg","null","",NA,NA,NA,NA,""
"image-keyboard-response",329,288671,"0.0-4.105-2.105","ebyoxtb4gdvrgk9",226,"199.csv","","null","resources/images/fishbone.png","null","",NA,NA,NA,NA,""
"image-keyboard-response",330,290647,"0.0-4.106-0.106","ebyoxtb4gdvrgk9",226,"199.csv","","1974.8999999761581","resources/trios/L4T2A2.jpg","39","restless",0.5,0.4,0.5,0.20188074004207,"true"
"image-keyboard-response",331,291061,"0.0-4.106-1.106","ebyoxtb4gdvrgk9",226,"199.csv","","null","resources/maskTrios/BBA2.jpg","null","",NA,NA,NA,NA,""
"image-keyboard-response",332,292263,"0.0-4.106-2.106","ebyoxtb4gdvrgk9",226,"199.csv","","null","resources/images/coin2.png","null","",NA,NA,NA,NA,""
"image-keyboard-response",333,294327,"0.0-4.107-0.107","ebyoxtb4gdvrgk9",226,"199.csv","","2066.6999999284744","resources/trios/L4T2A2.jpg","39","restless",0.6,0.4,0.5,0.210253402163111,"true"
"image-keyboard-response",334,294729,"0.0-4.107-1.107","ebyoxtb4gdvrgk9",226,"199.csv","","null","resources/maskTrios/BBA2.jpg","null","",NA,NA,NA,NA,""
"image-keyboard-response",335,295931,"0.0-4.107-2.107","ebyoxtb4gdvrgk9",226,"199.csv","","null","resources/images/coin2.png","null","",NA,NA,NA,NA,""
"image-keyboard-response",336,296217,"0.0-4.108-0.108","ebyoxtb4gdvrgk9",226,"199.csv","","285.10000002384186","resources/trios/L4T2A2.jpg","38","restless",0.6,0.4,0.5,0.538208689117343,"false"
"image-keyboard-response",337,296620,"0.0-4.108-1.108","ebyoxtb4gdvrgk9",226,"199.csv","","null","resources/maskTrios/BT2B.jpg","null","",NA,NA,NA,NA,""
"image-keyboard-response",338,297822,"0.0-4.108-2.108","ebyoxtb4gdvrgk9",226,"199.csv","","null","resources/images/fishbone.png","null","",NA,NA,NA,NA,""
"image-keyboard-response",339,298083,"0.0-4.109-0.109","ebyoxtb4gdvrgk9",226,"199.csv","","259.2999999523163","resources/trios/L4T2A2.jpg","39","restless",0.6,0.4,0.5,0.37373654567779,"true"
"image-keyboard-response",340,298485,"0.0-4.109-1.109","ebyoxtb4gdvrgk9",226,"199.csv","","null","resources/maskTrios/BBA2.jpg","null","",NA,NA,NA,NA,""
"image-keyboard-response",341,299703,"0.0-4.109-2.109","ebyoxtb4gdvrgk9",226,"199.csv","","null","resources/images/coin2.png","null","",NA,NA,NA,NA,""
"image-keyboard-response",342,300064,"0.0-4.110-0.110","ebyoxtb4gdvrgk9",226,"199.csv","","360","resources/trios/L4T2A2.jpg","37","restless",0.6,0.4,0.5,0.0763200079350734,"true"
"image-keyboard-response",343,300466,"0.0-4.110-1.110","ebyoxtb4gdvrgk9",226,"199.csv","","null","resources/maskTrios/L4BB.jpg","null","",NA,NA,NA,NA,""
"image-keyboard-response",344,301679,"0.0-4.110-2.110","ebyoxtb4gdvrgk9",226,"199.csv","","null","resources/images/coin2.png","null","",NA,NA,NA,NA,""
"image-keyboard-response",345,302005,"0.0-4.111-0.111","ebyoxtb4gdvrgk9",226,"199.csv","","324.7000000476837","resources/trios/L4T2A2.jpg","38","restless",0.6,0.4,0.5,0.772006624073678,"false"
"image-keyboard-response",346,302408,"0.0-4.111-1.111","ebyoxtb4gdvrgk9",226,"199.csv","","null","resources/maskTrios/BT2B.jpg","null","",NA,NA,NA,NA,""
"image-keyboard-response",347,303609,"0.0-4.111-2.111","ebyoxtb4gdvrgk9",226,"199.csv","","null","resources/images/fishbone.png","null","",NA,NA,NA,NA,""
"image-keyboard-response",348,303822,"0.0-4.112-0.112","ebyoxtb4gdvrgk9",226,"199.csv","","212","resources/trios/L4T2A2.jpg","37","restless",0.6,0.4,0.5,0.156571914865911,"true"
"image-keyboard-response",349,304224,"0.0-4.112-1.112","ebyoxtb4gdvrgk9",226,"199.csv","","null","resources/maskTrios/L4BB.jpg","null","",NA,NA,NA,NA,""
"image-keyboard-response",350,305425,"0.0-4.112-2.112","ebyoxtb4gdvrgk9",226,"199.csv","","null","resources/images/coin2.png","null","",NA,NA,NA,NA,""
"image-keyboard-response",351,305667,"0.0-4.113-0.113","ebyoxtb4gdvrgk9",226,"199.csv","","241.19999992847443","resources/trios/L4T2A2.jpg","37","restless",0.6,0.4,0.5,0.463573362757973,"true"
"image-keyboard-response",352,306070,"0.0-4.113-1.113","ebyoxtb4gdvrgk9",226,"199.csv","","null","resources/maskTrios/L4BB.jpg","null","",NA,NA,NA,NA,""
"image-keyboard-response",353,307286,"0.0-4.113-2.113","ebyoxtb4gdvrgk9",226,"199.csv","","null","resources/images/coin2.png","null","",NA,NA,NA,NA,""
"image-keyboard-response",354,307523,"0.0-4.114-0.114","ebyoxtb4gdvrgk9",226,"199.csv","","235","resources/trios/L4T2A2.jpg","37","restless",0.6,0.4,0.5,0.540512678393126,"true"
"image-keyboard-response",355,307924,"0.0-4.114-1.114","ebyoxtb4gdvrgk9",226,"199.csv","","null","resources/maskTrios/L4BB.jpg","null","",NA,NA,NA,NA,""
"image-keyboard-response",356,309126,"0.0-4.114-2.114","ebyoxtb4gdvrgk9",226,"199.csv","","null","resources/images/coin2.png","null","",NA,NA,NA,NA,""
"image-keyboard-response",357,309448,"0.0-4.115-0.115","ebyoxtb4gdvrgk9",226,"199.csv","","321.10000002384186","resources/trios/L4T2A2.jpg","37","restless",0.6,0.4,0.5,0.979866989625121,"false"
"image-keyboard-response",358,309850,"0.0-4.115-1.115","ebyoxtb4gdvrgk9",226,"199.csv","","null","resources/maskTrios/L4BB.jpg","null","",NA,NA,NA,NA,""
"image-keyboard-response",359,311051,"0.0-4.115-2.115","ebyoxtb4gdvrgk9",226,"199.csv","","null","resources/images/fishbone.png","null","",NA,NA,NA,NA,""
"image-keyboard-response",360,311175,"0.0-4.116-0.116","ebyoxtb4gdvrgk9",226,"199.csv","","122","resources/trios/L4T2A2.jpg","39","restless",0.6,0.4,0.5,0.26161161064926,"true"
"image-keyboard-response",361,311578,"0.0-4.116-1.116","ebyoxtb4gdvrgk9",226,"199.csv","","null","resources/maskTrios/BBA2.jpg","null","",NA,NA,NA,NA,""
"image-keyboard-response",362,312779,"0.0-4.116-2.116","ebyoxtb4gdvrgk9",226,"199.csv","","null","resources/images/coin2.png","null","",NA,NA,NA,NA,""
"image-keyboard-response",363,313085,"0.0-4.117-0.117","ebyoxtb4gdvrgk9",226,"199.csv","","304.59999990463257","resources/trios/L4T2A2.jpg","39","restless",0.6,0.4,0.5,0.26043207249701,"true"
"image-keyboard-response",364,313487,"0.0-4.117-1.117","ebyoxtb4gdvrgk9",226,"199.csv","","null","resources/maskTrios/BBA2.jpg","null","",NA,NA,NA,NA,""
"image-keyboard-response",365,314689,"0.0-4.117-2.117","ebyoxtb4gdvrgk9",226,"199.csv","","null","resources/images/coin2.png","null","",NA,NA,NA,NA,""
"image-keyboard-response",366,314998,"0.0-4.118-0.118","ebyoxtb4gdvrgk9",226,"199.csv","","307.1999999284744","resources/trios/L4T2A2.jpg","39","restless",0.7,0.4,0.4,0.124761469210045,"true"
"image-keyboard-response",367,315401,"0.0-4.118-1.118","ebyoxtb4gdvrgk9",226,"199.csv","","null","resources/maskTrios/BBA2.jpg","null","",NA,NA,NA,NA,""
"image-keyboard-response",368,316603,"0.0-4.118-2.118","ebyoxtb4gdvrgk9",226,"199.csv","","null","resources/images/coin2.png","null","",NA,NA,NA,NA,""
"image-keyboard-response",369,316867,"0.0-4.119-0.119","ebyoxtb4gdvrgk9",226,"199.csv","","263.6999999284744","resources/trios/L4T2A2.jpg","39","restless",0.7,0.4,0.4,0.587628864501541,"false"
"image-keyboard-response",370,317269,"0.0-4.119-1.119","ebyoxtb4gdvrgk9",226,"199.csv","","null","resources/maskTrios/BBA2.jpg","null","",NA,NA,NA,NA,""
"image-keyboard-response",371,318470,"0.0-4.119-2.119","ebyoxtb4gdvrgk9",226,"199.csv","","null","resources/images/fishbone.png","null","",NA,NA,NA,NA,""
"image-keyboard-response",372,318756,"0.0-4.120-0.120","ebyoxtb4gdvrgk9",226,"199.csv","","284","resources/trios/L4T2A2.jpg","38","restless",0.7,0.4,0.4,0.206806782737567,"true"
"image-keyboard-response",373,319158,"0.0-4.120-1.120","ebyoxtb4gdvrgk9",226,"199.csv","","null","resources/maskTrios/BT2B.jpg","null","",NA,NA,NA,NA,""
"image-keyboard-response",374,320361,"0.0-4.120-2.120","ebyoxtb4gdvrgk9",226,"199.csv","","null","resources/images/coin2.png","null","",NA,NA,NA,NA,""
"image-keyboard-response",375,320691,"0.0-4.121-0.121","ebyoxtb4gdvrgk9",226,"199.csv","","329.1999999284744","resources/trios/L4T2A2.jpg","38","restless",0.7,0.5,0.4,0.0200124564143533,"true"
"image-keyboard-response",376,321094,"0.0-4.121-1.121","ebyoxtb4gdvrgk9",226,"199.csv","","null","resources/maskTrios/BT2B.jpg","null","",NA,NA,NA,NA,""
"image-keyboard-response",377,322296,"0.0-4.121-2.121","ebyoxtb4gdvrgk9",226,"199.csv","","null","resources/images/coin2.png","null","",NA,NA,NA,NA,""
"image-keyboard-response",378,323331,"0.0-4.122-0.122","ebyoxtb4gdvrgk9",226,"199.csv","","1032.5","resources/trios/L4T2A2.jpg","38","restless",0.6,0.5,0.4,0.610933335818821,"false"
"image-keyboard-response",379,323733,"0.0-4.122-1.122","ebyoxtb4gdvrgk9",226,"199.csv","","null","resources/maskTrios/BT2B.jpg","null","",NA,NA,NA,NA,""
"image-keyboard-response",380,324935,"0.0-4.122-2.122","ebyoxtb4gdvrgk9",226,"199.csv","","null","resources/images/fishbone.png","null","",NA,NA,NA,NA,""
"image-keyboard-response",381,325242,"0.0-4.123-0.123","ebyoxtb4gdvrgk9",226,"199.csv","","305.89999997615814","resources/trios/L4T2A2.jpg","37","restless",0.6,0.5,0.4,0.135750130225577,"true"
"image-keyboard-response",382,325644,"0.0-4.123-1.123","ebyoxtb4gdvrgk9",226,"199.csv","","null","resources/maskTrios/L4BB.jpg","null","",NA,NA,NA,NA,""
"image-keyboard-response",383,326846,"0.0-4.123-2.123","ebyoxtb4gdvrgk9",226,"199.csv","","null","resources/images/coin2.png","null","",NA,NA,NA,NA,""
"image-keyboard-response",384,327142,"0.0-4.124-0.124","ebyoxtb4gdvrgk9",226,"199.csv","","294.60000002384186","resources/trios/L4T2A2.jpg","37","restless",0.6,0.5,0.4,0.998757865817268,"false"
"image-keyboard-response",385,327544,"0.0-4.124-1.124","ebyoxtb4gdvrgk9",226,"199.csv","","null","resources/maskTrios/L4BB.jpg","null","",NA,NA,NA,NA,""
"image-keyboard-response",386,328745,"0.0-4.124-2.124","ebyoxtb4gdvrgk9",226,"199.csv","","null","resources/images/fishbone.png","null","",NA,NA,NA,NA,""
"image-keyboard-response",387,328974,"0.0-4.125-0.125","ebyoxtb4gdvrgk9",226,"199.csv","","228.5","resources/trios/L4T2A2.jpg","39","restless",0.6,0.5,0.4,0.585915321380324,"false"
"image-keyboard-response",388,329377,"0.0-4.125-1.125","ebyoxtb4gdvrgk9",226,"199.csv","","null","resources/maskTrios/BBA2.jpg","null","",NA,NA,NA,NA,""
"image-keyboard-response",389,330579,"0.0-4.125-2.125","ebyoxtb4gdvrgk9",226,"199.csv","","null","resources/images/fishbone.png","null","",NA,NA,NA,NA,""
"image-keyboard-response",390,330591,"0.0-4.126-0.126","ebyoxtb4gdvrgk9",226,"199.csv","","10.899999976158142","resources/trios/L4T2A2.jpg","38","restless",0.6,0.5,0.4,0.717201232720651,"false"
"image-keyboard-response",391,330994,"0.0-4.126-1.126","ebyoxtb4gdvrgk9",226,"199.csv","","null","resources/maskTrios/BT2B.jpg","null","",NA,NA,NA,NA,""
"image-keyboard-response",392,332205,"0.0-4.126-2.126","ebyoxtb4gdvrgk9",226,"199.csv","","null","resources/images/fishbone.png","null","",NA,NA,NA,NA,""
"image-keyboard-response",393,332424,"0.0-4.127-0.127","ebyoxtb4gdvrgk9",226,"199.csv","","218.19999992847443","resources/trios/L4T2A2.jpg","37","restless",0.7,0.5,0.4,0.344154610490164,"true"
"image-keyboard-response",394,332827,"0.0-4.127-1.127","ebyoxtb4gdvrgk9",226,"199.csv","","null","resources/maskTrios/L4BB.jpg","null","",NA,NA,NA,NA,""
"image-keyboard-response",395,334029,"0.0-4.127-2.127","ebyoxtb4gdvrgk9",226,"199.csv","","null","resources/images/coin2.png","null","",NA,NA,NA,NA,""
"image-keyboard-response",396,334387,"0.0-4.128-0.128","ebyoxtb4gdvrgk9",226,"199.csv","","357.10000002384186","resources/trios/L4T2A2.jpg","37","restless",0.7,0.5,0.4,0.538671198962174,"true"
"image-keyboard-response",397,334789,"0.0-4.128-1.128","ebyoxtb4gdvrgk9",226,"199.csv","","null","resources/maskTrios/L4BB.jpg","null","",NA,NA,NA,NA,""
"image-keyboard-response",398,336004,"0.0-4.128-2.128","ebyoxtb4gdvrgk9",226,"199.csv","","null","resources/images/coin2.png","null","",NA,NA,NA,NA,""
"image-keyboard-response",399,336250,"0.0-4.129-0.129","ebyoxtb4gdvrgk9",226,"199.csv","","244.09999990463257","resources/trios/L4T2A2.jpg","37","restless",0.7,0.5,0.4,0.568929354502675,"true"
"image-keyboard-response",400,336652,"0.0-4.129-1.129","ebyoxtb4gdvrgk9",226,"199.csv","","null","resources/maskTrios/L4BB.jpg","null","",NA,NA,NA,NA,""
"image-keyboard-response",401,337854,"0.0-4.129-2.129","ebyoxtb4gdvrgk9",226,"199.csv","","null","resources/images/coin2.png","null","",NA,NA,NA,NA,""
"image-keyboard-response",402,338117,"0.0-4.130-0.130","ebyoxtb4gdvrgk9",226,"199.csv","","261.7000000476837","resources/trios/L4T2A2.jpg","37","restless",0.7,0.5,0.4,0.373092488207629,"true"
"image-keyboard-response",403,338520,"0.0-4.130-1.130","ebyoxtb4gdvrgk9",226,"199.csv","","null","resources/maskTrios/L4BB.jpg","null","",NA,NA,NA,NA,""
"image-keyboard-response",404,339723,"0.0-4.130-2.130","ebyoxtb4gdvrgk9",226,"199.csv","","null","resources/images/coin2.png","null","",NA,NA,NA,NA,""
"image-keyboard-response",405,340069,"0.0-4.131-0.131","ebyoxtb4gdvrgk9",226,"199.csv","","344.1999999284744","resources/trios/L4T2A2.jpg","37","restless",0.8,0.4,0.5,0.839409600310817,"false"
"image-keyboard-response",406,340470,"0.0-4.131-1.131","ebyoxtb4gdvrgk9",226,"199.csv","","null","resources/maskTrios/L4BB.jpg","null","",NA,NA,NA,NA,""
"image-keyboard-response",407,341672,"0.0-4.131-2.131","ebyoxtb4gdvrgk9",226,"199.csv","","null","resources/images/fishbone.png","null","",NA,NA,NA,NA,""
"image-keyboard-response",408,341951,"0.0-4.132-0.132","ebyoxtb4gdvrgk9",226,"199.csv","","277.5","resources/trios/L4T2A2.jpg","39","restless",0.8,0.3,0.5,0.226636484791661,"true"
"image-keyboard-response",409,342354,"0.0-4.132-1.132","ebyoxtb4gdvrgk9",226,"199.csv","","null","resources/maskTrios/BBA2.jpg","null","",NA,NA,NA,NA,""
"image-keyboard-response",410,343556,"0.0-4.132-2.132","ebyoxtb4gdvrgk9",226,"199.csv","","null","resources/images/coin2.png","null","",NA,NA,NA,NA,""
"image-keyboard-response",411,343946,"0.0-4.133-0.133","ebyoxtb4gdvrgk9",226,"199.csv","","388.89999997615814","resources/trios/L4T2A2.jpg","39","restless",0.8,0.3,0.5,0.963726450828093,"false"
"image-keyboard-response",412,344349,"0.0-4.133-1.133","ebyoxtb4gdvrgk9",226,"199.csv","","null","resources/maskTrios/BBA2.jpg","null","",NA,NA,NA,NA,""
"image-keyboard-response",413,345550,"0.0-4.133-2.133","ebyoxtb4gdvrgk9",226,"199.csv","","null","resources/images/fishbone.png","null","",NA,NA,NA,NA,""
"image-keyboard-response",414,345571,"0.0-4.134-0.134","ebyoxtb4gdvrgk9",226,"199.csv","","20.5","resources/trios/L4T2A2.jpg","38","restless",0.8,0.3,0.4,0.0120727011231467,"true"
"image-keyboard-response",415,345974,"0.0-4.134-1.134","ebyoxtb4gdvrgk9",226,"199.csv","","null","resources/maskTrios/BT2B.jpg","null","",NA,NA,NA,NA,""
"image-keyboard-response",416,347175,"0.0-4.134-2.134","ebyoxtb4gdvrgk9",226,"199.csv","","null","resources/images/coin2.png","null","",NA,NA,NA,NA,""
"image-keyboard-response",417,347456,"0.0-4.135-0.135","ebyoxtb4gdvrgk9",226,"199.csv","","279","resources/trios/L4T2A2.jpg","38","restless",0.8,0.3,0.4,0.781293022716221,"false"
"image-keyboard-response",418,347858,"0.0-4.135-1.135","ebyoxtb4gdvrgk9",226,"199.csv","","null","resources/maskTrios/BT2B.jpg","null","",NA,NA,NA,NA,""
"image-keyboard-response",419,349060,"0.0-4.135-2.135","ebyoxtb4gdvrgk9",226,"199.csv","","null","resources/images/fishbone.png","null","",NA,NA,NA,NA,""
"image-keyboard-response",420,350308,"0.0-4.136-0.136","ebyoxtb4gdvrgk9",226,"199.csv","","1246.6000000238419","resources/trios/L4T2A2.jpg","38","restless",0.8,0.3,0.4,0.460491339782768,"false"
"image-keyboard-response",421,350710,"0.0-4.136-1.136","ebyoxtb4gdvrgk9",226,"199.csv","","null","resources/maskTrios/BT2B.jpg","null","",NA,NA,NA,NA,""
"image-keyboard-response",422,351912,"0.0-4.136-2.136","ebyoxtb4gdvrgk9",226,"199.csv","","null","resources/images/fishbone.png","null","",NA,NA,NA,NA,""
"image-keyboard-response",423,352145,"0.0-4.137-0.137","ebyoxtb4gdvrgk9",226,"199.csv","","231.39999997615814","resources/trios/L4T2A2.jpg","37","restless",0.8,0.3,0.4,0.912254684890039,"false"
"image-keyboard-response",424,352548,"0.0-4.137-1.137","ebyoxtb4gdvrgk9",226,"199.csv","","null","resources/maskTrios/L4BB.jpg","null","",NA,NA,NA,NA,""
"image-keyboard-response",425,353750,"0.0-4.137-2.137","ebyoxtb4gdvrgk9",226,"199.csv","","null","resources/images/fishbone.png","null","",NA,NA,NA,NA,""
"image-keyboard-response",426,353919,"0.0-4.138-0.138","ebyoxtb4gdvrgk9",226,"199.csv","","167.70000004768372","resources/trios/L4T2A2.jpg","39","restless",0.7,0.3,0.4,0.161601938532199,"true"
"image-keyboard-response",427,354321,"0.0-4.138-1.138","ebyoxtb4gdvrgk9",226,"199.csv","","null","resources/maskTrios/BBA2.jpg","null","",NA,NA,NA,NA,""
"image-keyboard-response",428,355519,"0.0-4.138-2.138","ebyoxtb4gdvrgk9",226,"199.csv","","null","resources/images/coin2.png","null","",NA,NA,NA,NA,""
"image-keyboard-response",429,356998,"0.0-4.139-0.139","ebyoxtb4gdvrgk9",226,"199.csv","","1478.1000000238419","resources/trios/L4T2A2.jpg","39","restless",0.7,0.3,0.4,0.461709923762583,"false"
"image-keyboard-response",430,357400,"0.0-4.139-1.139","ebyoxtb4gdvrgk9",226,"199.csv","","null","resources/maskTrios/BBA2.jpg","null","",NA,NA,NA,NA,""
"image-keyboard-response",431,358602,"0.0-4.139-2.139","ebyoxtb4gdvrgk9",226,"199.csv","","null","resources/images/fishbone.png","null","",NA,NA,NA,NA,""
"image-keyboard-response",432,360338,"0.0-4.140-0.140","ebyoxtb4gdvrgk9",226,"199.csv","","1735","resources/trios/L4T2A2.jpg","39","restless",0.7,0.3,0.4,0.660082203552837,"false"
"image-keyboard-response",433,360741,"0.0-4.140-1.140","ebyoxtb4gdvrgk9",226,"199.csv","","null","resources/maskTrios/BBA2.jpg","null","",NA,NA,NA,NA,""
"image-keyboard-response",434,361943,"0.0-4.140-2.140","ebyoxtb4gdvrgk9",226,"199.csv","","null","resources/images/fishbone.png","null","",NA,NA,NA,NA,""
"image-keyboard-response",435,362211,"0.0-4.141-0.141","ebyoxtb4gdvrgk9",226,"199.csv","","267.2999999523163","resources/trios/L4T2A2.jpg","37","restless",0.7,0.3,0.4,0.447286355896521,"true"
"image-keyboard-response",436,362613,"0.0-4.141-1.141","ebyoxtb4gdvrgk9",226,"199.csv","","null","resources/maskTrios/L4BB.jpg","null","",NA,NA,NA,NA,""
"image-keyboard-response",437,363815,"0.0-4.141-2.141","ebyoxtb4gdvrgk9",226,"199.csv","","null","resources/images/coin2.png","null","",NA,NA,NA,NA,""
"image-keyboard-response",438,364197,"0.0-4.142-0.142","ebyoxtb4gdvrgk9",226,"199.csv","","380.6999999284744","resources/trios/L4T2A2.jpg","37","restless",0.8,0.3,0.4,0.032308179986001,"true"
"image-keyboard-response",439,364609,"0.0-4.142-1.142","ebyoxtb4gdvrgk9",226,"199.csv","","null","resources/maskTrios/L4BB.jpg","null","",NA,NA,NA,NA,""
"image-keyboard-response",440,365811,"0.0-4.142-2.142","ebyoxtb4gdvrgk9",226,"199.csv","","null","resources/images/coin2.png","null","",NA,NA,NA,NA,""
"image-keyboard-response",441,370896,"0.0-4.143-0.143","ebyoxtb4gdvrgk9",226,"199.csv","","5083.399999976158","resources/trios/L4T2A2.jpg","38","restless",0.8,0.3,0.4,0.476701024715075,"false"
"image-keyboard-response",442,371298,"0.0-4.143-1.143","ebyoxtb4gdvrgk9",226,"199.csv","","null","resources/maskTrios/BT2B.jpg","null","",NA,NA,NA,NA,""
"image-keyboard-response",443,372499,"0.0-4.143-2.143","ebyoxtb4gdvrgk9",226,"199.csv","","null","resources/images/fishbone.png","null","",NA,NA,NA,NA,""
"image-keyboard-response",444,372762,"0.0-4.144-0.144","ebyoxtb4gdvrgk9",226,"199.csv","","260.90000009536743","resources/trios/L4T2A2.jpg","39","restless",0.8,0.3,0.4,0.173984569768618,"true"
"image-keyboard-response",445,373164,"0.0-4.144-1.144","ebyoxtb4gdvrgk9",226,"199.csv","","null","resources/maskTrios/BBA2.jpg","null","",NA,NA,NA,NA,""
"image-keyboard-response",446,374366,"0.0-4.144-2.144","ebyoxtb4gdvrgk9",226,"199.csv","","null","resources/images/coin2.png","null","",NA,NA,NA,NA,""
"image-keyboard-response",447,375716,"0.0-4.145-0.145","ebyoxtb4gdvrgk9",226,"199.csv","","1348.1000000238419","resources/trios/L4T2A2.jpg","37","restless",0.8,0.2,0.4,0.0532723717136034,"true"
"image-keyboard-response",448,376118,"0.0-4.145-1.145","ebyoxtb4gdvrgk9",226,"199.csv","","null","resources/maskTrios/L4BB.jpg","null","",NA,NA,NA,NA,""
"image-keyboard-response",449,377321,"0.0-4.145-2.145","ebyoxtb4gdvrgk9",226,"199.csv","","null","resources/images/coin2.png","null","",NA,NA,NA,NA,""
"image-keyboard-response",450,377551,"0.0-4.146-0.146","ebyoxtb4gdvrgk9",226,"199.csv","","228.5","resources/trios/L4T2A2.jpg","37","restless",0.8,0.2,0.4,0.580943948405987,"true"
"image-keyboard-response",451,377953,"0.0-4.146-1.146","ebyoxtb4gdvrgk9",226,"199.csv","","null","resources/maskTrios/L4BB.jpg","null","",NA,NA,NA,NA,""
"image-keyboard-response",452,379156,"0.0-4.146-2.146","ebyoxtb4gdvrgk9",226,"199.csv","","null","resources/images/coin2.png","null","",NA,NA,NA,NA,""
"image-keyboard-response",453,379384,"0.0-4.147-0.147","ebyoxtb4gdvrgk9",226,"199.csv","","226.70000004768372","resources/trios/L4T2A2.jpg","37","restless",0.8,0.2,0.4,0.864495064366945,"false"
"image-keyboard-response",454,379786,"0.0-4.147-1.147","ebyoxtb4gdvrgk9",226,"199.csv","","null","resources/maskTrios/L4BB.jpg","null","",NA,NA,NA,NA,""
"image-keyboard-response",455,380988,"0.0-4.147-2.147","ebyoxtb4gdvrgk9",226,"199.csv","","null","resources/images/fishbone.png","null","",NA,NA,NA,NA,""
"image-keyboard-response",456,381287,"0.0-4.148-0.148","ebyoxtb4gdvrgk9",226,"199.csv","","298.39999997615814","resources/trios/L4T2A2.jpg","39","restless",0.8,0.2,0.4,0.595323414074347,"false"
"image-keyboard-response",457,381689,"0.0-4.148-1.148","ebyoxtb4gdvrgk9",226,"199.csv","","null","resources/maskTrios/BBA2.jpg","null","",NA,NA,NA,NA,""
"image-keyboard-response",458,382890,"0.0-4.148-2.148","ebyoxtb4gdvrgk9",226,"199.csv","","null","resources/images/fishbone.png","null","",NA,NA,NA,NA,""
"image-keyboard-response",459,383066,"0.0-4.149-0.149","ebyoxtb4gdvrgk9",226,"199.csv","","175.30000007152557","resources/trios/L4T2A2.jpg","38","restless",0.8,0.3,0.4,0.944633890006244,"false"
"image-keyboard-response",460,383468,"0.0-4.149-1.149","ebyoxtb4gdvrgk9",226,"199.csv","","null","resources/maskTrios/BT2B.jpg","null","",NA,NA,NA,NA,""
"image-keyboard-response",461,384681,"0.0-4.149-2.149","ebyoxtb4gdvrgk9",226,"199.csv","","null","resources/images/fishbone.png","null","",NA,NA,NA,NA,""
"image-keyboard-response",462,384777,"0.0-4.150-0.150","ebyoxtb4gdvrgk9",226,"199.csv","","94.70000004768372","resources/trios/L4T2A2.jpg","37","restless",0.8,0.3,0.4,0.923573781626116,"false"
"image-keyboard-response",463,385179,"0.0-4.150-1.150","ebyoxtb4gdvrgk9",226,"199.csv","","null","resources/maskTrios/L4BB.jpg","null","",NA,NA,NA,NA,""
"image-keyboard-response",464,386381,"0.0-4.150-2.150","ebyoxtb4gdvrgk9",226,"199.csv","","null","resources/images/fishbone.png","null","",NA,NA,NA,NA,""
"image-keyboard-response",465,386608,"0.0-4.151-0.151","ebyoxtb4gdvrgk9",226,"199.csv","","226.30000007152557","resources/trios/L4T2A2.jpg","38","restless",0.8,0.3,0.4,0.502108748438943,"false"
"image-keyboard-response",466,387011,"0.0-4.151-1.151","ebyoxtb4gdvrgk9",226,"199.csv","","null","resources/maskTrios/BT2B.jpg","null","",NA,NA,NA,NA,""
"image-keyboard-response",467,388212,"0.0-4.151-2.151","ebyoxtb4gdvrgk9",226,"199.csv","","null","resources/images/fishbone.png","null","",NA,NA,NA,NA,""
"image-keyboard-response",468,388432,"0.0-4.152-0.152","ebyoxtb4gdvrgk9",226,"199.csv","","217.20000004768372","resources/trios/L4T2A2.jpg","39","restless",0.8,0.3,0.4,0.572791811784145,"false"
"image-keyboard-response",469,388834,"0.0-4.152-1.152","ebyoxtb4gdvrgk9",226,"199.csv","","null","resources/maskTrios/BBA2.jpg","null","",NA,NA,NA,NA,""
"image-keyboard-response",470,390035,"0.0-4.152-2.152","ebyoxtb4gdvrgk9",226,"199.csv","","null","resources/images/fishbone.png","null","",NA,NA,NA,NA,""
"image-keyboard-response",471,390427,"0.0-4.153-0.153","ebyoxtb4gdvrgk9",226,"199.csv","","389.7999999523163","resources/trios/L4T2A2.jpg","37","restless",0.9,0.3,0.4,0.538026956785118,"true"
"image-keyboard-response",472,390829,"0.0-4.153-1.153","ebyoxtb4gdvrgk9",226,"199.csv","","null","resources/maskTrios/L4BB.jpg","null","",NA,NA,NA,NA,""
"image-keyboard-response",473,392031,"0.0-4.153-2.153","ebyoxtb4gdvrgk9",226,"199.csv","","null","resources/images/coin2.png","null","",NA,NA,NA,NA,""
"image-keyboard-response",474,392732,"0.0-4.154-0.154","ebyoxtb4gdvrgk9",226,"199.csv","","699.3999999761581","resources/trios/L4T2A2.jpg","37","restless",0.9,0.3,0.4,0.718509899465066,"true"
"image-keyboard-response",475,393134,"0.0-4.154-1.154","ebyoxtb4gdvrgk9",226,"199.csv","","null","resources/maskTrios/L4BB.jpg","null","",NA,NA,NA,NA,""
"image-keyboard-response",476,394337,"0.0-4.154-2.154","ebyoxtb4gdvrgk9",226,"199.csv","","null","resources/images/coin2.png","null","",NA,NA,NA,NA,""
"image-keyboard-response",477,396066,"0.0-4.155-0.155","ebyoxtb4gdvrgk9",226,"199.csv","","1728","resources/trios/L4T2A2.jpg","39","restless",0.9,0.3,0.4,0.515099450585759,"false"
"image-keyboard-response",478,396470,"0.0-4.155-1.155","ebyoxtb4gdvrgk9",226,"199.csv","","null","resources/maskTrios/BBA2.jpg","null","",NA,NA,NA,NA,""
"image-keyboard-response",479,397672,"0.0-4.155-2.155","ebyoxtb4gdvrgk9",226,"199.csv","","null","resources/images/fishbone.png","null","",NA,NA,NA,NA,""
"image-keyboard-response",480,397869,"0.0-4.156-0.156","ebyoxtb4gdvrgk9",226,"199.csv","","195.79999995231628","resources/trios/L4T2A2.jpg","38","restless",0.9,0.3,0.4,0.234767016643435,"true"
"image-keyboard-response",481,398282,"0.0-4.156-1.156","ebyoxtb4gdvrgk9",226,"199.csv","","null","resources/maskTrios/BT2B.jpg","null","",NA,NA,NA,NA,""
"image-keyboard-response",482,399484,"0.0-4.156-2.156","ebyoxtb4gdvrgk9",226,"199.csv","","null","resources/images/coin2.png","null","",NA,NA,NA,NA,""
"image-keyboard-response",483,399782,"0.0-4.157-0.157","ebyoxtb4gdvrgk9",226,"199.csv","","296.89999997615814","resources/trios/L4T2A2.jpg","37","restless",0.9,0.3,0.4,0.803219595847167,"true"
"image-keyboard-response",484,400184,"0.0-4.157-1.157","ebyoxtb4gdvrgk9",226,"199.csv","","null","resources/maskTrios/L4BB.jpg","null","",NA,NA,NA,NA,""
"image-keyboard-response",485,401386,"0.0-4.157-2.157","ebyoxtb4gdvrgk9",226,"199.csv","","null","resources/images/coin2.png","null","",NA,NA,NA,NA,""
"image-keyboard-response",486,401618,"0.0-4.158-0.158","ebyoxtb4gdvrgk9",226,"199.csv","","229.79999995231628","resources/trios/L4T2A2.jpg","38","restless",0.9,0.3,0.4,0.901461166145009,"false"
"image-keyboard-response",487,402020,"0.0-4.158-1.158","ebyoxtb4gdvrgk9",226,"199.csv","","null","resources/maskTrios/BT2B.jpg","null","",NA,NA,NA,NA,""
"image-keyboard-response",488,403221,"0.0-4.158-2.158","ebyoxtb4gdvrgk9",226,"199.csv","","null","resources/images/fishbone.png","null","",NA,NA,NA,NA,""
"image-keyboard-response",489,404438,"0.0-4.159-0.159","ebyoxtb4gdvrgk9",226,"199.csv","","1215.2000000476837","resources/trios/L4T2A2.jpg","37","restless",0.9,0.3,0.4,0.619865926712982,"true"
"image-keyboard-response",490,404840,"0.0-4.159-1.159","ebyoxtb4gdvrgk9",226,"199.csv","","null","resources/maskTrios/L4BB.jpg","null","",NA,NA,NA,NA,""
"image-keyboard-response",491,406043,"0.0-4.159-2.159","ebyoxtb4gdvrgk9",226,"199.csv","","null","resources/images/coin2.png","null","",NA,NA,NA,NA,""
"image-keyboard-response",492,406261,"0.0-4.160-0.160","ebyoxtb4gdvrgk9",226,"199.csv","","216.79999995231628","resources/trios/L4T2A2.jpg","37","restless",0.9,0.3,0.4,0.453281872754991,"true"
"image-keyboard-response",493,406663,"0.0-4.160-1.160","ebyoxtb4gdvrgk9",226,"199.csv","","null","resources/maskTrios/L4BB.jpg","null","",NA,NA,NA,NA,""
"image-keyboard-response",494,407865,"0.0-4.160-2.160","ebyoxtb4gdvrgk9",226,"199.csv","","null","resources/images/coin2.png","null","",NA,NA,NA,NA,""
"image-keyboard-response",495,407899,"0.0-4.161-0.161","ebyoxtb4gdvrgk9",226,"199.csv","","33.299999952316284","resources/trios/L4T2A2.jpg","37","restless",0.9,0.3,0.4,0.395911515689473,"true"
"image-keyboard-response",496,408301,"0.0-4.161-1.161","ebyoxtb4gdvrgk9",226,"199.csv","","null","resources/maskTrios/L4BB.jpg","null","",NA,NA,NA,NA,""
"image-keyboard-response",497,409503,"0.0-4.161-2.161","ebyoxtb4gdvrgk9",226,"199.csv","","null","resources/images/coin2.png","null","",NA,NA,NA,NA,""
"image-keyboard-response",498,409780,"0.0-4.162-0.162","ebyoxtb4gdvrgk9",226,"199.csv","","275.8000000715256","resources/trios/L4T2A2.jpg","37","restless",0.9,0.3,0.4,0.0681006908381889,"true"
"image-keyboard-response",499,410182,"0.0-4.162-1.162","ebyoxtb4gdvrgk9",226,"199.csv","","null","resources/maskTrios/L4BB.jpg","null","",NA,NA,NA,NA,""
"image-keyboard-response",500,411396,"0.0-4.162-2.162","ebyoxtb4gdvrgk9",226,"199.csv","","null","resources/images/coin2.png","null","",NA,NA,NA,NA,""
"image-keyboard-response",501,411717,"0.0-4.163-0.163","ebyoxtb4gdvrgk9",226,"199.csv","","319.7000000476837","resources/trios/L4T2A2.jpg","37","restless",0.9,0.3,0.4,0.733197316127642,"true"
"image-keyboard-response",502,412119,"0.0-4.163-1.163","ebyoxtb4gdvrgk9",226,"199.csv","","null","resources/maskTrios/L4BB.jpg","null","",NA,NA,NA,NA,""
"image-keyboard-response",503,413321,"0.0-4.163-2.163","ebyoxtb4gdvrgk9",226,"199.csv","","null","resources/images/coin2.png","null","",NA,NA,NA,NA,""
"image-keyboard-response",504,413988,"0.0-4.164-0.164","ebyoxtb4gdvrgk9",226,"199.csv","","665.2000000476837","resources/trios/L4T2A2.jpg","37","restless",0.8,0.3,0.4,0.0707489983744762,"true"
"image-keyboard-response",505,414388,"0.0-4.164-1.164","ebyoxtb4gdvrgk9",226,"199.csv","","null","resources/maskTrios/L4BB.jpg","null","",NA,NA,NA,NA,""
"image-keyboard-response",506,415590,"0.0-4.164-2.164","ebyoxtb4gdvrgk9",226,"199.csv","","null","resources/images/coin2.png","null","",NA,NA,NA,NA,""
"image-keyboard-response",507,415779,"0.0-4.165-0.165","ebyoxtb4gdvrgk9",226,"199.csv","","186.79999995231628","resources/trios/L4T2A2.jpg","37","restless",0.8,0.3,0.3,0.559516820800144,"true"
"image-keyboard-response",508,416181,"0.0-4.165-1.165","ebyoxtb4gdvrgk9",226,"199.csv","","null","resources/maskTrios/L4BB.jpg","null","",NA,NA,NA,NA,""
"image-keyboard-response",509,417384,"0.0-4.165-2.165","ebyoxtb4gdvrgk9",226,"199.csv","","null","resources/images/coin2.png","null","",NA,NA,NA,NA,""
"image-keyboard-response",510,417581,"0.0-4.166-0.166","ebyoxtb4gdvrgk9",226,"199.csv","","195.60000002384186","resources/trios/L4T2A2.jpg","38","restless",0.8,0.3,0.3,0.44089326640592,"false"
"image-keyboard-response",511,417984,"0.0-4.166-1.166","ebyoxtb4gdvrgk9",226,"199.csv","","null","resources/maskTrios/BT2B.jpg","null","",NA,NA,NA,NA,""
"image-keyboard-response",512,419185,"0.0-4.166-2.166","ebyoxtb4gdvrgk9",226,"199.csv","","null","resources/images/fishbone.png","null","",NA,NA,NA,NA,""
"image-keyboard-response",513,419428,"0.0-4.167-0.167","ebyoxtb4gdvrgk9",226,"199.csv","","241.39999997615814","resources/trios/L4T2A2.jpg","39","restless",0.8,0.4,0.3,0.1918601049002,"true"
"image-keyboard-response",514,419831,"0.0-4.167-1.167","ebyoxtb4gdvrgk9",226,"199.csv","","null","resources/maskTrios/BBA2.jpg","null","",NA,NA,NA,NA,""
"image-keyboard-response",515,421034,"0.0-4.167-2.167","ebyoxtb4gdvrgk9",226,"199.csv","","null","resources/images/coin2.png","null","",NA,NA,NA,NA,""
"image-keyboard-response",516,421705,"0.0-4.168-0.168","ebyoxtb4gdvrgk9",226,"199.csv","","670.1000000238419","resources/trios/L4T2A2.jpg","39","restless",0.8,0.4,0.3,0.185511368560428,"true"
"image-keyboard-response",517,422108,"0.0-4.168-1.168","ebyoxtb4gdvrgk9",226,"199.csv","","null","resources/maskTrios/BBA2.jpg","null","",NA,NA,NA,NA,""
"image-keyboard-response",518,423310,"0.0-4.168-2.168","ebyoxtb4gdvrgk9",226,"199.csv","","null","resources/images/coin2.png","null","",NA,NA,NA,NA,""
"image-keyboard-response",519,423594,"0.0-4.169-0.169","ebyoxtb4gdvrgk9",226,"199.csv","","283","resources/trios/L4T2A2.jpg","37","restless",0.8,0.4,0.3,0.388375812695946,"true"
"image-keyboard-response",520,423996,"0.0-4.169-1.169","ebyoxtb4gdvrgk9",226,"199.csv","","null","resources/maskTrios/L4BB.jpg","null","",NA,NA,NA,NA,""
"image-keyboard-response",521,425199,"0.0-4.169-2.169","ebyoxtb4gdvrgk9",226,"199.csv","","null","resources/images/coin2.png","null","",NA,NA,NA,NA,""
"image-keyboard-response",522,425467,"0.0-4.170-0.170","ebyoxtb4gdvrgk9",226,"199.csv","","267.5","resources/trios/L4T2A2.jpg","37","restless",0.7,0.4,0.2,0.41554295405257,"true"
"image-keyboard-response",523,425870,"0.0-4.170-1.170","ebyoxtb4gdvrgk9",226,"199.csv","","null","resources/maskTrios/L4BB.jpg","null","",NA,NA,NA,NA,""
"image-keyboard-response",524,427087,"0.0-4.170-2.170","ebyoxtb4gdvrgk9",226,"199.csv","","null","resources/images/coin2.png","null","",NA,NA,NA,NA,""
"image-keyboard-response",525,427766,"0.0-4.171-0.171","ebyoxtb4gdvrgk9",226,"199.csv","","677.3999999761581","resources/trios/L4T2A2.jpg","37","restless",0.7,0.4,0.2,0.066428940126442,"true"
"image-keyboard-response",526,428182,"0.0-4.171-1.171","ebyoxtb4gdvrgk9",226,"199.csv","","null","resources/maskTrios/L4BB.jpg","null","",NA,NA,NA,NA,""
"image-keyboard-response",527,429384,"0.0-4.171-2.171","ebyoxtb4gdvrgk9",226,"199.csv","","null","resources/images/coin2.png","null","",NA,NA,NA,NA,""
"image-keyboard-response",528,430049,"0.0-4.172-0.172","ebyoxtb4gdvrgk9",226,"199.csv","","663.8999999761581","resources/trios/L4T2A2.jpg","37","restless",0.7,0.5,0.2,0.122698513866561,"true"
"image-keyboard-response",529,430452,"0.0-4.172-1.172","ebyoxtb4gdvrgk9",226,"199.csv","","null","resources/maskTrios/L4BB.jpg","null","",NA,NA,NA,NA,""
"image-keyboard-response",530,431654,"0.0-4.172-2.172","ebyoxtb4gdvrgk9",226,"199.csv","","null","resources/images/coin2.png","null","",NA,NA,NA,NA,""
"image-keyboard-response",531,431955,"0.0-4.173-0.173","ebyoxtb4gdvrgk9",226,"199.csv","","299.6999999284744","resources/trios/L4T2A2.jpg","37","restless",0.7,0.5,0.2,0.0451345886927916,"true"
"image-keyboard-response",532,432356,"0.0-4.173-1.173","ebyoxtb4gdvrgk9",226,"199.csv","","null","resources/maskTrios/L4BB.jpg","null","",NA,NA,NA,NA,""
"image-keyboard-response",533,433558,"0.0-4.173-2.173","ebyoxtb4gdvrgk9",226,"199.csv","","null","resources/images/coin2.png","null","",NA,NA,NA,NA,""
"image-keyboard-response",534,433752,"0.0-4.174-0.174","ebyoxtb4gdvrgk9",226,"199.csv","","193","resources/trios/L4T2A2.jpg","39","restless",0.7,0.5,0.2,0.176376709745759,"true"
"image-keyboard-response",535,434154,"0.0-4.174-1.174","ebyoxtb4gdvrgk9",226,"199.csv","","null","resources/maskTrios/BBA2.jpg","null","",NA,NA,NA,NA,""
"image-keyboard-response",536,435356,"0.0-4.174-2.174","ebyoxtb4gdvrgk9",226,"199.csv","","null","resources/images/coin2.png","null","",NA,NA,NA,NA,""
"image-keyboard-response",537,435613,"0.0-4.175-0.175","ebyoxtb4gdvrgk9",226,"199.csv","","255.80000007152557","resources/trios/L4T2A2.jpg","39","restless",0.7,0.5,0.2,0.362869173249517,"false"
"image-keyboard-response",538,436016,"0.0-4.175-1.175","ebyoxtb4gdvrgk9",226,"199.csv","","null","resources/maskTrios/BBA2.jpg","null","",NA,NA,NA,NA,""
"image-keyboard-response",539,437217,"0.0-4.175-2.175","ebyoxtb4gdvrgk9",226,"199.csv","","null","resources/images/fishbone.png","null","",NA,NA,NA,NA,""
"image-keyboard-response",540,437456,"0.0-4.176-0.176","ebyoxtb4gdvrgk9",226,"199.csv","","236.89999997615814","resources/trios/L4T2A2.jpg","37","restless",0.7,0.5,0.2,0.895810167566388,"false"
"image-keyboard-response",541,437859,"0.0-4.176-1.176","ebyoxtb4gdvrgk9",226,"199.csv","","null","resources/maskTrios/L4BB.jpg","null","",NA,NA,NA,NA,""
"image-keyboard-response",542,439069,"0.0-4.176-2.176","ebyoxtb4gdvrgk9",226,"199.csv","","null","resources/images/fishbone.png","null","",NA,NA,NA,NA,""
"image-keyboard-response",543,439259,"0.0-4.177-0.177","ebyoxtb4gdvrgk9",226,"199.csv","","188.80000007152557","resources/trios/L4T2A2.jpg","38","restless",0.7,0.5,0.2,0.792695410804426,"false"
"image-keyboard-response",544,439662,"0.0-4.177-1.177","ebyoxtb4gdvrgk9",226,"199.csv","","null","resources/maskTrios/BT2B.jpg","null","",NA,NA,NA,NA,""
"image-keyboard-response",545,440865,"0.0-4.177-2.177","ebyoxtb4gdvrgk9",226,"199.csv","","null","resources/images/fishbone.png","null","",NA,NA,NA,NA,""
"image-keyboard-response",546,441075,"0.0-4.178-0.178","ebyoxtb4gdvrgk9",226,"199.csv","","208.5","resources/trios/L4T2A2.jpg","38","restless",0.7,0.5,0.2,0.463059817940094,"true"
"image-keyboard-response",547,441477,"0.0-4.178-1.178","ebyoxtb4gdvrgk9",226,"199.csv","","null","resources/maskTrios/BT2B.jpg","null","",NA,NA,NA,NA,""
"image-keyboard-response",548,442679,"0.0-4.178-2.178","ebyoxtb4gdvrgk9",226,"199.csv","","null","resources/images/coin2.png","null","",NA,NA,NA,NA,""
"image-keyboard-response",549,442942,"0.0-4.179-0.179","ebyoxtb4gdvrgk9",226,"199.csv","","260.8000000715256","resources/trios/L4T2A2.jpg","38","restless",0.7,0.5,0.2,0.0466582609718991,"true"
"image-keyboard-response",550,443343,"0.0-4.179-1.179","ebyoxtb4gdvrgk9",226,"199.csv","","null","resources/maskTrios/BT2B.jpg","null","",NA,NA,NA,NA,""
"image-keyboard-response",551,444545,"0.0-4.179-2.179","ebyoxtb4gdvrgk9",226,"199.csv","","null","resources/images/coin2.png","null","",NA,NA,NA,NA,""
"image-keyboard-response",552,444951,"0.0-4.180-0.180","ebyoxtb4gdvrgk9",226,"199.csv","","404.5","resources/trios/L4T2A2.jpg","39","restless",0.7,0.5,0.3,0.434335921028957,"false"
"image-keyboard-response",553,445352,"0.0-4.180-1.180","ebyoxtb4gdvrgk9",226,"199.csv","","null","resources/maskTrios/BBA2.jpg","null","",NA,NA,NA,NA,""
"image-keyboard-response",554,446554,"0.0-4.180-2.180","ebyoxtb4gdvrgk9",226,"199.csv","","null","resources/images/fishbone.png","null","",NA,NA,NA,NA,""
"image-keyboard-response",555,446828,"0.0-4.181-0.181","ebyoxtb4gdvrgk9",226,"199.csv","","273","resources/trios/L4T2A2.jpg","37","restless",0.8,0.5,0.3,0.901623779293617,"false"
"image-keyboard-response",556,447230,"0.0-4.181-1.181","ebyoxtb4gdvrgk9",226,"199.csv","","null","resources/maskTrios/L4BB.jpg","null","",NA,NA,NA,NA,""
"image-keyboard-response",557,448438,"0.0-4.181-2.181","ebyoxtb4gdvrgk9",226,"199.csv","","null","resources/images/fishbone.png","null","",NA,NA,NA,NA,""
"image-keyboard-response",558,448701,"0.0-4.182-0.182","ebyoxtb4gdvrgk9",226,"199.csv","","261.7000000476837","resources/trios/L4T2A2.jpg","38","restless",0.8,0.5,0.3,0.943509778363381,"false"
"image-keyboard-response",559,449104,"0.0-4.182-1.182","ebyoxtb4gdvrgk9",226,"199.csv","","null","resources/maskTrios/BT2B.jpg","null","",NA,NA,NA,NA,""
"image-keyboard-response",560,450306,"0.0-4.182-2.182","ebyoxtb4gdvrgk9",226,"199.csv","","null","resources/images/fishbone.png","null","",NA,NA,NA,NA,""
"image-keyboard-response",561,450578,"0.0-4.183-0.183","ebyoxtb4gdvrgk9",226,"199.csv","","270.39999997615814","resources/trios/L4T2A2.jpg","39","restless",0.8,0.5,0.4,0.469140510119969,"false"
"image-keyboard-response",562,450992,"0.0-4.183-1.183","ebyoxtb4gdvrgk9",226,"199.csv","","null","resources/maskTrios/BBA2.jpg","null","",NA,NA,NA,NA,""
"image-keyboard-response",563,452194,"0.0-4.183-2.183","ebyoxtb4gdvrgk9",226,"199.csv","","null","resources/images/fishbone.png","null","",NA,NA,NA,NA,""
"image-keyboard-response",564,452475,"0.0-4.184-0.184","ebyoxtb4gdvrgk9",226,"199.csv","","279.5","resources/trios/L4T2A2.jpg","38","restless",0.8,0.5,0.4,0.390368608563391,"true"
"image-keyboard-response",565,452876,"0.0-4.184-1.184","ebyoxtb4gdvrgk9",226,"199.csv","","null","resources/maskTrios/BT2B.jpg","null","",NA,NA,NA,NA,""
"image-keyboard-response",566,454089,"0.0-4.184-2.184","ebyoxtb4gdvrgk9",226,"199.csv","","null","resources/images/coin2.png","null","",NA,NA,NA,NA,""
"image-keyboard-response",567,454895,"0.0-4.185-0.185","ebyoxtb4gdvrgk9",226,"199.csv","","804.2999999523163","resources/trios/L4T2A2.jpg","38","restless",0.8,0.5,0.4,0.0286376192036268,"true"
"image-keyboard-response",568,455297,"0.0-4.185-1.185","ebyoxtb4gdvrgk9",226,"199.csv","","null","resources/maskTrios/BT2B.jpg","null","",NA,NA,NA,NA,""
"image-keyboard-response",569,456500,"0.0-4.185-2.185","ebyoxtb4gdvrgk9",226,"199.csv","","null","resources/images/coin2.png","null","",NA,NA,NA,NA,""
"image-keyboard-response",570,456993,"0.0-4.186-0.186","ebyoxtb4gdvrgk9",226,"199.csv","","491.1999999284744","resources/trios/L4T2A2.jpg","38","restless",0.8,0.5,0.4,0.0105442394621447,"true"
"image-keyboard-response",571,457396,"0.0-4.186-1.186","ebyoxtb4gdvrgk9",226,"199.csv","","null","resources/maskTrios/BT2B.jpg","null","",NA,NA,NA,NA,""
"image-keyboard-response",572,458599,"0.0-4.186-2.186","ebyoxtb4gdvrgk9",226,"199.csv","","null","resources/images/coin2.png","null","",NA,NA,NA,NA,""
"image-keyboard-response",573,458852,"0.0-4.187-0.187","ebyoxtb4gdvrgk9",226,"199.csv","","252.90000009536743","resources/trios/L4T2A2.jpg","37","restless",0.8,0.5,0.4,0.0939296859509147,"true"
"image-keyboard-response",574,459254,"0.0-4.187-1.187","ebyoxtb4gdvrgk9",226,"199.csv","","null","resources/maskTrios/L4BB.jpg","null","",NA,NA,NA,NA,""
"image-keyboard-response",575,460457,"0.0-4.187-2.187","ebyoxtb4gdvrgk9",226,"199.csv","","null","resources/images/coin2.png","null","",NA,NA,NA,NA,""
"image-keyboard-response",576,460790,"0.0-4.188-0.188","ebyoxtb4gdvrgk9",226,"199.csv","","332","resources/trios/L4T2A2.jpg","37","restless",0.8,0.5,0.4,0.641178587637024,"true"
"image-keyboard-response",577,461192,"0.0-4.188-1.188","ebyoxtb4gdvrgk9",226,"199.csv","","null","resources/maskTrios/L4BB.jpg","null","",NA,NA,NA,NA,""
"image-keyboard-response",578,462394,"0.0-4.188-2.188","ebyoxtb4gdvrgk9",226,"199.csv","","null","resources/images/coin2.png","null","",NA,NA,NA,NA,""
"image-keyboard-response",579,462685,"0.0-4.189-0.189","ebyoxtb4gdvrgk9",226,"199.csv","","290","resources/trios/L4T2A2.jpg","37","restless",0.8,0.5,0.4,0.968427443355097,"false"
"image-keyboard-response",580,463087,"0.0-4.189-1.189","ebyoxtb4gdvrgk9",226,"199.csv","","null","resources/maskTrios/L4BB.jpg","null","",NA,NA,NA,NA,""
"image-keyboard-response",581,464290,"0.0-4.189-2.189","ebyoxtb4gdvrgk9",226,"199.csv","","null","resources/images/fishbone.png","null","",NA,NA,NA,NA,""
"image-keyboard-response",582,464601,"0.0-4.190-0.190","ebyoxtb4gdvrgk9",226,"199.csv","","308.7999999523163","resources/trios/L4T2A2.jpg","37","restless",0.8,0.5,0.4,0.117355914368404,"true"
"image-keyboard-response",583,465003,"0.0-4.190-1.190","ebyoxtb4gdvrgk9",226,"199.csv","","null","resources/maskTrios/L4BB.jpg","null","",NA,NA,NA,NA,""
"image-keyboard-response",584,466206,"0.0-4.190-2.190","ebyoxtb4gdvrgk9",226,"199.csv","","null","resources/images/coin2.png","null","",NA,NA,NA,NA,""
"image-keyboard-response",585,466277,"0.0-4.191-0.191","ebyoxtb4gdvrgk9",226,"199.csv","","70","resources/trios/L4T2A2.jpg","37","restless",0.8,0.5,0.4,0.998535482304006,"false"
"image-keyboard-response",586,466679,"0.0-4.191-1.191","ebyoxtb4gdvrgk9",226,"199.csv","","null","resources/maskTrios/L4BB.jpg","null","",NA,NA,NA,NA,""
"image-keyboard-response",587,467881,"0.0-4.191-2.191","ebyoxtb4gdvrgk9",226,"199.csv","","null","resources/images/fishbone.png","null","",NA,NA,NA,NA,""
"image-keyboard-response",588,468154,"0.0-4.192-0.192","ebyoxtb4gdvrgk9",226,"199.csv","","271.89999997615814","resources/trios/L4T2A2.jpg","39","restless",0.8,0.5,0.4,0.447394826265315,"false"
"image-keyboard-response",589,468556,"0.0-4.192-1.192","ebyoxtb4gdvrgk9",226,"199.csv","","null","resources/maskTrios/BBA2.jpg","null","",NA,NA,NA,NA,""
"image-keyboard-response",590,469758,"0.0-4.192-2.192","ebyoxtb4gdvrgk9",226,"199.csv","","null","resources/images/fishbone.png","null","",NA,NA,NA,NA,""
"image-keyboard-response",591,470067,"0.0-4.193-0.193","ebyoxtb4gdvrgk9",226,"199.csv","","308","resources/trios/L4T2A2.jpg","38","restless",0.8,0.5,0.4,0.903723888203553,"false"
"image-keyboard-response",592,470469,"0.0-4.193-1.193","ebyoxtb4gdvrgk9",226,"199.csv","","null","resources/maskTrios/BT2B.jpg","null","",NA,NA,NA,NA,""
"image-keyboard-response",593,471672,"0.0-4.193-2.193","ebyoxtb4gdvrgk9",226,"199.csv","","null","resources/images/fishbone.png","null","",NA,NA,NA,NA,""
"image-keyboard-response",594,472007,"0.0-4.194-0.194","ebyoxtb4gdvrgk9",226,"199.csv","","333.60000002384186","resources/trios/L4T2A2.jpg","39","restless",0.8,0.5,0.4,0.605456504382901,"false"
"image-keyboard-response",595,472409,"0.0-4.194-1.194","ebyoxtb4gdvrgk9",226,"199.csv","","null","resources/maskTrios/BBA2.jpg","null","",NA,NA,NA,NA,""
"image-keyboard-response",596,473626,"0.0-4.194-2.194","ebyoxtb4gdvrgk9",226,"199.csv","","null","resources/images/fishbone.png","null","",NA,NA,NA,NA,""
"image-keyboard-response",597,473879,"0.0-4.195-0.195","ebyoxtb4gdvrgk9",226,"199.csv","","251.5","resources/trios/L4T2A2.jpg","37","restless",0.7,0.5,0.4,0.848004169633826,"false"
"image-keyboard-response",598,474281,"0.0-4.195-1.195","ebyoxtb4gdvrgk9",226,"199.csv","","null","resources/maskTrios/L4BB.jpg","null","",NA,NA,NA,NA,""
"image-keyboard-response",599,475481,"0.0-4.195-2.195","ebyoxtb4gdvrgk9",226,"199.csv","","null","resources/images/fishbone.png","null","",NA,NA,NA,NA,""
"image-keyboard-response",600,475790,"0.0-4.196-0.196","ebyoxtb4gdvrgk9",226,"199.csv","","307.89999997615814","resources/trios/L4T2A2.jpg","38","restless",0.7,0.6,0.4,0.355442961826664,"true"
"image-keyboard-response",601,476192,"0.0-4.196-1.196","ebyoxtb4gdvrgk9",226,"199.csv","","null","resources/maskTrios/BT2B.jpg","null","",NA,NA,NA,NA,""
"image-keyboard-response",602,477394,"0.0-4.196-2.196","ebyoxtb4gdvrgk9",226,"199.csv","","null","resources/images/coin2.png","null","",NA,NA,NA,NA,""
"image-keyboard-response",603,477884,"0.0-4.197-0.197","ebyoxtb4gdvrgk9",226,"199.csv","","487.89999997615814","resources/trios/L4T2A2.jpg","39","restless",0.7,0.6,0.4,0.752595780008443,"false"
"image-keyboard-response",604,478287,"0.0-4.197-1.197","ebyoxtb4gdvrgk9",226,"199.csv","","null","resources/maskTrios/BBA2.jpg","null","",NA,NA,NA,NA,""
"image-keyboard-response",605,479489,"0.0-4.197-2.197","ebyoxtb4gdvrgk9",226,"199.csv","","null","resources/images/fishbone.png","null","",NA,NA,NA,NA,""
"image-keyboard-response",606,479889,"0.0-4.198-0.198","ebyoxtb4gdvrgk9",226,"199.csv","","398.7999999523163","resources/trios/L4T2A2.jpg","38","restless",0.7,0.6,0.5,0.580185657909459,"true"
"image-keyboard-response",607,480290,"0.0-4.198-1.198","ebyoxtb4gdvrgk9",226,"199.csv","","null","resources/maskTrios/BT2B.jpg","null","",NA,NA,NA,NA,""
"image-keyboard-response",608,481493,"0.0-4.198-2.198","ebyoxtb4gdvrgk9",226,"199.csv","","null","resources/images/coin2.png","null","",NA,NA,NA,NA,""
"image-keyboard-response",609,481861,"0.0-4.199-0.199","ebyoxtb4gdvrgk9",226,"199.csv","","367","resources/trios/L4T2A2.jpg","37","restless",0.7,0.6,0.5,0.503325976849351,"true"
