"trial_type","trial_index","time_elapsed","internal_node_id","subject","participantCode","walkNumber","success","rt","stimulus","key_press","test_part","leftProb","midProb","rightProb","generatedNum","correct"
"pavlovia",0,1129,"0.0-0.0","rp1rcej5njq4p66",118,"22.csv","","","","","",NA,NA,NA,NA,""
"fullscreen",1,3746,"0.0-1.0","rp1rcej5njq4p66",118,"22.csv","true","","","","",NA,NA,NA,NA,""
"survey-html-form",2,22119,"0.0-2.0","rp1rcej5njq4p66",118,"22.csv","","18261","","","",NA,NA,NA,NA,""
"image-keyboard-response",3,29793,"0.0-3.0-0.0","rp1rcej5njq4p66",118,"22.csv","","7673","resources/images/parrot_nobg.png","13","",NA,NA,NA,NA,""
"image-keyboard-response",4,32796,"0.0-3.0-1.0","rp1rcej5njq4p66",118,"22.csv","","null","resources/image_sets/111.png","null","",NA,NA,NA,NA,""
"image-keyboard-response",5,34502,"0.0-3.0-2.0","rp1rcej5njq4p66",118,"22.csv","","1702","resources/image_sets/left_highlight.png","37","",NA,NA,NA,NA,""
"image-keyboard-response",6,36036,"0.0-3.0-3.0","rp1rcej5njq4p66",118,"22.csv","","1532","resources/image_sets/mid_highlight.png","38","",NA,NA,NA,NA,""
"image-keyboard-response",7,37913,"0.0-3.0-4.0","rp1rcej5njq4p66",118,"22.csv","","1875","resources/image_sets/right_highlight.png","39","",NA,NA,NA,NA,""
"image-keyboard-response",8,38943,"0.0-3.0-5.0","rp1rcej5njq4p66",118,"22.csv","","1029","resources/image_sets/111.png","13","",NA,NA,NA,NA,""
"image-keyboard-response",9,40187,"0.0-3.0-6.0","rp1rcej5njq4p66",118,"22.csv","","1241","resources/images/coin2.png","13","",NA,NA,NA,NA,""
"image-keyboard-response",10,41046,"0.0-3.0-7.0","rp1rcej5njq4p66",118,"22.csv","","857","resources/images/fishbone.png","13","",NA,NA,NA,NA,""
"html-keyboard-response",11,42555,"0.0-3.0-8.0","rp1rcej5njq4p66",118,"22.csv","","1509","<p>You can track your coin total on the top right of your screen. </p><p>At the end of your journey you will be directed to a survey, so please click on the link before exiting the task</p><p>Press Enter to begin</p>","13","",NA,NA,NA,NA,""
"image-keyboard-response",12,43343,"0.0-4.0-0.0","rp1rcej5njq4p66",118,"22.csv","","784","resources/trios/L1T2A3.jpg","38","restless",0.3,0.9,0.7,0.196829817113368,"true"
"image-keyboard-response",13,43745,"0.0-4.0-1.0","rp1rcej5njq4p66",118,"22.csv","","null","resources/maskTrios/BT2B.jpg","null","",NA,NA,NA,NA,""
"image-keyboard-response",14,44948,"0.0-4.0-2.0","rp1rcej5njq4p66",118,"22.csv","","null","resources/images/coin2.png","null","",NA,NA,NA,NA,""
"image-keyboard-response",15,45560,"0.0-4.1-0.1","rp1rcej5njq4p66",118,"22.csv","","610","resources/trios/L1T2A3.jpg","38","restless",0.4,0.9,0.7,0.0501408448338175,"true"
"image-keyboard-response",16,45962,"0.0-4.1-1.1","rp1rcej5njq4p66",118,"22.csv","","null","resources/maskTrios/BT2B.jpg","null","",NA,NA,NA,NA,""
"image-keyboard-response",17,47174,"0.0-4.1-2.1","rp1rcej5njq4p66",118,"22.csv","","null","resources/images/coin2.png","null","",NA,NA,NA,NA,""
"image-keyboard-response",18,47567,"0.0-4.2-0.2","rp1rcej5njq4p66",118,"22.csv","","390","resources/trios/L1T2A3.jpg","38","restless",0.4,0.9,0.7,0.279943007174772,"true"
"image-keyboard-response",19,47970,"0.0-4.2-1.2","rp1rcej5njq4p66",118,"22.csv","","null","resources/maskTrios/BT2B.jpg","null","",NA,NA,NA,NA,""
"image-keyboard-response",20,49176,"0.0-4.2-2.2","rp1rcej5njq4p66",118,"22.csv","","null","resources/images/coin2.png","null","",NA,NA,NA,NA,""
"image-keyboard-response",21,49461,"0.0-4.3-0.3","rp1rcej5njq4p66",118,"22.csv","","282","resources/trios/L1T2A3.jpg","39","restless",0.4,0.9,0.7,0.070011152788783,"true"
"image-keyboard-response",22,49863,"0.0-4.3-1.3","rp1rcej5njq4p66",118,"22.csv","","null","resources/maskTrios/BBA3.jpg","null","",NA,NA,NA,NA,""
"image-keyboard-response",23,51066,"0.0-4.3-2.3","rp1rcej5njq4p66",118,"22.csv","","null","resources/images/coin2.png","null","",NA,NA,NA,NA,""
"image-keyboard-response",24,51082,"0.0-4.4-0.4","rp1rcej5njq4p66",118,"22.csv","","15","resources/trios/L1T2A3.jpg","37","restless",0.4,0.9,0.7,0.761329989325137,"false"
"image-keyboard-response",25,51485,"0.0-4.4-1.4","rp1rcej5njq4p66",118,"22.csv","","null","resources/maskTrios/L1BB.jpg","null","",NA,NA,NA,NA,""
"image-keyboard-response",26,52688,"0.0-4.4-2.4","rp1rcej5njq4p66",118,"22.csv","","null","resources/images/fishbone.png","null","",NA,NA,NA,NA,""
"image-keyboard-response",27,53002,"0.0-4.5-0.5","rp1rcej5njq4p66",118,"22.csv","","312","resources/trios/L1T2A3.jpg","37","restless",0.3,0.9,0.7,0.545474547662432,"false"
"image-keyboard-response",28,53404,"0.0-4.5-1.5","rp1rcej5njq4p66",118,"22.csv","","null","resources/maskTrios/L1BB.jpg","null","",NA,NA,NA,NA,""
"image-keyboard-response",29,54605,"0.0-4.5-2.5","rp1rcej5njq4p66",118,"22.csv","","null","resources/images/fishbone.png","null","",NA,NA,NA,NA,""
"image-keyboard-response",30,55066,"0.0-4.6-0.6","rp1rcej5njq4p66",118,"22.csv","","458","resources/trios/L1T2A3.jpg","38","restless",0.3,0.9,0.7,0.567442358840762,"true"
"image-keyboard-response",31,55469,"0.0-4.6-1.6","rp1rcej5njq4p66",118,"22.csv","","null","resources/maskTrios/BT2B.jpg","null","",NA,NA,NA,NA,""
"image-keyboard-response",32,56735,"0.0-4.6-2.6","rp1rcej5njq4p66",118,"22.csv","","null","resources/images/coin2.png","null","",NA,NA,NA,NA,""
"image-keyboard-response",33,56830,"0.0-4.7-0.7","rp1rcej5njq4p66",118,"22.csv","","92","resources/trios/L1T2A3.jpg","38","restless",0.3,0.9,0.6,0.415602088739333,"true"
"image-keyboard-response",34,57232,"0.0-4.7-1.7","rp1rcej5njq4p66",118,"22.csv","","null","resources/maskTrios/BT2B.jpg","null","",NA,NA,NA,NA,""
"image-keyboard-response",35,58434,"0.0-4.7-2.7","rp1rcej5njq4p66",118,"22.csv","","null","resources/images/coin2.png","null","",NA,NA,NA,NA,""
"image-keyboard-response",36,58445,"0.0-4.8-0.8","rp1rcej5njq4p66",118,"22.csv","","10","resources/trios/L1T2A3.jpg","38","restless",0.3,0.8,0.7,0.283767489183744,"true"
"image-keyboard-response",37,58848,"0.0-4.8-1.8","rp1rcej5njq4p66",118,"22.csv","","null","resources/maskTrios/BT2B.jpg","null","",NA,NA,NA,NA,""
"image-keyboard-response",38,60049,"0.0-4.8-2.8","rp1rcej5njq4p66",118,"22.csv","","null","resources/images/coin2.png","null","",NA,NA,NA,NA,""
"image-keyboard-response",39,60267,"0.0-4.9-0.9","rp1rcej5njq4p66",118,"22.csv","","217","resources/trios/L1T2A3.jpg","39","restless",0.3,0.8,0.7,0.626106538219346,"true"
"image-keyboard-response",40,60669,"0.0-4.9-1.9","rp1rcej5njq4p66",118,"22.csv","","null","resources/maskTrios/BBA3.jpg","null","",NA,NA,NA,NA,""
"image-keyboard-response",41,61871,"0.0-4.9-2.9","rp1rcej5njq4p66",118,"22.csv","","null","resources/images/coin2.png","null","",NA,NA,NA,NA,""
"image-keyboard-response",42,61896,"0.0-4.10-0.10","rp1rcej5njq4p66",118,"22.csv","","24","resources/trios/L1T2A3.jpg","38","restless",0.3,0.8,0.7,0.147426348009758,"true"
"image-keyboard-response",43,62298,"0.0-4.10-1.10","rp1rcej5njq4p66",118,"22.csv","","null","resources/maskTrios/BT2B.jpg","null","",NA,NA,NA,NA,""
"image-keyboard-response",44,63501,"0.0-4.10-2.10","rp1rcej5njq4p66",118,"22.csv","","null","resources/images/coin2.png","null","",NA,NA,NA,NA,""
"image-keyboard-response",45,63515,"0.0-4.11-0.11","rp1rcej5njq4p66",118,"22.csv","","13","resources/trios/L1T2A3.jpg","38","restless",0.3,0.8,0.7,0.0476956733212397,"true"
"image-keyboard-response",46,63917,"0.0-4.11-1.11","rp1rcej5njq4p66",118,"22.csv","","null","resources/maskTrios/BT2B.jpg","null","",NA,NA,NA,NA,""
"image-keyboard-response",47,65120,"0.0-4.11-2.11","rp1rcej5njq4p66",118,"22.csv","","null","resources/images/coin2.png","null","",NA,NA,NA,NA,""
"image-keyboard-response",48,65266,"0.0-4.12-0.12","rp1rcej5njq4p66",118,"22.csv","","146","resources/trios/L1T2A3.jpg","38","restless",0.3,0.8,0.7,0.440690486696163,"true"
"image-keyboard-response",49,65697,"0.0-4.12-1.12","rp1rcej5njq4p66",118,"22.csv","","null","resources/maskTrios/BT2B.jpg","null","",NA,NA,NA,NA,""
"image-keyboard-response",50,66899,"0.0-4.12-2.12","rp1rcej5njq4p66",118,"22.csv","","null","resources/images/coin2.png","null","",NA,NA,NA,NA,""
"image-keyboard-response",51,67109,"0.0-4.13-0.13","rp1rcej5njq4p66",118,"22.csv","","208","resources/trios/L1T2A3.jpg","38","restless",0.3,0.8,0.6,0.809024621763491,"false"
"image-keyboard-response",52,67512,"0.0-4.13-1.13","rp1rcej5njq4p66",118,"22.csv","","null","resources/maskTrios/BT2B.jpg","null","",NA,NA,NA,NA,""
"image-keyboard-response",53,68713,"0.0-4.13-2.13","rp1rcej5njq4p66",118,"22.csv","","null","resources/images/fishbone.png","null","",NA,NA,NA,NA,""
"image-keyboard-response",54,68799,"0.0-4.14-0.14","rp1rcej5njq4p66",118,"22.csv","","84","resources/trios/L1T2A3.jpg","39","restless",0.3,0.8,0.6,0.585499031672277,"true"
"image-keyboard-response",55,69201,"0.0-4.14-1.14","rp1rcej5njq4p66",118,"22.csv","","null","resources/maskTrios/BBA3.jpg","null","",NA,NA,NA,NA,""
"image-keyboard-response",56,70402,"0.0-4.14-2.14","rp1rcej5njq4p66",118,"22.csv","","null","resources/images/coin2.png","null","",NA,NA,NA,NA,""
"image-keyboard-response",57,70555,"0.0-4.15-0.15","rp1rcej5njq4p66",118,"22.csv","","150","resources/trios/L1T2A3.jpg","39","restless",0.3,0.8,0.6,0.436828006705234,"true"
"image-keyboard-response",58,70958,"0.0-4.15-1.15","rp1rcej5njq4p66",118,"22.csv","","null","resources/maskTrios/BBA3.jpg","null","",NA,NA,NA,NA,""
"image-keyboard-response",59,72160,"0.0-4.15-2.15","rp1rcej5njq4p66",118,"22.csv","","null","resources/images/coin2.png","null","",NA,NA,NA,NA,""
"image-keyboard-response",60,72305,"0.0-4.16-0.16","rp1rcej5njq4p66",118,"22.csv","","143","resources/trios/L1T2A3.jpg","39","restless",0.3,0.8,0.6,0.920903667545991,"false"
"image-keyboard-response",61,72708,"0.0-4.16-1.16","rp1rcej5njq4p66",118,"22.csv","","null","resources/maskTrios/BBA3.jpg","null","",NA,NA,NA,NA,""
"image-keyboard-response",62,73911,"0.0-4.16-2.16","rp1rcej5njq4p66",118,"22.csv","","null","resources/images/fishbone.png","null","",NA,NA,NA,NA,""
"image-keyboard-response",63,74185,"0.0-4.17-0.17","rp1rcej5njq4p66",118,"22.csv","","271","resources/trios/L1T2A3.jpg","37","restless",0.3,0.8,0.6,0.218443417146833,"true"
"image-keyboard-response",64,74589,"0.0-4.17-1.17","rp1rcej5njq4p66",118,"22.csv","","null","resources/maskTrios/L1BB.jpg","null","",NA,NA,NA,NA,""
"image-keyboard-response",65,75913,"0.0-4.17-2.17","rp1rcej5njq4p66",118,"22.csv","","null","resources/images/coin2.png","null","",NA,NA,NA,NA,""
"image-keyboard-response",66,75950,"0.0-4.18-0.18","rp1rcej5njq4p66",118,"22.csv","","35","resources/trios/L1T2A3.jpg","37","restless",0.3,0.8,0.6,0.781312501155858,"false"
"image-keyboard-response",67,76353,"0.0-4.18-1.18","rp1rcej5njq4p66",118,"22.csv","","null","resources/maskTrios/L1BB.jpg","null","",NA,NA,NA,NA,""
"image-keyboard-response",68,77554,"0.0-4.18-2.18","rp1rcej5njq4p66",118,"22.csv","","null","resources/images/fishbone.png","null","",NA,NA,NA,NA,""
"image-keyboard-response",69,77558,"0.0-4.19-0.19","rp1rcej5njq4p66",118,"22.csv","","2","resources/trios/L1T2A3.jpg","38","restless",0.3,0.8,0.5,0.30855108771868,"true"
"image-keyboard-response",70,77959,"0.0-4.19-1.19","rp1rcej5njq4p66",118,"22.csv","","null","resources/maskTrios/BT2B.jpg","null","",NA,NA,NA,NA,""
"image-keyboard-response",71,79161,"0.0-4.19-2.19","rp1rcej5njq4p66",118,"22.csv","","null","resources/images/coin2.png","null","",NA,NA,NA,NA,""
"image-keyboard-response",72,79419,"0.0-4.20-0.20","rp1rcej5njq4p66",118,"22.csv","","256","resources/trios/L1T2A3.jpg","39","restless",0.3,0.8,0.5,0.456598583745858,"true"
"image-keyboard-response",73,79821,"0.0-4.20-1.20","rp1rcej5njq4p66",118,"22.csv","","null","resources/maskTrios/BBA3.jpg","null","",NA,NA,NA,NA,""
"image-keyboard-response",74,81024,"0.0-4.20-2.20","rp1rcej5njq4p66",118,"22.csv","","null","resources/images/coin2.png","null","",NA,NA,NA,NA,""
"image-keyboard-response",75,81279,"0.0-4.21-0.21","rp1rcej5njq4p66",118,"22.csv","","255","resources/trios/L1T2A3.jpg","38","restless",0.2,0.8,0.5,0.960793879215754,"false"
"image-keyboard-response",76,81682,"0.0-4.21-1.21","rp1rcej5njq4p66",118,"22.csv","","null","resources/maskTrios/BT2B.jpg","null","",NA,NA,NA,NA,""
"image-keyboard-response",77,83025,"0.0-4.21-2.21","rp1rcej5njq4p66",118,"22.csv","","null","resources/images/fishbone.png","null","",NA,NA,NA,NA,""
"image-keyboard-response",78,83328,"0.0-4.22-0.22","rp1rcej5njq4p66",118,"22.csv","","302","resources/trios/L1T2A3.jpg","38","restless",0.2,0.8,0.5,0.758156296113717,"true"
"image-keyboard-response",79,83730,"0.0-4.22-1.22","rp1rcej5njq4p66",118,"22.csv","","null","resources/maskTrios/BT2B.jpg","null","",NA,NA,NA,NA,""
"image-keyboard-response",80,85043,"0.0-4.22-2.22","rp1rcej5njq4p66",118,"22.csv","","null","resources/images/coin2.png","null","",NA,NA,NA,NA,""
"image-keyboard-response",81,85047,"0.0-4.23-0.23","rp1rcej5njq4p66",118,"22.csv","","2","resources/trios/L1T2A3.jpg","38","restless",0.2,0.8,0.5,0.69870136607357,"true"
"image-keyboard-response",82,85448,"0.0-4.23-1.23","rp1rcej5njq4p66",118,"22.csv","","null","resources/maskTrios/BT2B.jpg","null","",NA,NA,NA,NA,""
"image-keyboard-response",83,86651,"0.0-4.23-2.23","rp1rcej5njq4p66",118,"22.csv","","null","resources/images/coin2.png","null","",NA,NA,NA,NA,""
"image-keyboard-response",84,86797,"0.0-4.24-0.24","rp1rcej5njq4p66",118,"22.csv","","146","resources/trios/L1T2A3.jpg","38","restless",0.2,0.8,0.5,0.415958377813596,"true"
"image-keyboard-response",85,87200,"0.0-4.24-1.24","rp1rcej5njq4p66",118,"22.csv","","null","resources/maskTrios/BT2B.jpg","null","",NA,NA,NA,NA,""
"image-keyboard-response",86,88402,"0.0-4.24-2.24","rp1rcej5njq4p66",118,"22.csv","","null","resources/images/coin2.png","null","",NA,NA,NA,NA,""
"image-keyboard-response",87,88436,"0.0-4.25-0.25","rp1rcej5njq4p66",118,"22.csv","","32","resources/trios/L1T2A3.jpg","38","restless",0.2,0.8,0.5,0.909023760548749,"false"
"image-keyboard-response",88,88838,"0.0-4.25-1.25","rp1rcej5njq4p66",118,"22.csv","","null","resources/maskTrios/BT2B.jpg","null","",NA,NA,NA,NA,""
"image-keyboard-response",89,90040,"0.0-4.25-2.25","rp1rcej5njq4p66",118,"22.csv","","null","resources/images/fishbone.png","null","",NA,NA,NA,NA,""
"image-keyboard-response",90,90064,"0.0-4.26-0.26","rp1rcej5njq4p66",118,"22.csv","","23","resources/trios/L1T2A3.jpg","38","restless",0.2,0.8,0.5,0.527812857178316,"true"
"image-keyboard-response",91,90467,"0.0-4.26-1.26","rp1rcej5njq4p66",118,"22.csv","","null","resources/maskTrios/BT2B.jpg","null","",NA,NA,NA,NA,""
"image-keyboard-response",92,91669,"0.0-4.26-2.26","rp1rcej5njq4p66",118,"22.csv","","null","resources/images/coin2.png","null","",NA,NA,NA,NA,""
"image-keyboard-response",93,91684,"0.0-4.27-0.27","rp1rcej5njq4p66",118,"22.csv","","14","resources/trios/L1T2A3.jpg","38","restless",0.2,0.8,0.5,0.67162549048204,"true"
"image-keyboard-response",94,92087,"0.0-4.27-1.27","rp1rcej5njq4p66",118,"22.csv","","null","resources/maskTrios/BT2B.jpg","null","",NA,NA,NA,NA,""
"image-keyboard-response",95,93290,"0.0-4.27-2.27","rp1rcej5njq4p66",118,"22.csv","","null","resources/images/coin2.png","null","",NA,NA,NA,NA,""
"image-keyboard-response",96,93342,"0.0-4.28-0.28","rp1rcej5njq4p66",118,"22.csv","","51","resources/trios/L1T2A3.jpg","37","restless",0.2,0.8,0.5,0.603071794885192,"false"
"image-keyboard-response",97,93745,"0.0-4.28-1.28","rp1rcej5njq4p66",118,"22.csv","","null","resources/maskTrios/L1BB.jpg","null","",NA,NA,NA,NA,""
"image-keyboard-response",98,94946,"0.0-4.28-2.28","rp1rcej5njq4p66",118,"22.csv","","null","resources/images/fishbone.png","null","",NA,NA,NA,NA,""
"image-keyboard-response",99,95031,"0.0-4.29-0.29","rp1rcej5njq4p66",118,"22.csv","","84","resources/trios/L1T2A3.jpg","37","restless",0.2,0.8,0.5,0.238492957128017,"false"
"image-keyboard-response",100,95434,"0.0-4.29-1.29","rp1rcej5njq4p66",118,"22.csv","","null","resources/maskTrios/L1BB.jpg","null","",NA,NA,NA,NA,""
"image-keyboard-response",101,96636,"0.0-4.29-2.29","rp1rcej5njq4p66",118,"22.csv","","null","resources/images/fishbone.png","null","",NA,NA,NA,NA,""
"image-keyboard-response",102,96681,"0.0-4.30-0.30","rp1rcej5njq4p66",118,"22.csv","","44","resources/trios/L1T2A3.jpg","39","restless",0.2,0.8,0.5,0.465463604632324,"true"
"image-keyboard-response",103,97083,"0.0-4.30-1.30","rp1rcej5njq4p66",118,"22.csv","","null","resources/maskTrios/BBA3.jpg","null","",NA,NA,NA,NA,""
"image-keyboard-response",104,98285,"0.0-4.30-2.30","rp1rcej5njq4p66",118,"22.csv","","null","resources/images/coin2.png","null","",NA,NA,NA,NA,""
"image-keyboard-response",105,98316,"0.0-4.31-0.31","rp1rcej5njq4p66",118,"22.csv","","29","resources/trios/L1T2A3.jpg","39","restless",0.2,0.8,0.5,0.861155740106214,"false"
"image-keyboard-response",106,98718,"0.0-4.31-1.31","rp1rcej5njq4p66",118,"22.csv","","null","resources/maskTrios/BBA3.jpg","null","",NA,NA,NA,NA,""
"image-keyboard-response",107,99920,"0.0-4.31-2.31","rp1rcej5njq4p66",118,"22.csv","","null","resources/images/fishbone.png","null","",NA,NA,NA,NA,""
"image-keyboard-response",108,100454,"0.0-4.32-0.32","rp1rcej5njq4p66",118,"22.csv","","533","resources/trios/L1T2A3.jpg","38","restless",0.2,0.8,0.5,0.602973787965951,"true"
"image-keyboard-response",109,100857,"0.0-4.32-1.32","rp1rcej5njq4p66",118,"22.csv","","null","resources/maskTrios/BT2B.jpg","null","",NA,NA,NA,NA,""
"image-keyboard-response",110,102059,"0.0-4.32-2.32","rp1rcej5njq4p66",118,"22.csv","","null","resources/images/coin2.png","null","",NA,NA,NA,NA,""
"image-keyboard-response",111,102105,"0.0-4.33-0.33","rp1rcej5njq4p66",118,"22.csv","","44","resources/trios/L1T2A3.jpg","38","restless",0.2,0.8,0.4,0.523471201237656,"true"
"image-keyboard-response",112,102507,"0.0-4.33-1.33","rp1rcej5njq4p66",118,"22.csv","","null","resources/maskTrios/BT2B.jpg","null","",NA,NA,NA,NA,""
"image-keyboard-response",113,103710,"0.0-4.33-2.33","rp1rcej5njq4p66",118,"22.csv","","null","resources/images/coin2.png","null","",NA,NA,NA,NA,""
"image-keyboard-response",114,103801,"0.0-4.34-0.34","rp1rcej5njq4p66",118,"22.csv","","90","resources/trios/L1T2A3.jpg","38","restless",0.2,0.8,0.4,0.893345072021745,"false"
"image-keyboard-response",115,104203,"0.0-4.34-1.34","rp1rcej5njq4p66",118,"22.csv","","null","resources/maskTrios/BT2B.jpg","null","",NA,NA,NA,NA,""
"image-keyboard-response",116,105405,"0.0-4.34-2.34","rp1rcej5njq4p66",118,"22.csv","","null","resources/images/fishbone.png","null","",NA,NA,NA,NA,""
"image-keyboard-response",117,105547,"0.0-4.35-0.35","rp1rcej5njq4p66",118,"22.csv","","140","resources/trios/L1T2A3.jpg","37","restless",0.1,0.8,0.4,0.647967317150878,"false"
"image-keyboard-response",118,105949,"0.0-4.35-1.35","rp1rcej5njq4p66",118,"22.csv","","null","resources/maskTrios/L1BB.jpg","null","",NA,NA,NA,NA,""
"image-keyboard-response",119,107150,"0.0-4.35-2.35","rp1rcej5njq4p66",118,"22.csv","","null","resources/images/fishbone.png","null","",NA,NA,NA,NA,""
"image-keyboard-response",120,107375,"0.0-4.36-0.36","rp1rcej5njq4p66",118,"22.csv","","224","resources/trios/L1T2A3.jpg","39","restless",0.1,0.7,0.4,0.473082540714456,"false"
"image-keyboard-response",121,107777,"0.0-4.36-1.36","rp1rcej5njq4p66",118,"22.csv","","null","resources/maskTrios/BBA3.jpg","null","",NA,NA,NA,NA,""
"image-keyboard-response",122,108980,"0.0-4.36-2.36","rp1rcej5njq4p66",118,"22.csv","","null","resources/images/fishbone.png","null","",NA,NA,NA,NA,""
"image-keyboard-response",123,109102,"0.0-4.37-0.37","rp1rcej5njq4p66",118,"22.csv","","118","resources/trios/L1T2A3.jpg","37","restless",0.1,0.7,0.4,0.34665266320834,"false"
"image-keyboard-response",124,109506,"0.0-4.37-1.37","rp1rcej5njq4p66",118,"22.csv","","null","resources/maskTrios/L1BB.jpg","null","",NA,NA,NA,NA,""
"image-keyboard-response",125,110708,"0.0-4.37-2.37","rp1rcej5njq4p66",118,"22.csv","","null","resources/images/fishbone.png","null","",NA,NA,NA,NA,""
"image-keyboard-response",126,110848,"0.0-4.38-0.38","rp1rcej5njq4p66",118,"22.csv","","139","resources/trios/L1T2A3.jpg","39","restless",0.1,0.7,0.4,0.946321039679358,"false"
"image-keyboard-response",127,111251,"0.0-4.38-1.38","rp1rcej5njq4p66",118,"22.csv","","null","resources/maskTrios/BBA3.jpg","null","",NA,NA,NA,NA,""
"image-keyboard-response",128,112453,"0.0-4.38-2.38","rp1rcej5njq4p66",118,"22.csv","","null","resources/images/fishbone.png","null","",NA,NA,NA,NA,""
"image-keyboard-response",129,112501,"0.0-4.39-0.39","rp1rcej5njq4p66",118,"22.csv","","42","resources/trios/L1T2A3.jpg","39","restless",0.1,0.7,0.4,0.489731012806738,"false"
"image-keyboard-response",130,112903,"0.0-4.39-1.39","rp1rcej5njq4p66",118,"22.csv","","null","resources/maskTrios/BBA3.jpg","null","",NA,NA,NA,NA,""
"image-keyboard-response",131,114106,"0.0-4.39-2.39","rp1rcej5njq4p66",118,"22.csv","","null","resources/images/fishbone.png","null","",NA,NA,NA,NA,""
"image-keyboard-response",132,114215,"0.0-4.40-0.40","rp1rcej5njq4p66",118,"22.csv","","107","resources/trios/L1T2A3.jpg","37","restless",0.1,0.7,0.4,0.324255152754737,"false"
"image-keyboard-response",133,114618,"0.0-4.40-1.40","rp1rcej5njq4p66",118,"22.csv","","null","resources/maskTrios/L1BB.jpg","null","",NA,NA,NA,NA,""
"image-keyboard-response",134,115820,"0.0-4.40-2.40","rp1rcej5njq4p66",118,"22.csv","","null","resources/images/fishbone.png","null","",NA,NA,NA,NA,""
"image-keyboard-response",135,115865,"0.0-4.41-0.41","rp1rcej5njq4p66",118,"22.csv","","44","resources/trios/L1T2A3.jpg","37","restless",0.1,0.7,0.4,0.0326948853942277,"true"
"image-keyboard-response",136,116267,"0.0-4.41-1.41","rp1rcej5njq4p66",118,"22.csv","","null","resources/maskTrios/L1BB.jpg","null","",NA,NA,NA,NA,""
"image-keyboard-response",137,117469,"0.0-4.41-2.41","rp1rcej5njq4p66",118,"22.csv","","null","resources/images/coin2.png","null","",NA,NA,NA,NA,""
"image-keyboard-response",138,117628,"0.0-4.42-0.42","rp1rcej5njq4p66",118,"22.csv","","158","resources/trios/L1T2A3.jpg","37","restless",0.2,0.7,0.4,0.193030847694416,"true"
"image-keyboard-response",139,118032,"0.0-4.42-1.42","rp1rcej5njq4p66",118,"22.csv","","null","resources/maskTrios/L1BB.jpg","null","",NA,NA,NA,NA,""
"image-keyboard-response",140,119350,"0.0-4.42-2.42","rp1rcej5njq4p66",118,"22.csv","","null","resources/images/coin2.png","null","",NA,NA,NA,NA,""
"image-keyboard-response",141,119400,"0.0-4.43-0.43","rp1rcej5njq4p66",118,"22.csv","","48","resources/trios/L1T2A3.jpg","37","restless",0.2,0.7,0.4,0.974086416263051,"false"
"image-keyboard-response",142,119802,"0.0-4.43-1.43","rp1rcej5njq4p66",118,"22.csv","","null","resources/maskTrios/L1BB.jpg","null","",NA,NA,NA,NA,""
"image-keyboard-response",143,121004,"0.0-4.43-2.43","rp1rcej5njq4p66",118,"22.csv","","null","resources/images/fishbone.png","null","",NA,NA,NA,NA,""
"image-keyboard-response",144,121068,"0.0-4.44-0.44","rp1rcej5njq4p66",118,"22.csv","","61","resources/trios/L1T2A3.jpg","37","restless",0.2,0.7,0.4,0.19631174332471,"true"
"image-keyboard-response",145,121471,"0.0-4.44-1.44","rp1rcej5njq4p66",118,"22.csv","","null","resources/maskTrios/L1BB.jpg","null","",NA,NA,NA,NA,""
"image-keyboard-response",146,122672,"0.0-4.44-2.44","rp1rcej5njq4p66",118,"22.csv","","null","resources/images/coin2.png","null","",NA,NA,NA,NA,""
"image-keyboard-response",147,122880,"0.0-4.45-0.45","rp1rcej5njq4p66",118,"22.csv","","206","resources/trios/L1T2A3.jpg","37","restless",0.2,0.7,0.4,0.945822378828415,"false"
"image-keyboard-response",148,123282,"0.0-4.45-1.45","rp1rcej5njq4p66",118,"22.csv","","null","resources/maskTrios/L1BB.jpg","null","",NA,NA,NA,NA,""
"image-keyboard-response",149,124484,"0.0-4.45-2.45","rp1rcej5njq4p66",118,"22.csv","","null","resources/images/fishbone.png","null","",NA,NA,NA,NA,""
"image-keyboard-response",150,124577,"0.0-4.46-0.46","rp1rcej5njq4p66",118,"22.csv","","91","resources/trios/L1T2A3.jpg","37","restless",0.2,0.7,0.4,0.107230727379069,"true"
"image-keyboard-response",151,124980,"0.0-4.46-1.46","rp1rcej5njq4p66",118,"22.csv","","null","resources/maskTrios/L1BB.jpg","null","",NA,NA,NA,NA,""
"image-keyboard-response",152,126181,"0.0-4.46-2.46","rp1rcej5njq4p66",118,"22.csv","","null","resources/images/coin2.png","null","",NA,NA,NA,NA,""
"image-keyboard-response",153,126191,"0.0-4.47-0.47","rp1rcej5njq4p66",118,"22.csv","","9","resources/trios/L1T2A3.jpg","39","restless",0.2,0.7,0.4,0.56261552981659,"false"
"image-keyboard-response",154,126594,"0.0-4.47-1.47","rp1rcej5njq4p66",118,"22.csv","","null","resources/maskTrios/BBA3.jpg","null","",NA,NA,NA,NA,""
"image-keyboard-response",155,127796,"0.0-4.47-2.47","rp1rcej5njq4p66",118,"22.csv","","null","resources/images/fishbone.png","null","",NA,NA,NA,NA,""
"image-keyboard-response",156,128287,"0.0-4.48-0.48","rp1rcej5njq4p66",118,"22.csv","","490","resources/trios/L1T2A3.jpg","37","restless",0.2,0.7,0.4,0.218213829517188,"false"
"image-keyboard-response",157,128690,"0.0-4.48-1.48","rp1rcej5njq4p66",118,"22.csv","","null","resources/maskTrios/L1BB.jpg","null","",NA,NA,NA,NA,""
"image-keyboard-response",158,129892,"0.0-4.48-2.48","rp1rcej5njq4p66",118,"22.csv","","null","resources/images/fishbone.png","null","",NA,NA,NA,NA,""
"image-keyboard-response",159,129980,"0.0-4.49-0.49","rp1rcej5njq4p66",118,"22.csv","","86","resources/trios/L1T2A3.jpg","38","restless",0.2,0.7,0.4,0.421809436231686,"true"
"image-keyboard-response",160,130382,"0.0-4.49-1.49","rp1rcej5njq4p66",118,"22.csv","","null","resources/maskTrios/BT2B.jpg","null","",NA,NA,NA,NA,""
"image-keyboard-response",161,131719,"0.0-4.49-2.49","rp1rcej5njq4p66",118,"22.csv","","null","resources/images/coin2.png","null","",NA,NA,NA,NA,""
"image-keyboard-response",162,131795,"0.0-4.50-0.50","rp1rcej5njq4p66",118,"22.csv","","77","resources/trios/L1T2A3.jpg","39","restless",0.3,0.7,0.4,0.40587024843924,"false"
"image-keyboard-response",163,132198,"0.0-4.50-1.50","rp1rcej5njq4p66",118,"22.csv","","null","resources/maskTrios/BBA3.jpg","null","",NA,NA,NA,NA,""
"image-keyboard-response",164,133400,"0.0-4.50-2.50","rp1rcej5njq4p66",118,"22.csv","","null","resources/images/fishbone.png","null","",NA,NA,NA,NA,""
"image-keyboard-response",165,133421,"0.0-4.51-0.51","rp1rcej5njq4p66",118,"22.csv","","15","resources/trios/L1T2A3.jpg","37","restless",0.2,0.7,0.4,0.621364383254356,"false"
"image-keyboard-response",166,133825,"0.0-4.51-1.51","rp1rcej5njq4p66",118,"22.csv","","null","resources/maskTrios/L1BB.jpg","null","",NA,NA,NA,NA,""
"image-keyboard-response",167,135028,"0.0-4.51-2.51","rp1rcej5njq4p66",118,"22.csv","","null","resources/images/fishbone.png","null","",NA,NA,NA,NA,""
"image-keyboard-response",168,135122,"0.0-4.52-0.52","rp1rcej5njq4p66",118,"22.csv","","92","resources/trios/L1T2A3.jpg","39","restless",0.3,0.7,0.4,0.228391121595198,"true"
"image-keyboard-response",169,135524,"0.0-4.52-1.52","rp1rcej5njq4p66",118,"22.csv","","null","resources/maskTrios/BBA3.jpg","null","",NA,NA,NA,NA,""
"image-keyboard-response",170,136726,"0.0-4.52-2.52","rp1rcej5njq4p66",118,"22.csv","","null","resources/images/coin2.png","null","",NA,NA,NA,NA,""
"image-keyboard-response",171,136739,"0.0-4.53-0.53","rp1rcej5njq4p66",118,"22.csv","","10","resources/trios/L1T2A3.jpg","37","restless",0.3,0.7,0.4,0.45064779982774,"false"
"image-keyboard-response",172,137142,"0.0-4.53-1.53","rp1rcej5njq4p66",118,"22.csv","","null","resources/maskTrios/L1BB.jpg","null","",NA,NA,NA,NA,""
"image-keyboard-response",173,138344,"0.0-4.53-2.53","rp1rcej5njq4p66",118,"22.csv","","null","resources/images/fishbone.png","null","",NA,NA,NA,NA,""
"image-keyboard-response",174,138348,"0.0-4.54-0.54","rp1rcej5njq4p66",118,"22.csv","","2","resources/trios/L1T2A3.jpg","38","restless",0.3,0.7,0.4,0.739282157156214,"false"
"image-keyboard-response",175,138750,"0.0-4.54-1.54","rp1rcej5njq4p66",118,"22.csv","","null","resources/maskTrios/BT2B.jpg","null","",NA,NA,NA,NA,""
"image-keyboard-response",176,139970,"0.0-4.54-2.54","rp1rcej5njq4p66",118,"22.csv","","null","resources/images/fishbone.png","null","",NA,NA,NA,NA,""
"image-keyboard-response",177,140050,"0.0-4.55-0.55","rp1rcej5njq4p66",118,"22.csv","","78","resources/trios/L1T2A3.jpg","39","restless",0.3,0.7,0.4,0.786138131072963,"false"
"image-keyboard-response",178,140453,"0.0-4.55-1.55","rp1rcej5njq4p66",118,"22.csv","","null","resources/maskTrios/BBA3.jpg","null","",NA,NA,NA,NA,""
"image-keyboard-response",179,141655,"0.0-4.55-2.55","rp1rcej5njq4p66",118,"22.csv","","null","resources/images/fishbone.png","null","",NA,NA,NA,NA,""
"image-keyboard-response",180,141745,"0.0-4.56-0.56","rp1rcej5njq4p66",118,"22.csv","","88","resources/trios/L1T2A3.jpg","39","restless",0.3,0.7,0.4,0.370712981111057,"true"
"image-keyboard-response",181,142148,"0.0-4.56-1.56","rp1rcej5njq4p66",118,"22.csv","","null","resources/maskTrios/BBA3.jpg","null","",NA,NA,NA,NA,""
"image-keyboard-response",182,143350,"0.0-4.56-2.56","rp1rcej5njq4p66",118,"22.csv","","null","resources/images/coin2.png","null","",NA,NA,NA,NA,""
"image-keyboard-response",183,143470,"0.0-4.57-0.57","rp1rcej5njq4p66",118,"22.csv","","119","resources/trios/L1T2A3.jpg","39","restless",0.3,0.7,0.4,0.199812025660774,"true"
"image-keyboard-response",184,143873,"0.0-4.57-1.57","rp1rcej5njq4p66",118,"22.csv","","null","resources/maskTrios/BBA3.jpg","null","",NA,NA,NA,NA,""
"image-keyboard-response",185,145076,"0.0-4.57-2.57","rp1rcej5njq4p66",118,"22.csv","","null","resources/images/coin2.png","null","",NA,NA,NA,NA,""
"image-keyboard-response",186,145689,"0.0-4.58-0.58","rp1rcej5njq4p66",118,"22.csv","","612","resources/trios/L1T2A3.jpg","39","restless",0.3,0.7,0.4,0.717990078341062,"false"
"image-keyboard-response",187,146092,"0.0-4.58-1.58","rp1rcej5njq4p66",118,"22.csv","","null","resources/maskTrios/BBA3.jpg","null","",NA,NA,NA,NA,""
"image-keyboard-response",188,147294,"0.0-4.58-2.58","rp1rcej5njq4p66",118,"22.csv","","null","resources/images/fishbone.png","null","",NA,NA,NA,NA,""
"image-keyboard-response",189,147458,"0.0-4.59-0.59","rp1rcej5njq4p66",118,"22.csv","","161","resources/trios/L1T2A3.jpg","39","restless",0.3,0.8,0.4,0.435050463937424,"false"
"image-keyboard-response",190,147861,"0.0-4.59-1.59","rp1rcej5njq4p66",118,"22.csv","","null","resources/maskTrios/BBA3.jpg","null","",NA,NA,NA,NA,""
"image-keyboard-response",191,149063,"0.0-4.59-2.59","rp1rcej5njq4p66",118,"22.csv","","null","resources/images/fishbone.png","null","",NA,NA,NA,NA,""
"image-keyboard-response",192,149254,"0.0-4.60-0.60","rp1rcej5njq4p66",118,"22.csv","","190","resources/trios/L1T2A3.jpg","39","restless",0.3,0.8,0.4,0.835654596733935,"false"
"image-keyboard-response",193,149657,"0.0-4.60-1.60","rp1rcej5njq4p66",118,"22.csv","","null","resources/maskTrios/BBA3.jpg","null","",NA,NA,NA,NA,""
"image-keyboard-response",194,150859,"0.0-4.60-2.60","rp1rcej5njq4p66",118,"22.csv","","null","resources/images/fishbone.png","null","",NA,NA,NA,NA,""
"image-keyboard-response",195,151014,"0.0-4.61-0.61","rp1rcej5njq4p66",118,"22.csv","","153","resources/trios/L1T2A3.jpg","38","restless",0.3,0.8,0.4,0.971955164313267,"false"
"image-keyboard-response",196,151416,"0.0-4.61-1.61","rp1rcej5njq4p66",118,"22.csv","","null","resources/maskTrios/BT2B.jpg","null","",NA,NA,NA,NA,""
"image-keyboard-response",197,152618,"0.0-4.61-2.61","rp1rcej5njq4p66",118,"22.csv","","null","resources/images/fishbone.png","null","",NA,NA,NA,NA,""
"image-keyboard-response",198,152648,"0.0-4.62-0.62","rp1rcej5njq4p66",118,"22.csv","","29","resources/trios/L1T2A3.jpg","38","restless",0.3,0.8,0.4,0.220805626405893,"true"
"image-keyboard-response",199,153050,"0.0-4.62-1.62","rp1rcej5njq4p66",118,"22.csv","","null","resources/maskTrios/BT2B.jpg","null","",NA,NA,NA,NA,""
"image-keyboard-response",200,154252,"0.0-4.62-2.62","rp1rcej5njq4p66",118,"22.csv","","null","resources/images/coin2.png","null","",NA,NA,NA,NA,""
"image-keyboard-response",201,154323,"0.0-4.63-0.63","rp1rcej5njq4p66",118,"22.csv","","69","resources/trios/L1T2A3.jpg","38","restless",0.4,0.8,0.4,0.680147443157477,"true"
"image-keyboard-response",202,154725,"0.0-4.63-1.63","rp1rcej5njq4p66",118,"22.csv","","null","resources/maskTrios/BT2B.jpg","null","",NA,NA,NA,NA,""
"image-keyboard-response",203,155927,"0.0-4.63-2.63","rp1rcej5njq4p66",118,"22.csv","","null","resources/images/coin2.png","null","",NA,NA,NA,NA,""
"image-keyboard-response",204,155997,"0.0-4.64-0.64","rp1rcej5njq4p66",118,"22.csv","","68","resources/trios/L1T2A3.jpg","39","restless",0.4,0.7,0.4,0.15234083498455,"true"
"image-keyboard-response",205,156400,"0.0-4.64-1.64","rp1rcej5njq4p66",118,"22.csv","","null","resources/maskTrios/BBA3.jpg","null","",NA,NA,NA,NA,""
"image-keyboard-response",206,157602,"0.0-4.64-2.64","rp1rcej5njq4p66",118,"22.csv","","null","resources/images/coin2.png","null","",NA,NA,NA,NA,""
"image-keyboard-response",207,157664,"0.0-4.65-0.65","rp1rcej5njq4p66",118,"22.csv","","59","resources/trios/L1T2A3.jpg","37","restless",0.4,0.7,0.3,0.493585336003187,"false"
"image-keyboard-response",208,158066,"0.0-4.65-1.65","rp1rcej5njq4p66",118,"22.csv","","null","resources/maskTrios/L1BB.jpg","null","",NA,NA,NA,NA,""
"image-keyboard-response",209,159268,"0.0-4.65-2.65","rp1rcej5njq4p66",118,"22.csv","","null","resources/images/fishbone.png","null","",NA,NA,NA,NA,""
"image-keyboard-response",210,159314,"0.0-4.66-0.66","rp1rcej5njq4p66",118,"22.csv","","44","resources/trios/L1T2A3.jpg","38","restless",0.4,0.7,0.3,0.0686807324504061,"true"
"image-keyboard-response",211,159716,"0.0-4.66-1.66","rp1rcej5njq4p66",118,"22.csv","","null","resources/maskTrios/BT2B.jpg","null","",NA,NA,NA,NA,""
"image-keyboard-response",212,160918,"0.0-4.66-2.66","rp1rcej5njq4p66",118,"22.csv","","null","resources/images/coin2.png","null","",NA,NA,NA,NA,""
"image-keyboard-response",213,160989,"0.0-4.67-0.67","rp1rcej5njq4p66",118,"22.csv","","69","resources/trios/L1T2A3.jpg","39","restless",0.4,0.8,0.3,0.442346022909586,"false"
"image-keyboard-response",214,161393,"0.0-4.67-1.67","rp1rcej5njq4p66",118,"22.csv","","null","resources/maskTrios/BBA3.jpg","null","",NA,NA,NA,NA,""
"image-keyboard-response",215,162621,"0.0-4.67-2.67","rp1rcej5njq4p66",118,"22.csv","","null","resources/images/fishbone.png","null","",NA,NA,NA,NA,""
"image-keyboard-response",216,162662,"0.0-4.68-0.68","rp1rcej5njq4p66",118,"22.csv","","38","resources/trios/L1T2A3.jpg","39","restless",0.4,0.8,0.3,0.447310112116788,"false"
"image-keyboard-response",217,163066,"0.0-4.68-1.68","rp1rcej5njq4p66",118,"22.csv","","null","resources/maskTrios/BBA3.jpg","null","",NA,NA,NA,NA,""
"image-keyboard-response",218,164267,"0.0-4.68-2.68","rp1rcej5njq4p66",118,"22.csv","","null","resources/images/fishbone.png","null","",NA,NA,NA,NA,""
"image-keyboard-response",219,164354,"0.0-4.69-0.69","rp1rcej5njq4p66",118,"22.csv","","86","resources/trios/L1T2A3.jpg","38","restless",0.4,0.8,0.3,0.795148546572347,"true"
"image-keyboard-response",220,164757,"0.0-4.69-1.69","rp1rcej5njq4p66",118,"22.csv","","null","resources/maskTrios/BT2B.jpg","null","",NA,NA,NA,NA,""
"image-keyboard-response",221,165959,"0.0-4.69-2.69","rp1rcej5njq4p66",118,"22.csv","","null","resources/images/coin2.png","null","",NA,NA,NA,NA,""
"image-keyboard-response",222,166006,"0.0-4.70-0.70","rp1rcej5njq4p66",118,"22.csv","","41","resources/trios/L1T2A3.jpg","37","restless",0.4,0.8,0.3,0.172521607379445,"true"
"image-keyboard-response",223,166410,"0.0-4.70-1.70","rp1rcej5njq4p66",118,"22.csv","","null","resources/maskTrios/L1BB.jpg","null","",NA,NA,NA,NA,""
"image-keyboard-response",224,167612,"0.0-4.70-2.70","rp1rcej5njq4p66",118,"22.csv","","null","resources/images/coin2.png","null","",NA,NA,NA,NA,""
"image-keyboard-response",225,167712,"0.0-4.71-0.71","rp1rcej5njq4p66",118,"22.csv","","97","resources/trios/L1T2A3.jpg","39","restless",0.4,0.8,0.3,0.178381059568678,"true"
"image-keyboard-response",226,168115,"0.0-4.71-1.71","rp1rcej5njq4p66",118,"22.csv","","null","resources/maskTrios/BBA3.jpg","null","",NA,NA,NA,NA,""
"image-keyboard-response",227,169318,"0.0-4.71-2.71","rp1rcej5njq4p66",118,"22.csv","","null","resources/images/coin2.png","null","",NA,NA,NA,NA,""
"image-keyboard-response",228,169365,"0.0-4.72-0.72","rp1rcej5njq4p66",118,"22.csv","","46","resources/trios/L1T2A3.jpg","37","restless",0.4,0.8,0.3,0.0269757028055955,"true"
"image-keyboard-response",229,169769,"0.0-4.72-1.72","rp1rcej5njq4p66",118,"22.csv","","null","resources/maskTrios/L1BB.jpg","null","",NA,NA,NA,NA,""
"image-keyboard-response",230,170971,"0.0-4.72-2.72","rp1rcej5njq4p66",118,"22.csv","","null","resources/images/coin2.png","null","",NA,NA,NA,NA,""
"image-keyboard-response",231,171058,"0.0-4.73-0.73","rp1rcej5njq4p66",118,"22.csv","","86","resources/trios/L1T2A3.jpg","38","restless",0.4,0.8,0.3,0.190053563703384,"true"
"image-keyboard-response",232,171460,"0.0-4.73-1.73","rp1rcej5njq4p66",118,"22.csv","","null","resources/maskTrios/BT2B.jpg","null","",NA,NA,NA,NA,""
"image-keyboard-response",233,172776,"0.0-4.73-2.73","rp1rcej5njq4p66",118,"22.csv","","null","resources/images/coin2.png","null","",NA,NA,NA,NA,""
"image-keyboard-response",234,172827,"0.0-4.74-0.74","rp1rcej5njq4p66",118,"22.csv","","49","resources/trios/L1T2A3.jpg","38","restless",0.4,0.8,0.3,0.812469128541613,"false"
"image-keyboard-response",235,173229,"0.0-4.74-1.74","rp1rcej5njq4p66",118,"22.csv","","null","resources/maskTrios/BT2B.jpg","null","",NA,NA,NA,NA,""
"image-keyboard-response",236,174432,"0.0-4.74-2.74","rp1rcej5njq4p66",118,"22.csv","","null","resources/images/fishbone.png","null","",NA,NA,NA,NA,""
"image-keyboard-response",237,174537,"0.0-4.75-0.75","rp1rcej5njq4p66",118,"22.csv","","104","resources/trios/L1T2A3.jpg","39","restless",0.4,0.8,0.4,0.398753824198013,"true"
"image-keyboard-response",238,174940,"0.0-4.75-1.75","rp1rcej5njq4p66",118,"22.csv","","null","resources/maskTrios/BBA3.jpg","null","",NA,NA,NA,NA,""
"image-keyboard-response",239,176142,"0.0-4.75-2.75","rp1rcej5njq4p66",118,"22.csv","","null","resources/images/coin2.png","null","",NA,NA,NA,NA,""
"image-keyboard-response",240,176180,"0.0-4.76-0.76","rp1rcej5njq4p66",118,"22.csv","","38","resources/trios/L1T2A3.jpg","37","restless",0.4,0.8,0.4,0.326949201513119,"true"
"image-keyboard-response",241,176583,"0.0-4.76-1.76","rp1rcej5njq4p66",118,"22.csv","","null","resources/maskTrios/L1BB.jpg","null","",NA,NA,NA,NA,""
"image-keyboard-response",242,177785,"0.0-4.76-2.76","rp1rcej5njq4p66",118,"22.csv","","null","resources/images/coin2.png","null","",NA,NA,NA,NA,""
"image-keyboard-response",243,177841,"0.0-4.77-0.77","rp1rcej5njq4p66",118,"22.csv","","54","resources/trios/L1T2A3.jpg","38","restless",0.4,0.8,0.4,0.773336906581976,"true"
"image-keyboard-response",244,178244,"0.0-4.77-1.77","rp1rcej5njq4p66",118,"22.csv","","null","resources/maskTrios/BT2B.jpg","null","",NA,NA,NA,NA,""
"image-keyboard-response",245,179446,"0.0-4.77-2.77","rp1rcej5njq4p66",118,"22.csv","","null","resources/images/coin2.png","null","",NA,NA,NA,NA,""
"image-keyboard-response",246,179529,"0.0-4.78-0.78","rp1rcej5njq4p66",118,"22.csv","","80","resources/trios/L1T2A3.jpg","37","restless",0.4,0.8,0.5,0.821196225331327,"false"
"image-keyboard-response",247,179931,"0.0-4.78-1.78","rp1rcej5njq4p66",118,"22.csv","","null","resources/maskTrios/L1BB.jpg","null","",NA,NA,NA,NA,""
"image-keyboard-response",248,181133,"0.0-4.78-2.78","rp1rcej5njq4p66",118,"22.csv","","null","resources/images/fishbone.png","null","",NA,NA,NA,NA,""
"image-keyboard-response",249,181174,"0.0-4.79-0.79","rp1rcej5njq4p66",118,"22.csv","","38","resources/trios/L1T2A3.jpg","37","restless",0.4,0.8,0.5,0.0686025500353448,"true"
"image-keyboard-response",250,181576,"0.0-4.79-1.79","rp1rcej5njq4p66",118,"22.csv","","null","resources/maskTrios/L1BB.jpg","null","",NA,NA,NA,NA,""
"image-keyboard-response",251,182838,"0.0-4.79-2.79","rp1rcej5njq4p66",118,"22.csv","","null","resources/images/coin2.png","null","",NA,NA,NA,NA,""
"image-keyboard-response",252,182933,"0.0-4.80-0.80","rp1rcej5njq4p66",118,"22.csv","","93","resources/trios/L1T2A3.jpg","37","restless",0.4,0.8,0.5,0.558795009285337,"false"
"image-keyboard-response",253,183336,"0.0-4.80-1.80","rp1rcej5njq4p66",118,"22.csv","","null","resources/maskTrios/L1BB.jpg","null","",NA,NA,NA,NA,""
"image-keyboard-response",254,184537,"0.0-4.80-2.80","rp1rcej5njq4p66",118,"22.csv","","null","resources/images/fishbone.png","null","",NA,NA,NA,NA,""
"image-keyboard-response",255,184566,"0.0-4.81-0.81","rp1rcej5njq4p66",118,"22.csv","","27","resources/trios/L1T2A3.jpg","38","restless",0.4,0.7,0.5,0.891898478327411,"false"
"image-keyboard-response",256,184968,"0.0-4.81-1.81","rp1rcej5njq4p66",118,"22.csv","","null","resources/maskTrios/BT2B.jpg","null","",NA,NA,NA,NA,""
"image-keyboard-response",257,186170,"0.0-4.81-2.81","rp1rcej5njq4p66",118,"22.csv","","null","resources/images/fishbone.png","null","",NA,NA,NA,NA,""
"image-keyboard-response",258,186257,"0.0-4.82-0.82","rp1rcej5njq4p66",118,"22.csv","","84","resources/trios/L1T2A3.jpg","39","restless",0.5,0.7,0.5,0.591404603050451,"false"
"image-keyboard-response",259,186659,"0.0-4.82-1.82","rp1rcej5njq4p66",118,"22.csv","","null","resources/maskTrios/BBA3.jpg","null","",NA,NA,NA,NA,""
"image-keyboard-response",260,187861,"0.0-4.82-2.82","rp1rcej5njq4p66",118,"22.csv","","null","resources/images/fishbone.png","null","",NA,NA,NA,NA,""
"image-keyboard-response",261,187897,"0.0-4.83-0.83","rp1rcej5njq4p66",118,"22.csv","","34","resources/trios/L1T2A3.jpg","37","restless",0.5,0.7,0.5,0.27144770766882,"true"
"image-keyboard-response",262,188299,"0.0-4.83-1.83","rp1rcej5njq4p66",118,"22.csv","","null","resources/maskTrios/L1BB.jpg","null","",NA,NA,NA,NA,""
"image-keyboard-response",263,189501,"0.0-4.83-2.83","rp1rcej5njq4p66",118,"22.csv","","null","resources/images/coin2.png","null","",NA,NA,NA,NA,""
"image-keyboard-response",264,189505,"0.0-4.84-0.84","rp1rcej5njq4p66",118,"22.csv","","3","resources/trios/L1T2A3.jpg","37","restless",0.5,0.7,0.5,0.534876234010305,"false"
"image-keyboard-response",265,189907,"0.0-4.84-1.84","rp1rcej5njq4p66",118,"22.csv","","null","resources/maskTrios/L1BB.jpg","null","",NA,NA,NA,NA,""
"image-keyboard-response",266,191109,"0.0-4.84-2.84","rp1rcej5njq4p66",118,"22.csv","","null","resources/images/fishbone.png","null","",NA,NA,NA,NA,""
"image-keyboard-response",267,191158,"0.0-4.85-0.85","rp1rcej5njq4p66",118,"22.csv","","48","resources/trios/L1T2A3.jpg","39","restless",0.5,0.8,0.5,0.993981838529102,"false"
"image-keyboard-response",268,191560,"0.0-4.85-1.85","rp1rcej5njq4p66",118,"22.csv","","null","resources/maskTrios/BBA3.jpg","null","",NA,NA,NA,NA,""
"image-keyboard-response",269,192762,"0.0-4.85-2.85","rp1rcej5njq4p66",118,"22.csv","","null","resources/images/fishbone.png","null","",NA,NA,NA,NA,""
"image-keyboard-response",270,192809,"0.0-4.86-0.86","rp1rcej5njq4p66",118,"22.csv","","45","resources/trios/L1T2A3.jpg","37","restless",0.5,0.8,0.5,0.367097042254823,"true"
"image-keyboard-response",271,193211,"0.0-4.86-1.86","rp1rcej5njq4p66",118,"22.csv","","null","resources/maskTrios/L1BB.jpg","null","",NA,NA,NA,NA,""
"image-keyboard-response",272,194413,"0.0-4.86-2.86","rp1rcej5njq4p66",118,"22.csv","","null","resources/images/coin2.png","null","",NA,NA,NA,NA,""
"image-keyboard-response",273,194455,"0.0-4.87-0.87","rp1rcej5njq4p66",118,"22.csv","","41","resources/trios/L1T2A3.jpg","37","restless",0.5,0.8,0.5,0.05834374649276,"true"
"image-keyboard-response",274,194857,"0.0-4.87-1.87","rp1rcej5njq4p66",118,"22.csv","","null","resources/maskTrios/L1BB.jpg","null","",NA,NA,NA,NA,""
"image-keyboard-response",275,196059,"0.0-4.87-2.87","rp1rcej5njq4p66",118,"22.csv","","null","resources/images/coin2.png","null","",NA,NA,NA,NA,""
"image-keyboard-response",276,196172,"0.0-4.88-0.88","rp1rcej5njq4p66",118,"22.csv","","111","resources/trios/L1T2A3.jpg","37","restless",0.4,0.7,0.5,0.638320884479126,"false"
"image-keyboard-response",277,196575,"0.0-4.88-1.88","rp1rcej5njq4p66",118,"22.csv","","null","resources/maskTrios/L1BB.jpg","null","",NA,NA,NA,NA,""
"image-keyboard-response",278,197778,"0.0-4.88-2.88","rp1rcej5njq4p66",118,"22.csv","","null","resources/images/fishbone.png","null","",NA,NA,NA,NA,""
"image-keyboard-response",279,197827,"0.0-4.89-0.89","rp1rcej5njq4p66",118,"22.csv","","47","resources/trios/L1T2A3.jpg","37","restless",0.3,0.7,0.5,0.928778046098946,"false"
"image-keyboard-response",280,198229,"0.0-4.89-1.89","rp1rcej5njq4p66",118,"22.csv","","null","resources/maskTrios/L1BB.jpg","null","",NA,NA,NA,NA,""
"image-keyboard-response",281,199435,"0.0-4.89-2.89","rp1rcej5njq4p66",118,"22.csv","","null","resources/images/fishbone.png","null","",NA,NA,NA,NA,""
"image-keyboard-response",282,199440,"0.0-4.90-0.90","rp1rcej5njq4p66",118,"22.csv","","2","resources/trios/L1T2A3.jpg","37","restless",0.3,0.7,0.5,0.689037940733125,"false"
"image-keyboard-response",283,199841,"0.0-4.90-1.90","rp1rcej5njq4p66",118,"22.csv","","null","resources/maskTrios/L1BB.jpg","null","",NA,NA,NA,NA,""
"image-keyboard-response",284,201142,"0.0-4.90-2.90","rp1rcej5njq4p66",118,"22.csv","","null","resources/images/fishbone.png","null","",NA,NA,NA,NA,""
"image-keyboard-response",285,201213,"0.0-4.91-0.91","rp1rcej5njq4p66",118,"22.csv","","69","resources/trios/L1T2A3.jpg","39","restless",0.3,0.7,0.5,0.545352640350651,"false"
"image-keyboard-response",286,201616,"0.0-4.91-1.91","rp1rcej5njq4p66",118,"22.csv","","null","resources/maskTrios/BBA3.jpg","null","",NA,NA,NA,NA,""
"image-keyboard-response",287,202818,"0.0-4.91-2.91","rp1rcej5njq4p66",118,"22.csv","","null","resources/images/fishbone.png","null","",NA,NA,NA,NA,""
"image-keyboard-response",288,202826,"0.0-4.92-0.92","rp1rcej5njq4p66",118,"22.csv","","2","resources/trios/L1T2A3.jpg","38","restless",0.4,0.7,0.5,0.470970998968706,"true"
"image-keyboard-response",289,203229,"0.0-4.92-1.92","rp1rcej5njq4p66",118,"22.csv","","null","resources/maskTrios/BT2B.jpg","null","",NA,NA,NA,NA,""
"image-keyboard-response",290,204432,"0.0-4.92-2.92","rp1rcej5njq4p66",118,"22.csv","","null","resources/images/coin2.png","null","",NA,NA,NA,NA,""
"image-keyboard-response",291,204446,"0.0-4.93-0.93","rp1rcej5njq4p66",118,"22.csv","","12","resources/trios/L1T2A3.jpg","37","restless",0.4,0.7,0.5,0.802204153801973,"false"
"image-keyboard-response",292,204848,"0.0-4.93-1.93","rp1rcej5njq4p66",118,"22.csv","","null","resources/maskTrios/L1BB.jpg","null","",NA,NA,NA,NA,""
"image-keyboard-response",293,206050,"0.0-4.93-2.93","rp1rcej5njq4p66",118,"22.csv","","null","resources/images/fishbone.png","null","",NA,NA,NA,NA,""
"image-keyboard-response",294,206069,"0.0-4.94-0.94","rp1rcej5njq4p66",118,"22.csv","","17","resources/trios/L1T2A3.jpg","39","restless",0.4,0.7,0.5,0.282439591006773,"true"
"image-keyboard-response",295,206472,"0.0-4.94-1.94","rp1rcej5njq4p66",118,"22.csv","","null","resources/maskTrios/BBA3.jpg","null","",NA,NA,NA,NA,""
"image-keyboard-response",296,207673,"0.0-4.94-2.94","rp1rcej5njq4p66",118,"22.csv","","null","resources/images/coin2.png","null","",NA,NA,NA,NA,""
"image-keyboard-response",297,207715,"0.0-4.95-0.95","rp1rcej5njq4p66",118,"22.csv","","40","resources/trios/L1T2A3.jpg","37","restless",0.4,0.7,0.5,0.757115327421886,"false"
"image-keyboard-response",298,208117,"0.0-4.95-1.95","rp1rcej5njq4p66",118,"22.csv","","null","resources/maskTrios/L1BB.jpg","null","",NA,NA,NA,NA,""
"image-keyboard-response",299,209320,"0.0-4.95-2.95","rp1rcej5njq4p66",118,"22.csv","","null","resources/images/fishbone.png","null","",NA,NA,NA,NA,""
"image-keyboard-response",300,209355,"0.0-4.96-0.96","rp1rcej5njq4p66",118,"22.csv","","34","resources/trios/L1T2A3.jpg","39","restless",0.4,0.7,0.5,0.544416761759998,"false"
"image-keyboard-response",301,209758,"0.0-4.96-1.96","rp1rcej5njq4p66",118,"22.csv","","null","resources/maskTrios/BBA3.jpg","null","",NA,NA,NA,NA,""
"image-keyboard-response",302,210960,"0.0-4.96-2.96","rp1rcej5njq4p66",118,"22.csv","","null","resources/images/fishbone.png","null","",NA,NA,NA,NA,""
"image-keyboard-response",303,210975,"0.0-4.97-0.97","rp1rcej5njq4p66",118,"22.csv","","13","resources/trios/L1T2A3.jpg","39","restless",0.4,0.7,0.5,0.861074876191681,"false"
"image-keyboard-response",304,211377,"0.0-4.97-1.97","rp1rcej5njq4p66",118,"22.csv","","null","resources/maskTrios/BBA3.jpg","null","",NA,NA,NA,NA,""
"image-keyboard-response",305,212579,"0.0-4.97-2.97","rp1rcej5njq4p66",118,"22.csv","","null","resources/images/fishbone.png","null","",NA,NA,NA,NA,""
"image-keyboard-response",306,212654,"0.0-4.98-0.98","rp1rcej5njq4p66",118,"22.csv","","72","resources/trios/L1T2A3.jpg","39","restless",0.4,0.7,0.5,0.744579655705962,"false"
"image-keyboard-response",307,213056,"0.0-4.98-1.98","rp1rcej5njq4p66",118,"22.csv","","null","resources/maskTrios/BBA3.jpg","null","",NA,NA,NA,NA,""
"image-keyboard-response",308,214258,"0.0-4.98-2.98","rp1rcej5njq4p66",118,"22.csv","","null","resources/images/fishbone.png","null","",NA,NA,NA,NA,""
"image-keyboard-response",309,214289,"0.0-4.99-0.99","rp1rcej5njq4p66",118,"22.csv","","28","resources/trios/L1T2A3.jpg","39","restless",0.4,0.7,0.5,0.90284197454976,"false"
"image-keyboard-response",310,214692,"0.0-4.99-1.99","rp1rcej5njq4p66",118,"22.csv","","null","resources/maskTrios/BBA3.jpg","null","",NA,NA,NA,NA,""
"image-keyboard-response",311,215893,"0.0-4.99-2.99","rp1rcej5njq4p66",118,"22.csv","","null","resources/images/fishbone.png","null","",NA,NA,NA,NA,""
"image-keyboard-response",312,215905,"0.0-4.100-0.100","rp1rcej5njq4p66",118,"22.csv","","9","resources/trios/L1T2A3.jpg","37","restless",0.4,0.7,0.5,0.493035969533584,"false"
"image-keyboard-response",313,216307,"0.0-4.100-1.100","rp1rcej5njq4p66",118,"22.csv","","null","resources/maskTrios/L1BB.jpg","null","",NA,NA,NA,NA,""
"image-keyboard-response",314,217509,"0.0-4.100-2.100","rp1rcej5njq4p66",118,"22.csv","","null","resources/images/fishbone.png","null","",NA,NA,NA,NA,""
"image-keyboard-response",315,217592,"0.0-4.101-0.101","rp1rcej5njq4p66",118,"22.csv","","81","resources/trios/L1T2A3.jpg","37","restless",0.4,0.7,0.5,0.594866249506484,"false"
"image-keyboard-response",316,217995,"0.0-4.101-1.101","rp1rcej5njq4p66",118,"22.csv","","null","resources/maskTrios/L1BB.jpg","null","",NA,NA,NA,NA,""
"image-keyboard-response",317,219259,"0.0-4.101-2.101","rp1rcej5njq4p66",118,"22.csv","","null","resources/images/fishbone.png","null","",NA,NA,NA,NA,""
"image-keyboard-response",318,219325,"0.0-4.102-0.102","rp1rcej5njq4p66",118,"22.csv","","64","resources/trios/L1T2A3.jpg","37","restless",0.4,0.7,0.5,0.00725073019988576,"true"
"image-keyboard-response",319,219727,"0.0-4.102-1.102","rp1rcej5njq4p66",118,"22.csv","","null","resources/maskTrios/L1BB.jpg","null","",NA,NA,NA,NA,""
"image-keyboard-response",320,220928,"0.0-4.102-2.102","rp1rcej5njq4p66",118,"22.csv","","null","resources/images/coin2.png","null","",NA,NA,NA,NA,""
"image-keyboard-response",321,221001,"0.0-4.103-0.103","rp1rcej5njq4p66",118,"22.csv","","71","resources/trios/L1T2A3.jpg","37","restless",0.5,0.7,0.5,0.480598944101715,"true"
"image-keyboard-response",322,221404,"0.0-4.103-1.103","rp1rcej5njq4p66",118,"22.csv","","null","resources/maskTrios/L1BB.jpg","null","",NA,NA,NA,NA,""
"image-keyboard-response",323,222606,"0.0-4.103-2.103","rp1rcej5njq4p66",118,"22.csv","","null","resources/images/coin2.png","null","",NA,NA,NA,NA,""
"image-keyboard-response",324,222612,"0.0-4.104-0.104","rp1rcej5njq4p66",118,"22.csv","","3","resources/trios/L1T2A3.jpg","38","restless",0.5,0.7,0.6,0.962262556951497,"false"
"image-keyboard-response",325,223015,"0.0-4.104-1.104","rp1rcej5njq4p66",118,"22.csv","","null","resources/maskTrios/BT2B.jpg","null","",NA,NA,NA,NA,""
"image-keyboard-response",326,224264,"0.0-4.104-2.104","rp1rcej5njq4p66",118,"22.csv","","null","resources/images/fishbone.png","null","",NA,NA,NA,NA,""
"image-keyboard-response",327,224327,"0.0-4.105-0.105","rp1rcej5njq4p66",118,"22.csv","","61","resources/trios/L1T2A3.jpg","39","restless",0.5,0.7,0.6,0.687651270557044,"false"
"image-keyboard-response",328,224730,"0.0-4.105-1.105","rp1rcej5njq4p66",118,"22.csv","","null","resources/maskTrios/BBA3.jpg","null","",NA,NA,NA,NA,""
"image-keyboard-response",329,225931,"0.0-4.105-2.105","rp1rcej5njq4p66",118,"22.csv","","null","resources/images/fishbone.png","null","",NA,NA,NA,NA,""
"image-keyboard-response",330,225961,"0.0-4.106-0.106","rp1rcej5njq4p66",118,"22.csv","","27","resources/trios/L1T2A3.jpg","39","restless",0.6,0.7,0.6,0.925474961966735,"false"
"image-keyboard-response",331,226368,"0.0-4.106-1.106","rp1rcej5njq4p66",118,"22.csv","","null","resources/maskTrios/BBA3.jpg","null","",NA,NA,NA,NA,""
"image-keyboard-response",332,227669,"0.0-4.106-2.106","rp1rcej5njq4p66",118,"22.csv","","null","resources/images/fishbone.png","null","",NA,NA,NA,NA,""
"image-keyboard-response",333,227758,"0.0-4.107-0.107","rp1rcej5njq4p66",118,"22.csv","","87","resources/trios/L1T2A3.jpg","37","restless",0.7,0.7,0.6,0.0982834955706714,"true"
"image-keyboard-response",334,228160,"0.0-4.107-1.107","rp1rcej5njq4p66",118,"22.csv","","null","resources/maskTrios/L1BB.jpg","null","",NA,NA,NA,NA,""
"image-keyboard-response",335,229363,"0.0-4.107-2.107","rp1rcej5njq4p66",118,"22.csv","","null","resources/images/coin2.png","null","",NA,NA,NA,NA,""
"image-keyboard-response",336,229377,"0.0-4.108-0.108","rp1rcej5njq4p66",118,"22.csv","","13","resources/trios/L1T2A3.jpg","37","restless",0.7,0.7,0.6,0.91528810211939,"false"
"image-keyboard-response",337,229779,"0.0-4.108-1.108","rp1rcej5njq4p66",118,"22.csv","","null","resources/maskTrios/L1BB.jpg","null","",NA,NA,NA,NA,""
"image-keyboard-response",338,230981,"0.0-4.108-2.108","rp1rcej5njq4p66",118,"22.csv","","null","resources/images/fishbone.png","null","",NA,NA,NA,NA,""
"image-keyboard-response",339,231049,"0.0-4.109-0.109","rp1rcej5njq4p66",118,"22.csv","","63","resources/trios/L1T2A3.jpg","39","restless",0.7,0.7,0.6,0.702554510708632,"false"
"image-keyboard-response",340,231453,"0.0-4.109-1.109","rp1rcej5njq4p66",118,"22.csv","","null","resources/maskTrios/BBA3.jpg","null","",NA,NA,NA,NA,""
"image-keyboard-response",341,232656,"0.0-4.109-2.109","rp1rcej5njq4p66",118,"22.csv","","null","resources/images/fishbone.png","null","",NA,NA,NA,NA,""
"image-keyboard-response",342,234465,"0.0-4.110-0.110","rp1rcej5njq4p66",118,"22.csv","","1806","resources/trios/L1T2A3.jpg","38","restless",0.7,0.8,0.5,0.511373561309952,"true"
"image-keyboard-response",343,234868,"0.0-4.110-1.110","rp1rcej5njq4p66",118,"22.csv","","null","resources/maskTrios/BT2B.jpg","null","",NA,NA,NA,NA,""
"image-keyboard-response",344,236070,"0.0-4.110-2.110","rp1rcej5njq4p66",118,"22.csv","","null","resources/images/coin2.png","null","",NA,NA,NA,NA,""
"image-keyboard-response",345,256218,"0.0-4.111-0.111","rp1rcej5njq4p66",118,"22.csv","","20144","resources/trios/L1T2A3.jpg","37","restless",0.7,0.8,0.5,0.977851062476619,"false"
"image-keyboard-response",346,256621,"0.0-4.111-1.111","rp1rcej5njq4p66",118,"22.csv","","null","resources/maskTrios/L1BB.jpg","null","",NA,NA,NA,NA,""
"image-keyboard-response",347,257823,"0.0-4.111-2.111","rp1rcej5njq4p66",118,"22.csv","","null","resources/images/fishbone.png","null","",NA,NA,NA,NA,""
"image-keyboard-response",348,257905,"0.0-4.112-0.112","rp1rcej5njq4p66",118,"22.csv","","81","resources/trios/L1T2A3.jpg","37","restless",0.7,0.8,0.5,0.564953339563538,"true"
"image-keyboard-response",349,258308,"0.0-4.112-1.112","rp1rcej5njq4p66",118,"22.csv","","null","resources/maskTrios/L1BB.jpg","null","",NA,NA,NA,NA,""
"image-keyboard-response",350,259510,"0.0-4.112-2.112","rp1rcej5njq4p66",118,"22.csv","","null","resources/images/coin2.png","null","",NA,NA,NA,NA,""
"image-keyboard-response",351,259590,"0.0-4.113-0.113","rp1rcej5njq4p66",118,"22.csv","","78","resources/trios/L1T2A3.jpg","39","restless",0.7,0.7,0.5,0.363781465348021,"true"
"image-keyboard-response",352,259992,"0.0-4.113-1.113","rp1rcej5njq4p66",118,"22.csv","","null","resources/maskTrios/BBA3.jpg","null","",NA,NA,NA,NA,""
"image-keyboard-response",353,261194,"0.0-4.113-2.113","rp1rcej5njq4p66",118,"22.csv","","null","resources/images/coin2.png","null","",NA,NA,NA,NA,""
"image-keyboard-response",354,261244,"0.0-4.114-0.114","rp1rcej5njq4p66",118,"22.csv","","48","resources/trios/L1T2A3.jpg","38","restless",0.7,0.7,0.5,0.555572823107784,"true"
"image-keyboard-response",355,261648,"0.0-4.114-1.114","rp1rcej5njq4p66",118,"22.csv","","null","resources/maskTrios/BT2B.jpg","null","",NA,NA,NA,NA,""
"image-keyboard-response",356,262850,"0.0-4.114-2.114","rp1rcej5njq4p66",118,"22.csv","","null","resources/images/coin2.png","null","",NA,NA,NA,NA,""
"image-keyboard-response",357,262888,"0.0-4.115-0.115","rp1rcej5njq4p66",118,"22.csv","","29","resources/trios/L1T2A3.jpg","37","restless",0.8,0.6,0.5,0.475169581505988,"true"
"image-keyboard-response",358,263292,"0.0-4.115-1.115","rp1rcej5njq4p66",118,"22.csv","","null","resources/maskTrios/L1BB.jpg","null","",NA,NA,NA,NA,""
"image-keyboard-response",359,264494,"0.0-4.115-2.115","rp1rcej5njq4p66",118,"22.csv","","null","resources/images/coin2.png","null","",NA,NA,NA,NA,""
"image-keyboard-response",360,264512,"0.0-4.116-0.116","rp1rcej5njq4p66",118,"22.csv","","14","resources/trios/L1T2A3.jpg","37","restless",0.9,0.6,0.5,0.264920545407987,"true"
"image-keyboard-response",361,264914,"0.0-4.116-1.116","rp1rcej5njq4p66",118,"22.csv","","null","resources/maskTrios/L1BB.jpg","null","",NA,NA,NA,NA,""
"image-keyboard-response",362,266195,"0.0-4.116-2.116","rp1rcej5njq4p66",118,"22.csv","","null","resources/images/coin2.png","null","",NA,NA,NA,NA,""
"image-keyboard-response",363,266214,"0.0-4.117-0.117","rp1rcej5njq4p66",118,"22.csv","","15","resources/trios/L1T2A3.jpg","39","restless",0.9,0.5,0.4,0.901667513646907,"false"
"image-keyboard-response",364,266617,"0.0-4.117-1.117","rp1rcej5njq4p66",118,"22.csv","","null","resources/maskTrios/BBA3.jpg","null","",NA,NA,NA,NA,""
"image-keyboard-response",365,267820,"0.0-4.117-2.117","rp1rcej5njq4p66",118,"22.csv","","null","resources/images/fishbone.png","null","",NA,NA,NA,NA,""
"image-keyboard-response",366,267906,"0.0-4.118-0.118","rp1rcej5njq4p66",118,"22.csv","","83","resources/trios/L1T2A3.jpg","37","restless",0.9,0.5,0.3,0.70465579323113,"true"
"image-keyboard-response",367,268309,"0.0-4.118-1.118","rp1rcej5njq4p66",118,"22.csv","","null","resources/maskTrios/L1BB.jpg","null","",NA,NA,NA,NA,""
"image-keyboard-response",368,269511,"0.0-4.118-2.118","rp1rcej5njq4p66",118,"22.csv","","null","resources/images/coin2.png","null","",NA,NA,NA,NA,""
"image-keyboard-response",369,269562,"0.0-4.119-0.119","rp1rcej5njq4p66",118,"22.csv","","48","resources/trios/L1T2A3.jpg","37","restless",0.9,0.5,0.3,0.325270695251045,"true"
"image-keyboard-response",370,269964,"0.0-4.119-1.119","rp1rcej5njq4p66",118,"22.csv","","null","resources/maskTrios/L1BB.jpg","null","",NA,NA,NA,NA,""
"image-keyboard-response",371,271202,"0.0-4.119-2.119","rp1rcej5njq4p66",118,"22.csv","","null","resources/images/coin2.png","null","",NA,NA,NA,NA,""
"image-keyboard-response",372,271221,"0.0-4.120-0.120","rp1rcej5njq4p66",118,"22.csv","","17","resources/trios/L1T2A3.jpg","37","restless",0.9,0.5,0.3,0.694665571543983,"true"
"image-keyboard-response",373,271624,"0.0-4.120-1.120","rp1rcej5njq4p66",118,"22.csv","","null","resources/maskTrios/L1BB.jpg","null","",NA,NA,NA,NA,""
"image-keyboard-response",374,272827,"0.0-4.120-2.120","rp1rcej5njq4p66",118,"22.csv","","null","resources/images/coin2.png","null","",NA,NA,NA,NA,""
"image-keyboard-response",375,272893,"0.0-4.121-0.121","rp1rcej5njq4p66",118,"22.csv","","65","resources/trios/L1T2A3.jpg","38","restless",0.8,0.5,0.3,0.72318172932647,"false"
"image-keyboard-response",376,273296,"0.0-4.121-1.121","rp1rcej5njq4p66",118,"22.csv","","null","resources/maskTrios/BT2B.jpg","null","",NA,NA,NA,NA,""
"image-keyboard-response",377,274503,"0.0-4.121-2.121","rp1rcej5njq4p66",118,"22.csv","","null","resources/images/fishbone.png","null","",NA,NA,NA,NA,""
"image-keyboard-response",378,274535,"0.0-4.122-0.122","rp1rcej5njq4p66",118,"22.csv","","29","resources/trios/L1T2A3.jpg","37","restless",0.8,0.5,0.3,0.672312145395623,"true"
"image-keyboard-response",379,274938,"0.0-4.122-1.122","rp1rcej5njq4p66",118,"22.csv","","null","resources/maskTrios/L1BB.jpg","null","",NA,NA,NA,NA,""
"image-keyboard-response",380,276209,"0.0-4.122-2.122","rp1rcej5njq4p66",118,"22.csv","","null","resources/images/coin2.png","null","",NA,NA,NA,NA,""
"image-keyboard-response",381,276473,"0.0-4.123-0.123","rp1rcej5njq4p66",118,"22.csv","","262","resources/trios/L1T2A3.jpg","38","restless",0.7,0.5,0.3,0.126002882160255,"true"
"image-keyboard-response",382,276876,"0.0-4.123-1.123","rp1rcej5njq4p66",118,"22.csv","","null","resources/maskTrios/BT2B.jpg","null","",NA,NA,NA,NA,""
"image-keyboard-response",383,278078,"0.0-4.123-2.123","rp1rcej5njq4p66",118,"22.csv","","null","resources/images/coin2.png","null","",NA,NA,NA,NA,""
"image-keyboard-response",384,278086,"0.0-4.124-0.124","rp1rcej5njq4p66",118,"22.csv","","7","resources/trios/L1T2A3.jpg","38","restless",0.8,0.5,0.3,0.899810288568025,"false"
"image-keyboard-response",385,278523,"0.0-4.124-1.124","rp1rcej5njq4p66",118,"22.csv","","null","resources/maskTrios/BT2B.jpg","null","",NA,NA,NA,NA,""
"image-keyboard-response",386,279725,"0.0-4.124-2.124","rp1rcej5njq4p66",118,"22.csv","","null","resources/images/fishbone.png","null","",NA,NA,NA,NA,""
"image-keyboard-response",387,279732,"0.0-4.125-0.125","rp1rcej5njq4p66",118,"22.csv","","5","resources/trios/L1T2A3.jpg","38","restless",0.8,0.5,0.3,0.754155022600626,"false"
"image-keyboard-response",388,280135,"0.0-4.125-1.125","rp1rcej5njq4p66",118,"22.csv","","null","resources/maskTrios/BT2B.jpg","null","",NA,NA,NA,NA,""
"image-keyboard-response",389,281337,"0.0-4.125-2.125","rp1rcej5njq4p66",118,"22.csv","","null","resources/images/fishbone.png","null","",NA,NA,NA,NA,""
"image-keyboard-response",390,281420,"0.0-4.126-0.126","rp1rcej5njq4p66",118,"22.csv","","82","resources/trios/L1T2A3.jpg","38","restless",0.8,0.5,0.2,0.655329761104878,"false"
"image-keyboard-response",391,281823,"0.0-4.126-1.126","rp1rcej5njq4p66",118,"22.csv","","null","resources/maskTrios/BT2B.jpg","null","",NA,NA,NA,NA,""
"image-keyboard-response",392,283024,"0.0-4.126-2.126","rp1rcej5njq4p66",118,"22.csv","","null","resources/images/fishbone.png","null","",NA,NA,NA,NA,""
"image-keyboard-response",393,283065,"0.0-4.127-0.127","rp1rcej5njq4p66",118,"22.csv","","40","resources/trios/L1T2A3.jpg","37","restless",0.8,0.5,0.2,0.659203085214734,"true"
"image-keyboard-response",394,283468,"0.0-4.127-1.127","rp1rcej5njq4p66",118,"22.csv","","null","resources/maskTrios/L1BB.jpg","null","",NA,NA,NA,NA,""
"image-keyboard-response",395,284669,"0.0-4.127-2.127","rp1rcej5njq4p66",118,"22.csv","","null","resources/images/coin2.png","null","",NA,NA,NA,NA,""
"image-keyboard-response",396,284751,"0.0-4.128-0.128","rp1rcej5njq4p66",118,"22.csv","","79","resources/trios/L1T2A3.jpg","38","restless",0.8,0.5,0.2,0.950565317326207,"false"
"image-keyboard-response",397,285154,"0.0-4.128-1.128","rp1rcej5njq4p66",118,"22.csv","","null","resources/maskTrios/BT2B.jpg","null","",NA,NA,NA,NA,""
"image-keyboard-response",398,286356,"0.0-4.128-2.128","rp1rcej5njq4p66",118,"22.csv","","null","resources/images/fishbone.png","null","",NA,NA,NA,NA,""
"image-keyboard-response",399,286404,"0.0-4.129-0.129","rp1rcej5njq4p66",118,"22.csv","","47","resources/trios/L1T2A3.jpg","38","restless",0.8,0.4,0.2,0.581335380452532,"false"
"image-keyboard-response",400,286807,"0.0-4.129-1.129","rp1rcej5njq4p66",118,"22.csv","","null","resources/maskTrios/BT2B.jpg","null","",NA,NA,NA,NA,""
"image-keyboard-response",401,288008,"0.0-4.129-2.129","rp1rcej5njq4p66",118,"22.csv","","null","resources/images/fishbone.png","null","",NA,NA,NA,NA,""
"image-keyboard-response",402,288023,"0.0-4.130-0.130","rp1rcej5njq4p66",118,"22.csv","","12","resources/trios/L1T2A3.jpg","39","restless",0.8,0.4,0.2,0.704510694071676,"false"
"image-keyboard-response",403,288426,"0.0-4.130-1.130","rp1rcej5njq4p66",118,"22.csv","","null","resources/maskTrios/BBA3.jpg","null","",NA,NA,NA,NA,""
"image-keyboard-response",404,289627,"0.0-4.130-2.130","rp1rcej5njq4p66",118,"22.csv","","null","resources/images/fishbone.png","null","",NA,NA,NA,NA,""
"image-keyboard-response",405,289633,"0.0-4.131-0.131","rp1rcej5njq4p66",118,"22.csv","","3","resources/trios/L1T2A3.jpg","39","restless",0.8,0.4,0.2,0.372172352532869,"false"
"image-keyboard-response",406,290035,"0.0-4.131-1.131","rp1rcej5njq4p66",118,"22.csv","","null","resources/maskTrios/BBA3.jpg","null","",NA,NA,NA,NA,""
"image-keyboard-response",407,291356,"0.0-4.131-2.131","rp1rcej5njq4p66",118,"22.csv","","null","resources/images/fishbone.png","null","",NA,NA,NA,NA,""
"image-keyboard-response",408,291392,"0.0-4.132-0.132","rp1rcej5njq4p66",118,"22.csv","","34","resources/trios/L1T2A3.jpg","37","restless",0.8,0.4,0.2,0.765798007253096,"true"
"image-keyboard-response",409,291795,"0.0-4.132-1.132","rp1rcej5njq4p66",118,"22.csv","","null","resources/maskTrios/L1BB.jpg","null","",NA,NA,NA,NA,""
"image-keyboard-response",410,292996,"0.0-4.132-2.132","rp1rcej5njq4p66",118,"22.csv","","null","resources/images/coin2.png","null","",NA,NA,NA,NA,""
"image-keyboard-response",411,293006,"0.0-4.133-0.133","rp1rcej5njq4p66",118,"22.csv","","7","resources/trios/L1T2A3.jpg","37","restless",0.8,0.4,0.2,0.826814677538179,"false"
"image-keyboard-response",412,293408,"0.0-4.133-1.133","rp1rcej5njq4p66",118,"22.csv","","null","resources/maskTrios/L1BB.jpg","null","",NA,NA,NA,NA,""
"image-keyboard-response",413,294730,"0.0-4.133-2.133","rp1rcej5njq4p66",118,"22.csv","","null","resources/images/fishbone.png","null","",NA,NA,NA,NA,""
"image-keyboard-response",414,294799,"0.0-4.134-0.134","rp1rcej5njq4p66",118,"22.csv","","66","resources/trios/L1T2A3.jpg","38","restless",0.8,0.4,0.2,0.798791309036428,"false"
"image-keyboard-response",415,295201,"0.0-4.134-1.134","rp1rcej5njq4p66",118,"22.csv","","null","resources/maskTrios/BT2B.jpg","null","",NA,NA,NA,NA,""
"image-keyboard-response",416,296403,"0.0-4.134-2.134","rp1rcej5njq4p66",118,"22.csv","","null","resources/images/fishbone.png","null","",NA,NA,NA,NA,""
"image-keyboard-response",417,296435,"0.0-4.135-0.135","rp1rcej5njq4p66",118,"22.csv","","29","resources/trios/L1T2A3.jpg","39","restless",0.8,0.4,0.2,0.36556704212672,"false"
"image-keyboard-response",418,296837,"0.0-4.135-1.135","rp1rcej5njq4p66",118,"22.csv","","null","resources/maskTrios/BBA3.jpg","null","",NA,NA,NA,NA,""
"image-keyboard-response",419,298039,"0.0-4.135-2.135","rp1rcej5njq4p66",118,"22.csv","","null","resources/images/fishbone.png","null","",NA,NA,NA,NA,""
"image-keyboard-response",420,298070,"0.0-4.136-0.136","rp1rcej5njq4p66",118,"22.csv","","30","resources/trios/L1T2A3.jpg","37","restless",0.9,0.4,0.2,0.024313099473308,"true"
"image-keyboard-response",421,298472,"0.0-4.136-1.136","rp1rcej5njq4p66",118,"22.csv","","null","resources/maskTrios/L1BB.jpg","null","",NA,NA,NA,NA,""
"image-keyboard-response",422,299674,"0.0-4.136-2.136","rp1rcej5njq4p66",118,"22.csv","","null","resources/images/coin2.png","null","",NA,NA,NA,NA,""
"image-keyboard-response",423,299691,"0.0-4.137-0.137","rp1rcej5njq4p66",118,"22.csv","","15","resources/trios/L1T2A3.jpg","38","restless",0.9,0.4,0.2,0.694979320377979,"false"
"image-keyboard-response",424,300092,"0.0-4.137-1.137","rp1rcej5njq4p66",118,"22.csv","","null","resources/maskTrios/BT2B.jpg","null","",NA,NA,NA,NA,""
"image-keyboard-response",425,301405,"0.0-4.137-2.137","rp1rcej5njq4p66",118,"22.csv","","null","resources/images/fishbone.png","null","",NA,NA,NA,NA,""
"image-keyboard-response",426,301426,"0.0-4.138-0.138","rp1rcej5njq4p66",118,"22.csv","","14","resources/trios/L1T2A3.jpg","38","restless",0.9,0.4,0.2,0.645374263988622,"false"
"image-keyboard-response",427,301830,"0.0-4.138-1.138","rp1rcej5njq4p66",118,"22.csv","","null","resources/maskTrios/BT2B.jpg","null","",NA,NA,NA,NA,""
"image-keyboard-response",428,303032,"0.0-4.138-2.138","rp1rcej5njq4p66",118,"22.csv","","null","resources/images/fishbone.png","null","",NA,NA,NA,NA,""
"image-keyboard-response",429,303100,"0.0-4.139-0.139","rp1rcej5njq4p66",118,"22.csv","","66","resources/trios/L1T2A3.jpg","37","restless",0.9,0.4,0.2,0.526345742700548,"true"
"image-keyboard-response",430,303503,"0.0-4.139-1.139","rp1rcej5njq4p66",118,"22.csv","","null","resources/maskTrios/L1BB.jpg","null","",NA,NA,NA,NA,""
"image-keyboard-response",431,304705,"0.0-4.139-2.139","rp1rcej5njq4p66",118,"22.csv","","null","resources/images/coin2.png","null","",NA,NA,NA,NA,""
"image-keyboard-response",432,304719,"0.0-4.140-0.140","rp1rcej5njq4p66",118,"22.csv","","12","resources/trios/L1T2A3.jpg","37","restless",0.9,0.4,0.2,0.871089512492191,"true"
"image-keyboard-response",433,305123,"0.0-4.140-1.140","rp1rcej5njq4p66",118,"22.csv","","null","resources/maskTrios/L1BB.jpg","null","",NA,NA,NA,NA,""
"image-keyboard-response",434,306419,"0.0-4.140-2.140","rp1rcej5njq4p66",118,"22.csv","","null","resources/images/coin2.png","null","",NA,NA,NA,NA,""
"image-keyboard-response",435,306438,"0.0-4.141-0.141","rp1rcej5njq4p66",118,"22.csv","","16","resources/trios/L1T2A3.jpg","38","restless",0.8,0.4,0.2,0.11348203576317,"true"
"image-keyboard-response",436,306841,"0.0-4.141-1.141","rp1rcej5njq4p66",118,"22.csv","","null","resources/maskTrios/BT2B.jpg","null","",NA,NA,NA,NA,""
"image-keyboard-response",437,308043,"0.0-4.141-2.141","rp1rcej5njq4p66",118,"22.csv","","null","resources/images/coin2.png","null","",NA,NA,NA,NA,""
"image-keyboard-response",438,309890,"0.0-4.142-0.142","rp1rcej5njq4p66",118,"22.csv","","1846","resources/trios/L1T2A3.jpg","38","restless",0.8,0.4,0.2,0.660683933744611,"false"
"image-keyboard-response",439,310293,"0.0-4.142-1.142","rp1rcej5njq4p66",118,"22.csv","","null","resources/maskTrios/BT2B.jpg","null","",NA,NA,NA,NA,""
"image-keyboard-response",440,311495,"0.0-4.142-2.142","rp1rcej5njq4p66",118,"22.csv","","null","resources/images/fishbone.png","null","",NA,NA,NA,NA,""
"image-keyboard-response",441,311587,"0.0-4.143-0.143","rp1rcej5njq4p66",118,"22.csv","","90","resources/trios/L1T2A3.jpg","38","restless",0.8,0.4,0.2,0.154643125040458,"true"
"image-keyboard-response",442,311989,"0.0-4.143-1.143","rp1rcej5njq4p66",118,"22.csv","","null","resources/maskTrios/BT2B.jpg","null","",NA,NA,NA,NA,""
"image-keyboard-response",443,313190,"0.0-4.143-2.143","rp1rcej5njq4p66",118,"22.csv","","null","resources/images/coin2.png","null","",NA,NA,NA,NA,""
"image-keyboard-response",444,313230,"0.0-4.144-0.144","rp1rcej5njq4p66",118,"22.csv","","38","resources/trios/L1T2A3.jpg","38","restless",0.8,0.4,0.2,0.978568465625206,"false"
"image-keyboard-response",445,313634,"0.0-4.144-1.144","rp1rcej5njq4p66",118,"22.csv","","null","resources/maskTrios/BT2B.jpg","null","",NA,NA,NA,NA,""
"image-keyboard-response",446,314836,"0.0-4.144-2.144","rp1rcej5njq4p66",118,"22.csv","","null","resources/images/fishbone.png","null","",NA,NA,NA,NA,""
"image-keyboard-response",447,314996,"0.0-4.145-0.145","rp1rcej5njq4p66",118,"22.csv","","159","resources/trios/L1T2A3.jpg","38","restless",0.8,0.4,0.2,0.520928940315547,"false"
"image-keyboard-response",448,315399,"0.0-4.145-1.145","rp1rcej5njq4p66",118,"22.csv","","null","resources/maskTrios/BT2B.jpg","null","",NA,NA,NA,NA,""
"image-keyboard-response",449,316601,"0.0-4.145-2.145","rp1rcej5njq4p66",118,"22.csv","","null","resources/images/fishbone.png","null","",NA,NA,NA,NA,""
"image-keyboard-response",450,316614,"0.0-4.146-0.146","rp1rcej5njq4p66",118,"22.csv","","11","resources/trios/L1T2A3.jpg","38","restless",0.7,0.4,0.2,0.96193428745819,"false"
"image-keyboard-response",451,317016,"0.0-4.146-1.146","rp1rcej5njq4p66",118,"22.csv","","null","resources/maskTrios/BT2B.jpg","null","",NA,NA,NA,NA,""
"image-keyboard-response",452,318218,"0.0-4.146-2.146","rp1rcej5njq4p66",118,"22.csv","","null","resources/images/fishbone.png","null","",NA,NA,NA,NA,""
"image-keyboard-response",453,318308,"0.0-4.147-0.147","rp1rcej5njq4p66",118,"22.csv","","87","resources/trios/L1T2A3.jpg","38","restless",0.7,0.3,0.2,0.956460896836201,"false"
"image-keyboard-response",454,318710,"0.0-4.147-1.147","rp1rcej5njq4p66",118,"22.csv","","null","resources/maskTrios/BT2B.jpg","null","",NA,NA,NA,NA,""
"image-keyboard-response",455,320015,"0.0-4.147-2.147","rp1rcej5njq4p66",118,"22.csv","","null","resources/images/fishbone.png","null","",NA,NA,NA,NA,""
"image-keyboard-response",456,320134,"0.0-4.148-0.148","rp1rcej5njq4p66",118,"22.csv","","118","resources/trios/L1T2A3.jpg","38","restless",0.6,0.3,0.2,0.43813633660452,"false"
"image-keyboard-response",457,320537,"0.0-4.148-1.148","rp1rcej5njq4p66",118,"22.csv","","null","resources/maskTrios/BT2B.jpg","null","",NA,NA,NA,NA,""
"image-keyboard-response",458,321740,"0.0-4.148-2.148","rp1rcej5njq4p66",118,"22.csv","","null","resources/images/fishbone.png","null","",NA,NA,NA,NA,""
"image-keyboard-response",459,321868,"0.0-4.149-0.149","rp1rcej5njq4p66",118,"22.csv","","126","resources/trios/L1T2A3.jpg","38","restless",0.6,0.3,0.2,0.319529363278738,"false"
"image-keyboard-response",460,322270,"0.0-4.149-1.149","rp1rcej5njq4p66",118,"22.csv","","null","resources/maskTrios/BT2B.jpg","null","",NA,NA,NA,NA,""
"image-keyboard-response",461,323472,"0.0-4.149-2.149","rp1rcej5njq4p66",118,"22.csv","","null","resources/images/fishbone.png","null","",NA,NA,NA,NA,""
"image-keyboard-response",462,323621,"0.0-4.150-0.150","rp1rcej5njq4p66",118,"22.csv","","147","resources/trios/L1T2A3.jpg","38","restless",0.6,0.3,0.2,0.0229060531879929,"true"
"image-keyboard-response",463,324069,"0.0-4.150-1.150","rp1rcej5njq4p66",118,"22.csv","","null","resources/maskTrios/BT2B.jpg","null","",NA,NA,NA,NA,""
"image-keyboard-response",464,325272,"0.0-4.150-2.150","rp1rcej5njq4p66",118,"22.csv","","null","resources/images/coin2.png","null","",NA,NA,NA,NA,""
"image-keyboard-response",465,325358,"0.0-4.151-0.151","rp1rcej5njq4p66",118,"22.csv","","84","resources/trios/L1T2A3.jpg","38","restless",0.6,0.3,0.2,0.319719021293921,"false"
"image-keyboard-response",466,325761,"0.0-4.151-1.151","rp1rcej5njq4p66",118,"22.csv","","null","resources/maskTrios/BT2B.jpg","null","",NA,NA,NA,NA,""
"image-keyboard-response",467,326963,"0.0-4.151-2.151","rp1rcej5njq4p66",118,"22.csv","","null","resources/images/fishbone.png","null","",NA,NA,NA,NA,""
"image-keyboard-response",468,327148,"0.0-4.152-0.152","rp1rcej5njq4p66",118,"22.csv","","183","resources/trios/L1T2A3.jpg","38","restless",0.5,0.3,0.2,0.0304398970472284,"true"
"image-keyboard-response",469,327552,"0.0-4.152-1.152","rp1rcej5njq4p66",118,"22.csv","","null","resources/maskTrios/BT2B.jpg","null","",NA,NA,NA,NA,""
"image-keyboard-response",470,328754,"0.0-4.152-2.152","rp1rcej5njq4p66",118,"22.csv","","null","resources/images/coin2.png","null","",NA,NA,NA,NA,""
"image-keyboard-response",471,328762,"0.0-4.153-0.153","rp1rcej5njq4p66",118,"22.csv","","7","resources/trios/L1T2A3.jpg","38","restless",0.5,0.3,0.2,0.116810739194086,"true"
"image-keyboard-response",472,329165,"0.0-4.153-1.153","rp1rcej5njq4p66",118,"22.csv","","null","resources/maskTrios/BT2B.jpg","null","",NA,NA,NA,NA,""
"image-keyboard-response",473,330366,"0.0-4.153-2.153","rp1rcej5njq4p66",118,"22.csv","","null","resources/images/coin2.png","null","",NA,NA,NA,NA,""
"image-keyboard-response",474,330540,"0.0-4.154-0.154","rp1rcej5njq4p66",118,"22.csv","","174","resources/trios/L1T2A3.jpg","38","restless",0.5,0.3,0.2,0.272181263128634,"true"
"image-keyboard-response",475,330942,"0.0-4.154-1.154","rp1rcej5njq4p66",118,"22.csv","","null","resources/maskTrios/BT2B.jpg","null","",NA,NA,NA,NA,""
"image-keyboard-response",476,332167,"0.0-4.154-2.154","rp1rcej5njq4p66",118,"22.csv","","null","resources/images/coin2.png","null","",NA,NA,NA,NA,""
"image-keyboard-response",477,332343,"0.0-4.155-0.155","rp1rcej5njq4p66",118,"22.csv","","168","resources/trios/L1T2A3.jpg","38","restless",0.5,0.3,0.2,0.145206920988725,"true"
"image-keyboard-response",478,332747,"0.0-4.155-1.155","rp1rcej5njq4p66",118,"22.csv","","null","resources/maskTrios/BT2B.jpg","null","",NA,NA,NA,NA,""
"image-keyboard-response",479,333950,"0.0-4.155-2.155","rp1rcej5njq4p66",118,"22.csv","","null","resources/images/coin2.png","null","",NA,NA,NA,NA,""
"image-keyboard-response",480,333955,"0.0-4.156-0.156","rp1rcej5njq4p66",118,"22.csv","","3","resources/trios/L1T2A3.jpg","38","restless",0.6,0.3,0.2,0.867062350449853,"false"
"image-keyboard-response",481,334358,"0.0-4.156-1.156","rp1rcej5njq4p66",118,"22.csv","","null","resources/maskTrios/BT2B.jpg","null","",NA,NA,NA,NA,""
"image-keyboard-response",482,335559,"0.0-4.156-2.156","rp1rcej5njq4p66",118,"22.csv","","null","resources/images/fishbone.png","null","",NA,NA,NA,NA,""
"image-keyboard-response",483,335628,"0.0-4.157-0.157","rp1rcej5njq4p66",118,"22.csv","","66","resources/trios/L1T2A3.jpg","39","restless",0.6,0.3,0.2,0.327493456257999,"false"
"image-keyboard-response",484,336032,"0.0-4.157-1.157","rp1rcej5njq4p66",118,"22.csv","","null","resources/maskTrios/BBA3.jpg","null","",NA,NA,NA,NA,""
"image-keyboard-response",485,337234,"0.0-4.157-2.157","rp1rcej5njq4p66",118,"22.csv","","null","resources/images/fishbone.png","null","",NA,NA,NA,NA,""
"image-keyboard-response",486,337271,"0.0-4.158-0.158","rp1rcej5njq4p66",118,"22.csv","","34","resources/trios/L1T2A3.jpg","39","restless",0.6,0.3,0.2,0.519756794646407,"false"
"image-keyboard-response",487,337673,"0.0-4.158-1.158","rp1rcej5njq4p66",118,"22.csv","","null","resources/maskTrios/BBA3.jpg","null","",NA,NA,NA,NA,""
"image-keyboard-response",488,338876,"0.0-4.158-2.158","rp1rcej5njq4p66",118,"22.csv","","null","resources/images/fishbone.png","null","",NA,NA,NA,NA,""
"image-keyboard-response",489,338938,"0.0-4.159-0.159","rp1rcej5njq4p66",118,"22.csv","","60","resources/trios/L1T2A3.jpg","39","restless",0.6,0.3,0.2,0.51880811755982,"false"
"image-keyboard-response",490,339341,"0.0-4.159-1.159","rp1rcej5njq4p66",118,"22.csv","","null","resources/maskTrios/BBA3.jpg","null","",NA,NA,NA,NA,""
"image-keyboard-response",491,340542,"0.0-4.159-2.159","rp1rcej5njq4p66",118,"22.csv","","null","resources/images/fishbone.png","null","",NA,NA,NA,NA,""
"image-keyboard-response",492,340555,"0.0-4.160-0.160","rp1rcej5njq4p66",118,"22.csv","","10","resources/trios/L1T2A3.jpg","37","restless",0.6,0.3,0.3,0.422959379329121,"true"
"image-keyboard-response",493,340958,"0.0-4.160-1.160","rp1rcej5njq4p66",118,"22.csv","","null","resources/maskTrios/L1BB.jpg","null","",NA,NA,NA,NA,""
"image-keyboard-response",494,342195,"0.0-4.160-2.160","rp1rcej5njq4p66",118,"22.csv","","null","resources/images/coin2.png","null","",NA,NA,NA,NA,""
"image-keyboard-response",495,342253,"0.0-4.161-0.161","rp1rcej5njq4p66",118,"22.csv","","56","resources/trios/L1T2A3.jpg","38","restless",0.5,0.3,0.3,0.366337873358573,"false"
"image-keyboard-response",496,342655,"0.0-4.161-1.161","rp1rcej5njq4p66",118,"22.csv","","null","resources/maskTrios/BT2B.jpg","null","",NA,NA,NA,NA,""
"image-keyboard-response",497,343857,"0.0-4.161-2.161","rp1rcej5njq4p66",118,"22.csv","","null","resources/images/fishbone.png","null","",NA,NA,NA,NA,""
"image-keyboard-response",498,343902,"0.0-4.162-0.162","rp1rcej5njq4p66",118,"22.csv","","43","resources/trios/L1T2A3.jpg","37","restless",0.5,0.3,0.3,0.837477573615636,"false"
"image-keyboard-response",499,344304,"0.0-4.162-1.162","rp1rcej5njq4p66",118,"22.csv","","null","resources/maskTrios/L1BB.jpg","null","",NA,NA,NA,NA,""
"image-keyboard-response",500,345506,"0.0-4.162-2.162","rp1rcej5njq4p66",118,"22.csv","","null","resources/images/fishbone.png","null","",NA,NA,NA,NA,""
"image-keyboard-response",501,345539,"0.0-4.163-0.163","rp1rcej5njq4p66",118,"22.csv","","31","resources/trios/L1T2A3.jpg","39","restless",0.5,0.3,0.3,0.643456755517996,"false"
"image-keyboard-response",502,345942,"0.0-4.163-1.163","rp1rcej5njq4p66",118,"22.csv","","null","resources/maskTrios/BBA3.jpg","null","",NA,NA,NA,NA,""
"image-keyboard-response",503,347200,"0.0-4.163-2.163","rp1rcej5njq4p66",118,"22.csv","","null","resources/images/fishbone.png","null","",NA,NA,NA,NA,""
"image-keyboard-response",504,347269,"0.0-4.164-0.164","rp1rcej5njq4p66",118,"22.csv","","67","resources/trios/L1T2A3.jpg","39","restless",0.5,0.3,0.4,0.465417757231301,"false"
"image-keyboard-response",505,347671,"0.0-4.164-1.164","rp1rcej5njq4p66",118,"22.csv","","null","resources/maskTrios/BBA3.jpg","null","",NA,NA,NA,NA,""
"image-keyboard-response",506,348873,"0.0-4.164-2.164","rp1rcej5njq4p66",118,"22.csv","","null","resources/images/fishbone.png","null","",NA,NA,NA,NA,""
"image-keyboard-response",507,348979,"0.0-4.165-0.165","rp1rcej5njq4p66",118,"22.csv","","102","resources/trios/L1T2A3.jpg","39","restless",0.4,0.2,0.4,0.77346294306358,"false"
"image-keyboard-response",508,349381,"0.0-4.165-1.165","rp1rcej5njq4p66",118,"22.csv","","null","resources/maskTrios/BBA3.jpg","null","",NA,NA,NA,NA,""
"image-keyboard-response",509,350583,"0.0-4.165-2.165","rp1rcej5njq4p66",118,"22.csv","","null","resources/images/fishbone.png","null","",NA,NA,NA,NA,""
"image-keyboard-response",510,350640,"0.0-4.166-0.166","rp1rcej5njq4p66",118,"22.csv","","55","resources/trios/L1T2A3.jpg","37","restless",0.4,0.2,0.4,0.207091670807594,"true"
"image-keyboard-response",511,351041,"0.0-4.166-1.166","rp1rcej5njq4p66",118,"22.csv","","null","resources/maskTrios/L1BB.jpg","null","",NA,NA,NA,NA,""
"image-keyboard-response",512,352244,"0.0-4.166-2.166","rp1rcej5njq4p66",118,"22.csv","","null","resources/images/coin2.png","null","",NA,NA,NA,NA,""
"image-keyboard-response",513,352308,"0.0-4.167-0.167","rp1rcej5njq4p66",118,"22.csv","","62","resources/trios/L1T2A3.jpg","39","restless",0.4,0.2,0.4,0.763271290696084,"false"
"image-keyboard-response",514,352711,"0.0-4.167-1.167","rp1rcej5njq4p66",118,"22.csv","","null","resources/maskTrios/BBA3.jpg","null","",NA,NA,NA,NA,""
"image-keyboard-response",515,353913,"0.0-4.167-2.167","rp1rcej5njq4p66",118,"22.csv","","null","resources/images/fishbone.png","null","",NA,NA,NA,NA,""
"image-keyboard-response",516,353950,"0.0-4.168-0.168","rp1rcej5njq4p66",118,"22.csv","","35","resources/trios/L1T2A3.jpg","38","restless",0.4,0.2,0.4,0.541188231390672,"false"
"image-keyboard-response",517,354352,"0.0-4.168-1.168","rp1rcej5njq4p66",118,"22.csv","","null","resources/maskTrios/BT2B.jpg","null","",NA,NA,NA,NA,""
"image-keyboard-response",518,355555,"0.0-4.168-2.168","rp1rcej5njq4p66",118,"22.csv","","null","resources/images/fishbone.png","null","",NA,NA,NA,NA,""
"image-keyboard-response",519,355596,"0.0-4.169-0.169","rp1rcej5njq4p66",118,"22.csv","","41","resources/trios/L1T2A3.jpg","39","restless",0.5,0.2,0.5,0.223617599840249,"true"
"image-keyboard-response",520,356001,"0.0-4.169-1.169","rp1rcej5njq4p66",118,"22.csv","","null","resources/maskTrios/BBA3.jpg","null","",NA,NA,NA,NA,""
"image-keyboard-response",521,357244,"0.0-4.169-2.169","rp1rcej5njq4p66",118,"22.csv","","null","resources/images/coin2.png","null","",NA,NA,NA,NA,""
"image-keyboard-response",522,357291,"0.0-4.170-0.170","rp1rcej5njq4p66",118,"22.csv","","44","resources/trios/L1T2A3.jpg","39","restless",0.5,0.2,0.5,0.677079897900401,"false"
"image-keyboard-response",523,357694,"0.0-4.170-1.170","rp1rcej5njq4p66",118,"22.csv","","null","resources/maskTrios/BBA3.jpg","null","",NA,NA,NA,NA,""
"image-keyboard-response",524,358896,"0.0-4.170-2.170","rp1rcej5njq4p66",118,"22.csv","","null","resources/images/fishbone.png","null","",NA,NA,NA,NA,""
"image-keyboard-response",525,358972,"0.0-4.171-0.171","rp1rcej5njq4p66",118,"22.csv","","75","resources/trios/L1T2A3.jpg","39","restless",0.5,0.2,0.5,0.194083814939654,"true"
"image-keyboard-response",526,359375,"0.0-4.171-1.171","rp1rcej5njq4p66",118,"22.csv","","null","resources/maskTrios/BBA3.jpg","null","",NA,NA,NA,NA,""
"image-keyboard-response",527,360695,"0.0-4.171-2.171","rp1rcej5njq4p66",118,"22.csv","","null","resources/images/coin2.png","null","",NA,NA,NA,NA,""
"image-keyboard-response",528,360719,"0.0-4.172-0.172","rp1rcej5njq4p66",118,"22.csv","","21","resources/trios/L1T2A3.jpg","37","restless",0.5,0.2,0.5,0.0835680668594934,"true"
"image-keyboard-response",529,361121,"0.0-4.172-1.172","rp1rcej5njq4p66",118,"22.csv","","null","resources/maskTrios/L1BB.jpg","null","",NA,NA,NA,NA,""
"image-keyboard-response",530,362323,"0.0-4.172-2.172","rp1rcej5njq4p66",118,"22.csv","","null","resources/images/coin2.png","null","",NA,NA,NA,NA,""
"image-keyboard-response",531,362328,"0.0-4.173-0.173","rp1rcej5njq4p66",118,"22.csv","","3","resources/trios/L1T2A3.jpg","37","restless",0.5,0.2,0.5,0.266924840068385,"true"
"image-keyboard-response",532,362730,"0.0-4.173-1.173","rp1rcej5njq4p66",118,"22.csv","","null","resources/maskTrios/L1BB.jpg","null","",NA,NA,NA,NA,""
"image-keyboard-response",533,363932,"0.0-4.173-2.173","rp1rcej5njq4p66",118,"22.csv","","null","resources/images/coin2.png","null","",NA,NA,NA,NA,""
"image-keyboard-response",534,363999,"0.0-4.174-0.174","rp1rcej5njq4p66",118,"22.csv","","65","resources/trios/L1T2A3.jpg","38","restless",0.5,0.2,0.5,0.077619674799088,"true"
"image-keyboard-response",535,364401,"0.0-4.174-1.174","rp1rcej5njq4p66",118,"22.csv","","null","resources/maskTrios/BT2B.jpg","null","",NA,NA,NA,NA,""
"image-keyboard-response",536,365603,"0.0-4.174-2.174","rp1rcej5njq4p66",118,"22.csv","","null","resources/images/coin2.png","null","",NA,NA,NA,NA,""
"image-keyboard-response",537,365628,"0.0-4.175-0.175","rp1rcej5njq4p66",118,"22.csv","","23","resources/trios/L1T2A3.jpg","39","restless",0.5,0.1,0.5,0.334234973430237,"true"
"image-keyboard-response",538,366031,"0.0-4.175-1.175","rp1rcej5njq4p66",118,"22.csv","","null","resources/maskTrios/BBA3.jpg","null","",NA,NA,NA,NA,""
"image-keyboard-response",539,367323,"0.0-4.175-2.175","rp1rcej5njq4p66",118,"22.csv","","null","resources/images/coin2.png","null","",NA,NA,NA,NA,""
"image-keyboard-response",540,367357,"0.0-4.176-0.176","rp1rcej5njq4p66",118,"22.csv","","32","resources/trios/L1T2A3.jpg","37","restless",0.5,0.2,0.5,0.302814326547855,"true"
"image-keyboard-response",541,367759,"0.0-4.176-1.176","rp1rcej5njq4p66",118,"22.csv","","null","resources/maskTrios/L1BB.jpg","null","",NA,NA,NA,NA,""
"image-keyboard-response",542,368962,"0.0-4.176-2.176","rp1rcej5njq4p66",118,"22.csv","","null","resources/images/coin2.png","null","",NA,NA,NA,NA,""
"image-keyboard-response",543,369049,"0.0-4.177-0.177","rp1rcej5njq4p66",118,"22.csv","","85","resources/trios/L1T2A3.jpg","39","restless",0.6,0.3,0.5,0.319024928637652,"true"
"image-keyboard-response",544,369452,"0.0-4.177-1.177","rp1rcej5njq4p66",118,"22.csv","","null","resources/maskTrios/BBA3.jpg","null","",NA,NA,NA,NA,""
"image-keyboard-response",545,370654,"0.0-4.177-2.177","rp1rcej5njq4p66",118,"22.csv","","null","resources/images/coin2.png","null","",NA,NA,NA,NA,""
"image-keyboard-response",546,370732,"0.0-4.178-0.178","rp1rcej5njq4p66",118,"22.csv","","77","resources/trios/L1T2A3.jpg","37","restless",0.6,0.3,0.6,0.502973067670418,"true"
"image-keyboard-response",547,371135,"0.0-4.178-1.178","rp1rcej5njq4p66",118,"22.csv","","null","resources/maskTrios/L1BB.jpg","null","",NA,NA,NA,NA,""
"image-keyboard-response",548,372337,"0.0-4.178-2.178","rp1rcej5njq4p66",118,"22.csv","","null","resources/images/coin2.png","null","",NA,NA,NA,NA,""
"image-keyboard-response",549,372383,"0.0-4.179-0.179","rp1rcej5njq4p66",118,"22.csv","","44","resources/trios/L1T2A3.jpg","37","restless",0.6,0.3,0.6,0.264606530450875,"true"
"image-keyboard-response",550,372786,"0.0-4.179-1.179","rp1rcej5njq4p66",118,"22.csv","","null","resources/maskTrios/L1BB.jpg","null","",NA,NA,NA,NA,""
"image-keyboard-response",551,373988,"0.0-4.179-2.179","rp1rcej5njq4p66",118,"22.csv","","null","resources/images/coin2.png","null","",NA,NA,NA,NA,""
"image-keyboard-response",552,374012,"0.0-4.180-0.180","rp1rcej5njq4p66",118,"22.csv","","22","resources/trios/L1T2A3.jpg","37","restless",0.6,0.3,0.6,0.126747027375844,"true"
"image-keyboard-response",553,374413,"0.0-4.180-1.180","rp1rcej5njq4p66",118,"22.csv","","null","resources/maskTrios/L1BB.jpg","null","",NA,NA,NA,NA,""
"image-keyboard-response",554,375615,"0.0-4.180-2.180","rp1rcej5njq4p66",118,"22.csv","","null","resources/images/coin2.png","null","",NA,NA,NA,NA,""
"image-keyboard-response",555,375619,"0.0-4.181-0.181","rp1rcej5njq4p66",118,"22.csv","","3","resources/trios/L1T2A3.jpg","39","restless",0.6,0.2,0.7,0.868258680191827,"false"
"image-keyboard-response",556,376020,"0.0-4.181-1.181","rp1rcej5njq4p66",118,"22.csv","","null","resources/maskTrios/BBA3.jpg","null","",NA,NA,NA,NA,""
"image-keyboard-response",557,377223,"0.0-4.181-2.181","rp1rcej5njq4p66",118,"22.csv","","null","resources/images/fishbone.png","null","",NA,NA,NA,NA,""
"image-keyboard-response",558,377241,"0.0-4.182-0.182","rp1rcej5njq4p66",118,"22.csv","","16","resources/trios/L1T2A3.jpg","37","restless",0.6,0.2,0.7,0.936618426591342,"false"
"image-keyboard-response",559,377643,"0.0-4.182-1.182","rp1rcej5njq4p66",118,"22.csv","","null","resources/maskTrios/L1BB.jpg","null","",NA,NA,NA,NA,""
"image-keyboard-response",560,378845,"0.0-4.182-2.182","rp1rcej5njq4p66",118,"22.csv","","null","resources/images/fishbone.png","null","",NA,NA,NA,NA,""
"image-keyboard-response",561,378933,"0.0-4.183-0.183","rp1rcej5njq4p66",118,"22.csv","","85","resources/trios/L1T2A3.jpg","38","restless",0.7,0.2,0.7,0.399507786823548,"false"
"image-keyboard-response",562,379336,"0.0-4.183-1.183","rp1rcej5njq4p66",118,"22.csv","","null","resources/maskTrios/BT2B.jpg","null","",NA,NA,NA,NA,""
"image-keyboard-response",563,380538,"0.0-4.183-2.183","rp1rcej5njq4p66",118,"22.csv","","null","resources/images/fishbone.png","null","",NA,NA,NA,NA,""
"image-keyboard-response",564,380554,"0.0-4.184-0.184","rp1rcej5njq4p66",118,"22.csv","","15","resources/trios/L1T2A3.jpg","39","restless",0.7,0.2,0.7,0.116356677380836,"true"
"image-keyboard-response",565,380956,"0.0-4.184-1.184","rp1rcej5njq4p66",118,"22.csv","","null","resources/maskTrios/BBA3.jpg","null","",NA,NA,NA,NA,""
"image-keyboard-response",566,382158,"0.0-4.184-2.184","rp1rcej5njq4p66",118,"22.csv","","null","resources/images/coin2.png","null","",NA,NA,NA,NA,""
"image-keyboard-response",567,382193,"0.0-4.185-0.185","rp1rcej5njq4p66",118,"22.csv","","33","resources/trios/L1T2A3.jpg","37","restless",0.7,0.2,0.7,0.216122585230717,"true"
"image-keyboard-response",568,382596,"0.0-4.185-1.185","rp1rcej5njq4p66",118,"22.csv","","null","resources/maskTrios/L1BB.jpg","null","",NA,NA,NA,NA,""
"image-keyboard-response",569,383798,"0.0-4.185-2.185","rp1rcej5njq4p66",118,"22.csv","","null","resources/images/coin2.png","null","",NA,NA,NA,NA,""
"image-keyboard-response",570,383869,"0.0-4.186-0.186","rp1rcej5njq4p66",118,"22.csv","","68","resources/trios/L1T2A3.jpg","39","restless",0.7,0.3,0.7,0.670447951896071,"true"
"image-keyboard-response",571,384271,"0.0-4.186-1.186","rp1rcej5njq4p66",118,"22.csv","","null","resources/maskTrios/BBA3.jpg","null","",NA,NA,NA,NA,""
"image-keyboard-response",572,385474,"0.0-4.186-2.186","rp1rcej5njq4p66",118,"22.csv","","null","resources/images/coin2.png","null","",NA,NA,NA,NA,""
"image-keyboard-response",573,385505,"0.0-4.187-0.187","rp1rcej5njq4p66",118,"22.csv","","29","resources/trios/L1T2A3.jpg","37","restless",0.7,0.3,0.7,0.721932610308132,"false"
"image-keyboard-response",574,385908,"0.0-4.187-1.187","rp1rcej5njq4p66",118,"22.csv","","null","resources/maskTrios/L1BB.jpg","null","",NA,NA,NA,NA,""
"image-keyboard-response",575,387110,"0.0-4.187-2.187","rp1rcej5njq4p66",118,"22.csv","","null","resources/images/fishbone.png","null","",NA,NA,NA,NA,""
"image-keyboard-response",576,387149,"0.0-4.188-0.188","rp1rcej5njq4p66",118,"22.csv","","37","resources/trios/L1T2A3.jpg","39","restless",0.7,0.3,0.7,0.155359203685758,"true"
"image-keyboard-response",577,387596,"0.0-4.188-1.188","rp1rcej5njq4p66",118,"22.csv","","null","resources/maskTrios/BBA3.jpg","null","",NA,NA,NA,NA,""
"image-keyboard-response",578,388799,"0.0-4.188-2.188","rp1rcej5njq4p66",118,"22.csv","","null","resources/images/coin2.png","null","",NA,NA,NA,NA,""
"image-keyboard-response",579,388841,"0.0-4.189-0.189","rp1rcej5njq4p66",118,"22.csv","","41","resources/trios/L1T2A3.jpg","38","restless",0.7,0.3,0.8,0.758748839566715,"false"
"image-keyboard-response",580,389244,"0.0-4.189-1.189","rp1rcej5njq4p66",118,"22.csv","","null","resources/maskTrios/BT2B.jpg","null","",NA,NA,NA,NA,""
"image-keyboard-response",581,390445,"0.0-4.189-2.189","rp1rcej5njq4p66",118,"22.csv","","null","resources/images/fishbone.png","null","",NA,NA,NA,NA,""
"image-keyboard-response",582,390527,"0.0-4.190-0.190","rp1rcej5njq4p66",118,"22.csv","","81","resources/trios/L1T2A3.jpg","38","restless",0.6,0.2,0.8,0.248452909744406,"false"
"image-keyboard-response",583,390930,"0.0-4.190-1.190","rp1rcej5njq4p66",118,"22.csv","","null","resources/maskTrios/BT2B.jpg","null","",NA,NA,NA,NA,""
"image-keyboard-response",584,392133,"0.0-4.190-2.190","rp1rcej5njq4p66",118,"22.csv","","null","resources/images/fishbone.png","null","",NA,NA,NA,NA,""
"image-keyboard-response",585,392202,"0.0-4.191-0.191","rp1rcej5njq4p66",118,"22.csv","","61","resources/trios/L1T2A3.jpg","39","restless",0.6,0.2,0.8,0.0697367923825826,"true"
"image-keyboard-response",586,392606,"0.0-4.191-1.191","rp1rcej5njq4p66",118,"22.csv","","null","resources/maskTrios/BBA3.jpg","null","",NA,NA,NA,NA,""
"image-keyboard-response",587,393809,"0.0-4.191-2.191","rp1rcej5njq4p66",118,"22.csv","","null","resources/images/coin2.png","null","",NA,NA,NA,NA,""
"image-keyboard-response",588,393823,"0.0-4.192-0.192","rp1rcej5njq4p66",118,"22.csv","","13","resources/trios/L1T2A3.jpg","39","restless",0.6,0.2,0.8,0.790958404647707,"true"
"image-keyboard-response",589,394227,"0.0-4.192-1.192","rp1rcej5njq4p66",118,"22.csv","","null","resources/maskTrios/BBA3.jpg","null","",NA,NA,NA,NA,""
"image-keyboard-response",590,395428,"0.0-4.192-2.192","rp1rcej5njq4p66",118,"22.csv","","null","resources/images/coin2.png","null","",NA,NA,NA,NA,""
"image-keyboard-response",591,395494,"0.0-4.193-0.193","rp1rcej5njq4p66",118,"22.csv","","62","resources/trios/L1T2A3.jpg","39","restless",0.6,0.2,0.8,0.814872441780159,"false"
"image-keyboard-response",592,395896,"0.0-4.193-1.193","rp1rcej5njq4p66",118,"22.csv","","null","resources/maskTrios/BBA3.jpg","null","",NA,NA,NA,NA,""
"image-keyboard-response",593,397099,"0.0-4.193-2.193","rp1rcej5njq4p66",118,"22.csv","","null","resources/images/fishbone.png","null","",NA,NA,NA,NA,""
"image-keyboard-response",594,397157,"0.0-4.194-0.194","rp1rcej5njq4p66",118,"22.csv","","57","resources/trios/L1T2A3.jpg","39","restless",0.6,0.2,0.8,0.271034572931568,"true"
"image-keyboard-response",595,397602,"0.0-4.194-1.194","rp1rcej5njq4p66",118,"22.csv","","null","resources/maskTrios/BBA3.jpg","null","",NA,NA,NA,NA,""
"image-keyboard-response",596,398805,"0.0-4.194-2.194","rp1rcej5njq4p66",118,"22.csv","","null","resources/images/coin2.png","null","",NA,NA,NA,NA,""
"image-keyboard-response",597,398855,"0.0-4.195-0.195","rp1rcej5njq4p66",118,"22.csv","","48","resources/trios/L1T2A3.jpg","39","restless",0.6,0.2,0.8,0.418434292546997,"true"
"image-keyboard-response",598,399258,"0.0-4.195-1.195","rp1rcej5njq4p66",118,"22.csv","","null","resources/maskTrios/BBA3.jpg","null","",NA,NA,NA,NA,""
"image-keyboard-response",599,400459,"0.0-4.195-2.195","rp1rcej5njq4p66",118,"22.csv","","null","resources/images/coin2.png","null","",NA,NA,NA,NA,""
"image-keyboard-response",600,400488,"0.0-4.196-0.196","rp1rcej5njq4p66",118,"22.csv","","25","resources/trios/L1T2A3.jpg","37","restless",0.6,0.2,0.8,0.0730811114908025,"true"
"image-keyboard-response",601,400891,"0.0-4.196-1.196","rp1rcej5njq4p66",118,"22.csv","","null","resources/maskTrios/L1BB.jpg","null","",NA,NA,NA,NA,""
"image-keyboard-response",602,402093,"0.0-4.196-2.196","rp1rcej5njq4p66",118,"22.csv","","null","resources/images/coin2.png","null","",NA,NA,NA,NA,""
"image-keyboard-response",603,402183,"0.0-4.197-0.197","rp1rcej5njq4p66",118,"22.csv","","87","resources/trios/L1T2A3.jpg","37","restless",0.6,0.3,0.7,0.0158300030940298,"true"
"image-keyboard-response",604,402607,"0.0-4.197-1.197","rp1rcej5njq4p66",118,"22.csv","","null","resources/maskTrios/L1BB.jpg","null","",NA,NA,NA,NA,""
"image-keyboard-response",605,403825,"0.0-4.197-2.197","rp1rcej5njq4p66",118,"22.csv","","null","resources/images/coin2.png","null","",NA,NA,NA,NA,""
"image-keyboard-response",606,403845,"0.0-4.198-0.198","rp1rcej5njq4p66",118,"22.csv","","17","resources/trios/L1T2A3.jpg","39","restless",0.6,0.3,0.7,0.800909358298901,"false"
"image-keyboard-response",607,404248,"0.0-4.198-1.198","rp1rcej5njq4p66",118,"22.csv","","null","resources/maskTrios/BBA3.jpg","null","",NA,NA,NA,NA,""
"image-keyboard-response",608,405450,"0.0-4.198-2.198","rp1rcej5njq4p66",118,"22.csv","","null","resources/images/fishbone.png","null","",NA,NA,NA,NA,""
"image-keyboard-response",609,405516,"0.0-4.199-0.199","rp1rcej5njq4p66",118,"22.csv","","64","resources/trios/L1T2A3.jpg","39","restless",0.6,0.3,0.7,0.419745056194676,"true"
"image-keyboard-response",610,405918,"0.0-4.199-1.199","rp1rcej5njq4p66",118,"22.csv","","null","resources/maskTrios/BBA3.jpg","null","",NA,NA,NA,NA,""
"image-keyboard-response",611,407119,"0.0-4.199-2.199","rp1rcej5njq4p66",118,"22.csv","","null","resources/images/coin2.png","null","",NA,NA,NA,NA,""
"survey-text",612,432687,"0.0-5.0","rp1rcej5njq4p66",118,"22.csv","","25557","","","",NA,NA,NA,NA,""
