"trial_type","trial_index","time_elapsed","internal_node_id","subject","participantCode","walkNumber","success","rt","stimulus","key_press","test_part","leftProb","midProb","rightProb","generatedNum","correct"
"pavlovia",0,527,"0.0-0.0","v7k6wh8rn6m4lfu",612,"134.csv","","","","","",NA,NA,NA,NA,""
"fullscreen",1,7293,"0.0-1.0","v7k6wh8rn6m4lfu",612,"134.csv","true","","","","",NA,NA,NA,NA,""
"survey-html-form",2,14994,"0.0-2.0","v7k6wh8rn6m4lfu",612,"134.csv","","7698.899999856949","","","",NA,NA,NA,NA,""
"image-keyboard-response",3,18668,"0.0-3.0-0.0","v7k6wh8rn6m4lfu",612,"134.csv","","3670","resources/images/parrot_nobg.png","13","",NA,NA,NA,NA,""
"image-keyboard-response",4,21670,"0.0-3.0-1.0","v7k6wh8rn6m4lfu",612,"134.csv","","null","resources/image_sets/111.png","null","",NA,NA,NA,NA,""
"image-keyboard-response",5,27945,"0.0-3.0-2.0","v7k6wh8rn6m4lfu",612,"134.csv","","6273.099999904633","resources/image_sets/left_highlight.png","37","",NA,NA,NA,NA,""
"image-keyboard-response",6,30450,"0.0-3.0-3.0","v7k6wh8rn6m4lfu",612,"134.csv","","2503.600000143051","resources/image_sets/mid_highlight.png","38","",NA,NA,NA,NA,""
"image-keyboard-response",7,31550,"0.0-3.0-4.0","v7k6wh8rn6m4lfu",612,"134.csv","","1099.2999999523163","resources/image_sets/right_highlight.png","39","",NA,NA,NA,NA,""
"image-keyboard-response",8,33140,"0.0-3.0-5.0","v7k6wh8rn6m4lfu",612,"134.csv","","1587.7000000476837","resources/image_sets/111.png","13","",NA,NA,NA,NA,""
"image-keyboard-response",9,36600,"0.0-3.0-6.0","v7k6wh8rn6m4lfu",612,"134.csv","","3458.4000000953674","resources/images/coin2.png","13","",NA,NA,NA,NA,""
"image-keyboard-response",10,38981,"0.0-3.0-7.0","v7k6wh8rn6m4lfu",612,"134.csv","","2380.0999999046326","resources/images/fishbone.png","13","",NA,NA,NA,NA,""
"html-keyboard-response",11,42618,"0.0-3.0-8.0","v7k6wh8rn6m4lfu",612,"134.csv","","3635.2000000476837","<p>You can track your coin total on the top right of your screen. </p><p>At the end of your journey you will be directed to a survey, so please click on the link before exiting the task</p><p>Press Enter to begin</p>","13","",NA,NA,NA,NA,""
"image-keyboard-response",12,44977,"0.0-4.0-0.0","v7k6wh8rn6m4lfu",612,"134.csv","","2356.899999856949","resources/trios/L1T2A3.jpg","37","restless",0.7,0.9,0.3,0.835002635325631,"false"
"image-keyboard-response",13,45383,"0.0-4.0-1.0","v7k6wh8rn6m4lfu",612,"134.csv","","null","resources/maskTrios/L1BB.jpg","null","",NA,NA,NA,NA,""
"image-keyboard-response",14,46587,"0.0-4.0-2.0","v7k6wh8rn6m4lfu",612,"134.csv","","null","resources/images/fishbone.png","null","",NA,NA,NA,NA,""
"image-keyboard-response",15,47767,"0.0-4.1-0.1","v7k6wh8rn6m4lfu",612,"134.csv","","1177.8999998569489","resources/trios/L1T2A3.jpg","38","restless",0.7,0.9,0.3,0.630001525231434,"true"
"image-keyboard-response",16,48170,"0.0-4.1-1.1","v7k6wh8rn6m4lfu",612,"134.csv","","null","resources/maskTrios/BT2B.jpg","null","",NA,NA,NA,NA,""
"image-keyboard-response",17,49379,"0.0-4.1-2.1","v7k6wh8rn6m4lfu",612,"134.csv","","null","resources/images/coin2.png","null","",NA,NA,NA,NA,""
"image-keyboard-response",18,49954,"0.0-4.2-0.2","v7k6wh8rn6m4lfu",612,"134.csv","","573.1000001430511","resources/trios/L1T2A3.jpg","38","restless",0.6,0.9,0.3,0.430170496416596,"true"
"image-keyboard-response",19,50357,"0.0-4.2-1.2","v7k6wh8rn6m4lfu",612,"134.csv","","null","resources/maskTrios/BT2B.jpg","null","",NA,NA,NA,NA,""
"image-keyboard-response",20,51561,"0.0-4.2-2.2","v7k6wh8rn6m4lfu",612,"134.csv","","null","resources/images/coin2.png","null","",NA,NA,NA,NA,""
"image-keyboard-response",21,52036,"0.0-4.3-0.3","v7k6wh8rn6m4lfu",612,"134.csv","","473","resources/trios/L1T2A3.jpg","38","restless",0.5,0.9,0.3,0.578536121239869,"true"
"image-keyboard-response",22,52439,"0.0-4.3-1.3","v7k6wh8rn6m4lfu",612,"134.csv","","null","resources/maskTrios/BT2B.jpg","null","",NA,NA,NA,NA,""
"image-keyboard-response",23,53643,"0.0-4.3-2.3","v7k6wh8rn6m4lfu",612,"134.csv","","null","resources/images/coin2.png","null","",NA,NA,NA,NA,""
"image-keyboard-response",24,54189,"0.0-4.4-0.4","v7k6wh8rn6m4lfu",612,"134.csv","","543.3000001907349","resources/trios/L1T2A3.jpg","38","restless",0.5,0.9,0.3,0.98613976787744,"false"
"image-keyboard-response",25,54592,"0.0-4.4-1.4","v7k6wh8rn6m4lfu",612,"134.csv","","null","resources/maskTrios/BT2B.jpg","null","",NA,NA,NA,NA,""
"image-keyboard-response",26,55795,"0.0-4.4-2.4","v7k6wh8rn6m4lfu",612,"134.csv","","null","resources/images/fishbone.png","null","",NA,NA,NA,NA,""
"image-keyboard-response",27,56421,"0.0-4.5-0.5","v7k6wh8rn6m4lfu",612,"134.csv","","624.2000000476837","resources/trios/L1T2A3.jpg","39","restless",0.5,0.9,0.3,0.29224067469751,"true"
"image-keyboard-response",28,56824,"0.0-4.5-1.5","v7k6wh8rn6m4lfu",612,"134.csv","","null","resources/maskTrios/BBA3.jpg","null","",NA,NA,NA,NA,""
"image-keyboard-response",29,58027,"0.0-4.5-2.5","v7k6wh8rn6m4lfu",612,"134.csv","","null","resources/images/coin2.png","null","",NA,NA,NA,NA,""
"image-keyboard-response",30,58489,"0.0-4.6-0.6","v7k6wh8rn6m4lfu",612,"134.csv","","460.90000009536743","resources/trios/L1T2A3.jpg","39","restless",0.5,0.9,0.3,0.29902202809396,"true"
"image-keyboard-response",31,58893,"0.0-4.6-1.6","v7k6wh8rn6m4lfu",612,"134.csv","","null","resources/maskTrios/BBA3.jpg","null","",NA,NA,NA,NA,""
"image-keyboard-response",32,60096,"0.0-4.6-2.6","v7k6wh8rn6m4lfu",612,"134.csv","","null","resources/images/coin2.png","null","",NA,NA,NA,NA,""
"image-keyboard-response",33,61443,"0.0-4.7-0.7","v7k6wh8rn6m4lfu",612,"134.csv","","1345","resources/trios/L1T2A3.jpg","39","restless",0.5,0.8,0.3,0.705787202010701,"false"
"image-keyboard-response",34,61846,"0.0-4.7-1.7","v7k6wh8rn6m4lfu",612,"134.csv","","null","resources/maskTrios/BBA3.jpg","null","",NA,NA,NA,NA,""
"image-keyboard-response",35,63049,"0.0-4.7-2.7","v7k6wh8rn6m4lfu",612,"134.csv","","null","resources/images/fishbone.png","null","",NA,NA,NA,NA,""
"image-keyboard-response",36,63377,"0.0-4.8-0.8","v7k6wh8rn6m4lfu",612,"134.csv","","326.59999990463257","resources/trios/L1T2A3.jpg","37","restless",0.5,0.8,0.3,0.846051144296956,"false"
"image-keyboard-response",37,63780,"0.0-4.8-1.8","v7k6wh8rn6m4lfu",612,"134.csv","","null","resources/maskTrios/L1BB.jpg","null","",NA,NA,NA,NA,""
"image-keyboard-response",38,64983,"0.0-4.8-2.8","v7k6wh8rn6m4lfu",612,"134.csv","","null","resources/images/fishbone.png","null","",NA,NA,NA,NA,""
"image-keyboard-response",39,65393,"0.0-4.9-0.9","v7k6wh8rn6m4lfu",612,"134.csv","","407.7999999523163","resources/trios/L1T2A3.jpg","38","restless",0.5,0.8,0.3,0.00933567545565217,"true"
"image-keyboard-response",40,65796,"0.0-4.9-1.9","v7k6wh8rn6m4lfu",612,"134.csv","","null","resources/maskTrios/BT2B.jpg","null","",NA,NA,NA,NA,""
"image-keyboard-response",41,66999,"0.0-4.9-2.9","v7k6wh8rn6m4lfu",612,"134.csv","","null","resources/images/coin2.png","null","",NA,NA,NA,NA,""
"image-keyboard-response",42,67356,"0.0-4.10-0.10","v7k6wh8rn6m4lfu",612,"134.csv","","355.09999990463257","resources/trios/L1T2A3.jpg","38","restless",0.5,0.8,0.3,0.347095681210707,"true"
"image-keyboard-response",43,67760,"0.0-4.10-1.10","v7k6wh8rn6m4lfu",612,"134.csv","","null","resources/maskTrios/BT2B.jpg","null","",NA,NA,NA,NA,""
"image-keyboard-response",44,68964,"0.0-4.10-2.10","v7k6wh8rn6m4lfu",612,"134.csv","","null","resources/images/coin2.png","null","",NA,NA,NA,NA,""
"image-keyboard-response",45,69325,"0.0-4.11-0.11","v7k6wh8rn6m4lfu",612,"134.csv","","359.2000000476837","resources/trios/L1T2A3.jpg","37","restless",0.6,0.8,0.2,0.0621931653684669,"true"
"image-keyboard-response",46,69728,"0.0-4.11-1.11","v7k6wh8rn6m4lfu",612,"134.csv","","null","resources/maskTrios/L1BB.jpg","null","",NA,NA,NA,NA,""
"image-keyboard-response",47,70932,"0.0-4.11-2.11","v7k6wh8rn6m4lfu",612,"134.csv","","null","resources/images/coin2.png","null","",NA,NA,NA,NA,""
"image-keyboard-response",48,71265,"0.0-4.12-0.12","v7k6wh8rn6m4lfu",612,"134.csv","","331.5","resources/trios/L1T2A3.jpg","37","restless",0.6,0.8,0.2,0.138116738847858,"true"
"image-keyboard-response",49,71669,"0.0-4.12-1.12","v7k6wh8rn6m4lfu",612,"134.csv","","null","resources/maskTrios/L1BB.jpg","null","",NA,NA,NA,NA,""
"image-keyboard-response",50,72873,"0.0-4.12-2.12","v7k6wh8rn6m4lfu",612,"134.csv","","null","resources/images/coin2.png","null","",NA,NA,NA,NA,""
"image-keyboard-response",51,73221,"0.0-4.13-0.13","v7k6wh8rn6m4lfu",612,"134.csv","","346.69999980926514","resources/trios/L1T2A3.jpg","39","restless",0.6,0.8,0.2,0.698264172654774,"false"
"image-keyboard-response",52,73624,"0.0-4.13-1.13","v7k6wh8rn6m4lfu",612,"134.csv","","null","resources/maskTrios/BBA3.jpg","null","",NA,NA,NA,NA,""
"image-keyboard-response",53,74827,"0.0-4.13-2.13","v7k6wh8rn6m4lfu",612,"134.csv","","null","resources/images/fishbone.png","null","",NA,NA,NA,NA,""
"image-keyboard-response",54,75141,"0.0-4.14-0.14","v7k6wh8rn6m4lfu",612,"134.csv","","311.60000014305115","resources/trios/L1T2A3.jpg","38","restless",0.6,0.8,0.2,0.846775617002217,"false"
"image-keyboard-response",55,75544,"0.0-4.14-1.14","v7k6wh8rn6m4lfu",612,"134.csv","","null","resources/maskTrios/BT2B.jpg","null","",NA,NA,NA,NA,""
"image-keyboard-response",56,76746,"0.0-4.14-2.14","v7k6wh8rn6m4lfu",612,"134.csv","","null","resources/images/fishbone.png","null","",NA,NA,NA,NA,""
"image-keyboard-response",57,77019,"0.0-4.15-0.15","v7k6wh8rn6m4lfu",612,"134.csv","","270.5","resources/trios/L1T2A3.jpg","37","restless",0.6,0.8,0.1,0.205018332281232,"true"
"image-keyboard-response",58,77421,"0.0-4.15-1.15","v7k6wh8rn6m4lfu",612,"134.csv","","null","resources/maskTrios/L1BB.jpg","null","",NA,NA,NA,NA,""
"image-keyboard-response",59,78625,"0.0-4.15-2.15","v7k6wh8rn6m4lfu",612,"134.csv","","null","resources/images/coin2.png","null","",NA,NA,NA,NA,""
"image-keyboard-response",60,79092,"0.0-4.16-0.16","v7k6wh8rn6m4lfu",612,"134.csv","","465.2000000476837","resources/trios/L1T2A3.jpg","37","restless",0.6,0.7,0.1,0.343948675783829,"true"
"image-keyboard-response",61,79495,"0.0-4.16-1.16","v7k6wh8rn6m4lfu",612,"134.csv","","null","resources/maskTrios/L1BB.jpg","null","",NA,NA,NA,NA,""
"image-keyboard-response",62,80699,"0.0-4.16-2.16","v7k6wh8rn6m4lfu",612,"134.csv","","null","resources/images/coin2.png","null","",NA,NA,NA,NA,""
"image-keyboard-response",63,82103,"0.0-4.17-0.17","v7k6wh8rn6m4lfu",612,"134.csv","","1401.0999999046326","resources/trios/L1T2A3.jpg","39","restless",0.6,0.6,0.1,0.805893696133306,"false"
"image-keyboard-response",64,82506,"0.0-4.17-1.17","v7k6wh8rn6m4lfu",612,"134.csv","","null","resources/maskTrios/BBA3.jpg","null","",NA,NA,NA,NA,""
"image-keyboard-response",65,83709,"0.0-4.17-2.17","v7k6wh8rn6m4lfu",612,"134.csv","","null","resources/images/fishbone.png","null","",NA,NA,NA,NA,""
"image-keyboard-response",66,83974,"0.0-4.18-0.18","v7k6wh8rn6m4lfu",612,"134.csv","","263","resources/trios/L1T2A3.jpg","38","restless",0.5,0.6,0.1,0.94835936609205,"false"
"image-keyboard-response",67,84378,"0.0-4.18-1.18","v7k6wh8rn6m4lfu",612,"134.csv","","null","resources/maskTrios/BT2B.jpg","null","",NA,NA,NA,NA,""
"image-keyboard-response",68,85582,"0.0-4.18-2.18","v7k6wh8rn6m4lfu",612,"134.csv","","null","resources/images/fishbone.png","null","",NA,NA,NA,NA,""
"image-keyboard-response",69,85905,"0.0-4.19-0.19","v7k6wh8rn6m4lfu",612,"134.csv","","321.39999985694885","resources/trios/L1T2A3.jpg","37","restless",0.6,0.6,0.1,0.350171489463775,"true"
"image-keyboard-response",70,86308,"0.0-4.19-1.19","v7k6wh8rn6m4lfu",612,"134.csv","","null","resources/maskTrios/L1BB.jpg","null","",NA,NA,NA,NA,""
"image-keyboard-response",71,87512,"0.0-4.19-2.19","v7k6wh8rn6m4lfu",612,"134.csv","","null","resources/images/coin2.png","null","",NA,NA,NA,NA,""
"image-keyboard-response",72,87808,"0.0-4.20-0.20","v7k6wh8rn6m4lfu",612,"134.csv","","294.5","resources/trios/L1T2A3.jpg","37","restless",0.6,0.6,0.1,0.176849405569894,"true"
"image-keyboard-response",73,88212,"0.0-4.20-1.20","v7k6wh8rn6m4lfu",612,"134.csv","","null","resources/maskTrios/L1BB.jpg","null","",NA,NA,NA,NA,""
"image-keyboard-response",74,89415,"0.0-4.20-2.20","v7k6wh8rn6m4lfu",612,"134.csv","","null","resources/images/coin2.png","null","",NA,NA,NA,NA,""
"image-keyboard-response",75,90163,"0.0-4.21-0.21","v7k6wh8rn6m4lfu",612,"134.csv","","745.8999998569489","resources/trios/L1T2A3.jpg","37","restless",0.6,0.7,0.1,0.0290094285217073,"true"
"image-keyboard-response",76,90565,"0.0-4.21-1.21","v7k6wh8rn6m4lfu",612,"134.csv","","null","resources/maskTrios/L1BB.jpg","null","",NA,NA,NA,NA,""
"image-keyboard-response",77,91768,"0.0-4.21-2.21","v7k6wh8rn6m4lfu",612,"134.csv","","null","resources/images/coin2.png","null","",NA,NA,NA,NA,""
"image-keyboard-response",78,92086,"0.0-4.22-0.22","v7k6wh8rn6m4lfu",612,"134.csv","","315.2999999523163","resources/trios/L1T2A3.jpg","37","restless",0.6,0.6,0.1,0.910857349340336,"false"
"image-keyboard-response",79,92489,"0.0-4.22-1.22","v7k6wh8rn6m4lfu",612,"134.csv","","null","resources/maskTrios/L1BB.jpg","null","",NA,NA,NA,NA,""
"image-keyboard-response",80,93692,"0.0-4.22-2.22","v7k6wh8rn6m4lfu",612,"134.csv","","null","resources/images/fishbone.png","null","",NA,NA,NA,NA,""
"image-keyboard-response",81,94015,"0.0-4.23-0.23","v7k6wh8rn6m4lfu",612,"134.csv","","321.10000014305115","resources/trios/L1T2A3.jpg","39","restless",0.6,0.6,0.1,0.739710844198478,"false"
"image-keyboard-response",82,94418,"0.0-4.23-1.23","v7k6wh8rn6m4lfu",612,"134.csv","","null","resources/maskTrios/BBA3.jpg","null","",NA,NA,NA,NA,""
"image-keyboard-response",83,95621,"0.0-4.23-2.23","v7k6wh8rn6m4lfu",612,"134.csv","","null","resources/images/fishbone.png","null","",NA,NA,NA,NA,""
"image-keyboard-response",84,95685,"0.0-4.24-0.24","v7k6wh8rn6m4lfu",612,"134.csv","","62.10000014305115","resources/trios/L1T2A3.jpg","38","restless",0.6,0.6,0.2,0.525876811344264,"true"
"image-keyboard-response",85,96088,"0.0-4.24-1.24","v7k6wh8rn6m4lfu",612,"134.csv","","null","resources/maskTrios/BT2B.jpg","null","",NA,NA,NA,NA,""
"image-keyboard-response",86,97292,"0.0-4.24-2.24","v7k6wh8rn6m4lfu",612,"134.csv","","null","resources/images/coin2.png","null","",NA,NA,NA,NA,""
"image-keyboard-response",87,97558,"0.0-4.25-0.25","v7k6wh8rn6m4lfu",612,"134.csv","","263.90000009536743","resources/trios/L1T2A3.jpg","38","restless",0.5,0.6,0.2,0.0483379593479667,"true"
"image-keyboard-response",88,97961,"0.0-4.25-1.25","v7k6wh8rn6m4lfu",612,"134.csv","","null","resources/maskTrios/BT2B.jpg","null","",NA,NA,NA,NA,""
"image-keyboard-response",89,99164,"0.0-4.25-2.25","v7k6wh8rn6m4lfu",612,"134.csv","","null","resources/images/coin2.png","null","",NA,NA,NA,NA,""
"image-keyboard-response",90,99688,"0.0-4.26-0.26","v7k6wh8rn6m4lfu",612,"134.csv","","522.2000000476837","resources/trios/L1T2A3.jpg","39","restless",0.5,0.6,0.2,0.00587198651334386,"true"
"image-keyboard-response",91,100092,"0.0-4.26-1.26","v7k6wh8rn6m4lfu",612,"134.csv","","null","resources/maskTrios/BBA3.jpg","null","",NA,NA,NA,NA,""
"image-keyboard-response",92,101294,"0.0-4.26-2.26","v7k6wh8rn6m4lfu",612,"134.csv","","null","resources/images/coin2.png","null","",NA,NA,NA,NA,""
"image-keyboard-response",93,101579,"0.0-4.27-0.27","v7k6wh8rn6m4lfu",612,"134.csv","","283.2999999523163","resources/trios/L1T2A3.jpg","39","restless",0.5,0.6,0.2,0.552210785254533,"false"
"image-keyboard-response",94,101982,"0.0-4.27-1.27","v7k6wh8rn6m4lfu",612,"134.csv","","null","resources/maskTrios/BBA3.jpg","null","",NA,NA,NA,NA,""
"image-keyboard-response",95,103185,"0.0-4.27-2.27","v7k6wh8rn6m4lfu",612,"134.csv","","null","resources/images/fishbone.png","null","",NA,NA,NA,NA,""
"image-keyboard-response",96,103449,"0.0-4.28-0.28","v7k6wh8rn6m4lfu",612,"134.csv","","261.89999985694885","resources/trios/L1T2A3.jpg","37","restless",0.5,0.6,0.2,0.847739544497478,"false"
"image-keyboard-response",97,103853,"0.0-4.28-1.28","v7k6wh8rn6m4lfu",612,"134.csv","","null","resources/maskTrios/L1BB.jpg","null","",NA,NA,NA,NA,""
"image-keyboard-response",98,105056,"0.0-4.28-2.28","v7k6wh8rn6m4lfu",612,"134.csv","","null","resources/images/fishbone.png","null","",NA,NA,NA,NA,""
"image-keyboard-response",99,105886,"0.0-4.29-0.29","v7k6wh8rn6m4lfu",612,"134.csv","","828.0999999046326","resources/trios/L1T2A3.jpg","38","restless",0.5,0.6,0.2,0.0337906139233277,"true"
"image-keyboard-response",100,106289,"0.0-4.29-1.29","v7k6wh8rn6m4lfu",612,"134.csv","","null","resources/maskTrios/BT2B.jpg","null","",NA,NA,NA,NA,""
"image-keyboard-response",101,107493,"0.0-4.29-2.29","v7k6wh8rn6m4lfu",612,"134.csv","","null","resources/images/coin2.png","null","",NA,NA,NA,NA,""
"image-keyboard-response",102,107783,"0.0-4.30-0.30","v7k6wh8rn6m4lfu",612,"134.csv","","288.59999990463257","resources/trios/L1T2A3.jpg","38","restless",0.5,0.6,0.3,0.92730109281655,"false"
"image-keyboard-response",103,108187,"0.0-4.30-1.30","v7k6wh8rn6m4lfu",612,"134.csv","","null","resources/maskTrios/BT2B.jpg","null","",NA,NA,NA,NA,""
"image-keyboard-response",104,109389,"0.0-4.30-2.30","v7k6wh8rn6m4lfu",612,"134.csv","","null","resources/images/fishbone.png","null","",NA,NA,NA,NA,""
"image-keyboard-response",105,109466,"0.0-4.31-0.31","v7k6wh8rn6m4lfu",612,"134.csv","","74.5","resources/trios/L1T2A3.jpg","39","restless",0.5,0.6,0.3,0.483289052929862,"false"
"image-keyboard-response",106,109869,"0.0-4.31-1.31","v7k6wh8rn6m4lfu",612,"134.csv","","null","resources/maskTrios/BBA3.jpg","null","",NA,NA,NA,NA,""
"image-keyboard-response",107,111072,"0.0-4.31-2.31","v7k6wh8rn6m4lfu",612,"134.csv","","null","resources/images/fishbone.png","null","",NA,NA,NA,NA,""
"image-keyboard-response",108,112087,"0.0-4.32-0.32","v7k6wh8rn6m4lfu",612,"134.csv","","1013.0999999046326","resources/trios/L1T2A3.jpg","37","restless",0.5,0.6,0.3,0.722723820563612,"false"
"image-keyboard-response",109,112491,"0.0-4.32-1.32","v7k6wh8rn6m4lfu",612,"134.csv","","null","resources/maskTrios/L1BB.jpg","null","",NA,NA,NA,NA,""
"image-keyboard-response",110,113694,"0.0-4.32-2.32","v7k6wh8rn6m4lfu",612,"134.csv","","null","resources/images/fishbone.png","null","",NA,NA,NA,NA,""
"image-keyboard-response",111,113982,"0.0-4.33-0.33","v7k6wh8rn6m4lfu",612,"134.csv","","286","resources/trios/L1T2A3.jpg","38","restless",0.5,0.6,0.4,0.285379413509249,"true"
"image-keyboard-response",112,114385,"0.0-4.33-1.33","v7k6wh8rn6m4lfu",612,"134.csv","","null","resources/maskTrios/BT2B.jpg","null","",NA,NA,NA,NA,""
"image-keyboard-response",113,115588,"0.0-4.33-2.33","v7k6wh8rn6m4lfu",612,"134.csv","","null","resources/images/coin2.png","null","",NA,NA,NA,NA,""
"image-keyboard-response",114,116026,"0.0-4.34-0.34","v7k6wh8rn6m4lfu",612,"134.csv","","435.80000019073486","resources/trios/L1T2A3.jpg","38","restless",0.5,0.6,0.4,0.795931245415492,"false"
"image-keyboard-response",115,116430,"0.0-4.34-1.34","v7k6wh8rn6m4lfu",612,"134.csv","","null","resources/maskTrios/BT2B.jpg","null","",NA,NA,NA,NA,""
"image-keyboard-response",116,117633,"0.0-4.34-2.34","v7k6wh8rn6m4lfu",612,"134.csv","","null","resources/images/fishbone.png","null","",NA,NA,NA,NA,""
"image-keyboard-response",117,117904,"0.0-4.35-0.35","v7k6wh8rn6m4lfu",612,"134.csv","","269.10000014305115","resources/trios/L1T2A3.jpg","39","restless",0.5,0.6,0.4,0.25920714007725,"true"
"image-keyboard-response",118,118308,"0.0-4.35-1.35","v7k6wh8rn6m4lfu",612,"134.csv","","null","resources/maskTrios/BBA3.jpg","null","",NA,NA,NA,NA,""
"image-keyboard-response",119,119511,"0.0-4.35-2.35","v7k6wh8rn6m4lfu",612,"134.csv","","null","resources/images/coin2.png","null","",NA,NA,NA,NA,""
"image-keyboard-response",120,119822,"0.0-4.36-0.36","v7k6wh8rn6m4lfu",612,"134.csv","","308.60000014305115","resources/trios/L1T2A3.jpg","39","restless",0.6,0.6,0.4,0.444570360652186,"false"
"image-keyboard-response",121,120225,"0.0-4.36-1.36","v7k6wh8rn6m4lfu",612,"134.csv","","null","resources/maskTrios/BBA3.jpg","null","",NA,NA,NA,NA,""
"image-keyboard-response",122,121429,"0.0-4.36-2.36","v7k6wh8rn6m4lfu",612,"134.csv","","null","resources/images/fishbone.png","null","",NA,NA,NA,NA,""
"image-keyboard-response",123,121790,"0.0-4.37-0.37","v7k6wh8rn6m4lfu",612,"134.csv","","359.2999999523163","resources/trios/L1T2A3.jpg","37","restless",0.6,0.6,0.4,0.601575786042458,"false"
"image-keyboard-response",124,122193,"0.0-4.37-1.37","v7k6wh8rn6m4lfu",612,"134.csv","","null","resources/maskTrios/L1BB.jpg","null","",NA,NA,NA,NA,""
"image-keyboard-response",125,123397,"0.0-4.37-2.37","v7k6wh8rn6m4lfu",612,"134.csv","","null","resources/images/fishbone.png","null","",NA,NA,NA,NA,""
"image-keyboard-response",126,124563,"0.0-4.38-0.38","v7k6wh8rn6m4lfu",612,"134.csv","","1164.0999999046326","resources/trios/L1T2A3.jpg","38","restless",0.6,0.6,0.4,0.793782750243038,"false"
"image-keyboard-response",127,124965,"0.0-4.38-1.38","v7k6wh8rn6m4lfu",612,"134.csv","","null","resources/maskTrios/BT2B.jpg","null","",NA,NA,NA,NA,""
"image-keyboard-response",128,126168,"0.0-4.38-2.38","v7k6wh8rn6m4lfu",612,"134.csv","","null","resources/images/fishbone.png","null","",NA,NA,NA,NA,""
"image-keyboard-response",129,126397,"0.0-4.39-0.39","v7k6wh8rn6m4lfu",612,"134.csv","","227.29999995231628","resources/trios/L1T2A3.jpg","37","restless",0.6,0.6,0.4,0.513606022944116,"true"
"image-keyboard-response",130,126800,"0.0-4.39-1.39","v7k6wh8rn6m4lfu",612,"134.csv","","null","resources/maskTrios/L1BB.jpg","null","",NA,NA,NA,NA,""
"image-keyboard-response",131,128004,"0.0-4.39-2.39","v7k6wh8rn6m4lfu",612,"134.csv","","null","resources/images/coin2.png","null","",NA,NA,NA,NA,""
"image-keyboard-response",132,128765,"0.0-4.40-0.40","v7k6wh8rn6m4lfu",612,"134.csv","","759.7999999523163","resources/trios/L1T2A3.jpg","37","restless",0.6,0.6,0.4,0.867990872768252,"false"
"image-keyboard-response",133,129168,"0.0-4.40-1.40","v7k6wh8rn6m4lfu",612,"134.csv","","null","resources/maskTrios/L1BB.jpg","null","",NA,NA,NA,NA,""
"image-keyboard-response",134,130372,"0.0-4.40-2.40","v7k6wh8rn6m4lfu",612,"134.csv","","null","resources/images/fishbone.png","null","",NA,NA,NA,NA,""
"image-keyboard-response",135,130789,"0.0-4.41-0.41","v7k6wh8rn6m4lfu",612,"134.csv","","415.5","resources/trios/L1T2A3.jpg","39","restless",0.6,0.6,0.4,0.276128889691072,"true"
"image-keyboard-response",136,131192,"0.0-4.41-1.41","v7k6wh8rn6m4lfu",612,"134.csv","","null","resources/maskTrios/BBA3.jpg","null","",NA,NA,NA,NA,""
"image-keyboard-response",137,132396,"0.0-4.41-2.41","v7k6wh8rn6m4lfu",612,"134.csv","","null","resources/images/coin2.png","null","",NA,NA,NA,NA,""
"image-keyboard-response",138,132846,"0.0-4.42-0.42","v7k6wh8rn6m4lfu",612,"134.csv","","448","resources/trios/L1T2A3.jpg","39","restless",0.7,0.6,0.4,0.921666333304449,"false"
"image-keyboard-response",139,133248,"0.0-4.42-1.42","v7k6wh8rn6m4lfu",612,"134.csv","","null","resources/maskTrios/BBA3.jpg","null","",NA,NA,NA,NA,""
"image-keyboard-response",140,134451,"0.0-4.42-2.42","v7k6wh8rn6m4lfu",612,"134.csv","","null","resources/images/fishbone.png","null","",NA,NA,NA,NA,""
"image-keyboard-response",141,135397,"0.0-4.43-0.43","v7k6wh8rn6m4lfu",612,"134.csv","","944.5","resources/trios/L1T2A3.jpg","38","restless",0.7,0.6,0.4,0.00460153563674237,"true"
"image-keyboard-response",142,135801,"0.0-4.43-1.43","v7k6wh8rn6m4lfu",612,"134.csv","","null","resources/maskTrios/BT2B.jpg","null","",NA,NA,NA,NA,""
"image-keyboard-response",143,137004,"0.0-4.43-2.43","v7k6wh8rn6m4lfu",612,"134.csv","","null","resources/images/coin2.png","null","",NA,NA,NA,NA,""
"image-keyboard-response",144,137482,"0.0-4.44-0.44","v7k6wh8rn6m4lfu",612,"134.csv","","476.60000014305115","resources/trios/L1T2A3.jpg","37","restless",0.7,0.6,0.5,0.544566277019632,"true"
"image-keyboard-response",145,137886,"0.0-4.44-1.44","v7k6wh8rn6m4lfu",612,"134.csv","","null","resources/maskTrios/L1BB.jpg","null","",NA,NA,NA,NA,""
"image-keyboard-response",146,139089,"0.0-4.44-2.44","v7k6wh8rn6m4lfu",612,"134.csv","","null","resources/images/coin2.png","null","",NA,NA,NA,NA,""
"image-keyboard-response",147,139340,"0.0-4.45-0.45","v7k6wh8rn6m4lfu",612,"134.csv","","249.20000004768372","resources/trios/L1T2A3.jpg","39","restless",0.7,0.6,0.5,0.0571949568749457,"true"
"image-keyboard-response",148,139742,"0.0-4.45-1.45","v7k6wh8rn6m4lfu",612,"134.csv","","null","resources/maskTrios/BBA3.jpg","null","",NA,NA,NA,NA,""
"image-keyboard-response",149,140945,"0.0-4.45-2.45","v7k6wh8rn6m4lfu",612,"134.csv","","null","resources/images/coin2.png","null","",NA,NA,NA,NA,""
"image-keyboard-response",150,141865,"0.0-4.46-0.46","v7k6wh8rn6m4lfu",612,"134.csv","","918.5999999046326","resources/trios/L1T2A3.jpg","38","restless",0.7,0.6,0.5,0.345269058597517,"true"
"image-keyboard-response",151,142268,"0.0-4.46-1.46","v7k6wh8rn6m4lfu",612,"134.csv","","null","resources/maskTrios/BT2B.jpg","null","",NA,NA,NA,NA,""
"image-keyboard-response",152,143472,"0.0-4.46-2.46","v7k6wh8rn6m4lfu",612,"134.csv","","null","resources/images/coin2.png","null","",NA,NA,NA,NA,""
"image-keyboard-response",153,143763,"0.0-4.47-0.47","v7k6wh8rn6m4lfu",612,"134.csv","","289.7999999523163","resources/trios/L1T2A3.jpg","37","restless",0.6,0.6,0.5,0.495188092538745,"true"
"image-keyboard-response",154,144167,"0.0-4.47-1.47","v7k6wh8rn6m4lfu",612,"134.csv","","null","resources/maskTrios/L1BB.jpg","null","",NA,NA,NA,NA,""
"image-keyboard-response",155,145370,"0.0-4.47-2.47","v7k6wh8rn6m4lfu",612,"134.csv","","null","resources/images/coin2.png","null","",NA,NA,NA,NA,""
"image-keyboard-response",156,145671,"0.0-4.48-0.48","v7k6wh8rn6m4lfu",612,"134.csv","","298.2999999523163","resources/trios/L1T2A3.jpg","39","restless",0.6,0.6,0.5,0.210658900016735,"true"
"image-keyboard-response",157,146074,"0.0-4.48-1.48","v7k6wh8rn6m4lfu",612,"134.csv","","null","resources/maskTrios/BBA3.jpg","null","",NA,NA,NA,NA,""
"image-keyboard-response",158,147278,"0.0-4.48-2.48","v7k6wh8rn6m4lfu",612,"134.csv","","null","resources/images/coin2.png","null","",NA,NA,NA,NA,""
"image-keyboard-response",159,147686,"0.0-4.49-0.49","v7k6wh8rn6m4lfu",612,"134.csv","","405.89999985694885","resources/trios/L1T2A3.jpg","38","restless",0.6,0.6,0.5,0.325327959895806,"true"
"image-keyboard-response",160,148089,"0.0-4.49-1.49","v7k6wh8rn6m4lfu",612,"134.csv","","null","resources/maskTrios/BT2B.jpg","null","",NA,NA,NA,NA,""
"image-keyboard-response",161,149293,"0.0-4.49-2.49","v7k6wh8rn6m4lfu",612,"134.csv","","null","resources/images/coin2.png","null","",NA,NA,NA,NA,""
"image-keyboard-response",162,149597,"0.0-4.50-0.50","v7k6wh8rn6m4lfu",612,"134.csv","","301.5","resources/trios/L1T2A3.jpg","37","restless",0.6,0.6,0.5,0.933828813948519,"false"
"image-keyboard-response",163,150000,"0.0-4.50-1.50","v7k6wh8rn6m4lfu",612,"134.csv","","null","resources/maskTrios/L1BB.jpg","null","",NA,NA,NA,NA,""
"image-keyboard-response",164,151204,"0.0-4.50-2.50","v7k6wh8rn6m4lfu",612,"134.csv","","null","resources/images/fishbone.png","null","",NA,NA,NA,NA,""
"image-keyboard-response",165,152823,"0.0-4.51-0.51","v7k6wh8rn6m4lfu",612,"134.csv","","1617.6999998092651","resources/trios/L1T2A3.jpg","39","restless",0.6,0.6,0.5,0.958468483788693,"false"
"image-keyboard-response",166,153227,"0.0-4.51-1.51","v7k6wh8rn6m4lfu",612,"134.csv","","null","resources/maskTrios/BBA3.jpg","null","",NA,NA,NA,NA,""
"image-keyboard-response",167,154430,"0.0-4.51-2.51","v7k6wh8rn6m4lfu",612,"134.csv","","null","resources/images/fishbone.png","null","",NA,NA,NA,NA,""
"image-keyboard-response",168,154723,"0.0-4.52-0.52","v7k6wh8rn6m4lfu",612,"134.csv","","291","resources/trios/L1T2A3.jpg","38","restless",0.6,0.6,0.5,0.433248623139506,"true"
"image-keyboard-response",169,155126,"0.0-4.52-1.52","v7k6wh8rn6m4lfu",612,"134.csv","","null","resources/maskTrios/BT2B.jpg","null","",NA,NA,NA,NA,""
"image-keyboard-response",170,156329,"0.0-4.52-2.52","v7k6wh8rn6m4lfu",612,"134.csv","","null","resources/images/coin2.png","null","",NA,NA,NA,NA,""
"image-keyboard-response",171,156633,"0.0-4.53-0.53","v7k6wh8rn6m4lfu",612,"134.csv","","301.2000000476837","resources/trios/L1T2A3.jpg","38","restless",0.6,0.6,0.5,0.627827438815342,"false"
"image-keyboard-response",172,157036,"0.0-4.53-1.53","v7k6wh8rn6m4lfu",612,"134.csv","","null","resources/maskTrios/BT2B.jpg","null","",NA,NA,NA,NA,""
"image-keyboard-response",173,158239,"0.0-4.53-2.53","v7k6wh8rn6m4lfu",612,"134.csv","","null","resources/images/fishbone.png","null","",NA,NA,NA,NA,""
"image-keyboard-response",174,158618,"0.0-4.54-0.54","v7k6wh8rn6m4lfu",612,"134.csv","","377.19999980926514","resources/trios/L1T2A3.jpg","37","restless",0.6,0.6,0.5,0.243410679195353,"true"
"image-keyboard-response",175,159021,"0.0-4.54-1.54","v7k6wh8rn6m4lfu",612,"134.csv","","null","resources/maskTrios/L1BB.jpg","null","",NA,NA,NA,NA,""
"image-keyboard-response",176,160225,"0.0-4.54-2.54","v7k6wh8rn6m4lfu",612,"134.csv","","null","resources/images/coin2.png","null","",NA,NA,NA,NA,""
"image-keyboard-response",177,160491,"0.0-4.55-0.55","v7k6wh8rn6m4lfu",612,"134.csv","","263.90000009536743","resources/trios/L1T2A3.jpg","37","restless",0.6,0.6,0.5,0.802003850579122,"false"
"image-keyboard-response",178,160894,"0.0-4.55-1.55","v7k6wh8rn6m4lfu",612,"134.csv","","null","resources/maskTrios/L1BB.jpg","null","",NA,NA,NA,NA,""
"image-keyboard-response",179,162097,"0.0-4.55-2.55","v7k6wh8rn6m4lfu",612,"134.csv","","null","resources/images/fishbone.png","null","",NA,NA,NA,NA,""
"image-keyboard-response",180,162570,"0.0-4.56-0.56","v7k6wh8rn6m4lfu",612,"134.csv","","471.09999990463257","resources/trios/L1T2A3.jpg","39","restless",0.6,0.6,0.5,0.440749279976421,"true"
"image-keyboard-response",181,162973,"0.0-4.56-1.56","v7k6wh8rn6m4lfu",612,"134.csv","","null","resources/maskTrios/BBA3.jpg","null","",NA,NA,NA,NA,""
"image-keyboard-response",182,164177,"0.0-4.56-2.56","v7k6wh8rn6m4lfu",612,"134.csv","","null","resources/images/coin2.png","null","",NA,NA,NA,NA,""
"image-keyboard-response",183,164493,"0.0-4.57-0.57","v7k6wh8rn6m4lfu",612,"134.csv","","313.90000009536743","resources/trios/L1T2A3.jpg","39","restless",0.6,0.6,0.6,0.61698560798067,"false"
"image-keyboard-response",184,164896,"0.0-4.57-1.57","v7k6wh8rn6m4lfu",612,"134.csv","","null","resources/maskTrios/BBA3.jpg","null","",NA,NA,NA,NA,""
"image-keyboard-response",185,166099,"0.0-4.57-2.57","v7k6wh8rn6m4lfu",612,"134.csv","","null","resources/images/fishbone.png","null","",NA,NA,NA,NA,""
"image-keyboard-response",186,166645,"0.0-4.58-0.58","v7k6wh8rn6m4lfu",612,"134.csv","","543.5999999046326","resources/trios/L1T2A3.jpg","38","restless",0.7,0.6,0.6,0.76982957834647,"false"
"image-keyboard-response",187,167048,"0.0-4.58-1.58","v7k6wh8rn6m4lfu",612,"134.csv","","null","resources/maskTrios/BT2B.jpg","null","",NA,NA,NA,NA,""
"image-keyboard-response",188,168251,"0.0-4.58-2.58","v7k6wh8rn6m4lfu",612,"134.csv","","null","resources/images/fishbone.png","null","",NA,NA,NA,NA,""
"image-keyboard-response",189,168463,"0.0-4.59-0.59","v7k6wh8rn6m4lfu",612,"134.csv","","209.40000009536743","resources/trios/L1T2A3.jpg","37","restless",0.7,0.6,0.6,0.390030497811464,"true"
"image-keyboard-response",190,168866,"0.0-4.59-1.59","v7k6wh8rn6m4lfu",612,"134.csv","","null","resources/maskTrios/L1BB.jpg","null","",NA,NA,NA,NA,""
"image-keyboard-response",191,170070,"0.0-4.59-2.59","v7k6wh8rn6m4lfu",612,"134.csv","","null","resources/images/coin2.png","null","",NA,NA,NA,NA,""
"image-keyboard-response",192,170591,"0.0-4.60-0.60","v7k6wh8rn6m4lfu",612,"134.csv","","518.5999999046326","resources/trios/L1T2A3.jpg","39","restless",0.7,0.6,0.6,0.632000152339292,"false"
"image-keyboard-response",193,170994,"0.0-4.60-1.60","v7k6wh8rn6m4lfu",612,"134.csv","","null","resources/maskTrios/BBA3.jpg","null","",NA,NA,NA,NA,""
"image-keyboard-response",194,172197,"0.0-4.60-2.60","v7k6wh8rn6m4lfu",612,"134.csv","","null","resources/images/fishbone.png","null","",NA,NA,NA,NA,""
"image-keyboard-response",195,172412,"0.0-4.61-0.61","v7k6wh8rn6m4lfu",612,"134.csv","","213.19999980926514","resources/trios/L1T2A3.jpg","38","restless",0.7,0.6,0.6,0.726250601093705,"false"
"image-keyboard-response",196,172815,"0.0-4.61-1.61","v7k6wh8rn6m4lfu",612,"134.csv","","null","resources/maskTrios/BT2B.jpg","null","",NA,NA,NA,NA,""
"image-keyboard-response",197,174018,"0.0-4.61-2.61","v7k6wh8rn6m4lfu",612,"134.csv","","null","resources/images/fishbone.png","null","",NA,NA,NA,NA,""
"image-keyboard-response",198,174130,"0.0-4.62-0.62","v7k6wh8rn6m4lfu",612,"134.csv","","109.90000009536743","resources/trios/L1T2A3.jpg","37","restless",0.7,0.6,0.6,0.537770116787341,"true"
"image-keyboard-response",199,174533,"0.0-4.62-1.62","v7k6wh8rn6m4lfu",612,"134.csv","","null","resources/maskTrios/L1BB.jpg","null","",NA,NA,NA,NA,""
"image-keyboard-response",200,175736,"0.0-4.62-2.62","v7k6wh8rn6m4lfu",612,"134.csv","","null","resources/images/coin2.png","null","",NA,NA,NA,NA,""
"image-keyboard-response",201,176203,"0.0-4.63-0.63","v7k6wh8rn6m4lfu",612,"134.csv","","464.89999985694885","resources/trios/L1T2A3.jpg","37","restless",0.7,0.6,0.6,0.765155950699226,"false"
"image-keyboard-response",202,176606,"0.0-4.63-1.63","v7k6wh8rn6m4lfu",612,"134.csv","","null","resources/maskTrios/L1BB.jpg","null","",NA,NA,NA,NA,""
"image-keyboard-response",203,177809,"0.0-4.63-2.63","v7k6wh8rn6m4lfu",612,"134.csv","","null","resources/images/fishbone.png","null","",NA,NA,NA,NA,""
"image-keyboard-response",204,178070,"0.0-4.64-0.64","v7k6wh8rn6m4lfu",612,"134.csv","","259.2999999523163","resources/trios/L1T2A3.jpg","39","restless",0.7,0.6,0.6,0.330537416608756,"true"
"image-keyboard-response",205,178474,"0.0-4.64-1.64","v7k6wh8rn6m4lfu",612,"134.csv","","null","resources/maskTrios/BBA3.jpg","null","",NA,NA,NA,NA,""
"image-keyboard-response",206,179678,"0.0-4.64-2.64","v7k6wh8rn6m4lfu",612,"134.csv","","null","resources/images/coin2.png","null","",NA,NA,NA,NA,""
"image-keyboard-response",207,179987,"0.0-4.65-0.65","v7k6wh8rn6m4lfu",612,"134.csv","","307.2999999523163","resources/trios/L1T2A3.jpg","39","restless",0.7,0.5,0.5,0.51055085384468,"false"
"image-keyboard-response",208,180390,"0.0-4.65-1.65","v7k6wh8rn6m4lfu",612,"134.csv","","null","resources/maskTrios/BBA3.jpg","null","",NA,NA,NA,NA,""
"image-keyboard-response",209,181593,"0.0-4.65-2.65","v7k6wh8rn6m4lfu",612,"134.csv","","null","resources/images/fishbone.png","null","",NA,NA,NA,NA,""
"image-keyboard-response",210,182776,"0.0-4.66-0.66","v7k6wh8rn6m4lfu",612,"134.csv","","1182","resources/trios/L1T2A3.jpg","38","restless",0.7,0.5,0.5,0.349102949259263,"true"
"image-keyboard-response",211,183180,"0.0-4.66-1.66","v7k6wh8rn6m4lfu",612,"134.csv","","null","resources/maskTrios/BT2B.jpg","null","",NA,NA,NA,NA,""
"image-keyboard-response",212,184383,"0.0-4.66-2.66","v7k6wh8rn6m4lfu",612,"134.csv","","null","resources/images/coin2.png","null","",NA,NA,NA,NA,""
"image-keyboard-response",213,185849,"0.0-4.67-0.67","v7k6wh8rn6m4lfu",612,"134.csv","","1464.3000001907349","resources/trios/L1T2A3.jpg","37","restless",0.7,0.5,0.5,0.659173745678292,"true"
"image-keyboard-response",214,186253,"0.0-4.67-1.67","v7k6wh8rn6m4lfu",612,"134.csv","","null","resources/maskTrios/L1BB.jpg","null","",NA,NA,NA,NA,""
"image-keyboard-response",215,187456,"0.0-4.67-2.67","v7k6wh8rn6m4lfu",612,"134.csv","","null","resources/images/coin2.png","null","",NA,NA,NA,NA,""
"image-keyboard-response",216,187908,"0.0-4.68-0.68","v7k6wh8rn6m4lfu",612,"134.csv","","449.89999985694885","resources/trios/L1T2A3.jpg","39","restless",0.7,0.5,0.5,0.472508243346356,"true"
"image-keyboard-response",217,188311,"0.0-4.68-1.68","v7k6wh8rn6m4lfu",612,"134.csv","","null","resources/maskTrios/BBA3.jpg","null","",NA,NA,NA,NA,""
"image-keyboard-response",218,189515,"0.0-4.68-2.68","v7k6wh8rn6m4lfu",612,"134.csv","","null","resources/images/coin2.png","null","",NA,NA,NA,NA,""
"image-keyboard-response",219,189932,"0.0-4.69-0.69","v7k6wh8rn6m4lfu",612,"134.csv","","415.09999990463257","resources/trios/L1T2A3.jpg","37","restless",0.7,0.5,0.5,0.516652050901975,"true"
"image-keyboard-response",220,190335,"0.0-4.69-1.69","v7k6wh8rn6m4lfu",612,"134.csv","","null","resources/maskTrios/L1BB.jpg","null","",NA,NA,NA,NA,""
"image-keyboard-response",221,191539,"0.0-4.69-2.69","v7k6wh8rn6m4lfu",612,"134.csv","","null","resources/images/coin2.png","null","",NA,NA,NA,NA,""
"image-keyboard-response",222,191822,"0.0-4.70-0.70","v7k6wh8rn6m4lfu",612,"134.csv","","282.39999985694885","resources/trios/L1T2A3.jpg","38","restless",0.8,0.5,0.5,0.360894887119778,"true"
"image-keyboard-response",223,192226,"0.0-4.70-1.70","v7k6wh8rn6m4lfu",612,"134.csv","","null","resources/maskTrios/BT2B.jpg","null","",NA,NA,NA,NA,""
"image-keyboard-response",224,193430,"0.0-4.70-2.70","v7k6wh8rn6m4lfu",612,"134.csv","","null","resources/images/coin2.png","null","",NA,NA,NA,NA,""
"image-keyboard-response",225,193882,"0.0-4.71-0.71","v7k6wh8rn6m4lfu",612,"134.csv","","450","resources/trios/L1T2A3.jpg","39","restless",0.8,0.5,0.5,0.815034052129161,"false"
"image-keyboard-response",226,194284,"0.0-4.71-1.71","v7k6wh8rn6m4lfu",612,"134.csv","","null","resources/maskTrios/BBA3.jpg","null","",NA,NA,NA,NA,""
"image-keyboard-response",227,195487,"0.0-4.71-2.71","v7k6wh8rn6m4lfu",612,"134.csv","","null","resources/images/fishbone.png","null","",NA,NA,NA,NA,""
"image-keyboard-response",228,195728,"0.0-4.72-0.72","v7k6wh8rn6m4lfu",612,"134.csv","","238.89999985694885","resources/trios/L1T2A3.jpg","37","restless",0.8,0.5,0.5,0.0941160956035192,"true"
"image-keyboard-response",229,196131,"0.0-4.72-1.72","v7k6wh8rn6m4lfu",612,"134.csv","","null","resources/maskTrios/L1BB.jpg","null","",NA,NA,NA,NA,""
"image-keyboard-response",230,197335,"0.0-4.72-2.72","v7k6wh8rn6m4lfu",612,"134.csv","","null","resources/images/coin2.png","null","",NA,NA,NA,NA,""
"image-keyboard-response",231,197821,"0.0-4.73-0.73","v7k6wh8rn6m4lfu",612,"134.csv","","484.5","resources/trios/L1T2A3.jpg","37","restless",0.8,0.5,0.5,0.371360521349253,"true"
"image-keyboard-response",232,198224,"0.0-4.73-1.73","v7k6wh8rn6m4lfu",612,"134.csv","","null","resources/maskTrios/L1BB.jpg","null","",NA,NA,NA,NA,""
"image-keyboard-response",233,199427,"0.0-4.73-2.73","v7k6wh8rn6m4lfu",612,"134.csv","","null","resources/images/coin2.png","null","",NA,NA,NA,NA,""
"image-keyboard-response",234,199738,"0.0-4.74-0.74","v7k6wh8rn6m4lfu",612,"134.csv","","308.7999999523163","resources/trios/L1T2A3.jpg","37","restless",0.8,0.5,0.5,0.779705799455539,"true"
"image-keyboard-response",235,200141,"0.0-4.74-1.74","v7k6wh8rn6m4lfu",612,"134.csv","","null","resources/maskTrios/L1BB.jpg","null","",NA,NA,NA,NA,""
"image-keyboard-response",236,201344,"0.0-4.74-2.74","v7k6wh8rn6m4lfu",612,"134.csv","","null","resources/images/coin2.png","null","",NA,NA,NA,NA,""
"image-keyboard-response",237,201680,"0.0-4.75-0.75","v7k6wh8rn6m4lfu",612,"134.csv","","334","resources/trios/L1T2A3.jpg","38","restless",0.8,0.5,0.5,0.779583082604264,"false"
"image-keyboard-response",238,202083,"0.0-4.75-1.75","v7k6wh8rn6m4lfu",612,"134.csv","","null","resources/maskTrios/BT2B.jpg","null","",NA,NA,NA,NA,""
"image-keyboard-response",239,203285,"0.0-4.75-2.75","v7k6wh8rn6m4lfu",612,"134.csv","","null","resources/images/fishbone.png","null","",NA,NA,NA,NA,""
"image-keyboard-response",240,203557,"0.0-4.76-0.76","v7k6wh8rn6m4lfu",612,"134.csv","","270.39999985694885","resources/trios/L1T2A3.jpg","39","restless",0.8,0.5,0.5,0.681167163158494,"false"
"image-keyboard-response",241,203960,"0.0-4.76-1.76","v7k6wh8rn6m4lfu",612,"134.csv","","null","resources/maskTrios/BBA3.jpg","null","",NA,NA,NA,NA,""
"image-keyboard-response",242,205163,"0.0-4.76-2.76","v7k6wh8rn6m4lfu",612,"134.csv","","null","resources/images/fishbone.png","null","",NA,NA,NA,NA,""
"image-keyboard-response",243,205424,"0.0-4.77-0.77","v7k6wh8rn6m4lfu",612,"134.csv","","258.90000009536743","resources/trios/L1T2A3.jpg","37","restless",0.8,0.5,0.5,0.708733469526872,"true"
"image-keyboard-response",244,205827,"0.0-4.77-1.77","v7k6wh8rn6m4lfu",612,"134.csv","","null","resources/maskTrios/L1BB.jpg","null","",NA,NA,NA,NA,""
"image-keyboard-response",245,207031,"0.0-4.77-2.77","v7k6wh8rn6m4lfu",612,"134.csv","","null","resources/images/coin2.png","null","",NA,NA,NA,NA,""
"image-keyboard-response",246,207415,"0.0-4.78-0.78","v7k6wh8rn6m4lfu",612,"134.csv","","382","resources/trios/L1T2A3.jpg","37","restless",0.8,0.5,0.5,0.487595098868655,"true"
"image-keyboard-response",247,207818,"0.0-4.78-1.78","v7k6wh8rn6m4lfu",612,"134.csv","","null","resources/maskTrios/L1BB.jpg","null","",NA,NA,NA,NA,""
"image-keyboard-response",248,209021,"0.0-4.78-2.78","v7k6wh8rn6m4lfu",612,"134.csv","","null","resources/images/coin2.png","null","",NA,NA,NA,NA,""
"image-keyboard-response",249,209270,"0.0-4.79-0.79","v7k6wh8rn6m4lfu",612,"134.csv","","247.29999995231628","resources/trios/L1T2A3.jpg","37","restless",0.8,0.5,0.5,0.736963705833255,"true"
"image-keyboard-response",250,209674,"0.0-4.79-1.79","v7k6wh8rn6m4lfu",612,"134.csv","","null","resources/maskTrios/L1BB.jpg","null","",NA,NA,NA,NA,""
"image-keyboard-response",251,210876,"0.0-4.79-2.79","v7k6wh8rn6m4lfu",612,"134.csv","","null","resources/images/coin2.png","null","",NA,NA,NA,NA,""
"image-keyboard-response",252,211437,"0.0-4.80-0.80","v7k6wh8rn6m4lfu",612,"134.csv","","558.4000000953674","resources/trios/L1T2A3.jpg","39","restless",0.8,0.5,0.5,0.81652210119889,"false"
"image-keyboard-response",253,211840,"0.0-4.80-1.80","v7k6wh8rn6m4lfu",612,"134.csv","","null","resources/maskTrios/BBA3.jpg","null","",NA,NA,NA,NA,""
"image-keyboard-response",254,213044,"0.0-4.80-2.80","v7k6wh8rn6m4lfu",612,"134.csv","","null","resources/images/fishbone.png","null","",NA,NA,NA,NA,""
"image-keyboard-response",255,213410,"0.0-4.81-0.81","v7k6wh8rn6m4lfu",612,"134.csv","","363.59999990463257","resources/trios/L1T2A3.jpg","38","restless",0.8,0.5,0.5,0.889416857086578,"false"
"image-keyboard-response",256,213813,"0.0-4.81-1.81","v7k6wh8rn6m4lfu",612,"134.csv","","null","resources/maskTrios/BT2B.jpg","null","",NA,NA,NA,NA,""
"image-keyboard-response",257,215017,"0.0-4.81-2.81","v7k6wh8rn6m4lfu",612,"134.csv","","null","resources/images/fishbone.png","null","",NA,NA,NA,NA,""
"image-keyboard-response",258,215300,"0.0-4.82-0.82","v7k6wh8rn6m4lfu",612,"134.csv","","281","resources/trios/L1T2A3.jpg","37","restless",0.8,0.5,0.5,0.899085428853091,"false"
"image-keyboard-response",259,215703,"0.0-4.82-1.82","v7k6wh8rn6m4lfu",612,"134.csv","","null","resources/maskTrios/L1BB.jpg","null","",NA,NA,NA,NA,""
"image-keyboard-response",260,216906,"0.0-4.82-2.82","v7k6wh8rn6m4lfu",612,"134.csv","","null","resources/images/fishbone.png","null","",NA,NA,NA,NA,""
"image-keyboard-response",261,217024,"0.0-4.83-0.83","v7k6wh8rn6m4lfu",612,"134.csv","","116.60000014305115","resources/trios/L1T2A3.jpg","39","restless",0.8,0.5,0.5,0.974146120813742,"false"
"image-keyboard-response",262,217428,"0.0-4.83-1.83","v7k6wh8rn6m4lfu",612,"134.csv","","null","resources/maskTrios/BBA3.jpg","null","",NA,NA,NA,NA,""
"image-keyboard-response",263,218630,"0.0-4.83-2.83","v7k6wh8rn6m4lfu",612,"134.csv","","null","resources/images/fishbone.png","null","",NA,NA,NA,NA,""
"image-keyboard-response",264,219022,"0.0-4.84-0.84","v7k6wh8rn6m4lfu",612,"134.csv","","390.39999985694885","resources/trios/L1T2A3.jpg","38","restless",0.8,0.5,0.5,0.0389814076649091,"true"
"image-keyboard-response",265,219426,"0.0-4.84-1.84","v7k6wh8rn6m4lfu",612,"134.csv","","null","resources/maskTrios/BT2B.jpg","null","",NA,NA,NA,NA,""
"image-keyboard-response",266,220629,"0.0-4.84-2.84","v7k6wh8rn6m4lfu",612,"134.csv","","null","resources/images/coin2.png","null","",NA,NA,NA,NA,""
"image-keyboard-response",267,220883,"0.0-4.85-0.85","v7k6wh8rn6m4lfu",612,"134.csv","","252","resources/trios/L1T2A3.jpg","38","restless",0.8,0.5,0.5,0.648737877828506,"false"
"image-keyboard-response",268,221287,"0.0-4.85-1.85","v7k6wh8rn6m4lfu",612,"134.csv","","null","resources/maskTrios/BT2B.jpg","null","",NA,NA,NA,NA,""
"image-keyboard-response",269,222490,"0.0-4.85-2.85","v7k6wh8rn6m4lfu",612,"134.csv","","null","resources/images/fishbone.png","null","",NA,NA,NA,NA,""
"image-keyboard-response",270,222768,"0.0-4.86-0.86","v7k6wh8rn6m4lfu",612,"134.csv","","276.2999999523163","resources/trios/L1T2A3.jpg","37","restless",0.9,0.5,0.5,0.698443507298081,"true"
"image-keyboard-response",271,223171,"0.0-4.86-1.86","v7k6wh8rn6m4lfu",612,"134.csv","","null","resources/maskTrios/L1BB.jpg","null","",NA,NA,NA,NA,""
"image-keyboard-response",272,224375,"0.0-4.86-2.86","v7k6wh8rn6m4lfu",612,"134.csv","","null","resources/images/coin2.png","null","",NA,NA,NA,NA,""
"image-keyboard-response",273,225750,"0.0-4.87-0.87","v7k6wh8rn6m4lfu",612,"134.csv","","1372.6999998092651","resources/trios/L1T2A3.jpg","39","restless",0.9,0.5,0.5,0.853425984849303,"false"
"image-keyboard-response",274,226152,"0.0-4.87-1.87","v7k6wh8rn6m4lfu",612,"134.csv","","null","resources/maskTrios/BBA3.jpg","null","",NA,NA,NA,NA,""
"image-keyboard-response",275,227355,"0.0-4.87-2.87","v7k6wh8rn6m4lfu",612,"134.csv","","null","resources/images/fishbone.png","null","",NA,NA,NA,NA,""
"image-keyboard-response",276,227617,"0.0-4.88-0.88","v7k6wh8rn6m4lfu",612,"134.csv","","259.90000009536743","resources/trios/L1T2A3.jpg","37","restless",0.9,0.5,0.5,0.801368643534124,"true"
"image-keyboard-response",277,228020,"0.0-4.88-1.88","v7k6wh8rn6m4lfu",612,"134.csv","","null","resources/maskTrios/L1BB.jpg","null","",NA,NA,NA,NA,""
"image-keyboard-response",278,229223,"0.0-4.88-2.88","v7k6wh8rn6m4lfu",612,"134.csv","","null","resources/images/coin2.png","null","",NA,NA,NA,NA,""
"image-keyboard-response",279,229727,"0.0-4.89-0.89","v7k6wh8rn6m4lfu",612,"134.csv","","501.59999990463257","resources/trios/L1T2A3.jpg","37","restless",0.9,0.5,0.5,0.786402517263726,"true"
"image-keyboard-response",280,230131,"0.0-4.89-1.89","v7k6wh8rn6m4lfu",612,"134.csv","","null","resources/maskTrios/L1BB.jpg","null","",NA,NA,NA,NA,""
"image-keyboard-response",281,231335,"0.0-4.89-2.89","v7k6wh8rn6m4lfu",612,"134.csv","","null","resources/images/coin2.png","null","",NA,NA,NA,NA,""
"image-keyboard-response",282,231782,"0.0-4.90-0.90","v7k6wh8rn6m4lfu",612,"134.csv","","445.19999980926514","resources/trios/L1T2A3.jpg","37","restless",0.9,0.5,0.5,0.926824500086156,"false"
"image-keyboard-response",283,232186,"0.0-4.90-1.90","v7k6wh8rn6m4lfu",612,"134.csv","","null","resources/maskTrios/L1BB.jpg","null","",NA,NA,NA,NA,""
"image-keyboard-response",284,233389,"0.0-4.90-2.90","v7k6wh8rn6m4lfu",612,"134.csv","","null","resources/images/fishbone.png","null","",NA,NA,NA,NA,""
"image-keyboard-response",285,233650,"0.0-4.91-0.91","v7k6wh8rn6m4lfu",612,"134.csv","","258.5","resources/trios/L1T2A3.jpg","38","restless",0.9,0.5,0.5,0.826952841137115,"false"
"image-keyboard-response",286,234053,"0.0-4.91-1.91","v7k6wh8rn6m4lfu",612,"134.csv","","null","resources/maskTrios/BT2B.jpg","null","",NA,NA,NA,NA,""
"image-keyboard-response",287,235255,"0.0-4.91-2.91","v7k6wh8rn6m4lfu",612,"134.csv","","null","resources/images/fishbone.png","null","",NA,NA,NA,NA,""
"image-keyboard-response",288,235523,"0.0-4.92-0.92","v7k6wh8rn6m4lfu",612,"134.csv","","265.89999985694885","resources/trios/L1T2A3.jpg","39","restless",0.9,0.5,0.5,0.116009155099359,"true"
"image-keyboard-response",289,235926,"0.0-4.92-1.92","v7k6wh8rn6m4lfu",612,"134.csv","","null","resources/maskTrios/BBA3.jpg","null","",NA,NA,NA,NA,""
"image-keyboard-response",290,237130,"0.0-4.92-2.92","v7k6wh8rn6m4lfu",612,"134.csv","","null","resources/images/coin2.png","null","",NA,NA,NA,NA,""
"image-keyboard-response",291,238273,"0.0-4.93-0.93","v7k6wh8rn6m4lfu",612,"134.csv","","1141.2999999523163","resources/trios/L1T2A3.jpg","37","restless",0.9,0.5,0.5,0.40336551494702,"true"
"image-keyboard-response",292,238676,"0.0-4.93-1.93","v7k6wh8rn6m4lfu",612,"134.csv","","null","resources/maskTrios/L1BB.jpg","null","",NA,NA,NA,NA,""
"image-keyboard-response",293,239880,"0.0-4.93-2.93","v7k6wh8rn6m4lfu",612,"134.csv","","null","resources/images/coin2.png","null","",NA,NA,NA,NA,""
"image-keyboard-response",294,240328,"0.0-4.94-0.94","v7k6wh8rn6m4lfu",612,"134.csv","","446.40000009536743","resources/trios/L1T2A3.jpg","39","restless",0.9,0.4,0.5,0.82204546778628,"false"
"image-keyboard-response",295,240731,"0.0-4.94-1.94","v7k6wh8rn6m4lfu",612,"134.csv","","null","resources/maskTrios/BBA3.jpg","null","",NA,NA,NA,NA,""
"image-keyboard-response",296,241934,"0.0-4.94-2.94","v7k6wh8rn6m4lfu",612,"134.csv","","null","resources/images/fishbone.png","null","",NA,NA,NA,NA,""
"image-keyboard-response",297,242168,"0.0-4.95-0.95","v7k6wh8rn6m4lfu",612,"134.csv","","232.70000004768372","resources/trios/L1T2A3.jpg","38","restless",0.9,0.4,0.5,0.771878126608269,"false"
"image-keyboard-response",298,242571,"0.0-4.95-1.95","v7k6wh8rn6m4lfu",612,"134.csv","","null","resources/maskTrios/BT2B.jpg","null","",NA,NA,NA,NA,""
"image-keyboard-response",299,243775,"0.0-4.95-2.95","v7k6wh8rn6m4lfu",612,"134.csv","","null","resources/images/fishbone.png","null","",NA,NA,NA,NA,""
"image-keyboard-response",300,243855,"0.0-4.96-0.96","v7k6wh8rn6m4lfu",612,"134.csv","","78.39999985694885","resources/trios/L1T2A3.jpg","37","restless",0.9,0.4,0.5,0.692085471872183,"true"
"image-keyboard-response",301,244258,"0.0-4.96-1.96","v7k6wh8rn6m4lfu",612,"134.csv","","null","resources/maskTrios/L1BB.jpg","null","",NA,NA,NA,NA,""
"image-keyboard-response",302,245461,"0.0-4.96-2.96","v7k6wh8rn6m4lfu",612,"134.csv","","null","resources/images/coin2.png","null","",NA,NA,NA,NA,""
"image-keyboard-response",303,245758,"0.0-4.97-0.97","v7k6wh8rn6m4lfu",612,"134.csv","","294.89999985694885","resources/trios/L1T2A3.jpg","37","restless",0.9,0.4,0.5,0.0610282900163701,"true"
"image-keyboard-response",304,246162,"0.0-4.97-1.97","v7k6wh8rn6m4lfu",612,"134.csv","","null","resources/maskTrios/L1BB.jpg","null","",NA,NA,NA,NA,""
"image-keyboard-response",305,247366,"0.0-4.97-2.97","v7k6wh8rn6m4lfu",612,"134.csv","","null","resources/images/coin2.png","null","",NA,NA,NA,NA,""
"image-keyboard-response",306,247644,"0.0-4.98-0.98","v7k6wh8rn6m4lfu",612,"134.csv","","276.09999990463257","resources/trios/L1T2A3.jpg","37","restless",0.9,0.4,0.5,0.436547931690513,"true"
"image-keyboard-response",307,248047,"0.0-4.98-1.98","v7k6wh8rn6m4lfu",612,"134.csv","","null","resources/maskTrios/L1BB.jpg","null","",NA,NA,NA,NA,""
"image-keyboard-response",308,249250,"0.0-4.98-2.98","v7k6wh8rn6m4lfu",612,"134.csv","","null","resources/images/coin2.png","null","",NA,NA,NA,NA,""
"image-keyboard-response",309,249529,"0.0-4.99-0.99","v7k6wh8rn6m4lfu",612,"134.csv","","277.2000000476837","resources/trios/L1T2A3.jpg","37","restless",0.8,0.3,0.5,0.30337427649255,"true"
"image-keyboard-response",310,249933,"0.0-4.99-1.99","v7k6wh8rn6m4lfu",612,"134.csv","","null","resources/maskTrios/L1BB.jpg","null","",NA,NA,NA,NA,""
"image-keyboard-response",311,251136,"0.0-4.99-2.99","v7k6wh8rn6m4lfu",612,"134.csv","","null","resources/images/coin2.png","null","",NA,NA,NA,NA,""
"image-keyboard-response",312,251465,"0.0-4.100-0.100","v7k6wh8rn6m4lfu",612,"134.csv","","326.7000000476837","resources/trios/L1T2A3.jpg","38","restless",0.8,0.3,0.6,0.866942665318446,"false"
"image-keyboard-response",313,251868,"0.0-4.100-1.100","v7k6wh8rn6m4lfu",612,"134.csv","","null","resources/maskTrios/BT2B.jpg","null","",NA,NA,NA,NA,""
"image-keyboard-response",314,253071,"0.0-4.100-2.100","v7k6wh8rn6m4lfu",612,"134.csv","","null","resources/images/fishbone.png","null","",NA,NA,NA,NA,""
"image-keyboard-response",315,253551,"0.0-4.101-0.101","v7k6wh8rn6m4lfu",612,"134.csv","","478.40000009536743","resources/trios/L1T2A3.jpg","37","restless",0.9,0.3,0.6,0.651395177865462,"true"
"image-keyboard-response",316,253955,"0.0-4.101-1.101","v7k6wh8rn6m4lfu",612,"134.csv","","null","resources/maskTrios/L1BB.jpg","null","",NA,NA,NA,NA,""
"image-keyboard-response",317,255158,"0.0-4.101-2.101","v7k6wh8rn6m4lfu",612,"134.csv","","null","resources/images/coin2.png","null","",NA,NA,NA,NA,""
"image-keyboard-response",318,255480,"0.0-4.102-0.102","v7k6wh8rn6m4lfu",612,"134.csv","","320.39999985694885","resources/trios/L1T2A3.jpg","37","restless",0.8,0.3,0.6,0.63982186879035,"true"
"image-keyboard-response",319,255883,"0.0-4.102-1.102","v7k6wh8rn6m4lfu",612,"134.csv","","null","resources/maskTrios/L1BB.jpg","null","",NA,NA,NA,NA,""
"image-keyboard-response",320,257087,"0.0-4.102-2.102","v7k6wh8rn6m4lfu",612,"134.csv","","null","resources/images/coin2.png","null","",NA,NA,NA,NA,""
"image-keyboard-response",321,257405,"0.0-4.103-0.103","v7k6wh8rn6m4lfu",612,"134.csv","","316.59999990463257","resources/trios/L1T2A3.jpg","37","restless",0.8,0.3,0.6,0.809840802325284,"false"
"image-keyboard-response",322,257808,"0.0-4.103-1.103","v7k6wh8rn6m4lfu",612,"134.csv","","null","resources/maskTrios/L1BB.jpg","null","",NA,NA,NA,NA,""
"image-keyboard-response",323,259011,"0.0-4.103-2.103","v7k6wh8rn6m4lfu",612,"134.csv","","null","resources/images/fishbone.png","null","",NA,NA,NA,NA,""
"image-keyboard-response",324,259269,"0.0-4.104-0.104","v7k6wh8rn6m4lfu",612,"134.csv","","256.5","resources/trios/L1T2A3.jpg","39","restless",0.8,0.3,0.6,0.42718196811864,"true"
"image-keyboard-response",325,259673,"0.0-4.104-1.104","v7k6wh8rn6m4lfu",612,"134.csv","","null","resources/maskTrios/BBA3.jpg","null","",NA,NA,NA,NA,""
"image-keyboard-response",326,260876,"0.0-4.104-2.104","v7k6wh8rn6m4lfu",612,"134.csv","","null","resources/images/coin2.png","null","",NA,NA,NA,NA,""
"image-keyboard-response",327,261203,"0.0-4.105-0.105","v7k6wh8rn6m4lfu",612,"134.csv","","324.2999999523163","resources/trios/L1T2A3.jpg","39","restless",0.8,0.3,0.6,0.847998951270446,"false"
"image-keyboard-response",328,261606,"0.0-4.105-1.105","v7k6wh8rn6m4lfu",612,"134.csv","","null","resources/maskTrios/BBA3.jpg","null","",NA,NA,NA,NA,""
"image-keyboard-response",329,262810,"0.0-4.105-2.105","v7k6wh8rn6m4lfu",612,"134.csv","","null","resources/images/fishbone.png","null","",NA,NA,NA,NA,""
"image-keyboard-response",330,263123,"0.0-4.106-0.106","v7k6wh8rn6m4lfu",612,"134.csv","","311.09999990463257","resources/trios/L1T2A3.jpg","38","restless",0.8,0.3,0.6,0.0637370472883576,"true"
"image-keyboard-response",331,263526,"0.0-4.106-1.106","v7k6wh8rn6m4lfu",612,"134.csv","","null","resources/maskTrios/BT2B.jpg","null","",NA,NA,NA,NA,""
"image-keyboard-response",332,264730,"0.0-4.106-2.106","v7k6wh8rn6m4lfu",612,"134.csv","","null","resources/images/coin2.png","null","",NA,NA,NA,NA,""
"image-keyboard-response",333,264992,"0.0-4.107-0.107","v7k6wh8rn6m4lfu",612,"134.csv","","260.09999990463257","resources/trios/L1T2A3.jpg","37","restless",0.8,0.3,0.7,0.870762372942252,"false"
"image-keyboard-response",334,265395,"0.0-4.107-1.107","v7k6wh8rn6m4lfu",612,"134.csv","","null","resources/maskTrios/L1BB.jpg","null","",NA,NA,NA,NA,""
"image-keyboard-response",335,266598,"0.0-4.107-2.107","v7k6wh8rn6m4lfu",612,"134.csv","","null","resources/images/fishbone.png","null","",NA,NA,NA,NA,""
"image-keyboard-response",336,266853,"0.0-4.108-0.108","v7k6wh8rn6m4lfu",612,"134.csv","","252.59999990463257","resources/trios/L1T2A3.jpg","39","restless",0.8,0.3,0.7,0.657705248605634,"true"
"image-keyboard-response",337,267256,"0.0-4.108-1.108","v7k6wh8rn6m4lfu",612,"134.csv","","null","resources/maskTrios/BBA3.jpg","null","",NA,NA,NA,NA,""
"image-keyboard-response",338,268460,"0.0-4.108-2.108","v7k6wh8rn6m4lfu",612,"134.csv","","null","resources/images/coin2.png","null","",NA,NA,NA,NA,""
"image-keyboard-response",339,268866,"0.0-4.109-0.109","v7k6wh8rn6m4lfu",612,"134.csv","","404.10000014305115","resources/trios/L1T2A3.jpg","38","restless",0.8,0.3,0.7,0.825527259208782,"false"
"image-keyboard-response",340,269270,"0.0-4.109-1.109","v7k6wh8rn6m4lfu",612,"134.csv","","null","resources/maskTrios/BT2B.jpg","null","",NA,NA,NA,NA,""
"image-keyboard-response",341,270473,"0.0-4.109-2.109","v7k6wh8rn6m4lfu",612,"134.csv","","null","resources/images/fishbone.png","null","",NA,NA,NA,NA,""
"image-keyboard-response",342,270551,"0.0-4.110-0.110","v7k6wh8rn6m4lfu",612,"134.csv","","75.70000004768372","resources/trios/L1T2A3.jpg","37","restless",0.8,0.4,0.7,0.102120509065986,"true"
"image-keyboard-response",343,270954,"0.0-4.110-1.110","v7k6wh8rn6m4lfu",612,"134.csv","","null","resources/maskTrios/L1BB.jpg","null","",NA,NA,NA,NA,""
"image-keyboard-response",344,272158,"0.0-4.110-2.110","v7k6wh8rn6m4lfu",612,"134.csv","","null","resources/images/coin2.png","null","",NA,NA,NA,NA,""
"image-keyboard-response",345,272564,"0.0-4.111-0.111","v7k6wh8rn6m4lfu",612,"134.csv","","404.40000009536743","resources/trios/L1T2A3.jpg","37","restless",0.8,0.4,0.7,0.289333916222694,"true"
"image-keyboard-response",346,272967,"0.0-4.111-1.111","v7k6wh8rn6m4lfu",612,"134.csv","","null","resources/maskTrios/L1BB.jpg","null","",NA,NA,NA,NA,""
"image-keyboard-response",347,274170,"0.0-4.111-2.111","v7k6wh8rn6m4lfu",612,"134.csv","","null","resources/images/coin2.png","null","",NA,NA,NA,NA,""
"image-keyboard-response",348,274390,"0.0-4.112-0.112","v7k6wh8rn6m4lfu",612,"134.csv","","218.5","resources/trios/L1T2A3.jpg","37","restless",0.8,0.4,0.7,0.75457133211573,"true"
"image-keyboard-response",349,274794,"0.0-4.112-1.112","v7k6wh8rn6m4lfu",612,"134.csv","","null","resources/maskTrios/L1BB.jpg","null","",NA,NA,NA,NA,""
"image-keyboard-response",350,275997,"0.0-4.112-2.112","v7k6wh8rn6m4lfu",612,"134.csv","","null","resources/images/coin2.png","null","",NA,NA,NA,NA,""
"image-keyboard-response",351,276262,"0.0-4.113-0.113","v7k6wh8rn6m4lfu",612,"134.csv","","263.7000000476837","resources/trios/L1T2A3.jpg","37","restless",0.8,0.4,0.7,0.304485344864793,"true"
"image-keyboard-response",352,276665,"0.0-4.113-1.113","v7k6wh8rn6m4lfu",612,"134.csv","","null","resources/maskTrios/L1BB.jpg","null","",NA,NA,NA,NA,""
"image-keyboard-response",353,277869,"0.0-4.113-2.113","v7k6wh8rn6m4lfu",612,"134.csv","","null","resources/images/coin2.png","null","",NA,NA,NA,NA,""
"image-keyboard-response",354,278121,"0.0-4.114-0.114","v7k6wh8rn6m4lfu",612,"134.csv","","250.09999990463257","resources/trios/L1T2A3.jpg","37","restless",0.8,0.3,0.7,0.163217378961318,"true"
"image-keyboard-response",355,278524,"0.0-4.114-1.114","v7k6wh8rn6m4lfu",612,"134.csv","","null","resources/maskTrios/L1BB.jpg","null","",NA,NA,NA,NA,""
"image-keyboard-response",356,279727,"0.0-4.114-2.114","v7k6wh8rn6m4lfu",612,"134.csv","","null","resources/images/coin2.png","null","",NA,NA,NA,NA,""
"image-keyboard-response",357,280146,"0.0-4.115-0.115","v7k6wh8rn6m4lfu",612,"134.csv","","416.7999999523163","resources/trios/L1T2A3.jpg","37","restless",0.8,0.3,0.7,0.597779167751985,"true"
"image-keyboard-response",358,280549,"0.0-4.115-1.115","v7k6wh8rn6m4lfu",612,"134.csv","","null","resources/maskTrios/L1BB.jpg","null","",NA,NA,NA,NA,""
"image-keyboard-response",359,281752,"0.0-4.115-2.115","v7k6wh8rn6m4lfu",612,"134.csv","","null","resources/images/coin2.png","null","",NA,NA,NA,NA,""
"image-keyboard-response",360,282945,"0.0-4.116-0.116","v7k6wh8rn6m4lfu",612,"134.csv","","1191.6000001430511","resources/trios/L1T2A3.jpg","38","restless",0.8,0.3,0.8,0.369426582926484,"false"
"image-keyboard-response",361,283348,"0.0-4.116-1.116","v7k6wh8rn6m4lfu",612,"134.csv","","null","resources/maskTrios/BT2B.jpg","null","",NA,NA,NA,NA,""
"image-keyboard-response",362,284551,"0.0-4.116-2.116","v7k6wh8rn6m4lfu",612,"134.csv","","null","resources/images/fishbone.png","null","",NA,NA,NA,NA,""
"image-keyboard-response",363,284833,"0.0-4.117-0.117","v7k6wh8rn6m4lfu",612,"134.csv","","280","resources/trios/L1T2A3.jpg","39","restless",0.8,0.3,0.8,0.139295438626885,"true"
"image-keyboard-response",364,285236,"0.0-4.117-1.117","v7k6wh8rn6m4lfu",612,"134.csv","","null","resources/maskTrios/BBA3.jpg","null","",NA,NA,NA,NA,""
"image-keyboard-response",365,286440,"0.0-4.117-2.117","v7k6wh8rn6m4lfu",612,"134.csv","","null","resources/images/coin2.png","null","",NA,NA,NA,NA,""
"image-keyboard-response",366,286689,"0.0-4.118-0.118","v7k6wh8rn6m4lfu",612,"134.csv","","247","resources/trios/L1T2A3.jpg","39","restless",0.8,0.3,0.8,0.50141939325738,"true"
"image-keyboard-response",367,287093,"0.0-4.118-1.118","v7k6wh8rn6m4lfu",612,"134.csv","","null","resources/maskTrios/BBA3.jpg","null","",NA,NA,NA,NA,""
"image-keyboard-response",368,288296,"0.0-4.118-2.118","v7k6wh8rn6m4lfu",612,"134.csv","","null","resources/images/coin2.png","null","",NA,NA,NA,NA,""
"image-keyboard-response",369,289705,"0.0-4.119-0.119","v7k6wh8rn6m4lfu",612,"134.csv","","1406.8999998569489","resources/trios/L1T2A3.jpg","38","restless",0.8,0.3,0.8,0.508966351444086,"false"
"image-keyboard-response",370,290108,"0.0-4.119-1.119","v7k6wh8rn6m4lfu",612,"134.csv","","null","resources/maskTrios/BT2B.jpg","null","",NA,NA,NA,NA,""
"image-keyboard-response",371,291312,"0.0-4.119-2.119","v7k6wh8rn6m4lfu",612,"134.csv","","null","resources/images/fishbone.png","null","",NA,NA,NA,NA,""
"image-keyboard-response",372,291597,"0.0-4.120-0.120","v7k6wh8rn6m4lfu",612,"134.csv","","283.09999990463257","resources/trios/L1T2A3.jpg","37","restless",0.8,0.3,0.8,0.935663757861037,"false"
"image-keyboard-response",373,292001,"0.0-4.120-1.120","v7k6wh8rn6m4lfu",612,"134.csv","","null","resources/maskTrios/L1BB.jpg","null","",NA,NA,NA,NA,""
"image-keyboard-response",374,293204,"0.0-4.120-2.120","v7k6wh8rn6m4lfu",612,"134.csv","","null","resources/images/fishbone.png","null","",NA,NA,NA,NA,""
"image-keyboard-response",375,293411,"0.0-4.121-0.121","v7k6wh8rn6m4lfu",612,"134.csv","","205.20000004768372","resources/trios/L1T2A3.jpg","39","restless",0.8,0.3,0.8,0.22636531437277,"true"
"image-keyboard-response",376,293814,"0.0-4.121-1.121","v7k6wh8rn6m4lfu",612,"134.csv","","null","resources/maskTrios/BBA3.jpg","null","",NA,NA,NA,NA,""
"image-keyboard-response",377,295018,"0.0-4.121-2.121","v7k6wh8rn6m4lfu",612,"134.csv","","null","resources/images/coin2.png","null","",NA,NA,NA,NA,""
"image-keyboard-response",378,296318,"0.0-4.122-0.122","v7k6wh8rn6m4lfu",612,"134.csv","","1298.2999999523163","resources/trios/L1T2A3.jpg","38","restless",0.8,0.3,0.8,0.328214636706772,"false"
"image-keyboard-response",379,296722,"0.0-4.122-1.122","v7k6wh8rn6m4lfu",612,"134.csv","","null","resources/maskTrios/BT2B.jpg","null","",NA,NA,NA,NA,""
"image-keyboard-response",380,297925,"0.0-4.122-2.122","v7k6wh8rn6m4lfu",612,"134.csv","","null","resources/images/fishbone.png","null","",NA,NA,NA,NA,""
"image-keyboard-response",381,298227,"0.0-4.123-0.123","v7k6wh8rn6m4lfu",612,"134.csv","","300.89999985694885","resources/trios/L1T2A3.jpg","37","restless",0.8,0.3,0.8,0.899338435890815,"false"
"image-keyboard-response",382,298631,"0.0-4.123-1.123","v7k6wh8rn6m4lfu",612,"134.csv","","null","resources/maskTrios/L1BB.jpg","null","",NA,NA,NA,NA,""
"image-keyboard-response",383,299834,"0.0-4.123-2.123","v7k6wh8rn6m4lfu",612,"134.csv","","null","resources/images/fishbone.png","null","",NA,NA,NA,NA,""
"image-keyboard-response",384,300061,"0.0-4.124-0.124","v7k6wh8rn6m4lfu",612,"134.csv","","224.79999995231628","resources/trios/L1T2A3.jpg","39","restless",0.8,0.3,0.8,0.759573004150633,"true"
"image-keyboard-response",385,300464,"0.0-4.124-1.124","v7k6wh8rn6m4lfu",612,"134.csv","","null","resources/maskTrios/BBA3.jpg","null","",NA,NA,NA,NA,""
"image-keyboard-response",386,301668,"0.0-4.124-2.124","v7k6wh8rn6m4lfu",612,"134.csv","","null","resources/images/coin2.png","null","",NA,NA,NA,NA,""
"image-keyboard-response",387,301896,"0.0-4.125-0.125","v7k6wh8rn6m4lfu",612,"134.csv","","226.5","resources/trios/L1T2A3.jpg","39","restless",0.8,0.3,0.8,0.260689594220465,"true"
"image-keyboard-response",388,302299,"0.0-4.125-1.125","v7k6wh8rn6m4lfu",612,"134.csv","","null","resources/maskTrios/BBA3.jpg","null","",NA,NA,NA,NA,""
"image-keyboard-response",389,303503,"0.0-4.125-2.125","v7k6wh8rn6m4lfu",612,"134.csv","","null","resources/images/coin2.png","null","",NA,NA,NA,NA,""
"image-keyboard-response",390,304067,"0.0-4.126-0.126","v7k6wh8rn6m4lfu",612,"134.csv","","561.7000000476837","resources/trios/L1T2A3.jpg","39","restless",0.8,0.3,0.7,0.62964140131017,"true"
"image-keyboard-response",391,304469,"0.0-4.126-1.126","v7k6wh8rn6m4lfu",612,"134.csv","","null","resources/maskTrios/BBA3.jpg","null","",NA,NA,NA,NA,""
"image-keyboard-response",392,305672,"0.0-4.126-2.126","v7k6wh8rn6m4lfu",612,"134.csv","","null","resources/images/coin2.png","null","",NA,NA,NA,NA,""
"image-keyboard-response",393,305969,"0.0-4.127-0.127","v7k6wh8rn6m4lfu",612,"134.csv","","294.09999990463257","resources/trios/L1T2A3.jpg","39","restless",0.8,0.2,0.7,0.303599528576869,"true"
"image-keyboard-response",394,306372,"0.0-4.127-1.127","v7k6wh8rn6m4lfu",612,"134.csv","","null","resources/maskTrios/BBA3.jpg","null","",NA,NA,NA,NA,""
"image-keyboard-response",395,307575,"0.0-4.127-2.127","v7k6wh8rn6m4lfu",612,"134.csv","","null","resources/images/coin2.png","null","",NA,NA,NA,NA,""
"image-keyboard-response",396,308447,"0.0-4.128-0.128","v7k6wh8rn6m4lfu",612,"134.csv","","869.9000000953674","resources/trios/L1T2A3.jpg","37","restless",0.8,0.2,0.7,0.230045593185878,"true"
"image-keyboard-response",397,308851,"0.0-4.128-1.128","v7k6wh8rn6m4lfu",612,"134.csv","","null","resources/maskTrios/L1BB.jpg","null","",NA,NA,NA,NA,""
"image-keyboard-response",398,310054,"0.0-4.128-2.128","v7k6wh8rn6m4lfu",612,"134.csv","","null","resources/images/coin2.png","null","",NA,NA,NA,NA,""
"image-keyboard-response",399,310360,"0.0-4.129-0.129","v7k6wh8rn6m4lfu",612,"134.csv","","304.5","resources/trios/L1T2A3.jpg","37","restless",0.8,0.2,0.8,0.132407218332022,"true"
"image-keyboard-response",400,310763,"0.0-4.129-1.129","v7k6wh8rn6m4lfu",612,"134.csv","","null","resources/maskTrios/L1BB.jpg","null","",NA,NA,NA,NA,""
"image-keyboard-response",401,311966,"0.0-4.129-2.129","v7k6wh8rn6m4lfu",612,"134.csv","","null","resources/images/coin2.png","null","",NA,NA,NA,NA,""
"image-keyboard-response",402,312214,"0.0-4.130-0.130","v7k6wh8rn6m4lfu",612,"134.csv","","246.29999995231628","resources/trios/L1T2A3.jpg","37","restless",0.7,0.2,0.8,0.733941901909467,"false"
"image-keyboard-response",403,312616,"0.0-4.130-1.130","v7k6wh8rn6m4lfu",612,"134.csv","","null","resources/maskTrios/L1BB.jpg","null","",NA,NA,NA,NA,""
"image-keyboard-response",404,313820,"0.0-4.130-2.130","v7k6wh8rn6m4lfu",612,"134.csv","","null","resources/images/fishbone.png","null","",NA,NA,NA,NA,""
"image-keyboard-response",405,314153,"0.0-4.131-0.131","v7k6wh8rn6m4lfu",612,"134.csv","","331.2000000476837","resources/trios/L1T2A3.jpg","39","restless",0.7,0.2,0.8,0.597460880040326,"true"
"image-keyboard-response",406,314556,"0.0-4.131-1.131","v7k6wh8rn6m4lfu",612,"134.csv","","null","resources/maskTrios/BBA3.jpg","null","",NA,NA,NA,NA,""
"image-keyboard-response",407,315759,"0.0-4.131-2.131","v7k6wh8rn6m4lfu",612,"134.csv","","null","resources/images/coin2.png","null","",NA,NA,NA,NA,""
"image-keyboard-response",408,316045,"0.0-4.132-0.132","v7k6wh8rn6m4lfu",612,"134.csv","","284","resources/trios/L1T2A3.jpg","39","restless",0.7,0.2,0.8,0.432020334580485,"true"
"image-keyboard-response",409,316449,"0.0-4.132-1.132","v7k6wh8rn6m4lfu",612,"134.csv","","null","resources/maskTrios/BBA3.jpg","null","",NA,NA,NA,NA,""
"image-keyboard-response",410,317652,"0.0-4.132-2.132","v7k6wh8rn6m4lfu",612,"134.csv","","null","resources/images/coin2.png","null","",NA,NA,NA,NA,""
"image-keyboard-response",411,317975,"0.0-4.133-0.133","v7k6wh8rn6m4lfu",612,"134.csv","","320.7000000476837","resources/trios/L1T2A3.jpg","38","restless",0.6,0.3,0.8,0.471663071935952,"false"
"image-keyboard-response",412,318378,"0.0-4.133-1.133","v7k6wh8rn6m4lfu",612,"134.csv","","null","resources/maskTrios/BT2B.jpg","null","",NA,NA,NA,NA,""
"image-keyboard-response",413,319581,"0.0-4.133-2.133","v7k6wh8rn6m4lfu",612,"134.csv","","null","resources/images/fishbone.png","null","",NA,NA,NA,NA,""
"image-keyboard-response",414,319865,"0.0-4.134-0.134","v7k6wh8rn6m4lfu",612,"134.csv","","282","resources/trios/L1T2A3.jpg","37","restless",0.6,0.3,0.8,0.434915065011526,"true"
"image-keyboard-response",415,320268,"0.0-4.134-1.134","v7k6wh8rn6m4lfu",612,"134.csv","","null","resources/maskTrios/L1BB.jpg","null","",NA,NA,NA,NA,""
"image-keyboard-response",416,321471,"0.0-4.134-2.134","v7k6wh8rn6m4lfu",612,"134.csv","","null","resources/images/coin2.png","null","",NA,NA,NA,NA,""
"image-keyboard-response",417,321734,"0.0-4.135-0.135","v7k6wh8rn6m4lfu",612,"134.csv","","260.7000000476837","resources/trios/L1T2A3.jpg","37","restless",0.6,0.3,0.8,0.333113717195363,"true"
"image-keyboard-response",418,322137,"0.0-4.135-1.135","v7k6wh8rn6m4lfu",612,"134.csv","","null","resources/maskTrios/L1BB.jpg","null","",NA,NA,NA,NA,""
"image-keyboard-response",419,323339,"0.0-4.135-2.135","v7k6wh8rn6m4lfu",612,"134.csv","","null","resources/images/coin2.png","null","",NA,NA,NA,NA,""
"image-keyboard-response",420,323643,"0.0-4.136-0.136","v7k6wh8rn6m4lfu",612,"134.csv","","301.39999985694885","resources/trios/L1T2A3.jpg","39","restless",0.6,0.3,0.8,0.204086537862333,"true"
"image-keyboard-response",421,324046,"0.0-4.136-1.136","v7k6wh8rn6m4lfu",612,"134.csv","","null","resources/maskTrios/BBA3.jpg","null","",NA,NA,NA,NA,""
"image-keyboard-response",422,325249,"0.0-4.136-2.136","v7k6wh8rn6m4lfu",612,"134.csv","","null","resources/images/coin2.png","null","",NA,NA,NA,NA,""
"image-keyboard-response",423,325490,"0.0-4.137-0.137","v7k6wh8rn6m4lfu",612,"134.csv","","238.59999990463257","resources/trios/L1T2A3.jpg","39","restless",0.7,0.3,0.8,0.621130436671353,"true"
"image-keyboard-response",424,325892,"0.0-4.137-1.137","v7k6wh8rn6m4lfu",612,"134.csv","","null","resources/maskTrios/BBA3.jpg","null","",NA,NA,NA,NA,""
"image-keyboard-response",425,327096,"0.0-4.137-2.137","v7k6wh8rn6m4lfu",612,"134.csv","","null","resources/images/coin2.png","null","",NA,NA,NA,NA,""
"image-keyboard-response",426,327420,"0.0-4.138-0.138","v7k6wh8rn6m4lfu",612,"134.csv","","322","resources/trios/L1T2A3.jpg","37","restless",0.7,0.3,0.8,0.862962947962455,"false"
"image-keyboard-response",427,327824,"0.0-4.138-1.138","v7k6wh8rn6m4lfu",612,"134.csv","","null","resources/maskTrios/L1BB.jpg","null","",NA,NA,NA,NA,""
"image-keyboard-response",428,329026,"0.0-4.138-2.138","v7k6wh8rn6m4lfu",612,"134.csv","","null","resources/images/fishbone.png","null","",NA,NA,NA,NA,""
"image-keyboard-response",429,329260,"0.0-4.139-0.139","v7k6wh8rn6m4lfu",612,"134.csv","","231.29999995231628","resources/trios/L1T2A3.jpg","38","restless",0.7,0.3,0.8,0.0913797078278202,"true"
"image-keyboard-response",430,329663,"0.0-4.139-1.139","v7k6wh8rn6m4lfu",612,"134.csv","","null","resources/maskTrios/BT2B.jpg","null","",NA,NA,NA,NA,""
"image-keyboard-response",431,330867,"0.0-4.139-2.139","v7k6wh8rn6m4lfu",612,"134.csv","","null","resources/images/coin2.png","null","",NA,NA,NA,NA,""
"image-keyboard-response",432,331173,"0.0-4.140-0.140","v7k6wh8rn6m4lfu",612,"134.csv","","304.40000009536743","resources/trios/L1T2A3.jpg","38","restless",0.7,0.3,0.8,0.640636455351532,"false"
"image-keyboard-response",433,331576,"0.0-4.140-1.140","v7k6wh8rn6m4lfu",612,"134.csv","","null","resources/maskTrios/BT2B.jpg","null","",NA,NA,NA,NA,""
"image-keyboard-response",434,332779,"0.0-4.140-2.140","v7k6wh8rn6m4lfu",612,"134.csv","","null","resources/images/fishbone.png","null","",NA,NA,NA,NA,""
"image-keyboard-response",435,333008,"0.0-4.141-0.141","v7k6wh8rn6m4lfu",612,"134.csv","","227","resources/trios/L1T2A3.jpg","39","restless",0.7,0.3,0.8,0.758707184073915,"true"
"image-keyboard-response",436,333411,"0.0-4.141-1.141","v7k6wh8rn6m4lfu",612,"134.csv","","null","resources/maskTrios/BBA3.jpg","null","",NA,NA,NA,NA,""
"image-keyboard-response",437,334615,"0.0-4.141-2.141","v7k6wh8rn6m4lfu",612,"134.csv","","null","resources/images/coin2.png","null","",NA,NA,NA,NA,""
"image-keyboard-response",438,335556,"0.0-4.142-0.142","v7k6wh8rn6m4lfu",612,"134.csv","","939","resources/trios/L1T2A3.jpg","39","restless",0.7,0.3,0.8,0.120751071262746,"true"
"image-keyboard-response",439,335959,"0.0-4.142-1.142","v7k6wh8rn6m4lfu",612,"134.csv","","null","resources/maskTrios/BBA3.jpg","null","",NA,NA,NA,NA,""
"image-keyboard-response",440,337162,"0.0-4.142-2.142","v7k6wh8rn6m4lfu",612,"134.csv","","null","resources/images/coin2.png","null","",NA,NA,NA,NA,""
"image-keyboard-response",441,337458,"0.0-4.143-0.143","v7k6wh8rn6m4lfu",612,"134.csv","","293.09999990463257","resources/trios/L1T2A3.jpg","37","restless",0.6,0.3,0.8,0.718381017179244,"false"
"image-keyboard-response",442,337861,"0.0-4.143-1.143","v7k6wh8rn6m4lfu",612,"134.csv","","null","resources/maskTrios/L1BB.jpg","null","",NA,NA,NA,NA,""
"image-keyboard-response",443,339063,"0.0-4.143-2.143","v7k6wh8rn6m4lfu",612,"134.csv","","null","resources/images/fishbone.png","null","",NA,NA,NA,NA,""
"image-keyboard-response",444,339326,"0.0-4.144-0.144","v7k6wh8rn6m4lfu",612,"134.csv","","262.2999999523163","resources/trios/L1T2A3.jpg","39","restless",0.6,0.3,0.8,0.759991726272885,"true"
"image-keyboard-response",445,339730,"0.0-4.144-1.144","v7k6wh8rn6m4lfu",612,"134.csv","","null","resources/maskTrios/BBA3.jpg","null","",NA,NA,NA,NA,""
"image-keyboard-response",446,340933,"0.0-4.144-2.144","v7k6wh8rn6m4lfu",612,"134.csv","","null","resources/images/coin2.png","null","",NA,NA,NA,NA,""
"image-keyboard-response",447,341379,"0.0-4.145-0.145","v7k6wh8rn6m4lfu",612,"134.csv","","444.5","resources/trios/L1T2A3.jpg","39","restless",0.6,0.3,0.7,0.188705427988856,"true"
"image-keyboard-response",448,341782,"0.0-4.145-1.145","v7k6wh8rn6m4lfu",612,"134.csv","","null","resources/maskTrios/BBA3.jpg","null","",NA,NA,NA,NA,""
"image-keyboard-response",449,342985,"0.0-4.145-2.145","v7k6wh8rn6m4lfu",612,"134.csv","","null","resources/images/coin2.png","null","",NA,NA,NA,NA,""
"image-keyboard-response",450,343156,"0.0-4.146-0.146","v7k6wh8rn6m4lfu",612,"134.csv","","168.79999995231628","resources/trios/L1T2A3.jpg","39","restless",0.6,0.3,0.7,0.340822568717913,"true"
"image-keyboard-response",451,343559,"0.0-4.146-1.146","v7k6wh8rn6m4lfu",612,"134.csv","","null","resources/maskTrios/BBA3.jpg","null","",NA,NA,NA,NA,""
"image-keyboard-response",452,344762,"0.0-4.146-2.146","v7k6wh8rn6m4lfu",612,"134.csv","","null","resources/images/coin2.png","null","",NA,NA,NA,NA,""
"image-keyboard-response",453,344991,"0.0-4.147-0.147","v7k6wh8rn6m4lfu",612,"134.csv","","227.10000014305115","resources/trios/L1T2A3.jpg","37","restless",0.6,0.3,0.7,0.952260941660602,"false"
"image-keyboard-response",454,345394,"0.0-4.147-1.147","v7k6wh8rn6m4lfu",612,"134.csv","","null","resources/maskTrios/L1BB.jpg","null","",NA,NA,NA,NA,""
"image-keyboard-response",455,346597,"0.0-4.147-2.147","v7k6wh8rn6m4lfu",612,"134.csv","","null","resources/images/fishbone.png","null","",NA,NA,NA,NA,""
"image-keyboard-response",456,346873,"0.0-4.148-0.148","v7k6wh8rn6m4lfu",612,"134.csv","","274.60000014305115","resources/trios/L1T2A3.jpg","39","restless",0.6,0.3,0.6,0.417669360995712,"true"
"image-keyboard-response",457,347276,"0.0-4.148-1.148","v7k6wh8rn6m4lfu",612,"134.csv","","null","resources/maskTrios/BBA3.jpg","null","",NA,NA,NA,NA,""
"image-keyboard-response",458,348479,"0.0-4.148-2.148","v7k6wh8rn6m4lfu",612,"134.csv","","null","resources/images/coin2.png","null","",NA,NA,NA,NA,""
"image-keyboard-response",459,348714,"0.0-4.149-0.149","v7k6wh8rn6m4lfu",612,"134.csv","","233.20000004768372","resources/trios/L1T2A3.jpg","37","restless",0.6,0.3,0.6,0.148909244450306,"true"
"image-keyboard-response",460,349117,"0.0-4.149-1.149","v7k6wh8rn6m4lfu",612,"134.csv","","null","resources/maskTrios/L1BB.jpg","null","",NA,NA,NA,NA,""
"image-keyboard-response",461,350320,"0.0-4.149-2.149","v7k6wh8rn6m4lfu",612,"134.csv","","null","resources/images/coin2.png","null","",NA,NA,NA,NA,""
"image-keyboard-response",462,350561,"0.0-4.150-0.150","v7k6wh8rn6m4lfu",612,"134.csv","","239.59999990463257","resources/trios/L1T2A3.jpg","37","restless",0.6,0.3,0.6,0.597422191402591,"true"
"image-keyboard-response",463,350964,"0.0-4.150-1.150","v7k6wh8rn6m4lfu",612,"134.csv","","null","resources/maskTrios/L1BB.jpg","null","",NA,NA,NA,NA,""
"image-keyboard-response",464,352167,"0.0-4.150-2.150","v7k6wh8rn6m4lfu",612,"134.csv","","null","resources/images/coin2.png","null","",NA,NA,NA,NA,""
"image-keyboard-response",465,352439,"0.0-4.151-0.151","v7k6wh8rn6m4lfu",612,"134.csv","","270","resources/trios/L1T2A3.jpg","39","restless",0.7,0.3,0.6,0.197840599022696,"true"
"image-keyboard-response",466,352842,"0.0-4.151-1.151","v7k6wh8rn6m4lfu",612,"134.csv","","null","resources/maskTrios/BBA3.jpg","null","",NA,NA,NA,NA,""
"image-keyboard-response",467,354044,"0.0-4.151-2.151","v7k6wh8rn6m4lfu",612,"134.csv","","null","resources/images/coin2.png","null","",NA,NA,NA,NA,""
"image-keyboard-response",468,354338,"0.0-4.152-0.152","v7k6wh8rn6m4lfu",612,"134.csv","","293","resources/trios/L1T2A3.jpg","39","restless",0.7,0.3,0.6,0.904754380216781,"false"
"image-keyboard-response",469,354742,"0.0-4.152-1.152","v7k6wh8rn6m4lfu",612,"134.csv","","null","resources/maskTrios/BBA3.jpg","null","",NA,NA,NA,NA,""
"image-keyboard-response",470,355944,"0.0-4.152-2.152","v7k6wh8rn6m4lfu",612,"134.csv","","null","resources/images/fishbone.png","null","",NA,NA,NA,NA,""
"image-keyboard-response",471,356214,"0.0-4.153-0.153","v7k6wh8rn6m4lfu",612,"134.csv","","268.39999985694885","resources/trios/L1T2A3.jpg","37","restless",0.7,0.3,0.6,0.639380504211402,"true"
"image-keyboard-response",472,356618,"0.0-4.153-1.153","v7k6wh8rn6m4lfu",612,"134.csv","","null","resources/maskTrios/L1BB.jpg","null","",NA,NA,NA,NA,""
"image-keyboard-response",473,357821,"0.0-4.153-2.153","v7k6wh8rn6m4lfu",612,"134.csv","","null","resources/images/coin2.png","null","",NA,NA,NA,NA,""
"image-keyboard-response",474,358087,"0.0-4.154-0.154","v7k6wh8rn6m4lfu",612,"134.csv","","263.89999985694885","resources/trios/L1T2A3.jpg","37","restless",0.7,0.3,0.5,0.111181239164112,"true"
"image-keyboard-response",475,358490,"0.0-4.154-1.154","v7k6wh8rn6m4lfu",612,"134.csv","","null","resources/maskTrios/L1BB.jpg","null","",NA,NA,NA,NA,""
"image-keyboard-response",476,359693,"0.0-4.154-2.154","v7k6wh8rn6m4lfu",612,"134.csv","","null","resources/images/coin2.png","null","",NA,NA,NA,NA,""
"image-keyboard-response",477,359981,"0.0-4.155-0.155","v7k6wh8rn6m4lfu",612,"134.csv","","285.7000000476837","resources/trios/L1T2A3.jpg","37","restless",0.7,0.3,0.5,0.0915654488708868,"true"
"image-keyboard-response",478,360384,"0.0-4.155-1.155","v7k6wh8rn6m4lfu",612,"134.csv","","null","resources/maskTrios/L1BB.jpg","null","",NA,NA,NA,NA,""
"image-keyboard-response",479,361588,"0.0-4.155-2.155","v7k6wh8rn6m4lfu",612,"134.csv","","null","resources/images/coin2.png","null","",NA,NA,NA,NA,""
"image-keyboard-response",480,361873,"0.0-4.156-0.156","v7k6wh8rn6m4lfu",612,"134.csv","","282.7999999523163","resources/trios/L1T2A3.jpg","37","restless",0.7,0.3,0.5,0.787071588245096,"false"
"image-keyboard-response",481,362276,"0.0-4.156-1.156","v7k6wh8rn6m4lfu",612,"134.csv","","null","resources/maskTrios/L1BB.jpg","null","",NA,NA,NA,NA,""
"image-keyboard-response",482,363479,"0.0-4.156-2.156","v7k6wh8rn6m4lfu",612,"134.csv","","null","resources/images/fishbone.png","null","",NA,NA,NA,NA,""
"image-keyboard-response",483,363698,"0.0-4.157-0.157","v7k6wh8rn6m4lfu",612,"134.csv","","216.60000014305115","resources/trios/L1T2A3.jpg","38","restless",0.7,0.4,0.5,0.34426258759238,"true"
"image-keyboard-response",484,364101,"0.0-4.157-1.157","v7k6wh8rn6m4lfu",612,"134.csv","","null","resources/maskTrios/BT2B.jpg","null","",NA,NA,NA,NA,""
"image-keyboard-response",485,365305,"0.0-4.157-2.157","v7k6wh8rn6m4lfu",612,"134.csv","","null","resources/images/coin2.png","null","",NA,NA,NA,NA,""
"image-keyboard-response",486,365561,"0.0-4.158-0.158","v7k6wh8rn6m4lfu",612,"134.csv","","253.59999990463257","resources/trios/L1T2A3.jpg","38","restless",0.7,0.4,0.5,0.289686185524784,"true"
"image-keyboard-response",487,365963,"0.0-4.158-1.158","v7k6wh8rn6m4lfu",612,"134.csv","","null","resources/maskTrios/BT2B.jpg","null","",NA,NA,NA,NA,""
"image-keyboard-response",488,367166,"0.0-4.158-2.158","v7k6wh8rn6m4lfu",612,"134.csv","","null","resources/images/coin2.png","null","",NA,NA,NA,NA,""
"image-keyboard-response",489,367347,"0.0-4.159-0.159","v7k6wh8rn6m4lfu",612,"134.csv","","179.70000004768372","resources/trios/L1T2A3.jpg","38","restless",0.7,0.5,0.5,0.186039534099615,"true"
"image-keyboard-response",490,367751,"0.0-4.159-1.159","v7k6wh8rn6m4lfu",612,"134.csv","","null","resources/maskTrios/BT2B.jpg","null","",NA,NA,NA,NA,""
"image-keyboard-response",491,368954,"0.0-4.159-2.159","v7k6wh8rn6m4lfu",612,"134.csv","","null","resources/images/coin2.png","null","",NA,NA,NA,NA,""
"image-keyboard-response",492,369163,"0.0-4.160-0.160","v7k6wh8rn6m4lfu",612,"134.csv","","206.5","resources/trios/L1T2A3.jpg","38","restless",0.7,0.5,0.5,0.353071039523077,"true"
"image-keyboard-response",493,369566,"0.0-4.160-1.160","v7k6wh8rn6m4lfu",612,"134.csv","","null","resources/maskTrios/BT2B.jpg","null","",NA,NA,NA,NA,""
"image-keyboard-response",494,370770,"0.0-4.160-2.160","v7k6wh8rn6m4lfu",612,"134.csv","","null","resources/images/coin2.png","null","",NA,NA,NA,NA,""
"image-keyboard-response",495,371377,"0.0-4.161-0.161","v7k6wh8rn6m4lfu",612,"134.csv","","605.4000000953674","resources/trios/L1T2A3.jpg","38","restless",0.6,0.5,0.5,0.620118433448676,"false"
"image-keyboard-response",496,371779,"0.0-4.161-1.161","v7k6wh8rn6m4lfu",612,"134.csv","","null","resources/maskTrios/BT2B.jpg","null","",NA,NA,NA,NA,""
"image-keyboard-response",497,372983,"0.0-4.161-2.161","v7k6wh8rn6m4lfu",612,"134.csv","","null","resources/images/fishbone.png","null","",NA,NA,NA,NA,""
"image-keyboard-response",498,373130,"0.0-4.162-0.162","v7k6wh8rn6m4lfu",612,"134.csv","","145.79999995231628","resources/trios/L1T2A3.jpg","39","restless",0.6,0.6,0.5,0.854029248560254,"false"
"image-keyboard-response",499,373533,"0.0-4.162-1.162","v7k6wh8rn6m4lfu",612,"134.csv","","null","resources/maskTrios/BBA3.jpg","null","",NA,NA,NA,NA,""
"image-keyboard-response",500,374736,"0.0-4.162-2.162","v7k6wh8rn6m4lfu",612,"134.csv","","null","resources/images/fishbone.png","null","",NA,NA,NA,NA,""
"image-keyboard-response",501,374856,"0.0-4.163-0.163","v7k6wh8rn6m4lfu",612,"134.csv","","118.69999980926514","resources/trios/L1T2A3.jpg","37","restless",0.6,0.6,0.5,0.0486842724035197,"true"
"image-keyboard-response",502,375260,"0.0-4.163-1.163","v7k6wh8rn6m4lfu",612,"134.csv","","null","resources/maskTrios/L1BB.jpg","null","",NA,NA,NA,NA,""
"image-keyboard-response",503,376463,"0.0-4.163-2.163","v7k6wh8rn6m4lfu",612,"134.csv","","null","resources/images/coin2.png","null","",NA,NA,NA,NA,""
"image-keyboard-response",504,376728,"0.0-4.164-0.164","v7k6wh8rn6m4lfu",612,"134.csv","","263.09999990463257","resources/trios/L1T2A3.jpg","37","restless",0.6,0.6,0.5,0.667152455980537,"false"
"image-keyboard-response",505,377131,"0.0-4.164-1.164","v7k6wh8rn6m4lfu",612,"134.csv","","null","resources/maskTrios/L1BB.jpg","null","",NA,NA,NA,NA,""
"image-keyboard-response",506,378334,"0.0-4.164-2.164","v7k6wh8rn6m4lfu",612,"134.csv","","null","resources/images/fishbone.png","null","",NA,NA,NA,NA,""
"image-keyboard-response",507,379393,"0.0-4.165-0.165","v7k6wh8rn6m4lfu",612,"134.csv","","1056.6999998092651","resources/trios/L1T2A3.jpg","38","restless",0.7,0.6,0.5,0.332631158034964,"true"
"image-keyboard-response",508,379796,"0.0-4.165-1.165","v7k6wh8rn6m4lfu",612,"134.csv","","null","resources/maskTrios/BT2B.jpg","null","",NA,NA,NA,NA,""
"image-keyboard-response",509,381000,"0.0-4.165-2.165","v7k6wh8rn6m4lfu",612,"134.csv","","null","resources/images/coin2.png","null","",NA,NA,NA,NA,""
"image-keyboard-response",510,381274,"0.0-4.166-0.166","v7k6wh8rn6m4lfu",612,"134.csv","","272.2999999523163","resources/trios/L1T2A3.jpg","38","restless",0.7,0.6,0.5,0.293282074437638,"true"
"image-keyboard-response",511,381677,"0.0-4.166-1.166","v7k6wh8rn6m4lfu",612,"134.csv","","null","resources/maskTrios/BT2B.jpg","null","",NA,NA,NA,NA,""
"image-keyboard-response",512,382880,"0.0-4.166-2.166","v7k6wh8rn6m4lfu",612,"134.csv","","null","resources/images/coin2.png","null","",NA,NA,NA,NA,""
"image-keyboard-response",513,383172,"0.0-4.167-0.167","v7k6wh8rn6m4lfu",612,"134.csv","","290","resources/trios/L1T2A3.jpg","38","restless",0.8,0.6,0.5,0.596218907652017,"true"
"image-keyboard-response",514,383576,"0.0-4.167-1.167","v7k6wh8rn6m4lfu",612,"134.csv","","null","resources/maskTrios/BT2B.jpg","null","",NA,NA,NA,NA,""
"image-keyboard-response",515,384779,"0.0-4.167-2.167","v7k6wh8rn6m4lfu",612,"134.csv","","null","resources/images/coin2.png","null","",NA,NA,NA,NA,""
"image-keyboard-response",516,384966,"0.0-4.168-0.168","v7k6wh8rn6m4lfu",612,"134.csv","","184.79999995231628","resources/trios/L1T2A3.jpg","38","restless",0.8,0.7,0.5,0.362228203886383,"true"
"image-keyboard-response",517,385369,"0.0-4.168-1.168","v7k6wh8rn6m4lfu",612,"134.csv","","null","resources/maskTrios/BT2B.jpg","null","",NA,NA,NA,NA,""
"image-keyboard-response",518,386573,"0.0-4.168-2.168","v7k6wh8rn6m4lfu",612,"134.csv","","null","resources/images/coin2.png","null","",NA,NA,NA,NA,""
"image-keyboard-response",519,386987,"0.0-4.169-0.169","v7k6wh8rn6m4lfu",612,"134.csv","","412.2999999523163","resources/trios/L1T2A3.jpg","39","restless",0.8,0.7,0.5,0.0391146728383982,"true"
"image-keyboard-response",520,387390,"0.0-4.169-1.169","v7k6wh8rn6m4lfu",612,"134.csv","","null","resources/maskTrios/BBA3.jpg","null","",NA,NA,NA,NA,""
"image-keyboard-response",521,388594,"0.0-4.169-2.169","v7k6wh8rn6m4lfu",612,"134.csv","","null","resources/images/coin2.png","null","",NA,NA,NA,NA,""
"image-keyboard-response",522,388875,"0.0-4.170-0.170","v7k6wh8rn6m4lfu",612,"134.csv","","278.40000009536743","resources/trios/L1T2A3.jpg","39","restless",0.7,0.7,0.5,0.74031357016554,"false"
"image-keyboard-response",523,389278,"0.0-4.170-1.170","v7k6wh8rn6m4lfu",612,"134.csv","","null","resources/maskTrios/BBA3.jpg","null","",NA,NA,NA,NA,""
"image-keyboard-response",524,390481,"0.0-4.170-2.170","v7k6wh8rn6m4lfu",612,"134.csv","","null","resources/images/fishbone.png","null","",NA,NA,NA,NA,""
"image-keyboard-response",525,390705,"0.0-4.171-0.171","v7k6wh8rn6m4lfu",612,"134.csv","","222.79999995231628","resources/trios/L1T2A3.jpg","37","restless",0.7,0.7,0.5,0.806983441431411,"false"
"image-keyboard-response",526,391109,"0.0-4.171-1.171","v7k6wh8rn6m4lfu",612,"134.csv","","null","resources/maskTrios/L1BB.jpg","null","",NA,NA,NA,NA,""
"image-keyboard-response",527,392312,"0.0-4.171-2.171","v7k6wh8rn6m4lfu",612,"134.csv","","null","resources/images/fishbone.png","null","",NA,NA,NA,NA,""
"image-keyboard-response",528,392528,"0.0-4.172-0.172","v7k6wh8rn6m4lfu",612,"134.csv","","213.70000004768372","resources/trios/L1T2A3.jpg","38","restless",0.7,0.7,0.5,0.200638634211289,"true"
"image-keyboard-response",529,392931,"0.0-4.172-1.172","v7k6wh8rn6m4lfu",612,"134.csv","","null","resources/maskTrios/BT2B.jpg","null","",NA,NA,NA,NA,""
"image-keyboard-response",530,394134,"0.0-4.172-2.172","v7k6wh8rn6m4lfu",612,"134.csv","","null","resources/images/coin2.png","null","",NA,NA,NA,NA,""
"image-keyboard-response",531,394180,"0.0-4.173-0.173","v7k6wh8rn6m4lfu",612,"134.csv","","43.299999952316284","resources/trios/L1T2A3.jpg","38","restless",0.7,0.6,0.5,0.207491233432281,"true"
"image-keyboard-response",532,394583,"0.0-4.173-1.173","v7k6wh8rn6m4lfu",612,"134.csv","","null","resources/maskTrios/BT2B.jpg","null","",NA,NA,NA,NA,""
"image-keyboard-response",533,395786,"0.0-4.173-2.173","v7k6wh8rn6m4lfu",612,"134.csv","","null","resources/images/coin2.png","null","",NA,NA,NA,NA,""
"image-keyboard-response",534,396425,"0.0-4.174-0.174","v7k6wh8rn6m4lfu",612,"134.csv","","636.7000000476837","resources/trios/L1T2A3.jpg","38","restless",0.6,0.6,0.5,0.922584411374525,"false"
"image-keyboard-response",535,396829,"0.0-4.174-1.174","v7k6wh8rn6m4lfu",612,"134.csv","","null","resources/maskTrios/BT2B.jpg","null","",NA,NA,NA,NA,""
"image-keyboard-response",536,398031,"0.0-4.174-2.174","v7k6wh8rn6m4lfu",612,"134.csv","","null","resources/images/fishbone.png","null","",NA,NA,NA,NA,""
"image-keyboard-response",537,398156,"0.0-4.175-0.175","v7k6wh8rn6m4lfu",612,"134.csv","","122.70000004768372","resources/trios/L1T2A3.jpg","37","restless",0.6,0.6,0.5,0.260545387744142,"true"
"image-keyboard-response",538,398560,"0.0-4.175-1.175","v7k6wh8rn6m4lfu",612,"134.csv","","null","resources/maskTrios/L1BB.jpg","null","",NA,NA,NA,NA,""
"image-keyboard-response",539,399763,"0.0-4.175-2.175","v7k6wh8rn6m4lfu",612,"134.csv","","null","resources/images/coin2.png","null","",NA,NA,NA,NA,""
"image-keyboard-response",540,400044,"0.0-4.176-0.176","v7k6wh8rn6m4lfu",612,"134.csv","","278.40000009536743","resources/trios/L1T2A3.jpg","37","restless",0.6,0.6,0.5,0.571782039657132,"true"
"image-keyboard-response",541,400446,"0.0-4.176-1.176","v7k6wh8rn6m4lfu",612,"134.csv","","null","resources/maskTrios/L1BB.jpg","null","",NA,NA,NA,NA,""
"image-keyboard-response",542,401649,"0.0-4.176-2.176","v7k6wh8rn6m4lfu",612,"134.csv","","null","resources/images/coin2.png","null","",NA,NA,NA,NA,""
"image-keyboard-response",543,402505,"0.0-4.177-0.177","v7k6wh8rn6m4lfu",612,"134.csv","","854","resources/trios/L1T2A3.jpg","39","restless",0.6,0.6,0.5,0.279299698145889,"true"
"image-keyboard-response",544,402908,"0.0-4.177-1.177","v7k6wh8rn6m4lfu",612,"134.csv","","null","resources/maskTrios/BBA3.jpg","null","",NA,NA,NA,NA,""
"image-keyboard-response",545,404112,"0.0-4.177-2.177","v7k6wh8rn6m4lfu",612,"134.csv","","null","resources/images/coin2.png","null","",NA,NA,NA,NA,""
"image-keyboard-response",546,404537,"0.0-4.178-0.178","v7k6wh8rn6m4lfu",612,"134.csv","","423.2000000476837","resources/trios/L1T2A3.jpg","39","restless",0.6,0.6,0.5,0.674581244062081,"false"
"image-keyboard-response",547,404940,"0.0-4.178-1.178","v7k6wh8rn6m4lfu",612,"134.csv","","null","resources/maskTrios/BBA3.jpg","null","",NA,NA,NA,NA,""
"image-keyboard-response",548,406144,"0.0-4.178-2.178","v7k6wh8rn6m4lfu",612,"134.csv","","null","resources/images/fishbone.png","null","",NA,NA,NA,NA,""
"image-keyboard-response",549,406304,"0.0-4.179-0.179","v7k6wh8rn6m4lfu",612,"134.csv","","158.70000004768372","resources/trios/L1T2A3.jpg","37","restless",0.6,0.6,0.5,0.375963948458455,"true"
"image-keyboard-response",550,406707,"0.0-4.179-1.179","v7k6wh8rn6m4lfu",612,"134.csv","","null","resources/maskTrios/L1BB.jpg","null","",NA,NA,NA,NA,""
"image-keyboard-response",551,407911,"0.0-4.179-2.179","v7k6wh8rn6m4lfu",612,"134.csv","","null","resources/images/coin2.png","null","",NA,NA,NA,NA,""
"image-keyboard-response",552,408061,"0.0-4.180-0.180","v7k6wh8rn6m4lfu",612,"134.csv","","148.20000004768372","resources/trios/L1T2A3.jpg","37","restless",0.6,0.6,0.5,0.174203485224929,"true"
"image-keyboard-response",553,408464,"0.0-4.180-1.180","v7k6wh8rn6m4lfu",612,"134.csv","","null","resources/maskTrios/L1BB.jpg","null","",NA,NA,NA,NA,""
"image-keyboard-response",554,409667,"0.0-4.180-2.180","v7k6wh8rn6m4lfu",612,"134.csv","","null","resources/images/coin2.png","null","",NA,NA,NA,NA,""
"image-keyboard-response",555,409918,"0.0-4.181-0.181","v7k6wh8rn6m4lfu",612,"134.csv","","248","resources/trios/L1T2A3.jpg","38","restless",0.6,0.6,0.5,0.794162862907039,"false"
"image-keyboard-response",556,410321,"0.0-4.181-1.181","v7k6wh8rn6m4lfu",612,"134.csv","","null","resources/maskTrios/BT2B.jpg","null","",NA,NA,NA,NA,""
"image-keyboard-response",557,411524,"0.0-4.181-2.181","v7k6wh8rn6m4lfu",612,"134.csv","","null","resources/images/fishbone.png","null","",NA,NA,NA,NA,""
"image-keyboard-response",558,411601,"0.0-4.182-0.182","v7k6wh8rn6m4lfu",612,"134.csv","","74.39999985694885","resources/trios/L1T2A3.jpg","37","restless",0.6,0.6,0.5,0.954842989099692,"false"
"image-keyboard-response",559,412004,"0.0-4.182-1.182","v7k6wh8rn6m4lfu",612,"134.csv","","null","resources/maskTrios/L1BB.jpg","null","",NA,NA,NA,NA,""
"image-keyboard-response",560,413207,"0.0-4.182-2.182","v7k6wh8rn6m4lfu",612,"134.csv","","null","resources/images/fishbone.png","null","",NA,NA,NA,NA,""
"image-keyboard-response",561,413590,"0.0-4.183-0.183","v7k6wh8rn6m4lfu",612,"134.csv","","381.90000009536743","resources/trios/L1T2A3.jpg","39","restless",0.5,0.6,0.5,0.240676455350089,"true"
"image-keyboard-response",562,413993,"0.0-4.183-1.183","v7k6wh8rn6m4lfu",612,"134.csv","","null","resources/maskTrios/BBA3.jpg","null","",NA,NA,NA,NA,""
"image-keyboard-response",563,415196,"0.0-4.183-2.183","v7k6wh8rn6m4lfu",612,"134.csv","","null","resources/images/coin2.png","null","",NA,NA,NA,NA,""
"image-keyboard-response",564,415412,"0.0-4.184-0.184","v7k6wh8rn6m4lfu",612,"134.csv","","213.5","resources/trios/L1T2A3.jpg","39","restless",0.5,0.6,0.5,0.734262926282986,"false"
"image-keyboard-response",565,415816,"0.0-4.184-1.184","v7k6wh8rn6m4lfu",612,"134.csv","","null","resources/maskTrios/BBA3.jpg","null","",NA,NA,NA,NA,""
"image-keyboard-response",566,417019,"0.0-4.184-2.184","v7k6wh8rn6m4lfu",612,"134.csv","","null","resources/images/fishbone.png","null","",NA,NA,NA,NA,""
"image-keyboard-response",567,417029,"0.0-4.185-0.185","v7k6wh8rn6m4lfu",612,"134.csv","","7.799999952316284","resources/trios/L1T2A3.jpg","37","restless",0.5,0.6,0.5,0.843549696707005,"false"
"image-keyboard-response",568,417430,"0.0-4.185-1.185","v7k6wh8rn6m4lfu",612,"134.csv","","null","resources/maskTrios/L1BB.jpg","null","",NA,NA,NA,NA,""
"image-keyboard-response",569,418634,"0.0-4.185-2.185","v7k6wh8rn6m4lfu",612,"134.csv","","null","resources/images/fishbone.png","null","",NA,NA,NA,NA,""
"image-keyboard-response",570,419055,"0.0-4.186-0.186","v7k6wh8rn6m4lfu",612,"134.csv","","419.2999999523163","resources/trios/L1T2A3.jpg","38","restless",0.5,0.6,0.5,0.286572323243831,"true"
"image-keyboard-response",571,419458,"0.0-4.186-1.186","v7k6wh8rn6m4lfu",612,"134.csv","","null","resources/maskTrios/BT2B.jpg","null","",NA,NA,NA,NA,""
"image-keyboard-response",572,420662,"0.0-4.186-2.186","v7k6wh8rn6m4lfu",612,"134.csv","","null","resources/images/coin2.png","null","",NA,NA,NA,NA,""
"image-keyboard-response",573,420761,"0.0-4.187-0.187","v7k6wh8rn6m4lfu",612,"134.csv","","96.60000014305115","resources/trios/L1T2A3.jpg","38","restless",0.5,0.6,0.5,0.0130433717899725,"true"
"image-keyboard-response",574,421163,"0.0-4.187-1.187","v7k6wh8rn6m4lfu",612,"134.csv","","null","resources/maskTrios/BT2B.jpg","null","",NA,NA,NA,NA,""
"image-keyboard-response",575,422367,"0.0-4.187-2.187","v7k6wh8rn6m4lfu",612,"134.csv","","null","resources/images/coin2.png","null","",NA,NA,NA,NA,""
"image-keyboard-response",576,422878,"0.0-4.188-0.188","v7k6wh8rn6m4lfu",612,"134.csv","","508.89999985694885","resources/trios/L1T2A3.jpg","37","restless",0.5,0.6,0.5,0.165219003763749,"true"
"image-keyboard-response",577,423281,"0.0-4.188-1.188","v7k6wh8rn6m4lfu",612,"134.csv","","null","resources/maskTrios/L1BB.jpg","null","",NA,NA,NA,NA,""
"image-keyboard-response",578,424484,"0.0-4.188-2.188","v7k6wh8rn6m4lfu",612,"134.csv","","null","resources/images/coin2.png","null","",NA,NA,NA,NA,""
"image-keyboard-response",579,424906,"0.0-4.189-0.189","v7k6wh8rn6m4lfu",612,"134.csv","","419.2999999523163","resources/trios/L1T2A3.jpg","37","restless",0.5,0.6,0.5,0.0653624570327049,"true"
"image-keyboard-response",580,425309,"0.0-4.189-1.189","v7k6wh8rn6m4lfu",612,"134.csv","","null","resources/maskTrios/L1BB.jpg","null","",NA,NA,NA,NA,""
"image-keyboard-response",581,426513,"0.0-4.189-2.189","v7k6wh8rn6m4lfu",612,"134.csv","","null","resources/images/coin2.png","null","",NA,NA,NA,NA,""
"image-keyboard-response",582,426802,"0.0-4.190-0.190","v7k6wh8rn6m4lfu",612,"134.csv","","286.90000009536743","resources/trios/L1T2A3.jpg","38","restless",0.5,0.6,0.5,0.364174786286378,"true"
"image-keyboard-response",583,427205,"0.0-4.190-1.190","v7k6wh8rn6m4lfu",612,"134.csv","","null","resources/maskTrios/BT2B.jpg","null","",NA,NA,NA,NA,""
"image-keyboard-response",584,428409,"0.0-4.190-2.190","v7k6wh8rn6m4lfu",612,"134.csv","","null","resources/images/coin2.png","null","",NA,NA,NA,NA,""
"image-keyboard-response",585,428981,"0.0-4.191-0.191","v7k6wh8rn6m4lfu",612,"134.csv","","571","resources/trios/L1T2A3.jpg","38","restless",0.5,0.6,0.5,0.874482519579283,"false"
"image-keyboard-response",586,429384,"0.0-4.191-1.191","v7k6wh8rn6m4lfu",612,"134.csv","","null","resources/maskTrios/BT2B.jpg","null","",NA,NA,NA,NA,""
"image-keyboard-response",587,430587,"0.0-4.191-2.191","v7k6wh8rn6m4lfu",612,"134.csv","","null","resources/images/fishbone.png","null","",NA,NA,NA,NA,""
"image-keyboard-response",588,430856,"0.0-4.192-0.192","v7k6wh8rn6m4lfu",612,"134.csv","","266.90000009536743","resources/trios/L1T2A3.jpg","39","restless",0.5,0.6,0.5,0.082374746861827,"true"
"image-keyboard-response",589,431259,"0.0-4.192-1.192","v7k6wh8rn6m4lfu",612,"134.csv","","null","resources/maskTrios/BBA3.jpg","null","",NA,NA,NA,NA,""
"image-keyboard-response",590,432462,"0.0-4.192-2.192","v7k6wh8rn6m4lfu",612,"134.csv","","null","resources/images/coin2.png","null","",NA,NA,NA,NA,""
"image-keyboard-response",591,432857,"0.0-4.193-0.193","v7k6wh8rn6m4lfu",612,"134.csv","","393.10000014305115","resources/trios/L1T2A3.jpg","39","restless",0.5,0.6,0.5,0.897326416629652,"false"
"image-keyboard-response",592,433261,"0.0-4.193-1.193","v7k6wh8rn6m4lfu",612,"134.csv","","null","resources/maskTrios/BBA3.jpg","null","",NA,NA,NA,NA,""
"image-keyboard-response",593,434464,"0.0-4.193-2.193","v7k6wh8rn6m4lfu",612,"134.csv","","null","resources/images/fishbone.png","null","",NA,NA,NA,NA,""
"image-keyboard-response",594,434887,"0.0-4.194-0.194","v7k6wh8rn6m4lfu",612,"134.csv","","421.09999990463257","resources/trios/L1T2A3.jpg","37","restless",0.5,0.6,0.5,0.175886019408739,"true"
"image-keyboard-response",595,435291,"0.0-4.194-1.194","v7k6wh8rn6m4lfu",612,"134.csv","","null","resources/maskTrios/L1BB.jpg","null","",NA,NA,NA,NA,""
"image-keyboard-response",596,436494,"0.0-4.194-2.194","v7k6wh8rn6m4lfu",612,"134.csv","","null","resources/images/coin2.png","null","",NA,NA,NA,NA,""
"image-keyboard-response",597,437058,"0.0-4.195-0.195","v7k6wh8rn6m4lfu",612,"134.csv","","561.1000001430511","resources/trios/L1T2A3.jpg","37","restless",0.5,0.6,0.5,0.363171662595349,"true"
"image-keyboard-response",598,437461,"0.0-4.195-1.195","v7k6wh8rn6m4lfu",612,"134.csv","","null","resources/maskTrios/L1BB.jpg","null","",NA,NA,NA,NA,""
"image-keyboard-response",599,438664,"0.0-4.195-2.195","v7k6wh8rn6m4lfu",612,"134.csv","","null","resources/images/coin2.png","null","",NA,NA,NA,NA,""
"image-keyboard-response",600,440036,"0.0-4.196-0.196","v7k6wh8rn6m4lfu",612,"134.csv","","1371","resources/trios/L1T2A3.jpg","39","restless",0.4,0.6,0.5,0.418051380007817,"true"
"image-keyboard-response",601,440440,"0.0-4.196-1.196","v7k6wh8rn6m4lfu",612,"134.csv","","null","resources/maskTrios/BBA3.jpg","null","",NA,NA,NA,NA,""
"image-keyboard-response",602,441643,"0.0-4.196-2.196","v7k6wh8rn6m4lfu",612,"134.csv","","null","resources/images/coin2.png","null","",NA,NA,NA,NA,""
"image-keyboard-response",603,442243,"0.0-4.197-0.197","v7k6wh8rn6m4lfu",612,"134.csv","","598","resources/trios/L1T2A3.jpg","39","restless",0.3,0.6,0.5,0.733596784863033,"false"
"image-keyboard-response",604,442646,"0.0-4.197-1.197","v7k6wh8rn6m4lfu",612,"134.csv","","null","resources/maskTrios/BBA3.jpg","null","",NA,NA,NA,NA,""
"image-keyboard-response",605,443849,"0.0-4.197-2.197","v7k6wh8rn6m4lfu",612,"134.csv","","null","resources/images/fishbone.png","null","",NA,NA,NA,NA,""
"image-keyboard-response",606,444125,"0.0-4.198-0.198","v7k6wh8rn6m4lfu",612,"134.csv","","273.59999990463257","resources/trios/L1T2A3.jpg","37","restless",0.3,0.6,0.5,0.867565184569178,"false"
"image-keyboard-response",607,444528,"0.0-4.198-1.198","v7k6wh8rn6m4lfu",612,"134.csv","","null","resources/maskTrios/L1BB.jpg","null","",NA,NA,NA,NA,""
"image-keyboard-response",608,445731,"0.0-4.198-2.198","v7k6wh8rn6m4lfu",612,"134.csv","","null","resources/images/fishbone.png","null","",NA,NA,NA,NA,""
