"trial_type","trial_index","time_elapsed","internal_node_id","subject","participantCode","walkNumber","success","rt","stimulus","key_press","test_part","leftProb","midProb","rightProb","generatedNum","correct"
"pavlovia",0,1235,"0.0-0.0","8jxfghq01ea6w1l",89,"76.csv","","","","","",NA,NA,NA,NA,""
"fullscreen",1,7443,"0.0-1.0","8jxfghq01ea6w1l",89,"76.csv","true","","","","",NA,NA,NA,NA,""
"survey-html-form",2,25161,"0.0-2.0","8jxfghq01ea6w1l",89,"76.csv","","17716.5","","","",NA,NA,NA,NA,""
"image-keyboard-response",3,33060,"0.0-3.0-0.0","8jxfghq01ea6w1l",89,"76.csv","","7897.300000071526","resources/images/parrot_nobg.png","13","",NA,NA,NA,NA,""
"image-keyboard-response",4,36066,"0.0-3.0-1.0","8jxfghq01ea6w1l",89,"76.csv","","null","resources/image_sets/111.png","null","",NA,NA,NA,NA,""
"image-keyboard-response",5,48424,"0.0-3.0-2.0","8jxfghq01ea6w1l",89,"76.csv","","12357.200000047684","resources/image_sets/left_highlight.png","37","",NA,NA,NA,NA,""
"image-keyboard-response",6,49863,"0.0-3.0-3.0","8jxfghq01ea6w1l",89,"76.csv","","1437.6000000238419","resources/image_sets/mid_highlight.png","38","",NA,NA,NA,NA,""
"image-keyboard-response",7,51311,"0.0-3.0-4.0","8jxfghq01ea6w1l",89,"76.csv","","1447.1000000238419","resources/image_sets/right_highlight.png","39","",NA,NA,NA,NA,""
"image-keyboard-response",8,52511,"0.0-3.0-5.0","8jxfghq01ea6w1l",89,"76.csv","","1199.6000000238419","resources/image_sets/111.png","13","",NA,NA,NA,NA,""
"image-keyboard-response",9,53710,"0.0-3.0-6.0","8jxfghq01ea6w1l",89,"76.csv","","1198.6000000238419","resources/images/coin2.png","13","",NA,NA,NA,NA,""
"image-keyboard-response",10,54916,"0.0-3.0-7.0","8jxfghq01ea6w1l",89,"76.csv","","1204.8999999761581","resources/images/fishbone.png","13","",NA,NA,NA,NA,""
"html-keyboard-response",11,55726,"0.0-3.0-8.0","8jxfghq01ea6w1l",89,"76.csv","","809.6999999284744","<p>You can track your coin total on the top right of your screen. </p><p>At the end of your journey you will be directed to a survey, so please click on the link before exiting the task</p><p>Press Enter to begin</p>","13","",NA,NA,NA,NA,""
"image-keyboard-response",12,56712,"0.0-4.0-0.0","8jxfghq01ea6w1l",89,"76.csv","","985.5","resources/trios/L1T2A3.jpg","39","restless",0.7,0.9,0.3,0.759691889216851,"false"
"image-keyboard-response",13,57128,"0.0-4.0-1.0","8jxfghq01ea6w1l",89,"76.csv","","null","resources/maskTrios/BBA3.jpg","null","",NA,NA,NA,NA,""
"image-keyboard-response",14,58343,"0.0-4.0-2.0","8jxfghq01ea6w1l",89,"76.csv","","null","resources/images/fishbone.png","null","",NA,NA,NA,NA,""
"image-keyboard-response",15,60159,"0.0-4.1-0.1","8jxfghq01ea6w1l",89,"76.csv","","1814.7999999523163","resources/trios/L1T2A3.jpg","38","restless",0.7,0.9,0.3,0.207936652271981,"true"
"image-keyboard-response",16,60573,"0.0-4.1-1.1","8jxfghq01ea6w1l",89,"76.csv","","null","resources/maskTrios/BT2B.jpg","null","",NA,NA,NA,NA,""
"image-keyboard-response",17,61790,"0.0-4.1-2.1","8jxfghq01ea6w1l",89,"76.csv","","null","resources/images/coin2.png","null","",NA,NA,NA,NA,""
"image-keyboard-response",18,66464,"0.0-4.2-0.2","8jxfghq01ea6w1l",89,"76.csv","","4673.5","resources/trios/L1T2A3.jpg","39","restless",0.7,0.9,0.3,0.858516721578219,"false"
"image-keyboard-response",19,66877,"0.0-4.2-1.2","8jxfghq01ea6w1l",89,"76.csv","","null","resources/maskTrios/BBA3.jpg","null","",NA,NA,NA,NA,""
"image-keyboard-response",20,68083,"0.0-4.2-2.2","8jxfghq01ea6w1l",89,"76.csv","","null","resources/images/fishbone.png","null","",NA,NA,NA,NA,""
"image-keyboard-response",21,70337,"0.0-4.3-0.3","8jxfghq01ea6w1l",89,"76.csv","","2253.100000023842","resources/trios/L1T2A3.jpg","37","restless",0.7,0.9,0.3,0.927970213015285,"false"
"image-keyboard-response",22,70740,"0.0-4.3-1.3","8jxfghq01ea6w1l",89,"76.csv","","null","resources/maskTrios/L1BB.jpg","null","",NA,NA,NA,NA,""
"image-keyboard-response",23,71956,"0.0-4.3-2.3","8jxfghq01ea6w1l",89,"76.csv","","null","resources/images/fishbone.png","null","",NA,NA,NA,NA,""
"image-keyboard-response",24,72647,"0.0-4.4-0.4","8jxfghq01ea6w1l",89,"76.csv","","689.9000000953674","resources/trios/L1T2A3.jpg","38","restless",0.7,0.9,0.3,0.935671236318495,"false"
"image-keyboard-response",25,73054,"0.0-4.4-1.4","8jxfghq01ea6w1l",89,"76.csv","","null","resources/maskTrios/BT2B.jpg","null","",NA,NA,NA,NA,""
"image-keyboard-response",26,74264,"0.0-4.4-2.4","8jxfghq01ea6w1l",89,"76.csv","","null","resources/images/fishbone.png","null","",NA,NA,NA,NA,""
"image-keyboard-response",27,75185,"0.0-4.5-0.5","8jxfghq01ea6w1l",89,"76.csv","","919.3999999761581","resources/trios/L1T2A3.jpg","39","restless",0.7,0.8,0.3,0.913297144108315,"false"
"image-keyboard-response",28,75587,"0.0-4.5-1.5","8jxfghq01ea6w1l",89,"76.csv","","null","resources/maskTrios/BBA3.jpg","null","",NA,NA,NA,NA,""
"image-keyboard-response",29,76800,"0.0-4.5-2.5","8jxfghq01ea6w1l",89,"76.csv","","null","resources/images/fishbone.png","null","",NA,NA,NA,NA,""
"image-keyboard-response",30,78078,"0.0-4.6-0.6","8jxfghq01ea6w1l",89,"76.csv","","1277.1999999284744","resources/trios/L1T2A3.jpg","37","restless",0.7,0.8,0.3,0.695487229898053,"true"
"image-keyboard-response",31,78490,"0.0-4.6-1.6","8jxfghq01ea6w1l",89,"76.csv","","null","resources/maskTrios/L1BB.jpg","null","",NA,NA,NA,NA,""
"image-keyboard-response",32,79700,"0.0-4.6-2.6","8jxfghq01ea6w1l",89,"76.csv","","null","resources/images/coin2.png","null","",NA,NA,NA,NA,""
"image-keyboard-response",33,81251,"0.0-4.7-0.7","8jxfghq01ea6w1l",89,"76.csv","","1550","resources/trios/L1T2A3.jpg","38","restless",0.7,0.8,0.3,0.54722371942139,"true"
"image-keyboard-response",34,81664,"0.0-4.7-1.7","8jxfghq01ea6w1l",89,"76.csv","","null","resources/maskTrios/BT2B.jpg","null","",NA,NA,NA,NA,""
"image-keyboard-response",35,82881,"0.0-4.7-2.7","8jxfghq01ea6w1l",89,"76.csv","","null","resources/images/coin2.png","null","",NA,NA,NA,NA,""
"image-keyboard-response",36,84012,"0.0-4.8-0.8","8jxfghq01ea6w1l",89,"76.csv","","1130.7999999523163","resources/trios/L1T2A3.jpg","39","restless",0.7,0.7,0.3,0.468733304930372,"false"
"image-keyboard-response",37,84415,"0.0-4.8-1.8","8jxfghq01ea6w1l",89,"76.csv","","null","resources/maskTrios/BBA3.jpg","null","",NA,NA,NA,NA,""
"image-keyboard-response",38,85619,"0.0-4.8-2.8","8jxfghq01ea6w1l",89,"76.csv","","null","resources/images/fishbone.png","null","",NA,NA,NA,NA,""
"image-keyboard-response",39,86055,"0.0-4.9-0.9","8jxfghq01ea6w1l",89,"76.csv","","434.3000000715256","resources/trios/L1T2A3.jpg","37","restless",0.7,0.7,0.3,0.692819369072915,"true"
"image-keyboard-response",40,86464,"0.0-4.9-1.9","8jxfghq01ea6w1l",89,"76.csv","","null","resources/maskTrios/L1BB.jpg","null","",NA,NA,NA,NA,""
"image-keyboard-response",41,87668,"0.0-4.9-2.9","8jxfghq01ea6w1l",89,"76.csv","","null","resources/images/coin2.png","null","",NA,NA,NA,NA,""
"image-keyboard-response",42,88424,"0.0-4.10-0.10","8jxfghq01ea6w1l",89,"76.csv","","754.6000000238419","resources/trios/L1T2A3.jpg","37","restless",0.7,0.7,0.3,0.528592708329312,"true"
"image-keyboard-response",43,88829,"0.0-4.10-1.10","8jxfghq01ea6w1l",89,"76.csv","","null","resources/maskTrios/L1BB.jpg","null","",NA,NA,NA,NA,""
"image-keyboard-response",44,90038,"0.0-4.10-2.10","8jxfghq01ea6w1l",89,"76.csv","","null","resources/images/coin2.png","null","",NA,NA,NA,NA,""
"image-keyboard-response",45,90360,"0.0-4.11-0.11","8jxfghq01ea6w1l",89,"76.csv","","320.60000002384186","resources/trios/L1T2A3.jpg","38","restless",0.7,0.6,0.3,0.804263739215467,"false"
"image-keyboard-response",46,90764,"0.0-4.11-1.11","8jxfghq01ea6w1l",89,"76.csv","","null","resources/maskTrios/BT2B.jpg","null","",NA,NA,NA,NA,""
"image-keyboard-response",47,91966,"0.0-4.11-2.11","8jxfghq01ea6w1l",89,"76.csv","","null","resources/images/fishbone.png","null","",NA,NA,NA,NA,""
"image-keyboard-response",48,92221,"0.0-4.12-0.12","8jxfghq01ea6w1l",89,"76.csv","","254","resources/trios/L1T2A3.jpg","38","restless",0.7,0.6,0.3,0.641821957278372,"false"
"image-keyboard-response",49,92627,"0.0-4.12-1.12","8jxfghq01ea6w1l",89,"76.csv","","null","resources/maskTrios/BT2B.jpg","null","",NA,NA,NA,NA,""
"image-keyboard-response",50,93828,"0.0-4.12-2.12","8jxfghq01ea6w1l",89,"76.csv","","null","resources/images/fishbone.png","null","",NA,NA,NA,NA,""
"image-keyboard-response",51,94033,"0.0-4.13-0.13","8jxfghq01ea6w1l",89,"76.csv","","204.60000002384186","resources/trios/L1T2A3.jpg","38","restless",0.8,0.7,0.3,0.666147156188432,"true"
"image-keyboard-response",52,94444,"0.0-4.13-1.13","8jxfghq01ea6w1l",89,"76.csv","","null","resources/maskTrios/BT2B.jpg","null","",NA,NA,NA,NA,""
"image-keyboard-response",53,95660,"0.0-4.13-2.13","8jxfghq01ea6w1l",89,"76.csv","","null","resources/images/coin2.png","null","",NA,NA,NA,NA,""
"image-keyboard-response",54,95913,"0.0-4.14-0.14","8jxfghq01ea6w1l",89,"76.csv","","252","resources/trios/L1T2A3.jpg","39","restless",0.8,0.7,0.3,0.993528430406655,"false"
"image-keyboard-response",55,96317,"0.0-4.14-1.14","8jxfghq01ea6w1l",89,"76.csv","","null","resources/maskTrios/BBA3.jpg","null","",NA,NA,NA,NA,""
"image-keyboard-response",56,97533,"0.0-4.14-2.14","8jxfghq01ea6w1l",89,"76.csv","","null","resources/images/fishbone.png","null","",NA,NA,NA,NA,""
"image-keyboard-response",57,97688,"0.0-4.15-0.15","8jxfghq01ea6w1l",89,"76.csv","","153.70000004768372","resources/trios/L1T2A3.jpg","39","restless",0.8,0.7,0.3,0.334038192421481,"false"
"image-keyboard-response",58,98101,"0.0-4.15-1.15","8jxfghq01ea6w1l",89,"76.csv","","null","resources/maskTrios/BBA3.jpg","null","",NA,NA,NA,NA,""
"image-keyboard-response",59,99317,"0.0-4.15-2.15","8jxfghq01ea6w1l",89,"76.csv","","null","resources/images/fishbone.png","null","",NA,NA,NA,NA,""
"image-keyboard-response",60,99551,"0.0-4.16-0.16","8jxfghq01ea6w1l",89,"76.csv","","233.39999997615814","resources/trios/L1T2A3.jpg","39","restless",0.8,0.7,0.3,0.954503149550037,"false"
"image-keyboard-response",61,99959,"0.0-4.16-1.16","8jxfghq01ea6w1l",89,"76.csv","","null","resources/maskTrios/BBA3.jpg","null","",NA,NA,NA,NA,""
"image-keyboard-response",62,101164,"0.0-4.16-2.16","8jxfghq01ea6w1l",89,"76.csv","","null","resources/images/fishbone.png","null","",NA,NA,NA,NA,""
"image-keyboard-response",63,101433,"0.0-4.17-0.17","8jxfghq01ea6w1l",89,"76.csv","","267.89999997615814","resources/trios/L1T2A3.jpg","39","restless",0.8,0.7,0.3,0.322812944973811,"false"
"image-keyboard-response",64,101843,"0.0-4.17-1.17","8jxfghq01ea6w1l",89,"76.csv","","null","resources/maskTrios/BBA3.jpg","null","",NA,NA,NA,NA,""
"image-keyboard-response",65,103049,"0.0-4.17-2.17","8jxfghq01ea6w1l",89,"76.csv","","null","resources/images/fishbone.png","null","",NA,NA,NA,NA,""
"image-keyboard-response",66,103296,"0.0-4.18-0.18","8jxfghq01ea6w1l",89,"76.csv","","245.89999997615814","resources/trios/L1T2A3.jpg","39","restless",0.8,0.7,0.2,0.328792440483888,"false"
"image-keyboard-response",67,103707,"0.0-4.18-1.18","8jxfghq01ea6w1l",89,"76.csv","","null","resources/maskTrios/BBA3.jpg","null","",NA,NA,NA,NA,""
"image-keyboard-response",68,104909,"0.0-4.18-2.18","8jxfghq01ea6w1l",89,"76.csv","","null","resources/images/fishbone.png","null","",NA,NA,NA,NA,""
"image-keyboard-response",69,105145,"0.0-4.19-0.19","8jxfghq01ea6w1l",89,"76.csv","","234.5","resources/trios/L1T2A3.jpg","38","restless",0.8,0.7,0.2,0.623278186987317,"true"
"image-keyboard-response",70,105560,"0.0-4.19-1.19","8jxfghq01ea6w1l",89,"76.csv","","null","resources/maskTrios/BT2B.jpg","null","",NA,NA,NA,NA,""
"image-keyboard-response",71,106763,"0.0-4.19-2.19","8jxfghq01ea6w1l",89,"76.csv","","null","resources/images/coin2.png","null","",NA,NA,NA,NA,""
"image-keyboard-response",72,107036,"0.0-4.20-0.20","8jxfghq01ea6w1l",89,"76.csv","","272.60000002384186","resources/trios/L1T2A3.jpg","37","restless",0.7,0.7,0.2,0.875620880229581,"false"
"image-keyboard-response",73,107447,"0.0-4.20-1.20","8jxfghq01ea6w1l",89,"76.csv","","null","resources/maskTrios/L1BB.jpg","null","",NA,NA,NA,NA,""
"image-keyboard-response",74,108663,"0.0-4.20-2.20","8jxfghq01ea6w1l",89,"76.csv","","null","resources/images/fishbone.png","null","",NA,NA,NA,NA,""
"image-keyboard-response",75,108855,"0.0-4.21-0.21","8jxfghq01ea6w1l",89,"76.csv","","191.69999992847443","resources/trios/L1T2A3.jpg","39","restless",0.7,0.7,0.3,0.410636980146045,"false"
"image-keyboard-response",76,109271,"0.0-4.21-1.21","8jxfghq01ea6w1l",89,"76.csv","","null","resources/maskTrios/BBA3.jpg","null","",NA,NA,NA,NA,""
"image-keyboard-response",77,110473,"0.0-4.21-2.21","8jxfghq01ea6w1l",89,"76.csv","","null","resources/images/fishbone.png","null","",NA,NA,NA,NA,""
"image-keyboard-response",78,110773,"0.0-4.22-0.22","8jxfghq01ea6w1l",89,"76.csv","","298.60000002384186","resources/trios/L1T2A3.jpg","38","restless",0.7,0.7,0.3,0.0669278418458059,"true"
"image-keyboard-response",79,111181,"0.0-4.22-1.22","8jxfghq01ea6w1l",89,"76.csv","","null","resources/maskTrios/BT2B.jpg","null","",NA,NA,NA,NA,""
"image-keyboard-response",80,112393,"0.0-4.22-2.22","8jxfghq01ea6w1l",89,"76.csv","","null","resources/images/coin2.png","null","",NA,NA,NA,NA,""
"image-keyboard-response",81,112517,"0.0-4.23-0.23","8jxfghq01ea6w1l",89,"76.csv","","123","resources/trios/L1T2A3.jpg","38","restless",0.7,0.6,0.3,0.0992718615334662,"true"
"image-keyboard-response",82,112928,"0.0-4.23-1.23","8jxfghq01ea6w1l",89,"76.csv","","null","resources/maskTrios/BT2B.jpg","null","",NA,NA,NA,NA,""
"image-keyboard-response",83,114139,"0.0-4.23-2.23","8jxfghq01ea6w1l",89,"76.csv","","null","resources/images/coin2.png","null","",NA,NA,NA,NA,""
"image-keyboard-response",84,114219,"0.0-4.24-0.24","8jxfghq01ea6w1l",89,"76.csv","","79.39999997615814","resources/trios/L1T2A3.jpg","38","restless",0.7,0.6,0.3,0.831877110627103,"false"
"image-keyboard-response",85,114630,"0.0-4.24-1.24","8jxfghq01ea6w1l",89,"76.csv","","null","resources/maskTrios/BT2B.jpg","null","",NA,NA,NA,NA,""
"image-keyboard-response",86,115843,"0.0-4.24-2.24","8jxfghq01ea6w1l",89,"76.csv","","null","resources/images/fishbone.png","null","",NA,NA,NA,NA,""
"image-keyboard-response",87,115984,"0.0-4.25-0.25","8jxfghq01ea6w1l",89,"76.csv","","140.29999995231628","resources/trios/L1T2A3.jpg","37","restless",0.7,0.6,0.3,0.718649586743248,"false"
"image-keyboard-response",88,116387,"0.0-4.25-1.25","8jxfghq01ea6w1l",89,"76.csv","","null","resources/maskTrios/L1BB.jpg","null","",NA,NA,NA,NA,""
"image-keyboard-response",89,117588,"0.0-4.25-2.25","8jxfghq01ea6w1l",89,"76.csv","","null","resources/images/fishbone.png","null","",NA,NA,NA,NA,""
"image-keyboard-response",90,117771,"0.0-4.26-0.26","8jxfghq01ea6w1l",89,"76.csv","","181.90000009536743","resources/trios/L1T2A3.jpg","38","restless",0.7,0.6,0.3,0.742926272939299,"false"
"image-keyboard-response",91,118175,"0.0-4.26-1.26","8jxfghq01ea6w1l",89,"76.csv","","null","resources/maskTrios/BT2B.jpg","null","",NA,NA,NA,NA,""
"image-keyboard-response",92,119387,"0.0-4.26-2.26","8jxfghq01ea6w1l",89,"76.csv","","null","resources/images/fishbone.png","null","",NA,NA,NA,NA,""
"image-keyboard-response",93,119614,"0.0-4.27-0.27","8jxfghq01ea6w1l",89,"76.csv","","226.20000004768372","resources/trios/L1T2A3.jpg","39","restless",0.7,0.6,0.3,0.226708683924845,"true"
"image-keyboard-response",94,120019,"0.0-4.27-1.27","8jxfghq01ea6w1l",89,"76.csv","","null","resources/maskTrios/BBA3.jpg","null","",NA,NA,NA,NA,""
"image-keyboard-response",95,121234,"0.0-4.27-2.27","8jxfghq01ea6w1l",89,"76.csv","","null","resources/images/coin2.png","null","",NA,NA,NA,NA,""
"image-keyboard-response",96,121743,"0.0-4.28-0.28","8jxfghq01ea6w1l",89,"76.csv","","508.2000000476837","resources/trios/L1T2A3.jpg","39","restless",0.7,0.5,0.3,0.084457654924617,"true"
"image-keyboard-response",97,122151,"0.0-4.28-1.28","8jxfghq01ea6w1l",89,"76.csv","","null","resources/maskTrios/BBA3.jpg","null","",NA,NA,NA,NA,""
"image-keyboard-response",98,123367,"0.0-4.28-2.28","8jxfghq01ea6w1l",89,"76.csv","","null","resources/images/coin2.png","null","",NA,NA,NA,NA,""
"image-keyboard-response",99,123569,"0.0-4.29-0.29","8jxfghq01ea6w1l",89,"76.csv","","200.80000007152557","resources/trios/L1T2A3.jpg","37","restless",0.7,0.5,0.3,0.425414883266217,"true"
"image-keyboard-response",100,123972,"0.0-4.29-1.29","8jxfghq01ea6w1l",89,"76.csv","","null","resources/maskTrios/L1BB.jpg","null","",NA,NA,NA,NA,""
"image-keyboard-response",101,125182,"0.0-4.29-2.29","8jxfghq01ea6w1l",89,"76.csv","","null","resources/images/coin2.png","null","",NA,NA,NA,NA,""
"image-keyboard-response",102,125557,"0.0-4.30-0.30","8jxfghq01ea6w1l",89,"76.csv","","373.59999990463257","resources/trios/L1T2A3.jpg","38","restless",0.7,0.5,0.3,0.0835192560195577,"true"
"image-keyboard-response",103,125973,"0.0-4.30-1.30","8jxfghq01ea6w1l",89,"76.csv","","null","resources/maskTrios/BT2B.jpg","null","",NA,NA,NA,NA,""
"image-keyboard-response",104,127187,"0.0-4.30-2.30","8jxfghq01ea6w1l",89,"76.csv","","null","resources/images/coin2.png","null","",NA,NA,NA,NA,""
"image-keyboard-response",105,127387,"0.0-4.31-0.31","8jxfghq01ea6w1l",89,"76.csv","","199.20000004768372","resources/trios/L1T2A3.jpg","39","restless",0.7,0.5,0.3,0.873670542177685,"false"
"image-keyboard-response",106,127793,"0.0-4.31-1.31","8jxfghq01ea6w1l",89,"76.csv","","null","resources/maskTrios/BBA3.jpg","null","",NA,NA,NA,NA,""
"image-keyboard-response",107,129005,"0.0-4.31-2.31","8jxfghq01ea6w1l",89,"76.csv","","null","resources/images/fishbone.png","null","",NA,NA,NA,NA,""
"image-keyboard-response",108,129518,"0.0-4.32-0.32","8jxfghq01ea6w1l",89,"76.csv","","512","resources/trios/L1T2A3.jpg","39","restless",0.7,0.5,0.3,0.84317069166934,"false"
"image-keyboard-response",109,129934,"0.0-4.32-1.32","8jxfghq01ea6w1l",89,"76.csv","","null","resources/maskTrios/BBA3.jpg","null","",NA,NA,NA,NA,""
"image-keyboard-response",110,131150,"0.0-4.32-2.32","8jxfghq01ea6w1l",89,"76.csv","","null","resources/images/fishbone.png","null","",NA,NA,NA,NA,""
"image-keyboard-response",111,131353,"0.0-4.33-0.33","8jxfghq01ea6w1l",89,"76.csv","","203","resources/trios/L1T2A3.jpg","37","restless",0.7,0.5,0.3,0.010193242110667,"true"
"image-keyboard-response",112,131762,"0.0-4.33-1.33","8jxfghq01ea6w1l",89,"76.csv","","null","resources/maskTrios/L1BB.jpg","null","",NA,NA,NA,NA,""
"image-keyboard-response",113,132979,"0.0-4.33-2.33","8jxfghq01ea6w1l",89,"76.csv","","null","resources/images/coin2.png","null","",NA,NA,NA,NA,""
"image-keyboard-response",114,133446,"0.0-4.34-0.34","8jxfghq01ea6w1l",89,"76.csv","","466.60000002384186","resources/trios/L1T2A3.jpg","38","restless",0.7,0.5,0.3,0.890100395298278,"false"
"image-keyboard-response",115,133848,"0.0-4.34-1.34","8jxfghq01ea6w1l",89,"76.csv","","null","resources/maskTrios/BT2B.jpg","null","",NA,NA,NA,NA,""
"image-keyboard-response",116,135064,"0.0-4.34-2.34","8jxfghq01ea6w1l",89,"76.csv","","null","resources/images/fishbone.png","null","",NA,NA,NA,NA,""
"image-keyboard-response",117,135149,"0.0-4.35-0.35","8jxfghq01ea6w1l",89,"76.csv","","84.40000009536743","resources/trios/L1T2A3.jpg","38","restless",0.8,0.5,0.3,0.322031191479642,"true"
"image-keyboard-response",118,135563,"0.0-4.35-1.35","8jxfghq01ea6w1l",89,"76.csv","","null","resources/maskTrios/BT2B.jpg","null","",NA,NA,NA,NA,""
"image-keyboard-response",119,136778,"0.0-4.35-2.35","8jxfghq01ea6w1l",89,"76.csv","","null","resources/images/coin2.png","null","",NA,NA,NA,NA,""
"image-keyboard-response",120,136989,"0.0-4.36-0.36","8jxfghq01ea6w1l",89,"76.csv","","209.60000002384186","resources/trios/L1T2A3.jpg","37","restless",0.8,0.5,0.3,0.362313811022246,"true"
"image-keyboard-response",121,137395,"0.0-4.36-1.36","8jxfghq01ea6w1l",89,"76.csv","","null","resources/maskTrios/L1BB.jpg","null","",NA,NA,NA,NA,""
"image-keyboard-response",122,138611,"0.0-4.36-2.36","8jxfghq01ea6w1l",89,"76.csv","","null","resources/images/coin2.png","null","",NA,NA,NA,NA,""
"image-keyboard-response",123,138942,"0.0-4.37-0.37","8jxfghq01ea6w1l",89,"76.csv","","330.2999999523163","resources/trios/L1T2A3.jpg","37","restless",0.8,0.5,0.3,0.906605277722373,"false"
"image-keyboard-response",124,139346,"0.0-4.37-1.37","8jxfghq01ea6w1l",89,"76.csv","","null","resources/maskTrios/L1BB.jpg","null","",NA,NA,NA,NA,""
"image-keyboard-response",125,140562,"0.0-4.37-2.37","8jxfghq01ea6w1l",89,"76.csv","","null","resources/images/fishbone.png","null","",NA,NA,NA,NA,""
"image-keyboard-response",126,140965,"0.0-4.38-0.38","8jxfghq01ea6w1l",89,"76.csv","","402.7999999523163","resources/trios/L1T2A3.jpg","39","restless",0.7,0.5,0.3,0.682875174179389,"false"
"image-keyboard-response",127,141379,"0.0-4.38-1.38","8jxfghq01ea6w1l",89,"76.csv","","null","resources/maskTrios/BBA3.jpg","null","",NA,NA,NA,NA,""
"image-keyboard-response",128,142589,"0.0-4.38-2.38","8jxfghq01ea6w1l",89,"76.csv","","null","resources/images/fishbone.png","null","",NA,NA,NA,NA,""
"image-keyboard-response",129,143660,"0.0-4.39-0.39","8jxfghq01ea6w1l",89,"76.csv","","1070.2000000476837","resources/trios/L1T2A3.jpg","39","restless",0.7,0.4,0.3,0.836109956126416,"false"
"image-keyboard-response",130,144064,"0.0-4.39-1.39","8jxfghq01ea6w1l",89,"76.csv","","null","resources/maskTrios/BBA3.jpg","null","",NA,NA,NA,NA,""
"image-keyboard-response",131,145276,"0.0-4.39-2.39","8jxfghq01ea6w1l",89,"76.csv","","null","resources/images/fishbone.png","null","",NA,NA,NA,NA,""
"image-keyboard-response",132,145543,"0.0-4.40-0.40","8jxfghq01ea6w1l",89,"76.csv","","266.10000002384186","resources/trios/L1T2A3.jpg","38","restless",0.7,0.4,0.3,0.78516607598733,"false"
"image-keyboard-response",133,145948,"0.0-4.40-1.40","8jxfghq01ea6w1l",89,"76.csv","","null","resources/maskTrios/BT2B.jpg","null","",NA,NA,NA,NA,""
"image-keyboard-response",134,147157,"0.0-4.40-2.40","8jxfghq01ea6w1l",89,"76.csv","","null","resources/images/fishbone.png","null","",NA,NA,NA,NA,""
"image-keyboard-response",135,147387,"0.0-4.41-0.41","8jxfghq01ea6w1l",89,"76.csv","","229.69999992847443","resources/trios/L1T2A3.jpg","38","restless",0.7,0.4,0.4,0.363362507717964,"true"
"image-keyboard-response",136,147791,"0.0-4.41-1.41","8jxfghq01ea6w1l",89,"76.csv","","null","resources/maskTrios/BT2B.jpg","null","",NA,NA,NA,NA,""
"image-keyboard-response",137,149007,"0.0-4.41-2.41","8jxfghq01ea6w1l",89,"76.csv","","null","resources/images/coin2.png","null","",NA,NA,NA,NA,""
"image-keyboard-response",138,149299,"0.0-4.42-0.42","8jxfghq01ea6w1l",89,"76.csv","","291.2000000476837","resources/trios/L1T2A3.jpg","37","restless",0.7,0.4,0.4,0.436762397000059,"true"
"image-keyboard-response",139,149714,"0.0-4.42-1.42","8jxfghq01ea6w1l",89,"76.csv","","null","resources/maskTrios/L1BB.jpg","null","",NA,NA,NA,NA,""
"image-keyboard-response",140,150921,"0.0-4.42-2.42","8jxfghq01ea6w1l",89,"76.csv","","null","resources/images/coin2.png","null","",NA,NA,NA,NA,""
"image-keyboard-response",141,151072,"0.0-4.43-0.43","8jxfghq01ea6w1l",89,"76.csv","","150.29999995231628","resources/trios/L1T2A3.jpg","39","restless",0.7,0.4,0.4,0.389506552522117,"true"
"image-keyboard-response",142,151482,"0.0-4.43-1.43","8jxfghq01ea6w1l",89,"76.csv","","null","resources/maskTrios/BBA3.jpg","null","",NA,NA,NA,NA,""
"image-keyboard-response",143,152695,"0.0-4.43-2.43","8jxfghq01ea6w1l",89,"76.csv","","null","resources/images/coin2.png","null","",NA,NA,NA,NA,""
"image-keyboard-response",144,152919,"0.0-4.44-0.44","8jxfghq01ea6w1l",89,"76.csv","","223.89999997615814","resources/trios/L1T2A3.jpg","38","restless",0.7,0.4,0.4,0.659882800175115,"false"
"image-keyboard-response",145,153330,"0.0-4.44-1.44","8jxfghq01ea6w1l",89,"76.csv","","null","resources/maskTrios/BT2B.jpg","null","",NA,NA,NA,NA,""
"image-keyboard-response",146,154536,"0.0-4.44-2.44","8jxfghq01ea6w1l",89,"76.csv","","null","resources/images/fishbone.png","null","",NA,NA,NA,NA,""
"image-keyboard-response",147,155087,"0.0-4.45-0.45","8jxfghq01ea6w1l",89,"76.csv","","550.3999999761581","resources/trios/L1T2A3.jpg","37","restless",0.7,0.4,0.4,0.802332236994766,"false"
"image-keyboard-response",148,155498,"0.0-4.45-1.45","8jxfghq01ea6w1l",89,"76.csv","","null","resources/maskTrios/L1BB.jpg","null","",NA,NA,NA,NA,""
"image-keyboard-response",149,156713,"0.0-4.45-2.45","8jxfghq01ea6w1l",89,"76.csv","","null","resources/images/fishbone.png","null","",NA,NA,NA,NA,""
"image-keyboard-response",150,156877,"0.0-4.46-0.46","8jxfghq01ea6w1l",89,"76.csv","","163.20000004768372","resources/trios/L1T2A3.jpg","38","restless",0.7,0.4,0.4,0.0887175252172976,"true"
"image-keyboard-response",151,157289,"0.0-4.46-1.46","8jxfghq01ea6w1l",89,"76.csv","","null","resources/maskTrios/BT2B.jpg","null","",NA,NA,NA,NA,""
"image-keyboard-response",152,158505,"0.0-4.46-2.46","8jxfghq01ea6w1l",89,"76.csv","","null","resources/images/coin2.png","null","",NA,NA,NA,NA,""
"image-keyboard-response",153,158927,"0.0-4.47-0.47","8jxfghq01ea6w1l",89,"76.csv","","421.2999999523163","resources/trios/L1T2A3.jpg","37","restless",0.7,0.4,0.4,0.701689337293487,"false"
"image-keyboard-response",154,159334,"0.0-4.47-1.47","8jxfghq01ea6w1l",89,"76.csv","","null","resources/maskTrios/L1BB.jpg","null","",NA,NA,NA,NA,""
"image-keyboard-response",155,160543,"0.0-4.47-2.47","8jxfghq01ea6w1l",89,"76.csv","","null","resources/images/fishbone.png","null","",NA,NA,NA,NA,""
"image-keyboard-response",156,160681,"0.0-4.48-0.48","8jxfghq01ea6w1l",89,"76.csv","","138.20000004768372","resources/trios/L1T2A3.jpg","39","restless",0.7,0.4,0.4,0.471059936178284,"false"
"image-keyboard-response",157,161095,"0.0-4.48-1.48","8jxfghq01ea6w1l",89,"76.csv","","null","resources/maskTrios/BBA3.jpg","null","",NA,NA,NA,NA,""
"image-keyboard-response",158,162308,"0.0-4.48-2.48","8jxfghq01ea6w1l",89,"76.csv","","null","resources/images/fishbone.png","null","",NA,NA,NA,NA,""
"image-keyboard-response",159,162492,"0.0-4.49-0.49","8jxfghq01ea6w1l",89,"76.csv","","183.5","resources/trios/L1T2A3.jpg","38","restless",0.7,0.5,0.4,0.957755121745148,"false"
"image-keyboard-response",160,162903,"0.0-4.49-1.49","8jxfghq01ea6w1l",89,"76.csv","","null","resources/maskTrios/BT2B.jpg","null","",NA,NA,NA,NA,""
"image-keyboard-response",161,164119,"0.0-4.49-2.49","8jxfghq01ea6w1l",89,"76.csv","","null","resources/images/fishbone.png","null","",NA,NA,NA,NA,""
"image-keyboard-response",162,164187,"0.0-4.50-0.50","8jxfghq01ea6w1l",89,"76.csv","","67.89999997615814","resources/trios/L1T2A3.jpg","37","restless",0.7,0.4,0.4,0.176554869653117,"true"
"image-keyboard-response",163,164595,"0.0-4.50-1.50","8jxfghq01ea6w1l",89,"76.csv","","null","resources/maskTrios/L1BB.jpg","null","",NA,NA,NA,NA,""
"image-keyboard-response",164,165801,"0.0-4.50-2.50","8jxfghq01ea6w1l",89,"76.csv","","null","resources/images/coin2.png","null","",NA,NA,NA,NA,""
"image-keyboard-response",165,166414,"0.0-4.51-0.51","8jxfghq01ea6w1l",89,"76.csv","","611.7999999523163","resources/trios/L1T2A3.jpg","37","restless",0.7,0.4,0.4,0.621668297536307,"true"
"image-keyboard-response",166,166819,"0.0-4.51-1.51","8jxfghq01ea6w1l",89,"76.csv","","null","resources/maskTrios/L1BB.jpg","null","",NA,NA,NA,NA,""
"image-keyboard-response",167,168024,"0.0-4.51-2.51","8jxfghq01ea6w1l",89,"76.csv","","null","resources/images/coin2.png","null","",NA,NA,NA,NA,""
"image-keyboard-response",168,168242,"0.0-4.52-0.52","8jxfghq01ea6w1l",89,"76.csv","","216.69999992847443","resources/trios/L1T2A3.jpg","38","restless",0.7,0.4,0.4,0.715370094758763,"false"
"image-keyboard-response",169,168651,"0.0-4.52-1.52","8jxfghq01ea6w1l",89,"76.csv","","null","resources/maskTrios/BT2B.jpg","null","",NA,NA,NA,NA,""
"image-keyboard-response",170,169867,"0.0-4.52-2.52","8jxfghq01ea6w1l",89,"76.csv","","null","resources/images/fishbone.png","null","",NA,NA,NA,NA,""
"image-keyboard-response",171,170325,"0.0-4.53-0.53","8jxfghq01ea6w1l",89,"76.csv","","457.2000000476837","resources/trios/L1T2A3.jpg","37","restless",0.7,0.4,0.4,0.019402367832112,"true"
"image-keyboard-response",172,170735,"0.0-4.53-1.53","8jxfghq01ea6w1l",89,"76.csv","","null","resources/maskTrios/L1BB.jpg","null","",NA,NA,NA,NA,""
"image-keyboard-response",173,171938,"0.0-4.53-2.53","8jxfghq01ea6w1l",89,"76.csv","","null","resources/images/coin2.png","null","",NA,NA,NA,NA,""
"image-keyboard-response",174,172649,"0.0-4.54-0.54","8jxfghq01ea6w1l",89,"76.csv","","709.7999999523163","resources/trios/L1T2A3.jpg","39","restless",0.7,0.4,0.4,0.837939957072439,"false"
"image-keyboard-response",175,173054,"0.0-4.54-1.54","8jxfghq01ea6w1l",89,"76.csv","","null","resources/maskTrios/BBA3.jpg","null","",NA,NA,NA,NA,""
"image-keyboard-response",176,174259,"0.0-4.54-2.54","8jxfghq01ea6w1l",89,"76.csv","","null","resources/images/fishbone.png","null","",NA,NA,NA,NA,""
"image-keyboard-response",177,174968,"0.0-4.55-0.55","8jxfghq01ea6w1l",89,"76.csv","","708.1000000238419","resources/trios/L1T2A3.jpg","37","restless",0.7,0.4,0.4,0.227752296484829,"true"
"image-keyboard-response",178,175383,"0.0-4.55-1.55","8jxfghq01ea6w1l",89,"76.csv","","null","resources/maskTrios/L1BB.jpg","null","",NA,NA,NA,NA,""
"image-keyboard-response",179,176589,"0.0-4.55-2.55","8jxfghq01ea6w1l",89,"76.csv","","null","resources/images/coin2.png","null","",NA,NA,NA,NA,""
"image-keyboard-response",180,177471,"0.0-4.56-0.56","8jxfghq01ea6w1l",89,"76.csv","","881.6999999284744","resources/trios/L1T2A3.jpg","38","restless",0.7,0.4,0.4,0.0530780847838244,"true"
"image-keyboard-response",181,177884,"0.0-4.56-1.56","8jxfghq01ea6w1l",89,"76.csv","","null","resources/maskTrios/BT2B.jpg","null","",NA,NA,NA,NA,""
"image-keyboard-response",182,179094,"0.0-4.56-2.56","8jxfghq01ea6w1l",89,"76.csv","","null","resources/images/coin2.png","null","",NA,NA,NA,NA,""
"image-keyboard-response",183,179552,"0.0-4.57-0.57","8jxfghq01ea6w1l",89,"76.csv","","461.7999999523163","resources/trios/L1T2A3.jpg","38","restless",0.7,0.4,0.4,0.582650016046068,"false"
"image-keyboard-response",184,179968,"0.0-4.57-1.57","8jxfghq01ea6w1l",89,"76.csv","","null","resources/maskTrios/BT2B.jpg","null","",NA,NA,NA,NA,""
"image-keyboard-response",185,181177,"0.0-4.57-2.57","8jxfghq01ea6w1l",89,"76.csv","","null","resources/images/fishbone.png","null","",NA,NA,NA,NA,""
"image-keyboard-response",186,181235,"0.0-4.58-0.58","8jxfghq01ea6w1l",89,"76.csv","","57.299999952316284","resources/trios/L1T2A3.jpg","37","restless",0.7,0.4,0.4,0.799505216074194,"false"
"image-keyboard-response",187,181643,"0.0-4.58-1.58","8jxfghq01ea6w1l",89,"76.csv","","null","resources/maskTrios/L1BB.jpg","null","",NA,NA,NA,NA,""
"image-keyboard-response",188,182845,"0.0-4.58-2.58","8jxfghq01ea6w1l",89,"76.csv","","null","resources/images/fishbone.png","null","",NA,NA,NA,NA,""
"image-keyboard-response",189,183207,"0.0-4.59-0.59","8jxfghq01ea6w1l",89,"76.csv","","361.7000000476837","resources/trios/L1T2A3.jpg","39","restless",0.6,0.4,0.4,0.952128204315687,"false"
"image-keyboard-response",190,183612,"0.0-4.59-1.59","8jxfghq01ea6w1l",89,"76.csv","","null","resources/maskTrios/BBA3.jpg","null","",NA,NA,NA,NA,""
"image-keyboard-response",191,184825,"0.0-4.59-2.59","8jxfghq01ea6w1l",89,"76.csv","","null","resources/images/fishbone.png","null","",NA,NA,NA,NA,""
"image-keyboard-response",192,184943,"0.0-4.60-0.60","8jxfghq01ea6w1l",89,"76.csv","","116.39999997615814","resources/trios/L1T2A3.jpg","38","restless",0.6,0.4,0.4,0.683348353665664,"false"
"image-keyboard-response",193,185348,"0.0-4.60-1.60","8jxfghq01ea6w1l",89,"76.csv","","null","resources/maskTrios/BT2B.jpg","null","",NA,NA,NA,NA,""
"image-keyboard-response",194,186563,"0.0-4.60-2.60","8jxfghq01ea6w1l",89,"76.csv","","null","resources/images/fishbone.png","null","",NA,NA,NA,NA,""
"image-keyboard-response",195,186818,"0.0-4.61-0.61","8jxfghq01ea6w1l",89,"76.csv","","254","resources/trios/L1T2A3.jpg","37","restless",0.6,0.4,0.4,0.123772470124866,"true"
"image-keyboard-response",196,187224,"0.0-4.61-1.61","8jxfghq01ea6w1l",89,"76.csv","","null","resources/maskTrios/L1BB.jpg","null","",NA,NA,NA,NA,""
"image-keyboard-response",197,188441,"0.0-4.61-2.61","8jxfghq01ea6w1l",89,"76.csv","","null","resources/images/coin2.png","null","",NA,NA,NA,NA,""
"image-keyboard-response",198,188773,"0.0-4.62-0.62","8jxfghq01ea6w1l",89,"76.csv","","331.2999999523163","resources/trios/L1T2A3.jpg","37","restless",0.6,0.4,0.3,0.154257342331793,"true"
"image-keyboard-response",199,189177,"0.0-4.62-1.62","8jxfghq01ea6w1l",89,"76.csv","","null","resources/maskTrios/L1BB.jpg","null","",NA,NA,NA,NA,""
"image-keyboard-response",200,190380,"0.0-4.62-2.62","8jxfghq01ea6w1l",89,"76.csv","","null","resources/images/coin2.png","null","",NA,NA,NA,NA,""
"image-keyboard-response",201,190836,"0.0-4.63-0.63","8jxfghq01ea6w1l",89,"76.csv","","455.5","resources/trios/L1T2A3.jpg","38","restless",0.5,0.4,0.3,0.0273830907188723,"true"
"image-keyboard-response",202,191247,"0.0-4.63-1.63","8jxfghq01ea6w1l",89,"76.csv","","null","resources/maskTrios/BT2B.jpg","null","",NA,NA,NA,NA,""
"image-keyboard-response",203,192449,"0.0-4.63-2.63","8jxfghq01ea6w1l",89,"76.csv","","null","resources/images/coin2.png","null","",NA,NA,NA,NA,""
"image-keyboard-response",204,192508,"0.0-4.64-0.64","8jxfghq01ea6w1l",89,"76.csv","","57.59999990463257","resources/trios/L1T2A3.jpg","38","restless",0.5,0.4,0.3,0.362210996385623,"true"
"image-keyboard-response",205,192913,"0.0-4.64-1.64","8jxfghq01ea6w1l",89,"76.csv","","null","resources/maskTrios/BT2B.jpg","null","",NA,NA,NA,NA,""
"image-keyboard-response",206,194127,"0.0-4.64-2.64","8jxfghq01ea6w1l",89,"76.csv","","null","resources/images/coin2.png","null","",NA,NA,NA,NA,""
"image-keyboard-response",207,194454,"0.0-4.65-0.65","8jxfghq01ea6w1l",89,"76.csv","","326.39999997615814","resources/trios/L1T2A3.jpg","38","restless",0.6,0.4,0.3,0.986222904259501,"false"
"image-keyboard-response",208,194862,"0.0-4.65-1.65","8jxfghq01ea6w1l",89,"76.csv","","null","resources/maskTrios/BT2B.jpg","null","",NA,NA,NA,NA,""
"image-keyboard-response",209,196076,"0.0-4.65-2.65","8jxfghq01ea6w1l",89,"76.csv","","null","resources/images/fishbone.png","null","",NA,NA,NA,NA,""
"image-keyboard-response",210,196559,"0.0-4.66-0.66","8jxfghq01ea6w1l",89,"76.csv","","482.09999990463257","resources/trios/L1T2A3.jpg","37","restless",0.6,0.4,0.3,0.364781989046898,"true"
"image-keyboard-response",211,196976,"0.0-4.66-1.66","8jxfghq01ea6w1l",89,"76.csv","","null","resources/maskTrios/L1BB.jpg","null","",NA,NA,NA,NA,""
"image-keyboard-response",212,198179,"0.0-4.66-2.66","8jxfghq01ea6w1l",89,"76.csv","","null","resources/images/coin2.png","null","",NA,NA,NA,NA,""
"image-keyboard-response",213,198417,"0.0-4.67-0.67","8jxfghq01ea6w1l",89,"76.csv","","236.89999997615814","resources/trios/L1T2A3.jpg","37","restless",0.6,0.4,0.3,0.126383309136172,"true"
"image-keyboard-response",214,198829,"0.0-4.67-1.67","8jxfghq01ea6w1l",89,"76.csv","","null","resources/maskTrios/L1BB.jpg","null","",NA,NA,NA,NA,""
"image-keyboard-response",215,200034,"0.0-4.67-2.67","8jxfghq01ea6w1l",89,"76.csv","","null","resources/images/coin2.png","null","",NA,NA,NA,NA,""
"image-keyboard-response",216,200774,"0.0-4.68-0.68","8jxfghq01ea6w1l",89,"76.csv","","738.8000000715256","resources/trios/L1T2A3.jpg","37","restless",0.6,0.4,0.3,0.139607056454111,"true"
"image-keyboard-response",217,201176,"0.0-4.68-1.68","8jxfghq01ea6w1l",89,"76.csv","","null","resources/maskTrios/L1BB.jpg","null","",NA,NA,NA,NA,""
"image-keyboard-response",218,202386,"0.0-4.68-2.68","8jxfghq01ea6w1l",89,"76.csv","","null","resources/images/coin2.png","null","",NA,NA,NA,NA,""
"image-keyboard-response",219,202510,"0.0-4.69-0.69","8jxfghq01ea6w1l",89,"76.csv","","122.39999997615814","resources/trios/L1T2A3.jpg","38","restless",0.6,0.4,0.3,0.813395046111338,"false"
"image-keyboard-response",220,202925,"0.0-4.69-1.69","8jxfghq01ea6w1l",89,"76.csv","","null","resources/maskTrios/BT2B.jpg","null","",NA,NA,NA,NA,""
"image-keyboard-response",221,204135,"0.0-4.69-2.69","8jxfghq01ea6w1l",89,"76.csv","","null","resources/images/fishbone.png","null","",NA,NA,NA,NA,""
"image-keyboard-response",222,204135,"0.0-4.70-0.70","8jxfghq01ea6w1l",89,"76.csv","","0.10000002384185791","resources/trios/L1T2A3.jpg","37","restless",0.5,0.4,0.3,0.754998126517461,"false"
"image-keyboard-response",223,204537,"0.0-4.70-1.70","8jxfghq01ea6w1l",89,"76.csv","","null","resources/maskTrios/L1BB.jpg","null","",NA,NA,NA,NA,""
"image-keyboard-response",224,205744,"0.0-4.70-2.70","8jxfghq01ea6w1l",89,"76.csv","","null","resources/images/fishbone.png","null","",NA,NA,NA,NA,""
"image-keyboard-response",225,206073,"0.0-4.71-0.71","8jxfghq01ea6w1l",89,"76.csv","","327.7999999523163","resources/trios/L1T2A3.jpg","39","restless",0.5,0.4,0.3,0.792106850188695,"false"
"image-keyboard-response",226,206475,"0.0-4.71-1.71","8jxfghq01ea6w1l",89,"76.csv","","null","resources/maskTrios/BBA3.jpg","null","",NA,NA,NA,NA,""
"image-keyboard-response",227,207679,"0.0-4.71-2.71","8jxfghq01ea6w1l",89,"76.csv","","null","resources/images/fishbone.png","null","",NA,NA,NA,NA,""
"image-keyboard-response",228,212413,"0.0-4.72-0.72","8jxfghq01ea6w1l",89,"76.csv","","4733","resources/trios/L1T2A3.jpg","38","restless",0.5,0.4,0.3,0.224317803082541,"true"
"image-keyboard-response",229,212823,"0.0-4.72-1.72","8jxfghq01ea6w1l",89,"76.csv","","null","resources/maskTrios/BT2B.jpg","null","",NA,NA,NA,NA,""
"image-keyboard-response",230,214033,"0.0-4.72-2.72","8jxfghq01ea6w1l",89,"76.csv","","null","resources/images/coin2.png","null","",NA,NA,NA,NA,""
"image-keyboard-response",231,214299,"0.0-4.73-0.73","8jxfghq01ea6w1l",89,"76.csv","","264.89999997615814","resources/trios/L1T2A3.jpg","38","restless",0.5,0.4,0.3,0.950212179125671,"false"
"image-keyboard-response",232,214705,"0.0-4.73-1.73","8jxfghq01ea6w1l",89,"76.csv","","null","resources/maskTrios/BT2B.jpg","null","",NA,NA,NA,NA,""
"image-keyboard-response",233,215913,"0.0-4.73-2.73","8jxfghq01ea6w1l",89,"76.csv","","null","resources/images/fishbone.png","null","",NA,NA,NA,NA,""
"image-keyboard-response",234,215996,"0.0-4.74-0.74","8jxfghq01ea6w1l",89,"76.csv","","82.70000004768372","resources/trios/L1T2A3.jpg","37","restless",0.5,0.4,0.4,0.358522812635543,"true"
"image-keyboard-response",235,216405,"0.0-4.74-1.74","8jxfghq01ea6w1l",89,"76.csv","","null","resources/maskTrios/L1BB.jpg","null","",NA,NA,NA,NA,""
"image-keyboard-response",236,217613,"0.0-4.74-2.74","8jxfghq01ea6w1l",89,"76.csv","","null","resources/images/coin2.png","null","",NA,NA,NA,NA,""
"image-keyboard-response",237,217932,"0.0-4.75-0.75","8jxfghq01ea6w1l",89,"76.csv","","318.5","resources/trios/L1T2A3.jpg","37","restless",0.5,0.4,0.4,0.403662320044573,"true"
"image-keyboard-response",238,218335,"0.0-4.75-1.75","8jxfghq01ea6w1l",89,"76.csv","","null","resources/maskTrios/L1BB.jpg","null","",NA,NA,NA,NA,""
"image-keyboard-response",239,219550,"0.0-4.75-2.75","8jxfghq01ea6w1l",89,"76.csv","","null","resources/images/coin2.png","null","",NA,NA,NA,NA,""
"image-keyboard-response",240,219866,"0.0-4.76-0.76","8jxfghq01ea6w1l",89,"76.csv","","314.7999999523163","resources/trios/L1T2A3.jpg","38","restless",0.5,0.4,0.4,0.845708399835789,"false"
"image-keyboard-response",241,220268,"0.0-4.76-1.76","8jxfghq01ea6w1l",89,"76.csv","","null","resources/maskTrios/BT2B.jpg","null","",NA,NA,NA,NA,""
"image-keyboard-response",242,221484,"0.0-4.76-2.76","8jxfghq01ea6w1l",89,"76.csv","","null","resources/images/fishbone.png","null","",NA,NA,NA,NA,""
"image-keyboard-response",243,222220,"0.0-4.77-0.77","8jxfghq01ea6w1l",89,"76.csv","","735.3999999761581","resources/trios/L1T2A3.jpg","37","restless",0.5,0.4,0.4,0.840727304839296,"false"
"image-keyboard-response",244,222633,"0.0-4.77-1.77","8jxfghq01ea6w1l",89,"76.csv","","null","resources/maskTrios/L1BB.jpg","null","",NA,NA,NA,NA,""
"image-keyboard-response",245,223842,"0.0-4.77-2.77","8jxfghq01ea6w1l",89,"76.csv","","null","resources/images/fishbone.png","null","",NA,NA,NA,NA,""
"image-keyboard-response",246,226464,"0.0-4.78-0.78","8jxfghq01ea6w1l",89,"76.csv","","2620.7999999523163","resources/trios/L1T2A3.jpg","39","restless",0.5,0.4,0.4,0.237949911800075,"true"
"image-keyboard-response",247,226867,"0.0-4.78-1.78","8jxfghq01ea6w1l",89,"76.csv","","null","resources/maskTrios/BBA3.jpg","null","",NA,NA,NA,NA,""
"image-keyboard-response",248,228075,"0.0-4.78-2.78","8jxfghq01ea6w1l",89,"76.csv","","null","resources/images/coin2.png","null","",NA,NA,NA,NA,""
"image-keyboard-response",249,229730,"0.0-4.79-0.79","8jxfghq01ea6w1l",89,"76.csv","","1654.6999999284744","resources/trios/L1T2A3.jpg","38","restless",0.6,0.4,0.5,0.0383451413255271,"true"
"image-keyboard-response",250,230144,"0.0-4.79-1.79","8jxfghq01ea6w1l",89,"76.csv","","null","resources/maskTrios/BT2B.jpg","null","",NA,NA,NA,NA,""
"image-keyboard-response",251,231346,"0.0-4.79-2.79","8jxfghq01ea6w1l",89,"76.csv","","null","resources/images/coin2.png","null","",NA,NA,NA,NA,""
"image-keyboard-response",252,234976,"0.0-4.80-0.80","8jxfghq01ea6w1l",89,"76.csv","","3629.399999976158","resources/trios/L1T2A3.jpg","38","restless",0.6,0.4,0.5,0.655222417310097,"false"
"image-keyboard-response",253,235380,"0.0-4.80-1.80","8jxfghq01ea6w1l",89,"76.csv","","null","resources/maskTrios/BT2B.jpg","null","",NA,NA,NA,NA,""
"image-keyboard-response",254,236596,"0.0-4.80-2.80","8jxfghq01ea6w1l",89,"76.csv","","null","resources/images/fishbone.png","null","",NA,NA,NA,NA,""
"image-keyboard-response",255,237233,"0.0-4.81-0.81","8jxfghq01ea6w1l",89,"76.csv","","636","resources/trios/L1T2A3.jpg","39","restless",0.6,0.4,0.5,0.718336675973598,"false"
"image-keyboard-response",256,237640,"0.0-4.81-1.81","8jxfghq01ea6w1l",89,"76.csv","","null","resources/maskTrios/BBA3.jpg","null","",NA,NA,NA,NA,""
"image-keyboard-response",257,238843,"0.0-4.81-2.81","8jxfghq01ea6w1l",89,"76.csv","","null","resources/images/fishbone.png","null","",NA,NA,NA,NA,""
"image-keyboard-response",258,239388,"0.0-4.82-0.82","8jxfghq01ea6w1l",89,"76.csv","","544","resources/trios/L1T2A3.jpg","37","restless",0.7,0.4,0.5,0.445215800327188,"true"
"image-keyboard-response",259,239799,"0.0-4.82-1.82","8jxfghq01ea6w1l",89,"76.csv","","null","resources/maskTrios/L1BB.jpg","null","",NA,NA,NA,NA,""
"image-keyboard-response",260,241003,"0.0-4.82-2.82","8jxfghq01ea6w1l",89,"76.csv","","null","resources/images/coin2.png","null","",NA,NA,NA,NA,""
"image-keyboard-response",261,247371,"0.0-4.83-0.83","8jxfghq01ea6w1l",89,"76.csv","","6367.300000071526","resources/trios/L1T2A3.jpg","38","restless",0.7,0.4,0.5,0.314894214976715,"true"
"image-keyboard-response",262,247782,"0.0-4.83-1.83","8jxfghq01ea6w1l",89,"76.csv","","null","resources/maskTrios/BT2B.jpg","null","",NA,NA,NA,NA,""
"image-keyboard-response",263,248993,"0.0-4.83-2.83","8jxfghq01ea6w1l",89,"76.csv","","null","resources/images/coin2.png","null","",NA,NA,NA,NA,""
"image-keyboard-response",264,254238,"0.0-4.84-0.84","8jxfghq01ea6w1l",89,"76.csv","","5244","resources/trios/L1T2A3.jpg","38","restless",0.7,0.4,0.5,0.982976342714805,"false"
"image-keyboard-response",265,254640,"0.0-4.84-1.84","8jxfghq01ea6w1l",89,"76.csv","","null","resources/maskTrios/BT2B.jpg","null","",NA,NA,NA,NA,""
"image-keyboard-response",266,255855,"0.0-4.84-2.84","8jxfghq01ea6w1l",89,"76.csv","","null","resources/images/fishbone.png","null","",NA,NA,NA,NA,""
"image-keyboard-response",267,256693,"0.0-4.85-0.85","8jxfghq01ea6w1l",89,"76.csv","","837.5","resources/trios/L1T2A3.jpg","37","restless",0.7,0.4,0.5,0.493043787582803,"true"
"image-keyboard-response",268,257106,"0.0-4.85-1.85","8jxfghq01ea6w1l",89,"76.csv","","null","resources/maskTrios/L1BB.jpg","null","",NA,NA,NA,NA,""
"image-keyboard-response",269,258321,"0.0-4.85-2.85","8jxfghq01ea6w1l",89,"76.csv","","null","resources/images/coin2.png","null","",NA,NA,NA,NA,""
"image-keyboard-response",270,271420,"0.0-4.86-0.86","8jxfghq01ea6w1l",89,"76.csv","","13098","resources/trios/L1T2A3.jpg","38","restless",0.7,0.4,0.5,0.0926320664028215,"true"
"image-keyboard-response",271,271823,"0.0-4.86-1.86","8jxfghq01ea6w1l",89,"76.csv","","null","resources/maskTrios/BT2B.jpg","null","",NA,NA,NA,NA,""
"image-keyboard-response",272,273037,"0.0-4.86-2.86","8jxfghq01ea6w1l",89,"76.csv","","null","resources/images/coin2.png","null","",NA,NA,NA,NA,""
"image-keyboard-response",273,273520,"0.0-4.87-0.87","8jxfghq01ea6w1l",89,"76.csv","","482","resources/trios/L1T2A3.jpg","37","restless",0.7,0.4,0.5,0.878859813726792,"false"
"image-keyboard-response",274,273934,"0.0-4.87-1.87","8jxfghq01ea6w1l",89,"76.csv","","null","resources/maskTrios/L1BB.jpg","null","",NA,NA,NA,NA,""
"image-keyboard-response",275,275149,"0.0-4.87-2.87","8jxfghq01ea6w1l",89,"76.csv","","null","resources/images/fishbone.png","null","",NA,NA,NA,NA,""
"image-keyboard-response",276,275668,"0.0-4.88-0.88","8jxfghq01ea6w1l",89,"76.csv","","518.8999999761581","resources/trios/L1T2A3.jpg","38","restless",0.7,0.4,0.5,0.219761876893749,"true"
"image-keyboard-response",277,276073,"0.0-4.88-1.88","8jxfghq01ea6w1l",89,"76.csv","","null","resources/maskTrios/BT2B.jpg","null","",NA,NA,NA,NA,""
"image-keyboard-response",278,277278,"0.0-4.88-2.88","8jxfghq01ea6w1l",89,"76.csv","","null","resources/images/coin2.png","null","",NA,NA,NA,NA,""
"image-keyboard-response",279,280214,"0.0-4.89-0.89","8jxfghq01ea6w1l",89,"76.csv","","2934.7000000476837","resources/trios/L1T2A3.jpg","37","restless",0.7,0.4,0.5,0.539607091325777,"true"
"image-keyboard-response",280,280617,"0.0-4.89-1.89","8jxfghq01ea6w1l",89,"76.csv","","null","resources/maskTrios/L1BB.jpg","null","",NA,NA,NA,NA,""
"image-keyboard-response",281,281833,"0.0-4.89-2.89","8jxfghq01ea6w1l",89,"76.csv","","null","resources/images/coin2.png","null","",NA,NA,NA,NA,""
"image-keyboard-response",282,282894,"0.0-4.90-0.90","8jxfghq01ea6w1l",89,"76.csv","","1060.8999999761581","resources/trios/L1T2A3.jpg","38","restless",0.7,0.4,0.5,0.454642431956256,"false"
"image-keyboard-response",283,283306,"0.0-4.90-1.90","8jxfghq01ea6w1l",89,"76.csv","","null","resources/maskTrios/BT2B.jpg","null","",NA,NA,NA,NA,""
"image-keyboard-response",284,284516,"0.0-4.90-2.90","8jxfghq01ea6w1l",89,"76.csv","","null","resources/images/fishbone.png","null","",NA,NA,NA,NA,""
"image-keyboard-response",285,284788,"0.0-4.91-0.91","8jxfghq01ea6w1l",89,"76.csv","","271.10000002384186","resources/trios/L1T2A3.jpg","39","restless",0.7,0.4,0.5,0.821278240579683,"false"
"image-keyboard-response",286,285202,"0.0-4.91-1.91","8jxfghq01ea6w1l",89,"76.csv","","null","resources/maskTrios/BBA3.jpg","null","",NA,NA,NA,NA,""
"image-keyboard-response",287,286409,"0.0-4.91-2.91","8jxfghq01ea6w1l",89,"76.csv","","null","resources/images/fishbone.png","null","",NA,NA,NA,NA,""
"image-keyboard-response",288,289732,"0.0-4.92-0.92","8jxfghq01ea6w1l",89,"76.csv","","3322.1999999284744","resources/trios/L1T2A3.jpg","37","restless",0.7,0.4,0.5,0.224364226879413,"true"
"image-keyboard-response",289,290145,"0.0-4.92-1.92","8jxfghq01ea6w1l",89,"76.csv","","null","resources/maskTrios/L1BB.jpg","null","",NA,NA,NA,NA,""
"image-keyboard-response",290,291360,"0.0-4.92-2.92","8jxfghq01ea6w1l",89,"76.csv","","null","resources/images/coin2.png","null","",NA,NA,NA,NA,""
"image-keyboard-response",291,292812,"0.0-4.93-0.93","8jxfghq01ea6w1l",89,"76.csv","","1451.6000000238419","resources/trios/L1T2A3.jpg","38","restless",0.7,0.4,0.5,0.347751056237971,"true"
"image-keyboard-response",292,293217,"0.0-4.93-1.93","8jxfghq01ea6w1l",89,"76.csv","","null","resources/maskTrios/BT2B.jpg","null","",NA,NA,NA,NA,""
"image-keyboard-response",293,294430,"0.0-4.93-2.93","8jxfghq01ea6w1l",89,"76.csv","","null","resources/images/coin2.png","null","",NA,NA,NA,NA,""
"image-keyboard-response",294,294997,"0.0-4.94-0.94","8jxfghq01ea6w1l",89,"76.csv","","566.7999999523163","resources/trios/L1T2A3.jpg","37","restless",0.7,0.5,0.5,0.133938377191533,"true"
"image-keyboard-response",295,295401,"0.0-4.94-1.94","8jxfghq01ea6w1l",89,"76.csv","","null","resources/maskTrios/L1BB.jpg","null","",NA,NA,NA,NA,""
"image-keyboard-response",296,296606,"0.0-4.94-2.94","8jxfghq01ea6w1l",89,"76.csv","","null","resources/images/coin2.png","null","",NA,NA,NA,NA,""
"image-keyboard-response",297,298265,"0.0-4.95-0.95","8jxfghq01ea6w1l",89,"76.csv","","1658.7999999523163","resources/trios/L1T2A3.jpg","38","restless",0.7,0.5,0.5,0.879376490090236,"false"
"image-keyboard-response",298,298674,"0.0-4.95-1.95","8jxfghq01ea6w1l",89,"76.csv","","null","resources/maskTrios/BT2B.jpg","null","",NA,NA,NA,NA,""
"image-keyboard-response",299,299888,"0.0-4.95-2.95","8jxfghq01ea6w1l",89,"76.csv","","null","resources/images/fishbone.png","null","",NA,NA,NA,NA,""
"image-keyboard-response",300,300473,"0.0-4.96-0.96","8jxfghq01ea6w1l",89,"76.csv","","584","resources/trios/L1T2A3.jpg","37","restless",0.7,0.5,0.5,0.827351260989557,"false"
"image-keyboard-response",301,300880,"0.0-4.96-1.96","8jxfghq01ea6w1l",89,"76.csv","","null","resources/maskTrios/L1BB.jpg","null","",NA,NA,NA,NA,""
"image-keyboard-response",302,302094,"0.0-4.96-2.96","8jxfghq01ea6w1l",89,"76.csv","","null","resources/images/fishbone.png","null","",NA,NA,NA,NA,""
"image-keyboard-response",303,304474,"0.0-4.97-0.97","8jxfghq01ea6w1l",89,"76.csv","","2379.7999999523163","resources/trios/L1T2A3.jpg","38","restless",0.7,0.5,0.5,0.401022739557434,"true"
"image-keyboard-response",304,304876,"0.0-4.97-1.97","8jxfghq01ea6w1l",89,"76.csv","","null","resources/maskTrios/BT2B.jpg","null","",NA,NA,NA,NA,""
"image-keyboard-response",305,306086,"0.0-4.97-2.97","8jxfghq01ea6w1l",89,"76.csv","","null","resources/images/coin2.png","null","",NA,NA,NA,NA,""
"image-keyboard-response",306,306895,"0.0-4.98-0.98","8jxfghq01ea6w1l",89,"76.csv","","807.8999999761581","resources/trios/L1T2A3.jpg","37","restless",0.7,0.5,0.5,0.486660099740069,"true"
"image-keyboard-response",307,307305,"0.0-4.98-1.98","8jxfghq01ea6w1l",89,"76.csv","","null","resources/maskTrios/L1BB.jpg","null","",NA,NA,NA,NA,""
"image-keyboard-response",308,308520,"0.0-4.98-2.98","8jxfghq01ea6w1l",89,"76.csv","","null","resources/images/coin2.png","null","",NA,NA,NA,NA,""
"image-keyboard-response",309,308592,"0.0-4.99-0.99","8jxfghq01ea6w1l",89,"76.csv","","71.79999995231628","resources/trios/L1T2A3.jpg","38","restless",0.7,0.5,0.5,0.370055908907016,"true"
"image-keyboard-response",310,309005,"0.0-4.99-1.99","8jxfghq01ea6w1l",89,"76.csv","","null","resources/maskTrios/BT2B.jpg","null","",NA,NA,NA,NA,""
"image-keyboard-response",311,310220,"0.0-4.99-2.99","8jxfghq01ea6w1l",89,"76.csv","","null","resources/images/coin2.png","null","",NA,NA,NA,NA,""
"image-keyboard-response",312,310644,"0.0-4.100-0.100","8jxfghq01ea6w1l",89,"76.csv","","423.5","resources/trios/L1T2A3.jpg","37","restless",0.7,0.5,0.5,0.953968085262463,"false"
"image-keyboard-response",313,311060,"0.0-4.100-1.100","8jxfghq01ea6w1l",89,"76.csv","","null","resources/maskTrios/L1BB.jpg","null","",NA,NA,NA,NA,""
"image-keyboard-response",314,312273,"0.0-4.100-2.100","8jxfghq01ea6w1l",89,"76.csv","","null","resources/images/fishbone.png","null","",NA,NA,NA,NA,""
"image-keyboard-response",315,312747,"0.0-4.101-0.101","8jxfghq01ea6w1l",89,"76.csv","","472.90000009536743","resources/trios/L1T2A3.jpg","38","restless",0.7,0.5,0.5,0.203671673063543,"true"
"image-keyboard-response",316,313152,"0.0-4.101-1.101","8jxfghq01ea6w1l",89,"76.csv","","null","resources/maskTrios/BT2B.jpg","null","",NA,NA,NA,NA,""
"image-keyboard-response",317,314366,"0.0-4.101-2.101","8jxfghq01ea6w1l",89,"76.csv","","null","resources/images/coin2.png","null","",NA,NA,NA,NA,""
"image-keyboard-response",318,316797,"0.0-4.102-0.102","8jxfghq01ea6w1l",89,"76.csv","","2430.5","resources/trios/L1T2A3.jpg","37","restless",0.7,0.5,0.5,0.2622549096164,"true"
"image-keyboard-response",319,317202,"0.0-4.102-1.102","8jxfghq01ea6w1l",89,"76.csv","","null","resources/maskTrios/L1BB.jpg","null","",NA,NA,NA,NA,""
"image-keyboard-response",320,318417,"0.0-4.102-2.102","8jxfghq01ea6w1l",89,"76.csv","","null","resources/images/coin2.png","null","",NA,NA,NA,NA,""
"image-keyboard-response",321,319094,"0.0-4.103-0.103","8jxfghq01ea6w1l",89,"76.csv","","676.2999999523163","resources/trios/L1T2A3.jpg","38","restless",0.6,0.5,0.4,0.662161908974941,"false"
"image-keyboard-response",322,319508,"0.0-4.103-1.103","8jxfghq01ea6w1l",89,"76.csv","","null","resources/maskTrios/BT2B.jpg","null","",NA,NA,NA,NA,""
"image-keyboard-response",323,320714,"0.0-4.103-2.103","8jxfghq01ea6w1l",89,"76.csv","","null","resources/images/fishbone.png","null","",NA,NA,NA,NA,""
"image-keyboard-response",324,321592,"0.0-4.104-0.104","8jxfghq01ea6w1l",89,"76.csv","","877.6000000238419","resources/trios/L1T2A3.jpg","37","restless",0.6,0.5,0.4,0.638585461340406,"false"
"image-keyboard-response",325,321999,"0.0-4.104-1.104","8jxfghq01ea6w1l",89,"76.csv","","null","resources/maskTrios/L1BB.jpg","null","",NA,NA,NA,NA,""
"image-keyboard-response",326,323214,"0.0-4.104-2.104","8jxfghq01ea6w1l",89,"76.csv","","null","resources/images/fishbone.png","null","",NA,NA,NA,NA,""
"image-keyboard-response",327,324838,"0.0-4.105-0.105","8jxfghq01ea6w1l",89,"76.csv","","1623.5","resources/trios/L1T2A3.jpg","38","restless",0.6,0.5,0.4,0.373729280823162,"true"
"image-keyboard-response",328,325244,"0.0-4.105-1.105","8jxfghq01ea6w1l",89,"76.csv","","null","resources/maskTrios/BT2B.jpg","null","",NA,NA,NA,NA,""
"image-keyboard-response",329,326446,"0.0-4.105-2.105","8jxfghq01ea6w1l",89,"76.csv","","null","resources/images/coin2.png","null","",NA,NA,NA,NA,""
"image-keyboard-response",330,327235,"0.0-4.106-0.106","8jxfghq01ea6w1l",89,"76.csv","","787.9000000953674","resources/trios/L1T2A3.jpg","37","restless",0.5,0.5,0.4,0.0621353485589429,"true"
"image-keyboard-response",331,327643,"0.0-4.106-1.106","8jxfghq01ea6w1l",89,"76.csv","","null","resources/maskTrios/L1BB.jpg","null","",NA,NA,NA,NA,""
"image-keyboard-response",332,328856,"0.0-4.106-2.106","8jxfghq01ea6w1l",89,"76.csv","","null","resources/images/coin2.png","null","",NA,NA,NA,NA,""
"image-keyboard-response",333,329157,"0.0-4.107-0.107","8jxfghq01ea6w1l",89,"76.csv","","299.7000000476837","resources/trios/L1T2A3.jpg","38","restless",0.5,0.5,0.4,0.954894294861991,"false"
"image-keyboard-response",334,329565,"0.0-4.107-1.107","8jxfghq01ea6w1l",89,"76.csv","","null","resources/maskTrios/BT2B.jpg","null","",NA,NA,NA,NA,""
"image-keyboard-response",335,330776,"0.0-4.107-2.107","8jxfghq01ea6w1l",89,"76.csv","","null","resources/images/fishbone.png","null","",NA,NA,NA,NA,""
"image-keyboard-response",336,331198,"0.0-4.108-0.108","8jxfghq01ea6w1l",89,"76.csv","","420.8000000715256","resources/trios/L1T2A3.jpg","37","restless",0.5,0.5,0.4,0.344227204045272,"true"
"image-keyboard-response",337,331600,"0.0-4.108-1.108","8jxfghq01ea6w1l",89,"76.csv","","null","resources/maskTrios/L1BB.jpg","null","",NA,NA,NA,NA,""
"image-keyboard-response",338,332806,"0.0-4.108-2.108","8jxfghq01ea6w1l",89,"76.csv","","null","resources/images/coin2.png","null","",NA,NA,NA,NA,""
"image-keyboard-response",339,333134,"0.0-4.109-0.109","8jxfghq01ea6w1l",89,"76.csv","","326.6999999284744","resources/trios/L1T2A3.jpg","39","restless",0.5,0.5,0.4,0.519140067374131,"false"
"image-keyboard-response",340,333543,"0.0-4.109-1.109","8jxfghq01ea6w1l",89,"76.csv","","null","resources/maskTrios/BBA3.jpg","null","",NA,NA,NA,NA,""
"image-keyboard-response",341,334749,"0.0-4.109-2.109","8jxfghq01ea6w1l",89,"76.csv","","null","resources/images/fishbone.png","null","",NA,NA,NA,NA,""
"image-keyboard-response",342,334865,"0.0-4.110-0.110","8jxfghq01ea6w1l",89,"76.csv","","115.19999992847443","resources/trios/L1T2A3.jpg","39","restless",0.5,0.4,0.4,0.343882636964301,"true"
"image-keyboard-response",343,335278,"0.0-4.110-1.110","8jxfghq01ea6w1l",89,"76.csv","","null","resources/maskTrios/BBA3.jpg","null","",NA,NA,NA,NA,""
"image-keyboard-response",344,336494,"0.0-4.110-2.110","8jxfghq01ea6w1l",89,"76.csv","","null","resources/images/coin2.png","null","",NA,NA,NA,NA,""
"image-keyboard-response",345,336642,"0.0-4.111-0.111","8jxfghq01ea6w1l",89,"76.csv","","146.59999990463257","resources/trios/L1T2A3.jpg","38","restless",0.5,0.4,0.4,0.562894607059069,"false"
"image-keyboard-response",346,337052,"0.0-4.111-1.111","8jxfghq01ea6w1l",89,"76.csv","","null","resources/maskTrios/BT2B.jpg","null","",NA,NA,NA,NA,""
"image-keyboard-response",347,338265,"0.0-4.111-2.111","8jxfghq01ea6w1l",89,"76.csv","","null","resources/images/fishbone.png","null","",NA,NA,NA,NA,""
"image-keyboard-response",348,338592,"0.0-4.112-0.112","8jxfghq01ea6w1l",89,"76.csv","","326.5","resources/trios/L1T2A3.jpg","37","restless",0.5,0.4,0.4,0.612826657535379,"false"
"image-keyboard-response",349,338996,"0.0-4.112-1.112","8jxfghq01ea6w1l",89,"76.csv","","null","resources/maskTrios/L1BB.jpg","null","",NA,NA,NA,NA,""
"image-keyboard-response",350,340202,"0.0-4.112-2.112","8jxfghq01ea6w1l",89,"76.csv","","null","resources/images/fishbone.png","null","",NA,NA,NA,NA,""
"image-keyboard-response",351,340494,"0.0-4.113-0.113","8jxfghq01ea6w1l",89,"76.csv","","291.2000000476837","resources/trios/L1T2A3.jpg","37","restless",0.5,0.4,0.4,0.306236279376596,"true"
"image-keyboard-response",352,340910,"0.0-4.113-1.113","8jxfghq01ea6w1l",89,"76.csv","","null","resources/maskTrios/L1BB.jpg","null","",NA,NA,NA,NA,""
"image-keyboard-response",353,342114,"0.0-4.113-2.113","8jxfghq01ea6w1l",89,"76.csv","","null","resources/images/coin2.png","null","",NA,NA,NA,NA,""
"image-keyboard-response",354,344988,"0.0-4.114-0.114","8jxfghq01ea6w1l",89,"76.csv","","2873","resources/trios/L1T2A3.jpg","38","restless",0.5,0.5,0.4,0.357562522763669,"true"
"image-keyboard-response",355,345400,"0.0-4.114-1.114","8jxfghq01ea6w1l",89,"76.csv","","null","resources/maskTrios/BT2B.jpg","null","",NA,NA,NA,NA,""
"image-keyboard-response",356,346605,"0.0-4.114-2.114","8jxfghq01ea6w1l",89,"76.csv","","null","resources/images/coin2.png","null","",NA,NA,NA,NA,""
"image-keyboard-response",357,346912,"0.0-4.115-0.115","8jxfghq01ea6w1l",89,"76.csv","","306.7999999523163","resources/trios/L1T2A3.jpg","38","restless",0.5,0.5,0.3,0.743792564790279,"false"
"image-keyboard-response",358,347326,"0.0-4.115-1.115","8jxfghq01ea6w1l",89,"76.csv","","null","resources/maskTrios/BT2B.jpg","null","",NA,NA,NA,NA,""
"image-keyboard-response",359,348542,"0.0-4.115-2.115","8jxfghq01ea6w1l",89,"76.csv","","null","resources/images/fishbone.png","null","",NA,NA,NA,NA,""
"image-keyboard-response",360,350951,"0.0-4.116-0.116","8jxfghq01ea6w1l",89,"76.csv","","2407.600000023842","resources/trios/L1T2A3.jpg","37","restless",0.5,0.5,0.4,0.790637014524271,"false"
"image-keyboard-response",361,351365,"0.0-4.116-1.116","8jxfghq01ea6w1l",89,"76.csv","","null","resources/maskTrios/L1BB.jpg","null","",NA,NA,NA,NA,""
"image-keyboard-response",362,352570,"0.0-4.116-2.116","8jxfghq01ea6w1l",89,"76.csv","","null","resources/images/fishbone.png","null","",NA,NA,NA,NA,""
"image-keyboard-response",363,352958,"0.0-4.117-0.117","8jxfghq01ea6w1l",89,"76.csv","","387.5","resources/trios/L1T2A3.jpg","39","restless",0.5,0.5,0.4,0.0440003068692978,"true"
"image-keyboard-response",364,353363,"0.0-4.117-1.117","8jxfghq01ea6w1l",89,"76.csv","","null","resources/maskTrios/BBA3.jpg","null","",NA,NA,NA,NA,""
"image-keyboard-response",365,354580,"0.0-4.117-2.117","8jxfghq01ea6w1l",89,"76.csv","","null","resources/images/coin2.png","null","",NA,NA,NA,NA,""
"image-keyboard-response",366,355046,"0.0-4.118-0.118","8jxfghq01ea6w1l",89,"76.csv","","465.10000002384186","resources/trios/L1T2A3.jpg","38","restless",0.5,0.5,0.4,0.326965701226758,"true"
"image-keyboard-response",367,355455,"0.0-4.118-1.118","8jxfghq01ea6w1l",89,"76.csv","","null","resources/maskTrios/BT2B.jpg","null","",NA,NA,NA,NA,""
"image-keyboard-response",368,356658,"0.0-4.118-2.118","8jxfghq01ea6w1l",89,"76.csv","","null","resources/images/coin2.png","null","",NA,NA,NA,NA,""
"image-keyboard-response",369,357246,"0.0-4.119-0.119","8jxfghq01ea6w1l",89,"76.csv","","587.1000000238419","resources/trios/L1T2A3.jpg","37","restless",0.5,0.5,0.4,0.606816341338523,"false"
"image-keyboard-response",370,357655,"0.0-4.119-1.119","8jxfghq01ea6w1l",89,"76.csv","","null","resources/maskTrios/L1BB.jpg","null","",NA,NA,NA,NA,""
"image-keyboard-response",371,358857,"0.0-4.119-2.119","8jxfghq01ea6w1l",89,"76.csv","","null","resources/images/fishbone.png","null","",NA,NA,NA,NA,""
"image-keyboard-response",372,359078,"0.0-4.120-0.120","8jxfghq01ea6w1l",89,"76.csv","","219.39999997615814","resources/trios/L1T2A3.jpg","37","restless",0.5,0.5,0.5,0.243593302320068,"true"
"image-keyboard-response",373,359493,"0.0-4.120-1.120","8jxfghq01ea6w1l",89,"76.csv","","null","resources/maskTrios/L1BB.jpg","null","",NA,NA,NA,NA,""
"image-keyboard-response",374,360704,"0.0-4.120-2.120","8jxfghq01ea6w1l",89,"76.csv","","null","resources/images/coin2.png","null","",NA,NA,NA,NA,""
"image-keyboard-response",375,363844,"0.0-4.121-0.121","8jxfghq01ea6w1l",89,"76.csv","","3138.3000000715256","resources/trios/L1T2A3.jpg","38","restless",0.5,0.5,0.5,0.282718818772649,"true"
"image-keyboard-response",376,364259,"0.0-4.121-1.121","8jxfghq01ea6w1l",89,"76.csv","","null","resources/maskTrios/BT2B.jpg","null","",NA,NA,NA,NA,""
"image-keyboard-response",377,365473,"0.0-4.121-2.121","8jxfghq01ea6w1l",89,"76.csv","","null","resources/images/coin2.png","null","",NA,NA,NA,NA,""
"image-keyboard-response",378,365738,"0.0-4.122-0.122","8jxfghq01ea6w1l",89,"76.csv","","263.2999999523163","resources/trios/L1T2A3.jpg","38","restless",0.5,0.5,0.5,0.873329493424888,"false"
"image-keyboard-response",379,366154,"0.0-4.122-1.122","8jxfghq01ea6w1l",89,"76.csv","","null","resources/maskTrios/BT2B.jpg","null","",NA,NA,NA,NA,""
"image-keyboard-response",380,367369,"0.0-4.122-2.122","8jxfghq01ea6w1l",89,"76.csv","","null","resources/images/fishbone.png","null","",NA,NA,NA,NA,""
"image-keyboard-response",381,367464,"0.0-4.123-0.123","8jxfghq01ea6w1l",89,"76.csv","","94.09999990463257","resources/trios/L1T2A3.jpg","37","restless",0.5,0.5,0.5,0.822008866412618,"false"
"image-keyboard-response",382,367875,"0.0-4.123-1.123","8jxfghq01ea6w1l",89,"76.csv","","null","resources/maskTrios/L1BB.jpg","null","",NA,NA,NA,NA,""
"image-keyboard-response",383,369080,"0.0-4.123-2.123","8jxfghq01ea6w1l",89,"76.csv","","null","resources/images/fishbone.png","null","",NA,NA,NA,NA,""
"image-keyboard-response",384,369538,"0.0-4.124-0.124","8jxfghq01ea6w1l",89,"76.csv","","456.7999999523163","resources/trios/L1T2A3.jpg","39","restless",0.5,0.5,0.5,0.304871031071808,"true"
"image-keyboard-response",385,369951,"0.0-4.124-1.124","8jxfghq01ea6w1l",89,"76.csv","","null","resources/maskTrios/BBA3.jpg","null","",NA,NA,NA,NA,""
"image-keyboard-response",386,371165,"0.0-4.124-2.124","8jxfghq01ea6w1l",89,"76.csv","","null","resources/images/coin2.png","null","",NA,NA,NA,NA,""
"image-keyboard-response",387,371625,"0.0-4.125-0.125","8jxfghq01ea6w1l",89,"76.csv","","458.89999997615814","resources/trios/L1T2A3.jpg","38","restless",0.5,0.5,0.5,0.702616642219321,"false"
"image-keyboard-response",388,372040,"0.0-4.125-1.125","8jxfghq01ea6w1l",89,"76.csv","","null","resources/maskTrios/BT2B.jpg","null","",NA,NA,NA,NA,""
"image-keyboard-response",389,373243,"0.0-4.125-2.125","8jxfghq01ea6w1l",89,"76.csv","","null","resources/images/fishbone.png","null","",NA,NA,NA,NA,""
"image-keyboard-response",390,373341,"0.0-4.126-0.126","8jxfghq01ea6w1l",89,"76.csv","","96.39999997615814","resources/trios/L1T2A3.jpg","37","restless",0.5,0.5,0.5,0.850908338352013,"false"
"image-keyboard-response",391,373751,"0.0-4.126-1.126","8jxfghq01ea6w1l",89,"76.csv","","null","resources/maskTrios/L1BB.jpg","null","",NA,NA,NA,NA,""
"image-keyboard-response",392,374956,"0.0-4.126-2.126","8jxfghq01ea6w1l",89,"76.csv","","null","resources/images/fishbone.png","null","",NA,NA,NA,NA,""
"image-keyboard-response",393,375305,"0.0-4.127-0.127","8jxfghq01ea6w1l",89,"76.csv","","347.89999997615814","resources/trios/L1T2A3.jpg","39","restless",0.5,0.5,0.5,0.830840222229502,"false"
"image-keyboard-response",394,375722,"0.0-4.127-1.127","8jxfghq01ea6w1l",89,"76.csv","","null","resources/maskTrios/BBA3.jpg","null","",NA,NA,NA,NA,""
"image-keyboard-response",395,376936,"0.0-4.127-2.127","8jxfghq01ea6w1l",89,"76.csv","","null","resources/images/fishbone.png","null","",NA,NA,NA,NA,""
"image-keyboard-response",396,377303,"0.0-4.128-0.128","8jxfghq01ea6w1l",89,"76.csv","","365.90000009536743","resources/trios/L1T2A3.jpg","38","restless",0.5,0.5,0.5,0.182688914998606,"true"
"image-keyboard-response",397,377715,"0.0-4.128-1.128","8jxfghq01ea6w1l",89,"76.csv","","null","resources/maskTrios/BT2B.jpg","null","",NA,NA,NA,NA,""
"image-keyboard-response",398,378930,"0.0-4.128-2.128","8jxfghq01ea6w1l",89,"76.csv","","null","resources/images/coin2.png","null","",NA,NA,NA,NA,""
"image-keyboard-response",399,425038,"0.0-4.129-0.129","8jxfghq01ea6w1l",89,"76.csv","","46107.199999928474","resources/trios/L1T2A3.jpg","38","restless",0.5,0.5,0.6,0.800474829074993,"false"
"image-keyboard-response",400,425447,"0.0-4.129-1.129","8jxfghq01ea6w1l",89,"76.csv","","null","resources/maskTrios/BT2B.jpg","null","",NA,NA,NA,NA,""
"image-keyboard-response",401,426662,"0.0-4.129-2.129","8jxfghq01ea6w1l",89,"76.csv","","null","resources/images/fishbone.png","null","",NA,NA,NA,NA,""
"image-keyboard-response",402,426941,"0.0-4.130-0.130","8jxfghq01ea6w1l",89,"76.csv","","278.10000002384186","resources/trios/L1T2A3.jpg","37","restless",0.5,0.5,0.6,0.18856973055351,"true"
"image-keyboard-response",403,427354,"0.0-4.130-1.130","8jxfghq01ea6w1l",89,"76.csv","","null","resources/maskTrios/L1BB.jpg","null","",NA,NA,NA,NA,""
"image-keyboard-response",404,428565,"0.0-4.130-2.130","8jxfghq01ea6w1l",89,"76.csv","","null","resources/images/coin2.png","null","",NA,NA,NA,NA,""
"image-keyboard-response",405,429548,"0.0-4.131-0.131","8jxfghq01ea6w1l",89,"76.csv","","981.5999999046326","resources/trios/L1T2A3.jpg","39","restless",0.5,0.5,0.6,0.176714531590139,"true"
"image-keyboard-response",406,429962,"0.0-4.131-1.131","8jxfghq01ea6w1l",89,"76.csv","","null","resources/maskTrios/BBA3.jpg","null","",NA,NA,NA,NA,""
"image-keyboard-response",407,431177,"0.0-4.131-2.131","8jxfghq01ea6w1l",89,"76.csv","","null","resources/images/coin2.png","null","",NA,NA,NA,NA,""
"image-keyboard-response",408,432015,"0.0-4.132-0.132","8jxfghq01ea6w1l",89,"76.csv","","837.1000000238419","resources/trios/L1T2A3.jpg","38","restless",0.5,0.5,0.6,0.00697736218936984,"true"
"image-keyboard-response",409,432418,"0.0-4.132-1.132","8jxfghq01ea6w1l",89,"76.csv","","null","resources/maskTrios/BT2B.jpg","null","",NA,NA,NA,NA,""
"image-keyboard-response",410,433625,"0.0-4.132-2.132","8jxfghq01ea6w1l",89,"76.csv","","null","resources/images/coin2.png","null","",NA,NA,NA,NA,""
"image-keyboard-response",411,433952,"0.0-4.133-0.133","8jxfghq01ea6w1l",89,"76.csv","","325.7999999523163","resources/trios/L1T2A3.jpg","37","restless",0.5,0.5,0.7,0.0626425388802661,"true"
"image-keyboard-response",412,434361,"0.0-4.133-1.133","8jxfghq01ea6w1l",89,"76.csv","","null","resources/maskTrios/L1BB.jpg","null","",NA,NA,NA,NA,""
"image-keyboard-response",413,435575,"0.0-4.133-2.133","8jxfghq01ea6w1l",89,"76.csv","","null","resources/images/coin2.png","null","",NA,NA,NA,NA,""
"image-keyboard-response",414,435635,"0.0-4.134-0.134","8jxfghq01ea6w1l",89,"76.csv","","59.5","resources/trios/L1T2A3.jpg","39","restless",0.5,0.5,0.7,0.0315099963543217,"true"
"image-keyboard-response",415,436050,"0.0-4.134-1.134","8jxfghq01ea6w1l",89,"76.csv","","null","resources/maskTrios/BBA3.jpg","null","",NA,NA,NA,NA,""
"image-keyboard-response",416,437264,"0.0-4.134-2.134","8jxfghq01ea6w1l",89,"76.csv","","null","resources/images/coin2.png","null","",NA,NA,NA,NA,""
"image-keyboard-response",417,437560,"0.0-4.135-0.135","8jxfghq01ea6w1l",89,"76.csv","","295.3000000715256","resources/trios/L1T2A3.jpg","38","restless",0.5,0.5,0.7,0.0462675909101233,"true"
"image-keyboard-response",418,437967,"0.0-4.135-1.135","8jxfghq01ea6w1l",89,"76.csv","","null","resources/maskTrios/BT2B.jpg","null","",NA,NA,NA,NA,""
"image-keyboard-response",419,439180,"0.0-4.135-2.135","8jxfghq01ea6w1l",89,"76.csv","","null","resources/images/coin2.png","null","",NA,NA,NA,NA,""
"image-keyboard-response",420,439196,"0.0-4.136-0.136","8jxfghq01ea6w1l",89,"76.csv","","15.399999976158142","resources/trios/L1T2A3.jpg","37","restless",0.4,0.5,0.7,0.783503969260556,"false"
"image-keyboard-response",421,439598,"0.0-4.136-1.136","8jxfghq01ea6w1l",89,"76.csv","","null","resources/maskTrios/L1BB.jpg","null","",NA,NA,NA,NA,""
"image-keyboard-response",422,440813,"0.0-4.136-2.136","8jxfghq01ea6w1l",89,"76.csv","","null","resources/images/fishbone.png","null","",NA,NA,NA,NA,""
"image-keyboard-response",423,441123,"0.0-4.137-0.137","8jxfghq01ea6w1l",89,"76.csv","","309.60000002384186","resources/trios/L1T2A3.jpg","39","restless",0.4,0.5,0.7,0.887525236945969,"false"
"image-keyboard-response",424,441527,"0.0-4.137-1.137","8jxfghq01ea6w1l",89,"76.csv","","null","resources/maskTrios/BBA3.jpg","null","",NA,NA,NA,NA,""
"image-keyboard-response",425,442740,"0.0-4.137-2.137","8jxfghq01ea6w1l",89,"76.csv","","null","resources/images/fishbone.png","null","",NA,NA,NA,NA,""
"image-keyboard-response",426,442972,"0.0-4.138-0.138","8jxfghq01ea6w1l",89,"76.csv","","230.60000002384186","resources/trios/L1T2A3.jpg","38","restless",0.4,0.5,0.7,0.609810592656113,"false"
"image-keyboard-response",427,443383,"0.0-4.138-1.138","8jxfghq01ea6w1l",89,"76.csv","","null","resources/maskTrios/BT2B.jpg","null","",NA,NA,NA,NA,""
"image-keyboard-response",428,444595,"0.0-4.138-2.138","8jxfghq01ea6w1l",89,"76.csv","","null","resources/images/fishbone.png","null","",NA,NA,NA,NA,""
"image-keyboard-response",429,444763,"0.0-4.139-0.139","8jxfghq01ea6w1l",89,"76.csv","","167.5","resources/trios/L1T2A3.jpg","39","restless",0.4,0.5,0.8,0.0843992880734248,"true"
"image-keyboard-response",430,445178,"0.0-4.139-1.139","8jxfghq01ea6w1l",89,"76.csv","","null","resources/maskTrios/BBA3.jpg","null","",NA,NA,NA,NA,""
"image-keyboard-response",431,446392,"0.0-4.139-2.139","8jxfghq01ea6w1l",89,"76.csv","","null","resources/images/coin2.png","null","",NA,NA,NA,NA,""
"image-keyboard-response",432,446466,"0.0-4.140-0.140","8jxfghq01ea6w1l",89,"76.csv","","73","resources/trios/L1T2A3.jpg","37","restless",0.4,0.4,0.7,0.728188443369703,"false"
"image-keyboard-response",433,446880,"0.0-4.140-1.140","8jxfghq01ea6w1l",89,"76.csv","","null","resources/maskTrios/L1BB.jpg","null","",NA,NA,NA,NA,""
"image-keyboard-response",434,448094,"0.0-4.140-2.140","8jxfghq01ea6w1l",89,"76.csv","","null","resources/images/fishbone.png","null","",NA,NA,NA,NA,""
"image-keyboard-response",435,448221,"0.0-4.141-0.141","8jxfghq01ea6w1l",89,"76.csv","","126.60000002384186","resources/trios/L1T2A3.jpg","38","restless",0.4,0.4,0.7,0.401626092180139,"false"
"image-keyboard-response",436,448631,"0.0-4.141-1.141","8jxfghq01ea6w1l",89,"76.csv","","null","resources/maskTrios/BT2B.jpg","null","",NA,NA,NA,NA,""
"image-keyboard-response",437,449843,"0.0-4.141-2.141","8jxfghq01ea6w1l",89,"76.csv","","null","resources/images/fishbone.png","null","",NA,NA,NA,NA,""
"image-keyboard-response",438,450061,"0.0-4.142-0.142","8jxfghq01ea6w1l",89,"76.csv","","217.79999995231628","resources/trios/L1T2A3.jpg","37","restless",0.4,0.4,0.7,0.579160669759754,"false"
"image-keyboard-response",439,450475,"0.0-4.142-1.142","8jxfghq01ea6w1l",89,"76.csv","","null","resources/maskTrios/L1BB.jpg","null","",NA,NA,NA,NA,""
"image-keyboard-response",440,451690,"0.0-4.142-2.142","8jxfghq01ea6w1l",89,"76.csv","","null","resources/images/fishbone.png","null","",NA,NA,NA,NA,""
"image-keyboard-response",441,451788,"0.0-4.143-0.143","8jxfghq01ea6w1l",89,"76.csv","","96.80000007152557","resources/trios/L1T2A3.jpg","39","restless",0.4,0.3,0.7,0.850642739658471,"false"
"image-keyboard-response",442,452196,"0.0-4.143-1.143","8jxfghq01ea6w1l",89,"76.csv","","null","resources/maskTrios/BBA3.jpg","null","",NA,NA,NA,NA,""
"image-keyboard-response",443,453408,"0.0-4.143-2.143","8jxfghq01ea6w1l",89,"76.csv","","null","resources/images/fishbone.png","null","",NA,NA,NA,NA,""
"image-keyboard-response",444,453542,"0.0-4.144-0.144","8jxfghq01ea6w1l",89,"76.csv","","133","resources/trios/L1T2A3.jpg","38","restless",0.4,0.3,0.7,0.126740088499468,"true"
"image-keyboard-response",445,453955,"0.0-4.144-1.144","8jxfghq01ea6w1l",89,"76.csv","","null","resources/maskTrios/BT2B.jpg","null","",NA,NA,NA,NA,""
"image-keyboard-response",446,455169,"0.0-4.144-2.144","8jxfghq01ea6w1l",89,"76.csv","","null","resources/images/coin2.png","null","",NA,NA,NA,NA,""
"image-keyboard-response",447,455438,"0.0-4.145-0.145","8jxfghq01ea6w1l",89,"76.csv","","268.10000002384186","resources/trios/L1T2A3.jpg","37","restless",0.4,0.3,0.7,0.132892894179976,"true"
"image-keyboard-response",448,455840,"0.0-4.145-1.145","8jxfghq01ea6w1l",89,"76.csv","","null","resources/maskTrios/L1BB.jpg","null","",NA,NA,NA,NA,""
"image-keyboard-response",449,457055,"0.0-4.145-2.145","8jxfghq01ea6w1l",89,"76.csv","","null","resources/images/coin2.png","null","",NA,NA,NA,NA,""
"image-keyboard-response",450,458521,"0.0-4.146-0.146","8jxfghq01ea6w1l",89,"76.csv","","1465.7999999523163","resources/trios/L1T2A3.jpg","37","restless",0.4,0.3,0.7,0.261913899170486,"true"
"image-keyboard-response",451,458924,"0.0-4.146-1.146","8jxfghq01ea6w1l",89,"76.csv","","null","resources/maskTrios/L1BB.jpg","null","",NA,NA,NA,NA,""
"image-keyboard-response",452,460134,"0.0-4.146-2.146","8jxfghq01ea6w1l",89,"76.csv","","null","resources/images/coin2.png","null","",NA,NA,NA,NA,""
"image-keyboard-response",453,460313,"0.0-4.147-0.147","8jxfghq01ea6w1l",89,"76.csv","","178.30000007152557","resources/trios/L1T2A3.jpg","38","restless",0.4,0.2,0.6,0.217839922962705,"false"
"image-keyboard-response",454,460726,"0.0-4.147-1.147","8jxfghq01ea6w1l",89,"76.csv","","null","resources/maskTrios/BT2B.jpg","null","",NA,NA,NA,NA,""
"image-keyboard-response",455,461931,"0.0-4.147-2.147","8jxfghq01ea6w1l",89,"76.csv","","null","resources/images/fishbone.png","null","",NA,NA,NA,NA,""
"image-keyboard-response",456,462073,"0.0-4.148-0.148","8jxfghq01ea6w1l",89,"76.csv","","140.60000002384186","resources/trios/L1T2A3.jpg","37","restless",0.4,0.2,0.6,0.0440861185019505,"true"
"image-keyboard-response",457,462485,"0.0-4.148-1.148","8jxfghq01ea6w1l",89,"76.csv","","null","resources/maskTrios/L1BB.jpg","null","",NA,NA,NA,NA,""
"image-keyboard-response",458,463700,"0.0-4.148-2.148","8jxfghq01ea6w1l",89,"76.csv","","null","resources/images/coin2.png","null","",NA,NA,NA,NA,""
"image-keyboard-response",459,463810,"0.0-4.149-0.149","8jxfghq01ea6w1l",89,"76.csv","","109.29999995231628","resources/trios/L1T2A3.jpg","39","restless",0.4,0.2,0.6,0.565082097089504,"true"
"image-keyboard-response",460,464224,"0.0-4.149-1.149","8jxfghq01ea6w1l",89,"76.csv","","null","resources/maskTrios/BBA3.jpg","null","",NA,NA,NA,NA,""
"image-keyboard-response",461,465438,"0.0-4.149-2.149","8jxfghq01ea6w1l",89,"76.csv","","null","resources/images/coin2.png","null","",NA,NA,NA,NA,""
"image-keyboard-response",462,465549,"0.0-4.150-0.150","8jxfghq01ea6w1l",89,"76.csv","","110.5","resources/trios/L1T2A3.jpg","38","restless",0.4,0.1,0.6,0.878940815083849,"false"
"image-keyboard-response",463,465952,"0.0-4.150-1.150","8jxfghq01ea6w1l",89,"76.csv","","null","resources/maskTrios/BT2B.jpg","null","",NA,NA,NA,NA,""
"image-keyboard-response",464,467166,"0.0-4.150-2.150","8jxfghq01ea6w1l",89,"76.csv","","null","resources/images/fishbone.png","null","",NA,NA,NA,NA,""
"image-keyboard-response",465,467586,"0.0-4.151-0.151","8jxfghq01ea6w1l",89,"76.csv","","419.2999999523163","resources/trios/L1T2A3.jpg","37","restless",0.4,0.1,0.6,0.69161209966609,"false"
"image-keyboard-response",466,468001,"0.0-4.151-1.151","8jxfghq01ea6w1l",89,"76.csv","","null","resources/maskTrios/L1BB.jpg","null","",NA,NA,NA,NA,""
"image-keyboard-response",467,469215,"0.0-4.151-2.151","8jxfghq01ea6w1l",89,"76.csv","","null","resources/images/fishbone.png","null","",NA,NA,NA,NA,""
"image-keyboard-response",468,471231,"0.0-4.152-0.152","8jxfghq01ea6w1l",89,"76.csv","","2015","resources/trios/L1T2A3.jpg","38","restless",0.4,0.1,0.6,0.333685193774372,"false"
"image-keyboard-response",469,471638,"0.0-4.152-1.152","8jxfghq01ea6w1l",89,"76.csv","","null","resources/maskTrios/BT2B.jpg","null","",NA,NA,NA,NA,""
"image-keyboard-response",470,472845,"0.0-4.152-2.152","8jxfghq01ea6w1l",89,"76.csv","","null","resources/images/fishbone.png","null","",NA,NA,NA,NA,""
"image-keyboard-response",471,474216,"0.0-4.153-0.153","8jxfghq01ea6w1l",89,"76.csv","","1369.3999999761581","resources/trios/L1T2A3.jpg","37","restless",0.4,0.1,0.7,0.847845843175938,"false"
"image-keyboard-response",472,474632,"0.0-4.153-1.153","8jxfghq01ea6w1l",89,"76.csv","","null","resources/maskTrios/L1BB.jpg","null","",NA,NA,NA,NA,""
"image-keyboard-response",473,475834,"0.0-4.153-2.153","8jxfghq01ea6w1l",89,"76.csv","","null","resources/images/fishbone.png","null","",NA,NA,NA,NA,""
"image-keyboard-response",474,481316,"0.0-4.154-0.154","8jxfghq01ea6w1l",89,"76.csv","","5492.200000047684","resources/trios/L1T2A3.jpg","38","restless",0.4,0.1,0.7,0.842221442893895,"false"
"image-keyboard-response",475,481719,"0.0-4.154-1.154","8jxfghq01ea6w1l",89,"76.csv","","null","resources/maskTrios/BT2B.jpg","null","",NA,NA,NA,NA,""
"image-keyboard-response",476,482933,"0.0-4.154-2.154","8jxfghq01ea6w1l",89,"76.csv","","null","resources/images/fishbone.png","null","",NA,NA,NA,NA,""
"image-keyboard-response",477,483949,"0.0-4.155-0.155","8jxfghq01ea6w1l",89,"76.csv","","1014.8000000715256","resources/trios/L1T2A3.jpg","39","restless",0.4,0.1,0.7,0.785176449761211,"false"
"image-keyboard-response",478,484357,"0.0-4.155-1.155","8jxfghq01ea6w1l",89,"76.csv","","null","resources/maskTrios/BBA3.jpg","null","",NA,NA,NA,NA,""
"image-keyboard-response",479,485570,"0.0-4.155-2.155","8jxfghq01ea6w1l",89,"76.csv","","null","resources/images/fishbone.png","null","",NA,NA,NA,NA,""
"image-keyboard-response",480,485908,"0.0-4.156-0.156","8jxfghq01ea6w1l",89,"76.csv","","337","resources/trios/L1T2A3.jpg","38","restless",0.4,0.2,0.7,0.0167058398709723,"true"
"image-keyboard-response",481,486322,"0.0-4.156-1.156","8jxfghq01ea6w1l",89,"76.csv","","null","resources/maskTrios/BT2B.jpg","null","",NA,NA,NA,NA,""
"image-keyboard-response",482,487536,"0.0-4.156-2.156","8jxfghq01ea6w1l",89,"76.csv","","null","resources/images/coin2.png","null","",NA,NA,NA,NA,""
"image-keyboard-response",483,489951,"0.0-4.157-0.157","8jxfghq01ea6w1l",89,"76.csv","","2413.6999999284744","resources/trios/L1T2A3.jpg","37","restless",0.5,0.3,0.7,0.529253990270474,"false"
"image-keyboard-response",484,490366,"0.0-4.157-1.157","8jxfghq01ea6w1l",89,"76.csv","","null","resources/maskTrios/L1BB.jpg","null","",NA,NA,NA,NA,""
"image-keyboard-response",485,491580,"0.0-4.157-2.157","8jxfghq01ea6w1l",89,"76.csv","","null","resources/images/fishbone.png","null","",NA,NA,NA,NA,""
"image-keyboard-response",486,491877,"0.0-4.158-0.158","8jxfghq01ea6w1l",89,"76.csv","","295.60000002384186","resources/trios/L1T2A3.jpg","38","restless",0.5,0.3,0.7,0.361212286398701,"false"
"image-keyboard-response",487,492288,"0.0-4.158-1.158","8jxfghq01ea6w1l",89,"76.csv","","null","resources/maskTrios/BT2B.jpg","null","",NA,NA,NA,NA,""
"image-keyboard-response",488,493493,"0.0-4.158-2.158","8jxfghq01ea6w1l",89,"76.csv","","null","resources/images/fishbone.png","null","",NA,NA,NA,NA,""
"image-keyboard-response",489,493747,"0.0-4.159-0.159","8jxfghq01ea6w1l",89,"76.csv","","253.5","resources/trios/L1T2A3.jpg","37","restless",0.5,0.3,0.7,0.201567233290523,"true"
"image-keyboard-response",490,494150,"0.0-4.159-1.159","8jxfghq01ea6w1l",89,"76.csv","","null","resources/maskTrios/L1BB.jpg","null","",NA,NA,NA,NA,""
"image-keyboard-response",491,495364,"0.0-4.159-2.159","8jxfghq01ea6w1l",89,"76.csv","","null","resources/images/coin2.png","null","",NA,NA,NA,NA,""
"image-keyboard-response",492,496204,"0.0-4.160-0.160","8jxfghq01ea6w1l",89,"76.csv","","839.1999999284744","resources/trios/L1T2A3.jpg","37","restless",0.5,0.3,0.6,0.552956388170514,"false"
"image-keyboard-response",493,496619,"0.0-4.160-1.160","8jxfghq01ea6w1l",89,"76.csv","","null","resources/maskTrios/L1BB.jpg","null","",NA,NA,NA,NA,""
"image-keyboard-response",494,497832,"0.0-4.160-2.160","8jxfghq01ea6w1l",89,"76.csv","","null","resources/images/fishbone.png","null","",NA,NA,NA,NA,""
"image-keyboard-response",495,498075,"0.0-4.161-0.161","8jxfghq01ea6w1l",89,"76.csv","","241.39999997615814","resources/trios/L1T2A3.jpg","38","restless",0.5,0.4,0.6,0.0558241271356246,"true"
"image-keyboard-response",496,498485,"0.0-4.161-1.161","8jxfghq01ea6w1l",89,"76.csv","","null","resources/maskTrios/BT2B.jpg","null","",NA,NA,NA,NA,""
"image-keyboard-response",497,499698,"0.0-4.161-2.161","8jxfghq01ea6w1l",89,"76.csv","","null","resources/images/coin2.png","null","",NA,NA,NA,NA,""
"image-keyboard-response",498,499974,"0.0-4.162-0.162","8jxfghq01ea6w1l",89,"76.csv","","275.5","resources/trios/L1T2A3.jpg","39","restless",0.5,0.4,0.6,0.599952648897581,"true"
"image-keyboard-response",499,500385,"0.0-4.162-1.162","8jxfghq01ea6w1l",89,"76.csv","","null","resources/maskTrios/BBA3.jpg","null","",NA,NA,NA,NA,""
"image-keyboard-response",500,501597,"0.0-4.162-2.162","8jxfghq01ea6w1l",89,"76.csv","","null","resources/images/coin2.png","null","",NA,NA,NA,NA,""
"image-keyboard-response",501,501932,"0.0-4.163-0.163","8jxfghq01ea6w1l",89,"76.csv","","332.5","resources/trios/L1T2A3.jpg","37","restless",0.6,0.4,0.6,0.59297633695954,"true"
"image-keyboard-response",502,502335,"0.0-4.163-1.163","8jxfghq01ea6w1l",89,"76.csv","","null","resources/maskTrios/L1BB.jpg","null","",NA,NA,NA,NA,""
"image-keyboard-response",503,503547,"0.0-4.163-2.163","8jxfghq01ea6w1l",89,"76.csv","","null","resources/images/coin2.png","null","",NA,NA,NA,NA,""
"image-keyboard-response",504,503633,"0.0-4.164-0.164","8jxfghq01ea6w1l",89,"76.csv","","85.5","resources/trios/L1T2A3.jpg","38","restless",0.6,0.4,0.6,0.562327907599807,"false"
"image-keyboard-response",505,504049,"0.0-4.164-1.164","8jxfghq01ea6w1l",89,"76.csv","","null","resources/maskTrios/BT2B.jpg","null","",NA,NA,NA,NA,""
"image-keyboard-response",506,505263,"0.0-4.164-2.164","8jxfghq01ea6w1l",89,"76.csv","","null","resources/images/fishbone.png","null","",NA,NA,NA,NA,""
"image-keyboard-response",507,505588,"0.0-4.165-0.165","8jxfghq01ea6w1l",89,"76.csv","","323.60000002384186","resources/trios/L1T2A3.jpg","39","restless",0.6,0.3,0.6,0.04519236543164,"true"
"image-keyboard-response",508,505992,"0.0-4.165-1.165","8jxfghq01ea6w1l",89,"76.csv","","null","resources/maskTrios/BBA3.jpg","null","",NA,NA,NA,NA,""
"image-keyboard-response",509,507207,"0.0-4.165-2.165","8jxfghq01ea6w1l",89,"76.csv","","null","resources/images/coin2.png","null","",NA,NA,NA,NA,""
"image-keyboard-response",510,511916,"0.0-4.166-0.166","8jxfghq01ea6w1l",89,"76.csv","","4708","resources/trios/L1T2A3.jpg","37","restless",0.6,0.3,0.6,0.33621663523081,"true"
"image-keyboard-response",511,512330,"0.0-4.166-1.166","8jxfghq01ea6w1l",89,"76.csv","","null","resources/maskTrios/L1BB.jpg","null","",NA,NA,NA,NA,""
"image-keyboard-response",512,513544,"0.0-4.166-2.166","8jxfghq01ea6w1l",89,"76.csv","","null","resources/images/coin2.png","null","",NA,NA,NA,NA,""
"image-keyboard-response",513,514611,"0.0-4.167-0.167","8jxfghq01ea6w1l",89,"76.csv","","1066","resources/trios/L1T2A3.jpg","38","restless",0.7,0.3,0.6,0.486842865432695,"false"
"image-keyboard-response",514,515014,"0.0-4.167-1.167","8jxfghq01ea6w1l",89,"76.csv","","null","resources/maskTrios/BT2B.jpg","null","",NA,NA,NA,NA,""
"image-keyboard-response",515,516219,"0.0-4.167-2.167","8jxfghq01ea6w1l",89,"76.csv","","null","resources/images/fishbone.png","null","",NA,NA,NA,NA,""
"image-keyboard-response",516,518204,"0.0-4.168-0.168","8jxfghq01ea6w1l",89,"76.csv","","1984.6000000238419","resources/trios/L1T2A3.jpg","39","restless",0.7,0.3,0.6,0.164163590698496,"true"
"image-keyboard-response",517,518606,"0.0-4.168-1.168","8jxfghq01ea6w1l",89,"76.csv","","null","resources/maskTrios/BBA3.jpg","null","",NA,NA,NA,NA,""
"image-keyboard-response",518,519821,"0.0-4.168-2.168","8jxfghq01ea6w1l",89,"76.csv","","null","resources/images/coin2.png","null","",NA,NA,NA,NA,""
"image-keyboard-response",519,520301,"0.0-4.169-0.169","8jxfghq01ea6w1l",89,"76.csv","","479.1999999284744","resources/trios/L1T2A3.jpg","37","restless",0.7,0.4,0.6,0.574956991133067,"true"
"image-keyboard-response",520,520711,"0.0-4.169-1.169","8jxfghq01ea6w1l",89,"76.csv","","null","resources/maskTrios/L1BB.jpg","null","",NA,NA,NA,NA,""
"image-keyboard-response",521,521917,"0.0-4.169-2.169","8jxfghq01ea6w1l",89,"76.csv","","null","resources/images/coin2.png","null","",NA,NA,NA,NA,""
"image-keyboard-response",522,522156,"0.0-4.170-0.170","8jxfghq01ea6w1l",89,"76.csv","","237.59999990463257","resources/trios/L1T2A3.jpg","38","restless",0.7,0.4,0.6,0.532296162989002,"false"
"image-keyboard-response",523,522559,"0.0-4.170-1.170","8jxfghq01ea6w1l",89,"76.csv","","null","resources/maskTrios/BT2B.jpg","null","",NA,NA,NA,NA,""
"image-keyboard-response",524,523766,"0.0-4.170-2.170","8jxfghq01ea6w1l",89,"76.csv","","null","resources/images/fishbone.png","null","",NA,NA,NA,NA,""
"image-keyboard-response",525,523926,"0.0-4.171-0.171","8jxfghq01ea6w1l",89,"76.csv","","159.60000002384186","resources/trios/L1T2A3.jpg","39","restless",0.7,0.4,0.6,0.467523534732364,"true"
"image-keyboard-response",526,524336,"0.0-4.171-1.171","8jxfghq01ea6w1l",89,"76.csv","","null","resources/maskTrios/BBA3.jpg","null","",NA,NA,NA,NA,""
"image-keyboard-response",527,525551,"0.0-4.171-2.171","8jxfghq01ea6w1l",89,"76.csv","","null","resources/images/coin2.png","null","",NA,NA,NA,NA,""
"image-keyboard-response",528,525666,"0.0-4.172-0.172","8jxfghq01ea6w1l",89,"76.csv","","114.89999997615814","resources/trios/L1T2A3.jpg","37","restless",0.7,0.4,0.6,0.906506747798282,"false"
"image-keyboard-response",529,526077,"0.0-4.172-1.172","8jxfghq01ea6w1l",89,"76.csv","","null","resources/maskTrios/L1BB.jpg","null","",NA,NA,NA,NA,""
"image-keyboard-response",530,527285,"0.0-4.172-2.172","8jxfghq01ea6w1l",89,"76.csv","","null","resources/images/fishbone.png","null","",NA,NA,NA,NA,""
"image-keyboard-response",531,528345,"0.0-4.173-0.173","8jxfghq01ea6w1l",89,"76.csv","","1058.7999999523163","resources/trios/L1T2A3.jpg","38","restless",0.7,0.4,0.6,0.262467838451653,"true"
"image-keyboard-response",532,528751,"0.0-4.173-1.173","8jxfghq01ea6w1l",89,"76.csv","","null","resources/maskTrios/BT2B.jpg","null","",NA,NA,NA,NA,""
"image-keyboard-response",533,529966,"0.0-4.173-2.173","8jxfghq01ea6w1l",89,"76.csv","","null","resources/images/coin2.png","null","",NA,NA,NA,NA,""
"image-keyboard-response",534,530313,"0.0-4.174-0.174","8jxfghq01ea6w1l",89,"76.csv","","346.60000002384186","resources/trios/L1T2A3.jpg","39","restless",0.7,0.4,0.6,0.473012443544981,"true"
"image-keyboard-response",535,530725,"0.0-4.174-1.174","8jxfghq01ea6w1l",89,"76.csv","","null","resources/maskTrios/BBA3.jpg","null","",NA,NA,NA,NA,""
"image-keyboard-response",536,531937,"0.0-4.174-2.174","8jxfghq01ea6w1l",89,"76.csv","","null","resources/images/coin2.png","null","",NA,NA,NA,NA,""
"image-keyboard-response",537,532316,"0.0-4.175-0.175","8jxfghq01ea6w1l",89,"76.csv","","378.10000002384186","resources/trios/L1T2A3.jpg","37","restless",0.6,0.3,0.6,0.853635499317183,"false"
"image-keyboard-response",538,532718,"0.0-4.175-1.175","8jxfghq01ea6w1l",89,"76.csv","","null","resources/maskTrios/L1BB.jpg","null","",NA,NA,NA,NA,""
"image-keyboard-response",539,533923,"0.0-4.175-2.175","8jxfghq01ea6w1l",89,"76.csv","","null","resources/images/fishbone.png","null","",NA,NA,NA,NA,""
"image-keyboard-response",540,535319,"0.0-4.176-0.176","8jxfghq01ea6w1l",89,"76.csv","","1394.8000000715256","resources/trios/L1T2A3.jpg","38","restless",0.6,0.3,0.6,0.168202682195886,"true"
"image-keyboard-response",541,535725,"0.0-4.176-1.176","8jxfghq01ea6w1l",89,"76.csv","","null","resources/maskTrios/BT2B.jpg","null","",NA,NA,NA,NA,""
"image-keyboard-response",542,536938,"0.0-4.176-2.176","8jxfghq01ea6w1l",89,"76.csv","","null","resources/images/coin2.png","null","",NA,NA,NA,NA,""
"image-keyboard-response",543,537201,"0.0-4.177-0.177","8jxfghq01ea6w1l",89,"76.csv","","262.39999997615814","resources/trios/L1T2A3.jpg","39","restless",0.6,0.3,0.6,0.607520772292057,"false"
"image-keyboard-response",544,537619,"0.0-4.177-1.177","8jxfghq01ea6w1l",89,"76.csv","","null","resources/maskTrios/BBA3.jpg","null","",NA,NA,NA,NA,""
"image-keyboard-response",545,538829,"0.0-4.177-2.177","8jxfghq01ea6w1l",89,"76.csv","","null","resources/images/fishbone.png","null","",NA,NA,NA,NA,""
"image-keyboard-response",546,538999,"0.0-4.178-0.178","8jxfghq01ea6w1l",89,"76.csv","","169.80000007152557","resources/trios/L1T2A3.jpg","37","restless",0.6,0.3,0.6,0.550218322595906,"true"
"image-keyboard-response",547,539405,"0.0-4.178-1.178","8jxfghq01ea6w1l",89,"76.csv","","null","resources/maskTrios/L1BB.jpg","null","",NA,NA,NA,NA,""
"image-keyboard-response",548,540617,"0.0-4.178-2.178","8jxfghq01ea6w1l",89,"76.csv","","null","resources/images/coin2.png","null","",NA,NA,NA,NA,""
"image-keyboard-response",549,543376,"0.0-4.179-0.179","8jxfghq01ea6w1l",89,"76.csv","","2746.100000023842","resources/trios/L1T2A3.jpg","38","restless",0.6,0.3,0.6,0.713634449607551,"false"
"image-keyboard-response",550,543778,"0.0-4.179-1.179","8jxfghq01ea6w1l",89,"76.csv","","null","resources/maskTrios/BT2B.jpg","null","",NA,NA,NA,NA,""
"image-keyboard-response",551,544993,"0.0-4.179-2.179","8jxfghq01ea6w1l",89,"76.csv","","null","resources/images/fishbone.png","null","",NA,NA,NA,NA,""
"image-keyboard-response",552,545606,"0.0-4.180-0.180","8jxfghq01ea6w1l",89,"76.csv","","612.3000000715256","resources/trios/L1T2A3.jpg","37","restless",0.6,0.3,0.6,0.529548349348821,"true"
"image-keyboard-response",553,546011,"0.0-4.180-1.180","8jxfghq01ea6w1l",89,"76.csv","","null","resources/maskTrios/L1BB.jpg","null","",NA,NA,NA,NA,""
"image-keyboard-response",554,547225,"0.0-4.180-2.180","8jxfghq01ea6w1l",89,"76.csv","","null","resources/images/coin2.png","null","",NA,NA,NA,NA,""
"image-keyboard-response",555,547408,"0.0-4.181-0.181","8jxfghq01ea6w1l",89,"76.csv","","181.60000002384186","resources/trios/L1T2A3.jpg","39","restless",0.6,0.3,0.6,0.755282266287076,"false"
"image-keyboard-response",556,547810,"0.0-4.181-1.181","8jxfghq01ea6w1l",89,"76.csv","","null","resources/maskTrios/BBA3.jpg","null","",NA,NA,NA,NA,""
"image-keyboard-response",557,549020,"0.0-4.181-2.181","8jxfghq01ea6w1l",89,"76.csv","","null","resources/images/fishbone.png","null","",NA,NA,NA,NA,""
"image-keyboard-response",558,549467,"0.0-4.182-0.182","8jxfghq01ea6w1l",89,"76.csv","","446","resources/trios/L1T2A3.jpg","38","restless",0.6,0.3,0.6,0.597359246333662,"false"
"image-keyboard-response",559,549880,"0.0-4.182-1.182","8jxfghq01ea6w1l",89,"76.csv","","null","resources/maskTrios/BT2B.jpg","null","",NA,NA,NA,NA,""
"image-keyboard-response",560,551092,"0.0-4.182-2.182","8jxfghq01ea6w1l",89,"76.csv","","null","resources/images/fishbone.png","null","",NA,NA,NA,NA,""
"image-keyboard-response",561,551944,"0.0-4.183-0.183","8jxfghq01ea6w1l",89,"76.csv","","850.9000000953674","resources/trios/L1T2A3.jpg","37","restless",0.6,0.3,0.6,0.0874474681861721,"true"
"image-keyboard-response",562,552354,"0.0-4.183-1.183","8jxfghq01ea6w1l",89,"76.csv","","null","resources/maskTrios/L1BB.jpg","null","",NA,NA,NA,NA,""
"image-keyboard-response",563,553568,"0.0-4.183-2.183","8jxfghq01ea6w1l",89,"76.csv","","null","resources/images/coin2.png","null","",NA,NA,NA,NA,""
"image-keyboard-response",564,554034,"0.0-4.184-0.184","8jxfghq01ea6w1l",89,"76.csv","","464.2000000476837","resources/trios/L1T2A3.jpg","39","restless",0.6,0.4,0.7,0.364402824824145,"true"
"image-keyboard-response",565,554445,"0.0-4.184-1.184","8jxfghq01ea6w1l",89,"76.csv","","null","resources/maskTrios/BBA3.jpg","null","",NA,NA,NA,NA,""
"image-keyboard-response",566,555650,"0.0-4.184-2.184","8jxfghq01ea6w1l",89,"76.csv","","null","resources/images/coin2.png","null","",NA,NA,NA,NA,""
"image-keyboard-response",567,556506,"0.0-4.185-0.185","8jxfghq01ea6w1l",89,"76.csv","","855.3999999761581","resources/trios/L1T2A3.jpg","38","restless",0.6,0.4,0.7,0.828938460768242,"false"
"image-keyboard-response",568,556912,"0.0-4.185-1.185","8jxfghq01ea6w1l",89,"76.csv","","null","resources/maskTrios/BT2B.jpg","null","",NA,NA,NA,NA,""
"image-keyboard-response",569,558120,"0.0-4.185-2.185","8jxfghq01ea6w1l",89,"76.csv","","null","resources/images/fishbone.png","null","",NA,NA,NA,NA,""
"image-keyboard-response",570,558589,"0.0-4.186-0.186","8jxfghq01ea6w1l",89,"76.csv","","468.39999997615814","resources/trios/L1T2A3.jpg","37","restless",0.6,0.4,0.7,0.998131906374742,"false"
"image-keyboard-response",571,558993,"0.0-4.186-1.186","8jxfghq01ea6w1l",89,"76.csv","","null","resources/maskTrios/L1BB.jpg","null","",NA,NA,NA,NA,""
"image-keyboard-response",572,560206,"0.0-4.186-2.186","8jxfghq01ea6w1l",89,"76.csv","","null","resources/images/fishbone.png","null","",NA,NA,NA,NA,""
"image-keyboard-response",573,560340,"0.0-4.187-0.187","8jxfghq01ea6w1l",89,"76.csv","","132.80000007152557","resources/trios/L1T2A3.jpg","39","restless",0.6,0.4,0.7,0.721583282064785,"false"
"image-keyboard-response",574,560753,"0.0-4.187-1.187","8jxfghq01ea6w1l",89,"76.csv","","null","resources/maskTrios/BBA3.jpg","null","",NA,NA,NA,NA,""
"image-keyboard-response",575,561969,"0.0-4.187-2.187","8jxfghq01ea6w1l",89,"76.csv","","null","resources/images/fishbone.png","null","",NA,NA,NA,NA,""
"image-keyboard-response",576,562011,"0.0-4.188-0.188","8jxfghq01ea6w1l",89,"76.csv","","40.799999952316284","resources/trios/L1T2A3.jpg","38","restless",0.6,0.4,0.7,0.620991345172366,"false"
"image-keyboard-response",577,562422,"0.0-4.188-1.188","8jxfghq01ea6w1l",89,"76.csv","","null","resources/maskTrios/BT2B.jpg","null","",NA,NA,NA,NA,""
"image-keyboard-response",578,563637,"0.0-4.188-2.188","8jxfghq01ea6w1l",89,"76.csv","","null","resources/images/fishbone.png","null","",NA,NA,NA,NA,""
"image-keyboard-response",579,563705,"0.0-4.189-0.189","8jxfghq01ea6w1l",89,"76.csv","","67.80000007152557","resources/trios/L1T2A3.jpg","37","restless",0.6,0.4,0.7,0.0252491420442915,"true"
"image-keyboard-response",580,564118,"0.0-4.189-1.189","8jxfghq01ea6w1l",89,"76.csv","","null","resources/maskTrios/L1BB.jpg","null","",NA,NA,NA,NA,""
"image-keyboard-response",581,565324,"0.0-4.189-2.189","8jxfghq01ea6w1l",89,"76.csv","","null","resources/images/coin2.png","null","",NA,NA,NA,NA,""
"image-keyboard-response",582,565648,"0.0-4.190-0.190","8jxfghq01ea6w1l",89,"76.csv","","323.3000000715256","resources/trios/L1T2A3.jpg","39","restless",0.6,0.4,0.7,0.598182809443403,"true"
"image-keyboard-response",583,566058,"0.0-4.190-1.190","8jxfghq01ea6w1l",89,"76.csv","","null","resources/maskTrios/BBA3.jpg","null","",NA,NA,NA,NA,""
"image-keyboard-response",584,567275,"0.0-4.190-2.190","8jxfghq01ea6w1l",89,"76.csv","","null","resources/images/coin2.png","null","",NA,NA,NA,NA,""
"image-keyboard-response",585,567523,"0.0-4.191-0.191","8jxfghq01ea6w1l",89,"76.csv","","246.79999995231628","resources/trios/L1T2A3.jpg","37","restless",0.6,0.4,0.7,0.66385743947435,"false"
"image-keyboard-response",586,567926,"0.0-4.191-1.191","8jxfghq01ea6w1l",89,"76.csv","","null","resources/maskTrios/L1BB.jpg","null","",NA,NA,NA,NA,""
"image-keyboard-response",587,569139,"0.0-4.191-2.191","8jxfghq01ea6w1l",89,"76.csv","","null","resources/images/fishbone.png","null","",NA,NA,NA,NA,""
"image-keyboard-response",588,569632,"0.0-4.192-0.192","8jxfghq01ea6w1l",89,"76.csv","","492.5","resources/trios/L1T2A3.jpg","38","restless",0.6,0.4,0.7,0.809176275671337,"false"
"image-keyboard-response",589,570037,"0.0-4.192-1.192","8jxfghq01ea6w1l",89,"76.csv","","null","resources/maskTrios/BT2B.jpg","null","",NA,NA,NA,NA,""
"image-keyboard-response",590,571253,"0.0-4.192-2.192","8jxfghq01ea6w1l",89,"76.csv","","null","resources/images/fishbone.png","null","",NA,NA,NA,NA,""
"image-keyboard-response",591,571326,"0.0-4.193-0.193","8jxfghq01ea6w1l",89,"76.csv","","71.89999997615814","resources/trios/L1T2A3.jpg","39","restless",0.6,0.4,0.7,0.0907086857675583,"true"
"image-keyboard-response",592,571732,"0.0-4.193-1.193","8jxfghq01ea6w1l",89,"76.csv","","null","resources/maskTrios/BBA3.jpg","null","",NA,NA,NA,NA,""
"image-keyboard-response",593,572946,"0.0-4.193-2.193","8jxfghq01ea6w1l",89,"76.csv","","null","resources/images/coin2.png","null","",NA,NA,NA,NA,""
"image-keyboard-response",594,573222,"0.0-4.194-0.194","8jxfghq01ea6w1l",89,"76.csv","","275.39999997615814","resources/trios/L1T2A3.jpg","37","restless",0.6,0.4,0.7,0.54870839129217,"true"
"image-keyboard-response",595,573630,"0.0-4.194-1.194","8jxfghq01ea6w1l",89,"76.csv","","null","resources/maskTrios/L1BB.jpg","null","",NA,NA,NA,NA,""
"image-keyboard-response",596,574845,"0.0-4.194-2.194","8jxfghq01ea6w1l",89,"76.csv","","null","resources/images/coin2.png","null","",NA,NA,NA,NA,""
"image-keyboard-response",597,575312,"0.0-4.195-0.195","8jxfghq01ea6w1l",89,"76.csv","","466","resources/trios/L1T2A3.jpg","38","restless",0.6,0.5,0.7,0.828009883212169,"false"
"image-keyboard-response",598,575715,"0.0-4.195-1.195","8jxfghq01ea6w1l",89,"76.csv","","null","resources/maskTrios/BT2B.jpg","null","",NA,NA,NA,NA,""
"image-keyboard-response",599,576929,"0.0-4.195-2.195","8jxfghq01ea6w1l",89,"76.csv","","null","resources/images/fishbone.png","null","",NA,NA,NA,NA,""
"image-keyboard-response",600,577388,"0.0-4.196-0.196","8jxfghq01ea6w1l",89,"76.csv","","458.09999990463257","resources/trios/L1T2A3.jpg","37","restless",0.6,0.5,0.7,0.803105236573262,"false"
"image-keyboard-response",601,577803,"0.0-4.196-1.196","8jxfghq01ea6w1l",89,"76.csv","","null","resources/maskTrios/L1BB.jpg","null","",NA,NA,NA,NA,""
"image-keyboard-response",602,579009,"0.0-4.196-2.196","8jxfghq01ea6w1l",89,"76.csv","","null","resources/images/fishbone.png","null","",NA,NA,NA,NA,""
"image-keyboard-response",603,579320,"0.0-4.197-0.197","8jxfghq01ea6w1l",89,"76.csv","","310.3000000715256","resources/trios/L1T2A3.jpg","39","restless",0.6,0.6,0.7,0.152371861837545,"true"
"image-keyboard-response",604,579723,"0.0-4.197-1.197","8jxfghq01ea6w1l",89,"76.csv","","null","resources/maskTrios/BBA3.jpg","null","",NA,NA,NA,NA,""
"image-keyboard-response",605,580936,"0.0-4.197-2.197","8jxfghq01ea6w1l",89,"76.csv","","null","resources/images/coin2.png","null","",NA,NA,NA,NA,""
"image-keyboard-response",606,581266,"0.0-4.198-0.198","8jxfghq01ea6w1l",89,"76.csv","","330","resources/trios/L1T2A3.jpg","38","restless",0.6,0.6,0.7,0.212121439433715,"true"
"image-keyboard-response",607,581680,"0.0-4.198-1.198","8jxfghq01ea6w1l",89,"76.csv","","null","resources/maskTrios/BT2B.jpg","null","",NA,NA,NA,NA,""
"image-keyboard-response",608,582894,"0.0-4.198-2.198","8jxfghq01ea6w1l",89,"76.csv","","null","resources/images/coin2.png","null","",NA,NA,NA,NA,""
"image-keyboard-response",609,582965,"0.0-4.199-0.199","8jxfghq01ea6w1l",89,"76.csv","","70","resources/trios/L1T2A3.jpg","37","restless",0.6,0.6,0.7,0.889040941541879,"false"
"image-keyboard-response",610,583379,"0.0-4.199-1.199","8jxfghq01ea6w1l",89,"76.csv","","null","resources/maskTrios/L1BB.jpg","null","",NA,NA,NA,NA,""
"image-keyboard-response",611,584593,"0.0-4.199-2.199","8jxfghq01ea6w1l",89,"76.csv","","null","resources/images/fishbone.png","null","",NA,NA,NA,NA,""
"survey-text",612,599232,"0.0-5.0","8jxfghq01ea6w1l",89,"76.csv","","14635.599999904633","","","",NA,NA,NA,NA,""
