"trial_type","trial_index","time_elapsed","internal_node_id","subject","participantCode","walkNumber","success","rt","stimulus","key_press","test_part","leftProb","midProb","rightProb","generatedNum","correct"
"pavlovia",0,1794,"0.0-0.0","omxc7oaez7as8xu",467,"153.csv","","","","","",NA,NA,NA,NA,""
"fullscreen",1,6156,"0.0-1.0","omxc7oaez7as8xu",467,"153.csv","true","","","","",NA,NA,NA,NA,""
"survey-html-form",2,14365,"0.0-2.0","omxc7oaez7as8xu",467,"153.csv","","8208.29999999993","","","",NA,NA,NA,NA,""
"image-keyboard-response",3,25329,"0.0-3.0-0.0","omxc7oaez7as8xu",467,"153.csv","","10962.400000000023","resources/images/parrot_nobg.png","13","",NA,NA,NA,NA,""
"image-keyboard-response",4,28338,"0.0-3.0-1.0","omxc7oaez7as8xu",467,"153.csv","","null","resources/image_sets/111.png","null","",NA,NA,NA,NA,""
"image-keyboard-response",5,36919,"0.0-3.0-2.0","omxc7oaez7as8xu",467,"153.csv","","8580.300000000047","resources/image_sets/left_highlight.png","37","",NA,NA,NA,NA,""
"image-keyboard-response",6,38588,"0.0-3.0-3.0","omxc7oaez7as8xu",467,"153.csv","","1667.5","resources/image_sets/mid_highlight.png","38","",NA,NA,NA,NA,""
"image-keyboard-response",7,40056,"0.0-3.0-4.0","omxc7oaez7as8xu",467,"153.csv","","1467.6000000000931","resources/image_sets/right_highlight.png","39","",NA,NA,NA,NA,""
"image-keyboard-response",8,41968,"0.0-3.0-5.0","omxc7oaez7as8xu",467,"153.csv","","1910.5999999999767","resources/image_sets/111.png","13","",NA,NA,NA,NA,""
"image-keyboard-response",9,45309,"0.0-3.0-6.0","omxc7oaez7as8xu",467,"153.csv","","3340.9000000000233","resources/images/coin2.png","13","",NA,NA,NA,NA,""
"image-keyboard-response",10,48127,"0.0-3.0-7.0","omxc7oaez7as8xu",467,"153.csv","","2816.899999999907","resources/images/fishbone.png","13","",NA,NA,NA,NA,""
"html-keyboard-response",11,53132,"0.0-3.0-8.0","omxc7oaez7as8xu",467,"153.csv","","5004.400000000023","<p>You can track your coin total on the top right of your screen. </p><p>At the end of your journey you will be directed to a survey, so please click on the link before exiting the task</p><p>Press Enter to begin</p>","13","",NA,NA,NA,NA,""
"image-keyboard-response",12,58338,"0.0-4.0-0.0","omxc7oaez7as8xu",467,"153.csv","","5205.900000000023","resources/trios/L4T2A3.jpg","37","restless",0.7,0.3,0.9,0.303406625096722,"true"
"image-keyboard-response",13,58753,"0.0-4.0-1.0","omxc7oaez7as8xu",467,"153.csv","","null","resources/maskTrios/L4BB.jpg","null","",NA,NA,NA,NA,""
"image-keyboard-response",14,59970,"0.0-4.0-2.0","omxc7oaez7as8xu",467,"153.csv","","null","resources/images/coin2.png","null","",NA,NA,NA,NA,""
"image-keyboard-response",15,63326,"0.0-4.1-0.1","omxc7oaez7as8xu",467,"153.csv","","3354.0999999999767","resources/trios/L4T2A3.jpg","37","restless",0.6,0.3,0.9,0.252766319517655,"true"
"image-keyboard-response",16,63736,"0.0-4.1-1.1","omxc7oaez7as8xu",467,"153.csv","","null","resources/maskTrios/L4BB.jpg","null","",NA,NA,NA,NA,""
"image-keyboard-response",17,64937,"0.0-4.1-2.1","omxc7oaez7as8xu",467,"153.csv","","null","resources/images/coin2.png","null","",NA,NA,NA,NA,""
"image-keyboard-response",18,67084,"0.0-4.2-0.2","omxc7oaez7as8xu",467,"153.csv","","2145.79999999993","resources/trios/L4T2A3.jpg","39","restless",0.6,0.3,0.9,0.825784392998403,"true"
"image-keyboard-response",19,67486,"0.0-4.2-1.2","omxc7oaez7as8xu",467,"153.csv","","null","resources/maskTrios/BBA3.jpg","null","",NA,NA,NA,NA,""
"image-keyboard-response",20,68703,"0.0-4.2-2.2","omxc7oaez7as8xu",467,"153.csv","","null","resources/images/coin2.png","null","",NA,NA,NA,NA,""
"image-keyboard-response",21,72342,"0.0-4.3-0.3","omxc7oaez7as8xu",467,"153.csv","","3638.4000000000233","resources/trios/L4T2A3.jpg","37","restless",0.6,0.3,0.9,0.14872708758378,"true"
"image-keyboard-response",22,72752,"0.0-4.3-1.3","omxc7oaez7as8xu",467,"153.csv","","null","resources/maskTrios/L4BB.jpg","null","",NA,NA,NA,NA,""
"image-keyboard-response",23,73969,"0.0-4.3-2.3","omxc7oaez7as8xu",467,"153.csv","","null","resources/images/coin2.png","null","",NA,NA,NA,NA,""
"image-keyboard-response",24,76143,"0.0-4.4-0.4","omxc7oaez7as8xu",467,"153.csv","","2173.0999999999767","resources/trios/L4T2A3.jpg","38","restless",0.6,0.4,0.9,0.617343777202269,"false"
"image-keyboard-response",25,76553,"0.0-4.4-1.4","omxc7oaez7as8xu",467,"153.csv","","null","resources/maskTrios/BT2B.jpg","null","",NA,NA,NA,NA,""
"image-keyboard-response",26,77769,"0.0-4.4-2.4","omxc7oaez7as8xu",467,"153.csv","","null","resources/images/fishbone.png","null","",NA,NA,NA,NA,""
"image-keyboard-response",27,81192,"0.0-4.5-0.5","omxc7oaez7as8xu",467,"153.csv","","3422.4000000000233","resources/trios/L4T2A3.jpg","39","restless",0.6,0.4,0.9,0.887503955249107,"true"
"image-keyboard-response",28,81602,"0.0-4.5-1.5","omxc7oaez7as8xu",467,"153.csv","","null","resources/maskTrios/BBA3.jpg","null","",NA,NA,NA,NA,""
"image-keyboard-response",29,82819,"0.0-4.5-2.5","omxc7oaez7as8xu",467,"153.csv","","null","resources/images/coin2.png","null","",NA,NA,NA,NA,""
"image-keyboard-response",30,83808,"0.0-4.6-0.6","omxc7oaez7as8xu",467,"153.csv","","988.0999999999767","resources/trios/L4T2A3.jpg","37","restless",0.6,0.4,0.9,0.287982604119564,"true"
"image-keyboard-response",31,84218,"0.0-4.6-1.6","omxc7oaez7as8xu",467,"153.csv","","null","resources/maskTrios/L4BB.jpg","null","",NA,NA,NA,NA,""
"image-keyboard-response",32,85435,"0.0-4.6-2.6","omxc7oaez7as8xu",467,"153.csv","","null","resources/images/coin2.png","null","",NA,NA,NA,NA,""
"image-keyboard-response",33,86402,"0.0-4.7-0.7","omxc7oaez7as8xu",467,"153.csv","","965.9000000000233","resources/trios/L4T2A3.jpg","38","restless",0.6,0.4,0.9,0.792819645182423,"false"
"image-keyboard-response",34,86818,"0.0-4.7-1.7","omxc7oaez7as8xu",467,"153.csv","","null","resources/maskTrios/BT2B.jpg","null","",NA,NA,NA,NA,""
"image-keyboard-response",35,88020,"0.0-4.7-2.7","omxc7oaez7as8xu",467,"153.csv","","null","resources/images/fishbone.png","null","",NA,NA,NA,NA,""
"image-keyboard-response",36,89522,"0.0-4.8-0.8","omxc7oaez7as8xu",467,"153.csv","","1501.8000000000466","resources/trios/L4T2A3.jpg","39","restless",0.7,0.4,0.9,0.0700497756270992,"true"
"image-keyboard-response",37,89935,"0.0-4.8-1.8","omxc7oaez7as8xu",467,"153.csv","","null","resources/maskTrios/BBA3.jpg","null","",NA,NA,NA,NA,""
"image-keyboard-response",38,91152,"0.0-4.8-2.8","omxc7oaez7as8xu",467,"153.csv","","null","resources/images/coin2.png","null","",NA,NA,NA,NA,""
"image-keyboard-response",39,92980,"0.0-4.9-0.9","omxc7oaez7as8xu",467,"153.csv","","1827.7999999999302","resources/trios/L4T2A3.jpg","37","restless",0.7,0.4,0.9,0.123511341300334,"true"
"image-keyboard-response",40,93385,"0.0-4.9-1.9","omxc7oaez7as8xu",467,"153.csv","","null","resources/maskTrios/L4BB.jpg","null","",NA,NA,NA,NA,""
"image-keyboard-response",41,94601,"0.0-4.9-2.9","omxc7oaez7as8xu",467,"153.csv","","null","resources/images/coin2.png","null","",NA,NA,NA,NA,""
"image-keyboard-response",42,95139,"0.0-4.10-0.10","omxc7oaez7as8xu",467,"153.csv","","537","resources/trios/L4T2A3.jpg","39","restless",0.7,0.4,0.9,0.669009132150755,"true"
"image-keyboard-response",43,95551,"0.0-4.10-1.10","omxc7oaez7as8xu",467,"153.csv","","null","resources/maskTrios/BBA3.jpg","null","",NA,NA,NA,NA,""
"image-keyboard-response",44,96768,"0.0-4.10-2.10","omxc7oaez7as8xu",467,"153.csv","","null","resources/images/coin2.png","null","",NA,NA,NA,NA,""
"image-keyboard-response",45,98056,"0.0-4.11-0.11","omxc7oaez7as8xu",467,"153.csv","","1287.4000000000233","resources/trios/L4T2A3.jpg","37","restless",0.7,0.4,0.9,0.266749778144762,"true"
"image-keyboard-response",46,98468,"0.0-4.11-1.11","omxc7oaez7as8xu",467,"153.csv","","null","resources/maskTrios/L4BB.jpg","null","",NA,NA,NA,NA,""
"image-keyboard-response",47,99685,"0.0-4.11-2.11","omxc7oaez7as8xu",467,"153.csv","","null","resources/images/coin2.png","null","",NA,NA,NA,NA,""
"image-keyboard-response",48,100343,"0.0-4.12-0.12","omxc7oaez7as8xu",467,"153.csv","","657.5","resources/trios/L4T2A3.jpg","39","restless",0.7,0.4,0.9,0.397717613659765,"true"
"image-keyboard-response",49,100751,"0.0-4.12-1.12","omxc7oaez7as8xu",467,"153.csv","","null","resources/maskTrios/BBA3.jpg","null","",NA,NA,NA,NA,""
"image-keyboard-response",50,101952,"0.0-4.12-2.12","omxc7oaez7as8xu",467,"153.csv","","null","resources/images/coin2.png","null","",NA,NA,NA,NA,""
"image-keyboard-response",51,102916,"0.0-4.13-0.13","omxc7oaez7as8xu",467,"153.csv","","963.9000000000233","resources/trios/L4T2A3.jpg","37","restless",0.7,0.4,0.9,0.647777021236348,"true"
"image-keyboard-response",52,103319,"0.0-4.13-1.13","omxc7oaez7as8xu",467,"153.csv","","null","resources/maskTrios/L4BB.jpg","null","",NA,NA,NA,NA,""
"image-keyboard-response",53,104534,"0.0-4.13-2.13","omxc7oaez7as8xu",467,"153.csv","","null","resources/images/coin2.png","null","",NA,NA,NA,NA,""
"image-keyboard-response",54,105136,"0.0-4.14-0.14","omxc7oaez7as8xu",467,"153.csv","","601.8000000000466","resources/trios/L4T2A3.jpg","39","restless",0.7,0.4,0.9,0.699400552125396,"true"
"image-keyboard-response",55,105551,"0.0-4.14-1.14","omxc7oaez7as8xu",467,"153.csv","","null","resources/maskTrios/BBA3.jpg","null","",NA,NA,NA,NA,""
"image-keyboard-response",56,106767,"0.0-4.14-2.14","omxc7oaez7as8xu",467,"153.csv","","null","resources/images/coin2.png","null","",NA,NA,NA,NA,""
"image-keyboard-response",57,107225,"0.0-4.15-0.15","omxc7oaez7as8xu",467,"153.csv","","456.9000000000233","resources/trios/L4T2A3.jpg","38","restless",0.7,0.4,0.9,0.878057496442895,"false"
"image-keyboard-response",58,107635,"0.0-4.15-1.15","omxc7oaez7as8xu",467,"153.csv","","null","resources/maskTrios/BT2B.jpg","null","",NA,NA,NA,NA,""
"image-keyboard-response",59,108851,"0.0-4.15-2.15","omxc7oaez7as8xu",467,"153.csv","","null","resources/images/fishbone.png","null","",NA,NA,NA,NA,""
"image-keyboard-response",60,110436,"0.0-4.16-0.16","omxc7oaez7as8xu",467,"153.csv","","1584.4000000000233","resources/trios/L4T2A3.jpg","39","restless",0.7,0.4,0.9,0.594971851689684,"true"
"image-keyboard-response",61,110851,"0.0-4.16-1.16","omxc7oaez7as8xu",467,"153.csv","","null","resources/maskTrios/BBA3.jpg","null","",NA,NA,NA,NA,""
"image-keyboard-response",62,112067,"0.0-4.16-2.16","omxc7oaez7as8xu",467,"153.csv","","null","resources/images/coin2.png","null","",NA,NA,NA,NA,""
"image-keyboard-response",63,112898,"0.0-4.17-0.17","omxc7oaez7as8xu",467,"153.csv","","829.1999999999534","resources/trios/L4T2A3.jpg","37","restless",0.7,0.4,0.9,0.0224099565287299,"true"
"image-keyboard-response",64,113301,"0.0-4.17-1.17","omxc7oaez7as8xu",467,"153.csv","","null","resources/maskTrios/L4BB.jpg","null","",NA,NA,NA,NA,""
"image-keyboard-response",65,114517,"0.0-4.17-2.17","omxc7oaez7as8xu",467,"153.csv","","null","resources/images/coin2.png","null","",NA,NA,NA,NA,""
"image-keyboard-response",66,116172,"0.0-4.18-0.18","omxc7oaez7as8xu",467,"153.csv","","1654","resources/trios/L4T2A3.jpg","37","restless",0.7,0.4,0.9,0.414976343747544,"true"
"image-keyboard-response",67,116583,"0.0-4.18-1.18","omxc7oaez7as8xu",467,"153.csv","","null","resources/maskTrios/L4BB.jpg","null","",NA,NA,NA,NA,""
"image-keyboard-response",68,117784,"0.0-4.18-2.18","omxc7oaez7as8xu",467,"153.csv","","null","resources/images/coin2.png","null","",NA,NA,NA,NA,""
"image-keyboard-response",69,118106,"0.0-4.19-0.19","omxc7oaez7as8xu",467,"153.csv","","321.0999999999767","resources/trios/L4T2A3.jpg","39","restless",0.7,0.4,0.9,0.85059764477324,"true"
"image-keyboard-response",70,118517,"0.0-4.19-1.19","omxc7oaez7as8xu",467,"153.csv","","null","resources/maskTrios/BBA3.jpg","null","",NA,NA,NA,NA,""
"image-keyboard-response",71,119733,"0.0-4.19-2.19","omxc7oaez7as8xu",467,"153.csv","","null","resources/images/coin2.png","null","",NA,NA,NA,NA,""
"image-keyboard-response",72,120178,"0.0-4.20-0.20","omxc7oaez7as8xu",467,"153.csv","","443.80000000004657","resources/trios/L4T2A3.jpg","37","restless",0.7,0.5,0.9,0.150236735478326,"true"
"image-keyboard-response",73,120583,"0.0-4.20-1.20","omxc7oaez7as8xu",467,"153.csv","","null","resources/maskTrios/L4BB.jpg","null","",NA,NA,NA,NA,""
"image-keyboard-response",74,121800,"0.0-4.20-2.20","omxc7oaez7as8xu",467,"153.csv","","null","resources/images/coin2.png","null","",NA,NA,NA,NA,""
"image-keyboard-response",75,122856,"0.0-4.21-0.21","omxc7oaez7as8xu",467,"153.csv","","1055.1999999999534","resources/trios/L4T2A3.jpg","37","restless",0.7,0.5,0.9,0.257833414997348,"true"
"image-keyboard-response",76,123267,"0.0-4.21-1.21","omxc7oaez7as8xu",467,"153.csv","","null","resources/maskTrios/L4BB.jpg","null","",NA,NA,NA,NA,""
"image-keyboard-response",77,124483,"0.0-4.21-2.21","omxc7oaez7as8xu",467,"153.csv","","null","resources/images/coin2.png","null","",NA,NA,NA,NA,""
"image-keyboard-response",78,125249,"0.0-4.22-0.22","omxc7oaez7as8xu",467,"153.csv","","764.8000000000466","resources/trios/L4T2A3.jpg","37","restless",0.7,0.5,0.9,0.421030697534084,"true"
"image-keyboard-response",79,125650,"0.0-4.22-1.22","omxc7oaez7as8xu",467,"153.csv","","null","resources/maskTrios/L4BB.jpg","null","",NA,NA,NA,NA,""
"image-keyboard-response",80,126851,"0.0-4.22-2.22","omxc7oaez7as8xu",467,"153.csv","","null","resources/images/coin2.png","null","",NA,NA,NA,NA,""
"image-keyboard-response",81,127580,"0.0-4.23-0.23","omxc7oaez7as8xu",467,"153.csv","","728.5999999999767","resources/trios/L4T2A3.jpg","37","restless",0.8,0.5,0.9,0.469971594146743,"true"
"image-keyboard-response",82,127983,"0.0-4.23-1.23","omxc7oaez7as8xu",467,"153.csv","","null","resources/maskTrios/L4BB.jpg","null","",NA,NA,NA,NA,""
"image-keyboard-response",83,129184,"0.0-4.23-2.23","omxc7oaez7as8xu",467,"153.csv","","null","resources/images/coin2.png","null","",NA,NA,NA,NA,""
"image-keyboard-response",84,129537,"0.0-4.24-0.24","omxc7oaez7as8xu",467,"153.csv","","352.79999999993015","resources/trios/L4T2A3.jpg","39","restless",0.8,0.5,0.8,0.936320333744469,"false"
"image-keyboard-response",85,129949,"0.0-4.24-1.24","omxc7oaez7as8xu",467,"153.csv","","null","resources/maskTrios/BBA3.jpg","null","",NA,NA,NA,NA,""
"image-keyboard-response",86,131151,"0.0-4.24-2.24","omxc7oaez7as8xu",467,"153.csv","","null","resources/images/fishbone.png","null","",NA,NA,NA,NA,""
"image-keyboard-response",87,133013,"0.0-4.25-0.25","omxc7oaez7as8xu",467,"153.csv","","1862.4000000000233","resources/trios/L4T2A3.jpg","38","restless",0.8,0.5,0.8,0.931165552959873,"false"
"image-keyboard-response",88,133416,"0.0-4.25-1.25","omxc7oaez7as8xu",467,"153.csv","","null","resources/maskTrios/BT2B.jpg","null","",NA,NA,NA,NA,""
"image-keyboard-response",89,134617,"0.0-4.25-2.25","omxc7oaez7as8xu",467,"153.csv","","null","resources/images/fishbone.png","null","",NA,NA,NA,NA,""
"image-keyboard-response",90,135062,"0.0-4.26-0.26","omxc7oaez7as8xu",467,"153.csv","","443.69999999995343","resources/trios/L4T2A3.jpg","37","restless",0.8,0.5,0.8,0.255013448431736,"true"
"image-keyboard-response",91,135466,"0.0-4.26-1.26","omxc7oaez7as8xu",467,"153.csv","","null","resources/maskTrios/L4BB.jpg","null","",NA,NA,NA,NA,""
"image-keyboard-response",92,136683,"0.0-4.26-2.26","omxc7oaez7as8xu",467,"153.csv","","null","resources/images/coin2.png","null","",NA,NA,NA,NA,""
"image-keyboard-response",93,137103,"0.0-4.27-0.27","omxc7oaez7as8xu",467,"153.csv","","419.0999999999767","resources/trios/L4T2A3.jpg","37","restless",0.8,0.5,0.8,0.699564646148307,"true"
"image-keyboard-response",94,137516,"0.0-4.27-1.27","omxc7oaez7as8xu",467,"153.csv","","null","resources/maskTrios/L4BB.jpg","null","",NA,NA,NA,NA,""
"image-keyboard-response",95,138733,"0.0-4.27-2.27","omxc7oaez7as8xu",467,"153.csv","","null","resources/images/coin2.png","null","",NA,NA,NA,NA,""
"image-keyboard-response",96,139257,"0.0-4.28-0.28","omxc7oaez7as8xu",467,"153.csv","","524","resources/trios/L4T2A3.jpg","37","restless",0.8,0.5,0.8,0.0999953628670081,"true"
"image-keyboard-response",97,139666,"0.0-4.28-1.28","omxc7oaez7as8xu",467,"153.csv","","null","resources/maskTrios/L4BB.jpg","null","",NA,NA,NA,NA,""
"image-keyboard-response",98,140883,"0.0-4.28-2.28","omxc7oaez7as8xu",467,"153.csv","","null","resources/images/coin2.png","null","",NA,NA,NA,NA,""
"image-keyboard-response",99,141962,"0.0-4.29-0.29","omxc7oaez7as8xu",467,"153.csv","","1079.0999999999767","resources/trios/L4T2A3.jpg","39","restless",0.8,0.5,0.8,0.59753310844404,"true"
"image-keyboard-response",100,142366,"0.0-4.29-1.29","omxc7oaez7as8xu",467,"153.csv","","null","resources/maskTrios/BBA3.jpg","null","",NA,NA,NA,NA,""
"image-keyboard-response",101,143567,"0.0-4.29-2.29","omxc7oaez7as8xu",467,"153.csv","","null","resources/images/coin2.png","null","",NA,NA,NA,NA,""
"image-keyboard-response",102,144166,"0.0-4.30-0.30","omxc7oaez7as8xu",467,"153.csv","","598.0999999999767","resources/trios/L4T2A3.jpg","38","restless",0.8,0.5,0.8,0.0390261610349865,"true"
"image-keyboard-response",103,139238,"0.0-4.30-1.30","omxc7oaez7as8xu",467,"153.csv","","null","resources/maskTrios/BT2B.jpg","null","",NA,NA,NA,NA,""
"image-keyboard-response",104,140455,"0.0-4.30-2.30","omxc7oaez7as8xu",467,"153.csv","","null","resources/images/coin2.png","null","",NA,NA,NA,NA,""
"image-keyboard-response",105,141217,"0.0-4.31-0.31","omxc7oaez7as8xu",467,"153.csv","","761.4000000000233","resources/trios/L4T2A3.jpg","39","restless",0.8,0.4,0.8,0.462807270588003,"true"
"image-keyboard-response",106,141621,"0.0-4.31-1.31","omxc7oaez7as8xu",467,"153.csv","","null","resources/maskTrios/BBA3.jpg","null","",NA,NA,NA,NA,""
"image-keyboard-response",107,142838,"0.0-4.31-2.31","omxc7oaez7as8xu",467,"153.csv","","null","resources/images/coin2.png","null","",NA,NA,NA,NA,""
"image-keyboard-response",108,143416,"0.0-4.32-0.32","omxc7oaez7as8xu",467,"153.csv","","577.5","resources/trios/L4T2A3.jpg","37","restless",0.8,0.4,0.8,0.387896500164375,"true"
"image-keyboard-response",109,143821,"0.0-4.32-1.32","omxc7oaez7as8xu",467,"153.csv","","null","resources/maskTrios/L4BB.jpg","null","",NA,NA,NA,NA,""
"image-keyboard-response",110,145022,"0.0-4.32-2.32","omxc7oaez7as8xu",467,"153.csv","","null","resources/images/coin2.png","null","",NA,NA,NA,NA,""
"image-keyboard-response",111,145461,"0.0-4.33-0.33","omxc7oaez7as8xu",467,"153.csv","","438.4000000000233","resources/trios/L4T2A3.jpg","38","restless",0.8,0.4,0.8,0.342197211108817,"true"
"image-keyboard-response",112,145871,"0.0-4.33-1.33","omxc7oaez7as8xu",467,"153.csv","","null","resources/maskTrios/BT2B.jpg","null","",NA,NA,NA,NA,""
"image-keyboard-response",113,147088,"0.0-4.33-2.33","omxc7oaez7as8xu",467,"153.csv","","null","resources/images/coin2.png","null","",NA,NA,NA,NA,""
"image-keyboard-response",114,147419,"0.0-4.34-0.34","omxc7oaez7as8xu",467,"153.csv","","330.29999999993015","resources/trios/L4T2A3.jpg","39","restless",0.8,0.3,0.8,0.367409428450402,"true"
"image-keyboard-response",115,147821,"0.0-4.34-1.34","omxc7oaez7as8xu",467,"153.csv","","null","resources/maskTrios/BBA3.jpg","null","",NA,NA,NA,NA,""
"image-keyboard-response",116,149038,"0.0-4.34-2.34","omxc7oaez7as8xu",467,"153.csv","","null","resources/images/coin2.png","null","",NA,NA,NA,NA,""
"image-keyboard-response",117,149642,"0.0-4.35-0.35","omxc7oaez7as8xu",467,"153.csv","","603.7999999999302","resources/trios/L4T2A3.jpg","37","restless",0.8,0.3,0.8,0.381878064459623,"true"
"image-keyboard-response",118,150054,"0.0-4.35-1.35","omxc7oaez7as8xu",467,"153.csv","","null","resources/maskTrios/L4BB.jpg","null","",NA,NA,NA,NA,""
"image-keyboard-response",119,151271,"0.0-4.35-2.35","omxc7oaez7as8xu",467,"153.csv","","null","resources/images/coin2.png","null","",NA,NA,NA,NA,""
"image-keyboard-response",120,151357,"0.0-4.36-0.36","omxc7oaez7as8xu",467,"153.csv","","85.40000000002328","resources/trios/L4T2A3.jpg","39","restless",0.9,0.3,0.8,0.446024718050082,"true"
"image-keyboard-response",121,151771,"0.0-4.36-1.36","omxc7oaez7as8xu",467,"153.csv","","null","resources/maskTrios/BBA3.jpg","null","",NA,NA,NA,NA,""
"image-keyboard-response",122,152972,"0.0-4.36-2.36","omxc7oaez7as8xu",467,"153.csv","","null","resources/images/coin2.png","null","",NA,NA,NA,NA,""
"image-keyboard-response",123,153931,"0.0-4.37-0.37","omxc7oaez7as8xu",467,"153.csv","","957.7999999999302","resources/trios/L4T2A3.jpg","38","restless",0.9,0.3,0.8,0.40847615349323,"false"
"image-keyboard-response",124,154338,"0.0-4.37-1.37","omxc7oaez7as8xu",467,"153.csv","","null","resources/maskTrios/BT2B.jpg","null","",NA,NA,NA,NA,""
"image-keyboard-response",125,155554,"0.0-4.37-2.37","omxc7oaez7as8xu",467,"153.csv","","null","resources/images/fishbone.png","null","",NA,NA,NA,NA,""
"image-keyboard-response",126,156480,"0.0-4.38-0.38","omxc7oaez7as8xu",467,"153.csv","","925.8000000000466","resources/trios/L4T2A3.jpg","37","restless",0.8,0.3,0.8,0.466183460852825,"true"
"image-keyboard-response",127,156887,"0.0-4.38-1.38","omxc7oaez7as8xu",467,"153.csv","","null","resources/maskTrios/L4BB.jpg","null","",NA,NA,NA,NA,""
"image-keyboard-response",128,158104,"0.0-4.38-2.38","omxc7oaez7as8xu",467,"153.csv","","null","resources/images/coin2.png","null","",NA,NA,NA,NA,""
"image-keyboard-response",129,158678,"0.0-4.39-0.39","omxc7oaez7as8xu",467,"153.csv","","573.7000000000698","resources/trios/L4T2A3.jpg","39","restless",0.7,0.3,0.8,0.461846111205746,"true"
"image-keyboard-response",130,159087,"0.0-4.39-1.39","omxc7oaez7as8xu",467,"153.csv","","null","resources/maskTrios/BBA3.jpg","null","",NA,NA,NA,NA,""
"image-keyboard-response",131,160304,"0.0-4.39-2.39","omxc7oaez7as8xu",467,"153.csv","","null","resources/images/coin2.png","null","",NA,NA,NA,NA,""
"image-keyboard-response",132,161274,"0.0-4.40-0.40","omxc7oaez7as8xu",467,"153.csv","","969.2000000000698","resources/trios/L4T2A3.jpg","39","restless",0.7,0.3,0.8,0.468475821139333,"true"
"image-keyboard-response",133,161687,"0.0-4.40-1.40","omxc7oaez7as8xu",467,"153.csv","","null","resources/maskTrios/BBA3.jpg","null","",NA,NA,NA,NA,""
"image-keyboard-response",134,162903,"0.0-4.40-2.40","omxc7oaez7as8xu",467,"153.csv","","null","resources/images/coin2.png","null","",NA,NA,NA,NA,""
"image-keyboard-response",135,163317,"0.0-4.41-0.41","omxc7oaez7as8xu",467,"153.csv","","412.9000000000233","resources/trios/L4T2A3.jpg","37","restless",0.6,0.3,0.8,0.492378561095589,"true"
"image-keyboard-response",136,163720,"0.0-4.41-1.41","omxc7oaez7as8xu",467,"153.csv","","null","resources/maskTrios/L4BB.jpg","null","",NA,NA,NA,NA,""
"image-keyboard-response",137,164937,"0.0-4.41-2.41","omxc7oaez7as8xu",467,"153.csv","","null","resources/images/coin2.png","null","",NA,NA,NA,NA,""
"image-keyboard-response",138,165140,"0.0-4.42-0.42","omxc7oaez7as8xu",467,"153.csv","","202.59999999997672","resources/trios/L4T2A3.jpg","39","restless",0.6,0.3,0.8,0.137405131554171,"true"
"image-keyboard-response",139,165554,"0.0-4.42-1.42","omxc7oaez7as8xu",467,"153.csv","","null","resources/maskTrios/BBA3.jpg","null","",NA,NA,NA,NA,""
"image-keyboard-response",140,166770,"0.0-4.42-2.42","omxc7oaez7as8xu",467,"153.csv","","null","resources/images/coin2.png","null","",NA,NA,NA,NA,""
"image-keyboard-response",141,167516,"0.0-4.43-0.43","omxc7oaez7as8xu",467,"153.csv","","745","resources/trios/L4T2A3.jpg","39","restless",0.6,0.3,0.7,0.155576321528571,"true"
"image-keyboard-response",142,167920,"0.0-4.43-1.43","omxc7oaez7as8xu",467,"153.csv","","null","resources/maskTrios/BBA3.jpg","null","",NA,NA,NA,NA,""
"image-keyboard-response",143,169137,"0.0-4.43-2.43","omxc7oaez7as8xu",467,"153.csv","","null","resources/images/coin2.png","null","",NA,NA,NA,NA,""
"image-keyboard-response",144,169670,"0.0-4.44-0.44","omxc7oaez7as8xu",467,"153.csv","","532.0999999999767","resources/trios/L4T2A3.jpg","39","restless",0.6,0.3,0.7,0.0229437830117942,"true"
"image-keyboard-response",145,170087,"0.0-4.44-1.44","omxc7oaez7as8xu",467,"153.csv","","null","resources/maskTrios/BBA3.jpg","null","",NA,NA,NA,NA,""
"image-keyboard-response",146,171303,"0.0-4.44-2.44","omxc7oaez7as8xu",467,"153.csv","","null","resources/images/coin2.png","null","",NA,NA,NA,NA,""
"image-keyboard-response",147,171850,"0.0-4.45-0.45","omxc7oaez7as8xu",467,"153.csv","","546.2000000000698","resources/trios/L4T2A3.jpg","39","restless",0.6,0.3,0.7,0.317448842730435,"true"
"image-keyboard-response",148,172253,"0.0-4.45-1.45","omxc7oaez7as8xu",467,"153.csv","","null","resources/maskTrios/BBA3.jpg","null","",NA,NA,NA,NA,""
"image-keyboard-response",149,173454,"0.0-4.45-2.45","omxc7oaez7as8xu",467,"153.csv","","null","resources/images/coin2.png","null","",NA,NA,NA,NA,""
"image-keyboard-response",150,174330,"0.0-4.46-0.46","omxc7oaez7as8xu",467,"153.csv","","874.8999999999069","resources/trios/L4T2A3.jpg","38","restless",0.6,0.3,0.7,0.538911973416561,"false"
"image-keyboard-response",151,174737,"0.0-4.46-1.46","omxc7oaez7as8xu",467,"153.csv","","null","resources/maskTrios/BT2B.jpg","null","",NA,NA,NA,NA,""
"image-keyboard-response",152,175953,"0.0-4.46-2.46","omxc7oaez7as8xu",467,"153.csv","","null","resources/images/fishbone.png","null","",NA,NA,NA,NA,""
"image-keyboard-response",153,176748,"0.0-4.47-0.47","omxc7oaez7as8xu",467,"153.csv","","794.3000000000466","resources/trios/L4T2A3.jpg","37","restless",0.6,0.3,0.7,0.844480766869089,"false"
"image-keyboard-response",154,177153,"0.0-4.47-1.47","omxc7oaez7as8xu",467,"153.csv","","null","resources/maskTrios/L4BB.jpg","null","",NA,NA,NA,NA,""
"image-keyboard-response",155,178369,"0.0-4.47-2.47","omxc7oaez7as8xu",467,"153.csv","","null","resources/images/fishbone.png","null","",NA,NA,NA,NA,""
"image-keyboard-response",156,179109,"0.0-4.48-0.48","omxc7oaez7as8xu",467,"153.csv","","738.5999999999767","resources/trios/L4T2A3.jpg","39","restless",0.6,0.3,0.7,0.37576514717427,"true"
"image-keyboard-response",157,179519,"0.0-4.48-1.48","omxc7oaez7as8xu",467,"153.csv","","null","resources/maskTrios/BBA3.jpg","null","",NA,NA,NA,NA,""
"image-keyboard-response",158,180736,"0.0-4.48-2.48","omxc7oaez7as8xu",467,"153.csv","","null","resources/images/coin2.png","null","",NA,NA,NA,NA,""
"image-keyboard-response",159,181078,"0.0-4.49-0.49","omxc7oaez7as8xu",467,"153.csv","","341.80000000004657","resources/trios/L4T2A3.jpg","39","restless",0.6,0.3,0.7,0.933057092012008,"false"
"image-keyboard-response",160,181486,"0.0-4.49-1.49","omxc7oaez7as8xu",467,"153.csv","","null","resources/maskTrios/BBA3.jpg","null","",NA,NA,NA,NA,""
"image-keyboard-response",161,182703,"0.0-4.49-2.49","omxc7oaez7as8xu",467,"153.csv","","null","resources/images/fishbone.png","null","",NA,NA,NA,NA,""
"image-keyboard-response",162,183306,"0.0-4.50-0.50","omxc7oaez7as8xu",467,"153.csv","","602","resources/trios/L4T2A3.jpg","38","restless",0.6,0.3,0.7,0.542662336731055,"false"
"image-keyboard-response",163,183719,"0.0-4.50-1.50","omxc7oaez7as8xu",467,"153.csv","","null","resources/maskTrios/BT2B.jpg","null","",NA,NA,NA,NA,""
"image-keyboard-response",164,184936,"0.0-4.50-2.50","omxc7oaez7as8xu",467,"153.csv","","null","resources/images/fishbone.png","null","",NA,NA,NA,NA,""
"image-keyboard-response",165,185281,"0.0-4.51-0.51","omxc7oaez7as8xu",467,"153.csv","","344.5","resources/trios/L4T2A3.jpg","37","restless",0.6,0.3,0.7,0.226268595086227,"true"
"image-keyboard-response",166,185686,"0.0-4.51-1.51","omxc7oaez7as8xu",467,"153.csv","","null","resources/maskTrios/L4BB.jpg","null","",NA,NA,NA,NA,""
"image-keyboard-response",167,186902,"0.0-4.51-2.51","omxc7oaez7as8xu",467,"153.csv","","null","resources/images/coin2.png","null","",NA,NA,NA,NA,""
"image-keyboard-response",168,187434,"0.0-4.52-0.52","omxc7oaez7as8xu",467,"153.csv","","530.8999999999069","resources/trios/L4T2A3.jpg","37","restless",0.6,0.3,0.7,0.503826121427256,"true"
"image-keyboard-response",169,187837,"0.0-4.52-1.52","omxc7oaez7as8xu",467,"153.csv","","null","resources/maskTrios/L4BB.jpg","null","",NA,NA,NA,NA,""
"image-keyboard-response",170,189053,"0.0-4.52-2.52","omxc7oaez7as8xu",467,"153.csv","","null","resources/images/coin2.png","null","",NA,NA,NA,NA,""
"image-keyboard-response",171,189463,"0.0-4.53-0.53","omxc7oaez7as8xu",467,"153.csv","","409.20000000006985","resources/trios/L4T2A3.jpg","37","restless",0.6,0.3,0.7,0.773367457376333,"false"
"image-keyboard-response",172,189869,"0.0-4.53-1.53","omxc7oaez7as8xu",467,"153.csv","","null","resources/maskTrios/L4BB.jpg","null","",NA,NA,NA,NA,""
"image-keyboard-response",173,191086,"0.0-4.53-2.53","omxc7oaez7as8xu",467,"153.csv","","null","resources/images/fishbone.png","null","",NA,NA,NA,NA,""
"image-keyboard-response",174,191786,"0.0-4.54-0.54","omxc7oaez7as8xu",467,"153.csv","","699.4000000000233","resources/trios/L4T2A3.jpg","38","restless",0.6,0.4,0.7,0.152258681703593,"true"
"image-keyboard-response",175,192202,"0.0-4.54-1.54","omxc7oaez7as8xu",467,"153.csv","","null","resources/maskTrios/BT2B.jpg","null","",NA,NA,NA,NA,""
"image-keyboard-response",176,193419,"0.0-4.54-2.54","omxc7oaez7as8xu",467,"153.csv","","null","resources/images/coin2.png","null","",NA,NA,NA,NA,""
"image-keyboard-response",177,193898,"0.0-4.55-0.55","omxc7oaez7as8xu",467,"153.csv","","478.30000000004657","resources/trios/L4T2A3.jpg","39","restless",0.6,0.4,0.7,0.663768037259682,"true"
"image-keyboard-response",178,194302,"0.0-4.55-1.55","omxc7oaez7as8xu",467,"153.csv","","null","resources/maskTrios/BBA3.jpg","null","",NA,NA,NA,NA,""
"image-keyboard-response",179,195519,"0.0-4.55-2.55","omxc7oaez7as8xu",467,"153.csv","","null","resources/images/coin2.png","null","",NA,NA,NA,NA,""
"image-keyboard-response",180,196123,"0.0-4.56-0.56","omxc7oaez7as8xu",467,"153.csv","","603.3000000000466","resources/trios/L4T2A3.jpg","38","restless",0.6,0.4,0.7,0.355750922499883,"true"
"image-keyboard-response",181,196536,"0.0-4.56-1.56","omxc7oaez7as8xu",467,"153.csv","","null","resources/maskTrios/BT2B.jpg","null","",NA,NA,NA,NA,""
"image-keyboard-response",182,197752,"0.0-4.56-2.56","omxc7oaez7as8xu",467,"153.csv","","null","resources/images/coin2.png","null","",NA,NA,NA,NA,""
"image-keyboard-response",183,198073,"0.0-4.57-0.57","omxc7oaez7as8xu",467,"153.csv","","320.69999999995343","resources/trios/L4T2A3.jpg","39","restless",0.6,0.5,0.7,0.488923879999781,"true"
"image-keyboard-response",184,198485,"0.0-4.57-1.57","omxc7oaez7as8xu",467,"153.csv","","null","resources/maskTrios/BBA3.jpg","null","",NA,NA,NA,NA,""
"image-keyboard-response",185,199702,"0.0-4.57-2.57","omxc7oaez7as8xu",467,"153.csv","","null","resources/images/coin2.png","null","",NA,NA,NA,NA,""
"image-keyboard-response",186,200053,"0.0-4.58-0.58","omxc7oaez7as8xu",467,"153.csv","","350.0999999999767","resources/trios/L4T2A3.jpg","39","restless",0.6,0.5,0.7,0.460362844764425,"true"
"image-keyboard-response",187,200468,"0.0-4.58-1.58","omxc7oaez7as8xu",467,"153.csv","","null","resources/maskTrios/BBA3.jpg","null","",NA,NA,NA,NA,""
"image-keyboard-response",188,201685,"0.0-4.58-2.58","omxc7oaez7as8xu",467,"153.csv","","null","resources/images/coin2.png","null","",NA,NA,NA,NA,""
"image-keyboard-response",189,202078,"0.0-4.59-0.59","omxc7oaez7as8xu",467,"153.csv","","392","resources/trios/L4T2A3.jpg","37","restless",0.6,0.5,0.7,0.355401112484054,"true"
"image-keyboard-response",190,202485,"0.0-4.59-1.59","omxc7oaez7as8xu",467,"153.csv","","null","resources/maskTrios/L4BB.jpg","null","",NA,NA,NA,NA,""
"image-keyboard-response",191,203701,"0.0-4.59-2.59","omxc7oaez7as8xu",467,"153.csv","","null","resources/images/coin2.png","null","",NA,NA,NA,NA,""
"image-keyboard-response",192,204141,"0.0-4.60-0.60","omxc7oaez7as8xu",467,"153.csv","","438.5999999999767","resources/trios/L4T2A3.jpg","38","restless",0.6,0.5,0.6,0.400815529339712,"true"
"image-keyboard-response",193,204552,"0.0-4.60-1.60","omxc7oaez7as8xu",467,"153.csv","","null","resources/maskTrios/BT2B.jpg","null","",NA,NA,NA,NA,""
"image-keyboard-response",194,205768,"0.0-4.60-2.60","omxc7oaez7as8xu",467,"153.csv","","null","resources/images/coin2.png","null","",NA,NA,NA,NA,""
"image-keyboard-response",195,206076,"0.0-4.61-0.61","omxc7oaez7as8xu",467,"153.csv","","307","resources/trios/L4T2A3.jpg","39","restless",0.6,0.5,0.6,0.632943157609891,"false"
"image-keyboard-response",196,206485,"0.0-4.61-1.61","omxc7oaez7as8xu",467,"153.csv","","null","resources/maskTrios/BBA3.jpg","null","",NA,NA,NA,NA,""
"image-keyboard-response",197,207701,"0.0-4.61-2.61","omxc7oaez7as8xu",467,"153.csv","","null","resources/images/fishbone.png","null","",NA,NA,NA,NA,""
"image-keyboard-response",198,208208,"0.0-4.62-0.62","omxc7oaez7as8xu",467,"153.csv","","506.20000000006985","resources/trios/L4T2A3.jpg","38","restless",0.5,0.5,0.6,0.244789042129085,"true"
"image-keyboard-response",199,208618,"0.0-4.62-1.62","omxc7oaez7as8xu",467,"153.csv","","null","resources/maskTrios/BT2B.jpg","null","",NA,NA,NA,NA,""
"image-keyboard-response",200,209820,"0.0-4.62-2.62","omxc7oaez7as8xu",467,"153.csv","","null","resources/images/coin2.png","null","",NA,NA,NA,NA,""
"image-keyboard-response",201,210123,"0.0-4.63-0.63","omxc7oaez7as8xu",467,"153.csv","","301.4000000000233","resources/trios/L4T2A3.jpg","37","restless",0.5,0.5,0.6,0.250295469517869,"true"
"image-keyboard-response",202,210535,"0.0-4.63-1.63","omxc7oaez7as8xu",467,"153.csv","","null","resources/maskTrios/L4BB.jpg","null","",NA,NA,NA,NA,""
"image-keyboard-response",203,211751,"0.0-4.63-2.63","omxc7oaez7as8xu",467,"153.csv","","null","resources/images/coin2.png","null","",NA,NA,NA,NA,""
"image-keyboard-response",204,212101,"0.0-4.64-0.64","omxc7oaez7as8xu",467,"153.csv","","348.9000000000233","resources/trios/L4T2A3.jpg","38","restless",0.5,0.5,0.6,0.0408130193296616,"true"
"image-keyboard-response",205,212502,"0.0-4.64-1.64","omxc7oaez7as8xu",467,"153.csv","","null","resources/maskTrios/BT2B.jpg","null","",NA,NA,NA,NA,""
"image-keyboard-response",206,213718,"0.0-4.64-2.64","omxc7oaez7as8xu",467,"153.csv","","null","resources/images/coin2.png","null","",NA,NA,NA,NA,""
"image-keyboard-response",207,213845,"0.0-4.65-0.65","omxc7oaez7as8xu",467,"153.csv","","126.39999999990687","resources/trios/L4T2A3.jpg","37","restless",0.5,0.5,0.5,0.144838138863059,"true"
"image-keyboard-response",208,214269,"0.0-4.65-1.65","omxc7oaez7as8xu",467,"153.csv","","null","resources/maskTrios/L4BB.jpg","null","",NA,NA,NA,NA,""
"image-keyboard-response",209,215485,"0.0-4.65-2.65","omxc7oaez7as8xu",467,"153.csv","","null","resources/images/coin2.png","null","",NA,NA,NA,NA,""
"image-keyboard-response",210,216212,"0.0-4.66-0.66","omxc7oaez7as8xu",467,"153.csv","","726.4000000000233","resources/trios/L4T2A3.jpg","39","restless",0.5,0.5,0.5,0.638665175526262,"false"
"image-keyboard-response",211,216618,"0.0-4.66-1.66","omxc7oaez7as8xu",467,"153.csv","","null","resources/maskTrios/BBA3.jpg","null","",NA,NA,NA,NA,""
"image-keyboard-response",212,217834,"0.0-4.66-2.66","omxc7oaez7as8xu",467,"153.csv","","null","resources/images/fishbone.png","null","",NA,NA,NA,NA,""
"image-keyboard-response",213,218586,"0.0-4.67-0.67","omxc7oaez7as8xu",467,"153.csv","","751.2000000000698","resources/trios/L4T2A3.jpg","38","restless",0.5,0.5,0.5,0.454633720717236,"true"
"image-keyboard-response",214,219001,"0.0-4.67-1.67","omxc7oaez7as8xu",467,"153.csv","","null","resources/maskTrios/BT2B.jpg","null","",NA,NA,NA,NA,""
"image-keyboard-response",215,220218,"0.0-4.67-2.67","omxc7oaez7as8xu",467,"153.csv","","null","resources/images/coin2.png","null","",NA,NA,NA,NA,""
"image-keyboard-response",216,220258,"0.0-4.68-0.68","omxc7oaez7as8xu",467,"153.csv","","38.800000000046566","resources/trios/L4T2A3.jpg","38","restless",0.5,0.6,0.5,0.541900067328551,"true"
"image-keyboard-response",217,220668,"0.0-4.68-1.68","omxc7oaez7as8xu",467,"153.csv","","null","resources/maskTrios/BT2B.jpg","null","",NA,NA,NA,NA,""
"image-keyboard-response",218,221875,"0.0-4.68-2.68","omxc7oaez7as8xu",467,"153.csv","","null","resources/images/coin2.png","null","",NA,NA,NA,NA,""
"image-keyboard-response",219,222456,"0.0-4.69-0.69","omxc7oaez7as8xu",467,"153.csv","","580.4000000000233","resources/trios/L4T2A3.jpg","38","restless",0.6,0.6,0.4,0.648800390353281,"false"
"image-keyboard-response",220,222867,"0.0-4.69-1.69","omxc7oaez7as8xu",467,"153.csv","","null","resources/maskTrios/BT2B.jpg","null","",NA,NA,NA,NA,""
"image-keyboard-response",221,224068,"0.0-4.69-2.69","omxc7oaez7as8xu",467,"153.csv","","null","resources/images/fishbone.png","null","",NA,NA,NA,NA,""
"image-keyboard-response",222,224307,"0.0-4.70-0.70","omxc7oaez7as8xu",467,"153.csv","","238.09999999997672","resources/trios/L4T2A3.jpg","37","restless",0.6,0.6,0.4,0.511053210581325,"true"
"image-keyboard-response",223,224717,"0.0-4.70-1.70","omxc7oaez7as8xu",467,"153.csv","","null","resources/maskTrios/L4BB.jpg","null","",NA,NA,NA,NA,""
"image-keyboard-response",224,225934,"0.0-4.70-2.70","omxc7oaez7as8xu",467,"153.csv","","null","resources/images/coin2.png","null","",NA,NA,NA,NA,""
"image-keyboard-response",225,226282,"0.0-4.71-0.71","omxc7oaez7as8xu",467,"153.csv","","347.89999999990687","resources/trios/L4T2A3.jpg","37","restless",0.6,0.6,0.4,0.385057623447573,"true"
"image-keyboard-response",226,226684,"0.0-4.71-1.71","omxc7oaez7as8xu",467,"153.csv","","null","resources/maskTrios/L4BB.jpg","null","",NA,NA,NA,NA,""
"image-keyboard-response",227,227885,"0.0-4.71-2.71","omxc7oaez7as8xu",467,"153.csv","","null","resources/images/coin2.png","null","",NA,NA,NA,NA,""
"image-keyboard-response",228,228021,"0.0-4.72-0.72","omxc7oaez7as8xu",467,"153.csv","","135.5","resources/trios/L4T2A3.jpg","39","restless",0.6,0.6,0.4,0.882603642561264,"false"
"image-keyboard-response",229,228434,"0.0-4.72-1.72","omxc7oaez7as8xu",467,"153.csv","","null","resources/maskTrios/BBA3.jpg","null","",NA,NA,NA,NA,""
"image-keyboard-response",230,229650,"0.0-4.72-2.72","omxc7oaez7as8xu",467,"153.csv","","null","resources/images/fishbone.png","null","",NA,NA,NA,NA,""
"image-keyboard-response",231,229980,"0.0-4.73-0.73","omxc7oaez7as8xu",467,"153.csv","","329","resources/trios/L4T2A3.jpg","38","restless",0.6,0.6,0.3,0.534960577854953,"true"
"image-keyboard-response",232,230383,"0.0-4.73-1.73","omxc7oaez7as8xu",467,"153.csv","","null","resources/maskTrios/BT2B.jpg","null","",NA,NA,NA,NA,""
"image-keyboard-response",233,231584,"0.0-4.73-2.73","omxc7oaez7as8xu",467,"153.csv","","null","resources/images/coin2.png","null","",NA,NA,NA,NA,""
"image-keyboard-response",234,231998,"0.0-4.74-0.74","omxc7oaez7as8xu",467,"153.csv","","412.79999999993015","resources/trios/L4T2A3.jpg","37","restless",0.5,0.6,0.3,0.693044341066283,"false"
"image-keyboard-response",235,232400,"0.0-4.74-1.74","omxc7oaez7as8xu",467,"153.csv","","null","resources/maskTrios/L4BB.jpg","null","",NA,NA,NA,NA,""
"image-keyboard-response",236,233601,"0.0-4.74-2.74","omxc7oaez7as8xu",467,"153.csv","","null","resources/images/fishbone.png","null","",NA,NA,NA,NA,""
"image-keyboard-response",237,233895,"0.0-4.75-0.75","omxc7oaez7as8xu",467,"153.csv","","293.20000000006985","resources/trios/L4T2A3.jpg","38","restless",0.5,0.6,0.3,0.399427784462378,"true"
"image-keyboard-response",238,234300,"0.0-4.75-1.75","omxc7oaez7as8xu",467,"153.csv","","null","resources/maskTrios/BT2B.jpg","null","",NA,NA,NA,NA,""
"image-keyboard-response",239,235517,"0.0-4.75-2.75","omxc7oaez7as8xu",467,"153.csv","","null","resources/images/coin2.png","null","",NA,NA,NA,NA,""
"image-keyboard-response",240,235558,"0.0-4.76-0.76","omxc7oaez7as8xu",467,"153.csv","","40.40000000002328","resources/trios/L4T2A3.jpg","39","restless",0.5,0.6,0.3,0.422063023475273,"false"
"image-keyboard-response",241,235967,"0.0-4.76-1.76","omxc7oaez7as8xu",467,"153.csv","","null","resources/maskTrios/BBA3.jpg","null","",NA,NA,NA,NA,""
"image-keyboard-response",242,237183,"0.0-4.76-2.76","omxc7oaez7as8xu",467,"153.csv","","null","resources/images/fishbone.png","null","",NA,NA,NA,NA,""
"image-keyboard-response",243,238968,"0.0-4.77-0.77","omxc7oaez7as8xu",467,"153.csv","","1784.4000000000233","resources/trios/L4T2A3.jpg","38","restless",0.5,0.5,0.3,0.860278768357264,"false"
"image-keyboard-response",244,239383,"0.0-4.77-1.77","omxc7oaez7as8xu",467,"153.csv","","null","resources/maskTrios/BT2B.jpg","null","",NA,NA,NA,NA,""
"image-keyboard-response",245,240600,"0.0-4.77-2.77","omxc7oaez7as8xu",467,"153.csv","","null","resources/images/fishbone.png","null","",NA,NA,NA,NA,""
"image-keyboard-response",246,241148,"0.0-4.78-0.78","omxc7oaez7as8xu",467,"153.csv","","547.0999999999767","resources/trios/L4T2A3.jpg","37","restless",0.5,0.5,0.3,0.708316177106421,"false"
"image-keyboard-response",247,241550,"0.0-4.78-1.78","omxc7oaez7as8xu",467,"153.csv","","null","resources/maskTrios/L4BB.jpg","null","",NA,NA,NA,NA,""
"image-keyboard-response",248,242766,"0.0-4.78-2.78","omxc7oaez7as8xu",467,"153.csv","","null","resources/images/fishbone.png","null","",NA,NA,NA,NA,""
"image-keyboard-response",249,243281,"0.0-4.79-0.79","omxc7oaez7as8xu",467,"153.csv","","513.4000000000233","resources/trios/L4T2A3.jpg","38","restless",0.5,0.5,0.3,0.725815196740899,"false"
"image-keyboard-response",250,243683,"0.0-4.79-1.79","omxc7oaez7as8xu",467,"153.csv","","null","resources/maskTrios/BT2B.jpg","null","",NA,NA,NA,NA,""
"image-keyboard-response",251,244900,"0.0-4.79-2.79","omxc7oaez7as8xu",467,"153.csv","","null","resources/images/fishbone.png","null","",NA,NA,NA,NA,""
"image-keyboard-response",252,246109,"0.0-4.80-0.80","omxc7oaez7as8xu",467,"153.csv","","1208.9000000000233","resources/trios/L4T2A3.jpg","39","restless",0.5,0.5,0.3,0.614458737742767,"false"
"image-keyboard-response",253,246516,"0.0-4.80-1.80","omxc7oaez7as8xu",467,"153.csv","","null","resources/maskTrios/BBA3.jpg","null","",NA,NA,NA,NA,""
"image-keyboard-response",254,247733,"0.0-4.80-2.80","omxc7oaez7as8xu",467,"153.csv","","null","resources/images/fishbone.png","null","",NA,NA,NA,NA,""
"image-keyboard-response",255,248043,"0.0-4.81-0.81","omxc7oaez7as8xu",467,"153.csv","","309.5999999999767","resources/trios/L4T2A3.jpg","37","restless",0.5,0.5,0.3,0.745820296110461,"false"
"image-keyboard-response",256,248449,"0.0-4.81-1.81","omxc7oaez7as8xu",467,"153.csv","","null","resources/maskTrios/L4BB.jpg","null","",NA,NA,NA,NA,""
"image-keyboard-response",257,249666,"0.0-4.81-2.81","omxc7oaez7as8xu",467,"153.csv","","null","resources/images/fishbone.png","null","",NA,NA,NA,NA,""
"image-keyboard-response",258,250397,"0.0-4.82-0.82","omxc7oaez7as8xu",467,"153.csv","","729.6999999999534","resources/trios/L4T2A3.jpg","38","restless",0.5,0.6,0.3,0.7441437534959,"false"
"image-keyboard-response",259,250799,"0.0-4.82-1.82","omxc7oaez7as8xu",467,"153.csv","","null","resources/maskTrios/BT2B.jpg","null","",NA,NA,NA,NA,""
"image-keyboard-response",260,252016,"0.0-4.82-2.82","omxc7oaez7as8xu",467,"153.csv","","null","resources/images/fishbone.png","null","",NA,NA,NA,NA,""
"image-keyboard-response",261,253959,"0.0-4.83-0.83","omxc7oaez7as8xu",467,"153.csv","","1941.8999999999069","resources/trios/L4T2A3.jpg","39","restless",0.5,0.5,0.4,0.593503945866157,"false"
"image-keyboard-response",262,254366,"0.0-4.83-1.83","omxc7oaez7as8xu",467,"153.csv","","null","resources/maskTrios/BBA3.jpg","null","",NA,NA,NA,NA,""
"image-keyboard-response",263,255583,"0.0-4.83-2.83","omxc7oaez7as8xu",467,"153.csv","","null","resources/images/fishbone.png","null","",NA,NA,NA,NA,""
"image-keyboard-response",264,256091,"0.0-4.84-0.84","omxc7oaez7as8xu",467,"153.csv","","507.80000000004657","resources/trios/L4T2A3.jpg","37","restless",0.5,0.5,0.4,0.371748235523227,"true"
"image-keyboard-response",265,256499,"0.0-4.84-1.84","omxc7oaez7as8xu",467,"153.csv","","null","resources/maskTrios/L4BB.jpg","null","",NA,NA,NA,NA,""
"image-keyboard-response",266,257716,"0.0-4.84-2.84","omxc7oaez7as8xu",467,"153.csv","","null","resources/images/coin2.png","null","",NA,NA,NA,NA,""
"image-keyboard-response",267,258091,"0.0-4.85-0.85","omxc7oaez7as8xu",467,"153.csv","","374.5999999999767","resources/trios/L4T2A3.jpg","37","restless",0.5,0.5,0.4,0.0867990160745578,"true"
"image-keyboard-response",268,258499,"0.0-4.85-1.85","omxc7oaez7as8xu",467,"153.csv","","null","resources/maskTrios/L4BB.jpg","null","",NA,NA,NA,NA,""
"image-keyboard-response",269,259700,"0.0-4.85-2.85","omxc7oaez7as8xu",467,"153.csv","","null","resources/images/coin2.png","null","",NA,NA,NA,NA,""
"image-keyboard-response",270,260616,"0.0-4.86-0.86","omxc7oaez7as8xu",467,"153.csv","","920.1000000000931","resources/trios/L4T2A3.jpg","37","restless",0.5,0.4,0.4,0.646342049261006,"false"
"image-keyboard-response",271,261028,"0.0-4.86-1.86","omxc7oaez7as8xu",467,"153.csv","","null","resources/maskTrios/L4BB.jpg","null","",NA,NA,NA,NA,""
"image-keyboard-response",272,262245,"0.0-4.86-2.86","omxc7oaez7as8xu",467,"153.csv","","null","resources/images/fishbone.png","null","",NA,NA,NA,NA,""
"image-keyboard-response",273,262924,"0.0-4.87-0.87","omxc7oaez7as8xu",467,"153.csv","","678.6999999999534","resources/trios/L4T2A3.jpg","39","restless",0.5,0.3,0.4,0.706387706318939,"false"
"image-keyboard-response",274,263328,"0.0-4.87-1.87","omxc7oaez7as8xu",467,"153.csv","","null","resources/maskTrios/BBA3.jpg","null","",NA,NA,NA,NA,""
"image-keyboard-response",275,264529,"0.0-4.87-2.87","omxc7oaez7as8xu",467,"153.csv","","null","resources/images/fishbone.png","null","",NA,NA,NA,NA,""
"image-keyboard-response",276,265034,"0.0-4.88-0.88","omxc7oaez7as8xu",467,"153.csv","","504.4000000000233","resources/trios/L4T2A3.jpg","38","restless",0.5,0.3,0.4,0.516404750118748,"false"
"image-keyboard-response",277,265444,"0.0-4.88-1.88","omxc7oaez7as8xu",467,"153.csv","","null","resources/maskTrios/BT2B.jpg","null","",NA,NA,NA,NA,""
"image-keyboard-response",278,266661,"0.0-4.88-2.88","omxc7oaez7as8xu",467,"153.csv","","null","resources/images/fishbone.png","null","",NA,NA,NA,NA,""
"image-keyboard-response",279,266969,"0.0-4.89-0.89","omxc7oaez7as8xu",467,"153.csv","","307.10000000009313","resources/trios/L4T2A3.jpg","39","restless",0.5,0.3,0.4,0.956528252137786,"false"
"image-keyboard-response",280,267378,"0.0-4.89-1.89","omxc7oaez7as8xu",467,"153.csv","","null","resources/maskTrios/BBA3.jpg","null","",NA,NA,NA,NA,""
"image-keyboard-response",281,268594,"0.0-4.89-2.89","omxc7oaez7as8xu",467,"153.csv","","null","resources/images/fishbone.png","null","",NA,NA,NA,NA,""
"image-keyboard-response",282,269038,"0.0-4.90-0.90","omxc7oaez7as8xu",467,"153.csv","","443.70000000006985","resources/trios/L4T2A3.jpg","37","restless",0.5,0.3,0.4,0.845340900348086,"false"
"image-keyboard-response",283,269444,"0.0-4.90-1.90","omxc7oaez7as8xu",467,"153.csv","","null","resources/maskTrios/L4BB.jpg","null","",NA,NA,NA,NA,""
"image-keyboard-response",284,270661,"0.0-4.90-2.90","omxc7oaez7as8xu",467,"153.csv","","null","resources/images/fishbone.png","null","",NA,NA,NA,NA,""
"image-keyboard-response",285,271988,"0.0-4.91-0.91","omxc7oaez7as8xu",467,"153.csv","","1326","resources/trios/L4T2A3.jpg","38","restless",0.5,0.3,0.4,0.183836074466444,"true"
"image-keyboard-response",286,272394,"0.0-4.91-1.91","omxc7oaez7as8xu",467,"153.csv","","null","resources/maskTrios/BT2B.jpg","null","",NA,NA,NA,NA,""
"image-keyboard-response",287,273595,"0.0-4.91-2.91","omxc7oaez7as8xu",467,"153.csv","","null","resources/images/coin2.png","null","",NA,NA,NA,NA,""
"image-keyboard-response",288,274430,"0.0-4.92-0.92","omxc7oaez7as8xu",467,"153.csv","","833.9000000000233","resources/trios/L4T2A3.jpg","38","restless",0.5,0.3,0.4,0.0764767509377016,"true"
"image-keyboard-response",289,274844,"0.0-4.92-1.92","omxc7oaez7as8xu",467,"153.csv","","null","resources/maskTrios/BT2B.jpg","null","",NA,NA,NA,NA,""
"image-keyboard-response",290,276061,"0.0-4.92-2.92","omxc7oaez7as8xu",467,"153.csv","","null","resources/images/coin2.png","null","",NA,NA,NA,NA,""
"image-keyboard-response",291,276786,"0.0-4.93-0.93","omxc7oaez7as8xu",467,"153.csv","","723.6999999999534","resources/trios/L4T2A3.jpg","38","restless",0.5,0.2,0.4,0.573870129147885,"false"
"image-keyboard-response",292,277194,"0.0-4.93-1.93","omxc7oaez7as8xu",467,"153.csv","","null","resources/maskTrios/BT2B.jpg","null","",NA,NA,NA,NA,""
"image-keyboard-response",293,278395,"0.0-4.93-2.93","omxc7oaez7as8xu",467,"153.csv","","null","resources/images/fishbone.png","null","",NA,NA,NA,NA,""
"image-keyboard-response",294,278755,"0.0-4.94-0.94","omxc7oaez7as8xu",467,"153.csv","","359.5","resources/trios/L4T2A3.jpg","39","restless",0.5,0.2,0.4,0.05830483950482,"true"
"image-keyboard-response",295,279160,"0.0-4.94-1.94","omxc7oaez7as8xu",467,"153.csv","","null","resources/maskTrios/BBA3.jpg","null","",NA,NA,NA,NA,""
"image-keyboard-response",296,280361,"0.0-4.94-2.94","omxc7oaez7as8xu",467,"153.csv","","null","resources/images/coin2.png","null","",NA,NA,NA,NA,""
"image-keyboard-response",297,280828,"0.0-4.95-0.95","omxc7oaez7as8xu",467,"153.csv","","465.19999999995343","resources/trios/L4T2A3.jpg","39","restless",0.5,0.2,0.4,0.541570464144177,"false"
"image-keyboard-response",298,281244,"0.0-4.95-1.95","omxc7oaez7as8xu",467,"153.csv","","null","resources/maskTrios/BBA3.jpg","null","",NA,NA,NA,NA,""
"image-keyboard-response",299,282460,"0.0-4.95-2.95","omxc7oaez7as8xu",467,"153.csv","","null","resources/images/fishbone.png","null","",NA,NA,NA,NA,""
"image-keyboard-response",300,283065,"0.0-4.96-0.96","omxc7oaez7as8xu",467,"153.csv","","604","resources/trios/L4T2A3.jpg","37","restless",0.5,0.2,0.4,0.657569251860421,"false"
"image-keyboard-response",301,283477,"0.0-4.96-1.96","omxc7oaez7as8xu",467,"153.csv","","null","resources/maskTrios/L4BB.jpg","null","",NA,NA,NA,NA,""
"image-keyboard-response",302,284694,"0.0-4.96-2.96","omxc7oaez7as8xu",467,"153.csv","","null","resources/images/fishbone.png","null","",NA,NA,NA,NA,""
"image-keyboard-response",303,285115,"0.0-4.97-0.97","omxc7oaez7as8xu",467,"153.csv","","420.5999999999767","resources/trios/L4T2A3.jpg","38","restless",0.5,0.2,0.4,0.292186814591493,"false"
"image-keyboard-response",304,285527,"0.0-4.97-1.97","omxc7oaez7as8xu",467,"153.csv","","null","resources/maskTrios/BT2B.jpg","null","",NA,NA,NA,NA,""
"image-keyboard-response",305,286744,"0.0-4.97-2.97","omxc7oaez7as8xu",467,"153.csv","","null","resources/images/fishbone.png","null","",NA,NA,NA,NA,""
"image-keyboard-response",306,287269,"0.0-4.98-0.98","omxc7oaez7as8xu",467,"153.csv","","524.6999999999534","resources/trios/L4T2A3.jpg","39","restless",0.5,0.2,0.4,0.928116425668186,"false"
"image-keyboard-response",307,287677,"0.0-4.98-1.98","omxc7oaez7as8xu",467,"153.csv","","null","resources/maskTrios/BBA3.jpg","null","",NA,NA,NA,NA,""
"image-keyboard-response",308,288878,"0.0-4.98-2.98","omxc7oaez7as8xu",467,"153.csv","","null","resources/images/fishbone.png","null","",NA,NA,NA,NA,""
"image-keyboard-response",309,288916,"0.0-4.99-0.99","omxc7oaez7as8xu",467,"153.csv","","37","resources/trios/L4T2A3.jpg","37","restless",0.5,0.2,0.4,0.686393010177364,"false"
"image-keyboard-response",310,289326,"0.0-4.99-1.99","omxc7oaez7as8xu",467,"153.csv","","null","resources/maskTrios/L4BB.jpg","null","",NA,NA,NA,NA,""
"image-keyboard-response",311,290543,"0.0-4.99-2.99","omxc7oaez7as8xu",467,"153.csv","","null","resources/images/fishbone.png","null","",NA,NA,NA,NA,""
"image-keyboard-response",312,290896,"0.0-4.100-0.100","omxc7oaez7as8xu",467,"153.csv","","351.19999999995343","resources/trios/L4T2A3.jpg","38","restless",0.4,0.2,0.4,0.0439622954963308,"true"
"image-keyboard-response",313,291310,"0.0-4.100-1.100","omxc7oaez7as8xu",467,"153.csv","","null","resources/maskTrios/BT2B.jpg","null","",NA,NA,NA,NA,""
"image-keyboard-response",314,292527,"0.0-4.100-2.100","omxc7oaez7as8xu",467,"153.csv","","null","resources/images/coin2.png","null","",NA,NA,NA,NA,""
"image-keyboard-response",315,292896,"0.0-4.101-0.101","omxc7oaez7as8xu",467,"153.csv","","368.19999999995343","resources/trios/L4T2A3.jpg","38","restless",0.4,0.2,0.4,0.768044871269284,"false"
"image-keyboard-response",316,293311,"0.0-4.101-1.101","omxc7oaez7as8xu",467,"153.csv","","null","resources/maskTrios/BT2B.jpg","null","",NA,NA,NA,NA,""
"image-keyboard-response",317,294511,"0.0-4.101-2.101","omxc7oaez7as8xu",467,"153.csv","","null","resources/images/fishbone.png","null","",NA,NA,NA,NA,""
"image-keyboard-response",318,294946,"0.0-4.102-0.102","omxc7oaez7as8xu",467,"153.csv","","434.29999999993015","resources/trios/L4T2A3.jpg","39","restless",0.5,0.2,0.4,0.637900859951725,"false"
"image-keyboard-response",319,295360,"0.0-4.102-1.102","omxc7oaez7as8xu",467,"153.csv","","null","resources/maskTrios/BBA3.jpg","null","",NA,NA,NA,NA,""
"image-keyboard-response",320,296562,"0.0-4.102-2.102","omxc7oaez7as8xu",467,"153.csv","","null","resources/images/fishbone.png","null","",NA,NA,NA,NA,""
"image-keyboard-response",321,296635,"0.0-4.103-0.103","omxc7oaez7as8xu",467,"153.csv","","72.5","resources/trios/L4T2A3.jpg","37","restless",0.5,0.2,0.4,0.555577312746933,"false"
"image-keyboard-response",322,297043,"0.0-4.103-1.103","omxc7oaez7as8xu",467,"153.csv","","null","resources/maskTrios/L4BB.jpg","null","",NA,NA,NA,NA,""
"image-keyboard-response",323,298244,"0.0-4.103-2.103","omxc7oaez7as8xu",467,"153.csv","","null","resources/images/fishbone.png","null","",NA,NA,NA,NA,""
"image-keyboard-response",324,298679,"0.0-4.104-0.104","omxc7oaez7as8xu",467,"153.csv","","434.0999999999767","resources/trios/L4T2A3.jpg","38","restless",0.5,0.2,0.4,0.441239718555996,"false"
"image-keyboard-response",325,299094,"0.0-4.104-1.104","omxc7oaez7as8xu",467,"153.csv","","null","resources/maskTrios/BT2B.jpg","null","",NA,NA,NA,NA,""
"image-keyboard-response",326,300310,"0.0-4.104-2.104","omxc7oaez7as8xu",467,"153.csv","","null","resources/images/fishbone.png","null","",NA,NA,NA,NA,""
"image-keyboard-response",327,300461,"0.0-4.105-0.105","omxc7oaez7as8xu",467,"153.csv","","150","resources/trios/L4T2A3.jpg","39","restless",0.5,0.2,0.4,0.437990558055928,"false"
"image-keyboard-response",328,300877,"0.0-4.105-1.105","omxc7oaez7as8xu",467,"153.csv","","null","resources/maskTrios/BBA3.jpg","null","",NA,NA,NA,NA,""
"image-keyboard-response",329,302079,"0.0-4.105-2.105","omxc7oaez7as8xu",467,"153.csv","","null","resources/images/fishbone.png","null","",NA,NA,NA,NA,""
"image-keyboard-response",330,302593,"0.0-4.106-0.106","omxc7oaez7as8xu",467,"153.csv","","513","resources/trios/L4T2A3.jpg","37","restless",0.5,0.2,0.4,0.700633756073799,"false"
"image-keyboard-response",331,303010,"0.0-4.106-1.106","omxc7oaez7as8xu",467,"153.csv","","null","resources/maskTrios/L4BB.jpg","null","",NA,NA,NA,NA,""
"image-keyboard-response",332,304227,"0.0-4.106-2.106","omxc7oaez7as8xu",467,"153.csv","","null","resources/images/fishbone.png","null","",NA,NA,NA,NA,""
"image-keyboard-response",333,305164,"0.0-4.107-0.107","omxc7oaez7as8xu",467,"153.csv","","936.4000000000233","resources/trios/L4T2A3.jpg","38","restless",0.5,0.2,0.4,0.259241576609266,"false"
"image-keyboard-response",334,305577,"0.0-4.107-1.107","omxc7oaez7as8xu",467,"153.csv","","null","resources/maskTrios/BT2B.jpg","null","",NA,NA,NA,NA,""
"image-keyboard-response",335,306793,"0.0-4.107-2.107","omxc7oaez7as8xu",467,"153.csv","","null","resources/images/fishbone.png","null","",NA,NA,NA,NA,""
"image-keyboard-response",336,307217,"0.0-4.108-0.108","omxc7oaez7as8xu",467,"153.csv","","423.4000000000233","resources/trios/L4T2A3.jpg","39","restless",0.5,0.2,0.5,0.862021907358704,"false"
"image-keyboard-response",337,307626,"0.0-4.108-1.108","omxc7oaez7as8xu",467,"153.csv","","null","resources/maskTrios/BBA3.jpg","null","",NA,NA,NA,NA,""
"image-keyboard-response",338,308828,"0.0-4.108-2.108","omxc7oaez7as8xu",467,"153.csv","","null","resources/images/fishbone.png","null","",NA,NA,NA,NA,""
"image-keyboard-response",339,309390,"0.0-4.109-0.109","omxc7oaez7as8xu",467,"153.csv","","561.4000000000233","resources/trios/L4T2A3.jpg","38","restless",0.5,0.2,0.6,0.936662463682063,"false"
"image-keyboard-response",340,309794,"0.0-4.109-1.109","omxc7oaez7as8xu",467,"153.csv","","null","resources/maskTrios/BT2B.jpg","null","",NA,NA,NA,NA,""
"image-keyboard-response",341,311010,"0.0-4.109-2.109","omxc7oaez7as8xu",467,"153.csv","","null","resources/images/fishbone.png","null","",NA,NA,NA,NA,""
"image-keyboard-response",342,311365,"0.0-4.110-0.110","omxc7oaez7as8xu",467,"153.csv","","354.29999999993015","resources/trios/L4T2A3.jpg","37","restless",0.5,0.3,0.6,0.924667135181563,"false"
"image-keyboard-response",343,311776,"0.0-4.110-1.110","omxc7oaez7as8xu",467,"153.csv","","null","resources/maskTrios/L4BB.jpg","null","",NA,NA,NA,NA,""
"image-keyboard-response",344,312993,"0.0-4.110-2.110","omxc7oaez7as8xu",467,"153.csv","","null","resources/images/fishbone.png","null","",NA,NA,NA,NA,""
"image-keyboard-response",345,313218,"0.0-4.111-0.111","omxc7oaez7as8xu",467,"153.csv","","224","resources/trios/L4T2A3.jpg","39","restless",0.5,0.3,0.6,0.617207710737568,"false"
"image-keyboard-response",346,313626,"0.0-4.111-1.111","omxc7oaez7as8xu",467,"153.csv","","null","resources/maskTrios/BBA3.jpg","null","",NA,NA,NA,NA,""
"image-keyboard-response",347,314843,"0.0-4.111-2.111","omxc7oaez7as8xu",467,"153.csv","","null","resources/images/fishbone.png","null","",NA,NA,NA,NA,""
"image-keyboard-response",348,314886,"0.0-4.112-0.112","omxc7oaez7as8xu",467,"153.csv","","42.40000000002328","resources/trios/L4T2A3.jpg","38","restless",0.5,0.4,0.6,0.179016378875185,"true"
"image-keyboard-response",349,315293,"0.0-4.112-1.112","omxc7oaez7as8xu",467,"153.csv","","null","resources/maskTrios/BT2B.jpg","null","",NA,NA,NA,NA,""
"image-keyboard-response",350,316509,"0.0-4.112-2.112","omxc7oaez7as8xu",467,"153.csv","","null","resources/images/coin2.png","null","",NA,NA,NA,NA,""
"image-keyboard-response",351,317039,"0.0-4.113-0.113","omxc7oaez7as8xu",467,"153.csv","","529.4000000000233","resources/trios/L4T2A3.jpg","38","restless",0.5,0.4,0.6,0.764694221438113,"false"
"image-keyboard-response",352,317443,"0.0-4.113-1.113","omxc7oaez7as8xu",467,"153.csv","","null","resources/maskTrios/BT2B.jpg","null","",NA,NA,NA,NA,""
"image-keyboard-response",353,318659,"0.0-4.113-2.113","omxc7oaez7as8xu",467,"153.csv","","null","resources/images/fishbone.png","null","",NA,NA,NA,NA,""
"image-keyboard-response",354,318703,"0.0-4.114-0.114","omxc7oaez7as8xu",467,"153.csv","","43","resources/trios/L4T2A3.jpg","39","restless",0.5,0.4,0.6,0.105301280543412,"true"
"image-keyboard-response",355,319109,"0.0-4.114-1.114","omxc7oaez7as8xu",467,"153.csv","","null","resources/maskTrios/BBA3.jpg","null","",NA,NA,NA,NA,""
"image-keyboard-response",356,320326,"0.0-4.114-2.114","omxc7oaez7as8xu",467,"153.csv","","null","resources/images/coin2.png","null","",NA,NA,NA,NA,""
"image-keyboard-response",357,320681,"0.0-4.115-0.115","omxc7oaez7as8xu",467,"153.csv","","352.70000000006985","resources/trios/L4T2A3.jpg","39","restless",0.5,0.4,0.6,0.714653265395123,"false"
"image-keyboard-response",358,321093,"0.0-4.115-1.115","omxc7oaez7as8xu",467,"153.csv","","null","resources/maskTrios/BBA3.jpg","null","",NA,NA,NA,NA,""
"image-keyboard-response",359,322294,"0.0-4.115-2.115","omxc7oaez7as8xu",467,"153.csv","","null","resources/images/fishbone.png","null","",NA,NA,NA,NA,""
"image-keyboard-response",360,322682,"0.0-4.116-0.116","omxc7oaez7as8xu",467,"153.csv","","387.5999999999767","resources/trios/L4T2A3.jpg","37","restless",0.5,0.4,0.6,0.509515949537594,"false"
"image-keyboard-response",361,323093,"0.0-4.116-1.116","omxc7oaez7as8xu",467,"153.csv","","null","resources/maskTrios/L4BB.jpg","null","",NA,NA,NA,NA,""
"image-keyboard-response",362,324310,"0.0-4.116-2.116","omxc7oaez7as8xu",467,"153.csv","","null","resources/images/fishbone.png","null","",NA,NA,NA,NA,""
"image-keyboard-response",363,324661,"0.0-4.117-0.117","omxc7oaez7as8xu",467,"153.csv","","350.0999999999767","resources/trios/L4T2A3.jpg","38","restless",0.5,0.4,0.6,0.952649972862652,"false"
"image-keyboard-response",364,325076,"0.0-4.117-1.117","omxc7oaez7as8xu",467,"153.csv","","null","resources/maskTrios/BT2B.jpg","null","",NA,NA,NA,NA,""
"image-keyboard-response",365,326292,"0.0-4.117-2.117","omxc7oaez7as8xu",467,"153.csv","","null","resources/images/fishbone.png","null","",NA,NA,NA,NA,""
"image-keyboard-response",366,326860,"0.0-4.118-0.118","omxc7oaez7as8xu",467,"153.csv","","566.6999999999534","resources/trios/L4T2A3.jpg","39","restless",0.5,0.4,0.5,0.665317852420648,"false"
"image-keyboard-response",367,327275,"0.0-4.118-1.118","omxc7oaez7as8xu",467,"153.csv","","null","resources/maskTrios/BBA3.jpg","null","",NA,NA,NA,NA,""
"image-keyboard-response",368,328476,"0.0-4.118-2.118","omxc7oaez7as8xu",467,"153.csv","","null","resources/images/fishbone.png","null","",NA,NA,NA,NA,""
"image-keyboard-response",369,328887,"0.0-4.119-0.119","omxc7oaez7as8xu",467,"153.csv","","410.0999999999767","resources/trios/L4T2A3.jpg","37","restless",0.5,0.4,0.5,0.937083771112321,"false"
"image-keyboard-response",370,329292,"0.0-4.119-1.119","omxc7oaez7as8xu",467,"153.csv","","null","resources/maskTrios/L4BB.jpg","null","",NA,NA,NA,NA,""
"image-keyboard-response",371,330509,"0.0-4.119-2.119","omxc7oaez7as8xu",467,"153.csv","","null","resources/images/fishbone.png","null","",NA,NA,NA,NA,""
"image-keyboard-response",372,330595,"0.0-4.120-0.120","omxc7oaez7as8xu",467,"153.csv","","85.90000000002328","resources/trios/L4T2A3.jpg","38","restless",0.5,0.4,0.5,0.238983834096015,"true"
"image-keyboard-response",373,331008,"0.0-4.120-1.120","omxc7oaez7as8xu",467,"153.csv","","null","resources/maskTrios/BT2B.jpg","null","",NA,NA,NA,NA,""
"image-keyboard-response",374,332225,"0.0-4.120-2.120","omxc7oaez7as8xu",467,"153.csv","","null","resources/images/coin2.png","null","",NA,NA,NA,NA,""
"image-keyboard-response",375,332510,"0.0-4.121-0.121","omxc7oaez7as8xu",467,"153.csv","","283.5","resources/trios/L4T2A3.jpg","38","restless",0.5,0.3,0.5,0.932087528654564,"false"
"image-keyboard-response",376,332925,"0.0-4.121-1.121","omxc7oaez7as8xu",467,"153.csv","","null","resources/maskTrios/BT2B.jpg","null","",NA,NA,NA,NA,""
"image-keyboard-response",377,334126,"0.0-4.121-2.121","omxc7oaez7as8xu",467,"153.csv","","null","resources/images/fishbone.png","null","",NA,NA,NA,NA,""
"image-keyboard-response",378,334470,"0.0-4.122-0.122","omxc7oaez7as8xu",467,"153.csv","","342.79999999993015","resources/trios/L4T2A3.jpg","39","restless",0.5,0.3,0.5,0.272253043402392,"true"
"image-keyboard-response",379,334875,"0.0-4.122-1.122","omxc7oaez7as8xu",467,"153.csv","","null","resources/maskTrios/BBA3.jpg","null","",NA,NA,NA,NA,""
"image-keyboard-response",380,336092,"0.0-4.122-2.122","omxc7oaez7as8xu",467,"153.csv","","null","resources/images/coin2.png","null","",NA,NA,NA,NA,""
"image-keyboard-response",381,341207,"0.0-4.123-0.123","omxc7oaez7as8xu",467,"153.csv","","5114.20000000007","resources/trios/L4T2A3.jpg","37","restless",0.5,0.3,0.5,0.864248589377913,"false"
"image-keyboard-response",382,341608,"0.0-4.123-1.123","omxc7oaez7as8xu",467,"153.csv","","null","resources/maskTrios/L4BB.jpg","null","",NA,NA,NA,NA,""
"image-keyboard-response",383,342825,"0.0-4.123-2.123","omxc7oaez7as8xu",467,"153.csv","","null","resources/images/fishbone.png","null","",NA,NA,NA,NA,""
"image-keyboard-response",384,343352,"0.0-4.124-0.124","omxc7oaez7as8xu",467,"153.csv","","527","resources/trios/L4T2A3.jpg","37","restless",0.5,0.3,0.5,0.337153041539022,"true"
"image-keyboard-response",385,343758,"0.0-4.124-1.124","omxc7oaez7as8xu",467,"153.csv","","null","resources/maskTrios/L4BB.jpg","null","",NA,NA,NA,NA,""
"image-keyboard-response",386,344969,"0.0-4.124-2.124","omxc7oaez7as8xu",467,"153.csv","","null","resources/images/coin2.png","null","",NA,NA,NA,NA,""
"image-keyboard-response",387,345216,"0.0-4.125-0.125","omxc7oaez7as8xu",467,"153.csv","","246","resources/trios/L4T2A3.jpg","38","restless",0.5,0.3,0.5,0.84416096122529,"false"
"image-keyboard-response",388,345624,"0.0-4.125-1.125","omxc7oaez7as8xu",467,"153.csv","","null","resources/maskTrios/BT2B.jpg","null","",NA,NA,NA,NA,""
"image-keyboard-response",389,346841,"0.0-4.125-2.125","omxc7oaez7as8xu",467,"153.csv","","null","resources/images/fishbone.png","null","",NA,NA,NA,NA,""
"image-keyboard-response",390,347261,"0.0-4.126-0.126","omxc7oaez7as8xu",467,"153.csv","","419","resources/trios/L4T2A3.jpg","39","restless",0.5,0.3,0.5,0.656884660338712,"false"
"image-keyboard-response",391,347675,"0.0-4.126-1.126","omxc7oaez7as8xu",467,"153.csv","","null","resources/maskTrios/BBA3.jpg","null","",NA,NA,NA,NA,""
"image-keyboard-response",392,348891,"0.0-4.126-2.126","omxc7oaez7as8xu",467,"153.csv","","null","resources/images/fishbone.png","null","",NA,NA,NA,NA,""
"image-keyboard-response",393,349326,"0.0-4.127-0.127","omxc7oaez7as8xu",467,"153.csv","","433.9000000000233","resources/trios/L4T2A3.jpg","37","restless",0.5,0.3,0.5,0.992246383930777,"false"
"image-keyboard-response",394,349741,"0.0-4.127-1.127","omxc7oaez7as8xu",467,"153.csv","","null","resources/maskTrios/L4BB.jpg","null","",NA,NA,NA,NA,""
"image-keyboard-response",395,350958,"0.0-4.127-2.127","omxc7oaez7as8xu",467,"153.csv","","null","resources/images/fishbone.png","null","",NA,NA,NA,NA,""
"image-keyboard-response",396,351311,"0.0-4.128-0.128","omxc7oaez7as8xu",467,"153.csv","","353","resources/trios/L4T2A3.jpg","38","restless",0.5,0.3,0.5,0.851527689200011,"false"
"image-keyboard-response",397,351724,"0.0-4.128-1.128","omxc7oaez7as8xu",467,"153.csv","","null","resources/maskTrios/BT2B.jpg","null","",NA,NA,NA,NA,""
"image-keyboard-response",398,352925,"0.0-4.128-2.128","omxc7oaez7as8xu",467,"153.csv","","null","resources/images/fishbone.png","null","",NA,NA,NA,NA,""
"image-keyboard-response",399,353460,"0.0-4.129-0.129","omxc7oaez7as8xu",467,"153.csv","","534.2999999999302","resources/trios/L4T2A3.jpg","37","restless",0.5,0.4,0.5,0.405350951997816,"true"
"image-keyboard-response",400,353874,"0.0-4.129-1.129","omxc7oaez7as8xu",467,"153.csv","","null","resources/maskTrios/L4BB.jpg","null","",NA,NA,NA,NA,""
"image-keyboard-response",401,355075,"0.0-4.129-2.129","omxc7oaez7as8xu",467,"153.csv","","null","resources/images/coin2.png","null","",NA,NA,NA,NA,""
"image-keyboard-response",402,355644,"0.0-4.130-0.130","omxc7oaez7as8xu",467,"153.csv","","567.9000000000233","resources/trios/L4T2A3.jpg","37","restless",0.5,0.4,0.5,0.385826421297463,"true"
"image-keyboard-response",403,356057,"0.0-4.130-1.130","omxc7oaez7as8xu",467,"153.csv","","null","resources/maskTrios/L4BB.jpg","null","",NA,NA,NA,NA,""
"image-keyboard-response",404,357258,"0.0-4.130-2.130","omxc7oaez7as8xu",467,"153.csv","","null","resources/images/coin2.png","null","",NA,NA,NA,NA,""
"image-keyboard-response",405,358037,"0.0-4.131-0.131","omxc7oaez7as8xu",467,"153.csv","","777.9000000000233","resources/trios/L4T2A3.jpg","37","restless",0.5,0.4,0.5,0.844697894930929,"false"
"image-keyboard-response",406,358440,"0.0-4.131-1.131","omxc7oaez7as8xu",467,"153.csv","","null","resources/maskTrios/L4BB.jpg","null","",NA,NA,NA,NA,""
"image-keyboard-response",407,359657,"0.0-4.131-2.131","omxc7oaez7as8xu",467,"153.csv","","null","resources/images/fishbone.png","null","",NA,NA,NA,NA,""
"image-keyboard-response",408,360987,"0.0-4.132-0.132","omxc7oaez7as8xu",467,"153.csv","","1328.9000000000233","resources/trios/L4T2A3.jpg","38","restless",0.5,0.5,0.4,0.459494752961684,"true"
"image-keyboard-response",409,361391,"0.0-4.132-1.132","omxc7oaez7as8xu",467,"153.csv","","null","resources/maskTrios/BT2B.jpg","null","",NA,NA,NA,NA,""
"image-keyboard-response",410,362607,"0.0-4.132-2.132","omxc7oaez7as8xu",467,"153.csv","","null","resources/images/coin2.png","null","",NA,NA,NA,NA,""
"image-keyboard-response",411,363206,"0.0-4.133-0.133","omxc7oaez7as8xu",467,"153.csv","","598.2999999999302","resources/trios/L4T2A3.jpg","38","restless",0.5,0.5,0.4,0.48910463347757,"true"
"image-keyboard-response",412,363624,"0.0-4.133-1.133","omxc7oaez7as8xu",467,"153.csv","","null","resources/maskTrios/BT2B.jpg","null","",NA,NA,NA,NA,""
"image-keyboard-response",413,364825,"0.0-4.133-2.133","omxc7oaez7as8xu",467,"153.csv","","null","resources/images/coin2.png","null","",NA,NA,NA,NA,""
"image-keyboard-response",414,365251,"0.0-4.134-0.134","omxc7oaez7as8xu",467,"153.csv","","426.29999999993015","resources/trios/L4T2A3.jpg","38","restless",0.5,0.6,0.4,0.529788654037157,"true"
"image-keyboard-response",415,365658,"0.0-4.134-1.134","omxc7oaez7as8xu",467,"153.csv","","null","resources/maskTrios/BT2B.jpg","null","",NA,NA,NA,NA,""
"image-keyboard-response",416,366873,"0.0-4.134-2.134","omxc7oaez7as8xu",467,"153.csv","","null","resources/images/coin2.png","null","",NA,NA,NA,NA,""
"image-keyboard-response",417,367428,"0.0-4.135-0.135","omxc7oaez7as8xu",467,"153.csv","","553.6999999999534","resources/trios/L4T2A3.jpg","38","restless",0.5,0.6,0.4,0.362106254991499,"true"
"image-keyboard-response",418,367840,"0.0-4.135-1.135","omxc7oaez7as8xu",467,"153.csv","","null","resources/maskTrios/BT2B.jpg","null","",NA,NA,NA,NA,""
"image-keyboard-response",419,369057,"0.0-4.135-2.135","omxc7oaez7as8xu",467,"153.csv","","null","resources/images/coin2.png","null","",NA,NA,NA,NA,""
"image-keyboard-response",420,369525,"0.0-4.136-0.136","omxc7oaez7as8xu",467,"153.csv","","467.69999999995343","resources/trios/L4T2A3.jpg","38","restless",0.5,0.6,0.4,0.598654336147297,"true"
"image-keyboard-response",421,369940,"0.0-4.136-1.136","omxc7oaez7as8xu",467,"153.csv","","null","resources/maskTrios/BT2B.jpg","null","",NA,NA,NA,NA,""
"image-keyboard-response",422,371156,"0.0-4.136-2.136","omxc7oaez7as8xu",467,"153.csv","","null","resources/images/coin2.png","null","",NA,NA,NA,NA,""
"image-keyboard-response",423,371745,"0.0-4.137-0.137","omxc7oaez7as8xu",467,"153.csv","","587.6999999999534","resources/trios/L4T2A3.jpg","38","restless",0.5,0.6,0.4,0.833508627273114,"false"
"image-keyboard-response",424,372157,"0.0-4.137-1.137","omxc7oaez7as8xu",467,"153.csv","","null","resources/maskTrios/BT2B.jpg","null","",NA,NA,NA,NA,""
"image-keyboard-response",425,373373,"0.0-4.137-2.137","omxc7oaez7as8xu",467,"153.csv","","null","resources/images/fishbone.png","null","",NA,NA,NA,NA,""
"image-keyboard-response",426,374114,"0.0-4.138-0.138","omxc7oaez7as8xu",467,"153.csv","","740.1000000000931","resources/trios/L4T2A3.jpg","39","restless",0.5,0.6,0.3,0.795601929050694,"false"
"image-keyboard-response",427,374523,"0.0-4.138-1.138","omxc7oaez7as8xu",467,"153.csv","","null","resources/maskTrios/BBA3.jpg","null","",NA,NA,NA,NA,""
"image-keyboard-response",428,375739,"0.0-4.138-2.138","omxc7oaez7as8xu",467,"153.csv","","null","resources/images/fishbone.png","null","",NA,NA,NA,NA,""
"image-keyboard-response",429,376222,"0.0-4.139-0.139","omxc7oaez7as8xu",467,"153.csv","","482.60000000009313","resources/trios/L4T2A3.jpg","37","restless",0.5,0.6,0.3,0.700141387969652,"false"
"image-keyboard-response",430,376623,"0.0-4.139-1.139","omxc7oaez7as8xu",467,"153.csv","","null","resources/maskTrios/L4BB.jpg","null","",NA,NA,NA,NA,""
"image-keyboard-response",431,377840,"0.0-4.139-2.139","omxc7oaez7as8xu",467,"153.csv","","null","resources/images/fishbone.png","null","",NA,NA,NA,NA,""
"image-keyboard-response",432,378311,"0.0-4.140-0.140","omxc7oaez7as8xu",467,"153.csv","","470.5999999998603","resources/trios/L4T2A3.jpg","38","restless",0.5,0.6,0.3,0.531631941267957,"true"
"image-keyboard-response",433,378723,"0.0-4.140-1.140","omxc7oaez7as8xu",467,"153.csv","","null","resources/maskTrios/BT2B.jpg","null","",NA,NA,NA,NA,""
"image-keyboard-response",434,379940,"0.0-4.140-2.140","omxc7oaez7as8xu",467,"153.csv","","null","resources/images/coin2.png","null","",NA,NA,NA,NA,""
"image-keyboard-response",435,380312,"0.0-4.141-0.141","omxc7oaez7as8xu",467,"153.csv","","371.4000000001397","resources/trios/L4T2A3.jpg","38","restless",0.5,0.6,0.3,0.516776886520218,"true"
"image-keyboard-response",436,380726,"0.0-4.141-1.141","omxc7oaez7as8xu",467,"153.csv","","null","resources/maskTrios/BT2B.jpg","null","",NA,NA,NA,NA,""
"image-keyboard-response",437,381927,"0.0-4.141-2.141","omxc7oaez7as8xu",467,"153.csv","","null","resources/images/coin2.png","null","",NA,NA,NA,NA,""
"image-keyboard-response",438,382192,"0.0-4.142-0.142","omxc7oaez7as8xu",467,"153.csv","","263.69999999995343","resources/trios/L4T2A3.jpg","38","restless",0.6,0.6,0.3,0.0253370872954077,"true"
"image-keyboard-response",439,382608,"0.0-4.142-1.142","omxc7oaez7as8xu",467,"153.csv","","null","resources/maskTrios/BT2B.jpg","null","",NA,NA,NA,NA,""
"image-keyboard-response",440,383809,"0.0-4.142-2.142","omxc7oaez7as8xu",467,"153.csv","","null","resources/images/coin2.png","null","",NA,NA,NA,NA,""
"image-keyboard-response",441,384184,"0.0-4.143-0.143","omxc7oaez7as8xu",467,"153.csv","","374.19999999995343","resources/trios/L4T2A3.jpg","38","restless",0.6,0.6,0.3,0.285832845091813,"true"
"image-keyboard-response",442,384593,"0.0-4.143-1.143","omxc7oaez7as8xu",467,"153.csv","","null","resources/maskTrios/BT2B.jpg","null","",NA,NA,NA,NA,""
"image-keyboard-response",443,385809,"0.0-4.143-2.143","omxc7oaez7as8xu",467,"153.csv","","null","resources/images/coin2.png","null","",NA,NA,NA,NA,""
"image-keyboard-response",444,386120,"0.0-4.144-0.144","omxc7oaez7as8xu",467,"153.csv","","310.19999999995343","resources/trios/L4T2A3.jpg","38","restless",0.7,0.7,0.3,0.905729819983651,"false"
"image-keyboard-response",445,386526,"0.0-4.144-1.144","omxc7oaez7as8xu",467,"153.csv","","null","resources/maskTrios/BT2B.jpg","null","",NA,NA,NA,NA,""
"image-keyboard-response",446,387742,"0.0-4.144-2.144","omxc7oaez7as8xu",467,"153.csv","","null","resources/images/fishbone.png","null","",NA,NA,NA,NA,""
"image-keyboard-response",447,388146,"0.0-4.145-0.145","omxc7oaez7as8xu",467,"153.csv","","403.30000000004657","resources/trios/L4T2A3.jpg","37","restless",0.7,0.7,0.3,0.9959327067341,"false"
"image-keyboard-response",448,388559,"0.0-4.145-1.145","omxc7oaez7as8xu",467,"153.csv","","null","resources/maskTrios/L4BB.jpg","null","",NA,NA,NA,NA,""
"image-keyboard-response",449,389776,"0.0-4.145-2.145","omxc7oaez7as8xu",467,"153.csv","","null","resources/images/fishbone.png","null","",NA,NA,NA,NA,""
"image-keyboard-response",450,390191,"0.0-4.146-0.146","omxc7oaez7as8xu",467,"153.csv","","415","resources/trios/L4T2A3.jpg","39","restless",0.7,0.8,0.3,0.951941989144613,"false"
"image-keyboard-response",451,390593,"0.0-4.146-1.146","omxc7oaez7as8xu",467,"153.csv","","null","resources/maskTrios/BBA3.jpg","null","",NA,NA,NA,NA,""
"image-keyboard-response",452,391809,"0.0-4.146-2.146","omxc7oaez7as8xu",467,"153.csv","","null","resources/images/fishbone.png","null","",NA,NA,NA,NA,""
"image-keyboard-response",453,392143,"0.0-4.147-0.147","omxc7oaez7as8xu",467,"153.csv","","332.80000000004657","resources/trios/L4T2A3.jpg","38","restless",0.7,0.8,0.3,0.731565673857232,"true"
"image-keyboard-response",454,392559,"0.0-4.147-1.147","omxc7oaez7as8xu",467,"153.csv","","null","resources/maskTrios/BT2B.jpg","null","",NA,NA,NA,NA,""
"image-keyboard-response",455,393776,"0.0-4.147-2.147","omxc7oaez7as8xu",467,"153.csv","","null","resources/images/coin2.png","null","",NA,NA,NA,NA,""
"image-keyboard-response",456,394165,"0.0-4.148-0.148","omxc7oaez7as8xu",467,"153.csv","","388.5","resources/trios/L4T2A3.jpg","38","restless",0.7,0.8,0.3,0.97368151906759,"false"
"image-keyboard-response",457,394575,"0.0-4.148-1.148","omxc7oaez7as8xu",467,"153.csv","","null","resources/maskTrios/BT2B.jpg","null","",NA,NA,NA,NA,""
"image-keyboard-response",458,395792,"0.0-4.148-2.148","omxc7oaez7as8xu",467,"153.csv","","null","resources/images/fishbone.png","null","",NA,NA,NA,NA,""
"image-keyboard-response",459,395857,"0.0-4.149-0.149","omxc7oaez7as8xu",467,"153.csv","","63.89999999990687","resources/trios/L4T2A3.jpg","37","restless",0.7,0.8,0.3,0.0754238037714243,"true"
"image-keyboard-response",460,396259,"0.0-4.149-1.149","omxc7oaez7as8xu",467,"153.csv","","null","resources/maskTrios/L4BB.jpg","null","",NA,NA,NA,NA,""
"image-keyboard-response",461,397476,"0.0-4.149-2.149","omxc7oaez7as8xu",467,"153.csv","","null","resources/images/coin2.png","null","",NA,NA,NA,NA,""
"image-keyboard-response",462,397857,"0.0-4.150-0.150","omxc7oaez7as8xu",467,"153.csv","","380.60000000009313","resources/trios/L4T2A3.jpg","38","restless",0.7,0.8,0.4,0.122856821762693,"true"
"image-keyboard-response",463,398259,"0.0-4.150-1.150","omxc7oaez7as8xu",467,"153.csv","","null","resources/maskTrios/BT2B.jpg","null","",NA,NA,NA,NA,""
"image-keyboard-response",464,399460,"0.0-4.150-2.150","omxc7oaez7as8xu",467,"153.csv","","null","resources/images/coin2.png","null","",NA,NA,NA,NA,""
"image-keyboard-response",465,399948,"0.0-4.151-0.151","omxc7oaez7as8xu",467,"153.csv","","487.20000000018626","resources/trios/L4T2A3.jpg","38","restless",0.7,0.8,0.4,0.91823726352631,"false"
"image-keyboard-response",466,400359,"0.0-4.151-1.151","omxc7oaez7as8xu",467,"153.csv","","null","resources/maskTrios/BT2B.jpg","null","",NA,NA,NA,NA,""
"image-keyboard-response",467,401575,"0.0-4.151-2.151","omxc7oaez7as8xu",467,"153.csv","","null","resources/images/fishbone.png","null","",NA,NA,NA,NA,""
"image-keyboard-response",468,402142,"0.0-4.152-0.152","omxc7oaez7as8xu",467,"153.csv","","565.9000000001397","resources/trios/L4T2A3.jpg","38","restless",0.7,0.8,0.4,0.212898618199704,"true"
"image-keyboard-response",469,402558,"0.0-4.152-1.152","omxc7oaez7as8xu",467,"153.csv","","null","resources/maskTrios/BT2B.jpg","null","",NA,NA,NA,NA,""
"image-keyboard-response",470,403759,"0.0-4.152-2.152","omxc7oaez7as8xu",467,"153.csv","","null","resources/images/coin2.png","null","",NA,NA,NA,NA,""
"image-keyboard-response",471,404207,"0.0-4.153-0.153","omxc7oaez7as8xu",467,"153.csv","","446.89999999990687","resources/trios/L4T2A3.jpg","38","restless",0.7,0.8,0.4,0.0115823476587442,"true"
"image-keyboard-response",472,404608,"0.0-4.153-1.153","omxc7oaez7as8xu",467,"153.csv","","null","resources/maskTrios/BT2B.jpg","null","",NA,NA,NA,NA,""
"image-keyboard-response",473,405809,"0.0-4.153-2.153","omxc7oaez7as8xu",467,"153.csv","","null","resources/images/coin2.png","null","",NA,NA,NA,NA,""
"image-keyboard-response",474,406230,"0.0-4.154-0.154","omxc7oaez7as8xu",467,"153.csv","","420.5","resources/trios/L4T2A3.jpg","38","restless",0.7,0.8,0.4,0.609111550169902,"true"
"image-keyboard-response",475,406641,"0.0-4.154-1.154","omxc7oaez7as8xu",467,"153.csv","","null","resources/maskTrios/BT2B.jpg","null","",NA,NA,NA,NA,""
"image-keyboard-response",476,407858,"0.0-4.154-2.154","omxc7oaez7as8xu",467,"153.csv","","null","resources/images/coin2.png","null","",NA,NA,NA,NA,""
"image-keyboard-response",477,408034,"0.0-4.155-0.155","omxc7oaez7as8xu",467,"153.csv","","175.10000000009313","resources/trios/L4T2A3.jpg","38","restless",0.7,0.9,0.3,0.753719991456582,"true"
"image-keyboard-response",478,408442,"0.0-4.155-1.155","omxc7oaez7as8xu",467,"153.csv","","null","resources/maskTrios/BT2B.jpg","null","",NA,NA,NA,NA,""
"image-keyboard-response",479,409659,"0.0-4.155-2.155","omxc7oaez7as8xu",467,"153.csv","","null","resources/images/coin2.png","null","",NA,NA,NA,NA,""
"image-keyboard-response",480,409857,"0.0-4.156-0.156","omxc7oaez7as8xu",467,"153.csv","","198","resources/trios/L4T2A3.jpg","38","restless",0.7,0.8,0.3,0.023830778041575,"true"
"image-keyboard-response",481,410259,"0.0-4.156-1.156","omxc7oaez7as8xu",467,"153.csv","","null","resources/maskTrios/BT2B.jpg","null","",NA,NA,NA,NA,""
"image-keyboard-response",482,411475,"0.0-4.156-2.156","omxc7oaez7as8xu",467,"153.csv","","null","resources/images/coin2.png","null","",NA,NA,NA,NA,""
"image-keyboard-response",483,411971,"0.0-4.157-0.157","omxc7oaez7as8xu",467,"153.csv","","494.80000000004657","resources/trios/L4T2A3.jpg","38","restless",0.6,0.8,0.3,0.228634958308686,"true"
"image-keyboard-response",484,412375,"0.0-4.157-1.157","omxc7oaez7as8xu",467,"153.csv","","null","resources/maskTrios/BT2B.jpg","null","",NA,NA,NA,NA,""
"image-keyboard-response",485,413592,"0.0-4.157-2.157","omxc7oaez7as8xu",467,"153.csv","","null","resources/images/coin2.png","null","",NA,NA,NA,NA,""
"image-keyboard-response",486,413946,"0.0-4.158-0.158","omxc7oaez7as8xu",467,"153.csv","","353.5","resources/trios/L4T2A3.jpg","38","restless",0.6,0.8,0.3,0.56263013710592,"true"
"image-keyboard-response",487,414358,"0.0-4.158-1.158","omxc7oaez7as8xu",467,"153.csv","","null","resources/maskTrios/BT2B.jpg","null","",NA,NA,NA,NA,""
"image-keyboard-response",488,415575,"0.0-4.158-2.158","omxc7oaez7as8xu",467,"153.csv","","null","resources/images/coin2.png","null","",NA,NA,NA,NA,""
"image-keyboard-response",489,416061,"0.0-4.159-0.159","omxc7oaez7as8xu",467,"153.csv","","484.89999999990687","resources/trios/L4T2A3.jpg","38","restless",0.6,0.8,0.3,0.47425865957174,"true"
"image-keyboard-response",490,416475,"0.0-4.159-1.159","omxc7oaez7as8xu",467,"153.csv","","null","resources/maskTrios/BT2B.jpg","null","",NA,NA,NA,NA,""
"image-keyboard-response",491,417691,"0.0-4.159-2.159","omxc7oaez7as8xu",467,"153.csv","","null","resources/images/coin2.png","null","",NA,NA,NA,NA,""
"image-keyboard-response",492,418214,"0.0-4.160-0.160","omxc7oaez7as8xu",467,"153.csv","","522.1000000000931","resources/trios/L4T2A3.jpg","38","restless",0.6,0.8,0.3,0.162813718028657,"true"
"image-keyboard-response",493,418625,"0.0-4.160-1.160","omxc7oaez7as8xu",467,"153.csv","","null","resources/maskTrios/BT2B.jpg","null","",NA,NA,NA,NA,""
"image-keyboard-response",494,419841,"0.0-4.160-2.160","omxc7oaez7as8xu",467,"153.csv","","null","resources/images/coin2.png","null","",NA,NA,NA,NA,""
"image-keyboard-response",495,420502,"0.0-4.161-0.161","omxc7oaez7as8xu",467,"153.csv","","659.8000000000466","resources/trios/L4T2A3.jpg","38","restless",0.6,0.8,0.2,0.15234050063386,"true"
"image-keyboard-response",496,420908,"0.0-4.161-1.161","omxc7oaez7as8xu",467,"153.csv","","null","resources/maskTrios/BT2B.jpg","null","",NA,NA,NA,NA,""
"image-keyboard-response",497,422109,"0.0-4.161-2.161","omxc7oaez7as8xu",467,"153.csv","","null","resources/images/coin2.png","null","",NA,NA,NA,NA,""
"image-keyboard-response",498,422769,"0.0-4.162-0.162","omxc7oaez7as8xu",467,"153.csv","","659.3000000000466","resources/trios/L4T2A3.jpg","38","restless",0.6,0.9,0.2,0.870034746576986,"true"
"image-keyboard-response",499,423174,"0.0-4.162-1.162","omxc7oaez7as8xu",467,"153.csv","","null","resources/maskTrios/BT2B.jpg","null","",NA,NA,NA,NA,""
"image-keyboard-response",500,424391,"0.0-4.162-2.162","omxc7oaez7as8xu",467,"153.csv","","null","resources/images/coin2.png","null","",NA,NA,NA,NA,""
"image-keyboard-response",501,424475,"0.0-4.163-0.163","omxc7oaez7as8xu",467,"153.csv","","83.39999999990687","resources/trios/L4T2A3.jpg","38","restless",0.6,0.9,0.2,0.020582655997343,"true"
"image-keyboard-response",502,424891,"0.0-4.163-1.163","omxc7oaez7as8xu",467,"153.csv","","null","resources/maskTrios/BT2B.jpg","null","",NA,NA,NA,NA,""
"image-keyboard-response",503,426092,"0.0-4.163-2.163","omxc7oaez7as8xu",467,"153.csv","","null","resources/images/coin2.png","null","",NA,NA,NA,NA,""
"image-keyboard-response",504,426915,"0.0-4.164-0.164","omxc7oaez7as8xu",467,"153.csv","","822.8999999999069","resources/trios/L4T2A3.jpg","38","restless",0.6,0.9,0.2,0.76962275329389,"true"
"image-keyboard-response",505,427324,"0.0-4.164-1.164","omxc7oaez7as8xu",467,"153.csv","","null","resources/maskTrios/BT2B.jpg","null","",NA,NA,NA,NA,""
"image-keyboard-response",506,428540,"0.0-4.164-2.164","omxc7oaez7as8xu",467,"153.csv","","null","resources/images/coin2.png","null","",NA,NA,NA,NA,""
"image-keyboard-response",507,429003,"0.0-4.165-0.165","omxc7oaez7as8xu",467,"153.csv","","461.5","resources/trios/L4T2A3.jpg","38","restless",0.6,0.9,0.2,0.795357136033105,"true"
"image-keyboard-response",508,429407,"0.0-4.165-1.165","omxc7oaez7as8xu",467,"153.csv","","null","resources/maskTrios/BT2B.jpg","null","",NA,NA,NA,NA,""
"image-keyboard-response",509,430624,"0.0-4.165-2.165","omxc7oaez7as8xu",467,"153.csv","","null","resources/images/coin2.png","null","",NA,NA,NA,NA,""
"image-keyboard-response",510,431201,"0.0-4.166-0.166","omxc7oaez7as8xu",467,"153.csv","","575.7000000001863","resources/trios/L4T2A3.jpg","38","restless",0.6,0.9,0.2,0.915120780252275,"false"
"image-keyboard-response",511,431607,"0.0-4.166-1.166","omxc7oaez7as8xu",467,"153.csv","","null","resources/maskTrios/BT2B.jpg","null","",NA,NA,NA,NA,""
"image-keyboard-response",512,432824,"0.0-4.166-2.166","omxc7oaez7as8xu",467,"153.csv","","null","resources/images/fishbone.png","null","",NA,NA,NA,NA,""
"image-keyboard-response",513,433117,"0.0-4.167-0.167","omxc7oaez7as8xu",467,"153.csv","","292.0999999998603","resources/trios/L4T2A3.jpg","39","restless",0.6,0.9,0.2,0.0208592357089199,"true"
"image-keyboard-response",514,433524,"0.0-4.167-1.167","omxc7oaez7as8xu",467,"153.csv","","null","resources/maskTrios/BBA3.jpg","null","",NA,NA,NA,NA,""
"image-keyboard-response",515,434725,"0.0-4.167-2.167","omxc7oaez7as8xu",467,"153.csv","","null","resources/images/coin2.png","null","",NA,NA,NA,NA,""
"image-keyboard-response",516,435420,"0.0-4.168-0.168","omxc7oaez7as8xu",467,"153.csv","","694.9000000001397","resources/trios/L4T2A3.jpg","38","restless",0.6,0.8,0.2,0.41474412620497,"true"
"image-keyboard-response",517,435824,"0.0-4.168-1.168","omxc7oaez7as8xu",467,"153.csv","","null","resources/maskTrios/BT2B.jpg","null","",NA,NA,NA,NA,""
"image-keyboard-response",518,437040,"0.0-4.168-2.168","omxc7oaez7as8xu",467,"153.csv","","null","resources/images/coin2.png","null","",NA,NA,NA,NA,""
"image-keyboard-response",519,437419,"0.0-4.169-0.169","omxc7oaez7as8xu",467,"153.csv","","378.30000000004657","resources/trios/L4T2A3.jpg","38","restless",0.6,0.7,0.2,0.524117546322621,"true"
"image-keyboard-response",520,437824,"0.0-4.169-1.169","omxc7oaez7as8xu",467,"153.csv","","null","resources/maskTrios/BT2B.jpg","null","",NA,NA,NA,NA,""
"image-keyboard-response",521,439040,"0.0-4.169-2.169","omxc7oaez7as8xu",467,"153.csv","","null","resources/images/coin2.png","null","",NA,NA,NA,NA,""
"image-keyboard-response",522,439429,"0.0-4.170-0.170","omxc7oaez7as8xu",467,"153.csv","","388.10000000009313","resources/trios/L4T2A3.jpg","38","restless",0.6,0.7,0.1,0.0938790060839449,"true"
"image-keyboard-response",523,439840,"0.0-4.170-1.170","omxc7oaez7as8xu",467,"153.csv","","null","resources/maskTrios/BT2B.jpg","null","",NA,NA,NA,NA,""
"image-keyboard-response",524,441041,"0.0-4.170-2.170","omxc7oaez7as8xu",467,"153.csv","","null","resources/images/coin2.png","null","",NA,NA,NA,NA,""
"image-keyboard-response",525,441495,"0.0-4.171-0.171","omxc7oaez7as8xu",467,"153.csv","","452.60000000009313","resources/trios/L4T2A3.jpg","38","restless",0.6,0.7,0.1,0.534543742402893,"true"
"image-keyboard-response",526,441907,"0.0-4.171-1.171","omxc7oaez7as8xu",467,"153.csv","","null","resources/maskTrios/BT2B.jpg","null","",NA,NA,NA,NA,""
"image-keyboard-response",527,443123,"0.0-4.171-2.171","omxc7oaez7as8xu",467,"153.csv","","null","resources/images/coin2.png","null","",NA,NA,NA,NA,""
"image-keyboard-response",528,443597,"0.0-4.172-0.172","omxc7oaez7as8xu",467,"153.csv","","472.9000000001397","resources/trios/L4T2A3.jpg","38","restless",0.6,0.7,0.1,0.449580426798745,"true"
"image-keyboard-response",529,444006,"0.0-4.172-1.172","omxc7oaez7as8xu",467,"153.csv","","null","resources/maskTrios/BT2B.jpg","null","",NA,NA,NA,NA,""
"image-keyboard-response",530,445223,"0.0-4.172-2.172","omxc7oaez7as8xu",467,"153.csv","","null","resources/images/coin2.png","null","",NA,NA,NA,NA,""
"image-keyboard-response",531,445333,"0.0-4.173-0.173","omxc7oaez7as8xu",467,"153.csv","","109.70000000018626","resources/trios/L4T2A3.jpg","38","restless",0.6,0.7,0.2,0.29175359258736,"true"
"image-keyboard-response",532,445740,"0.0-4.173-1.173","omxc7oaez7as8xu",467,"153.csv","","null","resources/maskTrios/BT2B.jpg","null","",NA,NA,NA,NA,""
"image-keyboard-response",533,446957,"0.0-4.173-2.173","omxc7oaez7as8xu",467,"153.csv","","null","resources/images/coin2.png","null","",NA,NA,NA,NA,""
"image-keyboard-response",534,447531,"0.0-4.174-0.174","omxc7oaez7as8xu",467,"153.csv","","573.8000000000466","resources/trios/L4T2A3.jpg","38","restless",0.6,0.7,0.2,0.267669804767755,"true"
"image-keyboard-response",535,447940,"0.0-4.174-1.174","omxc7oaez7as8xu",467,"153.csv","","null","resources/maskTrios/BT2B.jpg","null","",NA,NA,NA,NA,""
"image-keyboard-response",536,449156,"0.0-4.174-2.174","omxc7oaez7as8xu",467,"153.csv","","null","resources/images/coin2.png","null","",NA,NA,NA,NA,""
"image-keyboard-response",537,449576,"0.0-4.175-0.175","omxc7oaez7as8xu",467,"153.csv","","418.60000000009313","resources/trios/L4T2A3.jpg","38","restless",0.6,0.7,0.2,0.64180520450253,"true"
"image-keyboard-response",538,449991,"0.0-4.175-1.175","omxc7oaez7as8xu",467,"153.csv","","null","resources/maskTrios/BT2B.jpg","null","",NA,NA,NA,NA,""
"image-keyboard-response",539,451206,"0.0-4.175-2.175","omxc7oaez7as8xu",467,"153.csv","","null","resources/images/coin2.png","null","",NA,NA,NA,NA,""
"image-keyboard-response",540,451780,"0.0-4.176-0.176","omxc7oaez7as8xu",467,"153.csv","","572.9000000001397","resources/trios/L4T2A3.jpg","38","restless",0.6,0.7,0.2,0.00872547589157113,"true"
"image-keyboard-response",541,452189,"0.0-4.176-1.176","omxc7oaez7as8xu",467,"153.csv","","null","resources/maskTrios/BT2B.jpg","null","",NA,NA,NA,NA,""
"image-keyboard-response",542,453406,"0.0-4.176-2.176","omxc7oaez7as8xu",467,"153.csv","","null","resources/images/coin2.png","null","",NA,NA,NA,NA,""
"image-keyboard-response",543,453665,"0.0-4.177-0.177","omxc7oaez7as8xu",467,"153.csv","","258.30000000004657","resources/trios/L4T2A3.jpg","38","restless",0.6,0.7,0.2,0.104485348169464,"true"
"image-keyboard-response",544,454072,"0.0-4.177-1.177","omxc7oaez7as8xu",467,"153.csv","","null","resources/maskTrios/BT2B.jpg","null","",NA,NA,NA,NA,""
"image-keyboard-response",545,455273,"0.0-4.177-2.177","omxc7oaez7as8xu",467,"153.csv","","null","resources/images/coin2.png","null","",NA,NA,NA,NA,""
"image-keyboard-response",546,455645,"0.0-4.178-0.178","omxc7oaez7as8xu",467,"153.csv","","371","resources/trios/L4T2A3.jpg","38","restless",0.6,0.7,0.2,0.67504005306582,"true"
"image-keyboard-response",547,456056,"0.0-4.178-1.178","omxc7oaez7as8xu",467,"153.csv","","null","resources/maskTrios/BT2B.jpg","null","",NA,NA,NA,NA,""
"image-keyboard-response",548,457272,"0.0-4.178-2.178","omxc7oaez7as8xu",467,"153.csv","","null","resources/images/coin2.png","null","",NA,NA,NA,NA,""
"image-keyboard-response",549,457499,"0.0-4.179-0.179","omxc7oaez7as8xu",467,"153.csv","","225.19999999995343","resources/trios/L4T2A3.jpg","38","restless",0.6,0.7,0.2,0.263120113568823,"true"
"image-keyboard-response",550,457906,"0.0-4.179-1.179","omxc7oaez7as8xu",467,"153.csv","","null","resources/maskTrios/BT2B.jpg","null","",NA,NA,NA,NA,""
"image-keyboard-response",551,459123,"0.0-4.179-2.179","omxc7oaez7as8xu",467,"153.csv","","null","resources/images/coin2.png","null","",NA,NA,NA,NA,""
"image-keyboard-response",552,459671,"0.0-4.180-0.180","omxc7oaez7as8xu",467,"153.csv","","547.6999999999534","resources/trios/L4T2A3.jpg","38","restless",0.6,0.7,0.2,0.182854845510188,"true"
"image-keyboard-response",553,460073,"0.0-4.180-1.180","omxc7oaez7as8xu",467,"153.csv","","null","resources/maskTrios/BT2B.jpg","null","",NA,NA,NA,NA,""
"image-keyboard-response",554,461289,"0.0-4.180-2.180","omxc7oaez7as8xu",467,"153.csv","","null","resources/images/coin2.png","null","",NA,NA,NA,NA,""
"image-keyboard-response",555,461775,"0.0-4.181-0.181","omxc7oaez7as8xu",467,"153.csv","","484.5999999998603","resources/trios/L4T2A3.jpg","38","restless",0.6,0.7,0.2,0.416306786822382,"true"
"image-keyboard-response",556,462189,"0.0-4.181-1.181","omxc7oaez7as8xu",467,"153.csv","","null","resources/maskTrios/BT2B.jpg","null","",NA,NA,NA,NA,""
"image-keyboard-response",557,463405,"0.0-4.181-2.181","omxc7oaez7as8xu",467,"153.csv","","null","resources/images/coin2.png","null","",NA,NA,NA,NA,""
"image-keyboard-response",558,463761,"0.0-4.182-0.182","omxc7oaez7as8xu",467,"153.csv","","355.0999999998603","resources/trios/L4T2A3.jpg","38","restless",0.6,0.7,0.2,0.780678120486214,"false"
"image-keyboard-response",559,464172,"0.0-4.182-1.182","omxc7oaez7as8xu",467,"153.csv","","null","resources/maskTrios/BT2B.jpg","null","",NA,NA,NA,NA,""
"image-keyboard-response",560,465389,"0.0-4.182-2.182","omxc7oaez7as8xu",467,"153.csv","","null","resources/images/fishbone.png","null","",NA,NA,NA,NA,""
"image-keyboard-response",561,465952,"0.0-4.183-0.183","omxc7oaez7as8xu",467,"153.csv","","562.5","resources/trios/L4T2A3.jpg","37","restless",0.5,0.7,0.2,0.623256374251907,"false"
"image-keyboard-response",562,466355,"0.0-4.183-1.183","omxc7oaez7as8xu",467,"153.csv","","null","resources/maskTrios/L4BB.jpg","null","",NA,NA,NA,NA,""
"image-keyboard-response",563,467572,"0.0-4.183-2.183","omxc7oaez7as8xu",467,"153.csv","","null","resources/images/fishbone.png","null","",NA,NA,NA,NA,""
"image-keyboard-response",564,467939,"0.0-4.184-0.184","omxc7oaez7as8xu",467,"153.csv","","365.79999999981374","resources/trios/L4T2A3.jpg","39","restless",0.5,0.8,0.2,0.911336897022536,"false"
"image-keyboard-response",565,468355,"0.0-4.184-1.184","omxc7oaez7as8xu",467,"153.csv","","null","resources/maskTrios/BBA3.jpg","null","",NA,NA,NA,NA,""
"image-keyboard-response",566,469572,"0.0-4.184-2.184","omxc7oaez7as8xu",467,"153.csv","","null","resources/images/fishbone.png","null","",NA,NA,NA,NA,""
"image-keyboard-response",567,469912,"0.0-4.185-0.185","omxc7oaez7as8xu",467,"153.csv","","338.60000000009313","resources/trios/L4T2A3.jpg","38","restless",0.5,0.8,0.2,0.102463355227202,"true"
"image-keyboard-response",568,470322,"0.0-4.185-1.185","omxc7oaez7as8xu",467,"153.csv","","null","resources/maskTrios/BT2B.jpg","null","",NA,NA,NA,NA,""
"image-keyboard-response",569,471538,"0.0-4.185-2.185","omxc7oaez7as8xu",467,"153.csv","","null","resources/images/coin2.png","null","",NA,NA,NA,NA,""
"image-keyboard-response",570,471889,"0.0-4.186-0.186","omxc7oaez7as8xu",467,"153.csv","","350.30000000004657","resources/trios/L4T2A3.jpg","38","restless",0.6,0.8,0.2,0.84970509568076,"false"
"image-keyboard-response",571,472305,"0.0-4.186-1.186","omxc7oaez7as8xu",467,"153.csv","","null","resources/maskTrios/BT2B.jpg","null","",NA,NA,NA,NA,""
"image-keyboard-response",572,473506,"0.0-4.186-2.186","omxc7oaez7as8xu",467,"153.csv","","null","resources/images/fishbone.png","null","",NA,NA,NA,NA,""
"image-keyboard-response",573,473888,"0.0-4.187-0.187","omxc7oaez7as8xu",467,"153.csv","","381.69999999995343","resources/trios/L4T2A3.jpg","39","restless",0.6,0.8,0.2,0.614755191977104,"false"
"image-keyboard-response",574,474289,"0.0-4.187-1.187","omxc7oaez7as8xu",467,"153.csv","","null","resources/maskTrios/BBA3.jpg","null","",NA,NA,NA,NA,""
"image-keyboard-response",575,475505,"0.0-4.187-2.187","omxc7oaez7as8xu",467,"153.csv","","null","resources/images/fishbone.png","null","",NA,NA,NA,NA,""
"image-keyboard-response",576,475888,"0.0-4.188-0.188","omxc7oaez7as8xu",467,"153.csv","","382.0999999998603","resources/trios/L4T2A3.jpg","37","restless",0.5,0.8,0.3,0.325963761182797,"true"
"image-keyboard-response",577,476305,"0.0-4.188-1.188","omxc7oaez7as8xu",467,"153.csv","","null","resources/maskTrios/L4BB.jpg","null","",NA,NA,NA,NA,""
"image-keyboard-response",578,477521,"0.0-4.188-2.188","omxc7oaez7as8xu",467,"153.csv","","null","resources/images/coin2.png","null","",NA,NA,NA,NA,""
"image-keyboard-response",579,477825,"0.0-4.189-0.189","omxc7oaez7as8xu",467,"153.csv","","302.9000000001397","resources/trios/L4T2A3.jpg","37","restless",0.5,0.8,0.4,0.62325394647678,"false"
"image-keyboard-response",580,478238,"0.0-4.189-1.189","omxc7oaez7as8xu",467,"153.csv","","null","resources/maskTrios/L4BB.jpg","null","",NA,NA,NA,NA,""
"image-keyboard-response",581,479439,"0.0-4.189-2.189","omxc7oaez7as8xu",467,"153.csv","","null","resources/images/fishbone.png","null","",NA,NA,NA,NA,""
"image-keyboard-response",582,479584,"0.0-4.190-0.190","omxc7oaez7as8xu",467,"153.csv","","144.30000000004657","resources/trios/L4T2A3.jpg","38","restless",0.5,0.8,0.4,0.302619061434915,"true"
"image-keyboard-response",583,479989,"0.0-4.190-1.190","omxc7oaez7as8xu",467,"153.csv","","null","resources/maskTrios/BT2B.jpg","null","",NA,NA,NA,NA,""
"image-keyboard-response",584,481205,"0.0-4.190-2.190","omxc7oaez7as8xu",467,"153.csv","","null","resources/images/coin2.png","null","",NA,NA,NA,NA,""
"image-keyboard-response",585,481518,"0.0-4.191-0.191","omxc7oaez7as8xu",467,"153.csv","","311.89999999990687","resources/trios/L4T2A3.jpg","38","restless",0.4,0.8,0.5,0.199257568305616,"true"
"image-keyboard-response",586,481921,"0.0-4.191-1.191","omxc7oaez7as8xu",467,"153.csv","","null","resources/maskTrios/BT2B.jpg","null","",NA,NA,NA,NA,""
"image-keyboard-response",587,483138,"0.0-4.191-2.191","omxc7oaez7as8xu",467,"153.csv","","null","resources/images/coin2.png","null","",NA,NA,NA,NA,""
"image-keyboard-response",588,483804,"0.0-4.192-0.192","omxc7oaez7as8xu",467,"153.csv","","665.3999999999069","resources/trios/L4T2A3.jpg","38","restless",0.4,0.8,0.5,0.337856432971903,"true"
"image-keyboard-response",589,484221,"0.0-4.192-1.192","omxc7oaez7as8xu",467,"153.csv","","null","resources/maskTrios/BT2B.jpg","null","",NA,NA,NA,NA,""
"image-keyboard-response",590,485438,"0.0-4.192-2.192","omxc7oaez7as8xu",467,"153.csv","","null","resources/images/coin2.png","null","",NA,NA,NA,NA,""
"image-keyboard-response",591,485482,"0.0-4.193-0.193","omxc7oaez7as8xu",467,"153.csv","","43.10000000009313","resources/trios/L4T2A3.jpg","38","restless",0.4,0.8,0.5,0.625979635171098,"true"
"image-keyboard-response",592,485888,"0.0-4.193-1.193","omxc7oaez7as8xu",467,"153.csv","","null","resources/maskTrios/BT2B.jpg","null","",NA,NA,NA,NA,""
"image-keyboard-response",593,487105,"0.0-4.193-2.193","omxc7oaez7as8xu",467,"153.csv","","null","resources/images/coin2.png","null","",NA,NA,NA,NA,""
"image-keyboard-response",594,487474,"0.0-4.194-0.194","omxc7oaez7as8xu",467,"153.csv","","368.70000000018626","resources/trios/L4T2A3.jpg","38","restless",0.4,0.8,0.5,0.420770885576608,"true"
"image-keyboard-response",595,487888,"0.0-4.194-1.194","omxc7oaez7as8xu",467,"153.csv","","null","resources/maskTrios/BT2B.jpg","null","",NA,NA,NA,NA,""
"image-keyboard-response",596,489089,"0.0-4.194-2.194","omxc7oaez7as8xu",467,"153.csv","","null","resources/images/coin2.png","null","",NA,NA,NA,NA,""
"image-keyboard-response",597,489342,"0.0-4.195-0.195","omxc7oaez7as8xu",467,"153.csv","","252.80000000004657","resources/trios/L4T2A3.jpg","38","restless",0.4,0.9,0.5,0.552387045416223,"true"
"image-keyboard-response",598,489754,"0.0-4.195-1.195","omxc7oaez7as8xu",467,"153.csv","","null","resources/maskTrios/BT2B.jpg","null","",NA,NA,NA,NA,""
"image-keyboard-response",599,490971,"0.0-4.195-2.195","omxc7oaez7as8xu",467,"153.csv","","null","resources/images/coin2.png","null","",NA,NA,NA,NA,""
"image-keyboard-response",600,491321,"0.0-4.196-0.196","omxc7oaez7as8xu",467,"153.csv","","348.89999999990687","resources/trios/L4T2A3.jpg","38","restless",0.4,0.9,0.5,0.500869744901945,"true"
"image-keyboard-response",601,491738,"0.0-4.196-1.196","omxc7oaez7as8xu",467,"153.csv","","null","resources/maskTrios/BT2B.jpg","null","",NA,NA,NA,NA,""
"image-keyboard-response",602,492954,"0.0-4.196-2.196","omxc7oaez7as8xu",467,"153.csv","","null","resources/images/coin2.png","null","",NA,NA,NA,NA,""
"image-keyboard-response",603,493211,"0.0-4.197-0.197","omxc7oaez7as8xu",467,"153.csv","","256.10000000009313","resources/trios/L4T2A3.jpg","38","restless",0.4,0.8,0.5,0.455602933030482,"true"
"image-keyboard-response",604,493621,"0.0-4.197-1.197","omxc7oaez7as8xu",467,"153.csv","","null","resources/maskTrios/BT2B.jpg","null","",NA,NA,NA,NA,""
"image-keyboard-response",605,494822,"0.0-4.197-2.197","omxc7oaez7as8xu",467,"153.csv","","null","resources/images/coin2.png","null","",NA,NA,NA,NA,""
"image-keyboard-response",606,495170,"0.0-4.198-0.198","omxc7oaez7as8xu",467,"153.csv","","347.80000000004657","resources/trios/L4T2A3.jpg","38","restless",0.4,0.8,0.5,0.0844486275725302,"true"
"image-keyboard-response",607,495572,"0.0-4.198-1.198","omxc7oaez7as8xu",467,"153.csv","","null","resources/maskTrios/BT2B.jpg","null","",NA,NA,NA,NA,""
"image-keyboard-response",608,496787,"0.0-4.198-2.198","omxc7oaez7as8xu",467,"153.csv","","null","resources/images/coin2.png","null","",NA,NA,NA,NA,""
