"trial_type","trial_index","time_elapsed","internal_node_id","subject","participantCode","walkNumber","success","rt","stimulus","key_press","test_part","leftProb","midProb","rightProb","generatedNum","correct"
"pavlovia",0,680,"0.0-0.0","w1qhombhg1kge2c",856,"91.csv","","","","","",NA,NA,NA,NA,""
"fullscreen",1,6000,"0.0-1.0","w1qhombhg1kge2c",856,"91.csv","true","","","","",NA,NA,NA,NA,""
"survey-html-form",2,3674057,"0.0-2.0","w1qhombhg1kge2c",856,"91.csv","","1479304","","","",NA,NA,NA,NA,""
"image-keyboard-response",3,3701975,"0.0-3.0-0.0","w1qhombhg1kge2c",856,"91.csv","","27920","resources/images/parrot_nobg.png","13","",NA,NA,NA,NA,""
"image-keyboard-response",4,3704982,"0.0-3.0-1.0","w1qhombhg1kge2c",856,"91.csv","","null","resources/image_sets/111.png","null","",NA,NA,NA,NA,""
"image-keyboard-response",5,3714448,"0.0-3.0-2.0","w1qhombhg1kge2c",856,"91.csv","","9466","resources/image_sets/left_highlight.png","37","",NA,NA,NA,NA,""
"image-keyboard-response",6,3715956,"0.0-3.0-3.0","w1qhombhg1kge2c",856,"91.csv","","1507","resources/image_sets/mid_highlight.png","38","",NA,NA,NA,NA,""
"image-keyboard-response",7,3716958,"0.0-3.0-4.0","w1qhombhg1kge2c",856,"91.csv","","1000","resources/image_sets/right_highlight.png","39","",NA,NA,NA,NA,""
"image-keyboard-response",8,3722922,"0.0-3.0-5.0","w1qhombhg1kge2c",856,"91.csv","","5962","resources/image_sets/111.png","13","",NA,NA,NA,NA,""
"image-keyboard-response",9,3725133,"0.0-3.0-6.0","w1qhombhg1kge2c",856,"91.csv","","2210","resources/images/coin2.png","13","",NA,NA,NA,NA,""
"image-keyboard-response",10,3726705,"0.0-3.0-7.0","w1qhombhg1kge2c",856,"91.csv","","1571","resources/images/fishbone.png","13","",NA,NA,NA,NA,""
"html-keyboard-response",11,3740049,"0.0-3.0-8.0","w1qhombhg1kge2c",856,"91.csv","","13343","<p>You can track your coin total on the top right of your screen. </p><p>At the end of your journey you will be directed to a survey, so please click on the link before exiting the task</p><p>Press Enter to begin</p>","13","",NA,NA,NA,NA,""
"image-keyboard-response",12,3741650,"0.0-4.0-0.0","w1qhombhg1kge2c",856,"91.csv","","1599","resources/trios/L1T4A3.jpg","38","restless",0.7,0.9,0.3,0.37618473368961,"true"
"image-keyboard-response",13,3742055,"0.0-4.0-1.0","w1qhombhg1kge2c",856,"91.csv","","null","resources/maskTrios/BT4B.jpg","null","",NA,NA,NA,NA,""
"image-keyboard-response",14,3743263,"0.0-4.0-2.0","w1qhombhg1kge2c",856,"91.csv","","null","resources/images/coin2.png","null","",NA,NA,NA,NA,""
"image-keyboard-response",15,3743640,"0.0-4.1-0.1","w1qhombhg1kge2c",856,"91.csv","","375","resources/trios/L1T4A3.jpg","37","restless",0.7,0.9,0.4,0.828685818538434,"false"
"image-keyboard-response",16,3744062,"0.0-4.1-1.1","w1qhombhg1kge2c",856,"91.csv","","null","resources/maskTrios/L1BB.jpg","null","",NA,NA,NA,NA,""
"image-keyboard-response",17,3745267,"0.0-4.1-2.1","w1qhombhg1kge2c",856,"91.csv","","null","resources/images/fishbone.png","null","",NA,NA,NA,NA,""
"image-keyboard-response",18,3745523,"0.0-4.2-0.2","w1qhombhg1kge2c",856,"91.csv","","254","resources/trios/L1T4A3.jpg","38","restless",0.7,0.9,0.4,0.783608424072243,"true"
"image-keyboard-response",19,3745928,"0.0-4.2-1.2","w1qhombhg1kge2c",856,"91.csv","","null","resources/maskTrios/BT4B.jpg","null","",NA,NA,NA,NA,""
"image-keyboard-response",20,3747135,"0.0-4.2-2.2","w1qhombhg1kge2c",856,"91.csv","","null","resources/images/coin2.png","null","",NA,NA,NA,NA,""
"image-keyboard-response",21,3747536,"0.0-4.3-0.3","w1qhombhg1kge2c",856,"91.csv","","401","resources/trios/L1T4A3.jpg","38","restless",0.7,0.9,0.4,0.681797925069836,"true"
"image-keyboard-response",22,3747942,"0.0-4.3-1.3","w1qhombhg1kge2c",856,"91.csv","","null","resources/maskTrios/BT4B.jpg","null","",NA,NA,NA,NA,""
"image-keyboard-response",23,3749145,"0.0-4.3-2.3","w1qhombhg1kge2c",856,"91.csv","","null","resources/images/coin2.png","null","",NA,NA,NA,NA,""
"image-keyboard-response",24,3749490,"0.0-4.4-0.4","w1qhombhg1kge2c",856,"91.csv","","344","resources/trios/L1T4A3.jpg","38","restless",0.7,0.9,0.4,0.350653150898244,"true"
"image-keyboard-response",25,3749896,"0.0-4.4-1.4","w1qhombhg1kge2c",856,"91.csv","","null","resources/maskTrios/BT4B.jpg","null","",NA,NA,NA,NA,""
"image-keyboard-response",26,3751151,"0.0-4.4-2.4","w1qhombhg1kge2c",856,"91.csv","","null","resources/images/coin2.png","null","",NA,NA,NA,NA,""
"image-keyboard-response",27,3751409,"0.0-4.5-0.5","w1qhombhg1kge2c",856,"91.csv","","256","resources/trios/L1T4A3.jpg","38","restless",0.7,0.9,0.4,0.947644672786496,"false"
"image-keyboard-response",28,3751810,"0.0-4.5-1.5","w1qhombhg1kge2c",856,"91.csv","","null","resources/maskTrios/BT4B.jpg","null","",NA,NA,NA,NA,""
"image-keyboard-response",29,3753016,"0.0-4.5-2.5","w1qhombhg1kge2c",856,"91.csv","","null","resources/images/fishbone.png","null","",NA,NA,NA,NA,""
"image-keyboard-response",30,3753251,"0.0-4.6-0.6","w1qhombhg1kge2c",856,"91.csv","","232","resources/trios/L1T4A3.jpg","39","restless",0.7,0.9,0.4,0.940834090363636,"false"
"image-keyboard-response",31,3753657,"0.0-4.6-1.6","w1qhombhg1kge2c",856,"91.csv","","null","resources/maskTrios/BBA3.jpg","null","",NA,NA,NA,NA,""
"image-keyboard-response",32,3754859,"0.0-4.6-2.6","w1qhombhg1kge2c",856,"91.csv","","null","resources/images/fishbone.png","null","",NA,NA,NA,NA,""
"image-keyboard-response",33,3755177,"0.0-4.7-0.7","w1qhombhg1kge2c",856,"91.csv","","317","resources/trios/L1T4A3.jpg","37","restless",0.7,0.9,0.4,0.641969332809664,"true"
"image-keyboard-response",34,3755582,"0.0-4.7-1.7","w1qhombhg1kge2c",856,"91.csv","","null","resources/maskTrios/L1BB.jpg","null","",NA,NA,NA,NA,""
"image-keyboard-response",35,3756783,"0.0-4.7-2.7","w1qhombhg1kge2c",856,"91.csv","","null","resources/images/coin2.png","null","",NA,NA,NA,NA,""
"image-keyboard-response",36,3757091,"0.0-4.8-0.8","w1qhombhg1kge2c",856,"91.csv","","306","resources/trios/L1T4A3.jpg","37","restless",0.7,0.9,0.4,0.202828475728275,"true"
"image-keyboard-response",37,3757497,"0.0-4.8-1.8","w1qhombhg1kge2c",856,"91.csv","","null","resources/maskTrios/L1BB.jpg","null","",NA,NA,NA,NA,""
"image-keyboard-response",38,3758701,"0.0-4.8-2.8","w1qhombhg1kge2c",856,"91.csv","","null","resources/images/coin2.png","null","",NA,NA,NA,NA,""
"image-keyboard-response",39,3759622,"0.0-4.9-0.9","w1qhombhg1kge2c",856,"91.csv","","919","resources/trios/L1T4A3.jpg","37","restless",0.7,0.9,0.4,0.693671029448246,"true"
"image-keyboard-response",40,3760024,"0.0-4.9-1.9","w1qhombhg1kge2c",856,"91.csv","","null","resources/maskTrios/L1BB.jpg","null","",NA,NA,NA,NA,""
"image-keyboard-response",41,3761229,"0.0-4.9-2.9","w1qhombhg1kge2c",856,"91.csv","","null","resources/images/coin2.png","null","",NA,NA,NA,NA,""
"image-keyboard-response",42,3761708,"0.0-4.10-0.10","w1qhombhg1kge2c",856,"91.csv","","477","resources/trios/L1T4A3.jpg","37","restless",0.8,0.9,0.4,0.0381143178935032,"true"
"image-keyboard-response",43,3762114,"0.0-4.10-1.10","w1qhombhg1kge2c",856,"91.csv","","null","resources/maskTrios/L1BB.jpg","null","",NA,NA,NA,NA,""
"image-keyboard-response",44,3763320,"0.0-4.10-2.10","w1qhombhg1kge2c",856,"91.csv","","null","resources/images/coin2.png","null","",NA,NA,NA,NA,""
"image-keyboard-response",45,3763787,"0.0-4.11-0.11","w1qhombhg1kge2c",856,"91.csv","","466","resources/trios/L1T4A3.jpg","37","restless",0.8,0.9,0.4,0.782932376059736,"true"
"image-keyboard-response",46,3764194,"0.0-4.11-1.11","w1qhombhg1kge2c",856,"91.csv","","null","resources/maskTrios/L1BB.jpg","null","",NA,NA,NA,NA,""
"image-keyboard-response",47,3765400,"0.0-4.11-2.11","w1qhombhg1kge2c",856,"91.csv","","null","resources/images/coin2.png","null","",NA,NA,NA,NA,""
"image-keyboard-response",48,3766033,"0.0-4.12-0.12","w1qhombhg1kge2c",856,"91.csv","","632","resources/trios/L1T4A3.jpg","37","restless",0.8,0.9,0.4,0.591754085436678,"true"
"image-keyboard-response",49,3766440,"0.0-4.12-1.12","w1qhombhg1kge2c",856,"91.csv","","null","resources/maskTrios/L1BB.jpg","null","",NA,NA,NA,NA,""
"image-keyboard-response",50,3767646,"0.0-4.12-2.12","w1qhombhg1kge2c",856,"91.csv","","null","resources/images/coin2.png","null","",NA,NA,NA,NA,""
"image-keyboard-response",51,3769255,"0.0-4.13-0.13","w1qhombhg1kge2c",856,"91.csv","","1608","resources/trios/L1T4A3.jpg","37","restless",0.8,0.9,0.4,0.129699002226575,"true"
"image-keyboard-response",52,3769661,"0.0-4.13-1.13","w1qhombhg1kge2c",856,"91.csv","","null","resources/maskTrios/L1BB.jpg","null","",NA,NA,NA,NA,""
"image-keyboard-response",53,3770868,"0.0-4.13-2.13","w1qhombhg1kge2c",856,"91.csv","","null","resources/images/coin2.png","null","",NA,NA,NA,NA,""
"image-keyboard-response",54,3771416,"0.0-4.14-0.14","w1qhombhg1kge2c",856,"91.csv","","547","resources/trios/L1T4A3.jpg","37","restless",0.8,0.9,0.4,0.287896245009914,"true"
"image-keyboard-response",55,3771823,"0.0-4.14-1.14","w1qhombhg1kge2c",856,"91.csv","","null","resources/maskTrios/L1BB.jpg","null","",NA,NA,NA,NA,""
"image-keyboard-response",56,3773026,"0.0-4.14-2.14","w1qhombhg1kge2c",856,"91.csv","","null","resources/images/coin2.png","null","",NA,NA,NA,NA,""
"image-keyboard-response",57,3773027,"0.0-4.15-0.15","w1qhombhg1kge2c",856,"91.csv","","1","resources/trios/L1T4A3.jpg","37","restless",0.8,0.9,0.4,0.668995038679097,"true"
"image-keyboard-response",58,3773432,"0.0-4.15-1.15","w1qhombhg1kge2c",856,"91.csv","","null","resources/maskTrios/L1BB.jpg","null","",NA,NA,NA,NA,""
"image-keyboard-response",59,3774635,"0.0-4.15-2.15","w1qhombhg1kge2c",856,"91.csv","","null","resources/images/coin2.png","null","",NA,NA,NA,NA,""
"image-keyboard-response",60,3774742,"0.0-4.16-0.16","w1qhombhg1kge2c",856,"91.csv","","106","resources/trios/L1T4A3.jpg","37","restless",0.8,0.9,0.4,0.183563544931087,"true"
"image-keyboard-response",61,3775143,"0.0-4.16-1.16","w1qhombhg1kge2c",856,"91.csv","","null","resources/maskTrios/L1BB.jpg","null","",NA,NA,NA,NA,""
"image-keyboard-response",62,3776349,"0.0-4.16-2.16","w1qhombhg1kge2c",856,"91.csv","","null","resources/images/coin2.png","null","",NA,NA,NA,NA,""
"image-keyboard-response",63,3791831,"0.0-4.17-0.17","w1qhombhg1kge2c",856,"91.csv","","15480","resources/trios/L1T4A3.jpg","37","restless",0.8,0.9,0.3,0.145281928496228,"true"
"image-keyboard-response",64,3792238,"0.0-4.17-1.17","w1qhombhg1kge2c",856,"91.csv","","null","resources/maskTrios/L1BB.jpg","null","",NA,NA,NA,NA,""
"image-keyboard-response",65,3793444,"0.0-4.17-2.17","w1qhombhg1kge2c",856,"91.csv","","null","resources/images/coin2.png","null","",NA,NA,NA,NA,""
"image-keyboard-response",66,3793690,"0.0-4.18-0.18","w1qhombhg1kge2c",856,"91.csv","","244","resources/trios/L1T4A3.jpg","37","restless",0.8,0.9,0.3,0.438663144571173,"true"
"image-keyboard-response",67,3794096,"0.0-4.18-1.18","w1qhombhg1kge2c",856,"91.csv","","null","resources/maskTrios/L1BB.jpg","null","",NA,NA,NA,NA,""
"image-keyboard-response",68,3795297,"0.0-4.18-2.18","w1qhombhg1kge2c",856,"91.csv","","null","resources/images/coin2.png","null","",NA,NA,NA,NA,""
"image-keyboard-response",69,3795582,"0.0-4.19-0.19","w1qhombhg1kge2c",856,"91.csv","","284","resources/trios/L1T4A3.jpg","37","restless",0.8,0.9,0.3,0.782994561196764,"true"
"image-keyboard-response",70,3795984,"0.0-4.19-1.19","w1qhombhg1kge2c",856,"91.csv","","null","resources/maskTrios/L1BB.jpg","null","",NA,NA,NA,NA,""
"image-keyboard-response",71,3797191,"0.0-4.19-2.19","w1qhombhg1kge2c",856,"91.csv","","null","resources/images/coin2.png","null","",NA,NA,NA,NA,""
"image-keyboard-response",72,3797671,"0.0-4.20-0.20","w1qhombhg1kge2c",856,"91.csv","","480","resources/trios/L1T4A3.jpg","37","restless",0.8,0.9,0.3,0.117462424009048,"true"
"image-keyboard-response",73,3798075,"0.0-4.20-1.20","w1qhombhg1kge2c",856,"91.csv","","null","resources/maskTrios/L1BB.jpg","null","",NA,NA,NA,NA,""
"image-keyboard-response",74,3799281,"0.0-4.20-2.20","w1qhombhg1kge2c",856,"91.csv","","null","resources/images/coin2.png","null","",NA,NA,NA,NA,""
"image-keyboard-response",75,3799786,"0.0-4.21-0.21","w1qhombhg1kge2c",856,"91.csv","","503","resources/trios/L1T4A3.jpg","37","restless",0.8,0.9,0.3,0.578388616196484,"true"
"image-keyboard-response",76,3800188,"0.0-4.21-1.21","w1qhombhg1kge2c",856,"91.csv","","null","resources/maskTrios/L1BB.jpg","null","",NA,NA,NA,NA,""
"image-keyboard-response",77,3801392,"0.0-4.21-2.21","w1qhombhg1kge2c",856,"91.csv","","null","resources/images/coin2.png","null","",NA,NA,NA,NA,""
"image-keyboard-response",78,3801749,"0.0-4.22-0.22","w1qhombhg1kge2c",856,"91.csv","","355","resources/trios/L1T4A3.jpg","37","restless",0.8,0.8,0.4,0.9036488458023,"false"
"image-keyboard-response",79,3802192,"0.0-4.22-1.22","w1qhombhg1kge2c",856,"91.csv","","null","resources/maskTrios/L1BB.jpg","null","",NA,NA,NA,NA,""
"image-keyboard-response",80,3803395,"0.0-4.22-2.22","w1qhombhg1kge2c",856,"91.csv","","null","resources/images/fishbone.png","null","",NA,NA,NA,NA,""
"image-keyboard-response",81,3803740,"0.0-4.23-0.23","w1qhombhg1kge2c",856,"91.csv","","344","resources/trios/L1T4A3.jpg","38","restless",0.8,0.8,0.3,0.507989494225943,"true"
"image-keyboard-response",82,3804145,"0.0-4.23-1.23","w1qhombhg1kge2c",856,"91.csv","","null","resources/maskTrios/BT4B.jpg","null","",NA,NA,NA,NA,""
"image-keyboard-response",83,3805392,"0.0-4.23-2.23","w1qhombhg1kge2c",856,"91.csv","","null","resources/images/coin2.png","null","",NA,NA,NA,NA,""
"image-keyboard-response",84,3805700,"0.0-4.24-0.24","w1qhombhg1kge2c",856,"91.csv","","307","resources/trios/L1T4A3.jpg","38","restless",0.8,0.8,0.3,0.475841444784055,"true"
"image-keyboard-response",85,3806102,"0.0-4.24-1.24","w1qhombhg1kge2c",856,"91.csv","","null","resources/maskTrios/BT4B.jpg","null","",NA,NA,NA,NA,""
"image-keyboard-response",86,3807413,"0.0-4.24-2.24","w1qhombhg1kge2c",856,"91.csv","","null","resources/images/coin2.png","null","",NA,NA,NA,NA,""
"image-keyboard-response",87,3807741,"0.0-4.25-0.25","w1qhombhg1kge2c",856,"91.csv","","325","resources/trios/L1T4A3.jpg","38","restless",0.8,0.8,0.3,0.0618291448258899,"true"
"image-keyboard-response",88,3808145,"0.0-4.25-1.25","w1qhombhg1kge2c",856,"91.csv","","null","resources/maskTrios/BT4B.jpg","null","",NA,NA,NA,NA,""
"image-keyboard-response",89,3809431,"0.0-4.25-2.25","w1qhombhg1kge2c",856,"91.csv","","null","resources/images/coin2.png","null","",NA,NA,NA,NA,""
"image-keyboard-response",90,3809983,"0.0-4.26-0.26","w1qhombhg1kge2c",856,"91.csv","","551","resources/trios/L1T4A3.jpg","38","restless",0.8,0.8,0.3,0.80568914937495,"false"
"image-keyboard-response",91,3810389,"0.0-4.26-1.26","w1qhombhg1kge2c",856,"91.csv","","null","resources/maskTrios/BT4B.jpg","null","",NA,NA,NA,NA,""
"image-keyboard-response",92,3811595,"0.0-4.26-2.26","w1qhombhg1kge2c",856,"91.csv","","null","resources/images/fishbone.png","null","",NA,NA,NA,NA,""
"image-keyboard-response",93,3812319,"0.0-4.27-0.27","w1qhombhg1kge2c",856,"91.csv","","723","resources/trios/L1T4A3.jpg","38","restless",0.8,0.8,0.4,0.300588207823366,"true"
"image-keyboard-response",94,3812726,"0.0-4.27-1.27","w1qhombhg1kge2c",856,"91.csv","","null","resources/maskTrios/BT4B.jpg","null","",NA,NA,NA,NA,""
"image-keyboard-response",95,3813933,"0.0-4.27-2.27","w1qhombhg1kge2c",856,"91.csv","","null","resources/images/coin2.png","null","",NA,NA,NA,NA,""
"image-keyboard-response",96,3814207,"0.0-4.28-0.28","w1qhombhg1kge2c",856,"91.csv","","274","resources/trios/L1T4A3.jpg","38","restless",0.7,0.8,0.4,0.561674364768016,"true"
"image-keyboard-response",97,3814614,"0.0-4.28-1.28","w1qhombhg1kge2c",856,"91.csv","","null","resources/maskTrios/BT4B.jpg","null","",NA,NA,NA,NA,""
"image-keyboard-response",98,3815939,"0.0-4.28-2.28","w1qhombhg1kge2c",856,"91.csv","","null","resources/images/coin2.png","null","",NA,NA,NA,NA,""
"image-keyboard-response",99,3816143,"0.0-4.29-0.29","w1qhombhg1kge2c",856,"91.csv","","204","resources/trios/L1T4A3.jpg","38","restless",0.7,0.8,0.4,0.505331209015613,"true"
"image-keyboard-response",100,3816550,"0.0-4.29-1.29","w1qhombhg1kge2c",856,"91.csv","","null","resources/maskTrios/BT4B.jpg","null","",NA,NA,NA,NA,""
"image-keyboard-response",101,3817756,"0.0-4.29-2.29","w1qhombhg1kge2c",856,"91.csv","","null","resources/images/coin2.png","null","",NA,NA,NA,NA,""
"image-keyboard-response",102,3818172,"0.0-4.30-0.30","w1qhombhg1kge2c",856,"91.csv","","415","resources/trios/L1T4A3.jpg","38","restless",0.7,0.8,0.4,0.141046734156545,"true"
"image-keyboard-response",103,3818576,"0.0-4.30-1.30","w1qhombhg1kge2c",856,"91.csv","","null","resources/maskTrios/BT4B.jpg","null","",NA,NA,NA,NA,""
"image-keyboard-response",104,3819782,"0.0-4.30-2.30","w1qhombhg1kge2c",856,"91.csv","","null","resources/images/coin2.png","null","",NA,NA,NA,NA,""
"image-keyboard-response",105,3820290,"0.0-4.31-0.31","w1qhombhg1kge2c",856,"91.csv","","507","resources/trios/L1T4A3.jpg","38","restless",0.7,0.8,0.4,0.0121316996760972,"true"
"image-keyboard-response",106,3820693,"0.0-4.31-1.31","w1qhombhg1kge2c",856,"91.csv","","null","resources/maskTrios/BT4B.jpg","null","",NA,NA,NA,NA,""
"image-keyboard-response",107,3821900,"0.0-4.31-2.31","w1qhombhg1kge2c",856,"91.csv","","null","resources/images/coin2.png","null","",NA,NA,NA,NA,""
"image-keyboard-response",108,3822076,"0.0-4.32-0.32","w1qhombhg1kge2c",856,"91.csv","","176","resources/trios/L1T4A3.jpg","38","restless",0.7,0.8,0.4,0.904494451962351,"false"
"image-keyboard-response",109,3822483,"0.0-4.32-1.32","w1qhombhg1kge2c",856,"91.csv","","null","resources/maskTrios/BT4B.jpg","null","",NA,NA,NA,NA,""
"image-keyboard-response",110,3823685,"0.0-4.32-2.32","w1qhombhg1kge2c",856,"91.csv","","null","resources/images/fishbone.png","null","",NA,NA,NA,NA,""
"image-keyboard-response",111,3823698,"0.0-4.33-0.33","w1qhombhg1kge2c",856,"91.csv","","12","resources/trios/L1T4A3.jpg","39","restless",0.7,0.8,0.4,0.0922728793989446,"true"
"image-keyboard-response",112,3824104,"0.0-4.33-1.33","w1qhombhg1kge2c",856,"91.csv","","null","resources/maskTrios/BBA3.jpg","null","",NA,NA,NA,NA,""
"image-keyboard-response",113,3825306,"0.0-4.33-2.33","w1qhombhg1kge2c",856,"91.csv","","null","resources/images/coin2.png","null","",NA,NA,NA,NA,""
"image-keyboard-response",114,3825342,"0.0-4.34-0.34","w1qhombhg1kge2c",856,"91.csv","","36","resources/trios/L1T4A3.jpg","39","restless",0.7,0.8,0.5,0.329621636810437,"true"
"image-keyboard-response",115,3825744,"0.0-4.34-1.34","w1qhombhg1kge2c",856,"91.csv","","null","resources/maskTrios/BBA3.jpg","null","",NA,NA,NA,NA,""
"image-keyboard-response",116,3826950,"0.0-4.34-2.34","w1qhombhg1kge2c",856,"91.csv","","null","resources/images/coin2.png","null","",NA,NA,NA,NA,""
"image-keyboard-response",117,3827268,"0.0-4.35-0.35","w1qhombhg1kge2c",856,"91.csv","","318","resources/trios/L1T4A3.jpg","39","restless",0.7,0.8,0.5,0.413344139117886,"true"
"image-keyboard-response",118,3827674,"0.0-4.35-1.35","w1qhombhg1kge2c",856,"91.csv","","null","resources/maskTrios/BBA3.jpg","null","",NA,NA,NA,NA,""
"image-keyboard-response",119,3828880,"0.0-4.35-2.35","w1qhombhg1kge2c",856,"91.csv","","null","resources/images/coin2.png","null","",NA,NA,NA,NA,""
"image-keyboard-response",120,3829203,"0.0-4.36-0.36","w1qhombhg1kge2c",856,"91.csv","","323","resources/trios/L1T4A3.jpg","39","restless",0.7,0.8,0.5,0.410021332290321,"true"
"image-keyboard-response",121,3829604,"0.0-4.36-1.36","w1qhombhg1kge2c",856,"91.csv","","null","resources/maskTrios/BBA3.jpg","null","",NA,NA,NA,NA,""
"image-keyboard-response",122,3830811,"0.0-4.36-2.36","w1qhombhg1kge2c",856,"91.csv","","null","resources/images/coin2.png","null","",NA,NA,NA,NA,""
"image-keyboard-response",123,3831011,"0.0-4.37-0.37","w1qhombhg1kge2c",856,"91.csv","","198","resources/trios/L1T4A3.jpg","39","restless",0.7,0.8,0.5,0.103381973665377,"true"
"image-keyboard-response",124,3831414,"0.0-4.37-1.37","w1qhombhg1kge2c",856,"91.csv","","null","resources/maskTrios/BBA3.jpg","null","",NA,NA,NA,NA,""
"image-keyboard-response",125,3832619,"0.0-4.37-2.37","w1qhombhg1kge2c",856,"91.csv","","null","resources/images/coin2.png","null","",NA,NA,NA,NA,""
"image-keyboard-response",126,3832710,"0.0-4.38-0.38","w1qhombhg1kge2c",856,"91.csv","","90","resources/trios/L1T4A3.jpg","39","restless",0.7,0.8,0.5,0.943400699645905,"false"
"image-keyboard-response",127,3833114,"0.0-4.38-1.38","w1qhombhg1kge2c",856,"91.csv","","null","resources/maskTrios/BBA3.jpg","null","",NA,NA,NA,NA,""
"image-keyboard-response",128,3834320,"0.0-4.38-2.38","w1qhombhg1kge2c",856,"91.csv","","null","resources/images/fishbone.png","null","",NA,NA,NA,NA,""
"image-keyboard-response",129,3834558,"0.0-4.39-0.39","w1qhombhg1kge2c",856,"91.csv","","238","resources/trios/L1T4A3.jpg","37","restless",0.7,0.8,0.4,0.393379858022744,"true"
"image-keyboard-response",130,3834965,"0.0-4.39-1.39","w1qhombhg1kge2c",856,"91.csv","","null","resources/maskTrios/L1BB.jpg","null","",NA,NA,NA,NA,""
"image-keyboard-response",131,3836171,"0.0-4.39-2.39","w1qhombhg1kge2c",856,"91.csv","","null","resources/images/coin2.png","null","",NA,NA,NA,NA,""
"image-keyboard-response",132,3836597,"0.0-4.40-0.40","w1qhombhg1kge2c",856,"91.csv","","425","resources/trios/L1T4A3.jpg","37","restless",0.7,0.7,0.4,0.330008505472944,"true"
"image-keyboard-response",133,3837003,"0.0-4.40-1.40","w1qhombhg1kge2c",856,"91.csv","","null","resources/maskTrios/L1BB.jpg","null","",NA,NA,NA,NA,""
"image-keyboard-response",134,3838209,"0.0-4.40-2.40","w1qhombhg1kge2c",856,"91.csv","","null","resources/images/coin2.png","null","",NA,NA,NA,NA,""
"image-keyboard-response",135,3838446,"0.0-4.41-0.41","w1qhombhg1kge2c",856,"91.csv","","236","resources/trios/L1T4A3.jpg","37","restless",0.7,0.7,0.4,0.111879750442389,"true"
"image-keyboard-response",136,3838851,"0.0-4.41-1.41","w1qhombhg1kge2c",856,"91.csv","","null","resources/maskTrios/L1BB.jpg","null","",NA,NA,NA,NA,""
"image-keyboard-response",137,3840058,"0.0-4.41-2.41","w1qhombhg1kge2c",856,"91.csv","","null","resources/images/coin2.png","null","",NA,NA,NA,NA,""
"image-keyboard-response",138,3840170,"0.0-4.42-0.42","w1qhombhg1kge2c",856,"91.csv","","112","resources/trios/L1T4A3.jpg","37","restless",0.7,0.7,0.4,0.26876871039018,"true"
"image-keyboard-response",139,3840574,"0.0-4.42-1.42","w1qhombhg1kge2c",856,"91.csv","","null","resources/maskTrios/L1BB.jpg","null","",NA,NA,NA,NA,""
"image-keyboard-response",140,3841781,"0.0-4.42-2.42","w1qhombhg1kge2c",856,"91.csv","","null","resources/images/coin2.png","null","",NA,NA,NA,NA,""
"image-keyboard-response",141,3841883,"0.0-4.43-0.43","w1qhombhg1kge2c",856,"91.csv","","100","resources/trios/L1T4A3.jpg","37","restless",0.7,0.7,0.4,0.942077272487505,"false"
"image-keyboard-response",142,3842285,"0.0-4.43-1.43","w1qhombhg1kge2c",856,"91.csv","","null","resources/maskTrios/L1BB.jpg","null","",NA,NA,NA,NA,""
"image-keyboard-response",143,3843491,"0.0-4.43-2.43","w1qhombhg1kge2c",856,"91.csv","","null","resources/images/fishbone.png","null","",NA,NA,NA,NA,""
"image-keyboard-response",144,3843745,"0.0-4.44-0.44","w1qhombhg1kge2c",856,"91.csv","","252","resources/trios/L1T4A3.jpg","38","restless",0.7,0.7,0.5,0.912137494901469,"false"
"image-keyboard-response",145,3844150,"0.0-4.44-1.44","w1qhombhg1kge2c",856,"91.csv","","null","resources/maskTrios/BT4B.jpg","null","",NA,NA,NA,NA,""
"image-keyboard-response",146,3845354,"0.0-4.44-2.44","w1qhombhg1kge2c",856,"91.csv","","null","resources/images/fishbone.png","null","",NA,NA,NA,NA,""
"image-keyboard-response",147,3845620,"0.0-4.45-0.45","w1qhombhg1kge2c",856,"91.csv","","266","resources/trios/L1T4A3.jpg","39","restless",0.7,0.7,0.5,0.613857794188536,"false"
"image-keyboard-response",148,3846027,"0.0-4.45-1.45","w1qhombhg1kge2c",856,"91.csv","","null","resources/maskTrios/BBA3.jpg","null","",NA,NA,NA,NA,""
"image-keyboard-response",149,3847233,"0.0-4.45-2.45","w1qhombhg1kge2c",856,"91.csv","","null","resources/images/fishbone.png","null","",NA,NA,NA,NA,""
"image-keyboard-response",150,3847644,"0.0-4.46-0.46","w1qhombhg1kge2c",856,"91.csv","","410","resources/trios/L1T4A3.jpg","37","restless",0.7,0.7,0.5,0.898342961194823,"false"
"image-keyboard-response",151,3848046,"0.0-4.46-1.46","w1qhombhg1kge2c",856,"91.csv","","null","resources/maskTrios/L1BB.jpg","null","",NA,NA,NA,NA,""
"image-keyboard-response",152,3849353,"0.0-4.46-2.46","w1qhombhg1kge2c",856,"91.csv","","null","resources/images/fishbone.png","null","",NA,NA,NA,NA,""
"image-keyboard-response",153,3850040,"0.0-4.47-0.47","w1qhombhg1kge2c",856,"91.csv","","685","resources/trios/L1T4A3.jpg","39","restless",0.7,0.7,0.5,0.48088866006033,"true"
"image-keyboard-response",154,3850446,"0.0-4.47-1.47","w1qhombhg1kge2c",856,"91.csv","","null","resources/maskTrios/BBA3.jpg","null","",NA,NA,NA,NA,""
"image-keyboard-response",155,3851651,"0.0-4.47-2.47","w1qhombhg1kge2c",856,"91.csv","","null","resources/images/coin2.png","null","",NA,NA,NA,NA,""
"image-keyboard-response",156,3851921,"0.0-4.48-0.48","w1qhombhg1kge2c",856,"91.csv","","270","resources/trios/L1T4A3.jpg","39","restless",0.7,0.7,0.5,0.486944517687819,"true"
"image-keyboard-response",157,3852327,"0.0-4.48-1.48","w1qhombhg1kge2c",856,"91.csv","","null","resources/maskTrios/BBA3.jpg","null","",NA,NA,NA,NA,""
"image-keyboard-response",158,3853531,"0.0-4.48-2.48","w1qhombhg1kge2c",856,"91.csv","","null","resources/images/coin2.png","null","",NA,NA,NA,NA,""
"image-keyboard-response",159,3853816,"0.0-4.49-0.49","w1qhombhg1kge2c",856,"91.csv","","282","resources/trios/L1T4A3.jpg","39","restless",0.7,0.7,0.5,0.687744867858867,"false"
"image-keyboard-response",160,3854223,"0.0-4.49-1.49","w1qhombhg1kge2c",856,"91.csv","","null","resources/maskTrios/BBA3.jpg","null","",NA,NA,NA,NA,""
"image-keyboard-response",161,3855428,"0.0-4.49-2.49","w1qhombhg1kge2c",856,"91.csv","","null","resources/images/fishbone.png","null","",NA,NA,NA,NA,""
"image-keyboard-response",162,3855706,"0.0-4.50-0.50","w1qhombhg1kge2c",856,"91.csv","","277","resources/trios/L1T4A3.jpg","38","restless",0.7,0.7,0.5,0.047817747647602,"true"
"image-keyboard-response",163,3856113,"0.0-4.50-1.50","w1qhombhg1kge2c",856,"91.csv","","null","resources/maskTrios/BT4B.jpg","null","",NA,NA,NA,NA,""
"image-keyboard-response",164,3857318,"0.0-4.50-2.50","w1qhombhg1kge2c",856,"91.csv","","null","resources/images/coin2.png","null","",NA,NA,NA,NA,""
"image-keyboard-response",165,3857585,"0.0-4.51-0.51","w1qhombhg1kge2c",856,"91.csv","","267","resources/trios/L1T4A3.jpg","38","restless",0.7,0.7,0.5,0.0712625667029623,"true"
"image-keyboard-response",166,3857992,"0.0-4.51-1.51","w1qhombhg1kge2c",856,"91.csv","","null","resources/maskTrios/BT4B.jpg","null","",NA,NA,NA,NA,""
"image-keyboard-response",167,3859323,"0.0-4.51-2.51","w1qhombhg1kge2c",856,"91.csv","","null","resources/images/coin2.png","null","",NA,NA,NA,NA,""
"image-keyboard-response",168,3859620,"0.0-4.52-0.52","w1qhombhg1kge2c",856,"91.csv","","296","resources/trios/L1T4A3.jpg","38","restless",0.7,0.7,0.5,0.0950010544560456,"true"
"image-keyboard-response",169,3860024,"0.0-4.52-1.52","w1qhombhg1kge2c",856,"91.csv","","null","resources/maskTrios/BT4B.jpg","null","",NA,NA,NA,NA,""
"image-keyboard-response",170,3861333,"0.0-4.52-2.52","w1qhombhg1kge2c",856,"91.csv","","null","resources/images/coin2.png","null","",NA,NA,NA,NA,""
"image-keyboard-response",171,3861910,"0.0-4.53-0.53","w1qhombhg1kge2c",856,"91.csv","","576","resources/trios/L1T4A3.jpg","38","restless",0.7,0.8,0.6,0.658013515319467,"true"
"image-keyboard-response",172,3862313,"0.0-4.53-1.53","w1qhombhg1kge2c",856,"91.csv","","null","resources/maskTrios/BT4B.jpg","null","",NA,NA,NA,NA,""
"image-keyboard-response",173,3863540,"0.0-4.53-2.53","w1qhombhg1kge2c",856,"91.csv","","null","resources/images/coin2.png","null","",NA,NA,NA,NA,""
"image-keyboard-response",174,3863773,"0.0-4.54-0.54","w1qhombhg1kge2c",856,"91.csv","","233","resources/trios/L1T4A3.jpg","38","restless",0.7,0.7,0.5,0.460467187521197,"true"
"image-keyboard-response",175,3864179,"0.0-4.54-1.54","w1qhombhg1kge2c",856,"91.csv","","null","resources/maskTrios/BT4B.jpg","null","",NA,NA,NA,NA,""
"image-keyboard-response",176,3865385,"0.0-4.54-2.54","w1qhombhg1kge2c",856,"91.csv","","null","resources/images/coin2.png","null","",NA,NA,NA,NA,""
"image-keyboard-response",177,3865437,"0.0-4.55-0.55","w1qhombhg1kge2c",856,"91.csv","","51","resources/trios/L1T4A3.jpg","38","restless",0.7,0.7,0.5,0.523859236350501,"true"
"image-keyboard-response",178,3865843,"0.0-4.55-1.55","w1qhombhg1kge2c",856,"91.csv","","null","resources/maskTrios/BT4B.jpg","null","",NA,NA,NA,NA,""
"image-keyboard-response",179,3867048,"0.0-4.55-2.55","w1qhombhg1kge2c",856,"91.csv","","null","resources/images/coin2.png","null","",NA,NA,NA,NA,""
"image-keyboard-response",180,3867172,"0.0-4.56-0.56","w1qhombhg1kge2c",856,"91.csv","","123","resources/trios/L1T4A3.jpg","38","restless",0.7,0.7,0.5,0.168331275769541,"true"
"image-keyboard-response",181,3867614,"0.0-4.56-1.56","w1qhombhg1kge2c",856,"91.csv","","null","resources/maskTrios/BT4B.jpg","null","",NA,NA,NA,NA,""
"image-keyboard-response",182,3868818,"0.0-4.56-2.56","w1qhombhg1kge2c",856,"91.csv","","null","resources/images/coin2.png","null","",NA,NA,NA,NA,""
"image-keyboard-response",183,3869254,"0.0-4.57-0.57","w1qhombhg1kge2c",856,"91.csv","","435","resources/trios/L1T4A3.jpg","38","restless",0.7,0.7,0.5,0.059027639707159,"true"
"image-keyboard-response",184,3869660,"0.0-4.57-1.57","w1qhombhg1kge2c",856,"91.csv","","null","resources/maskTrios/BT4B.jpg","null","",NA,NA,NA,NA,""
"image-keyboard-response",185,3870861,"0.0-4.57-2.57","w1qhombhg1kge2c",856,"91.csv","","null","resources/images/coin2.png","null","",NA,NA,NA,NA,""
"image-keyboard-response",186,3871164,"0.0-4.58-0.58","w1qhombhg1kge2c",856,"91.csv","","301","resources/trios/L1T4A3.jpg","38","restless",0.7,0.7,0.5,0.145217226479134,"true"
"image-keyboard-response",187,3871567,"0.0-4.58-1.58","w1qhombhg1kge2c",856,"91.csv","","null","resources/maskTrios/BT4B.jpg","null","",NA,NA,NA,NA,""
"image-keyboard-response",188,3872771,"0.0-4.58-2.58","w1qhombhg1kge2c",856,"91.csv","","null","resources/images/coin2.png","null","",NA,NA,NA,NA,""
"image-keyboard-response",189,3873015,"0.0-4.59-0.59","w1qhombhg1kge2c",856,"91.csv","","243","resources/trios/L1T4A3.jpg","38","restless",0.7,0.7,0.5,0.410816280638923,"true"
"image-keyboard-response",190,3873421,"0.0-4.59-1.59","w1qhombhg1kge2c",856,"91.csv","","null","resources/maskTrios/BT4B.jpg","null","",NA,NA,NA,NA,""
"image-keyboard-response",191,3874771,"0.0-4.59-2.59","w1qhombhg1kge2c",856,"91.csv","","null","resources/images/coin2.png","null","",NA,NA,NA,NA,""
"image-keyboard-response",192,3875485,"0.0-4.60-0.60","w1qhombhg1kge2c",856,"91.csv","","712","resources/trios/L1T4A3.jpg","38","restless",0.7,0.7,0.4,0.339977953149949,"true"
"image-keyboard-response",193,3875891,"0.0-4.60-1.60","w1qhombhg1kge2c",856,"91.csv","","null","resources/maskTrios/BT4B.jpg","null","",NA,NA,NA,NA,""
"image-keyboard-response",194,3877096,"0.0-4.60-2.60","w1qhombhg1kge2c",856,"91.csv","","null","resources/images/coin2.png","null","",NA,NA,NA,NA,""
"image-keyboard-response",195,3877421,"0.0-4.61-0.61","w1qhombhg1kge2c",856,"91.csv","","323","resources/trios/L1T4A3.jpg","38","restless",0.6,0.7,0.4,0.0201712840507919,"true"
"image-keyboard-response",196,3877827,"0.0-4.61-1.61","w1qhombhg1kge2c",856,"91.csv","","null","resources/maskTrios/BT4B.jpg","null","",NA,NA,NA,NA,""
"image-keyboard-response",197,3879101,"0.0-4.61-2.61","w1qhombhg1kge2c",856,"91.csv","","null","resources/images/coin2.png","null","",NA,NA,NA,NA,""
"image-keyboard-response",198,3879429,"0.0-4.62-0.62","w1qhombhg1kge2c",856,"91.csv","","328","resources/trios/L1T4A3.jpg","38","restless",0.6,0.7,0.4,0.843011415823649,"false"
"image-keyboard-response",199,3879837,"0.0-4.62-1.62","w1qhombhg1kge2c",856,"91.csv","","null","resources/maskTrios/BT4B.jpg","null","",NA,NA,NA,NA,""
"image-keyboard-response",200,3881117,"0.0-4.62-2.62","w1qhombhg1kge2c",856,"91.csv","","null","resources/images/fishbone.png","null","",NA,NA,NA,NA,""
"image-keyboard-response",201,3881375,"0.0-4.63-0.63","w1qhombhg1kge2c",856,"91.csv","","256","resources/trios/L1T4A3.jpg","37","restless",0.6,0.7,0.4,0.153280797189289,"true"
"image-keyboard-response",202,3881778,"0.0-4.63-1.63","w1qhombhg1kge2c",856,"91.csv","","null","resources/maskTrios/L1BB.jpg","null","",NA,NA,NA,NA,""
"image-keyboard-response",203,3883134,"0.0-4.63-2.63","w1qhombhg1kge2c",856,"91.csv","","null","resources/images/coin2.png","null","",NA,NA,NA,NA,""
"image-keyboard-response",204,3883433,"0.0-4.64-0.64","w1qhombhg1kge2c",856,"91.csv","","299","resources/trios/L1T4A3.jpg","37","restless",0.6,0.7,0.4,0.752110628428947,"false"
"image-keyboard-response",205,3883837,"0.0-4.64-1.64","w1qhombhg1kge2c",856,"91.csv","","null","resources/maskTrios/L1BB.jpg","null","",NA,NA,NA,NA,""
"image-keyboard-response",206,3885150,"0.0-4.64-2.64","w1qhombhg1kge2c",856,"91.csv","","null","resources/images/fishbone.png","null","",NA,NA,NA,NA,""
"image-keyboard-response",207,3885184,"0.0-4.65-0.65","w1qhombhg1kge2c",856,"91.csv","","33","resources/trios/L1T4A3.jpg","39","restless",0.6,0.8,0.4,0.476778253142969,"false"
"image-keyboard-response",208,3885590,"0.0-4.65-1.65","w1qhombhg1kge2c",856,"91.csv","","null","resources/maskTrios/BBA3.jpg","null","",NA,NA,NA,NA,""
"image-keyboard-response",209,3886792,"0.0-4.65-2.65","w1qhombhg1kge2c",856,"91.csv","","null","resources/images/fishbone.png","null","",NA,NA,NA,NA,""
"image-keyboard-response",210,3886856,"0.0-4.66-0.66","w1qhombhg1kge2c",856,"91.csv","","63","resources/trios/L1T4A3.jpg","38","restless",0.6,0.8,0.4,0.426982190454308,"true"
"image-keyboard-response",211,3887261,"0.0-4.66-1.66","w1qhombhg1kge2c",856,"91.csv","","null","resources/maskTrios/BT4B.jpg","null","",NA,NA,NA,NA,""
"image-keyboard-response",212,3888467,"0.0-4.66-2.66","w1qhombhg1kge2c",856,"91.csv","","null","resources/images/coin2.png","null","",NA,NA,NA,NA,""
"image-keyboard-response",213,3888575,"0.0-4.67-0.67","w1qhombhg1kge2c",856,"91.csv","","106","resources/trios/L1T4A3.jpg","38","restless",0.6,0.8,0.4,0.952818616243138,"false"
"image-keyboard-response",214,3888979,"0.0-4.67-1.67","w1qhombhg1kge2c",856,"91.csv","","null","resources/maskTrios/BT4B.jpg","null","",NA,NA,NA,NA,""
"image-keyboard-response",215,3890185,"0.0-4.67-2.67","w1qhombhg1kge2c",856,"91.csv","","null","resources/images/fishbone.png","null","",NA,NA,NA,NA,""
"image-keyboard-response",216,3891447,"0.0-4.68-0.68","w1qhombhg1kge2c",856,"91.csv","","1261","resources/trios/L1T4A3.jpg","38","restless",0.6,0.8,0.4,0.439895162284531,"true"
"image-keyboard-response",217,3891854,"0.0-4.68-1.68","w1qhombhg1kge2c",856,"91.csv","","null","resources/maskTrios/BT4B.jpg","null","",NA,NA,NA,NA,""
"image-keyboard-response",218,3893057,"0.0-4.68-2.68","w1qhombhg1kge2c",856,"91.csv","","null","resources/images/coin2.png","null","",NA,NA,NA,NA,""
"image-keyboard-response",219,3893318,"0.0-4.69-0.69","w1qhombhg1kge2c",856,"91.csv","","261","resources/trios/L1T4A3.jpg","38","restless",0.6,0.8,0.4,0.608226234636564,"true"
"image-keyboard-response",220,3893725,"0.0-4.69-1.69","w1qhombhg1kge2c",856,"91.csv","","null","resources/maskTrios/BT4B.jpg","null","",NA,NA,NA,NA,""
"image-keyboard-response",221,3895059,"0.0-4.69-2.69","w1qhombhg1kge2c",856,"91.csv","","null","resources/images/coin2.png","null","",NA,NA,NA,NA,""
"image-keyboard-response",222,4102694,"0.0-4.70-0.70","w1qhombhg1kge2c",856,"91.csv","","207642","resources/trios/L1T4A3.jpg","38","restless",0.6,0.8,0.4,0.368129963948472,"true"
"image-keyboard-response",223,4103101,"0.0-4.70-1.70","w1qhombhg1kge2c",856,"91.csv","","null","resources/maskTrios/BT4B.jpg","null","",NA,NA,NA,NA,""
"image-keyboard-response",224,4104307,"0.0-4.70-2.70","w1qhombhg1kge2c",856,"91.csv","","null","resources/images/coin2.png","null","",NA,NA,NA,NA,""
"image-keyboard-response",225,4104334,"0.0-4.71-0.71","w1qhombhg1kge2c",856,"91.csv","","26","resources/trios/L1T4A3.jpg","38","restless",0.6,0.8,0.4,0.0436591420633559,"true"
"image-keyboard-response",226,4104739,"0.0-4.71-1.71","w1qhombhg1kge2c",856,"91.csv","","null","resources/maskTrios/BT4B.jpg","null","",NA,NA,NA,NA,""
"image-keyboard-response",227,4105945,"0.0-4.71-2.71","w1qhombhg1kge2c",856,"91.csv","","null","resources/images/coin2.png","null","",NA,NA,NA,NA,""
"image-keyboard-response",228,4106100,"0.0-4.72-0.72","w1qhombhg1kge2c",856,"91.csv","","152","resources/trios/L1T4A3.jpg","38","restless",0.6,0.8,0.4,0.0493985533799495,"true"
"image-keyboard-response",229,4106505,"0.0-4.72-1.72","w1qhombhg1kge2c",856,"91.csv","","null","resources/maskTrios/BT4B.jpg","null","",NA,NA,NA,NA,""
"image-keyboard-response",230,4107711,"0.0-4.72-2.72","w1qhombhg1kge2c",856,"91.csv","","null","resources/images/coin2.png","null","",NA,NA,NA,NA,""
"image-keyboard-response",231,4107740,"0.0-4.73-0.73","w1qhombhg1kge2c",856,"91.csv","","29","resources/trios/L1T4A3.jpg","38","restless",0.6,0.8,0.4,0.764813822142707,"true"
"image-keyboard-response",232,4108142,"0.0-4.73-1.73","w1qhombhg1kge2c",856,"91.csv","","null","resources/maskTrios/BT4B.jpg","null","",NA,NA,NA,NA,""
"image-keyboard-response",233,4109348,"0.0-4.73-2.73","w1qhombhg1kge2c",856,"91.csv","","null","resources/images/coin2.png","null","",NA,NA,NA,NA,""
"image-keyboard-response",234,4109495,"0.0-4.74-0.74","w1qhombhg1kge2c",856,"91.csv","","145","resources/trios/L1T4A3.jpg","38","restless",0.5,0.8,0.4,0.512037336556308,"true"
"image-keyboard-response",235,4109901,"0.0-4.74-1.74","w1qhombhg1kge2c",856,"91.csv","","null","resources/maskTrios/BT4B.jpg","null","",NA,NA,NA,NA,""
"image-keyboard-response",236,4111107,"0.0-4.74-2.74","w1qhombhg1kge2c",856,"91.csv","","null","resources/images/coin2.png","null","",NA,NA,NA,NA,""
"image-keyboard-response",237,4111505,"0.0-4.75-0.75","w1qhombhg1kge2c",856,"91.csv","","397","resources/trios/L1T4A3.jpg","38","restless",0.4,0.8,0.4,0.860596597262635,"false"
"image-keyboard-response",238,4111907,"0.0-4.75-1.75","w1qhombhg1kge2c",856,"91.csv","","null","resources/maskTrios/BT4B.jpg","null","",NA,NA,NA,NA,""
"image-keyboard-response",239,4113111,"0.0-4.75-2.75","w1qhombhg1kge2c",856,"91.csv","","null","resources/images/fishbone.png","null","",NA,NA,NA,NA,""
"image-keyboard-response",240,4146119,"0.0-4.76-0.76","w1qhombhg1kge2c",856,"91.csv","","33008","resources/trios/L1T4A3.jpg","38","restless",0.4,0.7,0.4,0.265937764853037,"true"
"image-keyboard-response",241,4146525,"0.0-4.76-1.76","w1qhombhg1kge2c",856,"91.csv","","null","resources/maskTrios/BT4B.jpg","null","",NA,NA,NA,NA,""
"image-keyboard-response",242,4147732,"0.0-4.76-2.76","w1qhombhg1kge2c",856,"91.csv","","null","resources/images/coin2.png","null","",NA,NA,NA,NA,""
"image-keyboard-response",243,4147888,"0.0-4.77-0.77","w1qhombhg1kge2c",856,"91.csv","","155","resources/trios/L1T4A3.jpg","38","restless",0.4,0.7,0.4,0.29995847017728,"true"
"image-keyboard-response",244,4148295,"0.0-4.77-1.77","w1qhombhg1kge2c",856,"91.csv","","null","resources/maskTrios/BT4B.jpg","null","",NA,NA,NA,NA,""
"image-keyboard-response",245,4149496,"0.0-4.77-2.77","w1qhombhg1kge2c",856,"91.csv","","null","resources/images/coin2.png","null","",NA,NA,NA,NA,""
"image-keyboard-response",246,4149685,"0.0-4.78-0.78","w1qhombhg1kge2c",856,"91.csv","","188","resources/trios/L1T4A3.jpg","38","restless",0.4,0.7,0.4,0.984993865343301,"false"
"image-keyboard-response",247,4150086,"0.0-4.78-1.78","w1qhombhg1kge2c",856,"91.csv","","null","resources/maskTrios/BT4B.jpg","null","",NA,NA,NA,NA,""
"image-keyboard-response",248,4151292,"0.0-4.78-2.78","w1qhombhg1kge2c",856,"91.csv","","null","resources/images/fishbone.png","null","",NA,NA,NA,NA,""
"image-keyboard-response",249,4151953,"0.0-4.79-0.79","w1qhombhg1kge2c",856,"91.csv","","660","resources/trios/L1T4A3.jpg","38","restless",0.4,0.7,0.4,0.592014834296024,"true"
"image-keyboard-response",250,4152361,"0.0-4.79-1.79","w1qhombhg1kge2c",856,"91.csv","","null","resources/maskTrios/BT4B.jpg","null","",NA,NA,NA,NA,""
"image-keyboard-response",251,4153563,"0.0-4.79-2.79","w1qhombhg1kge2c",856,"91.csv","","null","resources/images/coin2.png","null","",NA,NA,NA,NA,""
"image-keyboard-response",252,4153699,"0.0-4.80-0.80","w1qhombhg1kge2c",856,"91.csv","","136","resources/trios/L1T4A3.jpg","38","restless",0.4,0.7,0.4,0.523995383004054,"true"
"image-keyboard-response",253,4154105,"0.0-4.80-1.80","w1qhombhg1kge2c",856,"91.csv","","null","resources/maskTrios/BT4B.jpg","null","",NA,NA,NA,NA,""
"image-keyboard-response",254,4155311,"0.0-4.80-2.80","w1qhombhg1kge2c",856,"91.csv","","null","resources/images/coin2.png","null","",NA,NA,NA,NA,""
"image-keyboard-response",255,4156446,"0.0-4.81-0.81","w1qhombhg1kge2c",856,"91.csv","","1135","resources/trios/L1T4A3.jpg","38","restless",0.4,0.7,0.5,0.615686989580025,"true"
"image-keyboard-response",256,4156848,"0.0-4.81-1.81","w1qhombhg1kge2c",856,"91.csv","","null","resources/maskTrios/BT4B.jpg","null","",NA,NA,NA,NA,""
"image-keyboard-response",257,4158050,"0.0-4.81-2.81","w1qhombhg1kge2c",856,"91.csv","","null","resources/images/coin2.png","null","",NA,NA,NA,NA,""
"image-keyboard-response",258,4158315,"0.0-4.82-0.82","w1qhombhg1kge2c",856,"91.csv","","264","resources/trios/L1T4A3.jpg","38","restless",0.4,0.7,0.5,0.133178763253946,"true"
"image-keyboard-response",259,4158721,"0.0-4.82-1.82","w1qhombhg1kge2c",856,"91.csv","","null","resources/maskTrios/BT4B.jpg","null","",NA,NA,NA,NA,""
"image-keyboard-response",260,4159928,"0.0-4.82-2.82","w1qhombhg1kge2c",856,"91.csv","","null","resources/images/coin2.png","null","",NA,NA,NA,NA,""
"image-keyboard-response",261,4159973,"0.0-4.83-0.83","w1qhombhg1kge2c",856,"91.csv","","46","resources/trios/L1T4A3.jpg","38","restless",0.4,0.7,0.5,0.389947808239626,"true"
"image-keyboard-response",262,4160374,"0.0-4.83-1.83","w1qhombhg1kge2c",856,"91.csv","","null","resources/maskTrios/BT4B.jpg","null","",NA,NA,NA,NA,""
"image-keyboard-response",263,4161580,"0.0-4.83-2.83","w1qhombhg1kge2c",856,"91.csv","","null","resources/images/coin2.png","null","",NA,NA,NA,NA,""
"image-keyboard-response",264,4161674,"0.0-4.84-0.84","w1qhombhg1kge2c",856,"91.csv","","92","resources/trios/L1T4A3.jpg","38","restless",0.4,0.7,0.5,0.0662071598799832,"true"
"image-keyboard-response",265,4162079,"0.0-4.84-1.84","w1qhombhg1kge2c",856,"91.csv","","null","resources/maskTrios/BT4B.jpg","null","",NA,NA,NA,NA,""
"image-keyboard-response",266,4163285,"0.0-4.84-2.84","w1qhombhg1kge2c",856,"91.csv","","null","resources/images/coin2.png","null","",NA,NA,NA,NA,""
"image-keyboard-response",267,4163462,"0.0-4.85-0.85","w1qhombhg1kge2c",856,"91.csv","","175","resources/trios/L1T4A3.jpg","38","restless",0.4,0.7,0.5,0.616941122469118,"true"
"image-keyboard-response",268,4163866,"0.0-4.85-1.85","w1qhombhg1kge2c",856,"91.csv","","null","resources/maskTrios/BT4B.jpg","null","",NA,NA,NA,NA,""
"image-keyboard-response",269,4165069,"0.0-4.85-2.85","w1qhombhg1kge2c",856,"91.csv","","null","resources/images/coin2.png","null","",NA,NA,NA,NA,""
"image-keyboard-response",270,4165166,"0.0-4.86-0.86","w1qhombhg1kge2c",856,"91.csv","","96","resources/trios/L1T4A3.jpg","38","restless",0.4,0.7,0.6,0.437184744777936,"true"
"image-keyboard-response",271,4165569,"0.0-4.86-1.86","w1qhombhg1kge2c",856,"91.csv","","null","resources/maskTrios/BT4B.jpg","null","",NA,NA,NA,NA,""
"image-keyboard-response",272,4166808,"0.0-4.86-2.86","w1qhombhg1kge2c",856,"91.csv","","null","resources/images/coin2.png","null","",NA,NA,NA,NA,""
"image-keyboard-response",273,4167358,"0.0-4.87-0.87","w1qhombhg1kge2c",856,"91.csv","","548","resources/trios/L1T4A3.jpg","38","restless",0.4,0.6,0.6,0.815675179748262,"false"
"image-keyboard-response",274,4167764,"0.0-4.87-1.87","w1qhombhg1kge2c",856,"91.csv","","null","resources/maskTrios/BT4B.jpg","null","",NA,NA,NA,NA,""
"image-keyboard-response",275,4168966,"0.0-4.87-2.87","w1qhombhg1kge2c",856,"91.csv","","null","resources/images/fishbone.png","null","",NA,NA,NA,NA,""
"image-keyboard-response",276,4169188,"0.0-4.88-0.88","w1qhombhg1kge2c",856,"91.csv","","220","resources/trios/L1T4A3.jpg","37","restless",0.4,0.6,0.6,0.584921290188282,"false"
"image-keyboard-response",277,4169594,"0.0-4.88-1.88","w1qhombhg1kge2c",856,"91.csv","","null","resources/maskTrios/L1BB.jpg","null","",NA,NA,NA,NA,""
"image-keyboard-response",278,4170800,"0.0-4.88-2.88","w1qhombhg1kge2c",856,"91.csv","","null","resources/images/fishbone.png","null","",NA,NA,NA,NA,""
"image-keyboard-response",279,4171163,"0.0-4.89-0.89","w1qhombhg1kge2c",856,"91.csv","","361","resources/trios/L1T4A3.jpg","38","restless",0.4,0.6,0.6,0.502965240884336,"true"
"image-keyboard-response",280,4171568,"0.0-4.89-1.89","w1qhombhg1kge2c",856,"91.csv","","null","resources/maskTrios/BT4B.jpg","null","",NA,NA,NA,NA,""
"image-keyboard-response",281,4172769,"0.0-4.89-2.89","w1qhombhg1kge2c",856,"91.csv","","null","resources/images/coin2.png","null","",NA,NA,NA,NA,""
"image-keyboard-response",282,4172916,"0.0-4.90-0.90","w1qhombhg1kge2c",856,"91.csv","","148","resources/trios/L1T4A3.jpg","38","restless",0.4,0.6,0.5,0.520168748795808,"true"
"image-keyboard-response",283,4173321,"0.0-4.90-1.90","w1qhombhg1kge2c",856,"91.csv","","null","resources/maskTrios/BT4B.jpg","null","",NA,NA,NA,NA,""
"image-keyboard-response",284,4174527,"0.0-4.90-2.90","w1qhombhg1kge2c",856,"91.csv","","null","resources/images/coin2.png","null","",NA,NA,NA,NA,""
"image-keyboard-response",285,4174698,"0.0-4.91-0.91","w1qhombhg1kge2c",856,"91.csv","","170","resources/trios/L1T4A3.jpg","38","restless",0.3,0.6,0.5,0.314084491845375,"true"
"image-keyboard-response",286,4175102,"0.0-4.91-1.91","w1qhombhg1kge2c",856,"91.csv","","null","resources/maskTrios/BT4B.jpg","null","",NA,NA,NA,NA,""
"image-keyboard-response",287,4176308,"0.0-4.91-2.91","w1qhombhg1kge2c",856,"91.csv","","null","resources/images/coin2.png","null","",NA,NA,NA,NA,""
"image-keyboard-response",288,4176400,"0.0-4.92-0.92","w1qhombhg1kge2c",856,"91.csv","","92","resources/trios/L1T4A3.jpg","38","restless",0.3,0.6,0.5,0.944142395040983,"false"
"image-keyboard-response",289,4176816,"0.0-4.92-1.92","w1qhombhg1kge2c",856,"91.csv","","null","resources/maskTrios/BT4B.jpg","null","",NA,NA,NA,NA,""
"image-keyboard-response",290,4178021,"0.0-4.92-2.92","w1qhombhg1kge2c",856,"91.csv","","null","resources/images/fishbone.png","null","",NA,NA,NA,NA,""
"image-keyboard-response",291,4178149,"0.0-4.93-0.93","w1qhombhg1kge2c",856,"91.csv","","126","resources/trios/L1T4A3.jpg","38","restless",0.3,0.6,0.5,0.416358947232487,"true"
"image-keyboard-response",292,4178554,"0.0-4.93-1.93","w1qhombhg1kge2c",856,"91.csv","","null","resources/maskTrios/BT4B.jpg","null","",NA,NA,NA,NA,""
"image-keyboard-response",293,4179759,"0.0-4.93-2.93","w1qhombhg1kge2c",856,"91.csv","","null","resources/images/coin2.png","null","",NA,NA,NA,NA,""
"image-keyboard-response",294,4179809,"0.0-4.94-0.94","w1qhombhg1kge2c",856,"91.csv","","48","resources/trios/L1T4A3.jpg","38","restless",0.3,0.6,0.5,0.125618865070207,"true"
"image-keyboard-response",295,4180215,"0.0-4.94-1.94","w1qhombhg1kge2c",856,"91.csv","","null","resources/maskTrios/BT4B.jpg","null","",NA,NA,NA,NA,""
"image-keyboard-response",296,4181421,"0.0-4.94-2.94","w1qhombhg1kge2c",856,"91.csv","","null","resources/images/coin2.png","null","",NA,NA,NA,NA,""
"image-keyboard-response",297,4181582,"0.0-4.95-0.95","w1qhombhg1kge2c",856,"91.csv","","160","resources/trios/L1T4A3.jpg","38","restless",0.3,0.6,0.5,0.940117338338005,"false"
"image-keyboard-response",298,4181984,"0.0-4.95-1.95","w1qhombhg1kge2c",856,"91.csv","","null","resources/maskTrios/BT4B.jpg","null","",NA,NA,NA,NA,""
"image-keyboard-response",299,4183190,"0.0-4.95-2.95","w1qhombhg1kge2c",856,"91.csv","","null","resources/images/fishbone.png","null","",NA,NA,NA,NA,""
"image-keyboard-response",300,4183559,"0.0-4.96-0.96","w1qhombhg1kge2c",856,"91.csv","","368","resources/trios/L1T4A3.jpg","38","restless",0.3,0.6,0.4,0.847170682437289,"false"
"image-keyboard-response",301,4183966,"0.0-4.96-1.96","w1qhombhg1kge2c",856,"91.csv","","null","resources/maskTrios/BT4B.jpg","null","",NA,NA,NA,NA,""
"image-keyboard-response",302,4185172,"0.0-4.96-2.96","w1qhombhg1kge2c",856,"91.csv","","null","resources/images/fishbone.png","null","",NA,NA,NA,NA,""
"image-keyboard-response",303,4185578,"0.0-4.97-0.97","w1qhombhg1kge2c",856,"91.csv","","405","resources/trios/L1T4A3.jpg","39","restless",0.3,0.6,0.5,0.629072104614484,"false"
"image-keyboard-response",304,4185984,"0.0-4.97-1.97","w1qhombhg1kge2c",856,"91.csv","","null","resources/maskTrios/BBA3.jpg","null","",NA,NA,NA,NA,""
"image-keyboard-response",305,4187190,"0.0-4.97-2.97","w1qhombhg1kge2c",856,"91.csv","","null","resources/images/fishbone.png","null","",NA,NA,NA,NA,""
"image-keyboard-response",306,4187367,"0.0-4.98-0.98","w1qhombhg1kge2c",856,"91.csv","","175","resources/trios/L1T4A3.jpg","38","restless",0.3,0.6,0.5,0.836676680039052,"false"
"image-keyboard-response",307,4187773,"0.0-4.98-1.98","w1qhombhg1kge2c",856,"91.csv","","null","resources/maskTrios/BT4B.jpg","null","",NA,NA,NA,NA,""
"image-keyboard-response",308,4188974,"0.0-4.98-2.98","w1qhombhg1kge2c",856,"91.csv","","null","resources/images/fishbone.png","null","",NA,NA,NA,NA,""
"image-keyboard-response",309,4189006,"0.0-4.99-0.99","w1qhombhg1kge2c",856,"91.csv","","31","resources/trios/L1T4A3.jpg","37","restless",0.3,0.6,0.5,0.844551414178383,"false"
"image-keyboard-response",310,4189413,"0.0-4.99-1.99","w1qhombhg1kge2c",856,"91.csv","","null","resources/maskTrios/L1BB.jpg","null","",NA,NA,NA,NA,""
"image-keyboard-response",311,4190617,"0.0-4.99-2.99","w1qhombhg1kge2c",856,"91.csv","","null","resources/images/fishbone.png","null","",NA,NA,NA,NA,""
"image-keyboard-response",312,4195326,"0.0-4.100-0.100","w1qhombhg1kge2c",856,"91.csv","","4708","resources/trios/L1T4A3.jpg","38","restless",0.3,0.6,0.5,0.117433365759197,"true"
"image-keyboard-response",313,4195732,"0.0-4.100-1.100","w1qhombhg1kge2c",856,"91.csv","","null","resources/maskTrios/BT4B.jpg","null","",NA,NA,NA,NA,""
"image-keyboard-response",314,4196937,"0.0-4.100-2.100","w1qhombhg1kge2c",856,"91.csv","","null","resources/images/coin2.png","null","",NA,NA,NA,NA,""
"image-keyboard-response",315,4197653,"0.0-4.101-0.101","w1qhombhg1kge2c",856,"91.csv","","714","resources/trios/L1T4A3.jpg","38","restless",0.3,0.6,0.5,0.796456007745745,"false"
"image-keyboard-response",316,4198060,"0.0-4.101-1.101","w1qhombhg1kge2c",856,"91.csv","","null","resources/maskTrios/BT4B.jpg","null","",NA,NA,NA,NA,""
"image-keyboard-response",317,4199262,"0.0-4.101-2.101","w1qhombhg1kge2c",856,"91.csv","","null","resources/images/fishbone.png","null","",NA,NA,NA,NA,""
"image-keyboard-response",318,4199687,"0.0-4.102-0.102","w1qhombhg1kge2c",856,"91.csv","","424","resources/trios/L1T4A3.jpg","37","restless",0.3,0.6,0.5,0.673640819260272,"false"
"image-keyboard-response",319,4200089,"0.0-4.102-1.102","w1qhombhg1kge2c",856,"91.csv","","null","resources/maskTrios/L1BB.jpg","null","",NA,NA,NA,NA,""
"image-keyboard-response",320,4201295,"0.0-4.102-2.102","w1qhombhg1kge2c",856,"91.csv","","null","resources/images/fishbone.png","null","",NA,NA,NA,NA,""
"image-keyboard-response",321,4202191,"0.0-4.103-0.103","w1qhombhg1kge2c",856,"91.csv","","895","resources/trios/L1T4A3.jpg","38","restless",0.3,0.6,0.5,0.817876344280586,"false"
"image-keyboard-response",322,4202596,"0.0-4.103-1.103","w1qhombhg1kge2c",856,"91.csv","","null","resources/maskTrios/BT4B.jpg","null","",NA,NA,NA,NA,""
"image-keyboard-response",323,4203801,"0.0-4.103-2.103","w1qhombhg1kge2c",856,"91.csv","","null","resources/images/fishbone.png","null","",NA,NA,NA,NA,""
"image-keyboard-response",324,4203929,"0.0-4.104-0.104","w1qhombhg1kge2c",856,"91.csv","","127","resources/trios/L1T4A3.jpg","39","restless",0.3,0.6,0.5,0.494436151620198,"true"
"image-keyboard-response",325,4204334,"0.0-4.104-1.104","w1qhombhg1kge2c",856,"91.csv","","null","resources/maskTrios/BBA3.jpg","null","",NA,NA,NA,NA,""
"image-keyboard-response",326,4205540,"0.0-4.104-2.104","w1qhombhg1kge2c",856,"91.csv","","null","resources/images/coin2.png","null","",NA,NA,NA,NA,""
"image-keyboard-response",327,4206159,"0.0-4.105-0.105","w1qhombhg1kge2c",856,"91.csv","","619","resources/trios/L1T4A3.jpg","38","restless",0.2,0.6,0.5,0.757546785346749,"false"
"image-keyboard-response",328,4206564,"0.0-4.105-1.105","w1qhombhg1kge2c",856,"91.csv","","null","resources/maskTrios/BT4B.jpg","null","",NA,NA,NA,NA,""
"image-keyboard-response",329,4207770,"0.0-4.105-2.105","w1qhombhg1kge2c",856,"91.csv","","null","resources/images/fishbone.png","null","",NA,NA,NA,NA,""
"image-keyboard-response",330,4208036,"0.0-4.106-0.106","w1qhombhg1kge2c",856,"91.csv","","264","resources/trios/L1T4A3.jpg","39","restless",0.2,0.6,0.5,0.40073543017464,"true"
"image-keyboard-response",331,4208441,"0.0-4.106-1.106","w1qhombhg1kge2c",856,"91.csv","","null","resources/maskTrios/BBA3.jpg","null","",NA,NA,NA,NA,""
"image-keyboard-response",332,4209647,"0.0-4.106-2.106","w1qhombhg1kge2c",856,"91.csv","","null","resources/images/coin2.png","null","",NA,NA,NA,NA,""
"image-keyboard-response",333,4209867,"0.0-4.107-0.107","w1qhombhg1kge2c",856,"91.csv","","220","resources/trios/L1T4A3.jpg","39","restless",0.2,0.6,0.5,0.0197096344103851,"true"
"image-keyboard-response",334,4210271,"0.0-4.107-1.107","w1qhombhg1kge2c",856,"91.csv","","null","resources/maskTrios/BBA3.jpg","null","",NA,NA,NA,NA,""
"image-keyboard-response",335,4211474,"0.0-4.107-2.107","w1qhombhg1kge2c",856,"91.csv","","null","resources/images/coin2.png","null","",NA,NA,NA,NA,""
"image-keyboard-response",336,4211648,"0.0-4.108-0.108","w1qhombhg1kge2c",856,"91.csv","","174","resources/trios/L1T4A3.jpg","39","restless",0.2,0.6,0.5,0.669355525766379,"false"
"image-keyboard-response",337,4212050,"0.0-4.108-1.108","w1qhombhg1kge2c",856,"91.csv","","null","resources/maskTrios/BBA3.jpg","null","",NA,NA,NA,NA,""
"image-keyboard-response",338,4213257,"0.0-4.108-2.108","w1qhombhg1kge2c",856,"91.csv","","null","resources/images/fishbone.png","null","",NA,NA,NA,NA,""
"image-keyboard-response",339,4213780,"0.0-4.109-0.109","w1qhombhg1kge2c",856,"91.csv","","523","resources/trios/L1T4A3.jpg","38","restless",0.2,0.6,0.5,0.267936235413653,"true"
"image-keyboard-response",340,4214186,"0.0-4.109-1.109","w1qhombhg1kge2c",856,"91.csv","","null","resources/maskTrios/BT4B.jpg","null","",NA,NA,NA,NA,""
"image-keyboard-response",341,4215392,"0.0-4.109-2.109","w1qhombhg1kge2c",856,"91.csv","","null","resources/images/coin2.png","null","",NA,NA,NA,NA,""
"image-keyboard-response",342,4216972,"0.0-4.110-0.110","w1qhombhg1kge2c",856,"91.csv","","1578","resources/trios/L1T4A3.jpg","38","restless",0.2,0.6,0.5,0.320898735315527,"true"
"image-keyboard-response",343,4217396,"0.0-4.110-1.110","w1qhombhg1kge2c",856,"91.csv","","null","resources/maskTrios/BT4B.jpg","null","",NA,NA,NA,NA,""
"image-keyboard-response",344,4218601,"0.0-4.110-2.110","w1qhombhg1kge2c",856,"91.csv","","null","resources/images/coin2.png","null","",NA,NA,NA,NA,""
"image-keyboard-response",345,4218936,"0.0-4.111-0.111","w1qhombhg1kge2c",856,"91.csv","","333","resources/trios/L1T4A3.jpg","38","restless",0.3,0.6,0.5,0.223342126133014,"true"
"image-keyboard-response",346,4219341,"0.0-4.111-1.111","w1qhombhg1kge2c",856,"91.csv","","null","resources/maskTrios/BT4B.jpg","null","",NA,NA,NA,NA,""
"image-keyboard-response",347,4220547,"0.0-4.111-2.111","w1qhombhg1kge2c",856,"91.csv","","null","resources/images/coin2.png","null","",NA,NA,NA,NA,""
"image-keyboard-response",348,4220837,"0.0-4.112-0.112","w1qhombhg1kge2c",856,"91.csv","","288","resources/trios/L1T4A3.jpg","38","restless",0.3,0.6,0.5,0.668188322602541,"false"
"image-keyboard-response",349,4221240,"0.0-4.112-1.112","w1qhombhg1kge2c",856,"91.csv","","null","resources/maskTrios/BT4B.jpg","null","",NA,NA,NA,NA,""
"image-keyboard-response",350,4222552,"0.0-4.112-2.112","w1qhombhg1kge2c",856,"91.csv","","null","resources/images/fishbone.png","null","",NA,NA,NA,NA,""
"image-keyboard-response",351,4222855,"0.0-4.113-0.113","w1qhombhg1kge2c",856,"91.csv","","302","resources/trios/L1T4A3.jpg","37","restless",0.3,0.6,0.5,0.100087213579109,"true"
"image-keyboard-response",352,4223262,"0.0-4.113-1.113","w1qhombhg1kge2c",856,"91.csv","","null","resources/maskTrios/L1BB.jpg","null","",NA,NA,NA,NA,""
"image-keyboard-response",353,4224562,"0.0-4.113-2.113","w1qhombhg1kge2c",856,"91.csv","","null","resources/images/coin2.png","null","",NA,NA,NA,NA,""
"image-keyboard-response",354,4224912,"0.0-4.114-0.114","w1qhombhg1kge2c",856,"91.csv","","348","resources/trios/L1T4A3.jpg","37","restless",0.3,0.6,0.5,0.0525927665288723,"true"
"image-keyboard-response",355,4225317,"0.0-4.114-1.114","w1qhombhg1kge2c",856,"91.csv","","null","resources/maskTrios/L1BB.jpg","null","",NA,NA,NA,NA,""
"image-keyboard-response",356,4226578,"0.0-4.114-2.114","w1qhombhg1kge2c",856,"91.csv","","null","resources/images/coin2.png","null","",NA,NA,NA,NA,""
"image-keyboard-response",357,4226816,"0.0-4.115-0.115","w1qhombhg1kge2c",856,"91.csv","","237","resources/trios/L1T4A3.jpg","37","restless",0.3,0.6,0.5,0.590245172341232,"false"
"image-keyboard-response",358,4227222,"0.0-4.115-1.115","w1qhombhg1kge2c",856,"91.csv","","null","resources/maskTrios/L1BB.jpg","null","",NA,NA,NA,NA,""
"image-keyboard-response",359,4228424,"0.0-4.115-2.115","w1qhombhg1kge2c",856,"91.csv","","null","resources/images/fishbone.png","null","",NA,NA,NA,NA,""
"image-keyboard-response",360,4229127,"0.0-4.116-0.116","w1qhombhg1kge2c",856,"91.csv","","702","resources/trios/L1T4A3.jpg","38","restless",0.2,0.6,0.5,0.217827953118938,"true"
"image-keyboard-response",361,4229533,"0.0-4.116-1.116","w1qhombhg1kge2c",856,"91.csv","","null","resources/maskTrios/BT4B.jpg","null","",NA,NA,NA,NA,""
"image-keyboard-response",362,4230738,"0.0-4.116-2.116","w1qhombhg1kge2c",856,"91.csv","","null","resources/images/coin2.png","null","",NA,NA,NA,NA,""
"image-keyboard-response",363,4231038,"0.0-4.117-0.117","w1qhombhg1kge2c",856,"91.csv","","299","resources/trios/L1T4A3.jpg","38","restless",0.2,0.6,0.5,0.223105321851275,"true"
"image-keyboard-response",364,4231443,"0.0-4.117-1.117","w1qhombhg1kge2c",856,"91.csv","","null","resources/maskTrios/BT4B.jpg","null","",NA,NA,NA,NA,""
"image-keyboard-response",365,4232647,"0.0-4.117-2.117","w1qhombhg1kge2c",856,"91.csv","","null","resources/images/coin2.png","null","",NA,NA,NA,NA,""
"image-keyboard-response",366,4232740,"0.0-4.118-0.118","w1qhombhg1kge2c",856,"91.csv","","90","resources/trios/L1T4A3.jpg","38","restless",0.2,0.6,0.5,0.311970514964411,"true"
"image-keyboard-response",367,4233187,"0.0-4.118-1.118","w1qhombhg1kge2c",856,"91.csv","","null","resources/maskTrios/BT4B.jpg","null","",NA,NA,NA,NA,""
"image-keyboard-response",368,4234392,"0.0-4.118-2.118","w1qhombhg1kge2c",856,"91.csv","","null","resources/images/coin2.png","null","",NA,NA,NA,NA,""
"image-keyboard-response",369,4234741,"0.0-4.119-0.119","w1qhombhg1kge2c",856,"91.csv","","348","resources/trios/L1T4A3.jpg","38","restless",0.3,0.6,0.5,0.76496722544565,"false"
"image-keyboard-response",370,4235148,"0.0-4.119-1.119","w1qhombhg1kge2c",856,"91.csv","","null","resources/maskTrios/BT4B.jpg","null","",NA,NA,NA,NA,""
"image-keyboard-response",371,4236349,"0.0-4.119-2.119","w1qhombhg1kge2c",856,"91.csv","","null","resources/images/fishbone.png","null","",NA,NA,NA,NA,""
"image-keyboard-response",372,4236603,"0.0-4.120-0.120","w1qhombhg1kge2c",856,"91.csv","","251","resources/trios/L1T4A3.jpg","37","restless",0.3,0.6,0.5,0.654980259079306,"false"
"image-keyboard-response",373,4237005,"0.0-4.120-1.120","w1qhombhg1kge2c",856,"91.csv","","null","resources/maskTrios/L1BB.jpg","null","",NA,NA,NA,NA,""
"image-keyboard-response",374,4238356,"0.0-4.120-2.120","w1qhombhg1kge2c",856,"91.csv","","null","resources/images/fishbone.png","null","",NA,NA,NA,NA,""
"image-keyboard-response",375,4238683,"0.0-4.121-0.121","w1qhombhg1kge2c",856,"91.csv","","327","resources/trios/L1T4A3.jpg","39","restless",0.3,0.6,0.5,0.782329475516897,"false"
"image-keyboard-response",376,4239085,"0.0-4.121-1.121","w1qhombhg1kge2c",856,"91.csv","","null","resources/maskTrios/BBA3.jpg","null","",NA,NA,NA,NA,""
"image-keyboard-response",377,4240365,"0.0-4.121-2.121","w1qhombhg1kge2c",856,"91.csv","","null","resources/images/fishbone.png","null","",NA,NA,NA,NA,""
"image-keyboard-response",378,4240559,"0.0-4.122-0.122","w1qhombhg1kge2c",856,"91.csv","","195","resources/trios/L1T4A3.jpg","38","restless",0.4,0.6,0.6,0.693193145903465,"false"
"image-keyboard-response",379,4240962,"0.0-4.122-1.122","w1qhombhg1kge2c",856,"91.csv","","null","resources/maskTrios/BT4B.jpg","null","",NA,NA,NA,NA,""
"image-keyboard-response",380,4242167,"0.0-4.122-2.122","w1qhombhg1kge2c",856,"91.csv","","null","resources/images/fishbone.png","null","",NA,NA,NA,NA,""
"image-keyboard-response",381,4242336,"0.0-4.123-0.123","w1qhombhg1kge2c",856,"91.csv","","169","resources/trios/L1T4A3.jpg","37","restless",0.4,0.6,0.6,0.239835425294754,"true"
"image-keyboard-response",382,4242738,"0.0-4.123-1.123","w1qhombhg1kge2c",856,"91.csv","","null","resources/maskTrios/L1BB.jpg","null","",NA,NA,NA,NA,""
"image-keyboard-response",383,4243943,"0.0-4.123-2.123","w1qhombhg1kge2c",856,"91.csv","","null","resources/images/coin2.png","null","",NA,NA,NA,NA,""
"image-keyboard-response",384,4244233,"0.0-4.124-0.124","w1qhombhg1kge2c",856,"91.csv","","289","resources/trios/L1T4A3.jpg","37","restless",0.4,0.6,0.6,0.563996655240182,"false"
"image-keyboard-response",385,4244636,"0.0-4.124-1.124","w1qhombhg1kge2c",856,"91.csv","","null","resources/maskTrios/L1BB.jpg","null","",NA,NA,NA,NA,""
"image-keyboard-response",386,4245842,"0.0-4.124-2.124","w1qhombhg1kge2c",856,"91.csv","","null","resources/images/fishbone.png","null","",NA,NA,NA,NA,""
"image-keyboard-response",387,4246158,"0.0-4.125-0.125","w1qhombhg1kge2c",856,"91.csv","","314","resources/trios/L1T4A3.jpg","38","restless",0.4,0.6,0.6,0.507850793316275,"true"
"image-keyboard-response",388,4246563,"0.0-4.125-1.125","w1qhombhg1kge2c",856,"91.csv","","null","resources/maskTrios/BT4B.jpg","null","",NA,NA,NA,NA,""
"image-keyboard-response",389,4247847,"0.0-4.125-2.125","w1qhombhg1kge2c",856,"91.csv","","null","resources/images/coin2.png","null","",NA,NA,NA,NA,""
"image-keyboard-response",390,4248185,"0.0-4.126-0.126","w1qhombhg1kge2c",856,"91.csv","","338","resources/trios/L1T4A3.jpg","38","restless",0.4,0.6,0.6,0.674964296905229,"false"
"image-keyboard-response",391,4248588,"0.0-4.126-1.126","w1qhombhg1kge2c",856,"91.csv","","null","resources/maskTrios/BT4B.jpg","null","",NA,NA,NA,NA,""
"image-keyboard-response",392,4249866,"0.0-4.126-2.126","w1qhombhg1kge2c",856,"91.csv","","null","resources/images/fishbone.png","null","",NA,NA,NA,NA,""
"image-keyboard-response",393,4250104,"0.0-4.127-0.127","w1qhombhg1kge2c",856,"91.csv","","237","resources/trios/L1T4A3.jpg","39","restless",0.4,0.6,0.6,0.936110574568793,"false"
"image-keyboard-response",394,4250508,"0.0-4.127-1.127","w1qhombhg1kge2c",856,"91.csv","","null","resources/maskTrios/BBA3.jpg","null","",NA,NA,NA,NA,""
"image-keyboard-response",395,4251714,"0.0-4.127-2.127","w1qhombhg1kge2c",856,"91.csv","","null","resources/images/fishbone.png","null","",NA,NA,NA,NA,""
"image-keyboard-response",396,4252022,"0.0-4.128-0.128","w1qhombhg1kge2c",856,"91.csv","","306","resources/trios/L1T4A3.jpg","37","restless",0.4,0.6,0.6,0.554659567832795,"false"
"image-keyboard-response",397,4252423,"0.0-4.128-1.128","w1qhombhg1kge2c",856,"91.csv","","null","resources/maskTrios/L1BB.jpg","null","",NA,NA,NA,NA,""
"image-keyboard-response",398,4253629,"0.0-4.128-2.128","w1qhombhg1kge2c",856,"91.csv","","null","resources/images/fishbone.png","null","",NA,NA,NA,NA,""
"image-keyboard-response",399,4253837,"0.0-4.129-0.129","w1qhombhg1kge2c",856,"91.csv","","206","resources/trios/L1T4A3.jpg","38","restless",0.4,0.6,0.6,0.721740274418271,"false"
"image-keyboard-response",400,4254243,"0.0-4.129-1.129","w1qhombhg1kge2c",856,"91.csv","","null","resources/maskTrios/BT4B.jpg","null","",NA,NA,NA,NA,""
"image-keyboard-response",401,4255446,"0.0-4.129-2.129","w1qhombhg1kge2c",856,"91.csv","","null","resources/images/fishbone.png","null","",NA,NA,NA,NA,""
"image-keyboard-response",402,4255669,"0.0-4.130-0.130","w1qhombhg1kge2c",856,"91.csv","","222","resources/trios/L1T4A3.jpg","38","restless",0.4,0.6,0.6,0.593695159192425,"true"
"image-keyboard-response",403,4256076,"0.0-4.130-1.130","w1qhombhg1kge2c",856,"91.csv","","null","resources/maskTrios/BT4B.jpg","null","",NA,NA,NA,NA,""
"image-keyboard-response",404,4257281,"0.0-4.130-2.130","w1qhombhg1kge2c",856,"91.csv","","null","resources/images/coin2.png","null","",NA,NA,NA,NA,""
"image-keyboard-response",405,4257530,"0.0-4.131-0.131","w1qhombhg1kge2c",856,"91.csv","","247","resources/trios/L1T4A3.jpg","38","restless",0.4,0.6,0.6,0.769724917940289,"false"
"image-keyboard-response",406,4257935,"0.0-4.131-1.131","w1qhombhg1kge2c",856,"91.csv","","null","resources/maskTrios/BT4B.jpg","null","",NA,NA,NA,NA,""
"image-keyboard-response",407,4259286,"0.0-4.131-2.131","w1qhombhg1kge2c",856,"91.csv","","null","resources/images/fishbone.png","null","",NA,NA,NA,NA,""
"image-keyboard-response",408,4260045,"0.0-4.132-0.132","w1qhombhg1kge2c",856,"91.csv","","757","resources/trios/L1T4A3.jpg","39","restless",0.4,0.6,0.6,0.919766562539764,"false"
"image-keyboard-response",409,4260451,"0.0-4.132-1.132","w1qhombhg1kge2c",856,"91.csv","","null","resources/maskTrios/BBA3.jpg","null","",NA,NA,NA,NA,""
"image-keyboard-response",410,4261655,"0.0-4.132-2.132","w1qhombhg1kge2c",856,"91.csv","","null","resources/images/fishbone.png","null","",NA,NA,NA,NA,""
"image-keyboard-response",411,4262336,"0.0-4.133-0.133","w1qhombhg1kge2c",856,"91.csv","","680","resources/trios/L1T4A3.jpg","39","restless",0.4,0.6,0.5,0.231959626521249,"true"
"image-keyboard-response",412,4262742,"0.0-4.133-1.133","w1qhombhg1kge2c",856,"91.csv","","null","resources/maskTrios/BBA3.jpg","null","",NA,NA,NA,NA,""
"image-keyboard-response",413,4263948,"0.0-4.133-2.133","w1qhombhg1kge2c",856,"91.csv","","null","resources/images/coin2.png","null","",NA,NA,NA,NA,""
"image-keyboard-response",414,4264361,"0.0-4.134-0.134","w1qhombhg1kge2c",856,"91.csv","","412","resources/trios/L1T4A3.jpg","38","restless",0.4,0.6,0.5,0.491004689754225,"true"
"image-keyboard-response",415,4264768,"0.0-4.134-1.134","w1qhombhg1kge2c",856,"91.csv","","null","resources/maskTrios/BT4B.jpg","null","",NA,NA,NA,NA,""
"image-keyboard-response",416,4265973,"0.0-4.134-2.134","w1qhombhg1kge2c",856,"91.csv","","null","resources/images/coin2.png","null","",NA,NA,NA,NA,""
"image-keyboard-response",417,4266081,"0.0-4.135-0.135","w1qhombhg1kge2c",856,"91.csv","","106","resources/trios/L1T4A3.jpg","37","restless",0.4,0.6,0.5,0.338883901823323,"true"
"image-keyboard-response",418,4266486,"0.0-4.135-1.135","w1qhombhg1kge2c",856,"91.csv","","null","resources/maskTrios/L1BB.jpg","null","",NA,NA,NA,NA,""
"image-keyboard-response",419,4267688,"0.0-4.135-2.135","w1qhombhg1kge2c",856,"91.csv","","null","resources/images/coin2.png","null","",NA,NA,NA,NA,""
"image-keyboard-response",420,4267815,"0.0-4.136-0.136","w1qhombhg1kge2c",856,"91.csv","","125","resources/trios/L1T4A3.jpg","39","restless",0.4,0.6,0.5,0.948350661493325,"false"
"image-keyboard-response",421,4268219,"0.0-4.136-1.136","w1qhombhg1kge2c",856,"91.csv","","null","resources/maskTrios/BBA3.jpg","null","",NA,NA,NA,NA,""
"image-keyboard-response",422,4269421,"0.0-4.136-2.136","w1qhombhg1kge2c",856,"91.csv","","null","resources/images/fishbone.png","null","",NA,NA,NA,NA,""
"image-keyboard-response",423,4269766,"0.0-4.137-0.137","w1qhombhg1kge2c",856,"91.csv","","342","resources/trios/L1T4A3.jpg","38","restless",0.4,0.6,0.5,0.485097889861586,"true"
"image-keyboard-response",424,4270171,"0.0-4.137-1.137","w1qhombhg1kge2c",856,"91.csv","","null","resources/maskTrios/BT4B.jpg","null","",NA,NA,NA,NA,""
"image-keyboard-response",425,4271376,"0.0-4.137-2.137","w1qhombhg1kge2c",856,"91.csv","","null","resources/images/coin2.png","null","",NA,NA,NA,NA,""
"image-keyboard-response",426,4271403,"0.0-4.138-0.138","w1qhombhg1kge2c",856,"91.csv","","27","resources/trios/L1T4A3.jpg","39","restless",0.4,0.7,0.5,0.260652627343608,"true"
"image-keyboard-response",427,4271810,"0.0-4.138-1.138","w1qhombhg1kge2c",856,"91.csv","","null","resources/maskTrios/BBA3.jpg","null","",NA,NA,NA,NA,""
"image-keyboard-response",428,4273013,"0.0-4.138-2.138","w1qhombhg1kge2c",856,"91.csv","","null","resources/images/coin2.png","null","",NA,NA,NA,NA,""
"image-keyboard-response",429,4273384,"0.0-4.139-0.139","w1qhombhg1kge2c",856,"91.csv","","368","resources/trios/L1T4A3.jpg","38","restless",0.4,0.7,0.5,0.172025012124849,"true"
"image-keyboard-response",430,4273790,"0.0-4.139-1.139","w1qhombhg1kge2c",856,"91.csv","","null","resources/maskTrios/BT4B.jpg","null","",NA,NA,NA,NA,""
"image-keyboard-response",431,4274993,"0.0-4.139-2.139","w1qhombhg1kge2c",856,"91.csv","","null","resources/images/coin2.png","null","",NA,NA,NA,NA,""
"image-keyboard-response",432,4275258,"0.0-4.140-0.140","w1qhombhg1kge2c",856,"91.csv","","263","resources/trios/L1T4A3.jpg","37","restless",0.4,0.7,0.5,0.664437951133753,"false"
"image-keyboard-response",433,4275660,"0.0-4.140-1.140","w1qhombhg1kge2c",856,"91.csv","","null","resources/maskTrios/L1BB.jpg","null","",NA,NA,NA,NA,""
"image-keyboard-response",434,4276864,"0.0-4.140-2.140","w1qhombhg1kge2c",856,"91.csv","","null","resources/images/fishbone.png","null","",NA,NA,NA,NA,""
"image-keyboard-response",435,4278166,"0.0-4.141-0.141","w1qhombhg1kge2c",856,"91.csv","","1301","resources/trios/L1T4A3.jpg","39","restless",0.4,0.7,0.5,0.658284251479156,"false"
"image-keyboard-response",436,4278571,"0.0-4.141-1.141","w1qhombhg1kge2c",856,"91.csv","","null","resources/maskTrios/BBA3.jpg","null","",NA,NA,NA,NA,""
"image-keyboard-response",437,4279776,"0.0-4.141-2.141","w1qhombhg1kge2c",856,"91.csv","","null","resources/images/fishbone.png","null","",NA,NA,NA,NA,""
"image-keyboard-response",438,4280337,"0.0-4.142-0.142","w1qhombhg1kge2c",856,"91.csv","","560","resources/trios/L1T4A3.jpg","38","restless",0.4,0.7,0.5,0.967110639996254,"false"
"image-keyboard-response",439,4280743,"0.0-4.142-1.142","w1qhombhg1kge2c",856,"91.csv","","null","resources/maskTrios/BT4B.jpg","null","",NA,NA,NA,NA,""
"image-keyboard-response",440,4281949,"0.0-4.142-2.142","w1qhombhg1kge2c",856,"91.csv","","null","resources/images/fishbone.png","null","",NA,NA,NA,NA,""
"image-keyboard-response",441,4282430,"0.0-4.143-0.143","w1qhombhg1kge2c",856,"91.csv","","479","resources/trios/L1T4A3.jpg","38","restless",0.4,0.7,0.5,0.124178104027437,"true"
"image-keyboard-response",442,4282848,"0.0-4.143-1.143","w1qhombhg1kge2c",856,"91.csv","","null","resources/maskTrios/BT4B.jpg","null","",NA,NA,NA,NA,""
"image-keyboard-response",443,4284053,"0.0-4.143-2.143","w1qhombhg1kge2c",856,"91.csv","","null","resources/images/coin2.png","null","",NA,NA,NA,NA,""
"image-keyboard-response",444,4284452,"0.0-4.144-0.144","w1qhombhg1kge2c",856,"91.csv","","397","resources/trios/L1T4A3.jpg","39","restless",0.4,0.7,0.5,0.936706754740921,"false"
"image-keyboard-response",445,4284859,"0.0-4.144-1.144","w1qhombhg1kge2c",856,"91.csv","","null","resources/maskTrios/BBA3.jpg","null","",NA,NA,NA,NA,""
"image-keyboard-response",446,4286064,"0.0-4.144-2.144","w1qhombhg1kge2c",856,"91.csv","","null","resources/images/fishbone.png","null","",NA,NA,NA,NA,""
"image-keyboard-response",447,4288210,"0.0-4.145-0.145","w1qhombhg1kge2c",856,"91.csv","","2145","resources/trios/L1T4A3.jpg","39","restless",0.4,0.7,0.5,0.136782804690759,"true"
"image-keyboard-response",448,4288613,"0.0-4.145-1.145","w1qhombhg1kge2c",856,"91.csv","","null","resources/maskTrios/BBA3.jpg","null","",NA,NA,NA,NA,""
"image-keyboard-response",449,4289819,"0.0-4.145-2.145","w1qhombhg1kge2c",856,"91.csv","","null","resources/images/coin2.png","null","",NA,NA,NA,NA,""
"image-keyboard-response",450,4291352,"0.0-4.146-0.146","w1qhombhg1kge2c",856,"91.csv","","1531","resources/trios/L1T4A3.jpg","38","restless",0.4,0.7,0.5,0.86948588914705,"false"
"image-keyboard-response",451,4291754,"0.0-4.146-1.146","w1qhombhg1kge2c",856,"91.csv","","null","resources/maskTrios/BT4B.jpg","null","",NA,NA,NA,NA,""
"image-keyboard-response",452,4292961,"0.0-4.146-2.146","w1qhombhg1kge2c",856,"91.csv","","null","resources/images/fishbone.png","null","",NA,NA,NA,NA,""
"image-keyboard-response",453,4293370,"0.0-4.147-0.147","w1qhombhg1kge2c",856,"91.csv","","408","resources/trios/L1T4A3.jpg","37","restless",0.4,0.7,0.5,0.863110100578911,"false"
"image-keyboard-response",454,4293773,"0.0-4.147-1.147","w1qhombhg1kge2c",856,"91.csv","","null","resources/maskTrios/L1BB.jpg","null","",NA,NA,NA,NA,""
"image-keyboard-response",455,4294977,"0.0-4.147-2.147","w1qhombhg1kge2c",856,"91.csv","","null","resources/images/fishbone.png","null","",NA,NA,NA,NA,""
"image-keyboard-response",456,4296274,"0.0-4.148-0.148","w1qhombhg1kge2c",856,"91.csv","","1297","resources/trios/L1T4A3.jpg","38","restless",0.4,0.7,0.6,0.810257803550387,"false"
"image-keyboard-response",457,4296681,"0.0-4.148-1.148","w1qhombhg1kge2c",856,"91.csv","","null","resources/maskTrios/BT4B.jpg","null","",NA,NA,NA,NA,""
"image-keyboard-response",458,4297888,"0.0-4.148-2.148","w1qhombhg1kge2c",856,"91.csv","","null","resources/images/fishbone.png","null","",NA,NA,NA,NA,""
"image-keyboard-response",459,4297924,"0.0-4.149-0.149","w1qhombhg1kge2c",856,"91.csv","","36","resources/trios/L1T4A3.jpg","39","restless",0.4,0.7,0.6,0.680919775128614,"false"
"image-keyboard-response",460,4298330,"0.0-4.149-1.149","w1qhombhg1kge2c",856,"91.csv","","null","resources/maskTrios/BBA3.jpg","null","",NA,NA,NA,NA,""
"image-keyboard-response",461,4299536,"0.0-4.149-2.149","w1qhombhg1kge2c",856,"91.csv","","null","resources/images/fishbone.png","null","",NA,NA,NA,NA,""
"image-keyboard-response",462,4299823,"0.0-4.150-0.150","w1qhombhg1kge2c",856,"91.csv","","285","resources/trios/L1T4A3.jpg","39","restless",0.4,0.7,0.6,0.611671378351731,"false"
"image-keyboard-response",463,4300229,"0.0-4.150-1.150","w1qhombhg1kge2c",856,"91.csv","","null","resources/maskTrios/BBA3.jpg","null","",NA,NA,NA,NA,""
"image-keyboard-response",464,4301433,"0.0-4.150-2.150","w1qhombhg1kge2c",856,"91.csv","","null","resources/images/fishbone.png","null","",NA,NA,NA,NA,""
"image-keyboard-response",465,4301678,"0.0-4.151-0.151","w1qhombhg1kge2c",856,"91.csv","","243","resources/trios/L1T4A3.jpg","37","restless",0.4,0.6,0.6,0.248400531904811,"true"
"image-keyboard-response",466,4302084,"0.0-4.151-1.151","w1qhombhg1kge2c",856,"91.csv","","null","resources/maskTrios/L1BB.jpg","null","",NA,NA,NA,NA,""
"image-keyboard-response",467,4303439,"0.0-4.151-2.151","w1qhombhg1kge2c",856,"91.csv","","null","resources/images/coin2.png","null","",NA,NA,NA,NA,""
"image-keyboard-response",468,4303727,"0.0-4.152-0.152","w1qhombhg1kge2c",856,"91.csv","","288","resources/trios/L1T4A3.jpg","37","restless",0.4,0.6,0.6,0.769648756705335,"false"
"image-keyboard-response",469,4304133,"0.0-4.152-1.152","w1qhombhg1kge2c",856,"91.csv","","null","resources/maskTrios/L1BB.jpg","null","",NA,NA,NA,NA,""
"image-keyboard-response",470,4305448,"0.0-4.152-2.152","w1qhombhg1kge2c",856,"91.csv","","null","resources/images/fishbone.png","null","",NA,NA,NA,NA,""
"image-keyboard-response",471,4305734,"0.0-4.153-0.153","w1qhombhg1kge2c",856,"91.csv","","284","resources/trios/L1T4A3.jpg","38","restless",0.4,0.7,0.6,0.705287192675891,"false"
"image-keyboard-response",472,4306141,"0.0-4.153-1.153","w1qhombhg1kge2c",856,"91.csv","","null","resources/maskTrios/BT4B.jpg","null","",NA,NA,NA,NA,""
"image-keyboard-response",473,4307461,"0.0-4.153-2.153","w1qhombhg1kge2c",856,"91.csv","","null","resources/images/fishbone.png","null","",NA,NA,NA,NA,""
"image-keyboard-response",474,4308102,"0.0-4.154-0.154","w1qhombhg1kge2c",856,"91.csv","","640","resources/trios/L1T4A3.jpg","39","restless",0.4,0.7,0.6,0.089178590425695,"true"
"image-keyboard-response",475,4308505,"0.0-4.154-1.154","w1qhombhg1kge2c",856,"91.csv","","null","resources/maskTrios/BBA3.jpg","null","",NA,NA,NA,NA,""
"image-keyboard-response",476,4309711,"0.0-4.154-2.154","w1qhombhg1kge2c",856,"91.csv","","null","resources/images/coin2.png","null","",NA,NA,NA,NA,""
"image-keyboard-response",477,4310194,"0.0-4.155-0.155","w1qhombhg1kge2c",856,"91.csv","","482","resources/trios/L1T4A3.jpg","39","restless",0.4,0.7,0.6,0.0432248351792381,"true"
"image-keyboard-response",478,4310600,"0.0-4.155-1.155","w1qhombhg1kge2c",856,"91.csv","","null","resources/maskTrios/BBA3.jpg","null","",NA,NA,NA,NA,""
"image-keyboard-response",479,4311806,"0.0-4.155-2.155","w1qhombhg1kge2c",856,"91.csv","","null","resources/images/coin2.png","null","",NA,NA,NA,NA,""
"image-keyboard-response",480,4313985,"0.0-4.156-0.156","w1qhombhg1kge2c",856,"91.csv","","2178","resources/trios/L1T4A3.jpg","39","restless",0.4,0.6,0.6,0.398820417711876,"true"
"image-keyboard-response",481,4314390,"0.0-4.156-1.156","w1qhombhg1kge2c",856,"91.csv","","null","resources/maskTrios/BBA3.jpg","null","",NA,NA,NA,NA,""
"image-keyboard-response",482,4315593,"0.0-4.156-2.156","w1qhombhg1kge2c",856,"91.csv","","null","resources/images/coin2.png","null","",NA,NA,NA,NA,""
"image-keyboard-response",483,4315852,"0.0-4.157-0.157","w1qhombhg1kge2c",856,"91.csv","","258","resources/trios/L1T4A3.jpg","39","restless",0.4,0.5,0.6,0.410652156659195,"true"
"image-keyboard-response",484,4316258,"0.0-4.157-1.157","w1qhombhg1kge2c",856,"91.csv","","null","resources/maskTrios/BBA3.jpg","null","",NA,NA,NA,NA,""
"image-keyboard-response",485,4317465,"0.0-4.157-2.157","w1qhombhg1kge2c",856,"91.csv","","null","resources/images/coin2.png","null","",NA,NA,NA,NA,""
"image-keyboard-response",486,4318273,"0.0-4.158-0.158","w1qhombhg1kge2c",856,"91.csv","","808","resources/trios/L1T4A3.jpg","39","restless",0.4,0.5,0.6,0.292507080903867,"true"
"image-keyboard-response",487,4318680,"0.0-4.158-1.158","w1qhombhg1kge2c",856,"91.csv","","null","resources/maskTrios/BBA3.jpg","null","",NA,NA,NA,NA,""
"image-keyboard-response",488,4319885,"0.0-4.158-2.158","w1qhombhg1kge2c",856,"91.csv","","null","resources/images/coin2.png","null","",NA,NA,NA,NA,""
"image-keyboard-response",489,4320140,"0.0-4.159-0.159","w1qhombhg1kge2c",856,"91.csv","","253","resources/trios/L1T4A3.jpg","39","restless",0.5,0.5,0.7,0.375378762854334,"true"
"image-keyboard-response",490,4320547,"0.0-4.159-1.159","w1qhombhg1kge2c",856,"91.csv","","null","resources/maskTrios/BBA3.jpg","null","",NA,NA,NA,NA,""
"image-keyboard-response",491,4321748,"0.0-4.159-2.159","w1qhombhg1kge2c",856,"91.csv","","null","resources/images/coin2.png","null","",NA,NA,NA,NA,""
"image-keyboard-response",492,4321878,"0.0-4.160-0.160","w1qhombhg1kge2c",856,"91.csv","","129","resources/trios/L1T4A3.jpg","39","restless",0.5,0.5,0.8,0.628938548198663,"true"
"image-keyboard-response",493,4322302,"0.0-4.160-1.160","w1qhombhg1kge2c",856,"91.csv","","null","resources/maskTrios/BBA3.jpg","null","",NA,NA,NA,NA,""
"image-keyboard-response",494,4323554,"0.0-4.160-2.160","w1qhombhg1kge2c",856,"91.csv","","null","resources/images/coin2.png","null","",NA,NA,NA,NA,""
"image-keyboard-response",495,4323559,"0.0-4.161-0.161","w1qhombhg1kge2c",856,"91.csv","","3","resources/trios/L1T4A3.jpg","39","restless",0.5,0.5,0.8,0.975741760087486,"false"
"image-keyboard-response",496,4323965,"0.0-4.161-1.161","w1qhombhg1kge2c",856,"91.csv","","null","resources/maskTrios/BBA3.jpg","null","",NA,NA,NA,NA,""
"image-keyboard-response",497,4325171,"0.0-4.161-2.161","w1qhombhg1kge2c",856,"91.csv","","null","resources/images/fishbone.png","null","",NA,NA,NA,NA,""
"image-keyboard-response",498,4325265,"0.0-4.162-0.162","w1qhombhg1kge2c",856,"91.csv","","93","resources/trios/L1T4A3.jpg","38","restless",0.5,0.5,0.8,0.10395690502958,"true"
"image-keyboard-response",499,4325667,"0.0-4.162-1.162","w1qhombhg1kge2c",856,"91.csv","","null","resources/maskTrios/BT4B.jpg","null","",NA,NA,NA,NA,""
"image-keyboard-response",500,4326873,"0.0-4.162-2.162","w1qhombhg1kge2c",856,"91.csv","","null","resources/images/coin2.png","null","",NA,NA,NA,NA,""
"image-keyboard-response",501,4327118,"0.0-4.163-0.163","w1qhombhg1kge2c",856,"91.csv","","244","resources/trios/L1T4A3.jpg","38","restless",0.5,0.5,0.8,0.314228122586954,"true"
"image-keyboard-response",502,4327521,"0.0-4.163-1.163","w1qhombhg1kge2c",856,"91.csv","","null","resources/maskTrios/BT4B.jpg","null","",NA,NA,NA,NA,""
"image-keyboard-response",503,4328727,"0.0-4.163-2.163","w1qhombhg1kge2c",856,"91.csv","","null","resources/images/coin2.png","null","",NA,NA,NA,NA,""
"image-keyboard-response",504,4328821,"0.0-4.164-0.164","w1qhombhg1kge2c",856,"91.csv","","94","resources/trios/L1T4A3.jpg","38","restless",0.5,0.5,0.8,0.436549707900205,"true"
"image-keyboard-response",505,4329222,"0.0-4.164-1.164","w1qhombhg1kge2c",856,"91.csv","","null","resources/maskTrios/BT4B.jpg","null","",NA,NA,NA,NA,""
"image-keyboard-response",506,4330426,"0.0-4.164-2.164","w1qhombhg1kge2c",856,"91.csv","","null","resources/images/coin2.png","null","",NA,NA,NA,NA,""
"image-keyboard-response",507,4330802,"0.0-4.165-0.165","w1qhombhg1kge2c",856,"91.csv","","374","resources/trios/L1T4A3.jpg","38","restless",0.5,0.5,0.8,0.356388156953615,"true"
"image-keyboard-response",508,4331225,"0.0-4.165-1.165","w1qhombhg1kge2c",856,"91.csv","","null","resources/maskTrios/BT4B.jpg","null","",NA,NA,NA,NA,""
"image-keyboard-response",509,4332429,"0.0-4.165-2.165","w1qhombhg1kge2c",856,"91.csv","","null","resources/images/coin2.png","null","",NA,NA,NA,NA,""
"image-keyboard-response",510,4334142,"0.0-4.166-0.166","w1qhombhg1kge2c",856,"91.csv","","1711","resources/trios/L1T4A3.jpg","38","restless",0.5,0.5,0.8,0.83762260918577,"false"
"image-keyboard-response",511,4334548,"0.0-4.166-1.166","w1qhombhg1kge2c",856,"91.csv","","null","resources/maskTrios/BT4B.jpg","null","",NA,NA,NA,NA,""
"image-keyboard-response",512,4335751,"0.0-4.166-2.166","w1qhombhg1kge2c",856,"91.csv","","null","resources/images/fishbone.png","null","",NA,NA,NA,NA,""
"image-keyboard-response",513,4336505,"0.0-4.167-0.167","w1qhombhg1kge2c",856,"91.csv","","753","resources/trios/L1T4A3.jpg","37","restless",0.5,0.5,0.8,0.163981858172856,"true"
"image-keyboard-response",514,4336910,"0.0-4.167-1.167","w1qhombhg1kge2c",856,"91.csv","","null","resources/maskTrios/L1BB.jpg","null","",NA,NA,NA,NA,""
"image-keyboard-response",515,4338228,"0.0-4.167-2.167","w1qhombhg1kge2c",856,"91.csv","","null","resources/images/coin2.png","null","",NA,NA,NA,NA,""
"image-keyboard-response",516,4338590,"0.0-4.168-0.168","w1qhombhg1kge2c",856,"91.csv","","362","resources/trios/L1T4A3.jpg","37","restless",0.5,0.5,0.8,0.0153468513596012,"true"
"image-keyboard-response",517,4338997,"0.0-4.168-1.168","w1qhombhg1kge2c",856,"91.csv","","null","resources/maskTrios/L1BB.jpg","null","",NA,NA,NA,NA,""
"image-keyboard-response",518,4340249,"0.0-4.168-2.168","w1qhombhg1kge2c",856,"91.csv","","null","resources/images/coin2.png","null","",NA,NA,NA,NA,""
"image-keyboard-response",519,4340347,"0.0-4.169-0.169","w1qhombhg1kge2c",856,"91.csv","","96","resources/trios/L1T4A3.jpg","37","restless",0.5,0.5,0.9,0.157302513249123,"true"
"image-keyboard-response",520,4340752,"0.0-4.169-1.169","w1qhombhg1kge2c",856,"91.csv","","null","resources/maskTrios/L1BB.jpg","null","",NA,NA,NA,NA,""
"image-keyboard-response",521,4341955,"0.0-4.169-2.169","w1qhombhg1kge2c",856,"91.csv","","null","resources/images/coin2.png","null","",NA,NA,NA,NA,""
"image-keyboard-response",522,4344733,"0.0-4.170-0.170","w1qhombhg1kge2c",856,"91.csv","","2778","resources/trios/L1T4A3.jpg","37","restless",0.5,0.5,0.9,0.757109907230579,"false"
"image-keyboard-response",523,4345140,"0.0-4.170-1.170","w1qhombhg1kge2c",856,"91.csv","","null","resources/maskTrios/L1BB.jpg","null","",NA,NA,NA,NA,""
"image-keyboard-response",524,4346345,"0.0-4.170-2.170","w1qhombhg1kge2c",856,"91.csv","","null","resources/images/fishbone.png","null","",NA,NA,NA,NA,""
"image-keyboard-response",525,4346678,"0.0-4.171-0.171","w1qhombhg1kge2c",856,"91.csv","","331","resources/trios/L1T4A3.jpg","38","restless",0.5,0.5,0.9,0.507473702391676,"false"
"image-keyboard-response",526,4347083,"0.0-4.171-1.171","w1qhombhg1kge2c",856,"91.csv","","null","resources/maskTrios/BT4B.jpg","null","",NA,NA,NA,NA,""
"image-keyboard-response",527,4348289,"0.0-4.171-2.171","w1qhombhg1kge2c",856,"91.csv","","null","resources/images/fishbone.png","null","",NA,NA,NA,NA,""
"image-keyboard-response",528,4348330,"0.0-4.172-0.172","w1qhombhg1kge2c",856,"91.csv","","41","resources/trios/L1T4A3.jpg","39","restless",0.5,0.4,0.9,0.521624380719979,"true"
"image-keyboard-response",529,4348732,"0.0-4.172-1.172","w1qhombhg1kge2c",856,"91.csv","","null","resources/maskTrios/BBA3.jpg","null","",NA,NA,NA,NA,""
"image-keyboard-response",530,4349936,"0.0-4.172-2.172","w1qhombhg1kge2c",856,"91.csv","","null","resources/images/coin2.png","null","",NA,NA,NA,NA,""
"image-keyboard-response",531,4350303,"0.0-4.173-0.173","w1qhombhg1kge2c",856,"91.csv","","366","resources/trios/L1T4A3.jpg","39","restless",0.5,0.4,0.9,0.814522183916214,"true"
"image-keyboard-response",532,4350706,"0.0-4.173-1.173","w1qhombhg1kge2c",856,"91.csv","","null","resources/maskTrios/BBA3.jpg","null","",NA,NA,NA,NA,""
"image-keyboard-response",533,4351911,"0.0-4.173-2.173","w1qhombhg1kge2c",856,"91.csv","","null","resources/images/coin2.png","null","",NA,NA,NA,NA,""
"image-keyboard-response",534,4352394,"0.0-4.174-0.174","w1qhombhg1kge2c",856,"91.csv","","482","resources/trios/L1T4A3.jpg","39","restless",0.5,0.4,0.9,0.494619304099346,"true"
"image-keyboard-response",535,4352801,"0.0-4.174-1.174","w1qhombhg1kge2c",856,"91.csv","","null","resources/maskTrios/BBA3.jpg","null","",NA,NA,NA,NA,""
"image-keyboard-response",536,4354060,"0.0-4.174-2.174","w1qhombhg1kge2c",856,"91.csv","","null","resources/images/coin2.png","null","",NA,NA,NA,NA,""
"image-keyboard-response",537,4356239,"0.0-4.175-0.175","w1qhombhg1kge2c",856,"91.csv","","2178","resources/trios/L1T4A3.jpg","39","restless",0.5,0.4,0.9,0.0547614135845657,"true"
"image-keyboard-response",538,4356646,"0.0-4.175-1.175","w1qhombhg1kge2c",856,"91.csv","","null","resources/maskTrios/BBA3.jpg","null","",NA,NA,NA,NA,""
"image-keyboard-response",539,4357848,"0.0-4.175-2.175","w1qhombhg1kge2c",856,"91.csv","","null","resources/images/coin2.png","null","",NA,NA,NA,NA,""
"image-keyboard-response",540,4358134,"0.0-4.176-0.176","w1qhombhg1kge2c",856,"91.csv","","284","resources/trios/L1T4A3.jpg","39","restless",0.5,0.4,0.9,0.427072203058226,"true"
"image-keyboard-response",541,4358540,"0.0-4.176-1.176","w1qhombhg1kge2c",856,"91.csv","","null","resources/maskTrios/BBA3.jpg","null","",NA,NA,NA,NA,""
"image-keyboard-response",542,4359745,"0.0-4.176-2.176","w1qhombhg1kge2c",856,"91.csv","","null","resources/images/coin2.png","null","",NA,NA,NA,NA,""
"image-keyboard-response",543,4359819,"0.0-4.177-0.177","w1qhombhg1kge2c",856,"91.csv","","72","resources/trios/L1T4A3.jpg","39","restless",0.5,0.4,0.9,0.503915252306314,"true"
"image-keyboard-response",544,4360225,"0.0-4.177-1.177","w1qhombhg1kge2c",856,"91.csv","","null","resources/maskTrios/BBA3.jpg","null","",NA,NA,NA,NA,""
"image-keyboard-response",545,4361431,"0.0-4.177-2.177","w1qhombhg1kge2c",856,"91.csv","","null","resources/images/coin2.png","null","",NA,NA,NA,NA,""
"image-keyboard-response",546,4361782,"0.0-4.178-0.178","w1qhombhg1kge2c",856,"91.csv","","350","resources/trios/L1T4A3.jpg","39","restless",0.5,0.4,0.9,0.530217509300377,"true"
"image-keyboard-response",547,4362189,"0.0-4.178-1.178","w1qhombhg1kge2c",856,"91.csv","","null","resources/maskTrios/BBA3.jpg","null","",NA,NA,NA,NA,""
"image-keyboard-response",548,4363436,"0.0-4.178-2.178","w1qhombhg1kge2c",856,"91.csv","","null","resources/images/coin2.png","null","",NA,NA,NA,NA,""
"image-keyboard-response",549,4364434,"0.0-4.179-0.179","w1qhombhg1kge2c",856,"91.csv","","996","resources/trios/L1T4A3.jpg","39","restless",0.5,0.4,0.9,0.101949856269186,"true"
"image-keyboard-response",550,4364841,"0.0-4.179-1.179","w1qhombhg1kge2c",856,"91.csv","","null","resources/maskTrios/BBA3.jpg","null","",NA,NA,NA,NA,""
"image-keyboard-response",551,4366047,"0.0-4.179-2.179","w1qhombhg1kge2c",856,"91.csv","","null","resources/images/coin2.png","null","",NA,NA,NA,NA,""
"image-keyboard-response",552,4366152,"0.0-4.180-0.180","w1qhombhg1kge2c",856,"91.csv","","104","resources/trios/L1T4A3.jpg","39","restless",0.5,0.4,0.9,0.450831916379775,"true"
"image-keyboard-response",553,4366557,"0.0-4.180-1.180","w1qhombhg1kge2c",856,"91.csv","","null","resources/maskTrios/BBA3.jpg","null","",NA,NA,NA,NA,""
"image-keyboard-response",554,4367762,"0.0-4.180-2.180","w1qhombhg1kge2c",856,"91.csv","","null","resources/images/coin2.png","null","",NA,NA,NA,NA,""
"image-keyboard-response",555,4369233,"0.0-4.181-0.181","w1qhombhg1kge2c",856,"91.csv","","1469","resources/trios/L1T4A3.jpg","39","restless",0.5,0.4,0.9,0.922435323815171,"false"
"image-keyboard-response",556,4369639,"0.0-4.181-1.181","w1qhombhg1kge2c",856,"91.csv","","null","resources/maskTrios/BBA3.jpg","null","",NA,NA,NA,NA,""
"image-keyboard-response",557,4370846,"0.0-4.181-2.181","w1qhombhg1kge2c",856,"91.csv","","null","resources/images/fishbone.png","null","",NA,NA,NA,NA,""
"image-keyboard-response",558,4370996,"0.0-4.182-0.182","w1qhombhg1kge2c",856,"91.csv","","149","resources/trios/L1T4A3.jpg","38","restless",0.5,0.4,0.8,0.239497457831044,"true"
"image-keyboard-response",559,4371400,"0.0-4.182-1.182","w1qhombhg1kge2c",856,"91.csv","","null","resources/maskTrios/BT4B.jpg","null","",NA,NA,NA,NA,""
"image-keyboard-response",560,4372601,"0.0-4.182-2.182","w1qhombhg1kge2c",856,"91.csv","","null","resources/images/coin2.png","null","",NA,NA,NA,NA,""
"image-keyboard-response",561,4372947,"0.0-4.183-0.183","w1qhombhg1kge2c",856,"91.csv","","345","resources/trios/L1T4A3.jpg","38","restless",0.5,0.4,0.8,0.424291439396235,"false"
"image-keyboard-response",562,4373350,"0.0-4.183-1.183","w1qhombhg1kge2c",856,"91.csv","","null","resources/maskTrios/BT4B.jpg","null","",NA,NA,NA,NA,""
"image-keyboard-response",563,4374557,"0.0-4.183-2.183","w1qhombhg1kge2c",856,"91.csv","","null","resources/images/fishbone.png","null","",NA,NA,NA,NA,""
"image-keyboard-response",564,4375003,"0.0-4.184-0.184","w1qhombhg1kge2c",856,"91.csv","","446","resources/trios/L1T4A3.jpg","37","restless",0.5,0.4,0.7,0.485712363178145,"true"
"image-keyboard-response",565,4375409,"0.0-4.184-1.184","w1qhombhg1kge2c",856,"91.csv","","null","resources/maskTrios/L1BB.jpg","null","",NA,NA,NA,NA,""
"image-keyboard-response",566,4376615,"0.0-4.184-2.184","w1qhombhg1kge2c",856,"91.csv","","null","resources/images/coin2.png","null","",NA,NA,NA,NA,""
"image-keyboard-response",567,4377222,"0.0-4.185-0.185","w1qhombhg1kge2c",856,"91.csv","","606","resources/trios/L1T4A3.jpg","37","restless",0.6,0.4,0.7,0.13987454742252,"true"
"image-keyboard-response",568,4377628,"0.0-4.185-1.185","w1qhombhg1kge2c",856,"91.csv","","null","resources/maskTrios/L1BB.jpg","null","",NA,NA,NA,NA,""
"image-keyboard-response",569,4378833,"0.0-4.185-2.185","w1qhombhg1kge2c",856,"91.csv","","null","resources/images/coin2.png","null","",NA,NA,NA,NA,""
"image-keyboard-response",570,4379351,"0.0-4.186-0.186","w1qhombhg1kge2c",856,"91.csv","","516","resources/trios/L1T4A3.jpg","37","restless",0.6,0.4,0.7,0.658826662636246,"false"
"image-keyboard-response",571,4379755,"0.0-4.186-1.186","w1qhombhg1kge2c",856,"91.csv","","null","resources/maskTrios/L1BB.jpg","null","",NA,NA,NA,NA,""
"image-keyboard-response",572,4380960,"0.0-4.186-2.186","w1qhombhg1kge2c",856,"91.csv","","null","resources/images/fishbone.png","null","",NA,NA,NA,NA,""
"image-keyboard-response",573,4381011,"0.0-4.187-0.187","w1qhombhg1kge2c",856,"91.csv","","49","resources/trios/L1T4A3.jpg","38","restless",0.6,0.4,0.7,0.89246715086296,"false"
"image-keyboard-response",574,4381416,"0.0-4.187-1.187","w1qhombhg1kge2c",856,"91.csv","","null","resources/maskTrios/BT4B.jpg","null","",NA,NA,NA,NA,""
"image-keyboard-response",575,4382622,"0.0-4.187-2.187","w1qhombhg1kge2c",856,"91.csv","","null","resources/images/fishbone.png","null","",NA,NA,NA,NA,""
"image-keyboard-response",576,4382903,"0.0-4.188-0.188","w1qhombhg1kge2c",856,"91.csv","","281","resources/trios/L1T4A3.jpg","39","restless",0.6,0.4,0.6,0.371676236747805,"true"
"image-keyboard-response",577,4383308,"0.0-4.188-1.188","w1qhombhg1kge2c",856,"91.csv","","null","resources/maskTrios/BBA3.jpg","null","",NA,NA,NA,NA,""
"image-keyboard-response",578,4384630,"0.0-4.188-2.188","w1qhombhg1kge2c",856,"91.csv","","null","resources/images/coin2.png","null","",NA,NA,NA,NA,""
"image-keyboard-response",579,4385028,"0.0-4.189-0.189","w1qhombhg1kge2c",856,"91.csv","","397","resources/trios/L1T4A3.jpg","39","restless",0.6,0.4,0.6,0.296426162650492,"true"
"image-keyboard-response",580,4385435,"0.0-4.189-1.189","w1qhombhg1kge2c",856,"91.csv","","null","resources/maskTrios/BBA3.jpg","null","",NA,NA,NA,NA,""
"image-keyboard-response",581,4386641,"0.0-4.189-2.189","w1qhombhg1kge2c",856,"91.csv","","null","resources/images/coin2.png","null","",NA,NA,NA,NA,""
"image-keyboard-response",582,4386704,"0.0-4.190-0.190","w1qhombhg1kge2c",856,"91.csv","","62","resources/trios/L1T4A3.jpg","39","restless",0.6,0.4,0.6,0.31396494033959,"true"
"image-keyboard-response",583,4387111,"0.0-4.190-1.190","w1qhombhg1kge2c",856,"91.csv","","null","resources/maskTrios/BBA3.jpg","null","",NA,NA,NA,NA,""
"image-keyboard-response",584,4388313,"0.0-4.190-2.190","w1qhombhg1kge2c",856,"91.csv","","null","resources/images/coin2.png","null","",NA,NA,NA,NA,""
"image-keyboard-response",585,4388598,"0.0-4.191-0.191","w1qhombhg1kge2c",856,"91.csv","","284","resources/trios/L1T4A3.jpg","39","restless",0.6,0.4,0.6,0.195663617497901,"true"
"image-keyboard-response",586,4389003,"0.0-4.191-1.191","w1qhombhg1kge2c",856,"91.csv","","null","resources/maskTrios/BBA3.jpg","null","",NA,NA,NA,NA,""
"image-keyboard-response",587,4390208,"0.0-4.191-2.191","w1qhombhg1kge2c",856,"91.csv","","null","resources/images/coin2.png","null","",NA,NA,NA,NA,""
"image-keyboard-response",588,4390458,"0.0-4.192-0.192","w1qhombhg1kge2c",856,"91.csv","","247","resources/trios/L1T4A3.jpg","39","restless",0.7,0.4,0.5,0.579854921266774,"false"
"image-keyboard-response",589,4390864,"0.0-4.192-1.192","w1qhombhg1kge2c",856,"91.csv","","null","resources/maskTrios/BBA3.jpg","null","",NA,NA,NA,NA,""
"image-keyboard-response",590,4392213,"0.0-4.192-2.192","w1qhombhg1kge2c",856,"91.csv","","null","resources/images/fishbone.png","null","",NA,NA,NA,NA,""
"image-keyboard-response",591,4392342,"0.0-4.193-0.193","w1qhombhg1kge2c",856,"91.csv","","128","resources/trios/L1T4A3.jpg","38","restless",0.8,0.4,0.5,0.603761076655025,"false"
"image-keyboard-response",592,4392749,"0.0-4.193-1.193","w1qhombhg1kge2c",856,"91.csv","","null","resources/maskTrios/BT4B.jpg","null","",NA,NA,NA,NA,""
"image-keyboard-response",593,4393952,"0.0-4.193-2.193","w1qhombhg1kge2c",856,"91.csv","","null","resources/images/fishbone.png","null","",NA,NA,NA,NA,""
"image-keyboard-response",594,4394257,"0.0-4.194-0.194","w1qhombhg1kge2c",856,"91.csv","","303","resources/trios/L1T4A3.jpg","37","restless",0.9,0.4,0.5,0.990317351298653,"false"
"image-keyboard-response",595,4394663,"0.0-4.194-1.194","w1qhombhg1kge2c",856,"91.csv","","null","resources/maskTrios/L1BB.jpg","null","",NA,NA,NA,NA,""
"image-keyboard-response",596,4395866,"0.0-4.194-2.194","w1qhombhg1kge2c",856,"91.csv","","null","resources/images/fishbone.png","null","",NA,NA,NA,NA,""
"image-keyboard-response",597,4395973,"0.0-4.195-0.195","w1qhombhg1kge2c",856,"91.csv","","106","resources/trios/L1T4A3.jpg","38","restless",0.9,0.4,0.4,0.006566840607934,"true"
"image-keyboard-response",598,4396379,"0.0-4.195-1.195","w1qhombhg1kge2c",856,"91.csv","","null","resources/maskTrios/BT4B.jpg","null","",NA,NA,NA,NA,""
"image-keyboard-response",599,4397584,"0.0-4.195-2.195","w1qhombhg1kge2c",856,"91.csv","","null","resources/images/coin2.png","null","",NA,NA,NA,NA,""
"image-keyboard-response",600,4398231,"0.0-4.196-0.196","w1qhombhg1kge2c",856,"91.csv","","645","resources/trios/L1T4A3.jpg","38","restless",0.9,0.3,0.4,0.433937787469615,"false"
"image-keyboard-response",601,4398634,"0.0-4.196-1.196","w1qhombhg1kge2c",856,"91.csv","","null","resources/maskTrios/BT4B.jpg","null","",NA,NA,NA,NA,""
"image-keyboard-response",602,4399841,"0.0-4.196-2.196","w1qhombhg1kge2c",856,"91.csv","","null","resources/images/fishbone.png","null","",NA,NA,NA,NA,""
"image-keyboard-response",603,4400249,"0.0-4.197-0.197","w1qhombhg1kge2c",856,"91.csv","","406","resources/trios/L1T4A3.jpg","39","restless",0.9,0.3,0.4,0.42434260088541,"false"
"image-keyboard-response",604,4400651,"0.0-4.197-1.197","w1qhombhg1kge2c",856,"91.csv","","null","resources/maskTrios/BBA3.jpg","null","",NA,NA,NA,NA,""
"image-keyboard-response",605,4401856,"0.0-4.197-2.197","w1qhombhg1kge2c",856,"91.csv","","null","resources/images/fishbone.png","null","",NA,NA,NA,NA,""
"image-keyboard-response",606,4402189,"0.0-4.198-0.198","w1qhombhg1kge2c",856,"91.csv","","332","resources/trios/L1T4A3.jpg","38","restless",0.9,0.3,0.4,0.753194300386458,"false"
"image-keyboard-response",607,4402595,"0.0-4.198-1.198","w1qhombhg1kge2c",856,"91.csv","","null","resources/maskTrios/BT4B.jpg","null","",NA,NA,NA,NA,""
"image-keyboard-response",608,4403801,"0.0-4.198-2.198","w1qhombhg1kge2c",856,"91.csv","","null","resources/images/fishbone.png","null","",NA,NA,NA,NA,""
"image-keyboard-response",609,4403987,"0.0-4.199-0.199","w1qhombhg1kge2c",856,"91.csv","","183","resources/trios/L1T4A3.jpg","37","restless",0.9,0.3,0.4,0.0960839360677918,"true"
"image-keyboard-response",610,4404389,"0.0-4.199-1.199","w1qhombhg1kge2c",856,"91.csv","","null","resources/maskTrios/L1BB.jpg","null","",NA,NA,NA,NA,""
"image-keyboard-response",611,4405596,"0.0-4.199-2.199","w1qhombhg1kge2c",856,"91.csv","","null","resources/images/coin2.png","null","",NA,NA,NA,NA,""
"survey-text",612,4452515,"0.0-5.0","w1qhombhg1kge2c",856,"91.csv","","46906","","","",NA,NA,NA,NA,""
