"trial_type","trial_index","time_elapsed","internal_node_id","subject","participantCode","walkNumber","success","rt","stimulus","key_press","test_part","leftProb","midProb","rightProb","generatedNum","correct"
"pavlovia",0,1103,"0.0-0.0","nyy74h78drrt8h8",265,"181.csv","","","","","",NA,NA,NA,NA,""
"fullscreen",1,4471,"0.0-1.0","nyy74h78drrt8h8",265,"181.csv","true","","","","",NA,NA,NA,NA,""
"survey-html-form",2,21399,"0.0-2.0","nyy74h78drrt8h8",265,"181.csv","","16926","","","",NA,NA,NA,NA,""
"image-keyboard-response",3,36874,"0.0-3.0-0.0","nyy74h78drrt8h8",265,"181.csv","","15474.70000000298","resources/images/parrot_nobg.png","13","",NA,NA,NA,NA,""
"image-keyboard-response",4,39887,"0.0-3.0-1.0","nyy74h78drrt8h8",265,"181.csv","","null","resources/image_sets/111.png","null","",NA,NA,NA,NA,""
"image-keyboard-response",5,46557,"0.0-3.0-2.0","nyy74h78drrt8h8",265,"181.csv","","6667.70000000298","resources/image_sets/left_highlight.png","37","",NA,NA,NA,NA,""
"image-keyboard-response",6,50419,"0.0-3.0-3.0","nyy74h78drrt8h8",265,"181.csv","","3861.3999999910593","resources/image_sets/mid_highlight.png","38","",NA,NA,NA,NA,""
"image-keyboard-response",7,51574,"0.0-3.0-4.0","nyy74h78drrt8h8",265,"181.csv","","1153.5999999940395","resources/image_sets/right_highlight.png","39","",NA,NA,NA,NA,""
"image-keyboard-response",8,57077,"0.0-3.0-5.0","nyy74h78drrt8h8",265,"181.csv","","5502.0999999940395","resources/image_sets/111.png","13","",NA,NA,NA,NA,""
"image-keyboard-response",9,60138,"0.0-3.0-6.0","nyy74h78drrt8h8",265,"181.csv","","3060.1000000089407","resources/images/coin2.png","13","",NA,NA,NA,NA,""
"image-keyboard-response",10,61672,"0.0-3.0-7.0","nyy74h78drrt8h8",265,"181.csv","","1534.3999999910593","resources/images/fishbone.png","13","",NA,NA,NA,NA,""
"html-keyboard-response",11,69473,"0.0-3.0-8.0","nyy74h78drrt8h8",265,"181.csv","","7800","<p>You can track your coin total on the top right of your screen. </p><p>At the end of your journey you will be directed to a survey, so please click on the link before exiting the task</p><p>Press Enter to begin</p>","13","",NA,NA,NA,NA,""
"image-keyboard-response",12,72466,"0.0-4.0-0.0","nyy74h78drrt8h8",265,"181.csv","","2992","resources/trios/L1T2A3.jpg","39","restless",0.3,0.7,0.9,0.0891743531573788,"true"
"image-keyboard-response",13,72874,"0.0-4.0-1.0","nyy74h78drrt8h8",265,"181.csv","","null","resources/maskTrios/BBA3.jpg","null","",NA,NA,NA,NA,""
"image-keyboard-response",14,74092,"0.0-4.0-2.0","nyy74h78drrt8h8",265,"181.csv","","null","resources/images/coin2.png","null","",NA,NA,NA,NA,""
"image-keyboard-response",15,75971,"0.0-4.1-0.1","nyy74h78drrt8h8",265,"181.csv","","1876.5","resources/trios/L1T2A3.jpg","37","restless",0.3,0.7,0.9,0.551397632702656,"false"
"image-keyboard-response",16,76378,"0.0-4.1-1.1","nyy74h78drrt8h8",265,"181.csv","","null","resources/maskTrios/L1BB.jpg","null","",NA,NA,NA,NA,""
"image-keyboard-response",17,77579,"0.0-4.1-2.1","nyy74h78drrt8h8",265,"181.csv","","null","resources/images/fishbone.png","null","",NA,NA,NA,NA,""
"image-keyboard-response",18,77998,"0.0-4.2-0.2","nyy74h78drrt8h8",265,"181.csv","","417.5","resources/trios/L1T2A3.jpg","37","restless",0.3,0.7,0.9,0.641220345097953,"false"
"image-keyboard-response",19,78403,"0.0-4.2-1.2","nyy74h78drrt8h8",265,"181.csv","","null","resources/maskTrios/L1BB.jpg","null","",NA,NA,NA,NA,""
"image-keyboard-response",20,79607,"0.0-4.2-2.2","nyy74h78drrt8h8",265,"181.csv","","null","resources/images/fishbone.png","null","",NA,NA,NA,NA,""
"image-keyboard-response",21,79899,"0.0-4.3-0.3","nyy74h78drrt8h8",265,"181.csv","","291.5","resources/trios/L1T2A3.jpg","38","restless",0.2,0.7,0.9,0.356456239755121,"true"
"image-keyboard-response",22,80308,"0.0-4.3-1.3","nyy74h78drrt8h8",265,"181.csv","","null","resources/maskTrios/BT2B.jpg","null","",NA,NA,NA,NA,""
"image-keyboard-response",23,81520,"0.0-4.3-2.3","nyy74h78drrt8h8",265,"181.csv","","null","resources/images/coin2.png","null","",NA,NA,NA,NA,""
"image-keyboard-response",24,81836,"0.0-4.4-0.4","nyy74h78drrt8h8",265,"181.csv","","314.40000000596046","resources/trios/L1T2A3.jpg","37","restless",0.2,0.7,0.9,0.88993724243217,"false"
"image-keyboard-response",25,82238,"0.0-4.4-1.4","nyy74h78drrt8h8",265,"181.csv","","null","resources/maskTrios/L1BB.jpg","null","",NA,NA,NA,NA,""
"image-keyboard-response",26,83440,"0.0-4.4-2.4","nyy74h78drrt8h8",265,"181.csv","","null","resources/images/fishbone.png","null","",NA,NA,NA,NA,""
"image-keyboard-response",27,83698,"0.0-4.5-0.5","nyy74h78drrt8h8",265,"181.csv","","257.5","resources/trios/L1T2A3.jpg","39","restless",0.2,0.7,0.9,0.856291789607122,"true"
"image-keyboard-response",28,84112,"0.0-4.5-1.5","nyy74h78drrt8h8",265,"181.csv","","null","resources/maskTrios/BBA3.jpg","null","",NA,NA,NA,NA,""
"image-keyboard-response",29,85316,"0.0-4.5-2.5","nyy74h78drrt8h8",265,"181.csv","","null","resources/images/coin2.png","null","",NA,NA,NA,NA,""
"image-keyboard-response",30,85633,"0.0-4.6-0.6","nyy74h78drrt8h8",265,"181.csv","","315.19999998807907","resources/trios/L1T2A3.jpg","38","restless",0.2,0.7,0.9,0.813160342321644,"false"
"image-keyboard-response",31,86049,"0.0-4.6-1.6","nyy74h78drrt8h8",265,"181.csv","","null","resources/maskTrios/BT2B.jpg","null","",NA,NA,NA,NA,""
"image-keyboard-response",32,87262,"0.0-4.6-2.6","nyy74h78drrt8h8",265,"181.csv","","null","resources/images/fishbone.png","null","",NA,NA,NA,NA,""
"image-keyboard-response",33,87822,"0.0-4.7-0.7","nyy74h78drrt8h8",265,"181.csv","","559.1000000089407","resources/trios/L1T2A3.jpg","38","restless",0.2,0.7,0.9,0.91055489845832,"false"
"image-keyboard-response",34,88232,"0.0-4.7-1.7","nyy74h78drrt8h8",265,"181.csv","","null","resources/maskTrios/BT2B.jpg","null","",NA,NA,NA,NA,""
"image-keyboard-response",35,89434,"0.0-4.7-2.7","nyy74h78drrt8h8",265,"181.csv","","null","resources/images/fishbone.png","null","",NA,NA,NA,NA,""
"image-keyboard-response",36,89661,"0.0-4.8-0.8","nyy74h78drrt8h8",265,"181.csv","","225.29999999701977","resources/trios/L1T2A3.jpg","37","restless",0.2,0.7,0.9,0.87609526340857,"false"
"image-keyboard-response",37,90076,"0.0-4.8-1.8","nyy74h78drrt8h8",265,"181.csv","","null","resources/maskTrios/L1BB.jpg","null","",NA,NA,NA,NA,""
"image-keyboard-response",38,91283,"0.0-4.8-2.8","nyy74h78drrt8h8",265,"181.csv","","null","resources/images/fishbone.png","null","",NA,NA,NA,NA,""
"image-keyboard-response",39,91527,"0.0-4.9-0.9","nyy74h78drrt8h8",265,"181.csv","","243.6000000089407","resources/trios/L1T2A3.jpg","39","restless",0.3,0.6,0.9,0.295969342042727,"true"
"image-keyboard-response",40,91938,"0.0-4.9-1.9","nyy74h78drrt8h8",265,"181.csv","","null","resources/maskTrios/BBA3.jpg","null","",NA,NA,NA,NA,""
"image-keyboard-response",41,93150,"0.0-4.9-2.9","nyy74h78drrt8h8",265,"181.csv","","null","resources/images/coin2.png","null","",NA,NA,NA,NA,""
"image-keyboard-response",42,93727,"0.0-4.10-0.10","nyy74h78drrt8h8",265,"181.csv","","575.5999999940395","resources/trios/L1T2A3.jpg","39","restless",0.4,0.6,0.9,0.817945966755063,"true"
"image-keyboard-response",43,94135,"0.0-4.10-1.10","nyy74h78drrt8h8",265,"181.csv","","null","resources/maskTrios/BBA3.jpg","null","",NA,NA,NA,NA,""
"image-keyboard-response",44,95339,"0.0-4.10-2.10","nyy74h78drrt8h8",265,"181.csv","","null","resources/images/coin2.png","null","",NA,NA,NA,NA,""
"image-keyboard-response",45,95714,"0.0-4.11-0.11","nyy74h78drrt8h8",265,"181.csv","","373.29999999701977","resources/trios/L1T2A3.jpg","38","restless",0.4,0.6,0.9,0.735621240947676,"false"
"image-keyboard-response",46,96121,"0.0-4.11-1.11","nyy74h78drrt8h8",265,"181.csv","","null","resources/maskTrios/BT2B.jpg","null","",NA,NA,NA,NA,""
"image-keyboard-response",47,97324,"0.0-4.11-2.11","nyy74h78drrt8h8",265,"181.csv","","null","resources/images/fishbone.png","null","",NA,NA,NA,NA,""
"image-keyboard-response",48,97593,"0.0-4.12-0.12","nyy74h78drrt8h8",265,"181.csv","","266.8999999910593","resources/trios/L1T2A3.jpg","39","restless",0.4,0.6,0.9,0.395161162590837,"true"
"image-keyboard-response",49,97995,"0.0-4.12-1.12","nyy74h78drrt8h8",265,"181.csv","","null","resources/maskTrios/BBA3.jpg","null","",NA,NA,NA,NA,""
"image-keyboard-response",50,99210,"0.0-4.12-2.12","nyy74h78drrt8h8",265,"181.csv","","null","resources/images/coin2.png","null","",NA,NA,NA,NA,""
"image-keyboard-response",51,99465,"0.0-4.13-0.13","nyy74h78drrt8h8",265,"181.csv","","253.29999999701977","resources/trios/L1T2A3.jpg","39","restless",0.4,0.6,0.9,0.883433508100843,"true"
"image-keyboard-response",52,99877,"0.0-4.13-1.13","nyy74h78drrt8h8",265,"181.csv","","null","resources/maskTrios/BBA3.jpg","null","",NA,NA,NA,NA,""
"image-keyboard-response",53,101095,"0.0-4.13-2.13","nyy74h78drrt8h8",265,"181.csv","","null","resources/images/coin2.png","null","",NA,NA,NA,NA,""
"image-keyboard-response",54,101715,"0.0-4.14-0.14","nyy74h78drrt8h8",265,"181.csv","","618.9000000059605","resources/trios/L1T2A3.jpg","37","restless",0.4,0.6,0.9,0.458322229082991,"false"
"image-keyboard-response",55,102126,"0.0-4.14-1.14","nyy74h78drrt8h8",265,"181.csv","","null","resources/maskTrios/L1BB.jpg","null","",NA,NA,NA,NA,""
"image-keyboard-response",56,103339,"0.0-4.14-2.14","nyy74h78drrt8h8",265,"181.csv","","null","resources/images/fishbone.png","null","",NA,NA,NA,NA,""
"image-keyboard-response",57,103585,"0.0-4.15-0.15","nyy74h78drrt8h8",265,"181.csv","","245.3999999910593","resources/trios/L1T2A3.jpg","39","restless",0.4,0.6,0.9,0.803238335845647,"true"
"image-keyboard-response",58,103989,"0.0-4.15-1.15","nyy74h78drrt8h8",265,"181.csv","","null","resources/maskTrios/BBA3.jpg","null","",NA,NA,NA,NA,""
"image-keyboard-response",59,105195,"0.0-4.15-2.15","nyy74h78drrt8h8",265,"181.csv","","null","resources/images/coin2.png","null","",NA,NA,NA,NA,""
"image-keyboard-response",60,105621,"0.0-4.16-0.16","nyy74h78drrt8h8",265,"181.csv","","425.30000001192093","resources/trios/L1T2A3.jpg","39","restless",0.4,0.6,0.9,0.0199336993452539,"true"
"image-keyboard-response",61,106038,"0.0-4.16-1.16","nyy74h78drrt8h8",265,"181.csv","","null","resources/maskTrios/BBA3.jpg","null","",NA,NA,NA,NA,""
"image-keyboard-response",62,107254,"0.0-4.16-2.16","nyy74h78drrt8h8",265,"181.csv","","null","resources/images/coin2.png","null","",NA,NA,NA,NA,""
"image-keyboard-response",63,107531,"0.0-4.17-0.17","nyy74h78drrt8h8",265,"181.csv","","276.29999999701977","resources/trios/L1T2A3.jpg","39","restless",0.4,0.6,0.9,0.944939457527597,"false"
"image-keyboard-response",64,107940,"0.0-4.17-1.17","nyy74h78drrt8h8",265,"181.csv","","null","resources/maskTrios/BBA3.jpg","null","",NA,NA,NA,NA,""
"image-keyboard-response",65,109142,"0.0-4.17-2.17","nyy74h78drrt8h8",265,"181.csv","","null","resources/images/fishbone.png","null","",NA,NA,NA,NA,""
"image-keyboard-response",66,109414,"0.0-4.18-0.18","nyy74h78drrt8h8",265,"181.csv","","270.09999999403954","resources/trios/L1T2A3.jpg","39","restless",0.4,0.6,0.9,0.66887695257148,"true"
"image-keyboard-response",67,109829,"0.0-4.18-1.18","nyy74h78drrt8h8",265,"181.csv","","null","resources/maskTrios/BBA3.jpg","null","",NA,NA,NA,NA,""
"image-keyboard-response",68,111033,"0.0-4.18-2.18","nyy74h78drrt8h8",265,"181.csv","","null","resources/images/coin2.png","null","",NA,NA,NA,NA,""
"image-keyboard-response",69,112130,"0.0-4.19-0.19","nyy74h78drrt8h8",265,"181.csv","","1096","resources/trios/L1T2A3.jpg","37","restless",0.4,0.6,0.9,0.0636513305297592,"true"
"image-keyboard-response",70,112547,"0.0-4.19-1.19","nyy74h78drrt8h8",265,"181.csv","","null","resources/maskTrios/L1BB.jpg","null","",NA,NA,NA,NA,""
"image-keyboard-response",71,113763,"0.0-4.19-2.19","nyy74h78drrt8h8",265,"181.csv","","null","resources/images/coin2.png","null","",NA,NA,NA,NA,""
"image-keyboard-response",72,114286,"0.0-4.20-0.20","nyy74h78drrt8h8",265,"181.csv","","520.5999999940395","resources/trios/L1T2A3.jpg","37","restless",0.5,0.6,0.9,0.0571556992429287,"true"
"image-keyboard-response",73,114697,"0.0-4.20-1.20","nyy74h78drrt8h8",265,"181.csv","","null","resources/maskTrios/L1BB.jpg","null","",NA,NA,NA,NA,""
"image-keyboard-response",74,115901,"0.0-4.20-2.20","nyy74h78drrt8h8",265,"181.csv","","null","resources/images/coin2.png","null","",NA,NA,NA,NA,""
"image-keyboard-response",75,116486,"0.0-4.21-0.21","nyy74h78drrt8h8",265,"181.csv","","584","resources/trios/L1T2A3.jpg","37","restless",0.5,0.6,0.9,0.483342782001187,"true"
"image-keyboard-response",76,116901,"0.0-4.21-1.21","nyy74h78drrt8h8",265,"181.csv","","null","resources/maskTrios/L1BB.jpg","null","",NA,NA,NA,NA,""
"image-keyboard-response",77,118113,"0.0-4.21-2.21","nyy74h78drrt8h8",265,"181.csv","","null","resources/images/coin2.png","null","",NA,NA,NA,NA,""
"image-keyboard-response",78,118394,"0.0-4.22-0.22","nyy74h78drrt8h8",265,"181.csv","","279.6000000089407","resources/trios/L1T2A3.jpg","37","restless",0.5,0.6,0.8,0.572972599226867,"false"
"image-keyboard-response",79,118796,"0.0-4.22-1.22","nyy74h78drrt8h8",265,"181.csv","","null","resources/maskTrios/L1BB.jpg","null","",NA,NA,NA,NA,""
"image-keyboard-response",80,120013,"0.0-4.22-2.22","nyy74h78drrt8h8",265,"181.csv","","null","resources/images/fishbone.png","null","",NA,NA,NA,NA,""
"image-keyboard-response",81,120255,"0.0-4.23-0.23","nyy74h78drrt8h8",265,"181.csv","","239.29999999701977","resources/trios/L1T2A3.jpg","38","restless",0.5,0.6,0.8,0.893067412144691,"false"
"image-keyboard-response",82,120665,"0.0-4.23-1.23","nyy74h78drrt8h8",265,"181.csv","","null","resources/maskTrios/BT2B.jpg","null","",NA,NA,NA,NA,""
"image-keyboard-response",83,121870,"0.0-4.23-2.23","nyy74h78drrt8h8",265,"181.csv","","null","resources/images/fishbone.png","null","",NA,NA,NA,NA,""
"image-keyboard-response",84,122112,"0.0-4.24-0.24","nyy74h78drrt8h8",265,"181.csv","","240.5","resources/trios/L1T2A3.jpg","38","restless",0.5,0.6,0.7,0.0466619972104978,"true"
"image-keyboard-response",85,122525,"0.0-4.24-1.24","nyy74h78drrt8h8",265,"181.csv","","null","resources/maskTrios/BT2B.jpg","null","",NA,NA,NA,NA,""
"image-keyboard-response",86,123727,"0.0-4.24-2.24","nyy74h78drrt8h8",265,"181.csv","","null","resources/images/coin2.png","null","",NA,NA,NA,NA,""
"image-keyboard-response",87,124012,"0.0-4.25-0.25","nyy74h78drrt8h8",265,"181.csv","","283.90000000596046","resources/trios/L1T2A3.jpg","38","restless",0.4,0.6,0.7,0.325173655415831,"true"
"image-keyboard-response",88,124426,"0.0-4.25-1.25","nyy74h78drrt8h8",265,"181.csv","","null","resources/maskTrios/BT2B.jpg","null","",NA,NA,NA,NA,""
"image-keyboard-response",89,125642,"0.0-4.25-2.25","nyy74h78drrt8h8",265,"181.csv","","null","resources/images/coin2.png","null","",NA,NA,NA,NA,""
"image-keyboard-response",90,125867,"0.0-4.26-0.26","nyy74h78drrt8h8",265,"181.csv","","223.29999999701977","resources/trios/L1T2A3.jpg","37","restless",0.4,0.6,0.7,0.352941994403565,"true"
"image-keyboard-response",91,126282,"0.0-4.26-1.26","nyy74h78drrt8h8",265,"181.csv","","null","resources/maskTrios/L1BB.jpg","null","",NA,NA,NA,NA,""
"image-keyboard-response",92,127489,"0.0-4.26-2.26","nyy74h78drrt8h8",265,"181.csv","","null","resources/images/coin2.png","null","",NA,NA,NA,NA,""
"image-keyboard-response",93,127761,"0.0-4.27-0.27","nyy74h78drrt8h8",265,"181.csv","","270.8999999910593","resources/trios/L1T2A3.jpg","37","restless",0.4,0.6,0.7,0.988552099076562,"false"
"image-keyboard-response",94,128174,"0.0-4.27-1.27","nyy74h78drrt8h8",265,"181.csv","","null","resources/maskTrios/L1BB.jpg","null","",NA,NA,NA,NA,""
"image-keyboard-response",95,129390,"0.0-4.27-2.27","nyy74h78drrt8h8",265,"181.csv","","null","resources/images/fishbone.png","null","",NA,NA,NA,NA,""
"image-keyboard-response",96,129684,"0.0-4.28-0.28","nyy74h78drrt8h8",265,"181.csv","","292.5","resources/trios/L1T2A3.jpg","39","restless",0.4,0.6,0.7,0.212304126181774,"true"
"image-keyboard-response",97,130091,"0.0-4.28-1.28","nyy74h78drrt8h8",265,"181.csv","","null","resources/maskTrios/BBA3.jpg","null","",NA,NA,NA,NA,""
"image-keyboard-response",98,131303,"0.0-4.28-2.28","nyy74h78drrt8h8",265,"181.csv","","null","resources/images/coin2.png","null","",NA,NA,NA,NA,""
"image-keyboard-response",99,131554,"0.0-4.29-0.29","nyy74h78drrt8h8",265,"181.csv","","249.30000001192093","resources/trios/L1T2A3.jpg","38","restless",0.4,0.6,0.7,0.349394006195425,"true"
"image-keyboard-response",100,131962,"0.0-4.29-1.29","nyy74h78drrt8h8",265,"181.csv","","null","resources/maskTrios/BT2B.jpg","null","",NA,NA,NA,NA,""
"image-keyboard-response",101,133177,"0.0-4.29-2.29","nyy74h78drrt8h8",265,"181.csv","","null","resources/images/coin2.png","null","",NA,NA,NA,NA,""
"image-keyboard-response",102,133397,"0.0-4.30-0.30","nyy74h78drrt8h8",265,"181.csv","","218","resources/trios/L1T2A3.jpg","39","restless",0.4,0.6,0.7,0.573197333290882,"true"
"image-keyboard-response",103,133799,"0.0-4.30-1.30","nyy74h78drrt8h8",265,"181.csv","","null","resources/maskTrios/BBA3.jpg","null","",NA,NA,NA,NA,""
"image-keyboard-response",104,135004,"0.0-4.30-2.30","nyy74h78drrt8h8",265,"181.csv","","null","resources/images/coin2.png","null","",NA,NA,NA,NA,""
"image-keyboard-response",105,135250,"0.0-4.31-0.31","nyy74h78drrt8h8",265,"181.csv","","244.90000000596046","resources/trios/L1T2A3.jpg","39","restless",0.4,0.6,0.7,0.605967324946135,"true"
"image-keyboard-response",106,135659,"0.0-4.31-1.31","nyy74h78drrt8h8",265,"181.csv","","null","resources/maskTrios/BBA3.jpg","null","",NA,NA,NA,NA,""
"image-keyboard-response",107,136874,"0.0-4.31-2.31","nyy74h78drrt8h8",265,"181.csv","","null","resources/images/coin2.png","null","",NA,NA,NA,NA,""
"image-keyboard-response",108,137269,"0.0-4.32-0.32","nyy74h78drrt8h8",265,"181.csv","","394","resources/trios/L1T2A3.jpg","37","restless",0.4,0.7,0.7,0.858387273391392,"false"
"image-keyboard-response",109,137683,"0.0-4.32-1.32","nyy74h78drrt8h8",265,"181.csv","","null","resources/maskTrios/L1BB.jpg","null","",NA,NA,NA,NA,""
"image-keyboard-response",110,138892,"0.0-4.32-2.32","nyy74h78drrt8h8",265,"181.csv","","null","resources/images/fishbone.png","null","",NA,NA,NA,NA,""
"image-keyboard-response",111,139126,"0.0-4.33-0.33","nyy74h78drrt8h8",265,"181.csv","","232.20000000298023","resources/trios/L1T2A3.jpg","37","restless",0.4,0.7,0.7,0.893277426101333,"false"
"image-keyboard-response",112,139531,"0.0-4.33-1.33","nyy74h78drrt8h8",265,"181.csv","","null","resources/maskTrios/L1BB.jpg","null","",NA,NA,NA,NA,""
"image-keyboard-response",113,140748,"0.0-4.33-2.33","nyy74h78drrt8h8",265,"181.csv","","null","resources/images/fishbone.png","null","",NA,NA,NA,NA,""
"image-keyboard-response",114,141035,"0.0-4.34-0.34","nyy74h78drrt8h8",265,"181.csv","","285.79999999701977","resources/trios/L1T2A3.jpg","37","restless",0.4,0.7,0.7,0.0608668839586992,"true"
"image-keyboard-response",115,141447,"0.0-4.34-1.34","nyy74h78drrt8h8",265,"181.csv","","null","resources/maskTrios/L1BB.jpg","null","",NA,NA,NA,NA,""
"image-keyboard-response",116,142664,"0.0-4.34-2.34","nyy74h78drrt8h8",265,"181.csv","","null","resources/images/coin2.png","null","",NA,NA,NA,NA,""
"image-keyboard-response",117,143014,"0.0-4.35-0.35","nyy74h78drrt8h8",265,"181.csv","","348","resources/trios/L1T2A3.jpg","37","restless",0.4,0.7,0.7,0.474648640166047,"false"
"image-keyboard-response",118,143429,"0.0-4.35-1.35","nyy74h78drrt8h8",265,"181.csv","","null","resources/maskTrios/L1BB.jpg","null","",NA,NA,NA,NA,""
"image-keyboard-response",119,144632,"0.0-4.35-2.35","nyy74h78drrt8h8",265,"181.csv","","null","resources/images/fishbone.png","null","",NA,NA,NA,NA,""
"image-keyboard-response",120,144825,"0.0-4.36-0.36","nyy74h78drrt8h8",265,"181.csv","","191.09999999403954","resources/trios/L1T2A3.jpg","38","restless",0.3,0.7,0.6,0.663168326691674,"true"
"image-keyboard-response",121,145240,"0.0-4.36-1.36","nyy74h78drrt8h8",265,"181.csv","","null","resources/maskTrios/BT2B.jpg","null","",NA,NA,NA,NA,""
"image-keyboard-response",122,146449,"0.0-4.36-2.36","nyy74h78drrt8h8",265,"181.csv","","null","resources/images/coin2.png","null","",NA,NA,NA,NA,""
"image-keyboard-response",123,146775,"0.0-4.37-0.37","nyy74h78drrt8h8",265,"181.csv","","325","resources/trios/L1T2A3.jpg","38","restless",0.3,0.7,0.6,0.206188183082364,"true"
"image-keyboard-response",124,147181,"0.0-4.37-1.37","nyy74h78drrt8h8",265,"181.csv","","null","resources/maskTrios/BT2B.jpg","null","",NA,NA,NA,NA,""
"image-keyboard-response",125,148396,"0.0-4.37-2.37","nyy74h78drrt8h8",265,"181.csv","","null","resources/images/coin2.png","null","",NA,NA,NA,NA,""
"image-keyboard-response",126,148635,"0.0-4.38-0.38","nyy74h78drrt8h8",265,"181.csv","","238.20000000298023","resources/trios/L1T2A3.jpg","38","restless",0.3,0.7,0.6,0.840677892983486,"false"
"image-keyboard-response",127,149051,"0.0-4.38-1.38","nyy74h78drrt8h8",265,"181.csv","","null","resources/maskTrios/BT2B.jpg","null","",NA,NA,NA,NA,""
"image-keyboard-response",128,150265,"0.0-4.38-2.38","nyy74h78drrt8h8",265,"181.csv","","null","resources/images/fishbone.png","null","",NA,NA,NA,NA,""
"image-keyboard-response",129,150534,"0.0-4.39-0.39","nyy74h78drrt8h8",265,"181.csv","","267.19999998807907","resources/trios/L1T2A3.jpg","37","restless",0.3,0.7,0.6,0.342905760852444,"false"
"image-keyboard-response",130,150937,"0.0-4.39-1.39","nyy74h78drrt8h8",265,"181.csv","","null","resources/maskTrios/L1BB.jpg","null","",NA,NA,NA,NA,""
"image-keyboard-response",131,152141,"0.0-4.39-2.39","nyy74h78drrt8h8",265,"181.csv","","null","resources/images/fishbone.png","null","",NA,NA,NA,NA,""
"image-keyboard-response",132,152220,"0.0-4.40-0.40","nyy74h78drrt8h8",265,"181.csv","","77.70000000298023","resources/trios/L1T2A3.jpg","39","restless",0.3,0.7,0.5,0.250428585602277,"true"
"image-keyboard-response",133,152622,"0.0-4.40-1.40","nyy74h78drrt8h8",265,"181.csv","","null","resources/maskTrios/BBA3.jpg","null","",NA,NA,NA,NA,""
"image-keyboard-response",134,153825,"0.0-4.40-2.40","nyy74h78drrt8h8",265,"181.csv","","null","resources/images/coin2.png","null","",NA,NA,NA,NA,""
"image-keyboard-response",135,154151,"0.0-4.41-0.41","nyy74h78drrt8h8",265,"181.csv","","323.5","resources/trios/L1T2A3.jpg","39","restless",0.3,0.7,0.5,0.24922452292549,"true"
"image-keyboard-response",136,154558,"0.0-4.41-1.41","nyy74h78drrt8h8",265,"181.csv","","null","resources/maskTrios/BBA3.jpg","null","",NA,NA,NA,NA,""
"image-keyboard-response",137,155774,"0.0-4.41-2.41","nyy74h78drrt8h8",265,"181.csv","","null","resources/images/coin2.png","null","",NA,NA,NA,NA,""
"image-keyboard-response",138,156070,"0.0-4.42-0.42","nyy74h78drrt8h8",265,"181.csv","","294.20000000298023","resources/trios/L1T2A3.jpg","39","restless",0.3,0.7,0.5,0.430944992055166,"true"
"image-keyboard-response",139,156472,"0.0-4.42-1.42","nyy74h78drrt8h8",265,"181.csv","","null","resources/maskTrios/BBA3.jpg","null","",NA,NA,NA,NA,""
"image-keyboard-response",140,157687,"0.0-4.42-2.42","nyy74h78drrt8h8",265,"181.csv","","null","resources/images/coin2.png","null","",NA,NA,NA,NA,""
"image-keyboard-response",141,157935,"0.0-4.43-0.43","nyy74h78drrt8h8",265,"181.csv","","246.70000000298023","resources/trios/L1T2A3.jpg","39","restless",0.4,0.7,0.5,0.905837127150631,"false"
"image-keyboard-response",142,158345,"0.0-4.43-1.43","nyy74h78drrt8h8",265,"181.csv","","null","resources/maskTrios/BBA3.jpg","null","",NA,NA,NA,NA,""
"image-keyboard-response",143,159560,"0.0-4.43-2.43","nyy74h78drrt8h8",265,"181.csv","","null","resources/images/fishbone.png","null","",NA,NA,NA,NA,""
"image-keyboard-response",144,159797,"0.0-4.44-0.44","nyy74h78drrt8h8",265,"181.csv","","235.20000000298023","resources/trios/L1T2A3.jpg","37","restless",0.4,0.7,0.5,0.493613655104316,"false"
"image-keyboard-response",145,160201,"0.0-4.44-1.44","nyy74h78drrt8h8",265,"181.csv","","null","resources/maskTrios/L1BB.jpg","null","",NA,NA,NA,NA,""
"image-keyboard-response",146,161404,"0.0-4.44-2.44","nyy74h78drrt8h8",265,"181.csv","","null","resources/images/fishbone.png","null","",NA,NA,NA,NA,""
"image-keyboard-response",147,161602,"0.0-4.45-0.45","nyy74h78drrt8h8",265,"181.csv","","197.3999999910593","resources/trios/L1T2A3.jpg","37","restless",0.4,0.7,0.5,0.715084960705638,"false"
"image-keyboard-response",148,162012,"0.0-4.45-1.45","nyy74h78drrt8h8",265,"181.csv","","null","resources/maskTrios/L1BB.jpg","null","",NA,NA,NA,NA,""
"image-keyboard-response",149,163215,"0.0-4.45-2.45","nyy74h78drrt8h8",265,"181.csv","","null","resources/images/fishbone.png","null","",NA,NA,NA,NA,""
"image-keyboard-response",150,163453,"0.0-4.46-0.46","nyy74h78drrt8h8",265,"181.csv","","237.29999999701977","resources/trios/L1T2A3.jpg","38","restless",0.4,0.7,0.5,0.142683216894568,"true"
"image-keyboard-response",151,163868,"0.0-4.46-1.46","nyy74h78drrt8h8",265,"181.csv","","null","resources/maskTrios/BT2B.jpg","null","",NA,NA,NA,NA,""
"image-keyboard-response",152,165082,"0.0-4.46-2.46","nyy74h78drrt8h8",265,"181.csv","","null","resources/images/coin2.png","null","",NA,NA,NA,NA,""
"image-keyboard-response",153,165306,"0.0-4.47-0.47","nyy74h78drrt8h8",265,"181.csv","","222.70000000298023","resources/trios/L1T2A3.jpg","38","restless",0.4,0.7,0.5,0.702384998619806,"false"
"image-keyboard-response",154,165721,"0.0-4.47-1.47","nyy74h78drrt8h8",265,"181.csv","","null","resources/maskTrios/BT2B.jpg","null","",NA,NA,NA,NA,""
"image-keyboard-response",155,166935,"0.0-4.47-2.47","nyy74h78drrt8h8",265,"181.csv","","null","resources/images/fishbone.png","null","",NA,NA,NA,NA,""
"image-keyboard-response",156,167225,"0.0-4.48-0.48","nyy74h78drrt8h8",265,"181.csv","","289.19999998807907","resources/trios/L1T2A3.jpg","39","restless",0.4,0.7,0.5,0.514289073071826,"false"
"image-keyboard-response",157,167630,"0.0-4.48-1.48","nyy74h78drrt8h8",265,"181.csv","","null","resources/maskTrios/BBA3.jpg","null","",NA,NA,NA,NA,""
"image-keyboard-response",158,168845,"0.0-4.48-2.48","nyy74h78drrt8h8",265,"181.csv","","null","resources/images/fishbone.png","null","",NA,NA,NA,NA,""
"image-keyboard-response",159,169125,"0.0-4.49-0.49","nyy74h78drrt8h8",265,"181.csv","","278.5","resources/trios/L1T2A3.jpg","39","restless",0.4,0.7,0.5,0.0602637644344504,"true"
"image-keyboard-response",160,169527,"0.0-4.49-1.49","nyy74h78drrt8h8",265,"181.csv","","null","resources/maskTrios/BBA3.jpg","null","",NA,NA,NA,NA,""
"image-keyboard-response",161,170745,"0.0-4.49-2.49","nyy74h78drrt8h8",265,"181.csv","","null","resources/images/coin2.png","null","",NA,NA,NA,NA,""
"image-keyboard-response",162,170982,"0.0-4.50-0.50","nyy74h78drrt8h8",265,"181.csv","","235","resources/trios/L1T2A3.jpg","39","restless",0.4,0.8,0.4,0.613625944098621,"false"
"image-keyboard-response",163,171384,"0.0-4.50-1.50","nyy74h78drrt8h8",265,"181.csv","","null","resources/maskTrios/BBA3.jpg","null","",NA,NA,NA,NA,""
"image-keyboard-response",164,172599,"0.0-4.50-2.50","nyy74h78drrt8h8",265,"181.csv","","null","resources/images/fishbone.png","null","",NA,NA,NA,NA,""
"image-keyboard-response",165,172811,"0.0-4.51-0.51","nyy74h78drrt8h8",265,"181.csv","","210.09999999403954","resources/trios/L1T2A3.jpg","37","restless",0.4,0.8,0.4,0.778558882687518,"false"
"image-keyboard-response",166,173225,"0.0-4.51-1.51","nyy74h78drrt8h8",265,"181.csv","","null","resources/maskTrios/L1BB.jpg","null","",NA,NA,NA,NA,""
"image-keyboard-response",167,174440,"0.0-4.51-2.51","nyy74h78drrt8h8",265,"181.csv","","null","resources/images/fishbone.png","null","",NA,NA,NA,NA,""
"image-keyboard-response",168,174756,"0.0-4.52-0.52","nyy74h78drrt8h8",265,"181.csv","","314.19999998807907","resources/trios/L1T2A3.jpg","37","restless",0.5,0.8,0.4,0.637669047123495,"false"
"image-keyboard-response",169,175173,"0.0-4.52-1.52","nyy74h78drrt8h8",265,"181.csv","","null","resources/maskTrios/L1BB.jpg","null","",NA,NA,NA,NA,""
"image-keyboard-response",170,176377,"0.0-4.52-2.52","nyy74h78drrt8h8",265,"181.csv","","null","resources/images/fishbone.png","null","",NA,NA,NA,NA,""
"image-keyboard-response",171,176591,"0.0-4.53-0.53","nyy74h78drrt8h8",265,"181.csv","","212","resources/trios/L1T2A3.jpg","37","restless",0.5,0.8,0.4,0.701531830787763,"false"
"image-keyboard-response",172,176999,"0.0-4.53-1.53","nyy74h78drrt8h8",265,"181.csv","","null","resources/maskTrios/L1BB.jpg","null","",NA,NA,NA,NA,""
"image-keyboard-response",173,178213,"0.0-4.53-2.53","nyy74h78drrt8h8",265,"181.csv","","null","resources/images/fishbone.png","null","",NA,NA,NA,NA,""
"image-keyboard-response",174,178475,"0.0-4.54-0.54","nyy74h78drrt8h8",265,"181.csv","","260.70000000298023","resources/trios/L1T2A3.jpg","37","restless",0.5,0.7,0.4,0.187359222393131,"true"
"image-keyboard-response",175,178883,"0.0-4.54-1.54","nyy74h78drrt8h8",265,"181.csv","","null","resources/maskTrios/L1BB.jpg","null","",NA,NA,NA,NA,""
"image-keyboard-response",176,180098,"0.0-4.54-2.54","nyy74h78drrt8h8",265,"181.csv","","null","resources/images/coin2.png","null","",NA,NA,NA,NA,""
"image-keyboard-response",177,180315,"0.0-4.55-0.55","nyy74h78drrt8h8",265,"181.csv","","214.6000000089407","resources/trios/L1T2A3.jpg","38","restless",0.5,0.7,0.4,0.884829231366989,"false"
"image-keyboard-response",178,180721,"0.0-4.55-1.55","nyy74h78drrt8h8",265,"181.csv","","null","resources/maskTrios/BT2B.jpg","null","",NA,NA,NA,NA,""
"image-keyboard-response",179,181937,"0.0-4.55-2.55","nyy74h78drrt8h8",265,"181.csv","","null","resources/images/fishbone.png","null","",NA,NA,NA,NA,""
"image-keyboard-response",180,182221,"0.0-4.56-0.56","nyy74h78drrt8h8",265,"181.csv","","282.5","resources/trios/L1T2A3.jpg","37","restless",0.5,0.8,0.4,0.704402596388408,"false"
"image-keyboard-response",181,182627,"0.0-4.56-1.56","nyy74h78drrt8h8",265,"181.csv","","null","resources/maskTrios/L1BB.jpg","null","",NA,NA,NA,NA,""
"image-keyboard-response",182,183833,"0.0-4.56-2.56","nyy74h78drrt8h8",265,"181.csv","","null","resources/images/fishbone.png","null","",NA,NA,NA,NA,""
"image-keyboard-response",183,184045,"0.0-4.57-0.57","nyy74h78drrt8h8",265,"181.csv","","211.20000000298023","resources/trios/L1T2A3.jpg","39","restless",0.5,0.8,0.4,0.014390665601375,"true"
"image-keyboard-response",184,184456,"0.0-4.57-1.57","nyy74h78drrt8h8",265,"181.csv","","null","resources/maskTrios/BBA3.jpg","null","",NA,NA,NA,NA,""
"image-keyboard-response",185,185673,"0.0-4.57-2.57","nyy74h78drrt8h8",265,"181.csv","","null","resources/images/coin2.png","null","",NA,NA,NA,NA,""
"image-keyboard-response",186,185947,"0.0-4.58-0.58","nyy74h78drrt8h8",265,"181.csv","","272.30000001192093","resources/trios/L1T2A3.jpg","39","restless",0.6,0.8,0.4,0.132494647838265,"true"
"image-keyboard-response",187,186358,"0.0-4.58-1.58","nyy74h78drrt8h8",265,"181.csv","","null","resources/maskTrios/BBA3.jpg","null","",NA,NA,NA,NA,""
"image-keyboard-response",188,187564,"0.0-4.58-2.58","nyy74h78drrt8h8",265,"181.csv","","null","resources/images/coin2.png","null","",NA,NA,NA,NA,""
"image-keyboard-response",189,187795,"0.0-4.59-0.59","nyy74h78drrt8h8",265,"181.csv","","230.6000000089407","resources/trios/L1T2A3.jpg","39","restless",0.6,0.8,0.4,0.419339235323423,"false"
"image-keyboard-response",190,188203,"0.0-4.59-1.59","nyy74h78drrt8h8",265,"181.csv","","null","resources/maskTrios/BBA3.jpg","null","",NA,NA,NA,NA,""
"image-keyboard-response",191,189415,"0.0-4.59-2.59","nyy74h78drrt8h8",265,"181.csv","","null","resources/images/fishbone.png","null","",NA,NA,NA,NA,""
"image-keyboard-response",192,189649,"0.0-4.60-0.60","nyy74h78drrt8h8",265,"181.csv","","232.30000001192093","resources/trios/L1T2A3.jpg","38","restless",0.6,0.8,0.4,0.762237816021228,"true"
"image-keyboard-response",193,190056,"0.0-4.60-1.60","nyy74h78drrt8h8",265,"181.csv","","null","resources/maskTrios/BT2B.jpg","null","",NA,NA,NA,NA,""
"image-keyboard-response",194,191263,"0.0-4.60-2.60","nyy74h78drrt8h8",265,"181.csv","","null","resources/images/coin2.png","null","",NA,NA,NA,NA,""
"image-keyboard-response",195,191495,"0.0-4.61-0.61","nyy74h78drrt8h8",265,"181.csv","","230.5","resources/trios/L1T2A3.jpg","38","restless",0.6,0.8,0.4,0.148925130004434,"true"
"image-keyboard-response",196,191908,"0.0-4.61-1.61","nyy74h78drrt8h8",265,"181.csv","","null","resources/maskTrios/BT2B.jpg","null","",NA,NA,NA,NA,""
"image-keyboard-response",197,193110,"0.0-4.61-2.61","nyy74h78drrt8h8",265,"181.csv","","null","resources/images/coin2.png","null","",NA,NA,NA,NA,""
"image-keyboard-response",198,193357,"0.0-4.62-0.62","nyy74h78drrt8h8",265,"181.csv","","245.79999999701977","resources/trios/L1T2A3.jpg","38","restless",0.6,0.9,0.4,0.78122524688638,"true"
"image-keyboard-response",199,193764,"0.0-4.62-1.62","nyy74h78drrt8h8",265,"181.csv","","null","resources/maskTrios/BT2B.jpg","null","",NA,NA,NA,NA,""
"image-keyboard-response",200,194967,"0.0-4.62-2.62","nyy74h78drrt8h8",265,"181.csv","","null","resources/images/coin2.png","null","",NA,NA,NA,NA,""
"image-keyboard-response",201,195319,"0.0-4.63-0.63","nyy74h78drrt8h8",265,"181.csv","","350.30000001192093","resources/trios/L1T2A3.jpg","39","restless",0.6,0.9,0.4,0.161063775458778,"true"
"image-keyboard-response",202,195731,"0.0-4.63-1.63","nyy74h78drrt8h8",265,"181.csv","","null","resources/maskTrios/BBA3.jpg","null","",NA,NA,NA,NA,""
"image-keyboard-response",203,196946,"0.0-4.63-2.63","nyy74h78drrt8h8",265,"181.csv","","null","resources/images/coin2.png","null","",NA,NA,NA,NA,""
"image-keyboard-response",204,197526,"0.0-4.64-0.64","nyy74h78drrt8h8",265,"181.csv","","579.1999999880791","resources/trios/L1T2A3.jpg","39","restless",0.6,0.9,0.3,0.0208377778448952,"true"
"image-keyboard-response",205,197931,"0.0-4.64-1.64","nyy74h78drrt8h8",265,"181.csv","","null","resources/maskTrios/BBA3.jpg","null","",NA,NA,NA,NA,""
"image-keyboard-response",206,199135,"0.0-4.64-2.64","nyy74h78drrt8h8",265,"181.csv","","null","resources/images/coin2.png","null","",NA,NA,NA,NA,""
"image-keyboard-response",207,199453,"0.0-4.65-0.65","nyy74h78drrt8h8",265,"181.csv","","317.3999999910593","resources/trios/L1T2A3.jpg","39","restless",0.6,0.9,0.3,0.0695962693506229,"true"
"image-keyboard-response",208,199864,"0.0-4.65-1.65","nyy74h78drrt8h8",265,"181.csv","","null","resources/maskTrios/BBA3.jpg","null","",NA,NA,NA,NA,""
"image-keyboard-response",209,201081,"0.0-4.65-2.65","nyy74h78drrt8h8",265,"181.csv","","null","resources/images/coin2.png","null","",NA,NA,NA,NA,""
"image-keyboard-response",210,201346,"0.0-4.66-0.66","nyy74h78drrt8h8",265,"181.csv","","264.5","resources/trios/L1T2A3.jpg","39","restless",0.6,0.9,0.4,0.389935158249167,"true"
"image-keyboard-response",211,201751,"0.0-4.66-1.66","nyy74h78drrt8h8",265,"181.csv","","null","resources/maskTrios/BBA3.jpg","null","",NA,NA,NA,NA,""
"image-keyboard-response",212,202967,"0.0-4.66-2.66","nyy74h78drrt8h8",265,"181.csv","","null","resources/images/coin2.png","null","",NA,NA,NA,NA,""
"image-keyboard-response",213,203592,"0.0-4.67-0.67","nyy74h78drrt8h8",265,"181.csv","","623.6000000089407","resources/trios/L1T2A3.jpg","39","restless",0.6,0.9,0.4,0.946682390502308,"false"
"image-keyboard-response",214,203996,"0.0-4.67-1.67","nyy74h78drrt8h8",265,"181.csv","","null","resources/maskTrios/BBA3.jpg","null","",NA,NA,NA,NA,""
"image-keyboard-response",215,205212,"0.0-4.67-2.67","nyy74h78drrt8h8",265,"181.csv","","null","resources/images/fishbone.png","null","",NA,NA,NA,NA,""
"image-keyboard-response",216,205610,"0.0-4.68-0.68","nyy74h78drrt8h8",265,"181.csv","","396.90000000596046","resources/trios/L1T2A3.jpg","38","restless",0.6,0.9,0.4,0.538020807880836,"true"
"image-keyboard-response",217,206025,"0.0-4.68-1.68","nyy74h78drrt8h8",265,"181.csv","","null","resources/maskTrios/BT2B.jpg","null","",NA,NA,NA,NA,""
"image-keyboard-response",218,207229,"0.0-4.68-2.68","nyy74h78drrt8h8",265,"181.csv","","null","resources/images/coin2.png","null","",NA,NA,NA,NA,""
"image-keyboard-response",219,207513,"0.0-4.69-0.69","nyy74h78drrt8h8",265,"181.csv","","282.29999999701977","resources/trios/L1T2A3.jpg","38","restless",0.6,0.9,0.5,0.440957964526784,"true"
"image-keyboard-response",220,207928,"0.0-4.69-1.69","nyy74h78drrt8h8",265,"181.csv","","null","resources/maskTrios/BT2B.jpg","null","",NA,NA,NA,NA,""
"image-keyboard-response",221,209146,"0.0-4.69-2.69","nyy74h78drrt8h8",265,"181.csv","","null","resources/images/coin2.png","null","",NA,NA,NA,NA,""
"image-keyboard-response",222,209771,"0.0-4.70-0.70","nyy74h78drrt8h8",265,"181.csv","","623.5","resources/trios/L1T2A3.jpg","38","restless",0.6,0.9,0.5,0.122199681666298,"true"
"image-keyboard-response",223,210175,"0.0-4.70-1.70","nyy74h78drrt8h8",265,"181.csv","","null","resources/maskTrios/BT2B.jpg","null","",NA,NA,NA,NA,""
"image-keyboard-response",224,211391,"0.0-4.70-2.70","nyy74h78drrt8h8",265,"181.csv","","null","resources/images/coin2.png","null","",NA,NA,NA,NA,""
"image-keyboard-response",225,211809,"0.0-4.71-0.71","nyy74h78drrt8h8",265,"181.csv","","417","resources/trios/L1T2A3.jpg","37","restless",0.6,0.8,0.5,0.42531353857965,"true"
"image-keyboard-response",226,212221,"0.0-4.71-1.71","nyy74h78drrt8h8",265,"181.csv","","null","resources/maskTrios/L1BB.jpg","null","",NA,NA,NA,NA,""
"image-keyboard-response",227,213429,"0.0-4.71-2.71","nyy74h78drrt8h8",265,"181.csv","","null","resources/images/coin2.png","null","",NA,NA,NA,NA,""
"image-keyboard-response",228,213832,"0.0-4.72-0.72","nyy74h78drrt8h8",265,"181.csv","","401.20000000298023","resources/trios/L1T2A3.jpg","37","restless",0.6,0.8,0.5,0.667745609961555,"false"
"image-keyboard-response",229,214237,"0.0-4.72-1.72","nyy74h78drrt8h8",265,"181.csv","","null","resources/maskTrios/L1BB.jpg","null","",NA,NA,NA,NA,""
"image-keyboard-response",230,215454,"0.0-4.72-2.72","nyy74h78drrt8h8",265,"181.csv","","null","resources/images/fishbone.png","null","",NA,NA,NA,NA,""
"image-keyboard-response",231,215976,"0.0-4.73-0.73","nyy74h78drrt8h8",265,"181.csv","","520.3000000119209","resources/trios/L1T2A3.jpg","38","restless",0.6,0.8,0.5,0.119569877299034,"true"
"image-keyboard-response",232,216386,"0.0-4.73-1.73","nyy74h78drrt8h8",265,"181.csv","","null","resources/maskTrios/BT2B.jpg","null","",NA,NA,NA,NA,""
"image-keyboard-response",233,217603,"0.0-4.73-2.73","nyy74h78drrt8h8",265,"181.csv","","null","resources/images/coin2.png","null","",NA,NA,NA,NA,""
"image-keyboard-response",234,217926,"0.0-4.74-0.74","nyy74h78drrt8h8",265,"181.csv","","322.09999999403954","resources/trios/L1T2A3.jpg","38","restless",0.6,0.8,0.5,0.309334889439484,"true"
"image-keyboard-response",235,218337,"0.0-4.74-1.74","nyy74h78drrt8h8",265,"181.csv","","null","resources/maskTrios/BT2B.jpg","null","",NA,NA,NA,NA,""
"image-keyboard-response",236,219553,"0.0-4.74-2.74","nyy74h78drrt8h8",265,"181.csv","","null","resources/images/coin2.png","null","",NA,NA,NA,NA,""
"image-keyboard-response",237,219863,"0.0-4.75-0.75","nyy74h78drrt8h8",265,"181.csv","","309","resources/trios/L1T2A3.jpg","38","restless",0.6,0.8,0.5,0.220409604398515,"true"
"image-keyboard-response",238,220274,"0.0-4.75-1.75","nyy74h78drrt8h8",265,"181.csv","","null","resources/maskTrios/BT2B.jpg","null","",NA,NA,NA,NA,""
"image-keyboard-response",239,221491,"0.0-4.75-2.75","nyy74h78drrt8h8",265,"181.csv","","null","resources/images/coin2.png","null","",NA,NA,NA,NA,""
"image-keyboard-response",240,221741,"0.0-4.76-0.76","nyy74h78drrt8h8",265,"181.csv","","249.09999999403954","resources/trios/L1T2A3.jpg","38","restless",0.6,0.8,0.5,0.378526489193395,"true"
"image-keyboard-response",241,222149,"0.0-4.76-1.76","nyy74h78drrt8h8",265,"181.csv","","null","resources/maskTrios/BT2B.jpg","null","",NA,NA,NA,NA,""
"image-keyboard-response",242,223353,"0.0-4.76-2.76","nyy74h78drrt8h8",265,"181.csv","","null","resources/images/coin2.png","null","",NA,NA,NA,NA,""
"image-keyboard-response",243,223690,"0.0-4.77-0.77","nyy74h78drrt8h8",265,"181.csv","","336.40000000596046","resources/trios/L1T2A3.jpg","38","restless",0.6,0.8,0.5,0.762106510855927,"true"
"image-keyboard-response",244,224098,"0.0-4.77-1.77","nyy74h78drrt8h8",265,"181.csv","","null","resources/maskTrios/BT2B.jpg","null","",NA,NA,NA,NA,""
"image-keyboard-response",245,225312,"0.0-4.77-2.77","nyy74h78drrt8h8",265,"181.csv","","null","resources/images/coin2.png","null","",NA,NA,NA,NA,""
"image-keyboard-response",246,225679,"0.0-4.78-0.78","nyy74h78drrt8h8",265,"181.csv","","366.1000000089407","resources/trios/L1T2A3.jpg","38","restless",0.6,0.8,0.5,0.816835087068996,"false"
"image-keyboard-response",247,226092,"0.0-4.78-1.78","nyy74h78drrt8h8",265,"181.csv","","null","resources/maskTrios/BT2B.jpg","null","",NA,NA,NA,NA,""
"image-keyboard-response",248,227308,"0.0-4.78-2.78","nyy74h78drrt8h8",265,"181.csv","","null","resources/images/fishbone.png","null","",NA,NA,NA,NA,""
"image-keyboard-response",249,227563,"0.0-4.79-0.79","nyy74h78drrt8h8",265,"181.csv","","252.70000000298023","resources/trios/L1T2A3.jpg","38","restless",0.6,0.8,0.5,0.348763968518367,"true"
"image-keyboard-response",250,227976,"0.0-4.79-1.79","nyy74h78drrt8h8",265,"181.csv","","null","resources/maskTrios/BT2B.jpg","null","",NA,NA,NA,NA,""
"image-keyboard-response",251,229181,"0.0-4.79-2.79","nyy74h78drrt8h8",265,"181.csv","","null","resources/images/coin2.png","null","",NA,NA,NA,NA,""
"image-keyboard-response",252,229440,"0.0-4.80-0.80","nyy74h78drrt8h8",265,"181.csv","","256.59999999403954","resources/trios/L1T2A3.jpg","38","restless",0.6,0.8,0.5,0.604908359907304,"true"
"image-keyboard-response",253,229850,"0.0-4.80-1.80","nyy74h78drrt8h8",265,"181.csv","","null","resources/maskTrios/BT2B.jpg","null","",NA,NA,NA,NA,""
"image-keyboard-response",254,231066,"0.0-4.80-2.80","nyy74h78drrt8h8",265,"181.csv","","null","resources/images/coin2.png","null","",NA,NA,NA,NA,""
"image-keyboard-response",255,231300,"0.0-4.81-0.81","nyy74h78drrt8h8",265,"181.csv","","232","resources/trios/L1T2A3.jpg","38","restless",0.6,0.8,0.5,0.0661178736741983,"true"
"image-keyboard-response",256,231718,"0.0-4.81-1.81","nyy74h78drrt8h8",265,"181.csv","","null","resources/maskTrios/BT2B.jpg","null","",NA,NA,NA,NA,""
"image-keyboard-response",257,232922,"0.0-4.81-2.81","nyy74h78drrt8h8",265,"181.csv","","null","resources/images/coin2.png","null","",NA,NA,NA,NA,""
"image-keyboard-response",258,233157,"0.0-4.82-0.82","nyy74h78drrt8h8",265,"181.csv","","234.5","resources/trios/L1T2A3.jpg","38","restless",0.5,0.8,0.5,0.689341857719909,"true"
"image-keyboard-response",259,233561,"0.0-4.82-1.82","nyy74h78drrt8h8",265,"181.csv","","null","resources/maskTrios/BT2B.jpg","null","",NA,NA,NA,NA,""
"image-keyboard-response",260,234765,"0.0-4.82-2.82","nyy74h78drrt8h8",265,"181.csv","","null","resources/images/coin2.png","null","",NA,NA,NA,NA,""
"image-keyboard-response",261,235087,"0.0-4.83-0.83","nyy74h78drrt8h8",265,"181.csv","","320.20000000298023","resources/trios/L1T2A3.jpg","38","restless",0.5,0.8,0.5,0.308310906652293,"true"
"image-keyboard-response",262,235499,"0.0-4.83-1.83","nyy74h78drrt8h8",265,"181.csv","","null","resources/maskTrios/BT2B.jpg","null","",NA,NA,NA,NA,""
"image-keyboard-response",263,236715,"0.0-4.83-2.83","nyy74h78drrt8h8",265,"181.csv","","null","resources/images/coin2.png","null","",NA,NA,NA,NA,""
"image-keyboard-response",264,236886,"0.0-4.84-0.84","nyy74h78drrt8h8",265,"181.csv","","171","resources/trios/L1T2A3.jpg","38","restless",0.5,0.7,0.5,0.586772790774025,"true"
"image-keyboard-response",265,237293,"0.0-4.84-1.84","nyy74h78drrt8h8",265,"181.csv","","null","resources/maskTrios/BT2B.jpg","null","",NA,NA,NA,NA,""
"image-keyboard-response",266,238506,"0.0-4.84-2.84","nyy74h78drrt8h8",265,"181.csv","","null","resources/images/coin2.png","null","",NA,NA,NA,NA,""
"image-keyboard-response",267,238699,"0.0-4.85-0.85","nyy74h78drrt8h8",265,"181.csv","","191.70000000298023","resources/trios/L1T2A3.jpg","38","restless",0.5,0.7,0.5,0.894020525337816,"false"
"image-keyboard-response",268,239114,"0.0-4.85-1.85","nyy74h78drrt8h8",265,"181.csv","","null","resources/maskTrios/BT2B.jpg","null","",NA,NA,NA,NA,""
"image-keyboard-response",269,240331,"0.0-4.85-2.85","nyy74h78drrt8h8",265,"181.csv","","null","resources/images/fishbone.png","null","",NA,NA,NA,NA,""
"image-keyboard-response",270,240487,"0.0-4.86-0.86","nyy74h78drrt8h8",265,"181.csv","","154.90000000596046","resources/trios/L1T2A3.jpg","38","restless",0.5,0.7,0.5,0.0775192611461781,"true"
"image-keyboard-response",271,240890,"0.0-4.86-1.86","nyy74h78drrt8h8",265,"181.csv","","null","resources/maskTrios/BT2B.jpg","null","",NA,NA,NA,NA,""
"image-keyboard-response",272,242099,"0.0-4.86-2.86","nyy74h78drrt8h8",265,"181.csv","","null","resources/images/coin2.png","null","",NA,NA,NA,NA,""
"image-keyboard-response",273,242148,"0.0-4.87-0.87","nyy74h78drrt8h8",265,"181.csv","","47.599999994039536","resources/trios/L1T2A3.jpg","38","restless",0.5,0.7,0.5,0.905197051163135,"false"
"image-keyboard-response",274,242552,"0.0-4.87-1.87","nyy74h78drrt8h8",265,"181.csv","","null","resources/maskTrios/BT2B.jpg","null","",NA,NA,NA,NA,""
"image-keyboard-response",275,243755,"0.0-4.87-2.87","nyy74h78drrt8h8",265,"181.csv","","null","resources/images/fishbone.png","null","",NA,NA,NA,NA,""
"image-keyboard-response",276,243995,"0.0-4.88-0.88","nyy74h78drrt8h8",265,"181.csv","","238.5","resources/trios/L1T2A3.jpg","38","restless",0.5,0.7,0.5,0.735729418409329,"false"
"image-keyboard-response",277,244409,"0.0-4.88-1.88","nyy74h78drrt8h8",265,"181.csv","","null","resources/maskTrios/BT2B.jpg","null","",NA,NA,NA,NA,""
"image-keyboard-response",278,245625,"0.0-4.88-2.88","nyy74h78drrt8h8",265,"181.csv","","null","resources/images/fishbone.png","null","",NA,NA,NA,NA,""
"image-keyboard-response",279,246096,"0.0-4.89-0.89","nyy74h78drrt8h8",265,"181.csv","","468.79999999701977","resources/trios/L1T2A3.jpg","37","restless",0.5,0.7,0.5,0.333223778332916,"true"
"image-keyboard-response",280,246513,"0.0-4.89-1.89","nyy74h78drrt8h8",265,"181.csv","","null","resources/maskTrios/L1BB.jpg","null","",NA,NA,NA,NA,""
"image-keyboard-response",281,247716,"0.0-4.89-2.89","nyy74h78drrt8h8",265,"181.csv","","null","resources/images/coin2.png","null","",NA,NA,NA,NA,""
"image-keyboard-response",282,247999,"0.0-4.90-0.90","nyy74h78drrt8h8",265,"181.csv","","281.1000000089407","resources/trios/L1T2A3.jpg","37","restless",0.5,0.7,0.5,0.491884250672039,"true"
"image-keyboard-response",283,248415,"0.0-4.90-1.90","nyy74h78drrt8h8",265,"181.csv","","null","resources/maskTrios/L1BB.jpg","null","",NA,NA,NA,NA,""
"image-keyboard-response",284,249616,"0.0-4.90-2.90","nyy74h78drrt8h8",265,"181.csv","","null","resources/images/coin2.png","null","",NA,NA,NA,NA,""
"image-keyboard-response",285,249915,"0.0-4.91-0.91","nyy74h78drrt8h8",265,"181.csv","","297.40000000596046","resources/trios/L1T2A3.jpg","37","restless",0.5,0.7,0.5,0.210713898028473,"true"
"image-keyboard-response",286,250317,"0.0-4.91-1.91","nyy74h78drrt8h8",265,"181.csv","","null","resources/maskTrios/L1BB.jpg","null","",NA,NA,NA,NA,""
"image-keyboard-response",287,251522,"0.0-4.91-2.91","nyy74h78drrt8h8",265,"181.csv","","null","resources/images/coin2.png","null","",NA,NA,NA,NA,""
"image-keyboard-response",288,251804,"0.0-4.92-0.92","nyy74h78drrt8h8",265,"181.csv","","280.70000000298023","resources/trios/L1T2A3.jpg","38","restless",0.5,0.7,0.4,0.453089382920381,"true"
"image-keyboard-response",289,252207,"0.0-4.92-1.92","nyy74h78drrt8h8",265,"181.csv","","null","resources/maskTrios/BT2B.jpg","null","",NA,NA,NA,NA,""
"image-keyboard-response",290,253424,"0.0-4.92-2.92","nyy74h78drrt8h8",265,"181.csv","","null","resources/images/coin2.png","null","",NA,NA,NA,NA,""
"image-keyboard-response",291,253671,"0.0-4.93-0.93","nyy74h78drrt8h8",265,"181.csv","","246.70000000298023","resources/trios/L1T2A3.jpg","38","restless",0.5,0.7,0.4,0.392344886383566,"true"
"image-keyboard-response",292,254082,"0.0-4.93-1.93","nyy74h78drrt8h8",265,"181.csv","","null","resources/maskTrios/BT2B.jpg","null","",NA,NA,NA,NA,""
"image-keyboard-response",293,255286,"0.0-4.93-2.93","nyy74h78drrt8h8",265,"181.csv","","null","resources/images/coin2.png","null","",NA,NA,NA,NA,""
"image-keyboard-response",294,255540,"0.0-4.94-0.94","nyy74h78drrt8h8",265,"181.csv","","251.90000000596046","resources/trios/L1T2A3.jpg","37","restless",0.5,0.7,0.4,0.742901956059976,"false"
"image-keyboard-response",295,255941,"0.0-4.94-1.94","nyy74h78drrt8h8",265,"181.csv","","null","resources/maskTrios/L1BB.jpg","null","",NA,NA,NA,NA,""
"image-keyboard-response",296,257154,"0.0-4.94-2.94","nyy74h78drrt8h8",265,"181.csv","","null","resources/images/fishbone.png","null","",NA,NA,NA,NA,""
"image-keyboard-response",297,257403,"0.0-4.95-0.95","nyy74h78drrt8h8",265,"181.csv","","246.90000000596046","resources/trios/L1T2A3.jpg","37","restless",0.5,0.7,0.4,0.772964147667132,"false"
"image-keyboard-response",298,257807,"0.0-4.95-1.95","nyy74h78drrt8h8",265,"181.csv","","null","resources/maskTrios/L1BB.jpg","null","",NA,NA,NA,NA,""
"image-keyboard-response",299,259022,"0.0-4.95-2.95","nyy74h78drrt8h8",265,"181.csv","","null","resources/images/fishbone.png","null","",NA,NA,NA,NA,""
"image-keyboard-response",300,259278,"0.0-4.96-0.96","nyy74h78drrt8h8",265,"181.csv","","254","resources/trios/L1T2A3.jpg","38","restless",0.5,0.7,0.4,0.253179930533465,"true"
"image-keyboard-response",301,259680,"0.0-4.96-1.96","nyy74h78drrt8h8",265,"181.csv","","null","resources/maskTrios/BT2B.jpg","null","",NA,NA,NA,NA,""
"image-keyboard-response",302,260894,"0.0-4.96-2.96","nyy74h78drrt8h8",265,"181.csv","","null","resources/images/coin2.png","null","",NA,NA,NA,NA,""
"image-keyboard-response",303,261139,"0.0-4.97-0.97","nyy74h78drrt8h8",265,"181.csv","","243.20000000298023","resources/trios/L1T2A3.jpg","38","restless",0.5,0.7,0.4,0.294684993921017,"true"
"image-keyboard-response",304,261548,"0.0-4.97-1.97","nyy74h78drrt8h8",265,"181.csv","","null","resources/maskTrios/BT2B.jpg","null","",NA,NA,NA,NA,""
"image-keyboard-response",305,262765,"0.0-4.97-2.97","nyy74h78drrt8h8",265,"181.csv","","null","resources/images/coin2.png","null","",NA,NA,NA,NA,""
"image-keyboard-response",306,263023,"0.0-4.98-0.98","nyy74h78drrt8h8",265,"181.csv","","257.30000001192093","resources/trios/L1T2A3.jpg","38","restless",0.5,0.7,0.4,0.0592254465085735,"true"
"image-keyboard-response",307,263432,"0.0-4.98-1.98","nyy74h78drrt8h8",265,"181.csv","","null","resources/maskTrios/BT2B.jpg","null","",NA,NA,NA,NA,""
"image-keyboard-response",308,264635,"0.0-4.98-2.98","nyy74h78drrt8h8",265,"181.csv","","null","resources/images/coin2.png","null","",NA,NA,NA,NA,""
"image-keyboard-response",309,264755,"0.0-4.99-0.99","nyy74h78drrt8h8",265,"181.csv","","118.3999999910593","resources/trios/L1T2A3.jpg","38","restless",0.5,0.7,0.4,0.806185208222898,"false"
"image-keyboard-response",310,265164,"0.0-4.99-1.99","nyy74h78drrt8h8",265,"181.csv","","null","resources/maskTrios/BT2B.jpg","null","",NA,NA,NA,NA,""
"image-keyboard-response",311,266376,"0.0-4.99-2.99","nyy74h78drrt8h8",265,"181.csv","","null","resources/images/fishbone.png","null","",NA,NA,NA,NA,""
"image-keyboard-response",312,266530,"0.0-4.100-0.100","nyy74h78drrt8h8",265,"181.csv","","151.90000000596046","resources/trios/L1T2A3.jpg","39","restless",0.5,0.7,0.4,0.380515691127738,"true"
"image-keyboard-response",313,266939,"0.0-4.100-1.100","nyy74h78drrt8h8",265,"181.csv","","null","resources/maskTrios/BBA3.jpg","null","",NA,NA,NA,NA,""
"image-keyboard-response",314,268153,"0.0-4.100-2.100","nyy74h78drrt8h8",265,"181.csv","","null","resources/images/coin2.png","null","",NA,NA,NA,NA,""
"image-keyboard-response",315,268771,"0.0-4.101-0.101","nyy74h78drrt8h8",265,"181.csv","","616.1000000089407","resources/trios/L1T2A3.jpg","38","restless",0.5,0.7,0.4,0.00142707942346276,"true"
"image-keyboard-response",316,269182,"0.0-4.101-1.101","nyy74h78drrt8h8",265,"181.csv","","null","resources/maskTrios/BT2B.jpg","null","",NA,NA,NA,NA,""
"image-keyboard-response",317,270385,"0.0-4.101-2.101","nyy74h78drrt8h8",265,"181.csv","","null","resources/images/coin2.png","null","",NA,NA,NA,NA,""
"image-keyboard-response",318,270664,"0.0-4.102-0.102","nyy74h78drrt8h8",265,"181.csv","","276.6000000089407","resources/trios/L1T2A3.jpg","38","restless",0.5,0.7,0.4,0.444314103921716,"true"
"image-keyboard-response",319,271069,"0.0-4.102-1.102","nyy74h78drrt8h8",265,"181.csv","","null","resources/maskTrios/BT2B.jpg","null","",NA,NA,NA,NA,""
"image-keyboard-response",320,272271,"0.0-4.102-2.102","nyy74h78drrt8h8",265,"181.csv","","null","resources/images/coin2.png","null","",NA,NA,NA,NA,""
"image-keyboard-response",321,272489,"0.0-4.103-0.103","nyy74h78drrt8h8",265,"181.csv","","217","resources/trios/L1T2A3.jpg","38","restless",0.5,0.7,0.3,0.200221973272177,"true"
"image-keyboard-response",322,272895,"0.0-4.103-1.103","nyy74h78drrt8h8",265,"181.csv","","null","resources/maskTrios/BT2B.jpg","null","",NA,NA,NA,NA,""
"image-keyboard-response",323,274097,"0.0-4.103-2.103","nyy74h78drrt8h8",265,"181.csv","","null","resources/images/coin2.png","null","",NA,NA,NA,NA,""
"image-keyboard-response",324,274310,"0.0-4.104-0.104","nyy74h78drrt8h8",265,"181.csv","","211.70000000298023","resources/trios/L1T2A3.jpg","38","restless",0.5,0.8,0.3,0.14108559138173,"true"
"image-keyboard-response",325,274722,"0.0-4.104-1.104","nyy74h78drrt8h8",265,"181.csv","","null","resources/maskTrios/BT2B.jpg","null","",NA,NA,NA,NA,""
"image-keyboard-response",326,275937,"0.0-4.104-2.104","nyy74h78drrt8h8",265,"181.csv","","null","resources/images/coin2.png","null","",NA,NA,NA,NA,""
"image-keyboard-response",327,276795,"0.0-4.105-0.105","nyy74h78drrt8h8",265,"181.csv","","856.7999999970198","resources/trios/L1T2A3.jpg","38","restless",0.5,0.8,0.4,0.27417077534872,"true"
"image-keyboard-response",328,277200,"0.0-4.105-1.105","nyy74h78drrt8h8",265,"181.csv","","null","resources/maskTrios/BT2B.jpg","null","",NA,NA,NA,NA,""
"image-keyboard-response",329,278415,"0.0-4.105-2.105","nyy74h78drrt8h8",265,"181.csv","","null","resources/images/coin2.png","null","",NA,NA,NA,NA,""
"image-keyboard-response",330,278710,"0.0-4.106-0.106","nyy74h78drrt8h8",265,"181.csv","","293","resources/trios/L1T2A3.jpg","38","restless",0.5,0.7,0.5,0.290971595831673,"true"
"image-keyboard-response",331,279115,"0.0-4.106-1.106","nyy74h78drrt8h8",265,"181.csv","","null","resources/maskTrios/BT2B.jpg","null","",NA,NA,NA,NA,""
"image-keyboard-response",332,280328,"0.0-4.106-2.106","nyy74h78drrt8h8",265,"181.csv","","null","resources/images/coin2.png","null","",NA,NA,NA,NA,""
"image-keyboard-response",333,280635,"0.0-4.107-0.107","nyy74h78drrt8h8",265,"181.csv","","305.29999999701977","resources/trios/L1T2A3.jpg","38","restless",0.5,0.8,0.5,0.599261230163789,"true"
"image-keyboard-response",334,281045,"0.0-4.107-1.107","nyy74h78drrt8h8",265,"181.csv","","null","resources/maskTrios/BT2B.jpg","null","",NA,NA,NA,NA,""
"image-keyboard-response",335,282261,"0.0-4.107-2.107","nyy74h78drrt8h8",265,"181.csv","","null","resources/images/coin2.png","null","",NA,NA,NA,NA,""
"image-keyboard-response",336,282626,"0.0-4.108-0.108","nyy74h78drrt8h8",265,"181.csv","","363.5","resources/trios/L1T2A3.jpg","38","restless",0.5,0.8,0.5,0.146699799395358,"true"
"image-keyboard-response",337,283043,"0.0-4.108-1.108","nyy74h78drrt8h8",265,"181.csv","","null","resources/maskTrios/BT2B.jpg","null","",NA,NA,NA,NA,""
"image-keyboard-response",338,284245,"0.0-4.108-2.108","nyy74h78drrt8h8",265,"181.csv","","null","resources/images/coin2.png","null","",NA,NA,NA,NA,""
"image-keyboard-response",339,284469,"0.0-4.109-0.109","nyy74h78drrt8h8",265,"181.csv","","222.79999999701977","resources/trios/L1T2A3.jpg","37","restless",0.5,0.7,0.6,0.959988596460326,"false"
"image-keyboard-response",340,284880,"0.0-4.109-1.109","nyy74h78drrt8h8",265,"181.csv","","null","resources/maskTrios/L1BB.jpg","null","",NA,NA,NA,NA,""
"image-keyboard-response",341,286082,"0.0-4.109-2.109","nyy74h78drrt8h8",265,"181.csv","","null","resources/images/fishbone.png","null","",NA,NA,NA,NA,""
"image-keyboard-response",342,286350,"0.0-4.110-0.110","nyy74h78drrt8h8",265,"181.csv","","267.20000000298023","resources/trios/L1T2A3.jpg","38","restless",0.5,0.7,0.6,0.678184228135522,"true"
"image-keyboard-response",343,286753,"0.0-4.110-1.110","nyy74h78drrt8h8",265,"181.csv","","null","resources/maskTrios/BT2B.jpg","null","",NA,NA,NA,NA,""
"image-keyboard-response",344,287969,"0.0-4.110-2.110","nyy74h78drrt8h8",265,"181.csv","","null","resources/images/coin2.png","null","",NA,NA,NA,NA,""
"image-keyboard-response",345,288241,"0.0-4.111-0.111","nyy74h78drrt8h8",265,"181.csv","","271.1000000089407","resources/trios/L1T2A3.jpg","38","restless",0.5,0.7,0.6,0.243100594523043,"true"
"image-keyboard-response",346,288656,"0.0-4.111-1.111","nyy74h78drrt8h8",265,"181.csv","","null","resources/maskTrios/BT2B.jpg","null","",NA,NA,NA,NA,""
"image-keyboard-response",347,289871,"0.0-4.111-2.111","nyy74h78drrt8h8",265,"181.csv","","null","resources/images/coin2.png","null","",NA,NA,NA,NA,""
"image-keyboard-response",348,290173,"0.0-4.112-0.112","nyy74h78drrt8h8",265,"181.csv","","300","resources/trios/L1T2A3.jpg","38","restless",0.5,0.7,0.6,0.130457403337089,"true"
"image-keyboard-response",349,290576,"0.0-4.112-1.112","nyy74h78drrt8h8",265,"181.csv","","null","resources/maskTrios/BT2B.jpg","null","",NA,NA,NA,NA,""
"image-keyboard-response",350,291781,"0.0-4.112-2.112","nyy74h78drrt8h8",265,"181.csv","","null","resources/images/coin2.png","null","",NA,NA,NA,NA,""
"image-keyboard-response",351,291967,"0.0-4.113-0.113","nyy74h78drrt8h8",265,"181.csv","","183.59999999403954","resources/trios/L1T2A3.jpg","38","restless",0.5,0.7,0.5,0.993495041482342,"false"
"image-keyboard-response",352,292374,"0.0-4.113-1.113","nyy74h78drrt8h8",265,"181.csv","","null","resources/maskTrios/BT2B.jpg","null","",NA,NA,NA,NA,""
"image-keyboard-response",353,293575,"0.0-4.113-2.113","nyy74h78drrt8h8",265,"181.csv","","null","resources/images/fishbone.png","null","",NA,NA,NA,NA,""
"image-keyboard-response",354,293775,"0.0-4.114-0.114","nyy74h78drrt8h8",265,"181.csv","","199.40000000596046","resources/trios/L1T2A3.jpg","38","restless",0.5,0.7,0.5,0.809192213981635,"false"
"image-keyboard-response",355,294185,"0.0-4.114-1.114","nyy74h78drrt8h8",265,"181.csv","","null","resources/maskTrios/BT2B.jpg","null","",NA,NA,NA,NA,""
"image-keyboard-response",356,295399,"0.0-4.114-2.114","nyy74h78drrt8h8",265,"181.csv","","null","resources/images/fishbone.png","null","",NA,NA,NA,NA,""
"image-keyboard-response",357,295663,"0.0-4.115-0.115","nyy74h78drrt8h8",265,"181.csv","","262","resources/trios/L1T2A3.jpg","38","restless",0.4,0.7,0.5,0.294968959322285,"true"
"image-keyboard-response",358,296079,"0.0-4.115-1.115","nyy74h78drrt8h8",265,"181.csv","","null","resources/maskTrios/BT2B.jpg","null","",NA,NA,NA,NA,""
"image-keyboard-response",359,297295,"0.0-4.115-2.115","nyy74h78drrt8h8",265,"181.csv","","null","resources/images/coin2.png","null","",NA,NA,NA,NA,""
"image-keyboard-response",360,297542,"0.0-4.116-0.116","nyy74h78drrt8h8",265,"181.csv","","246","resources/trios/L1T2A3.jpg","38","restless",0.4,0.7,0.5,0.15303171445033,"true"
"image-keyboard-response",361,297949,"0.0-4.116-1.116","nyy74h78drrt8h8",265,"181.csv","","null","resources/maskTrios/BT2B.jpg","null","",NA,NA,NA,NA,""
"image-keyboard-response",362,299166,"0.0-4.116-2.116","nyy74h78drrt8h8",265,"181.csv","","null","resources/images/coin2.png","null","",NA,NA,NA,NA,""
"image-keyboard-response",363,299611,"0.0-4.117-0.117","nyy74h78drrt8h8",265,"181.csv","","444.09999999403954","resources/trios/L1T2A3.jpg","38","restless",0.4,0.7,0.5,0.435999768839168,"true"
"image-keyboard-response",364,300025,"0.0-4.117-1.117","nyy74h78drrt8h8",265,"181.csv","","null","resources/maskTrios/BT2B.jpg","null","",NA,NA,NA,NA,""
"image-keyboard-response",365,301228,"0.0-4.117-2.117","nyy74h78drrt8h8",265,"181.csv","","null","resources/images/coin2.png","null","",NA,NA,NA,NA,""
"image-keyboard-response",366,301461,"0.0-4.118-0.118","nyy74h78drrt8h8",265,"181.csv","","232.1000000089407","resources/trios/L1T2A3.jpg","38","restless",0.4,0.7,0.5,0.545991111471833,"true"
"image-keyboard-response",367,301869,"0.0-4.118-1.118","nyy74h78drrt8h8",265,"181.csv","","null","resources/maskTrios/BT2B.jpg","null","",NA,NA,NA,NA,""
"image-keyboard-response",368,303083,"0.0-4.118-2.118","nyy74h78drrt8h8",265,"181.csv","","null","resources/images/coin2.png","null","",NA,NA,NA,NA,""
"image-keyboard-response",369,303405,"0.0-4.119-0.119","nyy74h78drrt8h8",265,"181.csv","","321.29999999701977","resources/trios/L1T2A3.jpg","38","restless",0.4,0.7,0.5,0.143275457268054,"true"
"image-keyboard-response",370,303813,"0.0-4.119-1.119","nyy74h78drrt8h8",265,"181.csv","","null","resources/maskTrios/BT2B.jpg","null","",NA,NA,NA,NA,""
"image-keyboard-response",371,305029,"0.0-4.119-2.119","nyy74h78drrt8h8",265,"181.csv","","null","resources/images/coin2.png","null","",NA,NA,NA,NA,""
"image-keyboard-response",372,305279,"0.0-4.120-0.120","nyy74h78drrt8h8",265,"181.csv","","248.80000001192093","resources/trios/L1T2A3.jpg","38","restless",0.4,0.7,0.5,0.144277992698408,"true"
"image-keyboard-response",373,305683,"0.0-4.120-1.120","nyy74h78drrt8h8",265,"181.csv","","null","resources/maskTrios/BT2B.jpg","null","",NA,NA,NA,NA,""
"image-keyboard-response",374,306898,"0.0-4.120-2.120","nyy74h78drrt8h8",265,"181.csv","","null","resources/images/coin2.png","null","",NA,NA,NA,NA,""
"image-keyboard-response",375,307109,"0.0-4.121-0.121","nyy74h78drrt8h8",265,"181.csv","","210.5","resources/trios/L1T2A3.jpg","38","restless",0.4,0.6,0.5,0.502850570082239,"true"
"image-keyboard-response",376,307519,"0.0-4.121-1.121","nyy74h78drrt8h8",265,"181.csv","","null","resources/maskTrios/BT2B.jpg","null","",NA,NA,NA,NA,""
"image-keyboard-response",377,308729,"0.0-4.121-2.121","nyy74h78drrt8h8",265,"181.csv","","null","resources/images/coin2.png","null","",NA,NA,NA,NA,""
"image-keyboard-response",378,309103,"0.0-4.122-0.122","nyy74h78drrt8h8",265,"181.csv","","372","resources/trios/L1T2A3.jpg","38","restless",0.4,0.6,0.5,0.411197146839337,"true"
"image-keyboard-response",379,309510,"0.0-4.122-1.122","nyy74h78drrt8h8",265,"181.csv","","null","resources/maskTrios/BT2B.jpg","null","",NA,NA,NA,NA,""
"image-keyboard-response",380,310712,"0.0-4.122-2.122","nyy74h78drrt8h8",265,"181.csv","","null","resources/images/coin2.png","null","",NA,NA,NA,NA,""
"image-keyboard-response",381,310991,"0.0-4.123-0.123","nyy74h78drrt8h8",265,"181.csv","","277.29999999701977","resources/trios/L1T2A3.jpg","38","restless",0.4,0.6,0.5,0.0460347798609491,"true"
"image-keyboard-response",382,311397,"0.0-4.123-1.123","nyy74h78drrt8h8",265,"181.csv","","null","resources/maskTrios/BT2B.jpg","null","",NA,NA,NA,NA,""
"image-keyboard-response",383,312599,"0.0-4.123-2.123","nyy74h78drrt8h8",265,"181.csv","","null","resources/images/coin2.png","null","",NA,NA,NA,NA,""
"image-keyboard-response",384,312860,"0.0-4.124-0.124","nyy74h78drrt8h8",265,"181.csv","","260.1000000089407","resources/trios/L1T2A3.jpg","38","restless",0.4,0.6,0.5,0.868853198649475,"false"
"image-keyboard-response",385,313266,"0.0-4.124-1.124","nyy74h78drrt8h8",265,"181.csv","","null","resources/maskTrios/BT2B.jpg","null","",NA,NA,NA,NA,""
"image-keyboard-response",386,314469,"0.0-4.124-2.124","nyy74h78drrt8h8",265,"181.csv","","null","resources/images/fishbone.png","null","",NA,NA,NA,NA,""
"image-keyboard-response",387,314727,"0.0-4.125-0.125","nyy74h78drrt8h8",265,"181.csv","","255.6000000089407","resources/trios/L1T2A3.jpg","38","restless",0.4,0.6,0.5,0.416756688555402,"true"
"image-keyboard-response",388,315139,"0.0-4.125-1.125","nyy74h78drrt8h8",265,"181.csv","","null","resources/maskTrios/BT2B.jpg","null","",NA,NA,NA,NA,""
"image-keyboard-response",389,316353,"0.0-4.125-2.125","nyy74h78drrt8h8",265,"181.csv","","null","resources/images/coin2.png","null","",NA,NA,NA,NA,""
"image-keyboard-response",390,316625,"0.0-4.126-0.126","nyy74h78drrt8h8",265,"181.csv","","271.59999999403954","resources/trios/L1T2A3.jpg","38","restless",0.4,0.6,0.5,0.242987910240913,"true"
"image-keyboard-response",391,317037,"0.0-4.126-1.126","nyy74h78drrt8h8",265,"181.csv","","null","resources/maskTrios/BT2B.jpg","null","",NA,NA,NA,NA,""
"image-keyboard-response",392,318241,"0.0-4.126-2.126","nyy74h78drrt8h8",265,"181.csv","","null","resources/images/coin2.png","null","",NA,NA,NA,NA,""
"image-keyboard-response",393,318477,"0.0-4.127-0.127","nyy74h78drrt8h8",265,"181.csv","","234.29999999701977","resources/trios/L1T2A3.jpg","38","restless",0.5,0.6,0.5,0.691579219011426,"false"
"image-keyboard-response",394,318893,"0.0-4.127-1.127","nyy74h78drrt8h8",265,"181.csv","","null","resources/maskTrios/BT2B.jpg","null","",NA,NA,NA,NA,""
"image-keyboard-response",395,320097,"0.0-4.127-2.127","nyy74h78drrt8h8",265,"181.csv","","null","resources/images/fishbone.png","null","",NA,NA,NA,NA,""
"image-keyboard-response",396,320306,"0.0-4.128-0.128","nyy74h78drrt8h8",265,"181.csv","","207.70000000298023","resources/trios/L1T2A3.jpg","38","restless",0.5,0.6,0.5,0.0418331502979423,"true"
"image-keyboard-response",397,320723,"0.0-4.128-1.128","nyy74h78drrt8h8",265,"181.csv","","null","resources/maskTrios/BT2B.jpg","null","",NA,NA,NA,NA,""
"image-keyboard-response",398,321937,"0.0-4.128-2.128","nyy74h78drrt8h8",265,"181.csv","","null","resources/images/coin2.png","null","",NA,NA,NA,NA,""
"image-keyboard-response",399,322191,"0.0-4.129-0.129","nyy74h78drrt8h8",265,"181.csv","","253.20000000298023","resources/trios/L1T2A3.jpg","38","restless",0.5,0.6,0.5,0.990079392084243,"false"
"image-keyboard-response",400,322603,"0.0-4.129-1.129","nyy74h78drrt8h8",265,"181.csv","","null","resources/maskTrios/BT2B.jpg","null","",NA,NA,NA,NA,""
"image-keyboard-response",401,323820,"0.0-4.129-2.129","nyy74h78drrt8h8",265,"181.csv","","null","resources/images/fishbone.png","null","",NA,NA,NA,NA,""
"image-keyboard-response",402,324120,"0.0-4.130-0.130","nyy74h78drrt8h8",265,"181.csv","","299.5","resources/trios/L1T2A3.jpg","38","restless",0.6,0.6,0.5,0.710489897250187,"false"
"image-keyboard-response",403,324537,"0.0-4.130-1.130","nyy74h78drrt8h8",265,"181.csv","","null","resources/maskTrios/BT2B.jpg","null","",NA,NA,NA,NA,""
"image-keyboard-response",404,325752,"0.0-4.130-2.130","nyy74h78drrt8h8",265,"181.csv","","null","resources/images/fishbone.png","null","",NA,NA,NA,NA,""
"image-keyboard-response",405,325930,"0.0-4.131-0.131","nyy74h78drrt8h8",265,"181.csv","","176.70000000298023","resources/trios/L1T2A3.jpg","38","restless",0.6,0.6,0.5,0.52518783680693,"true"
"image-keyboard-response",406,326333,"0.0-4.131-1.131","nyy74h78drrt8h8",265,"181.csv","","null","resources/maskTrios/BT2B.jpg","null","",NA,NA,NA,NA,""
"image-keyboard-response",407,327537,"0.0-4.131-2.131","nyy74h78drrt8h8",265,"181.csv","","null","resources/images/coin2.png","null","",NA,NA,NA,NA,""
"image-keyboard-response",408,327786,"0.0-4.132-0.132","nyy74h78drrt8h8",265,"181.csv","","247.1000000089407","resources/trios/L1T2A3.jpg","38","restless",0.6,0.6,0.5,0.357932556941687,"true"
"image-keyboard-response",409,328200,"0.0-4.132-1.132","nyy74h78drrt8h8",265,"181.csv","","null","resources/maskTrios/BT2B.jpg","null","",NA,NA,NA,NA,""
"image-keyboard-response",410,329417,"0.0-4.132-2.132","nyy74h78drrt8h8",265,"181.csv","","null","resources/images/coin2.png","null","",NA,NA,NA,NA,""
"image-keyboard-response",411,329645,"0.0-4.133-0.133","nyy74h78drrt8h8",265,"181.csv","","227.20000000298023","resources/trios/L1T2A3.jpg","38","restless",0.6,0.6,0.5,0.486246025410106,"true"
"image-keyboard-response",412,330057,"0.0-4.133-1.133","nyy74h78drrt8h8",265,"181.csv","","null","resources/maskTrios/BT2B.jpg","null","",NA,NA,NA,NA,""
"image-keyboard-response",413,331271,"0.0-4.133-2.133","nyy74h78drrt8h8",265,"181.csv","","null","resources/images/coin2.png","null","",NA,NA,NA,NA,""
"image-keyboard-response",414,331599,"0.0-4.134-0.134","nyy74h78drrt8h8",265,"181.csv","","325.79999999701977","resources/trios/L1T2A3.jpg","38","restless",0.6,0.6,0.5,0.729228757741994,"false"
"image-keyboard-response",415,332007,"0.0-4.134-1.134","nyy74h78drrt8h8",265,"181.csv","","null","resources/maskTrios/BT2B.jpg","null","",NA,NA,NA,NA,""
"image-keyboard-response",416,333219,"0.0-4.134-2.134","nyy74h78drrt8h8",265,"181.csv","","null","resources/images/fishbone.png","null","",NA,NA,NA,NA,""
"image-keyboard-response",417,333553,"0.0-4.135-0.135","nyy74h78drrt8h8",265,"181.csv","","331.6000000089407","resources/trios/L1T2A3.jpg","38","restless",0.6,0.6,0.4,0.365805817686877,"true"
"image-keyboard-response",418,333968,"0.0-4.135-1.135","nyy74h78drrt8h8",265,"181.csv","","null","resources/maskTrios/BT2B.jpg","null","",NA,NA,NA,NA,""
"image-keyboard-response",419,335185,"0.0-4.135-2.135","nyy74h78drrt8h8",265,"181.csv","","null","resources/images/coin2.png","null","",NA,NA,NA,NA,""
"image-keyboard-response",420,335427,"0.0-4.136-0.136","nyy74h78drrt8h8",265,"181.csv","","240.29999999701977","resources/trios/L1T2A3.jpg","38","restless",0.6,0.6,0.4,0.762740787708121,"false"
"image-keyboard-response",421,335837,"0.0-4.136-1.136","nyy74h78drrt8h8",265,"181.csv","","null","resources/maskTrios/BT2B.jpg","null","",NA,NA,NA,NA,""
"image-keyboard-response",422,337050,"0.0-4.136-2.136","nyy74h78drrt8h8",265,"181.csv","","null","resources/images/fishbone.png","null","",NA,NA,NA,NA,""
"image-keyboard-response",423,337257,"0.0-4.137-0.137","nyy74h78drrt8h8",265,"181.csv","","206.3999999910593","resources/trios/L1T2A3.jpg","38","restless",0.6,0.6,0.4,0.101649002281399,"true"
"image-keyboard-response",424,337672,"0.0-4.137-1.137","nyy74h78drrt8h8",265,"181.csv","","null","resources/maskTrios/BT2B.jpg","null","",NA,NA,NA,NA,""
"image-keyboard-response",425,338874,"0.0-4.137-2.137","nyy74h78drrt8h8",265,"181.csv","","null","resources/images/coin2.png","null","",NA,NA,NA,NA,""
"image-keyboard-response",426,339027,"0.0-4.138-0.138","nyy74h78drrt8h8",265,"181.csv","","151.5","resources/trios/L1T2A3.jpg","38","restless",0.6,0.6,0.4,0.144064947168692,"true"
"image-keyboard-response",427,339437,"0.0-4.138-1.138","nyy74h78drrt8h8",265,"181.csv","","null","resources/maskTrios/BT2B.jpg","null","",NA,NA,NA,NA,""
"image-keyboard-response",428,340642,"0.0-4.138-2.138","nyy74h78drrt8h8",265,"181.csv","","null","resources/images/coin2.png","null","",NA,NA,NA,NA,""
"image-keyboard-response",429,340891,"0.0-4.139-0.139","nyy74h78drrt8h8",265,"181.csv","","247.59999999403954","resources/trios/L1T2A3.jpg","38","restless",0.6,0.6,0.3,0.059285638278614,"true"
"image-keyboard-response",430,341294,"0.0-4.139-1.139","nyy74h78drrt8h8",265,"181.csv","","null","resources/maskTrios/BT2B.jpg","null","",NA,NA,NA,NA,""
"image-keyboard-response",431,342509,"0.0-4.139-2.139","nyy74h78drrt8h8",265,"181.csv","","null","resources/images/coin2.png","null","",NA,NA,NA,NA,""
"image-keyboard-response",432,342798,"0.0-4.140-0.140","nyy74h78drrt8h8",265,"181.csv","","287.30000001192093","resources/trios/L1T2A3.jpg","38","restless",0.6,0.6,0.3,0.653017620669044,"false"
"image-keyboard-response",433,343209,"0.0-4.140-1.140","nyy74h78drrt8h8",265,"181.csv","","null","resources/maskTrios/BT2B.jpg","null","",NA,NA,NA,NA,""
"image-keyboard-response",434,344422,"0.0-4.140-2.140","nyy74h78drrt8h8",265,"181.csv","","null","resources/images/fishbone.png","null","",NA,NA,NA,NA,""
"image-keyboard-response",435,344993,"0.0-4.141-0.141","nyy74h78drrt8h8",265,"181.csv","","569.7999999970198","resources/trios/L1T2A3.jpg","38","restless",0.6,0.6,0.3,0.109423026439775,"true"
"image-keyboard-response",436,345409,"0.0-4.141-1.141","nyy74h78drrt8h8",265,"181.csv","","null","resources/maskTrios/BT2B.jpg","null","",NA,NA,NA,NA,""
"image-keyboard-response",437,346624,"0.0-4.141-2.141","nyy74h78drrt8h8",265,"181.csv","","null","resources/images/coin2.png","null","",NA,NA,NA,NA,""
"image-keyboard-response",438,346706,"0.0-4.142-0.142","nyy74h78drrt8h8",265,"181.csv","","81.40000000596046","resources/trios/L1T2A3.jpg","38","restless",0.6,0.6,0.3,0.726621063225557,"false"
"image-keyboard-response",439,347121,"0.0-4.142-1.142","nyy74h78drrt8h8",265,"181.csv","","null","resources/maskTrios/BT2B.jpg","null","",NA,NA,NA,NA,""
"image-keyboard-response",440,348322,"0.0-4.142-2.142","nyy74h78drrt8h8",265,"181.csv","","null","resources/images/fishbone.png","null","",NA,NA,NA,NA,""
"image-keyboard-response",441,348354,"0.0-4.143-0.143","nyy74h78drrt8h8",265,"181.csv","","30.5","resources/trios/L1T2A3.jpg","38","restless",0.6,0.6,0.3,0.712637059244549,"false"
"image-keyboard-response",442,348756,"0.0-4.143-1.143","nyy74h78drrt8h8",265,"181.csv","","null","resources/maskTrios/BT2B.jpg","null","",NA,NA,NA,NA,""
"image-keyboard-response",443,349958,"0.0-4.143-2.143","nyy74h78drrt8h8",265,"181.csv","","null","resources/images/fishbone.png","null","",NA,NA,NA,NA,""
"image-keyboard-response",444,350126,"0.0-4.144-0.144","nyy74h78drrt8h8",265,"181.csv","","165.6000000089407","resources/trios/L1T2A3.jpg","38","restless",0.6,0.6,0.3,0.299671409569279,"true"
"image-keyboard-response",445,350539,"0.0-4.144-1.144","nyy74h78drrt8h8",265,"181.csv","","null","resources/maskTrios/BT2B.jpg","null","",NA,NA,NA,NA,""
"image-keyboard-response",446,351754,"0.0-4.144-2.144","nyy74h78drrt8h8",265,"181.csv","","null","resources/images/coin2.png","null","",NA,NA,NA,NA,""
"image-keyboard-response",447,351760,"0.0-4.145-0.145","nyy74h78drrt8h8",265,"181.csv","","3.5999999940395355","resources/trios/L1T2A3.jpg","38","restless",0.6,0.6,0.3,0.0279377033910533,"true"
"image-keyboard-response",448,352175,"0.0-4.145-1.145","nyy74h78drrt8h8",265,"181.csv","","null","resources/maskTrios/BT2B.jpg","null","",NA,NA,NA,NA,""
"image-keyboard-response",449,353376,"0.0-4.145-2.145","nyy74h78drrt8h8",265,"181.csv","","null","resources/images/coin2.png","null","",NA,NA,NA,NA,""
"image-keyboard-response",450,353479,"0.0-4.146-0.146","nyy74h78drrt8h8",265,"181.csv","","101.29999999701977","resources/trios/L1T2A3.jpg","38","restless",0.6,0.6,0.3,0.041622460995745,"true"
"image-keyboard-response",451,353891,"0.0-4.146-1.146","nyy74h78drrt8h8",265,"181.csv","","null","resources/maskTrios/BT2B.jpg","null","",NA,NA,NA,NA,""
"image-keyboard-response",452,355094,"0.0-4.146-2.146","nyy74h78drrt8h8",265,"181.csv","","null","resources/images/coin2.png","null","",NA,NA,NA,NA,""
"image-keyboard-response",453,355121,"0.0-4.147-0.147","nyy74h78drrt8h8",265,"181.csv","","26.099999994039536","resources/trios/L1T2A3.jpg","38","restless",0.6,0.6,0.4,0.0631827316048781,"true"
"image-keyboard-response",454,355535,"0.0-4.147-1.147","nyy74h78drrt8h8",265,"181.csv","","null","resources/maskTrios/BT2B.jpg","null","",NA,NA,NA,NA,""
"image-keyboard-response",455,356751,"0.0-4.147-2.147","nyy74h78drrt8h8",265,"181.csv","","null","resources/images/coin2.png","null","",NA,NA,NA,NA,""
"image-keyboard-response",456,356931,"0.0-4.148-0.148","nyy74h78drrt8h8",265,"181.csv","","179.30000001192093","resources/trios/L1T2A3.jpg","38","restless",0.6,0.6,0.5,0.704321594632472,"false"
"image-keyboard-response",457,357344,"0.0-4.148-1.148","nyy74h78drrt8h8",265,"181.csv","","null","resources/maskTrios/BT2B.jpg","null","",NA,NA,NA,NA,""
"image-keyboard-response",458,358549,"0.0-4.148-2.148","nyy74h78drrt8h8",265,"181.csv","","null","resources/images/fishbone.png","null","",NA,NA,NA,NA,""
"image-keyboard-response",459,358569,"0.0-4.149-0.149","nyy74h78drrt8h8",265,"181.csv","","17.900000005960464","resources/trios/L1T2A3.jpg","38","restless",0.6,0.6,0.5,0.639963904825247,"false"
"image-keyboard-response",460,358984,"0.0-4.149-1.149","nyy74h78drrt8h8",265,"181.csv","","null","resources/maskTrios/BT2B.jpg","null","",NA,NA,NA,NA,""
"image-keyboard-response",461,360200,"0.0-4.149-2.149","nyy74h78drrt8h8",265,"181.csv","","null","resources/images/fishbone.png","null","",NA,NA,NA,NA,""
"image-keyboard-response",462,360249,"0.0-4.150-0.150","nyy74h78drrt8h8",265,"181.csv","","48.3999999910593","resources/trios/L1T2A3.jpg","38","restless",0.6,0.6,0.5,0.426564630358513,"true"
"image-keyboard-response",463,360652,"0.0-4.150-1.150","nyy74h78drrt8h8",265,"181.csv","","null","resources/maskTrios/BT2B.jpg","null","",NA,NA,NA,NA,""
"image-keyboard-response",464,361860,"0.0-4.150-2.150","nyy74h78drrt8h8",265,"181.csv","","null","resources/images/coin2.png","null","",NA,NA,NA,NA,""
"image-keyboard-response",465,361886,"0.0-4.151-0.151","nyy74h78drrt8h8",265,"181.csv","","24.099999994039536","resources/trios/L1T2A3.jpg","38","restless",0.6,0.6,0.5,0.781873664232991,"false"
"image-keyboard-response",466,362300,"0.0-4.151-1.151","nyy74h78drrt8h8",265,"181.csv","","null","resources/maskTrios/BT2B.jpg","null","",NA,NA,NA,NA,""
"image-keyboard-response",467,363515,"0.0-4.151-2.151","nyy74h78drrt8h8",265,"181.csv","","null","resources/images/fishbone.png","null","",NA,NA,NA,NA,""
"image-keyboard-response",468,363612,"0.0-4.152-0.152","nyy74h78drrt8h8",265,"181.csv","","95.5","resources/trios/L1T2A3.jpg","38","restless",0.6,0.6,0.5,0.984839201238095,"false"
"image-keyboard-response",469,364013,"0.0-4.152-1.152","nyy74h78drrt8h8",265,"181.csv","","null","resources/maskTrios/BT2B.jpg","null","",NA,NA,NA,NA,""
"image-keyboard-response",470,365229,"0.0-4.152-2.152","nyy74h78drrt8h8",265,"181.csv","","null","resources/images/fishbone.png","null","",NA,NA,NA,NA,""
"image-keyboard-response",471,365347,"0.0-4.153-0.153","nyy74h78drrt8h8",265,"181.csv","","116.59999999403954","resources/trios/L1T2A3.jpg","38","restless",0.6,0.6,0.5,0.0109923679197708,"true"
"image-keyboard-response",472,365759,"0.0-4.153-1.153","nyy74h78drrt8h8",265,"181.csv","","null","resources/maskTrios/BT2B.jpg","null","",NA,NA,NA,NA,""
"image-keyboard-response",473,366962,"0.0-4.153-2.153","nyy74h78drrt8h8",265,"181.csv","","null","resources/images/coin2.png","null","",NA,NA,NA,NA,""
"image-keyboard-response",474,367095,"0.0-4.154-0.154","nyy74h78drrt8h8",265,"181.csv","","132.5","resources/trios/L1T2A3.jpg","38","restless",0.6,0.6,0.5,0.766522472122184,"false"
"image-keyboard-response",475,367505,"0.0-4.154-1.154","nyy74h78drrt8h8",265,"181.csv","","null","resources/maskTrios/BT2B.jpg","null","",NA,NA,NA,NA,""
"image-keyboard-response",476,368715,"0.0-4.154-2.154","nyy74h78drrt8h8",265,"181.csv","","null","resources/images/fishbone.png","null","",NA,NA,NA,NA,""
"image-keyboard-response",477,368815,"0.0-4.155-0.155","nyy74h78drrt8h8",265,"181.csv","","98.5","resources/trios/L1T2A3.jpg","38","restless",0.6,0.6,0.5,0.132208171075049,"true"
"image-keyboard-response",478,369226,"0.0-4.155-1.155","nyy74h78drrt8h8",265,"181.csv","","null","resources/maskTrios/BT2B.jpg","null","",NA,NA,NA,NA,""
"image-keyboard-response",479,370443,"0.0-4.155-2.155","nyy74h78drrt8h8",265,"181.csv","","null","resources/images/coin2.png","null","",NA,NA,NA,NA,""
"image-keyboard-response",480,370617,"0.0-4.156-0.156","nyy74h78drrt8h8",265,"181.csv","","173.79999999701977","resources/trios/L1T2A3.jpg","38","restless",0.6,0.6,0.5,0.950440022052159,"false"
"image-keyboard-response",481,371020,"0.0-4.156-1.156","nyy74h78drrt8h8",265,"181.csv","","null","resources/maskTrios/BT2B.jpg","null","",NA,NA,NA,NA,""
"image-keyboard-response",482,372233,"0.0-4.156-2.156","nyy74h78drrt8h8",265,"181.csv","","null","resources/images/fishbone.png","null","",NA,NA,NA,NA,""
"image-keyboard-response",483,372366,"0.0-4.157-0.157","nyy74h78drrt8h8",265,"181.csv","","132","resources/trios/L1T2A3.jpg","38","restless",0.6,0.6,0.5,0.199153088576879,"true"
"image-keyboard-response",484,372782,"0.0-4.157-1.157","nyy74h78drrt8h8",265,"181.csv","","null","resources/maskTrios/BT2B.jpg","null","",NA,NA,NA,NA,""
"image-keyboard-response",485,373985,"0.0-4.157-2.157","nyy74h78drrt8h8",265,"181.csv","","null","resources/images/coin2.png","null","",NA,NA,NA,NA,""
"image-keyboard-response",486,374059,"0.0-4.158-0.158","nyy74h78drrt8h8",265,"181.csv","","72.40000000596046","resources/trios/L1T2A3.jpg","38","restless",0.6,0.6,0.5,0.415930244851236,"true"
"image-keyboard-response",487,374471,"0.0-4.158-1.158","nyy74h78drrt8h8",265,"181.csv","","null","resources/maskTrios/BT2B.jpg","null","",NA,NA,NA,NA,""
"image-keyboard-response",488,375671,"0.0-4.158-2.158","nyy74h78drrt8h8",265,"181.csv","","null","resources/images/coin2.png","null","",NA,NA,NA,NA,""
"image-keyboard-response",489,375843,"0.0-4.159-0.159","nyy74h78drrt8h8",265,"181.csv","","171.1000000089407","resources/trios/L1T2A3.jpg","38","restless",0.7,0.6,0.6,0.978250717559999,"false"
"image-keyboard-response",490,376250,"0.0-4.159-1.159","nyy74h78drrt8h8",265,"181.csv","","null","resources/maskTrios/BT2B.jpg","null","",NA,NA,NA,NA,""
"image-keyboard-response",491,377454,"0.0-4.159-2.159","nyy74h78drrt8h8",265,"181.csv","","null","resources/images/fishbone.png","null","",NA,NA,NA,NA,""
"image-keyboard-response",492,377610,"0.0-4.160-0.160","nyy74h78drrt8h8",265,"181.csv","","155.1000000089407","resources/trios/L1T2A3.jpg","38","restless",0.7,0.6,0.6,0.765177794272233,"false"
"image-keyboard-response",493,378014,"0.0-4.160-1.160","nyy74h78drrt8h8",265,"181.csv","","null","resources/maskTrios/BT2B.jpg","null","",NA,NA,NA,NA,""
"image-keyboard-response",494,379230,"0.0-4.160-2.160","nyy74h78drrt8h8",265,"181.csv","","null","resources/images/fishbone.png","null","",NA,NA,NA,NA,""
"image-keyboard-response",495,379350,"0.0-4.161-0.161","nyy74h78drrt8h8",265,"181.csv","","117.5","resources/trios/L1T2A3.jpg","38","restless",0.7,0.6,0.6,0.770613795507694,"false"
"image-keyboard-response",496,379763,"0.0-4.161-1.161","nyy74h78drrt8h8",265,"181.csv","","null","resources/maskTrios/BT2B.jpg","null","",NA,NA,NA,NA,""
"image-keyboard-response",497,380977,"0.0-4.161-2.161","nyy74h78drrt8h8",265,"181.csv","","null","resources/images/fishbone.png","null","",NA,NA,NA,NA,""
"image-keyboard-response",498,381091,"0.0-4.162-0.162","nyy74h78drrt8h8",265,"181.csv","","113.29999999701977","resources/trios/L1T2A3.jpg","38","restless",0.7,0.6,0.6,0.803189265029254,"false"
"image-keyboard-response",499,381507,"0.0-4.162-1.162","nyy74h78drrt8h8",265,"181.csv","","null","resources/maskTrios/BT2B.jpg","null","",NA,NA,NA,NA,""
"image-keyboard-response",500,382710,"0.0-4.162-2.162","nyy74h78drrt8h8",265,"181.csv","","null","resources/images/fishbone.png","null","",NA,NA,NA,NA,""
"image-keyboard-response",501,382975,"0.0-4.163-0.163","nyy74h78drrt8h8",265,"181.csv","","263.5","resources/trios/L1T2A3.jpg","38","restless",0.7,0.6,0.6,0.23013378097264,"true"
"image-keyboard-response",502,383381,"0.0-4.163-1.163","nyy74h78drrt8h8",265,"181.csv","","null","resources/maskTrios/BT2B.jpg","null","",NA,NA,NA,NA,""
"image-keyboard-response",503,384593,"0.0-4.163-2.163","nyy74h78drrt8h8",265,"181.csv","","null","resources/images/coin2.png","null","",NA,NA,NA,NA,""
"image-keyboard-response",504,384983,"0.0-4.164-0.164","nyy74h78drrt8h8",265,"181.csv","","388.90000000596046","resources/trios/L1T2A3.jpg","38","restless",0.7,0.6,0.6,0.561913323891675,"true"
"image-keyboard-response",505,385389,"0.0-4.164-1.164","nyy74h78drrt8h8",265,"181.csv","","null","resources/maskTrios/BT2B.jpg","null","",NA,NA,NA,NA,""
"image-keyboard-response",506,386605,"0.0-4.164-2.164","nyy74h78drrt8h8",265,"181.csv","","null","resources/images/coin2.png","null","",NA,NA,NA,NA,""
"image-keyboard-response",507,386612,"0.0-4.165-0.165","nyy74h78drrt8h8",265,"181.csv","","6.0999999940395355","resources/trios/L1T2A3.jpg","38","restless",0.7,0.6,0.6,0.42404461148872,"true"
"image-keyboard-response",508,387013,"0.0-4.165-1.165","nyy74h78drrt8h8",265,"181.csv","","null","resources/maskTrios/BT2B.jpg","null","",NA,NA,NA,NA,""
"image-keyboard-response",509,388216,"0.0-4.165-2.165","nyy74h78drrt8h8",265,"181.csv","","null","resources/images/coin2.png","null","",NA,NA,NA,NA,""
"image-keyboard-response",510,388471,"0.0-4.166-0.166","nyy74h78drrt8h8",265,"181.csv","","253.5","resources/trios/L1T2A3.jpg","38","restless",0.7,0.6,0.6,0.895809212271026,"false"
"image-keyboard-response",511,388874,"0.0-4.166-1.166","nyy74h78drrt8h8",265,"181.csv","","null","resources/maskTrios/BT2B.jpg","null","",NA,NA,NA,NA,""
"image-keyboard-response",512,390088,"0.0-4.166-2.166","nyy74h78drrt8h8",265,"181.csv","","null","resources/images/fishbone.png","null","",NA,NA,NA,NA,""
"image-keyboard-response",513,390195,"0.0-4.167-0.167","nyy74h78drrt8h8",265,"181.csv","","105.70000000298023","resources/trios/L1T2A3.jpg","38","restless",0.6,0.6,0.6,0.136969732506419,"true"
"image-keyboard-response",514,390600,"0.0-4.167-1.167","nyy74h78drrt8h8",265,"181.csv","","null","resources/maskTrios/BT2B.jpg","null","",NA,NA,NA,NA,""
"image-keyboard-response",515,391816,"0.0-4.167-2.167","nyy74h78drrt8h8",265,"181.csv","","null","resources/images/coin2.png","null","",NA,NA,NA,NA,""
"image-keyboard-response",516,392275,"0.0-4.168-0.168","nyy74h78drrt8h8",265,"181.csv","","457.5","resources/trios/L1T2A3.jpg","38","restless",0.6,0.6,0.6,0.0995942601086561,"true"
"image-keyboard-response",517,392685,"0.0-4.168-1.168","nyy74h78drrt8h8",265,"181.csv","","null","resources/maskTrios/BT2B.jpg","null","",NA,NA,NA,NA,""
"image-keyboard-response",518,393889,"0.0-4.168-2.168","nyy74h78drrt8h8",265,"181.csv","","null","resources/images/coin2.png","null","",NA,NA,NA,NA,""
"image-keyboard-response",519,393975,"0.0-4.169-0.169","nyy74h78drrt8h8",265,"181.csv","","84.70000000298023","resources/trios/L1T2A3.jpg","38","restless",0.6,0.6,0.6,0.0771669950157756,"true"
"image-keyboard-response",520,394389,"0.0-4.169-1.169","nyy74h78drrt8h8",265,"181.csv","","null","resources/maskTrios/BT2B.jpg","null","",NA,NA,NA,NA,""
"image-keyboard-response",521,395602,"0.0-4.169-2.169","nyy74h78drrt8h8",265,"181.csv","","null","resources/images/coin2.png","null","",NA,NA,NA,NA,""
"image-keyboard-response",522,395723,"0.0-4.170-0.170","nyy74h78drrt8h8",265,"181.csv","","119.3999999910593","resources/trios/L1T2A3.jpg","38","restless",0.6,0.6,0.6,0.45313614679688,"true"
"image-keyboard-response",523,396135,"0.0-4.170-1.170","nyy74h78drrt8h8",265,"181.csv","","null","resources/maskTrios/BT2B.jpg","null","",NA,NA,NA,NA,""
"image-keyboard-response",524,397337,"0.0-4.170-2.170","nyy74h78drrt8h8",265,"181.csv","","null","resources/images/coin2.png","null","",NA,NA,NA,NA,""
"image-keyboard-response",525,397535,"0.0-4.171-0.171","nyy74h78drrt8h8",265,"181.csv","","195.90000000596046","resources/trios/L1T2A3.jpg","38","restless",0.6,0.6,0.6,0.741307339656389,"false"
"image-keyboard-response",526,397946,"0.0-4.171-1.171","nyy74h78drrt8h8",265,"181.csv","","null","resources/maskTrios/BT2B.jpg","null","",NA,NA,NA,NA,""
"image-keyboard-response",527,399149,"0.0-4.171-2.171","nyy74h78drrt8h8",265,"181.csv","","null","resources/images/fishbone.png","null","",NA,NA,NA,NA,""
"image-keyboard-response",528,399313,"0.0-4.172-0.172","nyy74h78drrt8h8",265,"181.csv","","162.40000000596046","resources/trios/L1T2A3.jpg","38","restless",0.6,0.6,0.6,0.339624008412031,"true"
"image-keyboard-response",529,399726,"0.0-4.172-1.172","nyy74h78drrt8h8",265,"181.csv","","null","resources/maskTrios/BT2B.jpg","null","",NA,NA,NA,NA,""
"image-keyboard-response",530,400939,"0.0-4.172-2.172","nyy74h78drrt8h8",265,"181.csv","","null","resources/images/coin2.png","null","",NA,NA,NA,NA,""
"image-keyboard-response",531,401108,"0.0-4.173-0.173","nyy74h78drrt8h8",265,"181.csv","","168","resources/trios/L1T2A3.jpg","38","restless",0.6,0.6,0.6,0.18431506404101,"true"
"image-keyboard-response",532,401517,"0.0-4.173-1.173","nyy74h78drrt8h8",265,"181.csv","","null","resources/maskTrios/BT2B.jpg","null","",NA,NA,NA,NA,""
"image-keyboard-response",533,402722,"0.0-4.173-2.173","nyy74h78drrt8h8",265,"181.csv","","null","resources/images/coin2.png","null","",NA,NA,NA,NA,""
"image-keyboard-response",534,402867,"0.0-4.174-0.174","nyy74h78drrt8h8",265,"181.csv","","143.59999999403954","resources/trios/L1T2A3.jpg","38","restless",0.6,0.6,0.6,0.938820349711374,"false"
"image-keyboard-response",535,403269,"0.0-4.174-1.174","nyy74h78drrt8h8",265,"181.csv","","null","resources/maskTrios/BT2B.jpg","null","",NA,NA,NA,NA,""
"image-keyboard-response",536,404470,"0.0-4.174-2.174","nyy74h78drrt8h8",265,"181.csv","","null","resources/images/fishbone.png","null","",NA,NA,NA,NA,""
"image-keyboard-response",537,404507,"0.0-4.175-0.175","nyy74h78drrt8h8",265,"181.csv","","35","resources/trios/L1T2A3.jpg","38","restless",0.6,0.5,0.6,0.0984749292311247,"true"
"image-keyboard-response",538,404923,"0.0-4.175-1.175","nyy74h78drrt8h8",265,"181.csv","","null","resources/maskTrios/BT2B.jpg","null","",NA,NA,NA,NA,""
"image-keyboard-response",539,406126,"0.0-4.175-2.175","nyy74h78drrt8h8",265,"181.csv","","null","resources/images/coin2.png","null","",NA,NA,NA,NA,""
"image-keyboard-response",540,406268,"0.0-4.176-0.176","nyy74h78drrt8h8",265,"181.csv","","139.70000000298023","resources/trios/L1T2A3.jpg","38","restless",0.6,0.5,0.6,0.443838829128937,"true"
"image-keyboard-response",541,406670,"0.0-4.176-1.176","nyy74h78drrt8h8",265,"181.csv","","null","resources/maskTrios/BT2B.jpg","null","",NA,NA,NA,NA,""
"image-keyboard-response",542,407872,"0.0-4.176-2.176","nyy74h78drrt8h8",265,"181.csv","","null","resources/images/coin2.png","null","",NA,NA,NA,NA,""
"image-keyboard-response",543,408048,"0.0-4.177-0.177","nyy74h78drrt8h8",265,"181.csv","","174.5","resources/trios/L1T2A3.jpg","38","restless",0.6,0.5,0.6,0.507640634351998,"false"
"image-keyboard-response",544,408462,"0.0-4.177-1.177","nyy74h78drrt8h8",265,"181.csv","","null","resources/maskTrios/BT2B.jpg","null","",NA,NA,NA,NA,""
"image-keyboard-response",545,409674,"0.0-4.177-2.177","nyy74h78drrt8h8",265,"181.csv","","null","resources/images/fishbone.png","null","",NA,NA,NA,NA,""
"image-keyboard-response",546,409897,"0.0-4.178-0.178","nyy74h78drrt8h8",265,"181.csv","","221","resources/trios/L1T2A3.jpg","38","restless",0.6,0.5,0.6,0.363316682540759,"true"
"image-keyboard-response",547,410312,"0.0-4.178-1.178","nyy74h78drrt8h8",265,"181.csv","","null","resources/maskTrios/BT2B.jpg","null","",NA,NA,NA,NA,""
"image-keyboard-response",548,411516,"0.0-4.178-2.178","nyy74h78drrt8h8",265,"181.csv","","null","resources/images/coin2.png","null","",NA,NA,NA,NA,""
"image-keyboard-response",549,411559,"0.0-4.179-0.179","nyy74h78drrt8h8",265,"181.csv","","41.5","resources/trios/L1T2A3.jpg","38","restless",0.6,0.5,0.6,0.195098405455983,"true"
"image-keyboard-response",550,411967,"0.0-4.179-1.179","nyy74h78drrt8h8",265,"181.csv","","null","resources/maskTrios/BT2B.jpg","null","",NA,NA,NA,NA,""
"image-keyboard-response",551,413171,"0.0-4.179-2.179","nyy74h78drrt8h8",265,"181.csv","","null","resources/images/coin2.png","null","",NA,NA,NA,NA,""
"image-keyboard-response",552,413500,"0.0-4.180-0.180","nyy74h78drrt8h8",265,"181.csv","","328.19999998807907","resources/trios/L1T2A3.jpg","38","restless",0.6,0.5,0.6,0.199791589351443,"true"
"image-keyboard-response",553,413903,"0.0-4.180-1.180","nyy74h78drrt8h8",265,"181.csv","","null","resources/maskTrios/BT2B.jpg","null","",NA,NA,NA,NA,""
"image-keyboard-response",554,415108,"0.0-4.180-2.180","nyy74h78drrt8h8",265,"181.csv","","null","resources/images/coin2.png","null","",NA,NA,NA,NA,""
"image-keyboard-response",555,415163,"0.0-4.181-0.181","nyy74h78drrt8h8",265,"181.csv","","54.19999998807907","resources/trios/L1T2A3.jpg","38","restless",0.6,0.5,0.6,0.125992447608354,"true"
"image-keyboard-response",556,415576,"0.0-4.181-1.181","nyy74h78drrt8h8",265,"181.csv","","null","resources/maskTrios/BT2B.jpg","null","",NA,NA,NA,NA,""
"image-keyboard-response",557,416791,"0.0-4.181-2.181","nyy74h78drrt8h8",265,"181.csv","","null","resources/images/coin2.png","null","",NA,NA,NA,NA,""
"image-keyboard-response",558,416857,"0.0-4.182-0.182","nyy74h78drrt8h8",265,"181.csv","","63.900000005960464","resources/trios/L1T2A3.jpg","38","restless",0.5,0.4,0.6,0.057861624202322,"true"
"image-keyboard-response",559,417259,"0.0-4.182-1.182","nyy74h78drrt8h8",265,"181.csv","","null","resources/maskTrios/BT2B.jpg","null","",NA,NA,NA,NA,""
"image-keyboard-response",560,418471,"0.0-4.182-2.182","nyy74h78drrt8h8",265,"181.csv","","null","resources/images/coin2.png","null","",NA,NA,NA,NA,""
"image-keyboard-response",561,418699,"0.0-4.183-0.183","nyy74h78drrt8h8",265,"181.csv","","225.70000000298023","resources/trios/L1T2A3.jpg","38","restless",0.6,0.4,0.6,0.899460418041964,"false"
"image-keyboard-response",562,419112,"0.0-4.183-1.183","nyy74h78drrt8h8",265,"181.csv","","null","resources/maskTrios/BT2B.jpg","null","",NA,NA,NA,NA,""
"image-keyboard-response",563,420313,"0.0-4.183-2.183","nyy74h78drrt8h8",265,"181.csv","","null","resources/images/fishbone.png","null","",NA,NA,NA,NA,""
"image-keyboard-response",564,420558,"0.0-4.184-0.184","nyy74h78drrt8h8",265,"181.csv","","244.29999999701977","resources/trios/L1T2A3.jpg","38","restless",0.6,0.4,0.6,0.672545335668971,"false"
"image-keyboard-response",565,420965,"0.0-4.184-1.184","nyy74h78drrt8h8",265,"181.csv","","null","resources/maskTrios/BT2B.jpg","null","",NA,NA,NA,NA,""
"image-keyboard-response",566,422174,"0.0-4.184-2.184","nyy74h78drrt8h8",265,"181.csv","","null","resources/images/fishbone.png","null","",NA,NA,NA,NA,""
"image-keyboard-response",567,422201,"0.0-4.185-0.185","nyy74h78drrt8h8",265,"181.csv","","25.299999997019768","resources/trios/L1T2A3.jpg","38","restless",0.6,0.4,0.5,0.372342276073603,"true"
"image-keyboard-response",568,422612,"0.0-4.185-1.185","nyy74h78drrt8h8",265,"181.csv","","null","resources/maskTrios/BT2B.jpg","null","",NA,NA,NA,NA,""
"image-keyboard-response",569,423818,"0.0-4.185-2.185","nyy74h78drrt8h8",265,"181.csv","","null","resources/images/coin2.png","null","",NA,NA,NA,NA,""
"image-keyboard-response",570,423925,"0.0-4.186-0.186","nyy74h78drrt8h8",265,"181.csv","","105.5","resources/trios/L1T2A3.jpg","38","restless",0.7,0.3,0.5,0.831923597604395,"false"
"image-keyboard-response",571,424332,"0.0-4.186-1.186","nyy74h78drrt8h8",265,"181.csv","","null","resources/maskTrios/BT2B.jpg","null","",NA,NA,NA,NA,""
"image-keyboard-response",572,425549,"0.0-4.186-2.186","nyy74h78drrt8h8",265,"181.csv","","null","resources/images/fishbone.png","null","",NA,NA,NA,NA,""
"image-keyboard-response",573,425693,"0.0-4.187-0.187","nyy74h78drrt8h8",265,"181.csv","","142.29999999701977","resources/trios/L1T2A3.jpg","38","restless",0.7,0.3,0.5,0.627432623872507,"false"
"image-keyboard-response",574,426096,"0.0-4.187-1.187","nyy74h78drrt8h8",265,"181.csv","","null","resources/maskTrios/BT2B.jpg","null","",NA,NA,NA,NA,""
"image-keyboard-response",575,427311,"0.0-4.187-2.187","nyy74h78drrt8h8",265,"181.csv","","null","resources/images/fishbone.png","null","",NA,NA,NA,NA,""
"image-keyboard-response",576,427349,"0.0-4.188-0.188","nyy74h78drrt8h8",265,"181.csv","","36.79999999701977","resources/trios/L1T2A3.jpg","38","restless",0.7,0.3,0.5,0.79567412332782,"false"
"image-keyboard-response",577,427764,"0.0-4.188-1.188","nyy74h78drrt8h8",265,"181.csv","","null","resources/maskTrios/BT2B.jpg","null","",NA,NA,NA,NA,""
"image-keyboard-response",578,428966,"0.0-4.188-2.188","nyy74h78drrt8h8",265,"181.csv","","null","resources/images/fishbone.png","null","",NA,NA,NA,NA,""
"image-keyboard-response",579,429070,"0.0-4.189-0.189","nyy74h78drrt8h8",265,"181.csv","","102.29999999701977","resources/trios/L1T2A3.jpg","38","restless",0.7,0.3,0.5,0.0941549272399109,"true"
"image-keyboard-response",580,429480,"0.0-4.189-1.189","nyy74h78drrt8h8",265,"181.csv","","null","resources/maskTrios/BT2B.jpg","null","",NA,NA,NA,NA,""
"image-keyboard-response",581,430695,"0.0-4.189-2.189","nyy74h78drrt8h8",265,"181.csv","","null","resources/images/coin2.png","null","",NA,NA,NA,NA,""
"image-keyboard-response",582,430829,"0.0-4.190-0.190","nyy74h78drrt8h8",265,"181.csv","","132.09999999403954","resources/trios/L1T2A3.jpg","38","restless",0.7,0.3,0.5,0.197284121905599,"true"
"image-keyboard-response",583,431241,"0.0-4.190-1.190","nyy74h78drrt8h8",265,"181.csv","","null","resources/maskTrios/BT2B.jpg","null","",NA,NA,NA,NA,""
"image-keyboard-response",584,432453,"0.0-4.190-2.190","nyy74h78drrt8h8",265,"181.csv","","null","resources/images/coin2.png","null","",NA,NA,NA,NA,""
"image-keyboard-response",585,432591,"0.0-4.191-0.191","nyy74h78drrt8h8",265,"181.csv","","136.29999999701977","resources/trios/L1T2A3.jpg","38","restless",0.7,0.3,0.5,0.939423272163313,"false"
"image-keyboard-response",586,432999,"0.0-4.191-1.191","nyy74h78drrt8h8",265,"181.csv","","null","resources/maskTrios/BT2B.jpg","null","",NA,NA,NA,NA,""
"image-keyboard-response",587,434202,"0.0-4.191-2.191","nyy74h78drrt8h8",265,"181.csv","","null","resources/images/fishbone.png","null","",NA,NA,NA,NA,""
"image-keyboard-response",588,434242,"0.0-4.192-0.192","nyy74h78drrt8h8",265,"181.csv","","38.3999999910593","resources/trios/L1T2A3.jpg","38","restless",0.7,0.3,0.4,0.303609737763896,"false"
"image-keyboard-response",589,434652,"0.0-4.192-1.192","nyy74h78drrt8h8",265,"181.csv","","null","resources/maskTrios/BT2B.jpg","null","",NA,NA,NA,NA,""
"image-keyboard-response",590,435855,"0.0-4.192-2.192","nyy74h78drrt8h8",265,"181.csv","","null","resources/images/fishbone.png","null","",NA,NA,NA,NA,""
"image-keyboard-response",591,435982,"0.0-4.193-0.193","nyy74h78drrt8h8",265,"181.csv","","125.20000000298023","resources/trios/L1T2A3.jpg","38","restless",0.7,0.3,0.4,0.25799255086938,"true"
"image-keyboard-response",592,436398,"0.0-4.193-1.193","nyy74h78drrt8h8",265,"181.csv","","null","resources/maskTrios/BT2B.jpg","null","",NA,NA,NA,NA,""
"image-keyboard-response",593,437613,"0.0-4.193-2.193","nyy74h78drrt8h8",265,"181.csv","","null","resources/images/coin2.png","null","",NA,NA,NA,NA,""
"image-keyboard-response",594,437781,"0.0-4.194-0.194","nyy74h78drrt8h8",265,"181.csv","","166.19999998807907","resources/trios/L1T2A3.jpg","38","restless",0.7,0.3,0.4,0.00250249079869946,"true"
"image-keyboard-response",595,438188,"0.0-4.194-1.194","nyy74h78drrt8h8",265,"181.csv","","null","resources/maskTrios/BT2B.jpg","null","",NA,NA,NA,NA,""
"image-keyboard-response",596,439392,"0.0-4.194-2.194","nyy74h78drrt8h8",265,"181.csv","","null","resources/images/coin2.png","null","",NA,NA,NA,NA,""
"image-keyboard-response",597,439574,"0.0-4.195-0.195","nyy74h78drrt8h8",265,"181.csv","","180.20000000298023","resources/trios/L1T2A3.jpg","38","restless",0.7,0.3,0.4,0.65835436371872,"false"
"image-keyboard-response",598,439988,"0.0-4.195-1.195","nyy74h78drrt8h8",265,"181.csv","","null","resources/maskTrios/BT2B.jpg","null","",NA,NA,NA,NA,""
"image-keyboard-response",599,441203,"0.0-4.195-2.195","nyy74h78drrt8h8",265,"181.csv","","null","resources/images/fishbone.png","null","",NA,NA,NA,NA,""
"image-keyboard-response",600,441248,"0.0-4.196-0.196","nyy74h78drrt8h8",265,"181.csv","","43","resources/trios/L1T2A3.jpg","38","restless",0.7,0.3,0.4,0.776236610774759,"false"
"image-keyboard-response",601,441656,"0.0-4.196-1.196","nyy74h78drrt8h8",265,"181.csv","","null","resources/maskTrios/BT2B.jpg","null","",NA,NA,NA,NA,""
"image-keyboard-response",602,442860,"0.0-4.196-2.196","nyy74h78drrt8h8",265,"181.csv","","null","resources/images/fishbone.png","null","",NA,NA,NA,NA,""
"image-keyboard-response",603,443009,"0.0-4.197-0.197","nyy74h78drrt8h8",265,"181.csv","","148.19999998807907","resources/trios/L1T2A3.jpg","38","restless",0.7,0.3,0.4,0.897734306351768,"false"
"image-keyboard-response",604,443415,"0.0-4.197-1.197","nyy74h78drrt8h8",265,"181.csv","","null","resources/maskTrios/BT2B.jpg","null","",NA,NA,NA,NA,""
"image-keyboard-response",605,444630,"0.0-4.197-2.197","nyy74h78drrt8h8",265,"181.csv","","null","resources/images/fishbone.png","null","",NA,NA,NA,NA,""
"image-keyboard-response",606,444666,"0.0-4.198-0.198","nyy74h78drrt8h8",265,"181.csv","","35.400000005960464","resources/trios/L1T2A3.jpg","38","restless",0.7,0.3,0.4,0.955169125057448,"false"
"image-keyboard-response",607,445069,"0.0-4.198-1.198","nyy74h78drrt8h8",265,"181.csv","","null","resources/maskTrios/BT2B.jpg","null","",NA,NA,NA,NA,""
"image-keyboard-response",608,446277,"0.0-4.198-2.198","nyy74h78drrt8h8",265,"181.csv","","null","resources/images/fishbone.png","null","",NA,NA,NA,NA,""
"image-keyboard-response",609,446359,"0.0-4.199-0.199","nyy74h78drrt8h8",265,"181.csv","","80.90000000596046","resources/trios/L1T2A3.jpg","38","restless",0.7,0.3,0.4,0.11878049742831,"true"
