"trial_type","trial_index","time_elapsed","internal_node_id","subject","participantCode","walkNumber","success","rt","stimulus","key_press","test_part","leftProb","midProb","rightProb","generatedNum","correct"
"pavlovia",0,962,"0.0-0.0","1doytpr87kqf58w",569,"158.csv","","","","","",NA,NA,NA,NA,""
"fullscreen",1,547780,"0.0-1.0","1doytpr87kqf58w",569,"158.csv","true","","","","",NA,NA,NA,NA,""
"survey-html-form",2,556851,"0.0-2.0","1doytpr87kqf58w",569,"158.csv","","9067.099999904633","","","",NA,NA,NA,NA,""
"image-keyboard-response",3,585144,"0.0-3.0-0.0","1doytpr87kqf58w",569,"158.csv","","28291.700000286102","resources/images/parrot_nobg.png","13","",NA,NA,NA,NA,""
"image-keyboard-response",4,588149,"0.0-3.0-1.0","1doytpr87kqf58w",569,"158.csv","","null","resources/image_sets/111.png","null","",NA,NA,NA,NA,""
"image-keyboard-response",5,605013,"0.0-3.0-2.0","1doytpr87kqf58w",569,"158.csv","","16862.799999713898","resources/image_sets/left_highlight.png","37","",NA,NA,NA,NA,""
"image-keyboard-response",6,609805,"0.0-3.0-3.0","1doytpr87kqf58w",569,"158.csv","","4790.400000095367","resources/image_sets/mid_highlight.png","38","",NA,NA,NA,NA,""
"image-keyboard-response",7,613405,"0.0-3.0-4.0","1doytpr87kqf58w",569,"158.csv","","3599.4000000953674","resources/image_sets/right_highlight.png","39","",NA,NA,NA,NA,""
"image-keyboard-response",8,616263,"0.0-3.0-5.0","1doytpr87kqf58w",569,"158.csv","","2857.5","resources/image_sets/111.png","13","",NA,NA,NA,NA,""
"image-keyboard-response",9,620114,"0.0-3.0-6.0","1doytpr87kqf58w",569,"158.csv","","3849.4000000953674","resources/images/coin2.png","13","",NA,NA,NA,NA,""
"image-keyboard-response",10,623665,"0.0-3.0-7.0","1doytpr87kqf58w",569,"158.csv","","3550.300000190735","resources/images/fishbone.png","13","",NA,NA,NA,NA,""
"html-keyboard-response",11,633684,"0.0-3.0-8.0","1doytpr87kqf58w",569,"158.csv","","10018","<p>You can track your coin total on the top right of your screen. </p><p>At the end of your journey you will be directed to a survey, so please click on the link before exiting the task</p><p>Press Enter to begin</p>","13","",NA,NA,NA,NA,""
"image-keyboard-response",12,638603,"0.0-4.0-0.0","1doytpr87kqf58w",569,"158.csv","","4906.799999713898","resources/trios/L4T2A2.jpg","37","restless",0.7,0.9,0.3,0.569220238714712,"true"
"image-keyboard-response",13,639026,"0.0-4.0-1.0","1doytpr87kqf58w",569,"158.csv","","null","resources/maskTrios/L4BB.jpg","null","",NA,NA,NA,NA,""
"image-keyboard-response",14,640244,"0.0-4.0-2.0","1doytpr87kqf58w",569,"158.csv","","null","resources/images/coin2.png","null","",NA,NA,NA,NA,""
"image-keyboard-response",15,644297,"0.0-4.1-0.1","1doytpr87kqf58w",569,"158.csv","","4052.5","resources/trios/L4T2A2.jpg","37","restless",0.7,0.9,0.3,0.0537856876516556,"true"
"image-keyboard-response",16,644701,"0.0-4.1-1.1","1doytpr87kqf58w",569,"158.csv","","null","resources/maskTrios/L4BB.jpg","null","",NA,NA,NA,NA,""
"image-keyboard-response",17,645917,"0.0-4.1-2.1","1doytpr87kqf58w",569,"158.csv","","null","resources/images/coin2.png","null","",NA,NA,NA,NA,""
"image-keyboard-response",18,648155,"0.0-4.2-0.2","1doytpr87kqf58w",569,"158.csv","","2236.9000000953674","resources/trios/L4T2A2.jpg","38","restless",0.7,0.9,0.3,0.201262094576508,"true"
"image-keyboard-response",19,648562,"0.0-4.2-1.2","1doytpr87kqf58w",569,"158.csv","","null","resources/maskTrios/BT2B.jpg","null","",NA,NA,NA,NA,""
"image-keyboard-response",20,649778,"0.0-4.2-2.2","1doytpr87kqf58w",569,"158.csv","","null","resources/images/coin2.png","null","",NA,NA,NA,NA,""
"image-keyboard-response",21,651672,"0.0-4.3-0.3","1doytpr87kqf58w",569,"158.csv","","1892.7999997138977","resources/trios/L4T2A2.jpg","38","restless",0.7,0.8,0.3,0.659821900821712,"true"
"image-keyboard-response",22,652089,"0.0-4.3-1.3","1doytpr87kqf58w",569,"158.csv","","null","resources/maskTrios/BT2B.jpg","null","",NA,NA,NA,NA,""
"image-keyboard-response",23,653302,"0.0-4.3-2.3","1doytpr87kqf58w",569,"158.csv","","null","resources/images/coin2.png","null","",NA,NA,NA,NA,""
"image-keyboard-response",24,654676,"0.0-4.4-0.4","1doytpr87kqf58w",569,"158.csv","","1372.7999997138977","resources/trios/L4T2A2.jpg","37","restless",0.7,0.8,0.3,0.439339767217027,"true"
"image-keyboard-response",25,655091,"0.0-4.4-1.4","1doytpr87kqf58w",569,"158.csv","","null","resources/maskTrios/L4BB.jpg","null","",NA,NA,NA,NA,""
"image-keyboard-response",26,656295,"0.0-4.4-2.4","1doytpr87kqf58w",569,"158.csv","","null","resources/images/coin2.png","null","",NA,NA,NA,NA,""
"image-keyboard-response",27,656912,"0.0-4.5-0.5","1doytpr87kqf58w",569,"158.csv","","615.5","resources/trios/L4T2A2.jpg","39","restless",0.7,0.8,0.3,0.725480551757364,"false"
"image-keyboard-response",28,657323,"0.0-4.5-1.5","1doytpr87kqf58w",569,"158.csv","","null","resources/maskTrios/BBA2.jpg","null","",NA,NA,NA,NA,""
"image-keyboard-response",29,658527,"0.0-4.5-2.5","1doytpr87kqf58w",569,"158.csv","","null","resources/images/fishbone.png","null","",NA,NA,NA,NA,""
"image-keyboard-response",30,659248,"0.0-4.6-0.6","1doytpr87kqf58w",569,"158.csv","","719.5","resources/trios/L4T2A2.jpg","38","restless",0.7,0.8,0.3,0.205015230525279,"true"
"image-keyboard-response",31,659663,"0.0-4.6-1.6","1doytpr87kqf58w",569,"158.csv","","null","resources/maskTrios/BT2B.jpg","null","",NA,NA,NA,NA,""
"image-keyboard-response",32,660868,"0.0-4.6-2.6","1doytpr87kqf58w",569,"158.csv","","null","resources/images/coin2.png","null","",NA,NA,NA,NA,""
"image-keyboard-response",33,661366,"0.0-4.7-0.7","1doytpr87kqf58w",569,"158.csv","","497.5","resources/trios/L4T2A2.jpg","37","restless",0.7,0.8,0.3,0.979803744043585,"false"
"image-keyboard-response",34,661772,"0.0-4.7-1.7","1doytpr87kqf58w",569,"158.csv","","null","resources/maskTrios/L4BB.jpg","null","",NA,NA,NA,NA,""
"image-keyboard-response",35,662974,"0.0-4.7-2.7","1doytpr87kqf58w",569,"158.csv","","null","resources/images/fishbone.png","null","",NA,NA,NA,NA,""
"image-keyboard-response",36,663276,"0.0-4.8-0.8","1doytpr87kqf58w",569,"158.csv","","300.5","resources/trios/L4T2A2.jpg","38","restless",0.7,0.8,0.3,0.522963960638795,"true"
"image-keyboard-response",37,663681,"0.0-4.8-1.8","1doytpr87kqf58w",569,"158.csv","","null","resources/maskTrios/BT2B.jpg","null","",NA,NA,NA,NA,""
"image-keyboard-response",38,664895,"0.0-4.8-2.8","1doytpr87kqf58w",569,"158.csv","","null","resources/images/coin2.png","null","",NA,NA,NA,NA,""
"image-keyboard-response",39,665376,"0.0-4.9-0.9","1doytpr87kqf58w",569,"158.csv","","480.40000009536743","resources/trios/L4T2A2.jpg","38","restless",0.7,0.8,0.3,0.160159166041517,"true"
"image-keyboard-response",40,665790,"0.0-4.9-1.9","1doytpr87kqf58w",569,"158.csv","","null","resources/maskTrios/BT2B.jpg","null","",NA,NA,NA,NA,""
"image-keyboard-response",41,666997,"0.0-4.9-2.9","1doytpr87kqf58w",569,"158.csv","","null","resources/images/coin2.png","null","",NA,NA,NA,NA,""
"image-keyboard-response",42,667500,"0.0-4.10-0.10","1doytpr87kqf58w",569,"158.csv","","502.30000019073486","resources/trios/L4T2A2.jpg","39","restless",0.7,0.8,0.3,0.931091066062977,"false"
"image-keyboard-response",43,667914,"0.0-4.10-1.10","1doytpr87kqf58w",569,"158.csv","","null","resources/maskTrios/BBA2.jpg","null","",NA,NA,NA,NA,""
"image-keyboard-response",44,669121,"0.0-4.10-2.10","1doytpr87kqf58w",569,"158.csv","","null","resources/images/fishbone.png","null","",NA,NA,NA,NA,""
"image-keyboard-response",45,669460,"0.0-4.11-0.11","1doytpr87kqf58w",569,"158.csv","","338.30000019073486","resources/trios/L4T2A2.jpg","37","restless",0.7,0.7,0.3,0.0631673378968223,"true"
"image-keyboard-response",46,669874,"0.0-4.11-1.11","1doytpr87kqf58w",569,"158.csv","","null","resources/maskTrios/L4BB.jpg","null","",NA,NA,NA,NA,""
"image-keyboard-response",47,671079,"0.0-4.11-2.11","1doytpr87kqf58w",569,"158.csv","","null","resources/images/coin2.png","null","",NA,NA,NA,NA,""
"image-keyboard-response",48,671376,"0.0-4.12-0.12","1doytpr87kqf58w",569,"158.csv","","295.59999990463257","resources/trios/L4T2A2.jpg","38","restless",0.7,0.6,0.3,0.280352374027472,"true"
"image-keyboard-response",49,671786,"0.0-4.12-1.12","1doytpr87kqf58w",569,"158.csv","","null","resources/maskTrios/BT2B.jpg","null","",NA,NA,NA,NA,""
"image-keyboard-response",50,672988,"0.0-4.12-2.12","1doytpr87kqf58w",569,"158.csv","","null","resources/images/coin2.png","null","",NA,NA,NA,NA,""
"image-keyboard-response",51,673308,"0.0-4.13-0.13","1doytpr87kqf58w",569,"158.csv","","319","resources/trios/L4T2A2.jpg","38","restless",0.7,0.6,0.3,0.737639112387316,"false"
"image-keyboard-response",52,673721,"0.0-4.13-1.13","1doytpr87kqf58w",569,"158.csv","","null","resources/maskTrios/BT2B.jpg","null","",NA,NA,NA,NA,""
"image-keyboard-response",53,674933,"0.0-4.13-2.13","1doytpr87kqf58w",569,"158.csv","","null","resources/images/fishbone.png","null","",NA,NA,NA,NA,""
"image-keyboard-response",54,675183,"0.0-4.14-0.14","1doytpr87kqf58w",569,"158.csv","","249.7999997138977","resources/trios/L4T2A2.jpg","37","restless",0.7,0.5,0.3,0.547952010571746,"true"
"image-keyboard-response",55,675585,"0.0-4.14-1.14","1doytpr87kqf58w",569,"158.csv","","null","resources/maskTrios/L4BB.jpg","null","",NA,NA,NA,NA,""
"image-keyboard-response",56,676802,"0.0-4.14-2.14","1doytpr87kqf58w",569,"158.csv","","null","resources/images/coin2.png","null","",NA,NA,NA,NA,""
"image-keyboard-response",57,677134,"0.0-4.15-0.15","1doytpr87kqf58w",569,"158.csv","","330.09999990463257","resources/trios/L4T2A2.jpg","37","restless",0.7,0.5,0.3,0.74319722677977,"false"
"image-keyboard-response",58,677536,"0.0-4.15-1.15","1doytpr87kqf58w",569,"158.csv","","null","resources/maskTrios/L4BB.jpg","null","",NA,NA,NA,NA,""
"image-keyboard-response",59,678747,"0.0-4.15-2.15","1doytpr87kqf58w",569,"158.csv","","null","resources/images/fishbone.png","null","",NA,NA,NA,NA,""
"image-keyboard-response",60,678968,"0.0-4.16-0.16","1doytpr87kqf58w",569,"158.csv","","219.7999997138977","resources/trios/L4T2A2.jpg","39","restless",0.7,0.6,0.3,0.330686379121995,"false"
"image-keyboard-response",61,679372,"0.0-4.16-1.16","1doytpr87kqf58w",569,"158.csv","","null","resources/maskTrios/BBA2.jpg","null","",NA,NA,NA,NA,""
"image-keyboard-response",62,680577,"0.0-4.16-2.16","1doytpr87kqf58w",569,"158.csv","","null","resources/images/fishbone.png","null","",NA,NA,NA,NA,""
"image-keyboard-response",63,680854,"0.0-4.17-0.17","1doytpr87kqf58w",569,"158.csv","","265.69999980926514","resources/trios/L4T2A2.jpg","38","restless",0.7,0.6,0.4,0.0370332803466391,"true"
"image-keyboard-response",64,681265,"0.0-4.17-1.17","1doytpr87kqf58w",569,"158.csv","","null","resources/maskTrios/BT2B.jpg","null","",NA,NA,NA,NA,""
"image-keyboard-response",65,682481,"0.0-4.17-2.17","1doytpr87kqf58w",569,"158.csv","","null","resources/images/coin2.png","null","",NA,NA,NA,NA,""
"image-keyboard-response",66,682589,"0.0-4.18-0.18","1doytpr87kqf58w",569,"158.csv","","106.2999997138977","resources/trios/L4T2A2.jpg","37","restless",0.7,0.6,0.4,0.726775390675636,"false"
"image-keyboard-response",67,682995,"0.0-4.18-1.18","1doytpr87kqf58w",569,"158.csv","","null","resources/maskTrios/L4BB.jpg","null","",NA,NA,NA,NA,""
"image-keyboard-response",68,684207,"0.0-4.18-2.18","1doytpr87kqf58w",569,"158.csv","","null","resources/images/fishbone.png","null","",NA,NA,NA,NA,""
"image-keyboard-response",69,684453,"0.0-4.19-0.19","1doytpr87kqf58w",569,"158.csv","","244.09999990463257","resources/trios/L4T2A2.jpg","39","restless",0.7,0.6,0.4,0.774984922826387,"false"
"image-keyboard-response",70,684865,"0.0-4.19-1.19","1doytpr87kqf58w",569,"158.csv","","null","resources/maskTrios/BBA2.jpg","null","",NA,NA,NA,NA,""
"image-keyboard-response",71,686067,"0.0-4.19-2.19","1doytpr87kqf58w",569,"158.csv","","null","resources/images/fishbone.png","null","",NA,NA,NA,NA,""
"image-keyboard-response",72,686332,"0.0-4.20-0.20","1doytpr87kqf58w",569,"158.csv","","264.30000019073486","resources/trios/L4T2A2.jpg","38","restless",0.7,0.5,0.4,0.164498031024819,"true"
"image-keyboard-response",73,686743,"0.0-4.20-1.20","1doytpr87kqf58w",569,"158.csv","","null","resources/maskTrios/BT2B.jpg","null","",NA,NA,NA,NA,""
"image-keyboard-response",74,687948,"0.0-4.20-2.20","1doytpr87kqf58w",569,"158.csv","","null","resources/images/coin2.png","null","",NA,NA,NA,NA,""
"image-keyboard-response",75,688433,"0.0-4.21-0.21","1doytpr87kqf58w",569,"158.csv","","483.59999990463257","resources/trios/L4T2A2.jpg","38","restless",0.7,0.5,0.4,0.80720755532929,"false"
"image-keyboard-response",76,688847,"0.0-4.21-1.21","1doytpr87kqf58w",569,"158.csv","","null","resources/maskTrios/BT2B.jpg","null","",NA,NA,NA,NA,""
"image-keyboard-response",77,690052,"0.0-4.21-2.21","1doytpr87kqf58w",569,"158.csv","","null","resources/images/fishbone.png","null","",NA,NA,NA,NA,""
"image-keyboard-response",78,690380,"0.0-4.22-0.22","1doytpr87kqf58w",569,"158.csv","","326.80000019073486","resources/trios/L4T2A2.jpg","37","restless",0.7,0.5,0.4,0.12963495169642,"true"
"image-keyboard-response",79,690796,"0.0-4.22-1.22","1doytpr87kqf58w",569,"158.csv","","null","resources/maskTrios/L4BB.jpg","null","",NA,NA,NA,NA,""
"image-keyboard-response",80,692010,"0.0-4.22-2.22","1doytpr87kqf58w",569,"158.csv","","null","resources/images/coin2.png","null","",NA,NA,NA,NA,""
"image-keyboard-response",81,692315,"0.0-4.23-0.23","1doytpr87kqf58w",569,"158.csv","","303.7000002861023","resources/trios/L4T2A2.jpg","38","restless",0.7,0.5,0.5,0.337167659609801,"true"
"image-keyboard-response",82,692726,"0.0-4.23-1.23","1doytpr87kqf58w",569,"158.csv","","null","resources/maskTrios/BT2B.jpg","null","",NA,NA,NA,NA,""
"image-keyboard-response",83,693942,"0.0-4.23-2.23","1doytpr87kqf58w",569,"158.csv","","null","resources/images/coin2.png","null","",NA,NA,NA,NA,""
"image-keyboard-response",84,694214,"0.0-4.24-0.24","1doytpr87kqf58w",569,"158.csv","","271.2000002861023","resources/trios/L4T2A2.jpg","38","restless",0.6,0.5,0.5,0.23626030051273,"true"
"image-keyboard-response",85,694630,"0.0-4.24-1.24","1doytpr87kqf58w",569,"158.csv","","null","resources/maskTrios/BT2B.jpg","null","",NA,NA,NA,NA,""
"image-keyboard-response",86,695847,"0.0-4.24-2.24","1doytpr87kqf58w",569,"158.csv","","null","resources/images/coin2.png","null","",NA,NA,NA,NA,""
"image-keyboard-response",87,696137,"0.0-4.25-0.25","1doytpr87kqf58w",569,"158.csv","","289.2999997138977","resources/trios/L4T2A2.jpg","37","restless",0.6,0.5,0.5,0.998674746604074,"false"
"image-keyboard-response",88,696548,"0.0-4.25-1.25","1doytpr87kqf58w",569,"158.csv","","null","resources/maskTrios/L4BB.jpg","null","",NA,NA,NA,NA,""
"image-keyboard-response",89,697755,"0.0-4.25-2.25","1doytpr87kqf58w",569,"158.csv","","null","resources/images/fishbone.png","null","",NA,NA,NA,NA,""
"image-keyboard-response",90,698011,"0.0-4.26-0.26","1doytpr87kqf58w",569,"158.csv","","254.5","resources/trios/L4T2A2.jpg","38","restless",0.6,0.5,0.5,0.630530941928569,"false"
"image-keyboard-response",91,698426,"0.0-4.26-1.26","1doytpr87kqf58w",569,"158.csv","","null","resources/maskTrios/BT2B.jpg","null","",NA,NA,NA,NA,""
"image-keyboard-response",92,699635,"0.0-4.26-2.26","1doytpr87kqf58w",569,"158.csv","","null","resources/images/fishbone.png","null","",NA,NA,NA,NA,""
"image-keyboard-response",93,699967,"0.0-4.27-0.27","1doytpr87kqf58w",569,"158.csv","","332","resources/trios/L4T2A2.jpg","39","restless",0.6,0.5,0.5,0.0463452552355186,"true"
"image-keyboard-response",94,700384,"0.0-4.27-1.27","1doytpr87kqf58w",569,"158.csv","","null","resources/maskTrios/BBA2.jpg","null","",NA,NA,NA,NA,""
"image-keyboard-response",95,701591,"0.0-4.27-2.27","1doytpr87kqf58w",569,"158.csv","","null","resources/images/coin2.png","null","",NA,NA,NA,NA,""
"image-keyboard-response",96,701889,"0.0-4.28-0.28","1doytpr87kqf58w",569,"158.csv","","295.30000019073486","resources/trios/L4T2A2.jpg","39","restless",0.6,0.5,0.5,0.801532705097518,"false"
"image-keyboard-response",97,702293,"0.0-4.28-1.28","1doytpr87kqf58w",569,"158.csv","","null","resources/maskTrios/BBA2.jpg","null","",NA,NA,NA,NA,""
"image-keyboard-response",98,703509,"0.0-4.28-2.28","1doytpr87kqf58w",569,"158.csv","","null","resources/images/fishbone.png","null","",NA,NA,NA,NA,""
"image-keyboard-response",99,703790,"0.0-4.29-0.29","1doytpr87kqf58w",569,"158.csv","","279.2999997138977","resources/trios/L4T2A2.jpg","38","restless",0.6,0.5,0.5,0.623233480504093,"false"
"image-keyboard-response",100,704193,"0.0-4.29-1.29","1doytpr87kqf58w",569,"158.csv","","null","resources/maskTrios/BT2B.jpg","null","",NA,NA,NA,NA,""
"image-keyboard-response",101,705399,"0.0-4.29-2.29","1doytpr87kqf58w",569,"158.csv","","null","resources/images/fishbone.png","null","",NA,NA,NA,NA,""
"image-keyboard-response",102,705742,"0.0-4.30-0.30","1doytpr87kqf58w",569,"158.csv","","341.5","resources/trios/L4T2A2.jpg","38","restless",0.6,0.5,0.5,0.377403751200121,"true"
"image-keyboard-response",103,706150,"0.0-4.30-1.30","1doytpr87kqf58w",569,"158.csv","","null","resources/maskTrios/BT2B.jpg","null","",NA,NA,NA,NA,""
"image-keyboard-response",104,707367,"0.0-4.30-2.30","1doytpr87kqf58w",569,"158.csv","","null","resources/images/coin2.png","null","",NA,NA,NA,NA,""
"image-keyboard-response",105,707472,"0.0-4.31-0.31","1doytpr87kqf58w",569,"158.csv","","103.69999980926514","resources/trios/L4T2A2.jpg","38","restless",0.6,0.5,0.5,0.235677372497466,"true"
"image-keyboard-response",106,707879,"0.0-4.31-1.31","1doytpr87kqf58w",569,"158.csv","","null","resources/maskTrios/BT2B.jpg","null","",NA,NA,NA,NA,""
"image-keyboard-response",107,709085,"0.0-4.31-2.31","1doytpr87kqf58w",569,"158.csv","","null","resources/images/coin2.png","null","",NA,NA,NA,NA,""
"image-keyboard-response",108,709334,"0.0-4.32-0.32","1doytpr87kqf58w",569,"158.csv","","248.40000009536743","resources/trios/L4T2A2.jpg","37","restless",0.6,0.6,0.5,0.425321251402581,"true"
"image-keyboard-response",109,709738,"0.0-4.32-1.32","1doytpr87kqf58w",569,"158.csv","","null","resources/maskTrios/L4BB.jpg","null","",NA,NA,NA,NA,""
"image-keyboard-response",110,710954,"0.0-4.32-2.32","1doytpr87kqf58w",569,"158.csv","","null","resources/images/coin2.png","null","",NA,NA,NA,NA,""
"image-keyboard-response",111,711330,"0.0-4.33-0.33","1doytpr87kqf58w",569,"158.csv","","374.30000019073486","resources/trios/L4T2A2.jpg","38","restless",0.6,0.6,0.5,0.625087168350458,"false"
"image-keyboard-response",112,711746,"0.0-4.33-1.33","1doytpr87kqf58w",569,"158.csv","","null","resources/maskTrios/BT2B.jpg","null","",NA,NA,NA,NA,""
"image-keyboard-response",113,712949,"0.0-4.33-2.33","1doytpr87kqf58w",569,"158.csv","","null","resources/images/fishbone.png","null","",NA,NA,NA,NA,""
"image-keyboard-response",114,713122,"0.0-4.34-0.34","1doytpr87kqf58w",569,"158.csv","","171.59999990463257","resources/trios/L4T2A2.jpg","39","restless",0.6,0.6,0.5,0.964202062164829,"false"
"image-keyboard-response",115,713524,"0.0-4.34-1.34","1doytpr87kqf58w",569,"158.csv","","null","resources/maskTrios/BBA2.jpg","null","",NA,NA,NA,NA,""
"image-keyboard-response",116,714734,"0.0-4.34-2.34","1doytpr87kqf58w",569,"158.csv","","null","resources/images/fishbone.png","null","",NA,NA,NA,NA,""
"image-keyboard-response",117,715710,"0.0-4.35-0.35","1doytpr87kqf58w",569,"158.csv","","974.4000000953674","resources/trios/L4T2A2.jpg","38","restless",0.6,0.6,0.5,0.262565678969698,"true"
"image-keyboard-response",118,716122,"0.0-4.35-1.35","1doytpr87kqf58w",569,"158.csv","","null","resources/maskTrios/BT2B.jpg","null","",NA,NA,NA,NA,""
"image-keyboard-response",119,717325,"0.0-4.35-2.35","1doytpr87kqf58w",569,"158.csv","","null","resources/images/coin2.png","null","",NA,NA,NA,NA,""
"image-keyboard-response",120,717633,"0.0-4.36-0.36","1doytpr87kqf58w",569,"158.csv","","307","resources/trios/L4T2A2.jpg","38","restless",0.7,0.6,0.5,0.579869585722866,"true"
"image-keyboard-response",121,718043,"0.0-4.36-1.36","1doytpr87kqf58w",569,"158.csv","","null","resources/maskTrios/BT2B.jpg","null","",NA,NA,NA,NA,""
"image-keyboard-response",122,719258,"0.0-4.36-2.36","1doytpr87kqf58w",569,"158.csv","","null","resources/images/coin2.png","null","",NA,NA,NA,NA,""
"image-keyboard-response",123,719465,"0.0-4.37-0.37","1doytpr87kqf58w",569,"158.csv","","205.30000019073486","resources/trios/L4T2A2.jpg","37","restless",0.7,0.6,0.5,0.0803243763907748,"true"
"image-keyboard-response",124,719878,"0.0-4.37-1.37","1doytpr87kqf58w",569,"158.csv","","null","resources/maskTrios/L4BB.jpg","null","",NA,NA,NA,NA,""
"image-keyboard-response",125,721094,"0.0-4.37-2.37","1doytpr87kqf58w",569,"158.csv","","null","resources/images/coin2.png","null","",NA,NA,NA,NA,""
"image-keyboard-response",126,721159,"0.0-4.38-0.38","1doytpr87kqf58w",569,"158.csv","","63.09999990463257","resources/trios/L4T2A2.jpg","37","restless",0.7,0.6,0.5,0.286737008052478,"true"
"image-keyboard-response",127,721576,"0.0-4.38-1.38","1doytpr87kqf58w",569,"158.csv","","null","resources/maskTrios/L4BB.jpg","null","",NA,NA,NA,NA,""
"image-keyboard-response",128,722790,"0.0-4.38-2.38","1doytpr87kqf58w",569,"158.csv","","null","resources/images/coin2.png","null","",NA,NA,NA,NA,""
"image-keyboard-response",129,722957,"0.0-4.39-0.39","1doytpr87kqf58w",569,"158.csv","","166.40000009536743","resources/trios/L4T2A2.jpg","37","restless",0.7,0.6,0.6,0.768778074056003,"false"
"image-keyboard-response",130,723367,"0.0-4.39-1.39","1doytpr87kqf58w",569,"158.csv","","null","resources/maskTrios/L4BB.jpg","null","",NA,NA,NA,NA,""
"image-keyboard-response",131,724578,"0.0-4.39-2.39","1doytpr87kqf58w",569,"158.csv","","null","resources/images/fishbone.png","null","",NA,NA,NA,NA,""
"image-keyboard-response",132,724843,"0.0-4.40-0.40","1doytpr87kqf58w",569,"158.csv","","263.5","resources/trios/L4T2A2.jpg","38","restless",0.7,0.6,0.6,0.666263717385932,"false"
"image-keyboard-response",133,725250,"0.0-4.40-1.40","1doytpr87kqf58w",569,"158.csv","","null","resources/maskTrios/BT2B.jpg","null","",NA,NA,NA,NA,""
"image-keyboard-response",134,726462,"0.0-4.40-2.40","1doytpr87kqf58w",569,"158.csv","","null","resources/images/fishbone.png","null","",NA,NA,NA,NA,""
"image-keyboard-response",135,727908,"0.0-4.41-0.41","1doytpr87kqf58w",569,"158.csv","","1444.1999998092651","resources/trios/L4T2A2.jpg","38","restless",0.7,0.6,0.6,0.779032311492584,"false"
"image-keyboard-response",136,728321,"0.0-4.41-1.41","1doytpr87kqf58w",569,"158.csv","","null","resources/maskTrios/BT2B.jpg","null","",NA,NA,NA,NA,""
"image-keyboard-response",137,729537,"0.0-4.41-2.41","1doytpr87kqf58w",569,"158.csv","","null","resources/images/fishbone.png","null","",NA,NA,NA,NA,""
"image-keyboard-response",138,729806,"0.0-4.42-0.42","1doytpr87kqf58w",569,"158.csv","","268","resources/trios/L4T2A2.jpg","39","restless",0.7,0.6,0.6,0.172986454804581,"true"
"image-keyboard-response",139,730212,"0.0-4.42-1.42","1doytpr87kqf58w",569,"158.csv","","null","resources/maskTrios/BBA2.jpg","null","",NA,NA,NA,NA,""
"image-keyboard-response",140,731419,"0.0-4.42-2.42","1doytpr87kqf58w",569,"158.csv","","null","resources/images/coin2.png","null","",NA,NA,NA,NA,""
"image-keyboard-response",141,731824,"0.0-4.43-0.43","1doytpr87kqf58w",569,"158.csv","","403","resources/trios/L4T2A2.jpg","37","restless",0.7,0.6,0.7,0.560303098562843,"true"
"image-keyboard-response",142,732236,"0.0-4.43-1.43","1doytpr87kqf58w",569,"158.csv","","null","resources/maskTrios/L4BB.jpg","null","",NA,NA,NA,NA,""
"image-keyboard-response",143,733442,"0.0-4.43-2.43","1doytpr87kqf58w",569,"158.csv","","null","resources/images/coin2.png","null","",NA,NA,NA,NA,""
"image-keyboard-response",144,733661,"0.0-4.44-0.44","1doytpr87kqf58w",569,"158.csv","","218.89999961853027","resources/trios/L4T2A2.jpg","38","restless",0.7,0.6,0.6,0.151507256511959,"true"
"image-keyboard-response",145,734074,"0.0-4.44-1.44","1doytpr87kqf58w",569,"158.csv","","null","resources/maskTrios/BT2B.jpg","null","",NA,NA,NA,NA,""
"image-keyboard-response",146,735284,"0.0-4.44-2.44","1doytpr87kqf58w",569,"158.csv","","null","resources/images/coin2.png","null","",NA,NA,NA,NA,""
"image-keyboard-response",147,735530,"0.0-4.45-0.45","1doytpr87kqf58w",569,"158.csv","","243.69999980926514","resources/trios/L4T2A2.jpg","38","restless",0.7,0.6,0.6,0.0863504078367627,"true"
"image-keyboard-response",148,735939,"0.0-4.45-1.45","1doytpr87kqf58w",569,"158.csv","","null","resources/maskTrios/BT2B.jpg","null","",NA,NA,NA,NA,""
"image-keyboard-response",149,737152,"0.0-4.45-2.45","1doytpr87kqf58w",569,"158.csv","","null","resources/images/coin2.png","null","",NA,NA,NA,NA,""
"image-keyboard-response",150,737486,"0.0-4.46-0.46","1doytpr87kqf58w",569,"158.csv","","321.19999980926514","resources/trios/L4T2A2.jpg","37","restless",0.7,0.6,0.6,0.853341117822812,"false"
"image-keyboard-response",151,737898,"0.0-4.46-1.46","1doytpr87kqf58w",569,"158.csv","","null","resources/maskTrios/L4BB.jpg","null","",NA,NA,NA,NA,""
"image-keyboard-response",152,739115,"0.0-4.46-2.46","1doytpr87kqf58w",569,"158.csv","","null","resources/images/fishbone.png","null","",NA,NA,NA,NA,""
"image-keyboard-response",153,739305,"0.0-4.47-0.47","1doytpr87kqf58w",569,"158.csv","","188.80000019073486","resources/trios/L4T2A2.jpg","38","restless",0.7,0.6,0.6,0.718195525942485,"false"
"image-keyboard-response",154,739720,"0.0-4.47-1.47","1doytpr87kqf58w",569,"158.csv","","null","resources/maskTrios/BT2B.jpg","null","",NA,NA,NA,NA,""
"image-keyboard-response",155,740937,"0.0-4.47-2.47","1doytpr87kqf58w",569,"158.csv","","null","resources/images/fishbone.png","null","",NA,NA,NA,NA,""
"image-keyboard-response",156,741055,"0.0-4.48-0.48","1doytpr87kqf58w",569,"158.csv","","117.40000009536743","resources/trios/L4T2A2.jpg","38","restless",0.8,0.6,0.6,0.0296297394380314,"true"
"image-keyboard-response",157,741466,"0.0-4.48-1.48","1doytpr87kqf58w",569,"158.csv","","null","resources/maskTrios/BT2B.jpg","null","",NA,NA,NA,NA,""
"image-keyboard-response",158,742681,"0.0-4.48-2.48","1doytpr87kqf58w",569,"158.csv","","null","resources/images/coin2.png","null","",NA,NA,NA,NA,""
"image-keyboard-response",159,742782,"0.0-4.49-0.49","1doytpr87kqf58w",569,"158.csv","","100.09999990463257","resources/trios/L4T2A2.jpg","38","restless",0.8,0.6,0.6,0.267691406836937,"true"
"image-keyboard-response",160,743193,"0.0-4.49-1.49","1doytpr87kqf58w",569,"158.csv","","null","resources/maskTrios/BT2B.jpg","null","",NA,NA,NA,NA,""
"image-keyboard-response",161,744398,"0.0-4.49-2.49","1doytpr87kqf58w",569,"158.csv","","null","resources/images/coin2.png","null","",NA,NA,NA,NA,""
"image-keyboard-response",162,744643,"0.0-4.50-0.50","1doytpr87kqf58w",569,"158.csv","","243.7999997138977","resources/trios/L4T2A2.jpg","38","restless",0.7,0.5,0.7,0.176015340095391,"true"
"image-keyboard-response",163,745050,"0.0-4.50-1.50","1doytpr87kqf58w",569,"158.csv","","null","resources/maskTrios/BT2B.jpg","null","",NA,NA,NA,NA,""
"image-keyboard-response",164,746251,"0.0-4.50-2.50","1doytpr87kqf58w",569,"158.csv","","null","resources/images/coin2.png","null","",NA,NA,NA,NA,""
"image-keyboard-response",165,746412,"0.0-4.51-0.51","1doytpr87kqf58w",569,"158.csv","","159.5","resources/trios/L4T2A2.jpg","38","restless",0.7,0.5,0.7,0.36912595973118,"true"
"image-keyboard-response",166,746814,"0.0-4.51-1.51","1doytpr87kqf58w",569,"158.csv","","null","resources/maskTrios/BT2B.jpg","null","",NA,NA,NA,NA,""
"image-keyboard-response",167,748029,"0.0-4.51-2.51","1doytpr87kqf58w",569,"158.csv","","null","resources/images/coin2.png","null","",NA,NA,NA,NA,""
"image-keyboard-response",168,748320,"0.0-4.52-0.52","1doytpr87kqf58w",569,"158.csv","","289.80000019073486","resources/trios/L4T2A2.jpg","38","restless",0.7,0.4,0.8,0.592380289984386,"false"
"image-keyboard-response",169,748732,"0.0-4.52-1.52","1doytpr87kqf58w",569,"158.csv","","null","resources/maskTrios/BT2B.jpg","null","",NA,NA,NA,NA,""
"image-keyboard-response",170,749949,"0.0-4.52-2.52","1doytpr87kqf58w",569,"158.csv","","null","resources/images/fishbone.png","null","",NA,NA,NA,NA,""
"image-keyboard-response",171,749964,"0.0-4.53-0.53","1doytpr87kqf58w",569,"158.csv","","13.599999904632568","resources/trios/L4T2A2.jpg","39","restless",0.7,0.3,0.8,0.283357765616897,"true"
"image-keyboard-response",172,750372,"0.0-4.53-1.53","1doytpr87kqf58w",569,"158.csv","","null","resources/maskTrios/BBA2.jpg","null","",NA,NA,NA,NA,""
"image-keyboard-response",173,751586,"0.0-4.53-2.53","1doytpr87kqf58w",569,"158.csv","","null","resources/images/coin2.png","null","",NA,NA,NA,NA,""
"image-keyboard-response",174,751744,"0.0-4.54-0.54","1doytpr87kqf58w",569,"158.csv","","155.7000002861023","resources/trios/L4T2A2.jpg","39","restless",0.7,0.2,0.8,0.330143498984296,"true"
"image-keyboard-response",175,752149,"0.0-4.54-1.54","1doytpr87kqf58w",569,"158.csv","","null","resources/maskTrios/BBA2.jpg","null","",NA,NA,NA,NA,""
"image-keyboard-response",176,753367,"0.0-4.54-2.54","1doytpr87kqf58w",569,"158.csv","","null","resources/images/coin2.png","null","",NA,NA,NA,NA,""
"image-keyboard-response",177,753434,"0.0-4.55-0.55","1doytpr87kqf58w",569,"158.csv","","65.5","resources/trios/L4T2A2.jpg","39","restless",0.7,0.2,0.8,0.784629577469022,"true"
"image-keyboard-response",178,753849,"0.0-4.55-1.55","1doytpr87kqf58w",569,"158.csv","","null","resources/maskTrios/BBA2.jpg","null","",NA,NA,NA,NA,""
"image-keyboard-response",179,755065,"0.0-4.55-2.55","1doytpr87kqf58w",569,"158.csv","","null","resources/images/coin2.png","null","",NA,NA,NA,NA,""
"image-keyboard-response",180,755321,"0.0-4.56-0.56","1doytpr87kqf58w",569,"158.csv","","254.7000002861023","resources/trios/L4T2A2.jpg","39","restless",0.7,0.2,0.8,0.517751034494156,"true"
"image-keyboard-response",181,755736,"0.0-4.56-1.56","1doytpr87kqf58w",569,"158.csv","","null","resources/maskTrios/BBA2.jpg","null","",NA,NA,NA,NA,""
"image-keyboard-response",182,756952,"0.0-4.56-2.56","1doytpr87kqf58w",569,"158.csv","","null","resources/images/coin2.png","null","",NA,NA,NA,NA,""
"image-keyboard-response",183,757169,"0.0-4.57-0.57","1doytpr87kqf58w",569,"158.csv","","215.90000009536743","resources/trios/L4T2A2.jpg","37","restless",0.7,0.2,0.8,0.128602094780443,"true"
"image-keyboard-response",184,757575,"0.0-4.57-1.57","1doytpr87kqf58w",569,"158.csv","","null","resources/maskTrios/L4BB.jpg","null","",NA,NA,NA,NA,""
"image-keyboard-response",185,758791,"0.0-4.57-2.57","1doytpr87kqf58w",569,"158.csv","","null","resources/images/coin2.png","null","",NA,NA,NA,NA,""
"image-keyboard-response",186,759034,"0.0-4.58-0.58","1doytpr87kqf58w",569,"158.csv","","240.90000009536743","resources/trios/L4T2A2.jpg","37","restless",0.7,0.2,0.8,0.248874731583164,"true"
"image-keyboard-response",187,759446,"0.0-4.58-1.58","1doytpr87kqf58w",569,"158.csv","","null","resources/maskTrios/L4BB.jpg","null","",NA,NA,NA,NA,""
"image-keyboard-response",188,760660,"0.0-4.58-2.58","1doytpr87kqf58w",569,"158.csv","","null","resources/images/coin2.png","null","",NA,NA,NA,NA,""
"image-keyboard-response",189,760946,"0.0-4.59-0.59","1doytpr87kqf58w",569,"158.csv","","285.59999990463257","resources/trios/L4T2A2.jpg","37","restless",0.7,0.2,0.8,0.395515719422773,"true"
"image-keyboard-response",190,761363,"0.0-4.59-1.59","1doytpr87kqf58w",569,"158.csv","","null","resources/maskTrios/L4BB.jpg","null","",NA,NA,NA,NA,""
"image-keyboard-response",191,762575,"0.0-4.59-2.59","1doytpr87kqf58w",569,"158.csv","","null","resources/images/coin2.png","null","",NA,NA,NA,NA,""
"image-keyboard-response",192,762594,"0.0-4.60-0.60","1doytpr87kqf58w",569,"158.csv","","17.799999713897705","resources/trios/L4T2A2.jpg","37","restless",0.7,0.2,0.8,0.888910543127106,"false"
"image-keyboard-response",193,762998,"0.0-4.60-1.60","1doytpr87kqf58w",569,"158.csv","","null","resources/maskTrios/L4BB.jpg","null","",NA,NA,NA,NA,""
"image-keyboard-response",194,764214,"0.0-4.60-2.60","1doytpr87kqf58w",569,"158.csv","","null","resources/images/fishbone.png","null","",NA,NA,NA,NA,""
"image-keyboard-response",195,764504,"0.0-4.61-0.61","1doytpr87kqf58w",569,"158.csv","","287.8999996185303","resources/trios/L4T2A2.jpg","39","restless",0.7,0.2,0.8,0.574252539168792,"true"
"image-keyboard-response",196,764915,"0.0-4.61-1.61","1doytpr87kqf58w",569,"158.csv","","null","resources/maskTrios/BBA2.jpg","null","",NA,NA,NA,NA,""
"image-keyboard-response",197,766131,"0.0-4.61-2.61","1doytpr87kqf58w",569,"158.csv","","null","resources/images/coin2.png","null","",NA,NA,NA,NA,""
"image-keyboard-response",198,766133,"0.0-4.62-0.62","1doytpr87kqf58w",569,"158.csv","","0.8000001907348633","resources/trios/L4T2A2.jpg","39","restless",0.7,0.2,0.8,0.852582057747721,"false"
"image-keyboard-response",199,766538,"0.0-4.62-1.62","1doytpr87kqf58w",569,"158.csv","","null","resources/maskTrios/BBA2.jpg","null","",NA,NA,NA,NA,""
"image-keyboard-response",200,767754,"0.0-4.62-2.62","1doytpr87kqf58w",569,"158.csv","","null","resources/images/fishbone.png","null","",NA,NA,NA,NA,""
"image-keyboard-response",201,768064,"0.0-4.63-0.63","1doytpr87kqf58w",569,"158.csv","","308.40000009536743","resources/trios/L4T2A2.jpg","38","restless",0.7,0.2,0.8,0.966870614991572,"false"
"image-keyboard-response",202,768468,"0.0-4.63-1.63","1doytpr87kqf58w",569,"158.csv","","null","resources/maskTrios/BT2B.jpg","null","",NA,NA,NA,NA,""
"image-keyboard-response",203,769670,"0.0-4.63-2.63","1doytpr87kqf58w",569,"158.csv","","null","resources/images/fishbone.png","null","",NA,NA,NA,NA,""
"image-keyboard-response",204,769840,"0.0-4.64-0.64","1doytpr87kqf58w",569,"158.csv","","169.90000009536743","resources/trios/L4T2A2.jpg","38","restless",0.6,0.3,0.8,0.465764909213733,"false"
"image-keyboard-response",205,770246,"0.0-4.64-1.64","1doytpr87kqf58w",569,"158.csv","","null","resources/maskTrios/BT2B.jpg","null","",NA,NA,NA,NA,""
"image-keyboard-response",206,771459,"0.0-4.64-2.64","1doytpr87kqf58w",569,"158.csv","","null","resources/images/fishbone.png","null","",NA,NA,NA,NA,""
"image-keyboard-response",207,771763,"0.0-4.65-0.65","1doytpr87kqf58w",569,"158.csv","","302.19999980926514","resources/trios/L4T2A2.jpg","38","restless",0.6,0.3,0.8,0.127025177456266,"true"
"image-keyboard-response",208,772177,"0.0-4.65-1.65","1doytpr87kqf58w",569,"158.csv","","null","resources/maskTrios/BT2B.jpg","null","",NA,NA,NA,NA,""
"image-keyboard-response",209,773393,"0.0-4.65-2.65","1doytpr87kqf58w",569,"158.csv","","null","resources/images/coin2.png","null","",NA,NA,NA,NA,""
"image-keyboard-response",210,773904,"0.0-4.66-0.66","1doytpr87kqf58w",569,"158.csv","","509.59999990463257","resources/trios/L4T2A2.jpg","38","restless",0.6,0.3,0.8,0.852473637378782,"false"
"image-keyboard-response",211,774314,"0.0-4.66-1.66","1doytpr87kqf58w",569,"158.csv","","null","resources/maskTrios/BT2B.jpg","null","",NA,NA,NA,NA,""
"image-keyboard-response",212,775530,"0.0-4.66-2.66","1doytpr87kqf58w",569,"158.csv","","null","resources/images/fishbone.png","null","",NA,NA,NA,NA,""
"image-keyboard-response",213,775851,"0.0-4.67-0.67","1doytpr87kqf58w",569,"158.csv","","319.8999996185303","resources/trios/L4T2A2.jpg","37","restless",0.6,0.3,0.8,0.0521068471945541,"true"
"image-keyboard-response",214,776267,"0.0-4.67-1.67","1doytpr87kqf58w",569,"158.csv","","null","resources/maskTrios/L4BB.jpg","null","",NA,NA,NA,NA,""
"image-keyboard-response",215,777483,"0.0-4.67-2.67","1doytpr87kqf58w",569,"158.csv","","null","resources/images/coin2.png","null","",NA,NA,NA,NA,""
"image-keyboard-response",216,777727,"0.0-4.68-0.68","1doytpr87kqf58w",569,"158.csv","","242.09999990463257","resources/trios/L4T2A2.jpg","39","restless",0.5,0.3,0.8,0.0139285604373323,"true"
"image-keyboard-response",217,778139,"0.0-4.68-1.68","1doytpr87kqf58w",569,"158.csv","","null","resources/maskTrios/BBA2.jpg","null","",NA,NA,NA,NA,""
"image-keyboard-response",218,779355,"0.0-4.68-2.68","1doytpr87kqf58w",569,"158.csv","","null","resources/images/coin2.png","null","",NA,NA,NA,NA,""
"image-keyboard-response",219,779599,"0.0-4.69-0.69","1doytpr87kqf58w",569,"158.csv","","243.40000009536743","resources/trios/L4T2A2.jpg","39","restless",0.5,0.3,0.8,0.0298019870515995,"true"
"image-keyboard-response",220,780009,"0.0-4.69-1.69","1doytpr87kqf58w",569,"158.csv","","null","resources/maskTrios/BBA2.jpg","null","",NA,NA,NA,NA,""
"image-keyboard-response",221,781212,"0.0-4.69-2.69","1doytpr87kqf58w",569,"158.csv","","null","resources/images/coin2.png","null","",NA,NA,NA,NA,""
"image-keyboard-response",222,781524,"0.0-4.70-0.70","1doytpr87kqf58w",569,"158.csv","","310.09999990463257","resources/trios/L4T2A2.jpg","39","restless",0.5,0.3,0.8,0.800592258392969,"false"
"image-keyboard-response",223,781926,"0.0-4.70-1.70","1doytpr87kqf58w",569,"158.csv","","null","resources/maskTrios/BBA2.jpg","null","",NA,NA,NA,NA,""
"image-keyboard-response",224,783141,"0.0-4.70-2.70","1doytpr87kqf58w",569,"158.csv","","null","resources/images/fishbone.png","null","",NA,NA,NA,NA,""
"image-keyboard-response",225,783395,"0.0-4.71-0.71","1doytpr87kqf58w",569,"158.csv","","252.40000009536743","resources/trios/L4T2A2.jpg","37","restless",0.4,0.3,0.7,0.213892625470844,"true"
"image-keyboard-response",226,783798,"0.0-4.71-1.71","1doytpr87kqf58w",569,"158.csv","","null","resources/maskTrios/L4BB.jpg","null","",NA,NA,NA,NA,""
"image-keyboard-response",227,785003,"0.0-4.71-2.71","1doytpr87kqf58w",569,"158.csv","","null","resources/images/coin2.png","null","",NA,NA,NA,NA,""
"image-keyboard-response",228,785299,"0.0-4.72-0.72","1doytpr87kqf58w",569,"158.csv","","295.2999997138977","resources/trios/L4T2A2.jpg","37","restless",0.4,0.3,0.7,0.777392869090398,"false"
"image-keyboard-response",229,785706,"0.0-4.72-1.72","1doytpr87kqf58w",569,"158.csv","","null","resources/maskTrios/L4BB.jpg","null","",NA,NA,NA,NA,""
"image-keyboard-response",230,786922,"0.0-4.72-2.72","1doytpr87kqf58w",569,"158.csv","","null","resources/images/fishbone.png","null","",NA,NA,NA,NA,""
"image-keyboard-response",231,787262,"0.0-4.73-0.73","1doytpr87kqf58w",569,"158.csv","","337.80000019073486","resources/trios/L4T2A2.jpg","38","restless",0.4,0.3,0.7,0.945073590844316,"false"
"image-keyboard-response",232,787670,"0.0-4.73-1.73","1doytpr87kqf58w",569,"158.csv","","null","resources/maskTrios/BT2B.jpg","null","",NA,NA,NA,NA,""
"image-keyboard-response",233,788883,"0.0-4.73-2.73","1doytpr87kqf58w",569,"158.csv","","null","resources/images/fishbone.png","null","",NA,NA,NA,NA,""
"image-keyboard-response",234,789142,"0.0-4.74-0.74","1doytpr87kqf58w",569,"158.csv","","258.09999990463257","resources/trios/L4T2A2.jpg","38","restless",0.4,0.3,0.7,0.362594367727207,"false"
"image-keyboard-response",235,789553,"0.0-4.74-1.74","1doytpr87kqf58w",569,"158.csv","","null","resources/maskTrios/BT2B.jpg","null","",NA,NA,NA,NA,""
"image-keyboard-response",236,790770,"0.0-4.74-2.74","1doytpr87kqf58w",569,"158.csv","","null","resources/images/fishbone.png","null","",NA,NA,NA,NA,""
"image-keyboard-response",237,791083,"0.0-4.75-0.75","1doytpr87kqf58w",569,"158.csv","","311.5","resources/trios/L4T2A2.jpg","38","restless",0.4,0.3,0.7,0.672834466598142,"false"
"image-keyboard-response",238,791486,"0.0-4.75-1.75","1doytpr87kqf58w",569,"158.csv","","null","resources/maskTrios/BT2B.jpg","null","",NA,NA,NA,NA,""
"image-keyboard-response",239,792688,"0.0-4.75-2.75","1doytpr87kqf58w",569,"158.csv","","null","resources/images/fishbone.png","null","",NA,NA,NA,NA,""
"image-keyboard-response",240,792964,"0.0-4.76-0.76","1doytpr87kqf58w",569,"158.csv","","274.09999990463257","resources/trios/L4T2A2.jpg","37","restless",0.4,0.3,0.7,0.589735976440782,"false"
"image-keyboard-response",241,793370,"0.0-4.76-1.76","1doytpr87kqf58w",569,"158.csv","","null","resources/maskTrios/L4BB.jpg","null","",NA,NA,NA,NA,""
"image-keyboard-response",242,794586,"0.0-4.76-2.76","1doytpr87kqf58w",569,"158.csv","","null","resources/images/fishbone.png","null","",NA,NA,NA,NA,""
"image-keyboard-response",243,794815,"0.0-4.77-0.77","1doytpr87kqf58w",569,"158.csv","","228.2000002861023","resources/trios/L4T2A2.jpg","39","restless",0.4,0.3,0.7,0.015533487536846,"true"
"image-keyboard-response",244,795225,"0.0-4.77-1.77","1doytpr87kqf58w",569,"158.csv","","null","resources/maskTrios/BBA2.jpg","null","",NA,NA,NA,NA,""
"image-keyboard-response",245,796431,"0.0-4.77-2.77","1doytpr87kqf58w",569,"158.csv","","null","resources/images/coin2.png","null","",NA,NA,NA,NA,""
"image-keyboard-response",246,796508,"0.0-4.78-0.78","1doytpr87kqf58w",569,"158.csv","","75.59999990463257","resources/trios/L4T2A2.jpg","39","restless",0.4,0.3,0.7,0.48769187965277,"true"
"image-keyboard-response",247,796913,"0.0-4.78-1.78","1doytpr87kqf58w",569,"158.csv","","null","resources/maskTrios/BBA2.jpg","null","",NA,NA,NA,NA,""
"image-keyboard-response",248,798116,"0.0-4.78-2.78","1doytpr87kqf58w",569,"158.csv","","null","resources/images/coin2.png","null","",NA,NA,NA,NA,""
"image-keyboard-response",249,798381,"0.0-4.79-0.79","1doytpr87kqf58w",569,"158.csv","","264","resources/trios/L4T2A2.jpg","39","restless",0.4,0.3,0.7,0.688831644883972,"true"
"image-keyboard-response",250,798787,"0.0-4.79-1.79","1doytpr87kqf58w",569,"158.csv","","null","resources/maskTrios/BBA2.jpg","null","",NA,NA,NA,NA,""
"image-keyboard-response",251,799998,"0.0-4.79-2.79","1doytpr87kqf58w",569,"158.csv","","null","resources/images/coin2.png","null","",NA,NA,NA,NA,""
"image-keyboard-response",252,800162,"0.0-4.80-0.80","1doytpr87kqf58w",569,"158.csv","","162.59999990463257","resources/trios/L4T2A2.jpg","37","restless",0.4,0.3,0.7,0.757739290860517,"false"
"image-keyboard-response",253,800577,"0.0-4.80-1.80","1doytpr87kqf58w",569,"158.csv","","null","resources/maskTrios/L4BB.jpg","null","",NA,NA,NA,NA,""
"image-keyboard-response",254,801780,"0.0-4.80-2.80","1doytpr87kqf58w",569,"158.csv","","null","resources/images/fishbone.png","null","",NA,NA,NA,NA,""
"image-keyboard-response",255,801935,"0.0-4.81-0.81","1doytpr87kqf58w",569,"158.csv","","153.90000009536743","resources/trios/L4T2A2.jpg","39","restless",0.4,0.3,0.8,0.635168831281714,"true"
"image-keyboard-response",256,802341,"0.0-4.81-1.81","1doytpr87kqf58w",569,"158.csv","","null","resources/maskTrios/BBA2.jpg","null","",NA,NA,NA,NA,""
"image-keyboard-response",257,803558,"0.0-4.81-2.81","1doytpr87kqf58w",569,"158.csv","","null","resources/images/coin2.png","null","",NA,NA,NA,NA,""
"image-keyboard-response",258,803696,"0.0-4.82-0.82","1doytpr87kqf58w",569,"158.csv","","137.19999980926514","resources/trios/L4T2A2.jpg","39","restless",0.4,0.3,0.8,0.99403522686441,"false"
"image-keyboard-response",259,804106,"0.0-4.82-1.82","1doytpr87kqf58w",569,"158.csv","","null","resources/maskTrios/BBA2.jpg","null","",NA,NA,NA,NA,""
"image-keyboard-response",260,805310,"0.0-4.82-2.82","1doytpr87kqf58w",569,"158.csv","","null","resources/images/fishbone.png","null","",NA,NA,NA,NA,""
"image-keyboard-response",261,805438,"0.0-4.83-0.83","1doytpr87kqf58w",569,"158.csv","","127","resources/trios/L4T2A2.jpg","38","restless",0.3,0.3,0.8,0.296111008387709,"true"
"image-keyboard-response",262,805846,"0.0-4.83-1.83","1doytpr87kqf58w",569,"158.csv","","null","resources/maskTrios/BT2B.jpg","null","",NA,NA,NA,NA,""
"image-keyboard-response",263,807057,"0.0-4.83-2.83","1doytpr87kqf58w",569,"158.csv","","null","resources/images/coin2.png","null","",NA,NA,NA,NA,""
"image-keyboard-response",264,807059,"0.0-4.84-0.84","1doytpr87kqf58w",569,"158.csv","","2","resources/trios/L4T2A2.jpg","38","restless",0.3,0.3,0.8,0.70062022430555,"false"
"image-keyboard-response",265,807464,"0.0-4.84-1.84","1doytpr87kqf58w",569,"158.csv","","null","resources/maskTrios/BT2B.jpg","null","",NA,NA,NA,NA,""
"image-keyboard-response",266,808678,"0.0-4.84-2.84","1doytpr87kqf58w",569,"158.csv","","null","resources/images/fishbone.png","null","",NA,NA,NA,NA,""
"image-keyboard-response",267,808736,"0.0-4.85-0.85","1doytpr87kqf58w",569,"158.csv","","56.700000286102295","resources/trios/L4T2A2.jpg","38","restless",0.3,0.3,0.8,0.077579137471443,"true"
"image-keyboard-response",268,809148,"0.0-4.85-1.85","1doytpr87kqf58w",569,"158.csv","","null","resources/maskTrios/BT2B.jpg","null","",NA,NA,NA,NA,""
"image-keyboard-response",269,810350,"0.0-4.85-2.85","1doytpr87kqf58w",569,"158.csv","","null","resources/images/coin2.png","null","",NA,NA,NA,NA,""
"image-keyboard-response",270,810822,"0.0-4.86-0.86","1doytpr87kqf58w",569,"158.csv","","469.5","resources/trios/L4T2A2.jpg","38","restless",0.3,0.3,0.8,0.424655368500539,"false"
"image-keyboard-response",271,811224,"0.0-4.86-1.86","1doytpr87kqf58w",569,"158.csv","","null","resources/maskTrios/BT2B.jpg","null","",NA,NA,NA,NA,""
"image-keyboard-response",272,812440,"0.0-4.86-2.86","1doytpr87kqf58w",569,"158.csv","","null","resources/images/fishbone.png","null","",NA,NA,NA,NA,""
"image-keyboard-response",273,812792,"0.0-4.87-0.87","1doytpr87kqf58w",569,"158.csv","","350.40000009536743","resources/trios/L4T2A2.jpg","38","restless",0.3,0.3,0.8,0.912054621121285,"false"
"image-keyboard-response",274,813200,"0.0-4.87-1.87","1doytpr87kqf58w",569,"158.csv","","null","resources/maskTrios/BT2B.jpg","null","",NA,NA,NA,NA,""
"image-keyboard-response",275,814415,"0.0-4.87-2.87","1doytpr87kqf58w",569,"158.csv","","null","resources/images/fishbone.png","null","",NA,NA,NA,NA,""
"image-keyboard-response",276,814718,"0.0-4.88-0.88","1doytpr87kqf58w",569,"158.csv","","301","resources/trios/L4T2A2.jpg","37","restless",0.3,0.3,0.8,0.178775390046417,"true"
"image-keyboard-response",277,815128,"0.0-4.88-1.88","1doytpr87kqf58w",569,"158.csv","","null","resources/maskTrios/L4BB.jpg","null","",NA,NA,NA,NA,""
"image-keyboard-response",278,816342,"0.0-4.88-2.88","1doytpr87kqf58w",569,"158.csv","","null","resources/images/coin2.png","null","",NA,NA,NA,NA,""
"image-keyboard-response",279,816662,"0.0-4.89-0.89","1doytpr87kqf58w",569,"158.csv","","318.19999980926514","resources/trios/L4T2A2.jpg","37","restless",0.3,0.3,0.8,0.360421807652445,"false"
"image-keyboard-response",280,817074,"0.0-4.89-1.89","1doytpr87kqf58w",569,"158.csv","","null","resources/maskTrios/L4BB.jpg","null","",NA,NA,NA,NA,""
"image-keyboard-response",281,818287,"0.0-4.89-2.89","1doytpr87kqf58w",569,"158.csv","","null","resources/images/fishbone.png","null","",NA,NA,NA,NA,""
"image-keyboard-response",282,818656,"0.0-4.90-0.90","1doytpr87kqf58w",569,"158.csv","","368.5","resources/trios/L4T2A2.jpg","39","restless",0.3,0.4,0.8,0.20562944204078,"true"
"image-keyboard-response",283,819064,"0.0-4.90-1.90","1doytpr87kqf58w",569,"158.csv","","null","resources/maskTrios/BBA2.jpg","null","",NA,NA,NA,NA,""
"image-keyboard-response",284,820280,"0.0-4.90-2.90","1doytpr87kqf58w",569,"158.csv","","null","resources/images/coin2.png","null","",NA,NA,NA,NA,""
"image-keyboard-response",285,820345,"0.0-4.91-0.91","1doytpr87kqf58w",569,"158.csv","","63.5","resources/trios/L4T2A2.jpg","39","restless",0.3,0.5,0.8,0.856436183907042,"false"
"image-keyboard-response",286,820750,"0.0-4.91-1.91","1doytpr87kqf58w",569,"158.csv","","null","resources/maskTrios/BBA2.jpg","null","",NA,NA,NA,NA,""
"image-keyboard-response",287,821966,"0.0-4.91-2.91","1doytpr87kqf58w",569,"158.csv","","null","resources/images/fishbone.png","null","",NA,NA,NA,NA,""
"image-keyboard-response",288,822214,"0.0-4.92-0.92","1doytpr87kqf58w",569,"158.csv","","247","resources/trios/L4T2A2.jpg","38","restless",0.3,0.5,0.8,0.716098546909726,"false"
"image-keyboard-response",289,822618,"0.0-4.92-1.92","1doytpr87kqf58w",569,"158.csv","","null","resources/maskTrios/BT2B.jpg","null","",NA,NA,NA,NA,""
"image-keyboard-response",290,823833,"0.0-4.92-2.92","1doytpr87kqf58w",569,"158.csv","","null","resources/images/fishbone.png","null","",NA,NA,NA,NA,""
"image-keyboard-response",291,824140,"0.0-4.93-0.93","1doytpr87kqf58w",569,"158.csv","","305.80000019073486","resources/trios/L4T2A2.jpg","37","restless",0.3,0.5,0.9,0.240826379972505,"true"
"image-keyboard-response",292,824557,"0.0-4.93-1.93","1doytpr87kqf58w",569,"158.csv","","null","resources/maskTrios/L4BB.jpg","null","",NA,NA,NA,NA,""
"image-keyboard-response",293,825764,"0.0-4.93-2.93","1doytpr87kqf58w",569,"158.csv","","null","resources/images/coin2.png","null","",NA,NA,NA,NA,""
"image-keyboard-response",294,826099,"0.0-4.94-0.94","1doytpr87kqf58w",569,"158.csv","","333.59999990463257","resources/trios/L4T2A2.jpg","37","restless",0.3,0.5,0.9,0.741445503802049,"false"
"image-keyboard-response",295,826510,"0.0-4.94-1.94","1doytpr87kqf58w",569,"158.csv","","null","resources/maskTrios/L4BB.jpg","null","",NA,NA,NA,NA,""
"image-keyboard-response",296,827724,"0.0-4.94-2.94","1doytpr87kqf58w",569,"158.csv","","null","resources/images/fishbone.png","null","",NA,NA,NA,NA,""
"image-keyboard-response",297,828077,"0.0-4.95-0.95","1doytpr87kqf58w",569,"158.csv","","351.30000019073486","resources/trios/L4T2A2.jpg","39","restless",0.3,0.5,0.9,0.934375206201831,"false"
"image-keyboard-response",298,828485,"0.0-4.95-1.95","1doytpr87kqf58w",569,"158.csv","","null","resources/maskTrios/BBA2.jpg","null","",NA,NA,NA,NA,""
"image-keyboard-response",299,829697,"0.0-4.95-2.95","1doytpr87kqf58w",569,"158.csv","","null","resources/images/fishbone.png","null","",NA,NA,NA,NA,""
"image-keyboard-response",300,829815,"0.0-4.96-0.96","1doytpr87kqf58w",569,"158.csv","","117","resources/trios/L4T2A2.jpg","38","restless",0.3,0.5,0.9,0.595727890762631,"false"
"image-keyboard-response",301,830227,"0.0-4.96-1.96","1doytpr87kqf58w",569,"158.csv","","null","resources/maskTrios/BT2B.jpg","null","",NA,NA,NA,NA,""
"image-keyboard-response",302,831428,"0.0-4.96-2.96","1doytpr87kqf58w",569,"158.csv","","null","resources/images/fishbone.png","null","",NA,NA,NA,NA,""
"image-keyboard-response",303,831494,"0.0-4.97-0.97","1doytpr87kqf58w",569,"158.csv","","64.2999997138977","resources/trios/L4T2A2.jpg","38","restless",0.3,0.5,0.9,0.199532422143831,"true"
"image-keyboard-response",304,831910,"0.0-4.97-1.97","1doytpr87kqf58w",569,"158.csv","","null","resources/maskTrios/BT2B.jpg","null","",NA,NA,NA,NA,""
"image-keyboard-response",305,833111,"0.0-4.97-2.97","1doytpr87kqf58w",569,"158.csv","","null","resources/images/coin2.png","null","",NA,NA,NA,NA,""
"image-keyboard-response",306,833210,"0.0-4.98-0.98","1doytpr87kqf58w",569,"158.csv","","98","resources/trios/L4T2A2.jpg","38","restless",0.3,0.5,0.9,0.132133126000614,"true"
"image-keyboard-response",307,833624,"0.0-4.98-1.98","1doytpr87kqf58w",569,"158.csv","","null","resources/maskTrios/BT2B.jpg","null","",NA,NA,NA,NA,""
"image-keyboard-response",308,834840,"0.0-4.98-2.98","1doytpr87kqf58w",569,"158.csv","","null","resources/images/coin2.png","null","",NA,NA,NA,NA,""
"image-keyboard-response",309,835268,"0.0-4.99-0.99","1doytpr87kqf58w",569,"158.csv","","426.2999997138977","resources/trios/L4T2A2.jpg","38","restless",0.3,0.5,0.9,0.368817763470258,"true"
"image-keyboard-response",310,835678,"0.0-4.99-1.99","1doytpr87kqf58w",569,"158.csv","","null","resources/maskTrios/BT2B.jpg","null","",NA,NA,NA,NA,""
"image-keyboard-response",311,836894,"0.0-4.99-2.99","1doytpr87kqf58w",569,"158.csv","","null","resources/images/coin2.png","null","",NA,NA,NA,NA,""
"image-keyboard-response",312,837151,"0.0-4.100-0.100","1doytpr87kqf58w",569,"158.csv","","255.69999980926514","resources/trios/L4T2A2.jpg","38","restless",0.3,0.5,0.9,0.192614811443,"true"
"image-keyboard-response",313,837561,"0.0-4.100-1.100","1doytpr87kqf58w",569,"158.csv","","null","resources/maskTrios/BT2B.jpg","null","",NA,NA,NA,NA,""
"image-keyboard-response",314,838777,"0.0-4.100-2.100","1doytpr87kqf58w",569,"158.csv","","null","resources/images/coin2.png","null","",NA,NA,NA,NA,""
"image-keyboard-response",315,838872,"0.0-4.101-0.101","1doytpr87kqf58w",569,"158.csv","","93.40000009536743","resources/trios/L4T2A2.jpg","38","restless",0.3,0.5,0.9,0.616467900595133,"false"
"image-keyboard-response",316,839277,"0.0-4.101-1.101","1doytpr87kqf58w",569,"158.csv","","null","resources/maskTrios/BT2B.jpg","null","",NA,NA,NA,NA,""
"image-keyboard-response",317,840491,"0.0-4.101-2.101","1doytpr87kqf58w",569,"158.csv","","null","resources/images/fishbone.png","null","",NA,NA,NA,NA,""
"image-keyboard-response",318,840690,"0.0-4.102-0.102","1doytpr87kqf58w",569,"158.csv","","198","resources/trios/L4T2A2.jpg","39","restless",0.3,0.5,0.9,0.756506885261039,"true"
"image-keyboard-response",319,841097,"0.0-4.102-1.102","1doytpr87kqf58w",569,"158.csv","","null","resources/maskTrios/BBA2.jpg","null","",NA,NA,NA,NA,""
"image-keyboard-response",320,842300,"0.0-4.102-2.102","1doytpr87kqf58w",569,"158.csv","","null","resources/images/coin2.png","null","",NA,NA,NA,NA,""
"image-keyboard-response",321,842536,"0.0-4.103-0.103","1doytpr87kqf58w",569,"158.csv","","234.19999980926514","resources/trios/L4T2A2.jpg","39","restless",0.3,0.5,0.9,0.901336049082441,"false"
"image-keyboard-response",322,842952,"0.0-4.103-1.103","1doytpr87kqf58w",569,"158.csv","","null","resources/maskTrios/BBA2.jpg","null","",NA,NA,NA,NA,""
"image-keyboard-response",323,844165,"0.0-4.103-2.103","1doytpr87kqf58w",569,"158.csv","","null","resources/images/fishbone.png","null","",NA,NA,NA,NA,""
"image-keyboard-response",324,844486,"0.0-4.104-0.104","1doytpr87kqf58w",569,"158.csv","","320.5","resources/trios/L4T2A2.jpg","39","restless",0.3,0.5,0.9,0.33362984340389,"true"
"image-keyboard-response",325,844888,"0.0-4.104-1.104","1doytpr87kqf58w",569,"158.csv","","null","resources/maskTrios/BBA2.jpg","null","",NA,NA,NA,NA,""
"image-keyboard-response",326,846098,"0.0-4.104-2.104","1doytpr87kqf58w",569,"158.csv","","null","resources/images/coin2.png","null","",NA,NA,NA,NA,""
"image-keyboard-response",327,846164,"0.0-4.105-0.105","1doytpr87kqf58w",569,"158.csv","","64.90000009536743","resources/trios/L4T2A2.jpg","39","restless",0.3,0.5,0.9,0.788092529314453,"true"
"image-keyboard-response",328,846567,"0.0-4.105-1.105","1doytpr87kqf58w",569,"158.csv","","null","resources/maskTrios/BBA2.jpg","null","",NA,NA,NA,NA,""
"image-keyboard-response",329,847770,"0.0-4.105-2.105","1doytpr87kqf58w",569,"158.csv","","null","resources/images/coin2.png","null","",NA,NA,NA,NA,""
"image-keyboard-response",330,848052,"0.0-4.106-0.106","1doytpr87kqf58w",569,"158.csv","","281.09999990463257","resources/trios/L4T2A2.jpg","39","restless",0.3,0.5,0.9,0.859184104116496,"true"
"image-keyboard-response",331,848460,"0.0-4.106-1.106","1doytpr87kqf58w",569,"158.csv","","null","resources/maskTrios/BBA2.jpg","null","",NA,NA,NA,NA,""
"image-keyboard-response",332,849673,"0.0-4.106-2.106","1doytpr87kqf58w",569,"158.csv","","null","resources/images/coin2.png","null","",NA,NA,NA,NA,""
"image-keyboard-response",333,849972,"0.0-4.107-0.107","1doytpr87kqf58w",569,"158.csv","","298.30000019073486","resources/trios/L4T2A2.jpg","39","restless",0.3,0.5,0.8,0.420028898399484,"true"
"image-keyboard-response",334,850375,"0.0-4.107-1.107","1doytpr87kqf58w",569,"158.csv","","null","resources/maskTrios/BBA2.jpg","null","",NA,NA,NA,NA,""
"image-keyboard-response",335,851589,"0.0-4.107-2.107","1doytpr87kqf58w",569,"158.csv","","null","resources/images/coin2.png","null","",NA,NA,NA,NA,""
"image-keyboard-response",336,851762,"0.0-4.108-0.108","1doytpr87kqf58w",569,"158.csv","","172","resources/trios/L4T2A2.jpg","39","restless",0.3,0.5,0.8,0.737466956734785,"true"
"image-keyboard-response",337,852170,"0.0-4.108-1.108","1doytpr87kqf58w",569,"158.csv","","null","resources/maskTrios/BBA2.jpg","null","",NA,NA,NA,NA,""
"image-keyboard-response",338,853377,"0.0-4.108-2.108","1doytpr87kqf58w",569,"158.csv","","null","resources/images/coin2.png","null","",NA,NA,NA,NA,""
"image-keyboard-response",339,853712,"0.0-4.109-0.109","1doytpr87kqf58w",569,"158.csv","","333.7000002861023","resources/trios/L4T2A2.jpg","39","restless",0.3,0.5,0.8,0.667191675720541,"true"
"image-keyboard-response",340,854114,"0.0-4.109-1.109","1doytpr87kqf58w",569,"158.csv","","null","resources/maskTrios/BBA2.jpg","null","",NA,NA,NA,NA,""
"image-keyboard-response",341,855331,"0.0-4.109-2.109","1doytpr87kqf58w",569,"158.csv","","null","resources/images/coin2.png","null","",NA,NA,NA,NA,""
"image-keyboard-response",342,855601,"0.0-4.110-0.110","1doytpr87kqf58w",569,"158.csv","","269.2000002861023","resources/trios/L4T2A2.jpg","39","restless",0.3,0.5,0.7,0.82931479446162,"false"
"image-keyboard-response",343,856018,"0.0-4.110-1.110","1doytpr87kqf58w",569,"158.csv","","null","resources/maskTrios/BBA2.jpg","null","",NA,NA,NA,NA,""
"image-keyboard-response",344,857219,"0.0-4.110-2.110","1doytpr87kqf58w",569,"158.csv","","null","resources/images/fishbone.png","null","",NA,NA,NA,NA,""
"image-keyboard-response",345,857398,"0.0-4.111-0.111","1doytpr87kqf58w",569,"158.csv","","177.2999997138977","resources/trios/L4T2A2.jpg","37","restless",0.3,0.5,0.7,0.471808324584467,"false"
"image-keyboard-response",346,857803,"0.0-4.111-1.111","1doytpr87kqf58w",569,"158.csv","","null","resources/maskTrios/L4BB.jpg","null","",NA,NA,NA,NA,""
"image-keyboard-response",347,859018,"0.0-4.111-2.111","1doytpr87kqf58w",569,"158.csv","","null","resources/images/fishbone.png","null","",NA,NA,NA,NA,""
"image-keyboard-response",348,859126,"0.0-4.112-0.112","1doytpr87kqf58w",569,"158.csv","","106.69999980926514","resources/trios/L4T2A2.jpg","37","restless",0.3,0.5,0.7,0.587351440840437,"false"
"image-keyboard-response",349,859532,"0.0-4.112-1.112","1doytpr87kqf58w",569,"158.csv","","null","resources/maskTrios/L4BB.jpg","null","",NA,NA,NA,NA,""
"image-keyboard-response",350,860742,"0.0-4.112-2.112","1doytpr87kqf58w",569,"158.csv","","null","resources/images/fishbone.png","null","",NA,NA,NA,NA,""
"image-keyboard-response",351,860976,"0.0-4.113-0.113","1doytpr87kqf58w",569,"158.csv","","233.59999990463257","resources/trios/L4T2A2.jpg","38","restless",0.3,0.5,0.7,0.379514321697425,"true"
"image-keyboard-response",352,861382,"0.0-4.113-1.113","1doytpr87kqf58w",569,"158.csv","","null","resources/maskTrios/BT2B.jpg","null","",NA,NA,NA,NA,""
"image-keyboard-response",353,862600,"0.0-4.113-2.113","1doytpr87kqf58w",569,"158.csv","","null","resources/images/coin2.png","null","",NA,NA,NA,NA,""
"image-keyboard-response",354,862735,"0.0-4.114-0.114","1doytpr87kqf58w",569,"158.csv","","134.2999997138977","resources/trios/L4T2A2.jpg","38","restless",0.3,0.5,0.7,0.309016966112737,"true"
"image-keyboard-response",355,863146,"0.0-4.114-1.114","1doytpr87kqf58w",569,"158.csv","","null","resources/maskTrios/BT2B.jpg","null","",NA,NA,NA,NA,""
"image-keyboard-response",356,864350,"0.0-4.114-2.114","1doytpr87kqf58w",569,"158.csv","","null","resources/images/coin2.png","null","",NA,NA,NA,NA,""
"image-keyboard-response",357,864530,"0.0-4.115-0.115","1doytpr87kqf58w",569,"158.csv","","179","resources/trios/L4T2A2.jpg","38","restless",0.3,0.4,0.7,0.00326571425419719,"true"
"image-keyboard-response",358,864939,"0.0-4.115-1.115","1doytpr87kqf58w",569,"158.csv","","null","resources/maskTrios/BT2B.jpg","null","",NA,NA,NA,NA,""
"image-keyboard-response",359,866152,"0.0-4.115-2.115","1doytpr87kqf58w",569,"158.csv","","null","resources/images/coin2.png","null","",NA,NA,NA,NA,""
"image-keyboard-response",360,866370,"0.0-4.116-0.116","1doytpr87kqf58w",569,"158.csv","","216.30000019073486","resources/trios/L4T2A2.jpg","38","restless",0.3,0.4,0.7,0.66974866565659,"false"
"image-keyboard-response",361,866775,"0.0-4.116-1.116","1doytpr87kqf58w",569,"158.csv","","null","resources/maskTrios/BT2B.jpg","null","",NA,NA,NA,NA,""
"image-keyboard-response",362,867991,"0.0-4.116-2.116","1doytpr87kqf58w",569,"158.csv","","null","resources/images/fishbone.png","null","",NA,NA,NA,NA,""
"image-keyboard-response",363,868616,"0.0-4.117-0.117","1doytpr87kqf58w",569,"158.csv","","623.3000001907349","resources/trios/L4T2A2.jpg","37","restless",0.3,0.4,0.7,0.192198708688857,"true"
"image-keyboard-response",364,869022,"0.0-4.117-1.117","1doytpr87kqf58w",569,"158.csv","","null","resources/maskTrios/L4BB.jpg","null","",NA,NA,NA,NA,""
"image-keyboard-response",365,870233,"0.0-4.117-2.117","1doytpr87kqf58w",569,"158.csv","","null","resources/images/coin2.png","null","",NA,NA,NA,NA,""
"image-keyboard-response",366,870489,"0.0-4.118-0.118","1doytpr87kqf58w",569,"158.csv","","255.09999990463257","resources/trios/L4T2A2.jpg","37","restless",0.3,0.4,0.7,0.260442886004125,"true"
"image-keyboard-response",367,870903,"0.0-4.118-1.118","1doytpr87kqf58w",569,"158.csv","","null","resources/maskTrios/L4BB.jpg","null","",NA,NA,NA,NA,""
"image-keyboard-response",368,872119,"0.0-4.118-2.118","1doytpr87kqf58w",569,"158.csv","","null","resources/images/coin2.png","null","",NA,NA,NA,NA,""
"image-keyboard-response",369,872475,"0.0-4.119-0.119","1doytpr87kqf58w",569,"158.csv","","354.5","resources/trios/L4T2A2.jpg","37","restless",0.3,0.3,0.7,0.734516523868263,"false"
"image-keyboard-response",370,872882,"0.0-4.119-1.119","1doytpr87kqf58w",569,"158.csv","","null","resources/maskTrios/L4BB.jpg","null","",NA,NA,NA,NA,""
"image-keyboard-response",371,874100,"0.0-4.119-2.119","1doytpr87kqf58w",569,"158.csv","","null","resources/images/fishbone.png","null","",NA,NA,NA,NA,""
"image-keyboard-response",372,874203,"0.0-4.120-0.120","1doytpr87kqf58w",569,"158.csv","","102.59999990463257","resources/trios/L4T2A2.jpg","37","restless",0.3,0.3,0.7,0.692746720799545,"false"
"image-keyboard-response",373,874616,"0.0-4.120-1.120","1doytpr87kqf58w",569,"158.csv","","null","resources/maskTrios/L4BB.jpg","null","",NA,NA,NA,NA,""
"image-keyboard-response",374,875832,"0.0-4.120-2.120","1doytpr87kqf58w",569,"158.csv","","null","resources/images/fishbone.png","null","",NA,NA,NA,NA,""
"image-keyboard-response",375,876231,"0.0-4.121-0.121","1doytpr87kqf58w",569,"158.csv","","397.59999990463257","resources/trios/L4T2A2.jpg","39","restless",0.2,0.3,0.7,0.225042653562994,"true"
"image-keyboard-response",376,876641,"0.0-4.121-1.121","1doytpr87kqf58w",569,"158.csv","","null","resources/maskTrios/BBA2.jpg","null","",NA,NA,NA,NA,""
"image-keyboard-response",377,877856,"0.0-4.121-2.121","1doytpr87kqf58w",569,"158.csv","","null","resources/images/coin2.png","null","",NA,NA,NA,NA,""
"image-keyboard-response",378,878154,"0.0-4.122-0.122","1doytpr87kqf58w",569,"158.csv","","296.90000009536743","resources/trios/L4T2A2.jpg","39","restless",0.2,0.3,0.7,0.880277964856218,"false"
"image-keyboard-response",379,878565,"0.0-4.122-1.122","1doytpr87kqf58w",569,"158.csv","","null","resources/maskTrios/BBA2.jpg","null","",NA,NA,NA,NA,""
"image-keyboard-response",380,879773,"0.0-4.122-2.122","1doytpr87kqf58w",569,"158.csv","","null","resources/images/fishbone.png","null","",NA,NA,NA,NA,""
"image-keyboard-response",381,880128,"0.0-4.123-0.123","1doytpr87kqf58w",569,"158.csv","","353.5","resources/trios/L4T2A2.jpg","38","restless",0.2,0.3,0.6,0.979779217917564,"false"
"image-keyboard-response",382,880536,"0.0-4.123-1.123","1doytpr87kqf58w",569,"158.csv","","null","resources/maskTrios/BT2B.jpg","null","",NA,NA,NA,NA,""
"image-keyboard-response",383,881742,"0.0-4.123-2.123","1doytpr87kqf58w",569,"158.csv","","null","resources/images/fishbone.png","null","",NA,NA,NA,NA,""
"image-keyboard-response",384,882014,"0.0-4.124-0.124","1doytpr87kqf58w",569,"158.csv","","271.2999997138977","resources/trios/L4T2A2.jpg","38","restless",0.2,0.3,0.6,0.390958076206907,"false"
"image-keyboard-response",385,882428,"0.0-4.124-1.124","1doytpr87kqf58w",569,"158.csv","","null","resources/maskTrios/BT2B.jpg","null","",NA,NA,NA,NA,""
"image-keyboard-response",386,883644,"0.0-4.124-2.124","1doytpr87kqf58w",569,"158.csv","","null","resources/images/fishbone.png","null","",NA,NA,NA,NA,""
"image-keyboard-response",387,884261,"0.0-4.125-0.125","1doytpr87kqf58w",569,"158.csv","","615","resources/trios/L4T2A2.jpg","37","restless",0.2,0.3,0.6,0.216617484022752,"false"
"image-keyboard-response",388,884672,"0.0-4.125-1.125","1doytpr87kqf58w",569,"158.csv","","null","resources/maskTrios/L4BB.jpg","null","",NA,NA,NA,NA,""
"image-keyboard-response",389,885874,"0.0-4.125-2.125","1doytpr87kqf58w",569,"158.csv","","null","resources/images/fishbone.png","null","",NA,NA,NA,NA,""
"image-keyboard-response",390,886193,"0.0-4.126-0.126","1doytpr87kqf58w",569,"158.csv","","318","resources/trios/L4T2A2.jpg","39","restless",0.2,0.3,0.6,0.431506016586128,"true"
"image-keyboard-response",391,886605,"0.0-4.126-1.126","1doytpr87kqf58w",569,"158.csv","","null","resources/maskTrios/BBA2.jpg","null","",NA,NA,NA,NA,""
"image-keyboard-response",392,887814,"0.0-4.126-2.126","1doytpr87kqf58w",569,"158.csv","","null","resources/images/coin2.png","null","",NA,NA,NA,NA,""
"image-keyboard-response",393,887990,"0.0-4.127-0.127","1doytpr87kqf58w",569,"158.csv","","174.69999980926514","resources/trios/L4T2A2.jpg","39","restless",0.3,0.3,0.6,0.553941208557624,"true"
"image-keyboard-response",394,888391,"0.0-4.127-1.127","1doytpr87kqf58w",569,"158.csv","","null","resources/maskTrios/BBA2.jpg","null","",NA,NA,NA,NA,""
"image-keyboard-response",395,889597,"0.0-4.127-2.127","1doytpr87kqf58w",569,"158.csv","","null","resources/images/coin2.png","null","",NA,NA,NA,NA,""
"image-keyboard-response",396,889609,"0.0-4.128-0.128","1doytpr87kqf58w",569,"158.csv","","10.300000190734863","resources/trios/L4T2A2.jpg","39","restless",0.3,0.3,0.6,0.0257935620566696,"true"
"image-keyboard-response",397,890016,"0.0-4.128-1.128","1doytpr87kqf58w",569,"158.csv","","null","resources/maskTrios/BBA2.jpg","null","",NA,NA,NA,NA,""
"image-keyboard-response",398,891231,"0.0-4.128-2.128","1doytpr87kqf58w",569,"158.csv","","null","resources/images/coin2.png","null","",NA,NA,NA,NA,""
"image-keyboard-response",399,891398,"0.0-4.129-0.129","1doytpr87kqf58w",569,"158.csv","","165.69999980926514","resources/trios/L4T2A2.jpg","39","restless",0.3,0.3,0.6,0.424095108130923,"true"
"image-keyboard-response",400,891808,"0.0-4.129-1.129","1doytpr87kqf58w",569,"158.csv","","null","resources/maskTrios/BBA2.jpg","null","",NA,NA,NA,NA,""
"image-keyboard-response",401,893020,"0.0-4.129-2.129","1doytpr87kqf58w",569,"158.csv","","null","resources/images/coin2.png","null","",NA,NA,NA,NA,""
"image-keyboard-response",402,893360,"0.0-4.130-0.130","1doytpr87kqf58w",569,"158.csv","","338.59999990463257","resources/trios/L4T2A2.jpg","39","restless",0.2,0.3,0.6,0.0736704444741672,"true"
"image-keyboard-response",403,893768,"0.0-4.130-1.130","1doytpr87kqf58w",569,"158.csv","","null","resources/maskTrios/BBA2.jpg","null","",NA,NA,NA,NA,""
"image-keyboard-response",404,894974,"0.0-4.130-2.130","1doytpr87kqf58w",569,"158.csv","","null","resources/images/coin2.png","null","",NA,NA,NA,NA,""
"image-keyboard-response",405,895645,"0.0-4.131-0.131","1doytpr87kqf58w",569,"158.csv","","669.7999997138977","resources/trios/L4T2A2.jpg","39","restless",0.2,0.3,0.6,0.29935666059817,"true"
"image-keyboard-response",406,896052,"0.0-4.131-1.131","1doytpr87kqf58w",569,"158.csv","","null","resources/maskTrios/BBA2.jpg","null","",NA,NA,NA,NA,""
"image-keyboard-response",407,897255,"0.0-4.131-2.131","1doytpr87kqf58w",569,"158.csv","","null","resources/images/coin2.png","null","",NA,NA,NA,NA,""
"image-keyboard-response",408,897541,"0.0-4.132-0.132","1doytpr87kqf58w",569,"158.csv","","284.30000019073486","resources/trios/L4T2A2.jpg","39","restless",0.2,0.3,0.7,0.0283837127978808,"true"
"image-keyboard-response",409,897957,"0.0-4.132-1.132","1doytpr87kqf58w",569,"158.csv","","null","resources/maskTrios/BBA2.jpg","null","",NA,NA,NA,NA,""
"image-keyboard-response",410,899172,"0.0-4.132-2.132","1doytpr87kqf58w",569,"158.csv","","null","resources/images/coin2.png","null","",NA,NA,NA,NA,""
"image-keyboard-response",411,899987,"0.0-4.133-0.133","1doytpr87kqf58w",569,"158.csv","","813.2999997138977","resources/trios/L4T2A2.jpg","38","restless",0.2,0.3,0.7,0.105733226247169,"true"
"image-keyboard-response",412,900392,"0.0-4.133-1.133","1doytpr87kqf58w",569,"158.csv","","null","resources/maskTrios/BT2B.jpg","null","",NA,NA,NA,NA,""
"image-keyboard-response",413,901607,"0.0-4.133-2.133","1doytpr87kqf58w",569,"158.csv","","null","resources/images/coin2.png","null","",NA,NA,NA,NA,""
"image-keyboard-response",414,901929,"0.0-4.134-0.134","1doytpr87kqf58w",569,"158.csv","","320.19999980926514","resources/trios/L4T2A2.jpg","38","restless",0.2,0.3,0.7,0.683472441823955,"false"
"image-keyboard-response",415,902338,"0.0-4.134-1.134","1doytpr87kqf58w",569,"158.csv","","null","resources/maskTrios/BT2B.jpg","null","",NA,NA,NA,NA,""
"image-keyboard-response",416,903555,"0.0-4.134-2.134","1doytpr87kqf58w",569,"158.csv","","null","resources/images/fishbone.png","null","",NA,NA,NA,NA,""
"image-keyboard-response",417,903861,"0.0-4.135-0.135","1doytpr87kqf58w",569,"158.csv","","305.19999980926514","resources/trios/L4T2A2.jpg","37","restless",0.2,0.3,0.6,0.843352943353242,"false"
"image-keyboard-response",418,904271,"0.0-4.135-1.135","1doytpr87kqf58w",569,"158.csv","","null","resources/maskTrios/L4BB.jpg","null","",NA,NA,NA,NA,""
"image-keyboard-response",419,905478,"0.0-4.135-2.135","1doytpr87kqf58w",569,"158.csv","","null","resources/images/fishbone.png","null","",NA,NA,NA,NA,""
"image-keyboard-response",420,905725,"0.0-4.136-0.136","1doytpr87kqf58w",569,"158.csv","","245.69999980926514","resources/trios/L4T2A2.jpg","37","restless",0.2,0.2,0.6,0.132824660230522,"true"
"image-keyboard-response",421,906133,"0.0-4.136-1.136","1doytpr87kqf58w",569,"158.csv","","null","resources/maskTrios/L4BB.jpg","null","",NA,NA,NA,NA,""
"image-keyboard-response",422,907347,"0.0-4.136-2.136","1doytpr87kqf58w",569,"158.csv","","null","resources/images/coin2.png","null","",NA,NA,NA,NA,""
"image-keyboard-response",423,907427,"0.0-4.137-0.137","1doytpr87kqf58w",569,"158.csv","","79","resources/trios/L4T2A2.jpg","37","restless",0.2,0.2,0.5,0.276068352258891,"false"
"image-keyboard-response",424,907844,"0.0-4.137-1.137","1doytpr87kqf58w",569,"158.csv","","null","resources/maskTrios/L4BB.jpg","null","",NA,NA,NA,NA,""
"image-keyboard-response",425,909058,"0.0-4.137-2.137","1doytpr87kqf58w",569,"158.csv","","null","resources/images/fishbone.png","null","",NA,NA,NA,NA,""
"image-keyboard-response",426,909380,"0.0-4.138-0.138","1doytpr87kqf58w",569,"158.csv","","320.69999980926514","resources/trios/L4T2A2.jpg","37","restless",0.2,0.2,0.5,0.358100800969968,"false"
"image-keyboard-response",427,909796,"0.0-4.138-1.138","1doytpr87kqf58w",569,"158.csv","","null","resources/maskTrios/L4BB.jpg","null","",NA,NA,NA,NA,""
"image-keyboard-response",428,911009,"0.0-4.138-2.138","1doytpr87kqf58w",569,"158.csv","","null","resources/images/fishbone.png","null","",NA,NA,NA,NA,""
"image-keyboard-response",429,911178,"0.0-4.139-0.139","1doytpr87kqf58w",569,"158.csv","","168","resources/trios/L4T2A2.jpg","37","restless",0.2,0.2,0.5,0.780401125228052,"false"
"image-keyboard-response",430,911589,"0.0-4.139-1.139","1doytpr87kqf58w",569,"158.csv","","null","resources/maskTrios/L4BB.jpg","null","",NA,NA,NA,NA,""
"image-keyboard-response",431,912805,"0.0-4.139-2.139","1doytpr87kqf58w",569,"158.csv","","null","resources/images/fishbone.png","null","",NA,NA,NA,NA,""
"image-keyboard-response",432,913110,"0.0-4.140-0.140","1doytpr87kqf58w",569,"158.csv","","303.90000009536743","resources/trios/L4T2A2.jpg","37","restless",0.2,0.2,0.5,0.377942186623907,"false"
"image-keyboard-response",433,913523,"0.0-4.140-1.140","1doytpr87kqf58w",569,"158.csv","","null","resources/maskTrios/L4BB.jpg","null","",NA,NA,NA,NA,""
"image-keyboard-response",434,914725,"0.0-4.140-2.140","1doytpr87kqf58w",569,"158.csv","","null","resources/images/fishbone.png","null","",NA,NA,NA,NA,""
"image-keyboard-response",435,915051,"0.0-4.141-0.141","1doytpr87kqf58w",569,"158.csv","","324.5","resources/trios/L4T2A2.jpg","39","restless",0.3,0.2,0.5,0.123533430907883,"true"
"image-keyboard-response",436,915463,"0.0-4.141-1.141","1doytpr87kqf58w",569,"158.csv","","null","resources/maskTrios/BBA2.jpg","null","",NA,NA,NA,NA,""
"image-keyboard-response",437,916665,"0.0-4.141-2.141","1doytpr87kqf58w",569,"158.csv","","null","resources/images/coin2.png","null","",NA,NA,NA,NA,""
"image-keyboard-response",438,916878,"0.0-4.142-0.142","1doytpr87kqf58w",569,"158.csv","","211.90000009536743","resources/trios/L4T2A2.jpg","39","restless",0.4,0.2,0.5,0.581873633390528,"false"
"image-keyboard-response",439,917288,"0.0-4.142-1.142","1doytpr87kqf58w",569,"158.csv","","null","resources/maskTrios/BBA2.jpg","null","",NA,NA,NA,NA,""
"image-keyboard-response",440,918491,"0.0-4.142-2.142","1doytpr87kqf58w",569,"158.csv","","null","resources/images/fishbone.png","null","",NA,NA,NA,NA,""
"image-keyboard-response",441,918681,"0.0-4.143-0.143","1doytpr87kqf58w",569,"158.csv","","189.09999990463257","resources/trios/L4T2A2.jpg","38","restless",0.4,0.2,0.5,0.617449989098678,"false"
"image-keyboard-response",442,919098,"0.0-4.143-1.143","1doytpr87kqf58w",569,"158.csv","","null","resources/maskTrios/BT2B.jpg","null","",NA,NA,NA,NA,""
"image-keyboard-response",443,920311,"0.0-4.143-2.143","1doytpr87kqf58w",569,"158.csv","","null","resources/images/fishbone.png","null","",NA,NA,NA,NA,""
"image-keyboard-response",444,921067,"0.0-4.144-0.144","1doytpr87kqf58w",569,"158.csv","","754","resources/trios/L4T2A2.jpg","38","restless",0.4,0.3,0.5,0.0459995502820958,"true"
"image-keyboard-response",445,921483,"0.0-4.144-1.144","1doytpr87kqf58w",569,"158.csv","","null","resources/maskTrios/BT2B.jpg","null","",NA,NA,NA,NA,""
"image-keyboard-response",446,922685,"0.0-4.144-2.144","1doytpr87kqf58w",569,"158.csv","","null","resources/images/coin2.png","null","",NA,NA,NA,NA,""
"image-keyboard-response",447,922892,"0.0-4.145-0.145","1doytpr87kqf58w",569,"158.csv","","205.60000038146973","resources/trios/L4T2A2.jpg","38","restless",0.4,0.4,0.5,0.363004562079036,"true"
"image-keyboard-response",448,923294,"0.0-4.145-1.145","1doytpr87kqf58w",569,"158.csv","","null","resources/maskTrios/BT2B.jpg","null","",NA,NA,NA,NA,""
"image-keyboard-response",449,924511,"0.0-4.145-2.145","1doytpr87kqf58w",569,"158.csv","","null","resources/images/coin2.png","null","",NA,NA,NA,NA,""
"image-keyboard-response",450,924593,"0.0-4.146-0.146","1doytpr87kqf58w",569,"158.csv","","81","resources/trios/L4T2A2.jpg","38","restless",0.4,0.4,0.5,0.683484669831035,"false"
"image-keyboard-response",451,925007,"0.0-4.146-1.146","1doytpr87kqf58w",569,"158.csv","","null","resources/maskTrios/BT2B.jpg","null","",NA,NA,NA,NA,""
"image-keyboard-response",452,926221,"0.0-4.146-2.146","1doytpr87kqf58w",569,"158.csv","","null","resources/images/fishbone.png","null","",NA,NA,NA,NA,""
"image-keyboard-response",453,926356,"0.0-4.147-0.147","1doytpr87kqf58w",569,"158.csv","","133.40000009536743","resources/trios/L4T2A2.jpg","37","restless",0.4,0.4,0.5,0.853265990473259,"false"
"image-keyboard-response",454,926766,"0.0-4.147-1.147","1doytpr87kqf58w",569,"158.csv","","null","resources/maskTrios/L4BB.jpg","null","",NA,NA,NA,NA,""
"image-keyboard-response",455,927982,"0.0-4.147-2.147","1doytpr87kqf58w",569,"158.csv","","null","resources/images/fishbone.png","null","",NA,NA,NA,NA,""
"image-keyboard-response",456,928339,"0.0-4.148-0.148","1doytpr87kqf58w",569,"158.csv","","355.90000009536743","resources/trios/L4T2A2.jpg","38","restless",0.4,0.4,0.5,0.611562020798722,"false"
"image-keyboard-response",457,928746,"0.0-4.148-1.148","1doytpr87kqf58w",569,"158.csv","","null","resources/maskTrios/BT2B.jpg","null","",NA,NA,NA,NA,""
"image-keyboard-response",458,929960,"0.0-4.148-2.148","1doytpr87kqf58w",569,"158.csv","","null","resources/images/fishbone.png","null","",NA,NA,NA,NA,""
"image-keyboard-response",459,930204,"0.0-4.149-0.149","1doytpr87kqf58w",569,"158.csv","","242.60000038146973","resources/trios/L4T2A2.jpg","38","restless",0.4,0.5,0.5,0.404710065122772,"true"
"image-keyboard-response",460,930619,"0.0-4.149-1.149","1doytpr87kqf58w",569,"158.csv","","null","resources/maskTrios/BT2B.jpg","null","",NA,NA,NA,NA,""
"image-keyboard-response",461,931824,"0.0-4.149-2.149","1doytpr87kqf58w",569,"158.csv","","null","resources/images/coin2.png","null","",NA,NA,NA,NA,""
"image-keyboard-response",462,932130,"0.0-4.150-0.150","1doytpr87kqf58w",569,"158.csv","","303.69999980926514","resources/trios/L4T2A2.jpg","38","restless",0.4,0.5,0.5,0.391787024203103,"true"
"image-keyboard-response",463,932539,"0.0-4.150-1.150","1doytpr87kqf58w",569,"158.csv","","null","resources/maskTrios/BT2B.jpg","null","",NA,NA,NA,NA,""
"image-keyboard-response",464,933751,"0.0-4.150-2.150","1doytpr87kqf58w",569,"158.csv","","null","resources/images/coin2.png","null","",NA,NA,NA,NA,""
"image-keyboard-response",465,934066,"0.0-4.151-0.151","1doytpr87kqf58w",569,"158.csv","","313.2999997138977","resources/trios/L4T2A2.jpg","38","restless",0.4,0.5,0.5,0.821458702257075,"false"
"image-keyboard-response",466,934468,"0.0-4.151-1.151","1doytpr87kqf58w",569,"158.csv","","null","resources/maskTrios/BT2B.jpg","null","",NA,NA,NA,NA,""
"image-keyboard-response",467,935670,"0.0-4.151-2.151","1doytpr87kqf58w",569,"158.csv","","null","resources/images/fishbone.png","null","",NA,NA,NA,NA,""
"image-keyboard-response",468,935965,"0.0-4.152-0.152","1doytpr87kqf58w",569,"158.csv","","293.7999997138977","resources/trios/L4T2A2.jpg","39","restless",0.4,0.5,0.6,0.354526599832477,"true"
"image-keyboard-response",469,936373,"0.0-4.152-1.152","1doytpr87kqf58w",569,"158.csv","","null","resources/maskTrios/BBA2.jpg","null","",NA,NA,NA,NA,""
"image-keyboard-response",470,937584,"0.0-4.152-2.152","1doytpr87kqf58w",569,"158.csv","","null","resources/images/coin2.png","null","",NA,NA,NA,NA,""
"image-keyboard-response",471,937895,"0.0-4.153-0.153","1doytpr87kqf58w",569,"158.csv","","309.5","resources/trios/L4T2A2.jpg","39","restless",0.4,0.5,0.6,0.595044873801584,"true"
"image-keyboard-response",472,938299,"0.0-4.153-1.153","1doytpr87kqf58w",569,"158.csv","","null","resources/maskTrios/BBA2.jpg","null","",NA,NA,NA,NA,""
"image-keyboard-response",473,939502,"0.0-4.153-2.153","1doytpr87kqf58w",569,"158.csv","","null","resources/images/coin2.png","null","",NA,NA,NA,NA,""
"image-keyboard-response",474,939596,"0.0-4.154-0.154","1doytpr87kqf58w",569,"158.csv","","92.09999990463257","resources/trios/L4T2A2.jpg","39","restless",0.4,0.5,0.6,0.984841452154977,"false"
"image-keyboard-response",475,940000,"0.0-4.154-1.154","1doytpr87kqf58w",569,"158.csv","","null","resources/maskTrios/BBA2.jpg","null","",NA,NA,NA,NA,""
"image-keyboard-response",476,941214,"0.0-4.154-2.154","1doytpr87kqf58w",569,"158.csv","","null","resources/images/fishbone.png","null","",NA,NA,NA,NA,""
"image-keyboard-response",477,941970,"0.0-4.155-0.155","1doytpr87kqf58w",569,"158.csv","","754.2999997138977","resources/trios/L4T2A2.jpg","37","restless",0.4,0.5,0.6,0.556215137287031,"false"
"image-keyboard-response",478,942382,"0.0-4.155-1.155","1doytpr87kqf58w",569,"158.csv","","null","resources/maskTrios/L4BB.jpg","null","",NA,NA,NA,NA,""
"image-keyboard-response",479,943597,"0.0-4.155-2.155","1doytpr87kqf58w",569,"158.csv","","null","resources/images/fishbone.png","null","",NA,NA,NA,NA,""
"image-keyboard-response",480,944048,"0.0-4.156-0.156","1doytpr87kqf58w",569,"158.csv","","449.59999990463257","resources/trios/L4T2A2.jpg","39","restless",0.4,0.5,0.6,0.641128053846334,"false"
"image-keyboard-response",481,944455,"0.0-4.156-1.156","1doytpr87kqf58w",569,"158.csv","","null","resources/maskTrios/BBA2.jpg","null","",NA,NA,NA,NA,""
"image-keyboard-response",482,945659,"0.0-4.156-2.156","1doytpr87kqf58w",569,"158.csv","","null","resources/images/fishbone.png","null","",NA,NA,NA,NA,""
"image-keyboard-response",483,946688,"0.0-4.157-0.157","1doytpr87kqf58w",569,"158.csv","","1027.8000001907349","resources/trios/L4T2A2.jpg","38","restless",0.4,0.5,0.6,0.725743029087811,"false"
"image-keyboard-response",484,947099,"0.0-4.157-1.157","1doytpr87kqf58w",569,"158.csv","","null","resources/maskTrios/BT2B.jpg","null","",NA,NA,NA,NA,""
"image-keyboard-response",485,948316,"0.0-4.157-2.157","1doytpr87kqf58w",569,"158.csv","","null","resources/images/fishbone.png","null","",NA,NA,NA,NA,""
"image-keyboard-response",486,948596,"0.0-4.158-0.158","1doytpr87kqf58w",569,"158.csv","","279","resources/trios/L4T2A2.jpg","39","restless",0.4,0.5,0.6,0.0706998335973414,"true"
"image-keyboard-response",487,949014,"0.0-4.158-1.158","1doytpr87kqf58w",569,"158.csv","","null","resources/maskTrios/BBA2.jpg","null","",NA,NA,NA,NA,""
"image-keyboard-response",488,950232,"0.0-4.158-2.158","1doytpr87kqf58w",569,"158.csv","","null","resources/images/coin2.png","null","",NA,NA,NA,NA,""
"image-keyboard-response",489,950382,"0.0-4.159-0.159","1doytpr87kqf58w",569,"158.csv","","148.59999990463257","resources/trios/L4T2A2.jpg","39","restless",0.4,0.6,0.6,0.764325632723869,"false"
"image-keyboard-response",490,950792,"0.0-4.159-1.159","1doytpr87kqf58w",569,"158.csv","","null","resources/maskTrios/BBA2.jpg","null","",NA,NA,NA,NA,""
"image-keyboard-response",491,951999,"0.0-4.159-2.159","1doytpr87kqf58w",569,"158.csv","","null","resources/images/fishbone.png","null","",NA,NA,NA,NA,""
"image-keyboard-response",492,952396,"0.0-4.160-0.160","1doytpr87kqf58w",569,"158.csv","","396.5","resources/trios/L4T2A2.jpg","39","restless",0.4,0.6,0.6,0.88946912009819,"false"
"image-keyboard-response",493,952811,"0.0-4.160-1.160","1doytpr87kqf58w",569,"158.csv","","null","resources/maskTrios/BBA2.jpg","null","",NA,NA,NA,NA,""
"image-keyboard-response",494,954028,"0.0-4.160-2.160","1doytpr87kqf58w",569,"158.csv","","null","resources/images/fishbone.png","null","",NA,NA,NA,NA,""
"image-keyboard-response",495,954208,"0.0-4.161-0.161","1doytpr87kqf58w",569,"158.csv","","178.40000009536743","resources/trios/L4T2A2.jpg","37","restless",0.4,0.6,0.6,0.534794381858775,"false"
"image-keyboard-response",496,954618,"0.0-4.161-1.161","1doytpr87kqf58w",569,"158.csv","","null","resources/maskTrios/L4BB.jpg","null","",NA,NA,NA,NA,""
"image-keyboard-response",497,955822,"0.0-4.161-2.161","1doytpr87kqf58w",569,"158.csv","","null","resources/images/fishbone.png","null","",NA,NA,NA,NA,""
"image-keyboard-response",498,955990,"0.0-4.162-0.162","1doytpr87kqf58w",569,"158.csv","","166.30000019073486","resources/trios/L4T2A2.jpg","37","restless",0.4,0.6,0.6,0.630405732073112,"false"
"image-keyboard-response",499,956398,"0.0-4.162-1.162","1doytpr87kqf58w",569,"158.csv","","null","resources/maskTrios/L4BB.jpg","null","",NA,NA,NA,NA,""
"image-keyboard-response",500,957600,"0.0-4.162-2.162","1doytpr87kqf58w",569,"158.csv","","null","resources/images/fishbone.png","null","",NA,NA,NA,NA,""
"image-keyboard-response",501,957914,"0.0-4.163-0.163","1doytpr87kqf58w",569,"158.csv","","311.90000009536743","resources/trios/L4T2A2.jpg","38","restless",0.4,0.6,0.6,0.22367820243775,"true"
"image-keyboard-response",502,958317,"0.0-4.163-1.163","1doytpr87kqf58w",569,"158.csv","","null","resources/maskTrios/BT2B.jpg","null","",NA,NA,NA,NA,""
"image-keyboard-response",503,959529,"0.0-4.163-2.163","1doytpr87kqf58w",569,"158.csv","","null","resources/images/coin2.png","null","",NA,NA,NA,NA,""
"image-keyboard-response",504,959835,"0.0-4.164-0.164","1doytpr87kqf58w",569,"158.csv","","305.3999996185303","resources/trios/L4T2A2.jpg","37","restless",0.4,0.6,0.6,0.188868174640512,"true"
"image-keyboard-response",505,960247,"0.0-4.164-1.164","1doytpr87kqf58w",569,"158.csv","","null","resources/maskTrios/L4BB.jpg","null","",NA,NA,NA,NA,""
"image-keyboard-response",506,961449,"0.0-4.164-2.164","1doytpr87kqf58w",569,"158.csv","","null","resources/images/coin2.png","null","",NA,NA,NA,NA,""
"image-keyboard-response",507,961690,"0.0-4.165-0.165","1doytpr87kqf58w",569,"158.csv","","240.60000038146973","resources/trios/L4T2A2.jpg","37","restless",0.4,0.6,0.6,0.0831365028045823,"true"
"image-keyboard-response",508,962107,"0.0-4.165-1.165","1doytpr87kqf58w",569,"158.csv","","null","resources/maskTrios/L4BB.jpg","null","",NA,NA,NA,NA,""
"image-keyboard-response",509,963320,"0.0-4.165-2.165","1doytpr87kqf58w",569,"158.csv","","null","resources/images/coin2.png","null","",NA,NA,NA,NA,""
"image-keyboard-response",510,963588,"0.0-4.166-0.166","1doytpr87kqf58w",569,"158.csv","","266","resources/trios/L4T2A2.jpg","37","restless",0.4,0.6,0.6,0.299664495683974,"true"
"image-keyboard-response",511,964003,"0.0-4.166-1.166","1doytpr87kqf58w",569,"158.csv","","null","resources/maskTrios/L4BB.jpg","null","",NA,NA,NA,NA,""
"image-keyboard-response",512,965220,"0.0-4.166-2.166","1doytpr87kqf58w",569,"158.csv","","null","resources/images/coin2.png","null","",NA,NA,NA,NA,""
"image-keyboard-response",513,965599,"0.0-4.167-0.167","1doytpr87kqf58w",569,"158.csv","","377.90000009536743","resources/trios/L4T2A2.jpg","37","restless",0.4,0.6,0.6,0.358235420561471,"true"
"image-keyboard-response",514,966016,"0.0-4.167-1.167","1doytpr87kqf58w",569,"158.csv","","null","resources/maskTrios/L4BB.jpg","null","",NA,NA,NA,NA,""
"image-keyboard-response",515,967230,"0.0-4.167-2.167","1doytpr87kqf58w",569,"158.csv","","null","resources/images/coin2.png","null","",NA,NA,NA,NA,""
"image-keyboard-response",516,967506,"0.0-4.168-0.168","1doytpr87kqf58w",569,"158.csv","","274.69999980926514","resources/trios/L4T2A2.jpg","37","restless",0.4,0.5,0.6,0.55774777336542,"false"
"image-keyboard-response",517,967918,"0.0-4.168-1.168","1doytpr87kqf58w",569,"158.csv","","null","resources/maskTrios/L4BB.jpg","null","",NA,NA,NA,NA,""
"image-keyboard-response",518,969126,"0.0-4.168-2.168","1doytpr87kqf58w",569,"158.csv","","null","resources/images/fishbone.png","null","",NA,NA,NA,NA,""
"image-keyboard-response",519,969675,"0.0-4.169-0.169","1doytpr87kqf58w",569,"158.csv","","547.0999999046326","resources/trios/L4T2A2.jpg","39","restless",0.4,0.5,0.6,0.329551104733051,"true"
"image-keyboard-response",520,970080,"0.0-4.169-1.169","1doytpr87kqf58w",569,"158.csv","","null","resources/maskTrios/BBA2.jpg","null","",NA,NA,NA,NA,""
"image-keyboard-response",521,971295,"0.0-4.169-2.169","1doytpr87kqf58w",569,"158.csv","","null","resources/images/coin2.png","null","",NA,NA,NA,NA,""
"image-keyboard-response",522,971422,"0.0-4.170-0.170","1doytpr87kqf58w",569,"158.csv","","126.09999990463257","resources/trios/L4T2A2.jpg","39","restless",0.5,0.5,0.6,0.422126517720459,"true"
"image-keyboard-response",523,971826,"0.0-4.170-1.170","1doytpr87kqf58w",569,"158.csv","","null","resources/maskTrios/BBA2.jpg","null","",NA,NA,NA,NA,""
"image-keyboard-response",524,973027,"0.0-4.170-2.170","1doytpr87kqf58w",569,"158.csv","","null","resources/images/coin2.png","null","",NA,NA,NA,NA,""
"image-keyboard-response",525,973297,"0.0-4.171-0.171","1doytpr87kqf58w",569,"158.csv","","268.80000019073486","resources/trios/L4T2A2.jpg","39","restless",0.5,0.5,0.6,0.357311038420955,"true"
"image-keyboard-response",526,973715,"0.0-4.171-1.171","1doytpr87kqf58w",569,"158.csv","","null","resources/maskTrios/BBA2.jpg","null","",NA,NA,NA,NA,""
"image-keyboard-response",527,974927,"0.0-4.171-2.171","1doytpr87kqf58w",569,"158.csv","","null","resources/images/coin2.png","null","",NA,NA,NA,NA,""
"image-keyboard-response",528,975262,"0.0-4.172-0.172","1doytpr87kqf58w",569,"158.csv","","333.09999990463257","resources/trios/L4T2A2.jpg","39","restless",0.5,0.5,0.6,0.387073480021324,"true"
"image-keyboard-response",529,975675,"0.0-4.172-1.172","1doytpr87kqf58w",569,"158.csv","","null","resources/maskTrios/BBA2.jpg","null","",NA,NA,NA,NA,""
"image-keyboard-response",530,976880,"0.0-4.172-2.172","1doytpr87kqf58w",569,"158.csv","","null","resources/images/coin2.png","null","",NA,NA,NA,NA,""
"image-keyboard-response",531,977340,"0.0-4.173-0.173","1doytpr87kqf58w",569,"158.csv","","457.69999980926514","resources/trios/L4T2A2.jpg","39","restless",0.5,0.5,0.6,0.401370555220722,"true"
"image-keyboard-response",532,977746,"0.0-4.173-1.173","1doytpr87kqf58w",569,"158.csv","","null","resources/maskTrios/BBA2.jpg","null","",NA,NA,NA,NA,""
"image-keyboard-response",533,978961,"0.0-4.173-2.173","1doytpr87kqf58w",569,"158.csv","","null","resources/images/coin2.png","null","",NA,NA,NA,NA,""
"image-keyboard-response",534,979265,"0.0-4.174-0.174","1doytpr87kqf58w",569,"158.csv","","303","resources/trios/L4T2A2.jpg","39","restless",0.5,0.5,0.6,0.709307344485625,"false"
"image-keyboard-response",535,979680,"0.0-4.174-1.174","1doytpr87kqf58w",569,"158.csv","","null","resources/maskTrios/BBA2.jpg","null","",NA,NA,NA,NA,""
"image-keyboard-response",536,980894,"0.0-4.174-2.174","1doytpr87kqf58w",569,"158.csv","","null","resources/images/fishbone.png","null","",NA,NA,NA,NA,""
"image-keyboard-response",537,981139,"0.0-4.175-0.175","1doytpr87kqf58w",569,"158.csv","","243.40000009536743","resources/trios/L4T2A2.jpg","38","restless",0.5,0.5,0.5,0.134147837929852,"true"
"image-keyboard-response",538,981549,"0.0-4.175-1.175","1doytpr87kqf58w",569,"158.csv","","null","resources/maskTrios/BT2B.jpg","null","",NA,NA,NA,NA,""
"image-keyboard-response",539,982765,"0.0-4.175-2.175","1doytpr87kqf58w",569,"158.csv","","null","resources/images/coin2.png","null","",NA,NA,NA,NA,""
"image-keyboard-response",540,983071,"0.0-4.176-0.176","1doytpr87kqf58w",569,"158.csv","","305.2000002861023","resources/trios/L4T2A2.jpg","38","restless",0.5,0.5,0.5,0.303416770258346,"true"
"image-keyboard-response",541,983483,"0.0-4.176-1.176","1doytpr87kqf58w",569,"158.csv","","null","resources/maskTrios/BT2B.jpg","null","",NA,NA,NA,NA,""
"image-keyboard-response",542,984689,"0.0-4.176-2.176","1doytpr87kqf58w",569,"158.csv","","null","resources/images/coin2.png","null","",NA,NA,NA,NA,""
"image-keyboard-response",543,985152,"0.0-4.177-0.177","1doytpr87kqf58w",569,"158.csv","","461.19999980926514","resources/trios/L4T2A2.jpg","38","restless",0.5,0.5,0.5,0.12189221586028,"true"
"image-keyboard-response",544,985558,"0.0-4.177-1.177","1doytpr87kqf58w",569,"158.csv","","null","resources/maskTrios/BT2B.jpg","null","",NA,NA,NA,NA,""
"image-keyboard-response",545,986775,"0.0-4.177-2.177","1doytpr87kqf58w",569,"158.csv","","null","resources/images/coin2.png","null","",NA,NA,NA,NA,""
"image-keyboard-response",546,987268,"0.0-4.178-0.178","1doytpr87kqf58w",569,"158.csv","","492.09999990463257","resources/trios/L4T2A2.jpg","37","restless",0.5,0.5,0.5,0.654431999340847,"false"
"image-keyboard-response",547,987678,"0.0-4.178-1.178","1doytpr87kqf58w",569,"158.csv","","null","resources/maskTrios/L4BB.jpg","null","",NA,NA,NA,NA,""
"image-keyboard-response",548,988890,"0.0-4.178-2.178","1doytpr87kqf58w",569,"158.csv","","null","resources/images/fishbone.png","null","",NA,NA,NA,NA,""
"image-keyboard-response",549,989208,"0.0-4.179-0.179","1doytpr87kqf58w",569,"158.csv","","316.69999980926514","resources/trios/L4T2A2.jpg","39","restless",0.5,0.5,0.5,0.368448269036667,"true"
"image-keyboard-response",550,989624,"0.0-4.179-1.179","1doytpr87kqf58w",569,"158.csv","","null","resources/maskTrios/BBA2.jpg","null","",NA,NA,NA,NA,""
"image-keyboard-response",551,990839,"0.0-4.179-2.179","1doytpr87kqf58w",569,"158.csv","","null","resources/images/coin2.png","null","",NA,NA,NA,NA,""
"image-keyboard-response",552,991115,"0.0-4.180-0.180","1doytpr87kqf58w",569,"158.csv","","273.90000009536743","resources/trios/L4T2A2.jpg","39","restless",0.5,0.5,0.5,0.518870912492017,"false"
"image-keyboard-response",553,991524,"0.0-4.180-1.180","1doytpr87kqf58w",569,"158.csv","","null","resources/maskTrios/BBA2.jpg","null","",NA,NA,NA,NA,""
"image-keyboard-response",554,992727,"0.0-4.180-2.180","1doytpr87kqf58w",569,"158.csv","","null","resources/images/fishbone.png","null","",NA,NA,NA,NA,""
"image-keyboard-response",555,993013,"0.0-4.181-0.181","1doytpr87kqf58w",569,"158.csv","","283.59999990463257","resources/trios/L4T2A2.jpg","38","restless",0.5,0.5,0.5,0.611607189542286,"false"
"image-keyboard-response",556,993426,"0.0-4.181-1.181","1doytpr87kqf58w",569,"158.csv","","null","resources/maskTrios/BT2B.jpg","null","",NA,NA,NA,NA,""
"image-keyboard-response",557,994640,"0.0-4.181-2.181","1doytpr87kqf58w",569,"158.csv","","null","resources/images/fishbone.png","null","",NA,NA,NA,NA,""
"image-keyboard-response",558,994943,"0.0-4.182-0.182","1doytpr87kqf58w",569,"158.csv","","300.5","resources/trios/L4T2A2.jpg","38","restless",0.5,0.6,0.5,0.888553863382908,"false"
"image-keyboard-response",559,995354,"0.0-4.182-1.182","1doytpr87kqf58w",569,"158.csv","","null","resources/maskTrios/BT2B.jpg","null","",NA,NA,NA,NA,""
"image-keyboard-response",560,996569,"0.0-4.182-2.182","1doytpr87kqf58w",569,"158.csv","","null","resources/images/fishbone.png","null","",NA,NA,NA,NA,""
"image-keyboard-response",561,996830,"0.0-4.183-0.183","1doytpr87kqf58w",569,"158.csv","","260.19999980926514","resources/trios/L4T2A2.jpg","39","restless",0.5,0.6,0.5,0.0794886683485416,"true"
"image-keyboard-response",562,997237,"0.0-4.183-1.183","1doytpr87kqf58w",569,"158.csv","","null","resources/maskTrios/BBA2.jpg","null","",NA,NA,NA,NA,""
"image-keyboard-response",563,998439,"0.0-4.183-2.183","1doytpr87kqf58w",569,"158.csv","","null","resources/images/coin2.png","null","",NA,NA,NA,NA,""
"image-keyboard-response",564,998608,"0.0-4.184-0.184","1doytpr87kqf58w",569,"158.csv","","167.7000002861023","resources/trios/L4T2A2.jpg","39","restless",0.5,0.6,0.5,0.850247400168705,"false"
"image-keyboard-response",565,999012,"0.0-4.184-1.184","1doytpr87kqf58w",569,"158.csv","","null","resources/maskTrios/BBA2.jpg","null","",NA,NA,NA,NA,""
"image-keyboard-response",566,1000216,"0.0-4.184-2.184","1doytpr87kqf58w",569,"158.csv","","null","resources/images/fishbone.png","null","",NA,NA,NA,NA,""
"image-keyboard-response",567,1000469,"0.0-4.185-0.185","1doytpr87kqf58w",569,"158.csv","","251.19999980926514","resources/trios/L4T2A2.jpg","39","restless",0.5,0.5,0.5,0.239155917736938,"true"
"image-keyboard-response",568,1000883,"0.0-4.185-1.185","1doytpr87kqf58w",569,"158.csv","","null","resources/maskTrios/BBA2.jpg","null","",NA,NA,NA,NA,""
"image-keyboard-response",569,1002100,"0.0-4.185-2.185","1doytpr87kqf58w",569,"158.csv","","null","resources/images/coin2.png","null","",NA,NA,NA,NA,""
"image-keyboard-response",570,1002454,"0.0-4.186-0.186","1doytpr87kqf58w",569,"158.csv","","353.40000009536743","resources/trios/L4T2A2.jpg","39","restless",0.5,0.5,0.5,0.418368680819603,"true"
"image-keyboard-response",571,1002865,"0.0-4.186-1.186","1doytpr87kqf58w",569,"158.csv","","null","resources/maskTrios/BBA2.jpg","null","",NA,NA,NA,NA,""
"image-keyboard-response",572,1004077,"0.0-4.186-2.186","1doytpr87kqf58w",569,"158.csv","","null","resources/images/coin2.png","null","",NA,NA,NA,NA,""
"image-keyboard-response",573,1004423,"0.0-4.187-0.187","1doytpr87kqf58w",569,"158.csv","","343.40000009536743","resources/trios/L4T2A2.jpg","39","restless",0.4,0.5,0.4,0.188947782545884,"true"
"image-keyboard-response",574,1004827,"0.0-4.187-1.187","1doytpr87kqf58w",569,"158.csv","","null","resources/maskTrios/BBA2.jpg","null","",NA,NA,NA,NA,""
"image-keyboard-response",575,1006043,"0.0-4.187-2.187","1doytpr87kqf58w",569,"158.csv","","null","resources/images/coin2.png","null","",NA,NA,NA,NA,""
"image-keyboard-response",576,1006330,"0.0-4.188-0.188","1doytpr87kqf58w",569,"158.csv","","285.5","resources/trios/L4T2A2.jpg","39","restless",0.4,0.5,0.4,0.147211786050944,"true"
"image-keyboard-response",577,1006733,"0.0-4.188-1.188","1doytpr87kqf58w",569,"158.csv","","null","resources/maskTrios/BBA2.jpg","null","",NA,NA,NA,NA,""
"image-keyboard-response",578,1007947,"0.0-4.188-2.188","1doytpr87kqf58w",569,"158.csv","","null","resources/images/coin2.png","null","",NA,NA,NA,NA,""
"image-keyboard-response",579,1008390,"0.0-4.189-0.189","1doytpr87kqf58w",569,"158.csv","","442","resources/trios/L4T2A2.jpg","39","restless",0.4,0.5,0.4,0.942532557247591,"false"
"image-keyboard-response",580,1008808,"0.0-4.189-1.189","1doytpr87kqf58w",569,"158.csv","","null","resources/maskTrios/BBA2.jpg","null","",NA,NA,NA,NA,""
"image-keyboard-response",581,1010025,"0.0-4.189-2.189","1doytpr87kqf58w",569,"158.csv","","null","resources/images/fishbone.png","null","",NA,NA,NA,NA,""
"image-keyboard-response",582,1010407,"0.0-4.190-0.190","1doytpr87kqf58w",569,"158.csv","","380.5","resources/trios/L4T2A2.jpg","37","restless",0.4,0.5,0.4,0.0460620574191906,"true"
"image-keyboard-response",583,1010822,"0.0-4.190-1.190","1doytpr87kqf58w",569,"158.csv","","null","resources/maskTrios/L4BB.jpg","null","",NA,NA,NA,NA,""
"image-keyboard-response",584,1012026,"0.0-4.190-2.190","1doytpr87kqf58w",569,"158.csv","","null","resources/images/coin2.png","null","",NA,NA,NA,NA,""
"image-keyboard-response",585,1012333,"0.0-4.191-0.191","1doytpr87kqf58w",569,"158.csv","","306.30000019073486","resources/trios/L4T2A2.jpg","37","restless",0.4,0.5,0.4,0.263855775924004,"true"
"image-keyboard-response",586,1012744,"0.0-4.191-1.191","1doytpr87kqf58w",569,"158.csv","","null","resources/maskTrios/L4BB.jpg","null","",NA,NA,NA,NA,""
"image-keyboard-response",587,1013947,"0.0-4.191-2.191","1doytpr87kqf58w",569,"158.csv","","null","resources/images/coin2.png","null","",NA,NA,NA,NA,""
"image-keyboard-response",588,1014325,"0.0-4.192-0.192","1doytpr87kqf58w",569,"158.csv","","376.7999997138977","resources/trios/L4T2A2.jpg","37","restless",0.4,0.5,0.4,0.823689943677628,"false"
"image-keyboard-response",589,1014730,"0.0-4.192-1.192","1doytpr87kqf58w",569,"158.csv","","null","resources/maskTrios/L4BB.jpg","null","",NA,NA,NA,NA,""
"image-keyboard-response",590,1015945,"0.0-4.192-2.192","1doytpr87kqf58w",569,"158.csv","","null","resources/images/fishbone.png","null","",NA,NA,NA,NA,""
"image-keyboard-response",591,1016202,"0.0-4.193-0.193","1doytpr87kqf58w",569,"158.csv","","255.90000009536743","resources/trios/L4T2A2.jpg","38","restless",0.4,0.5,0.4,0.587290331995486,"false"
"image-keyboard-response",592,1016617,"0.0-4.193-1.193","1doytpr87kqf58w",569,"158.csv","","null","resources/maskTrios/BT2B.jpg","null","",NA,NA,NA,NA,""
"image-keyboard-response",593,1017829,"0.0-4.193-2.193","1doytpr87kqf58w",569,"158.csv","","null","resources/images/fishbone.png","null","",NA,NA,NA,NA,""
"image-keyboard-response",594,1017909,"0.0-4.194-0.194","1doytpr87kqf58w",569,"158.csv","","79.09999990463257","resources/trios/L4T2A2.jpg","38","restless",0.4,0.5,0.4,0.260812964834627,"true"
"image-keyboard-response",595,1018326,"0.0-4.194-1.194","1doytpr87kqf58w",569,"158.csv","","null","resources/maskTrios/BT2B.jpg","null","",NA,NA,NA,NA,""
"image-keyboard-response",596,1019541,"0.0-4.194-2.194","1doytpr87kqf58w",569,"158.csv","","null","resources/images/coin2.png","null","",NA,NA,NA,NA,""
"image-keyboard-response",597,1019872,"0.0-4.195-0.195","1doytpr87kqf58w",569,"158.csv","","329.19999980926514","resources/trios/L4T2A2.jpg","38","restless",0.4,0.5,0.4,0.0386212878230863,"true"
"image-keyboard-response",598,1020288,"0.0-4.195-1.195","1doytpr87kqf58w",569,"158.csv","","null","resources/maskTrios/BT2B.jpg","null","",NA,NA,NA,NA,""
"image-keyboard-response",599,1021503,"0.0-4.195-2.195","1doytpr87kqf58w",569,"158.csv","","null","resources/images/coin2.png","null","",NA,NA,NA,NA,""
"image-keyboard-response",600,1021794,"0.0-4.196-0.196","1doytpr87kqf58w",569,"158.csv","","288.8999996185303","resources/trios/L4T2A2.jpg","38","restless",0.3,0.5,0.4,0.932446755487776,"false"
"image-keyboard-response",601,1022203,"0.0-4.196-1.196","1doytpr87kqf58w",569,"158.csv","","null","resources/maskTrios/BT2B.jpg","null","",NA,NA,NA,NA,""
"image-keyboard-response",602,1023418,"0.0-4.196-2.196","1doytpr87kqf58w",569,"158.csv","","null","resources/images/fishbone.png","null","",NA,NA,NA,NA,""
"image-keyboard-response",603,1023510,"0.0-4.197-0.197","1doytpr87kqf58w",569,"158.csv","","90","resources/trios/L4T2A2.jpg","37","restless",0.3,0.5,0.4,0.752257259238716,"false"
"image-keyboard-response",604,1023919,"0.0-4.197-1.197","1doytpr87kqf58w",569,"158.csv","","null","resources/maskTrios/L4BB.jpg","null","",NA,NA,NA,NA,""
"image-keyboard-response",605,1025133,"0.0-4.197-2.197","1doytpr87kqf58w",569,"158.csv","","null","resources/images/fishbone.png","null","",NA,NA,NA,NA,""
"image-keyboard-response",606,1025461,"0.0-4.198-0.198","1doytpr87kqf58w",569,"158.csv","","327.2000002861023","resources/trios/L4T2A2.jpg","39","restless",0.3,0.5,0.4,0.252029807622008,"true"
"image-keyboard-response",607,1025868,"0.0-4.198-1.198","1doytpr87kqf58w",569,"158.csv","","null","resources/maskTrios/BBA2.jpg","null","",NA,NA,NA,NA,""
"image-keyboard-response",608,1027086,"0.0-4.198-2.198","1doytpr87kqf58w",569,"158.csv","","null","resources/images/coin2.png","null","",NA,NA,NA,NA,""
