"trial_type","trial_index","time_elapsed","internal_node_id","subject","participantCode","walkNumber","success","rt","stimulus","key_press","test_part","leftProb","midProb","rightProb","generatedNum","correct"
"pavlovia",0,1442,"0.0-0.0","nxp8ky5d8aanw0c",358,"110.csv","","","","","",NA,NA,NA,NA,""
"fullscreen",1,9023,"0.0-1.0","nxp8ky5d8aanw0c",358,"110.csv","true","","","","",NA,NA,NA,NA,""
"survey-html-form",2,17470,"0.0-2.0","nxp8ky5d8aanw0c",358,"110.csv","","8446.5","","","",NA,NA,NA,NA,""
"image-keyboard-response",3,65189,"0.0-3.0-0.0","nxp8ky5d8aanw0c",358,"110.csv","","47714.59999990463","resources/images/parrot_nobg.png","13","",NA,NA,NA,NA,""
"image-keyboard-response",4,68210,"0.0-3.0-1.0","nxp8ky5d8aanw0c",358,"110.csv","","null","resources/image_sets/111.png","null","",NA,NA,NA,NA,""
"image-keyboard-response",5,78181,"0.0-3.0-2.0","nxp8ky5d8aanw0c",358,"110.csv","","9970.099999904633","resources/image_sets/left_highlight.png","37","",NA,NA,NA,NA,""
"image-keyboard-response",6,84754,"0.0-3.0-3.0","nxp8ky5d8aanw0c",358,"110.csv","","6572.199999809265","resources/image_sets/mid_highlight.png","38","",NA,NA,NA,NA,""
"image-keyboard-response",7,85882,"0.0-3.0-4.0","nxp8ky5d8aanw0c",358,"110.csv","","1127.2000002861023","resources/image_sets/right_highlight.png","39","",NA,NA,NA,NA,""
"image-keyboard-response",8,92681,"0.0-3.0-5.0","nxp8ky5d8aanw0c",358,"110.csv","","6798.299999713898","resources/image_sets/111.png","13","",NA,NA,NA,NA,""
"image-keyboard-response",9,95613,"0.0-3.0-6.0","nxp8ky5d8aanw0c",358,"110.csv","","2930.800000190735","resources/images/coin2.png","13","",NA,NA,NA,NA,""
"image-keyboard-response",10,97677,"0.0-3.0-7.0","nxp8ky5d8aanw0c",358,"110.csv","","2063.0999999046326","resources/images/fishbone.png","13","",NA,NA,NA,NA,""
"html-keyboard-response",11,103153,"0.0-3.0-8.0","nxp8ky5d8aanw0c",358,"110.csv","","5475","<p>You can track your coin total on the top right of your screen. </p><p>At the end of your journey you will be directed to a survey, so please click on the link before exiting the task</p><p>Press Enter to begin</p>","13","",NA,NA,NA,NA,""
"image-keyboard-response",12,110986,"0.0-4.0-0.0","nxp8ky5d8aanw0c",358,"110.csv","","7831","resources/trios/L4T4A2.jpg","38","restless",0.9,0.3,0.7,0.448502918956069,"false"
"image-keyboard-response",13,111390,"0.0-4.0-1.0","nxp8ky5d8aanw0c",358,"110.csv","","null","resources/maskTrios/BT4B.jpg","null","",NA,NA,NA,NA,""
"image-keyboard-response",14,112595,"0.0-4.0-2.0","nxp8ky5d8aanw0c",358,"110.csv","","null","resources/images/fishbone.png","null","",NA,NA,NA,NA,""
"image-keyboard-response",15,114666,"0.0-4.1-0.1","nxp8ky5d8aanw0c",358,"110.csv","","2070.199999809265","resources/trios/L4T4A2.jpg","37","restless",0.9,0.3,0.7,0.567033378482323,"true"
"image-keyboard-response",16,115082,"0.0-4.1-1.1","nxp8ky5d8aanw0c",358,"110.csv","","null","resources/maskTrios/L4BB.jpg","null","",NA,NA,NA,NA,""
"image-keyboard-response",17,116283,"0.0-4.1-2.1","nxp8ky5d8aanw0c",358,"110.csv","","null","resources/images/coin2.png","null","",NA,NA,NA,NA,""
"image-keyboard-response",18,116947,"0.0-4.2-0.2","nxp8ky5d8aanw0c",358,"110.csv","","663","resources/trios/L4T4A2.jpg","37","restless",0.9,0.3,0.7,0.755224455423704,"true"
"image-keyboard-response",19,117352,"0.0-4.2-1.2","nxp8ky5d8aanw0c",358,"110.csv","","null","resources/maskTrios/L4BB.jpg","null","",NA,NA,NA,NA,""
"image-keyboard-response",20,118561,"0.0-4.2-2.2","nxp8ky5d8aanw0c",358,"110.csv","","null","resources/images/coin2.png","null","",NA,NA,NA,NA,""
"image-keyboard-response",21,119056,"0.0-4.3-0.3","nxp8ky5d8aanw0c",358,"110.csv","","494.69999980926514","resources/trios/L4T4A2.jpg","37","restless",0.9,0.3,0.7,0.541367945871907,"true"
"image-keyboard-response",22,119460,"0.0-4.3-1.3","nxp8ky5d8aanw0c",358,"110.csv","","null","resources/maskTrios/L4BB.jpg","null","",NA,NA,NA,NA,""
"image-keyboard-response",23,120667,"0.0-4.3-2.3","nxp8ky5d8aanw0c",358,"110.csv","","null","resources/images/coin2.png","null","",NA,NA,NA,NA,""
"image-keyboard-response",24,121056,"0.0-4.4-0.4","nxp8ky5d8aanw0c",358,"110.csv","","388","resources/trios/L4T4A2.jpg","37","restless",0.9,0.3,0.7,0.0980455561311144,"true"
"image-keyboard-response",25,121469,"0.0-4.4-1.4","nxp8ky5d8aanw0c",358,"110.csv","","null","resources/maskTrios/L4BB.jpg","null","",NA,NA,NA,NA,""
"image-keyboard-response",26,122685,"0.0-4.4-2.4","nxp8ky5d8aanw0c",358,"110.csv","","null","resources/images/coin2.png","null","",NA,NA,NA,NA,""
"image-keyboard-response",27,123040,"0.0-4.5-0.5","nxp8ky5d8aanw0c",358,"110.csv","","354","resources/trios/L4T4A2.jpg","39","restless",0.9,0.3,0.7,0.792840292446997,"false"
"image-keyboard-response",28,123447,"0.0-4.5-1.5","nxp8ky5d8aanw0c",358,"110.csv","","null","resources/maskTrios/BBA2.jpg","null","",NA,NA,NA,NA,""
"image-keyboard-response",29,124662,"0.0-4.5-2.5","nxp8ky5d8aanw0c",358,"110.csv","","null","resources/images/fishbone.png","null","",NA,NA,NA,NA,""
"image-keyboard-response",30,125130,"0.0-4.6-0.6","nxp8ky5d8aanw0c",358,"110.csv","","467.30000019073486","resources/trios/L4T4A2.jpg","37","restless",0.9,0.3,0.7,0.00192025118337558,"true"
"image-keyboard-response",31,125533,"0.0-4.6-1.6","nxp8ky5d8aanw0c",358,"110.csv","","null","resources/maskTrios/L4BB.jpg","null","",NA,NA,NA,NA,""
"image-keyboard-response",32,126749,"0.0-4.6-2.6","nxp8ky5d8aanw0c",358,"110.csv","","null","resources/images/coin2.png","null","",NA,NA,NA,NA,""
"image-keyboard-response",33,127526,"0.0-4.7-0.7","nxp8ky5d8aanw0c",358,"110.csv","","776.5","resources/trios/L4T4A2.jpg","37","restless",0.8,0.3,0.7,0.302733428549234,"true"
"image-keyboard-response",34,127942,"0.0-4.7-1.7","nxp8ky5d8aanw0c",358,"110.csv","","null","resources/maskTrios/L4BB.jpg","null","",NA,NA,NA,NA,""
"image-keyboard-response",35,129153,"0.0-4.7-2.7","nxp8ky5d8aanw0c",358,"110.csv","","null","resources/images/coin2.png","null","",NA,NA,NA,NA,""
"image-keyboard-response",36,130595,"0.0-4.8-0.8","nxp8ky5d8aanw0c",358,"110.csv","","1440.5","resources/trios/L4T4A2.jpg","37","restless",0.8,0.3,0.7,0.166892870933155,"true"
"image-keyboard-response",37,131003,"0.0-4.8-1.8","nxp8ky5d8aanw0c",358,"110.csv","","null","resources/maskTrios/L4BB.jpg","null","",NA,NA,NA,NA,""
"image-keyboard-response",38,132212,"0.0-4.8-2.8","nxp8ky5d8aanw0c",358,"110.csv","","null","resources/images/coin2.png","null","",NA,NA,NA,NA,""
"image-keyboard-response",39,132665,"0.0-4.9-0.9","nxp8ky5d8aanw0c",358,"110.csv","","452.2000002861023","resources/trios/L4T4A2.jpg","37","restless",0.8,0.3,0.7,0.241214432189524,"true"
"image-keyboard-response",40,133071,"0.0-4.9-1.9","nxp8ky5d8aanw0c",358,"110.csv","","null","resources/maskTrios/L4BB.jpg","null","",NA,NA,NA,NA,""
"image-keyboard-response",41,134284,"0.0-4.9-2.9","nxp8ky5d8aanw0c",358,"110.csv","","null","resources/images/coin2.png","null","",NA,NA,NA,NA,""
"image-keyboard-response",42,134863,"0.0-4.10-0.10","nxp8ky5d8aanw0c",358,"110.csv","","578.0999999046326","resources/trios/L4T4A2.jpg","37","restless",0.8,0.3,0.6,0.23021797504955,"true"
"image-keyboard-response",43,135265,"0.0-4.10-1.10","nxp8ky5d8aanw0c",358,"110.csv","","null","resources/maskTrios/L4BB.jpg","null","",NA,NA,NA,NA,""
"image-keyboard-response",44,136479,"0.0-4.10-2.10","nxp8ky5d8aanw0c",358,"110.csv","","null","resources/images/coin2.png","null","",NA,NA,NA,NA,""
"image-keyboard-response",45,136998,"0.0-4.11-0.11","nxp8ky5d8aanw0c",358,"110.csv","","519.0999999046326","resources/trios/L4T4A2.jpg","37","restless",0.7,0.3,0.6,0.409575732417006,"true"
"image-keyboard-response",46,137413,"0.0-4.11-1.11","nxp8ky5d8aanw0c",358,"110.csv","","null","resources/maskTrios/L4BB.jpg","null","",NA,NA,NA,NA,""
"image-keyboard-response",47,138629,"0.0-4.11-2.11","nxp8ky5d8aanw0c",358,"110.csv","","null","resources/images/coin2.png","null","",NA,NA,NA,NA,""
"image-keyboard-response",48,139101,"0.0-4.12-0.12","nxp8ky5d8aanw0c",358,"110.csv","","471.90000009536743","resources/trios/L4T4A2.jpg","37","restless",0.7,0.3,0.6,0.647712187317868,"true"
"image-keyboard-response",49,139512,"0.0-4.12-1.12","nxp8ky5d8aanw0c",358,"110.csv","","null","resources/maskTrios/L4BB.jpg","null","",NA,NA,NA,NA,""
"image-keyboard-response",50,140727,"0.0-4.12-2.12","nxp8ky5d8aanw0c",358,"110.csv","","null","resources/images/coin2.png","null","",NA,NA,NA,NA,""
"image-keyboard-response",51,141085,"0.0-4.13-0.13","nxp8ky5d8aanw0c",358,"110.csv","","356.69999980926514","resources/trios/L4T4A2.jpg","37","restless",0.7,0.2,0.6,0.959503910565841,"false"
"image-keyboard-response",52,141490,"0.0-4.13-1.13","nxp8ky5d8aanw0c",358,"110.csv","","null","resources/maskTrios/L4BB.jpg","null","",NA,NA,NA,NA,""
"image-keyboard-response",53,142704,"0.0-4.13-2.13","nxp8ky5d8aanw0c",358,"110.csv","","null","resources/images/fishbone.png","null","",NA,NA,NA,NA,""
"image-keyboard-response",54,143732,"0.0-4.14-0.14","nxp8ky5d8aanw0c",358,"110.csv","","1027.9000000953674","resources/trios/L4T4A2.jpg","39","restless",0.7,0.2,0.6,0.631005887298097,"false"
"image-keyboard-response",55,144137,"0.0-4.14-1.14","nxp8ky5d8aanw0c",358,"110.csv","","null","resources/maskTrios/BBA2.jpg","null","",NA,NA,NA,NA,""
"image-keyboard-response",56,145347,"0.0-4.14-2.14","nxp8ky5d8aanw0c",358,"110.csv","","null","resources/images/fishbone.png","null","",NA,NA,NA,NA,""
"image-keyboard-response",57,145716,"0.0-4.15-0.15","nxp8ky5d8aanw0c",358,"110.csv","","368.2999997138977","resources/trios/L4T4A2.jpg","38","restless",0.7,0.2,0.6,0.833276315613138,"false"
"image-keyboard-response",58,146122,"0.0-4.15-1.15","nxp8ky5d8aanw0c",358,"110.csv","","null","resources/maskTrios/BT4B.jpg","null","",NA,NA,NA,NA,""
"image-keyboard-response",59,147334,"0.0-4.15-2.15","nxp8ky5d8aanw0c",358,"110.csv","","null","resources/images/fishbone.png","null","",NA,NA,NA,NA,""
"image-keyboard-response",60,147737,"0.0-4.16-0.16","nxp8ky5d8aanw0c",358,"110.csv","","402","resources/trios/L4T4A2.jpg","37","restless",0.7,0.2,0.6,0.297580168195756,"true"
"image-keyboard-response",61,148142,"0.0-4.16-1.16","nxp8ky5d8aanw0c",358,"110.csv","","null","resources/maskTrios/L4BB.jpg","null","",NA,NA,NA,NA,""
"image-keyboard-response",62,149358,"0.0-4.16-2.16","nxp8ky5d8aanw0c",358,"110.csv","","null","resources/images/coin2.png","null","",NA,NA,NA,NA,""
"image-keyboard-response",63,149764,"0.0-4.17-0.17","nxp8ky5d8aanw0c",358,"110.csv","","405.19999980926514","resources/trios/L4T4A2.jpg","37","restless",0.7,0.2,0.6,0.71926501118396,"false"
"image-keyboard-response",64,150180,"0.0-4.17-1.17","nxp8ky5d8aanw0c",358,"110.csv","","null","resources/maskTrios/L4BB.jpg","null","",NA,NA,NA,NA,""
"image-keyboard-response",65,151393,"0.0-4.17-2.17","nxp8ky5d8aanw0c",358,"110.csv","","null","resources/images/fishbone.png","null","",NA,NA,NA,NA,""
"image-keyboard-response",66,151716,"0.0-4.18-0.18","nxp8ky5d8aanw0c",358,"110.csv","","321.8999996185303","resources/trios/L4T4A2.jpg","37","restless",0.7,0.2,0.6,0.0412803987971142,"true"
"image-keyboard-response",67,152125,"0.0-4.18-1.18","nxp8ky5d8aanw0c",358,"110.csv","","null","resources/maskTrios/L4BB.jpg","null","",NA,NA,NA,NA,""
"image-keyboard-response",68,153341,"0.0-4.18-2.18","nxp8ky5d8aanw0c",358,"110.csv","","null","resources/images/coin2.png","null","",NA,NA,NA,NA,""
"image-keyboard-response",69,153492,"0.0-4.19-0.19","nxp8ky5d8aanw0c",358,"110.csv","","150","resources/trios/L4T4A2.jpg","37","restless",0.7,0.2,0.6,0.453153960449197,"true"
"image-keyboard-response",70,153901,"0.0-4.19-1.19","nxp8ky5d8aanw0c",358,"110.csv","","null","resources/maskTrios/L4BB.jpg","null","",NA,NA,NA,NA,""
"image-keyboard-response",71,155114,"0.0-4.19-2.19","nxp8ky5d8aanw0c",358,"110.csv","","null","resources/images/coin2.png","null","",NA,NA,NA,NA,""
"image-keyboard-response",72,155171,"0.0-4.20-0.20","nxp8ky5d8aanw0c",358,"110.csv","","55.89999961853027","resources/trios/L4T4A2.jpg","37","restless",0.7,0.2,0.6,0.180593853988991,"true"
"image-keyboard-response",73,155577,"0.0-4.20-1.20","nxp8ky5d8aanw0c",358,"110.csv","","null","resources/maskTrios/L4BB.jpg","null","",NA,NA,NA,NA,""
"image-keyboard-response",74,156791,"0.0-4.20-2.20","nxp8ky5d8aanw0c",358,"110.csv","","null","resources/images/coin2.png","null","",NA,NA,NA,NA,""
"image-keyboard-response",75,156818,"0.0-4.21-0.21","nxp8ky5d8aanw0c",358,"110.csv","","26.199999809265137","resources/trios/L4T4A2.jpg","37","restless",0.7,0.2,0.6,0.153481202353585,"true"
"image-keyboard-response",76,157223,"0.0-4.21-1.21","nxp8ky5d8aanw0c",358,"110.csv","","null","resources/maskTrios/L4BB.jpg","null","",NA,NA,NA,NA,""
"image-keyboard-response",77,158429,"0.0-4.21-2.21","nxp8ky5d8aanw0c",358,"110.csv","","null","resources/images/coin2.png","null","",NA,NA,NA,NA,""
"image-keyboard-response",78,158478,"0.0-4.22-0.22","nxp8ky5d8aanw0c",358,"110.csv","","48.89999961853027","resources/trios/L4T4A2.jpg","37","restless",0.7,0.2,0.6,0.897945199015984,"false"
"image-keyboard-response",79,158894,"0.0-4.22-1.22","nxp8ky5d8aanw0c",358,"110.csv","","null","resources/maskTrios/L4BB.jpg","null","",NA,NA,NA,NA,""
"image-keyboard-response",80,160105,"0.0-4.22-2.22","nxp8ky5d8aanw0c",358,"110.csv","","null","resources/images/fishbone.png","null","",NA,NA,NA,NA,""
"image-keyboard-response",81,160292,"0.0-4.23-0.23","nxp8ky5d8aanw0c",358,"110.csv","","185.80000019073486","resources/trios/L4T4A2.jpg","37","restless",0.7,0.2,0.6,0.865283742549174,"false"
"image-keyboard-response",82,160696,"0.0-4.23-1.23","nxp8ky5d8aanw0c",358,"110.csv","","null","resources/maskTrios/L4BB.jpg","null","",NA,NA,NA,NA,""
"image-keyboard-response",83,161910,"0.0-4.23-2.23","nxp8ky5d8aanw0c",358,"110.csv","","null","resources/images/fishbone.png","null","",NA,NA,NA,NA,""
"image-keyboard-response",84,162139,"0.0-4.24-0.24","nxp8ky5d8aanw0c",358,"110.csv","","228.40000009536743","resources/trios/L4T4A2.jpg","37","restless",0.7,0.2,0.7,0.929766568097819,"false"
"image-keyboard-response",85,162546,"0.0-4.24-1.24","nxp8ky5d8aanw0c",358,"110.csv","","null","resources/maskTrios/L4BB.jpg","null","",NA,NA,NA,NA,""
"image-keyboard-response",86,163760,"0.0-4.24-2.24","nxp8ky5d8aanw0c",358,"110.csv","","null","resources/images/fishbone.png","null","",NA,NA,NA,NA,""
"image-keyboard-response",87,163991,"0.0-4.25-0.25","nxp8ky5d8aanw0c",358,"110.csv","","229.59999990463257","resources/trios/L4T4A2.jpg","38","restless",0.7,0.2,0.7,0.0128209869409805,"true"
"image-keyboard-response",88,164398,"0.0-4.25-1.25","nxp8ky5d8aanw0c",358,"110.csv","","null","resources/maskTrios/BT4B.jpg","null","",NA,NA,NA,NA,""
"image-keyboard-response",89,165611,"0.0-4.25-2.25","nxp8ky5d8aanw0c",358,"110.csv","","null","resources/images/coin2.png","null","",NA,NA,NA,NA,""
"image-keyboard-response",90,165813,"0.0-4.26-0.26","nxp8ky5d8aanw0c",358,"110.csv","","200.80000019073486","resources/trios/L4T4A2.jpg","38","restless",0.7,0.2,0.7,0.760432787144474,"false"
"image-keyboard-response",91,166215,"0.0-4.26-1.26","nxp8ky5d8aanw0c",358,"110.csv","","null","resources/maskTrios/BT4B.jpg","null","",NA,NA,NA,NA,""
"image-keyboard-response",92,167423,"0.0-4.26-2.26","nxp8ky5d8aanw0c",358,"110.csv","","null","resources/images/fishbone.png","null","",NA,NA,NA,NA,""
"image-keyboard-response",93,167671,"0.0-4.27-0.27","nxp8ky5d8aanw0c",358,"110.csv","","246.5","resources/trios/L4T4A2.jpg","39","restless",0.7,0.2,0.7,0.742000407254114,"false"
"image-keyboard-response",94,168074,"0.0-4.27-1.27","nxp8ky5d8aanw0c",358,"110.csv","","null","resources/maskTrios/BBA2.jpg","null","",NA,NA,NA,NA,""
"image-keyboard-response",95,169281,"0.0-4.27-2.27","nxp8ky5d8aanw0c",358,"110.csv","","null","resources/images/fishbone.png","null","",NA,NA,NA,NA,""
"image-keyboard-response",96,169517,"0.0-4.28-0.28","nxp8ky5d8aanw0c",358,"110.csv","","235","resources/trios/L4T4A2.jpg","37","restless",0.7,0.3,0.7,0.782315550232444,"false"
"image-keyboard-response",97,169920,"0.0-4.28-1.28","nxp8ky5d8aanw0c",358,"110.csv","","null","resources/maskTrios/L4BB.jpg","null","",NA,NA,NA,NA,""
"image-keyboard-response",98,171132,"0.0-4.28-2.28","nxp8ky5d8aanw0c",358,"110.csv","","null","resources/images/fishbone.png","null","",NA,NA,NA,NA,""
"image-keyboard-response",99,171329,"0.0-4.29-0.29","nxp8ky5d8aanw0c",358,"110.csv","","196.5","resources/trios/L4T4A2.jpg","38","restless",0.7,0.4,0.7,0.327036908319498,"true"
"image-keyboard-response",100,171736,"0.0-4.29-1.29","nxp8ky5d8aanw0c",358,"110.csv","","null","resources/maskTrios/BT4B.jpg","null","",NA,NA,NA,NA,""
"image-keyboard-response",101,172947,"0.0-4.29-2.29","nxp8ky5d8aanw0c",358,"110.csv","","null","resources/images/coin2.png","null","",NA,NA,NA,NA,""
"image-keyboard-response",102,173184,"0.0-4.30-0.30","nxp8ky5d8aanw0c",358,"110.csv","","236.30000019073486","resources/trios/L4T4A2.jpg","38","restless",0.7,0.5,0.7,0.03981480020373,"true"
"image-keyboard-response",103,173595,"0.0-4.30-1.30","nxp8ky5d8aanw0c",358,"110.csv","","null","resources/maskTrios/BT4B.jpg","null","",NA,NA,NA,NA,""
"image-keyboard-response",104,174807,"0.0-4.30-2.30","nxp8ky5d8aanw0c",358,"110.csv","","null","resources/images/coin2.png","null","",NA,NA,NA,NA,""
"image-keyboard-response",105,174957,"0.0-4.31-0.31","nxp8ky5d8aanw0c",358,"110.csv","","150.09999990463257","resources/trios/L4T4A2.jpg","38","restless",0.8,0.5,0.7,0.390283317728779,"true"
"image-keyboard-response",106,175367,"0.0-4.31-1.31","nxp8ky5d8aanw0c",358,"110.csv","","null","resources/maskTrios/BT4B.jpg","null","",NA,NA,NA,NA,""
"image-keyboard-response",107,176576,"0.0-4.31-2.31","nxp8ky5d8aanw0c",358,"110.csv","","null","resources/images/coin2.png","null","",NA,NA,NA,NA,""
"image-keyboard-response",108,176658,"0.0-4.32-0.32","nxp8ky5d8aanw0c",358,"110.csv","","81.89999961853027","resources/trios/L4T4A2.jpg","38","restless",0.8,0.5,0.7,0.161454752678485,"true"
"image-keyboard-response",109,177060,"0.0-4.32-1.32","nxp8ky5d8aanw0c",358,"110.csv","","null","resources/maskTrios/BT4B.jpg","null","",NA,NA,NA,NA,""
"image-keyboard-response",110,178271,"0.0-4.32-2.32","nxp8ky5d8aanw0c",358,"110.csv","","null","resources/images/coin2.png","null","",NA,NA,NA,NA,""
"image-keyboard-response",111,178322,"0.0-4.33-0.33","nxp8ky5d8aanw0c",358,"110.csv","","50.299999713897705","resources/trios/L4T4A2.jpg","38","restless",0.8,0.5,0.7,0.284083085307516,"true"
"image-keyboard-response",112,178737,"0.0-4.33-1.33","nxp8ky5d8aanw0c",358,"110.csv","","null","resources/maskTrios/BT4B.jpg","null","",NA,NA,NA,NA,""
"image-keyboard-response",113,179945,"0.0-4.33-2.33","nxp8ky5d8aanw0c",358,"110.csv","","null","resources/images/coin2.png","null","",NA,NA,NA,NA,""
"image-keyboard-response",114,180126,"0.0-4.34-0.34","nxp8ky5d8aanw0c",358,"110.csv","","180.09999990463257","resources/trios/L4T4A2.jpg","38","restless",0.8,0.5,0.7,0.395738931027347,"true"
"image-keyboard-response",115,180534,"0.0-4.34-1.34","nxp8ky5d8aanw0c",358,"110.csv","","null","resources/maskTrios/BT4B.jpg","null","",NA,NA,NA,NA,""
"image-keyboard-response",116,181747,"0.0-4.34-2.34","nxp8ky5d8aanw0c",358,"110.csv","","null","resources/images/coin2.png","null","",NA,NA,NA,NA,""
"image-keyboard-response",117,182191,"0.0-4.35-0.35","nxp8ky5d8aanw0c",358,"110.csv","","443.80000019073486","resources/trios/L4T4A2.jpg","38","restless",0.7,0.5,0.7,0.540782310254928,"false"
"image-keyboard-response",118,182598,"0.0-4.35-1.35","nxp8ky5d8aanw0c",358,"110.csv","","null","resources/maskTrios/BT4B.jpg","null","",NA,NA,NA,NA,""
"image-keyboard-response",119,183811,"0.0-4.35-2.35","nxp8ky5d8aanw0c",358,"110.csv","","null","resources/images/fishbone.png","null","",NA,NA,NA,NA,""
"image-keyboard-response",120,183937,"0.0-4.36-0.36","nxp8ky5d8aanw0c",358,"110.csv","","122.90000009536743","resources/trios/L4T4A2.jpg","39","restless",0.7,0.5,0.6,0.588870167182668,"true"
"image-keyboard-response",121,184352,"0.0-4.36-1.36","nxp8ky5d8aanw0c",358,"110.csv","","null","resources/maskTrios/BBA2.jpg","null","",NA,NA,NA,NA,""
"image-keyboard-response",122,185565,"0.0-4.36-2.36","nxp8ky5d8aanw0c",358,"110.csv","","null","resources/images/coin2.png","null","",NA,NA,NA,NA,""
"image-keyboard-response",123,185680,"0.0-4.37-0.37","nxp8ky5d8aanw0c",358,"110.csv","","114.69999980926514","resources/trios/L4T4A2.jpg","39","restless",0.7,0.5,0.6,0.202106067175,"true"
"image-keyboard-response",124,186095,"0.0-4.37-1.37","nxp8ky5d8aanw0c",358,"110.csv","","null","resources/maskTrios/BBA2.jpg","null","",NA,NA,NA,NA,""
"image-keyboard-response",125,187312,"0.0-4.37-2.37","nxp8ky5d8aanw0c",358,"110.csv","","null","resources/images/coin2.png","null","",NA,NA,NA,NA,""
"image-keyboard-response",126,187389,"0.0-4.38-0.38","nxp8ky5d8aanw0c",358,"110.csv","","76.60000038146973","resources/trios/L4T4A2.jpg","39","restless",0.7,0.5,0.6,0.469152923567666,"true"
"image-keyboard-response",127,187791,"0.0-4.38-1.38","nxp8ky5d8aanw0c",358,"110.csv","","null","resources/maskTrios/BBA2.jpg","null","",NA,NA,NA,NA,""
"image-keyboard-response",128,189006,"0.0-4.38-2.38","nxp8ky5d8aanw0c",358,"110.csv","","null","resources/images/coin2.png","null","",NA,NA,NA,NA,""
"image-keyboard-response",129,189143,"0.0-4.39-0.39","nxp8ky5d8aanw0c",358,"110.csv","","135.90000009536743","resources/trios/L4T4A2.jpg","39","restless",0.7,0.5,0.6,0.910337389024045,"false"
"image-keyboard-response",130,189549,"0.0-4.39-1.39","nxp8ky5d8aanw0c",358,"110.csv","","null","resources/maskTrios/BBA2.jpg","null","",NA,NA,NA,NA,""
"image-keyboard-response",131,190765,"0.0-4.39-2.39","nxp8ky5d8aanw0c",358,"110.csv","","null","resources/images/fishbone.png","null","",NA,NA,NA,NA,""
"image-keyboard-response",132,191058,"0.0-4.40-0.40","nxp8ky5d8aanw0c",358,"110.csv","","292.6000003814697","resources/trios/L4T4A2.jpg","37","restless",0.7,0.5,0.5,0.205446151976395,"true"
"image-keyboard-response",133,191465,"0.0-4.40-1.40","nxp8ky5d8aanw0c",358,"110.csv","","null","resources/maskTrios/L4BB.jpg","null","",NA,NA,NA,NA,""
"image-keyboard-response",134,192678,"0.0-4.40-2.40","nxp8ky5d8aanw0c",358,"110.csv","","null","resources/images/coin2.png","null","",NA,NA,NA,NA,""
"image-keyboard-response",135,192821,"0.0-4.41-0.41","nxp8ky5d8aanw0c",358,"110.csv","","141.59999990463257","resources/trios/L4T4A2.jpg","37","restless",0.7,0.5,0.5,0.573313697936828,"true"
"image-keyboard-response",136,193228,"0.0-4.41-1.41","nxp8ky5d8aanw0c",358,"110.csv","","null","resources/maskTrios/L4BB.jpg","null","",NA,NA,NA,NA,""
"image-keyboard-response",137,194443,"0.0-4.41-2.41","nxp8ky5d8aanw0c",358,"110.csv","","null","resources/images/coin2.png","null","",NA,NA,NA,NA,""
"image-keyboard-response",138,194690,"0.0-4.42-0.42","nxp8ky5d8aanw0c",358,"110.csv","","246.40000009536743","resources/trios/L4T4A2.jpg","37","restless",0.7,0.5,0.5,0.878960277939186,"false"
"image-keyboard-response",139,195095,"0.0-4.42-1.42","nxp8ky5d8aanw0c",358,"110.csv","","null","resources/maskTrios/L4BB.jpg","null","",NA,NA,NA,NA,""
"image-keyboard-response",140,196308,"0.0-4.42-2.42","nxp8ky5d8aanw0c",358,"110.csv","","null","resources/images/fishbone.png","null","",NA,NA,NA,NA,""
"image-keyboard-response",141,196449,"0.0-4.43-0.43","nxp8ky5d8aanw0c",358,"110.csv","","140.59999990463257","resources/trios/L4T4A2.jpg","37","restless",0.7,0.5,0.5,0.944498007366029,"false"
"image-keyboard-response",142,196866,"0.0-4.43-1.43","nxp8ky5d8aanw0c",358,"110.csv","","null","resources/maskTrios/L4BB.jpg","null","",NA,NA,NA,NA,""
"image-keyboard-response",143,198074,"0.0-4.43-2.43","nxp8ky5d8aanw0c",358,"110.csv","","null","resources/images/fishbone.png","null","",NA,NA,NA,NA,""
"image-keyboard-response",144,198305,"0.0-4.44-0.44","nxp8ky5d8aanw0c",358,"110.csv","","230.2999997138977","resources/trios/L4T4A2.jpg","38","restless",0.7,0.5,0.5,0.266839404350961,"true"
"image-keyboard-response",145,198712,"0.0-4.44-1.44","nxp8ky5d8aanw0c",358,"110.csv","","null","resources/maskTrios/BT4B.jpg","null","",NA,NA,NA,NA,""
"image-keyboard-response",146,199920,"0.0-4.44-2.44","nxp8ky5d8aanw0c",358,"110.csv","","null","resources/images/coin2.png","null","",NA,NA,NA,NA,""
"image-keyboard-response",147,200170,"0.0-4.45-0.45","nxp8ky5d8aanw0c",358,"110.csv","","248.69999980926514","resources/trios/L4T4A2.jpg","38","restless",0.7,0.5,0.5,0.641171315992014,"false"
"image-keyboard-response",148,200574,"0.0-4.45-1.45","nxp8ky5d8aanw0c",358,"110.csv","","null","resources/maskTrios/BT4B.jpg","null","",NA,NA,NA,NA,""
"image-keyboard-response",149,201786,"0.0-4.45-2.45","nxp8ky5d8aanw0c",358,"110.csv","","null","resources/images/fishbone.png","null","",NA,NA,NA,NA,""
"image-keyboard-response",150,201865,"0.0-4.46-0.46","nxp8ky5d8aanw0c",358,"110.csv","","78.19999980926514","resources/trios/L4T4A2.jpg","39","restless",0.7,0.5,0.5,0.324962488464876,"true"
"image-keyboard-response",151,202268,"0.0-4.46-1.46","nxp8ky5d8aanw0c",358,"110.csv","","null","resources/maskTrios/BBA2.jpg","null","",NA,NA,NA,NA,""
"image-keyboard-response",152,203476,"0.0-4.46-2.46","nxp8ky5d8aanw0c",358,"110.csv","","null","resources/images/coin2.png","null","",NA,NA,NA,NA,""
"image-keyboard-response",153,203652,"0.0-4.47-0.47","nxp8ky5d8aanw0c",358,"110.csv","","174.59999990463257","resources/trios/L4T4A2.jpg","37","restless",0.7,0.5,0.5,0.236207866686059,"true"
"image-keyboard-response",154,204067,"0.0-4.47-1.47","nxp8ky5d8aanw0c",358,"110.csv","","null","resources/maskTrios/L4BB.jpg","null","",NA,NA,NA,NA,""
"image-keyboard-response",155,205277,"0.0-4.47-2.47","nxp8ky5d8aanw0c",358,"110.csv","","null","resources/images/coin2.png","null","",NA,NA,NA,NA,""
"image-keyboard-response",156,205487,"0.0-4.48-0.48","nxp8ky5d8aanw0c",358,"110.csv","","209.59999990463257","resources/trios/L4T4A2.jpg","39","restless",0.7,0.5,0.5,0.691378081045273,"false"
"image-keyboard-response",157,205896,"0.0-4.48-1.48","nxp8ky5d8aanw0c",358,"110.csv","","null","resources/maskTrios/BBA2.jpg","null","",NA,NA,NA,NA,""
"image-keyboard-response",158,207112,"0.0-4.48-2.48","nxp8ky5d8aanw0c",358,"110.csv","","null","resources/images/fishbone.png","null","",NA,NA,NA,NA,""
"image-keyboard-response",159,207588,"0.0-4.49-0.49","nxp8ky5d8aanw0c",358,"110.csv","","475.59999990463257","resources/trios/L4T4A2.jpg","38","restless",0.7,0.5,0.5,0.199802303129343,"true"
"image-keyboard-response",160,207997,"0.0-4.49-1.49","nxp8ky5d8aanw0c",358,"110.csv","","null","resources/maskTrios/BT4B.jpg","null","",NA,NA,NA,NA,""
"image-keyboard-response",161,209208,"0.0-4.49-2.49","nxp8ky5d8aanw0c",358,"110.csv","","null","resources/images/coin2.png","null","",NA,NA,NA,NA,""
"image-keyboard-response",162,209443,"0.0-4.50-0.50","nxp8ky5d8aanw0c",358,"110.csv","","234.09999990463257","resources/trios/L4T4A2.jpg","38","restless",0.8,0.5,0.5,0.790579481400442,"false"
"image-keyboard-response",163,209844,"0.0-4.50-1.50","nxp8ky5d8aanw0c",358,"110.csv","","null","resources/maskTrios/BT4B.jpg","null","",NA,NA,NA,NA,""
"image-keyboard-response",164,211058,"0.0-4.50-2.50","nxp8ky5d8aanw0c",358,"110.csv","","null","resources/images/fishbone.png","null","",NA,NA,NA,NA,""
"image-keyboard-response",165,211328,"0.0-4.51-0.51","nxp8ky5d8aanw0c",358,"110.csv","","269.19999980926514","resources/trios/L4T4A2.jpg","37","restless",0.8,0.6,0.5,0.368713074642976,"true"
"image-keyboard-response",166,211743,"0.0-4.51-1.51","nxp8ky5d8aanw0c",358,"110.csv","","null","resources/maskTrios/L4BB.jpg","null","",NA,NA,NA,NA,""
"image-keyboard-response",167,212947,"0.0-4.51-2.51","nxp8ky5d8aanw0c",358,"110.csv","","null","resources/images/coin2.png","null","",NA,NA,NA,NA,""
"image-keyboard-response",168,216690,"0.0-4.52-0.52","nxp8ky5d8aanw0c",358,"110.csv","","3742.699999809265","resources/trios/L4T4A2.jpg","37","restless",0.8,0.6,0.5,0.852813783340939,"false"
"image-keyboard-response",169,217101,"0.0-4.52-1.52","nxp8ky5d8aanw0c",358,"110.csv","","null","resources/maskTrios/L4BB.jpg","null","",NA,NA,NA,NA,""
"image-keyboard-response",170,218314,"0.0-4.52-2.52","nxp8ky5d8aanw0c",358,"110.csv","","null","resources/images/fishbone.png","null","",NA,NA,NA,NA,""
"image-keyboard-response",171,218756,"0.0-4.53-0.53","nxp8ky5d8aanw0c",358,"110.csv","","441.7000002861023","resources/trios/L4T4A2.jpg","38","restless",0.7,0.6,0.5,0.867306907364986,"false"
"image-keyboard-response",172,219172,"0.0-4.53-1.53","nxp8ky5d8aanw0c",358,"110.csv","","null","resources/maskTrios/BT4B.jpg","null","",NA,NA,NA,NA,""
"image-keyboard-response",173,220383,"0.0-4.53-2.53","nxp8ky5d8aanw0c",358,"110.csv","","null","resources/images/fishbone.png","null","",NA,NA,NA,NA,""
"image-keyboard-response",174,224921,"0.0-4.54-0.54","nxp8ky5d8aanw0c",358,"110.csv","","4536.5","resources/trios/L4T4A2.jpg","39","restless",0.8,0.6,0.5,0.18274730734153,"true"
"image-keyboard-response",175,225328,"0.0-4.54-1.54","nxp8ky5d8aanw0c",358,"110.csv","","null","resources/maskTrios/BBA2.jpg","null","",NA,NA,NA,NA,""
"image-keyboard-response",176,226540,"0.0-4.54-2.54","nxp8ky5d8aanw0c",358,"110.csv","","null","resources/images/coin2.png","null","",NA,NA,NA,NA,""
"image-keyboard-response",177,226907,"0.0-4.55-0.55","nxp8ky5d8aanw0c",358,"110.csv","","366.19999980926514","resources/trios/L4T4A2.jpg","39","restless",0.7,0.6,0.5,0.557932547657151,"false"
"image-keyboard-response",178,227315,"0.0-4.55-1.55","nxp8ky5d8aanw0c",358,"110.csv","","null","resources/maskTrios/BBA2.jpg","null","",NA,NA,NA,NA,""
"image-keyboard-response",179,228526,"0.0-4.55-2.55","nxp8ky5d8aanw0c",358,"110.csv","","null","resources/images/fishbone.png","null","",NA,NA,NA,NA,""
"image-keyboard-response",180,228775,"0.0-4.56-0.56","nxp8ky5d8aanw0c",358,"110.csv","","247.90000009536743","resources/trios/L4T4A2.jpg","38","restless",0.7,0.6,0.5,0.631771070147976,"false"
"image-keyboard-response",181,229191,"0.0-4.56-1.56","nxp8ky5d8aanw0c",358,"110.csv","","null","resources/maskTrios/BT4B.jpg","null","",NA,NA,NA,NA,""
"image-keyboard-response",182,230403,"0.0-4.56-2.56","nxp8ky5d8aanw0c",358,"110.csv","","null","resources/images/fishbone.png","null","",NA,NA,NA,NA,""
"image-keyboard-response",183,230686,"0.0-4.57-0.57","nxp8ky5d8aanw0c",358,"110.csv","","282.59999990463257","resources/trios/L4T4A2.jpg","37","restless",0.7,0.6,0.5,0.607050200433773,"true"
"image-keyboard-response",184,231098,"0.0-4.57-1.57","nxp8ky5d8aanw0c",358,"110.csv","","null","resources/maskTrios/L4BB.jpg","null","",NA,NA,NA,NA,""
"image-keyboard-response",185,232312,"0.0-4.57-2.57","nxp8ky5d8aanw0c",358,"110.csv","","null","resources/images/coin2.png","null","",NA,NA,NA,NA,""
"image-keyboard-response",186,232789,"0.0-4.58-0.58","nxp8ky5d8aanw0c",358,"110.csv","","475.90000009536743","resources/trios/L4T4A2.jpg","37","restless",0.7,0.6,0.5,0.822456027965609,"false"
"image-keyboard-response",187,233198,"0.0-4.58-1.58","nxp8ky5d8aanw0c",358,"110.csv","","null","resources/maskTrios/L4BB.jpg","null","",NA,NA,NA,NA,""
"image-keyboard-response",188,234411,"0.0-4.58-2.58","nxp8ky5d8aanw0c",358,"110.csv","","null","resources/images/fishbone.png","null","",NA,NA,NA,NA,""
"image-keyboard-response",189,235591,"0.0-4.59-0.59","nxp8ky5d8aanw0c",358,"110.csv","","1178.8000001907349","resources/trios/L4T4A2.jpg","38","restless",0.7,0.6,0.5,0.351652955910946,"true"
"image-keyboard-response",190,235992,"0.0-4.59-1.59","nxp8ky5d8aanw0c",358,"110.csv","","null","resources/maskTrios/BT4B.jpg","null","",NA,NA,NA,NA,""
"image-keyboard-response",191,237206,"0.0-4.59-2.59","nxp8ky5d8aanw0c",358,"110.csv","","null","resources/images/coin2.png","null","",NA,NA,NA,NA,""
"image-keyboard-response",192,237623,"0.0-4.60-0.60","nxp8ky5d8aanw0c",358,"110.csv","","416.69999980926514","resources/trios/L4T4A2.jpg","39","restless",0.7,0.6,0.5,0.646450668751619,"false"
"image-keyboard-response",193,238032,"0.0-4.60-1.60","nxp8ky5d8aanw0c",358,"110.csv","","null","resources/maskTrios/BBA2.jpg","null","",NA,NA,NA,NA,""
"image-keyboard-response",194,239240,"0.0-4.60-2.60","nxp8ky5d8aanw0c",358,"110.csv","","null","resources/images/fishbone.png","null","",NA,NA,NA,NA,""
"image-keyboard-response",195,240772,"0.0-4.61-0.61","nxp8ky5d8aanw0c",358,"110.csv","","1530.7000002861023","resources/trios/L4T4A2.jpg","39","restless",0.7,0.6,0.5,0.874569284148336,"false"
"image-keyboard-response",196,241184,"0.0-4.61-1.61","nxp8ky5d8aanw0c",358,"110.csv","","null","resources/maskTrios/BBA2.jpg","null","",NA,NA,NA,NA,""
"image-keyboard-response",197,242398,"0.0-4.61-2.61","nxp8ky5d8aanw0c",358,"110.csv","","null","resources/images/fishbone.png","null","",NA,NA,NA,NA,""
"image-keyboard-response",198,242706,"0.0-4.62-0.62","nxp8ky5d8aanw0c",358,"110.csv","","307.90000009536743","resources/trios/L4T4A2.jpg","37","restless",0.7,0.6,0.5,0.332324449207225,"true"
"image-keyboard-response",199,243114,"0.0-4.62-1.62","nxp8ky5d8aanw0c",358,"110.csv","","null","resources/maskTrios/L4BB.jpg","null","",NA,NA,NA,NA,""
"image-keyboard-response",200,244321,"0.0-4.62-2.62","nxp8ky5d8aanw0c",358,"110.csv","","null","resources/images/coin2.png","null","",NA,NA,NA,NA,""
"image-keyboard-response",201,244542,"0.0-4.63-0.63","nxp8ky5d8aanw0c",358,"110.csv","","219.69999980926514","resources/trios/L4T4A2.jpg","37","restless",0.7,0.6,0.5,0.059785033856073,"true"
"image-keyboard-response",202,244953,"0.0-4.63-1.63","nxp8ky5d8aanw0c",358,"110.csv","","null","resources/maskTrios/L4BB.jpg","null","",NA,NA,NA,NA,""
"image-keyboard-response",203,246157,"0.0-4.63-2.63","nxp8ky5d8aanw0c",358,"110.csv","","null","resources/images/coin2.png","null","",NA,NA,NA,NA,""
"image-keyboard-response",204,246242,"0.0-4.64-0.64","nxp8ky5d8aanw0c",358,"110.csv","","83.90000009536743","resources/trios/L4T4A2.jpg","38","restless",0.7,0.6,0.5,0.67931071635515,"false"
"image-keyboard-response",205,246654,"0.0-4.64-1.64","nxp8ky5d8aanw0c",358,"110.csv","","null","resources/maskTrios/BT4B.jpg","null","",NA,NA,NA,NA,""
"image-keyboard-response",206,247862,"0.0-4.64-2.64","nxp8ky5d8aanw0c",358,"110.csv","","null","resources/images/fishbone.png","null","",NA,NA,NA,NA,""
"image-keyboard-response",207,248065,"0.0-4.65-0.65","nxp8ky5d8aanw0c",358,"110.csv","","202.09999990463257","resources/trios/L4T4A2.jpg","37","restless",0.7,0.6,0.5,0.244059864430539,"true"
"image-keyboard-response",208,248467,"0.0-4.65-1.65","nxp8ky5d8aanw0c",358,"110.csv","","null","resources/maskTrios/L4BB.jpg","null","",NA,NA,NA,NA,""
"image-keyboard-response",209,249680,"0.0-4.65-2.65","nxp8ky5d8aanw0c",358,"110.csv","","null","resources/images/coin2.png","null","",NA,NA,NA,NA,""
"image-keyboard-response",210,249828,"0.0-4.66-0.66","nxp8ky5d8aanw0c",358,"110.csv","","146.7999997138977","resources/trios/L4T4A2.jpg","37","restless",0.7,0.7,0.5,0.409682461685706,"true"
"image-keyboard-response",211,250237,"0.0-4.66-1.66","nxp8ky5d8aanw0c",358,"110.csv","","null","resources/maskTrios/L4BB.jpg","null","",NA,NA,NA,NA,""
"image-keyboard-response",212,251448,"0.0-4.66-2.66","nxp8ky5d8aanw0c",358,"110.csv","","null","resources/images/coin2.png","null","",NA,NA,NA,NA,""
"image-keyboard-response",213,251721,"0.0-4.67-0.67","nxp8ky5d8aanw0c",358,"110.csv","","272.59999990463257","resources/trios/L4T4A2.jpg","37","restless",0.7,0.8,0.5,0.607265271880398,"true"
"image-keyboard-response",214,252131,"0.0-4.67-1.67","nxp8ky5d8aanw0c",358,"110.csv","","null","resources/maskTrios/L4BB.jpg","null","",NA,NA,NA,NA,""
"image-keyboard-response",215,253338,"0.0-4.67-2.67","nxp8ky5d8aanw0c",358,"110.csv","","null","resources/images/coin2.png","null","",NA,NA,NA,NA,""
"image-keyboard-response",216,253461,"0.0-4.68-0.68","nxp8ky5d8aanw0c",358,"110.csv","","122.5","resources/trios/L4T4A2.jpg","37","restless",0.7,0.8,0.5,0.425052876246411,"true"
"image-keyboard-response",217,253863,"0.0-4.68-1.68","nxp8ky5d8aanw0c",358,"110.csv","","null","resources/maskTrios/L4BB.jpg","null","",NA,NA,NA,NA,""
"image-keyboard-response",218,255073,"0.0-4.68-2.68","nxp8ky5d8aanw0c",358,"110.csv","","null","resources/images/coin2.png","null","",NA,NA,NA,NA,""
"image-keyboard-response",219,255087,"0.0-4.69-0.69","nxp8ky5d8aanw0c",358,"110.csv","","12.900000095367432","resources/trios/L4T4A2.jpg","37","restless",0.6,0.8,0.4,0.155433468092808,"true"
"image-keyboard-response",220,255490,"0.0-4.69-1.69","nxp8ky5d8aanw0c",358,"110.csv","","null","resources/maskTrios/L4BB.jpg","null","",NA,NA,NA,NA,""
"image-keyboard-response",221,256695,"0.0-4.69-2.69","nxp8ky5d8aanw0c",358,"110.csv","","null","resources/images/coin2.png","null","",NA,NA,NA,NA,""
"image-keyboard-response",222,263196,"0.0-4.70-0.70","nxp8ky5d8aanw0c",358,"110.csv","","6500.099999904633","resources/trios/L4T4A2.jpg","37","restless",0.5,0.8,0.4,0.0744475065355377,"true"
"image-keyboard-response",223,263613,"0.0-4.70-1.70","nxp8ky5d8aanw0c",358,"110.csv","","null","resources/maskTrios/L4BB.jpg","null","",NA,NA,NA,NA,""
"image-keyboard-response",224,264822,"0.0-4.70-2.70","nxp8ky5d8aanw0c",358,"110.csv","","null","resources/images/coin2.png","null","",NA,NA,NA,NA,""
"image-keyboard-response",225,264909,"0.0-4.71-0.71","nxp8ky5d8aanw0c",358,"110.csv","","86.80000019073486","resources/trios/L4T4A2.jpg","37","restless",0.5,0.8,0.4,0.124023928414876,"true"
"image-keyboard-response",226,265313,"0.0-4.71-1.71","nxp8ky5d8aanw0c",358,"110.csv","","null","resources/maskTrios/L4BB.jpg","null","",NA,NA,NA,NA,""
"image-keyboard-response",227,266522,"0.0-4.71-2.71","nxp8ky5d8aanw0c",358,"110.csv","","null","resources/images/coin2.png","null","",NA,NA,NA,NA,""
"image-keyboard-response",228,266836,"0.0-4.72-0.72","nxp8ky5d8aanw0c",358,"110.csv","","312.69999980926514","resources/trios/L4T4A2.jpg","37","restless",0.5,0.8,0.4,0.853220336120525,"false"
"image-keyboard-response",229,267250,"0.0-4.72-1.72","nxp8ky5d8aanw0c",358,"110.csv","","null","resources/maskTrios/L4BB.jpg","null","",NA,NA,NA,NA,""
"image-keyboard-response",230,268455,"0.0-4.72-2.72","nxp8ky5d8aanw0c",358,"110.csv","","null","resources/images/fishbone.png","null","",NA,NA,NA,NA,""
"image-keyboard-response",231,268970,"0.0-4.73-0.73","nxp8ky5d8aanw0c",358,"110.csv","","514.1999998092651","resources/trios/L4T4A2.jpg","38","restless",0.5,0.8,0.4,0.604886367146454,"true"
"image-keyboard-response",232,269386,"0.0-4.73-1.73","nxp8ky5d8aanw0c",358,"110.csv","","null","resources/maskTrios/BT4B.jpg","null","",NA,NA,NA,NA,""
"image-keyboard-response",233,270590,"0.0-4.73-2.73","nxp8ky5d8aanw0c",358,"110.csv","","null","resources/images/coin2.png","null","",NA,NA,NA,NA,""
"image-keyboard-response",234,270677,"0.0-4.74-0.74","nxp8ky5d8aanw0c",358,"110.csv","","85.7999997138977","resources/trios/L4T4A2.jpg","38","restless",0.5,0.8,0.4,0.376783302109035,"true"
"image-keyboard-response",235,271085,"0.0-4.74-1.74","nxp8ky5d8aanw0c",358,"110.csv","","null","resources/maskTrios/BT4B.jpg","null","",NA,NA,NA,NA,""
"image-keyboard-response",236,272293,"0.0-4.74-2.74","nxp8ky5d8aanw0c",358,"110.csv","","null","resources/images/coin2.png","null","",NA,NA,NA,NA,""
"image-keyboard-response",237,272429,"0.0-4.75-0.75","nxp8ky5d8aanw0c",358,"110.csv","","135.5","resources/trios/L4T4A2.jpg","38","restless",0.5,0.8,0.4,0.198610278218032,"true"
"image-keyboard-response",238,272836,"0.0-4.75-1.75","nxp8ky5d8aanw0c",358,"110.csv","","null","resources/maskTrios/BT4B.jpg","null","",NA,NA,NA,NA,""
"image-keyboard-response",239,274047,"0.0-4.75-2.75","nxp8ky5d8aanw0c",358,"110.csv","","null","resources/images/coin2.png","null","",NA,NA,NA,NA,""
"image-keyboard-response",240,274057,"0.0-4.76-0.76","nxp8ky5d8aanw0c",358,"110.csv","","9.199999809265137","resources/trios/L4T4A2.jpg","38","restless",0.5,0.9,0.5,0.825157170518722,"true"
"image-keyboard-response",241,274463,"0.0-4.76-1.76","nxp8ky5d8aanw0c",358,"110.csv","","null","resources/maskTrios/BT4B.jpg","null","",NA,NA,NA,NA,""
"image-keyboard-response",242,275670,"0.0-4.76-2.76","nxp8ky5d8aanw0c",358,"110.csv","","null","resources/images/coin2.png","null","",NA,NA,NA,NA,""
"image-keyboard-response",243,275797,"0.0-4.77-0.77","nxp8ky5d8aanw0c",358,"110.csv","","126.69999980926514","resources/trios/L4T4A2.jpg","38","restless",0.5,0.9,0.5,0.458089492678488,"true"
"image-keyboard-response",244,276209,"0.0-4.77-1.77","nxp8ky5d8aanw0c",358,"110.csv","","null","resources/maskTrios/BT4B.jpg","null","",NA,NA,NA,NA,""
"image-keyboard-response",245,277412,"0.0-4.77-2.77","nxp8ky5d8aanw0c",358,"110.csv","","null","resources/images/coin2.png","null","",NA,NA,NA,NA,""
"image-keyboard-response",246,277428,"0.0-4.78-0.78","nxp8ky5d8aanw0c",358,"110.csv","","14.800000190734863","resources/trios/L4T4A2.jpg","38","restless",0.5,0.9,0.5,0.169422401032273,"true"
"image-keyboard-response",247,277831,"0.0-4.78-1.78","nxp8ky5d8aanw0c",358,"110.csv","","null","resources/maskTrios/BT4B.jpg","null","",NA,NA,NA,NA,""
"image-keyboard-response",248,279041,"0.0-4.78-2.78","nxp8ky5d8aanw0c",358,"110.csv","","null","resources/images/coin2.png","null","",NA,NA,NA,NA,""
"image-keyboard-response",249,279537,"0.0-4.79-0.79","nxp8ky5d8aanw0c",358,"110.csv","","494.7999997138977","resources/trios/L4T4A2.jpg","38","restless",0.5,0.9,0.5,0.433949147419405,"true"
"image-keyboard-response",250,279941,"0.0-4.79-1.79","nxp8ky5d8aanw0c",358,"110.csv","","null","resources/maskTrios/BT4B.jpg","null","",NA,NA,NA,NA,""
"image-keyboard-response",251,281156,"0.0-4.79-2.79","nxp8ky5d8aanw0c",358,"110.csv","","null","resources/images/coin2.png","null","",NA,NA,NA,NA,""
"image-keyboard-response",252,281180,"0.0-4.80-0.80","nxp8ky5d8aanw0c",358,"110.csv","","23.5","resources/trios/L4T4A2.jpg","38","restless",0.5,0.8,0.5,0.267923580519369,"true"
"image-keyboard-response",253,281588,"0.0-4.80-1.80","nxp8ky5d8aanw0c",358,"110.csv","","null","resources/maskTrios/BT4B.jpg","null","",NA,NA,NA,NA,""
"image-keyboard-response",254,282793,"0.0-4.80-2.80","nxp8ky5d8aanw0c",358,"110.csv","","null","resources/images/coin2.png","null","",NA,NA,NA,NA,""
"image-keyboard-response",255,282855,"0.0-4.81-0.81","nxp8ky5d8aanw0c",358,"110.csv","","61.30000019073486","resources/trios/L4T4A2.jpg","38","restless",0.5,0.8,0.5,0.648098777219011,"true"
"image-keyboard-response",256,283257,"0.0-4.81-1.81","nxp8ky5d8aanw0c",358,"110.csv","","null","resources/maskTrios/BT4B.jpg","null","",NA,NA,NA,NA,""
"image-keyboard-response",257,284463,"0.0-4.81-2.81","nxp8ky5d8aanw0c",358,"110.csv","","null","resources/images/coin2.png","null","",NA,NA,NA,NA,""
"image-keyboard-response",258,284661,"0.0-4.82-0.82","nxp8ky5d8aanw0c",358,"110.csv","","196.5","resources/trios/L4T4A2.jpg","38","restless",0.5,0.8,0.5,0.412691483055583,"true"
"image-keyboard-response",259,285067,"0.0-4.82-1.82","nxp8ky5d8aanw0c",358,"110.csv","","null","resources/maskTrios/BT4B.jpg","null","",NA,NA,NA,NA,""
"image-keyboard-response",260,286274,"0.0-4.82-2.82","nxp8ky5d8aanw0c",358,"110.csv","","null","resources/images/coin2.png","null","",NA,NA,NA,NA,""
"image-keyboard-response",261,286783,"0.0-4.83-0.83","nxp8ky5d8aanw0c",358,"110.csv","","508.7000002861023","resources/trios/L4T4A2.jpg","38","restless",0.5,0.9,0.6,0.419589824956369,"true"
"image-keyboard-response",262,287195,"0.0-4.83-1.83","nxp8ky5d8aanw0c",358,"110.csv","","null","resources/maskTrios/BT4B.jpg","null","",NA,NA,NA,NA,""
"image-keyboard-response",263,288400,"0.0-4.83-2.83","nxp8ky5d8aanw0c",358,"110.csv","","null","resources/images/coin2.png","null","",NA,NA,NA,NA,""
"image-keyboard-response",264,288562,"0.0-4.84-0.84","nxp8ky5d8aanw0c",358,"110.csv","","161.2000002861023","resources/trios/L4T4A2.jpg","38","restless",0.5,0.9,0.6,0.257136750640895,"true"
"image-keyboard-response",265,288973,"0.0-4.84-1.84","nxp8ky5d8aanw0c",358,"110.csv","","null","resources/maskTrios/BT4B.jpg","null","",NA,NA,NA,NA,""
"image-keyboard-response",266,290178,"0.0-4.84-2.84","nxp8ky5d8aanw0c",358,"110.csv","","null","resources/images/coin2.png","null","",NA,NA,NA,NA,""
"image-keyboard-response",267,290408,"0.0-4.85-0.85","nxp8ky5d8aanw0c",358,"110.csv","","228.7999997138977","resources/trios/L4T4A2.jpg","38","restless",0.5,0.9,0.6,0.999860897558583,"false"
"image-keyboard-response",268,290817,"0.0-4.85-1.85","nxp8ky5d8aanw0c",358,"110.csv","","null","resources/maskTrios/BT4B.jpg","null","",NA,NA,NA,NA,""
"image-keyboard-response",269,292025,"0.0-4.85-2.85","nxp8ky5d8aanw0c",358,"110.csv","","null","resources/images/fishbone.png","null","",NA,NA,NA,NA,""
"image-keyboard-response",270,292290,"0.0-4.86-0.86","nxp8ky5d8aanw0c",358,"110.csv","","264.80000019073486","resources/trios/L4T4A2.jpg","39","restless",0.5,0.9,0.6,0.511477959709697,"true"
"image-keyboard-response",271,292707,"0.0-4.86-1.86","nxp8ky5d8aanw0c",358,"110.csv","","null","resources/maskTrios/BBA2.jpg","null","",NA,NA,NA,NA,""
"image-keyboard-response",272,293914,"0.0-4.86-2.86","nxp8ky5d8aanw0c",358,"110.csv","","null","resources/images/coin2.png","null","",NA,NA,NA,NA,""
"image-keyboard-response",273,294174,"0.0-4.87-0.87","nxp8ky5d8aanw0c",358,"110.csv","","259.5","resources/trios/L4T4A2.jpg","39","restless",0.5,0.9,0.6,0.710333410131526,"false"
"image-keyboard-response",274,294581,"0.0-4.87-1.87","nxp8ky5d8aanw0c",358,"110.csv","","null","resources/maskTrios/BBA2.jpg","null","",NA,NA,NA,NA,""
"image-keyboard-response",275,295788,"0.0-4.87-2.87","nxp8ky5d8aanw0c",358,"110.csv","","null","resources/images/fishbone.png","null","",NA,NA,NA,NA,""
"image-keyboard-response",276,295978,"0.0-4.88-0.88","nxp8ky5d8aanw0c",358,"110.csv","","189.30000019073486","resources/trios/L4T4A2.jpg","37","restless",0.5,0.9,0.7,0.0669738995295985,"true"
"image-keyboard-response",277,296394,"0.0-4.88-1.88","nxp8ky5d8aanw0c",358,"110.csv","","null","resources/maskTrios/L4BB.jpg","null","",NA,NA,NA,NA,""
"image-keyboard-response",278,297603,"0.0-4.88-2.88","nxp8ky5d8aanw0c",358,"110.csv","","null","resources/images/coin2.png","null","",NA,NA,NA,NA,""
"image-keyboard-response",279,297782,"0.0-4.89-0.89","nxp8ky5d8aanw0c",358,"110.csv","","177.90000009536743","resources/trios/L4T4A2.jpg","37","restless",0.5,0.8,0.7,0.491090456756948,"true"
"image-keyboard-response",280,298197,"0.0-4.89-1.89","nxp8ky5d8aanw0c",358,"110.csv","","null","resources/maskTrios/L4BB.jpg","null","",NA,NA,NA,NA,""
"image-keyboard-response",281,299401,"0.0-4.89-2.89","nxp8ky5d8aanw0c",358,"110.csv","","null","resources/images/coin2.png","null","",NA,NA,NA,NA,""
"image-keyboard-response",282,299685,"0.0-4.90-0.90","nxp8ky5d8aanw0c",358,"110.csv","","282.90000009536743","resources/trios/L4T4A2.jpg","37","restless",0.4,0.8,0.7,0.459412610867504,"false"
"image-keyboard-response",283,300095,"0.0-4.90-1.90","nxp8ky5d8aanw0c",358,"110.csv","","null","resources/maskTrios/L4BB.jpg","null","",NA,NA,NA,NA,""
"image-keyboard-response",284,301307,"0.0-4.90-2.90","nxp8ky5d8aanw0c",358,"110.csv","","null","resources/images/fishbone.png","null","",NA,NA,NA,NA,""
"image-keyboard-response",285,301446,"0.0-4.91-0.91","nxp8ky5d8aanw0c",358,"110.csv","","137.7999997138977","resources/trios/L4T4A2.jpg","38","restless",0.4,0.8,0.7,0.800630896141337,"false"
"image-keyboard-response",286,301851,"0.0-4.91-1.91","nxp8ky5d8aanw0c",358,"110.csv","","null","resources/maskTrios/BT4B.jpg","null","",NA,NA,NA,NA,""
"image-keyboard-response",287,303064,"0.0-4.91-2.91","nxp8ky5d8aanw0c",358,"110.csv","","null","resources/images/fishbone.png","null","",NA,NA,NA,NA,""
"image-keyboard-response",288,303185,"0.0-4.92-0.92","nxp8ky5d8aanw0c",358,"110.csv","","120.69999980926514","resources/trios/L4T4A2.jpg","39","restless",0.4,0.7,0.7,0.990954510459942,"false"
"image-keyboard-response",289,303590,"0.0-4.92-1.92","nxp8ky5d8aanw0c",358,"110.csv","","null","resources/maskTrios/BBA2.jpg","null","",NA,NA,NA,NA,""
"image-keyboard-response",290,304802,"0.0-4.92-2.92","nxp8ky5d8aanw0c",358,"110.csv","","null","resources/images/fishbone.png","null","",NA,NA,NA,NA,""
"image-keyboard-response",291,304890,"0.0-4.93-0.93","nxp8ky5d8aanw0c",358,"110.csv","","86.80000019073486","resources/trios/L4T4A2.jpg","37","restless",0.4,0.7,0.7,0.534977199804155,"false"
"image-keyboard-response",292,305298,"0.0-4.93-1.93","nxp8ky5d8aanw0c",358,"110.csv","","null","resources/maskTrios/L4BB.jpg","null","",NA,NA,NA,NA,""
"image-keyboard-response",293,306509,"0.0-4.93-2.93","nxp8ky5d8aanw0c",358,"110.csv","","null","resources/images/fishbone.png","null","",NA,NA,NA,NA,""
"image-keyboard-response",294,306767,"0.0-4.94-0.94","nxp8ky5d8aanw0c",358,"110.csv","","257.19999980926514","resources/trios/L4T4A2.jpg","38","restless",0.4,0.7,0.7,0.776802909499245,"false"
"image-keyboard-response",295,307175,"0.0-4.94-1.94","nxp8ky5d8aanw0c",358,"110.csv","","null","resources/maskTrios/BT4B.jpg","null","",NA,NA,NA,NA,""
"image-keyboard-response",296,308387,"0.0-4.94-2.94","nxp8ky5d8aanw0c",358,"110.csv","","null","resources/images/fishbone.png","null","",NA,NA,NA,NA,""
"image-keyboard-response",297,308455,"0.0-4.95-0.95","nxp8ky5d8aanw0c",358,"110.csv","","66.89999961853027","resources/trios/L4T4A2.jpg","39","restless",0.4,0.7,0.7,0.0729013440990212,"true"
"image-keyboard-response",298,308868,"0.0-4.95-1.95","nxp8ky5d8aanw0c",358,"110.csv","","null","resources/maskTrios/BBA2.jpg","null","",NA,NA,NA,NA,""
"image-keyboard-response",299,310069,"0.0-4.95-2.95","nxp8ky5d8aanw0c",358,"110.csv","","null","resources/images/coin2.png","null","",NA,NA,NA,NA,""
"image-keyboard-response",300,310070,"0.0-4.96-0.96","nxp8ky5d8aanw0c",358,"110.csv","","0.8000001907348633","resources/trios/L4T4A2.jpg","39","restless",0.4,0.7,0.7,0.32156829370176,"true"
"image-keyboard-response",301,310488,"0.0-4.96-1.96","nxp8ky5d8aanw0c",358,"110.csv","","null","resources/maskTrios/BBA2.jpg","null","",NA,NA,NA,NA,""
"image-keyboard-response",302,311695,"0.0-4.96-2.96","nxp8ky5d8aanw0c",358,"110.csv","","null","resources/images/coin2.png","null","",NA,NA,NA,NA,""
"image-keyboard-response",303,311745,"0.0-4.97-0.97","nxp8ky5d8aanw0c",358,"110.csv","","49.799999713897705","resources/trios/L4T4A2.jpg","39","restless",0.4,0.7,0.7,0.421442528730496,"true"
"image-keyboard-response",304,312159,"0.0-4.97-1.97","nxp8ky5d8aanw0c",358,"110.csv","","null","resources/maskTrios/BBA2.jpg","null","",NA,NA,NA,NA,""
"image-keyboard-response",305,313365,"0.0-4.97-2.97","nxp8ky5d8aanw0c",358,"110.csv","","null","resources/images/coin2.png","null","",NA,NA,NA,NA,""
"image-keyboard-response",306,313723,"0.0-4.98-0.98","nxp8ky5d8aanw0c",358,"110.csv","","357.5","resources/trios/L4T4A2.jpg","39","restless",0.4,0.7,0.7,0.590334937863717,"true"
"image-keyboard-response",307,314127,"0.0-4.98-1.98","nxp8ky5d8aanw0c",358,"110.csv","","null","resources/maskTrios/BBA2.jpg","null","",NA,NA,NA,NA,""
"image-keyboard-response",308,315332,"0.0-4.98-2.98","nxp8ky5d8aanw0c",358,"110.csv","","null","resources/images/coin2.png","null","",NA,NA,NA,NA,""
"image-keyboard-response",309,315471,"0.0-4.99-0.99","nxp8ky5d8aanw0c",358,"110.csv","","137.7000002861023","resources/trios/L4T4A2.jpg","39","restless",0.4,0.7,0.7,0.429904425499983,"true"
"image-keyboard-response",310,315873,"0.0-4.99-1.99","nxp8ky5d8aanw0c",358,"110.csv","","null","resources/maskTrios/BBA2.jpg","null","",NA,NA,NA,NA,""
"image-keyboard-response",311,317079,"0.0-4.99-2.99","nxp8ky5d8aanw0c",358,"110.csv","","null","resources/images/coin2.png","null","",NA,NA,NA,NA,""
"image-keyboard-response",312,317211,"0.0-4.100-0.100","nxp8ky5d8aanw0c",358,"110.csv","","131.2000002861023","resources/trios/L4T4A2.jpg","39","restless",0.4,0.7,0.7,0.207270459949545,"true"
"image-keyboard-response",313,317623,"0.0-4.100-1.100","nxp8ky5d8aanw0c",358,"110.csv","","null","resources/maskTrios/BBA2.jpg","null","",NA,NA,NA,NA,""
"image-keyboard-response",314,318831,"0.0-4.100-2.100","nxp8ky5d8aanw0c",358,"110.csv","","null","resources/images/coin2.png","null","",NA,NA,NA,NA,""
"image-keyboard-response",315,319024,"0.0-4.101-0.101","nxp8ky5d8aanw0c",358,"110.csv","","192","resources/trios/L4T4A2.jpg","39","restless",0.4,0.7,0.7,0.195805977990418,"true"
"image-keyboard-response",316,319438,"0.0-4.101-1.101","nxp8ky5d8aanw0c",358,"110.csv","","null","resources/maskTrios/BBA2.jpg","null","",NA,NA,NA,NA,""
"image-keyboard-response",317,320647,"0.0-4.101-2.101","nxp8ky5d8aanw0c",358,"110.csv","","null","resources/images/coin2.png","null","",NA,NA,NA,NA,""
"image-keyboard-response",318,320910,"0.0-4.102-0.102","nxp8ky5d8aanw0c",358,"110.csv","","262.59999990463257","resources/trios/L4T4A2.jpg","39","restless",0.4,0.6,0.6,0.101140458088488,"true"
"image-keyboard-response",319,321313,"0.0-4.102-1.102","nxp8ky5d8aanw0c",358,"110.csv","","null","resources/maskTrios/BBA2.jpg","null","",NA,NA,NA,NA,""
"image-keyboard-response",320,322520,"0.0-4.102-2.102","nxp8ky5d8aanw0c",358,"110.csv","","null","resources/images/coin2.png","null","",NA,NA,NA,NA,""
"image-keyboard-response",321,322538,"0.0-4.103-0.103","nxp8ky5d8aanw0c",358,"110.csv","","17.699999809265137","resources/trios/L4T4A2.jpg","39","restless",0.4,0.6,0.6,0.862466201010109,"false"
"image-keyboard-response",322,322941,"0.0-4.103-1.103","nxp8ky5d8aanw0c",358,"110.csv","","null","resources/maskTrios/BBA2.jpg","null","",NA,NA,NA,NA,""
"image-keyboard-response",323,324147,"0.0-4.103-2.103","nxp8ky5d8aanw0c",358,"110.csv","","null","resources/images/fishbone.png","null","",NA,NA,NA,NA,""
"image-keyboard-response",324,324345,"0.0-4.104-0.104","nxp8ky5d8aanw0c",358,"110.csv","","197.60000038146973","resources/trios/L4T4A2.jpg","37","restless",0.4,0.6,0.7,0.661877991704134,"false"
"image-keyboard-response",325,324750,"0.0-4.104-1.104","nxp8ky5d8aanw0c",358,"110.csv","","null","resources/maskTrios/L4BB.jpg","null","",NA,NA,NA,NA,""
"image-keyboard-response",326,325952,"0.0-4.104-2.104","nxp8ky5d8aanw0c",358,"110.csv","","null","resources/images/fishbone.png","null","",NA,NA,NA,NA,""
"image-keyboard-response",327,326216,"0.0-4.105-0.105","nxp8ky5d8aanw0c",358,"110.csv","","263.1000003814697","resources/trios/L4T4A2.jpg","38","restless",0.4,0.6,0.7,0.716573239683664,"false"
"image-keyboard-response",328,326628,"0.0-4.105-1.105","nxp8ky5d8aanw0c",358,"110.csv","","null","resources/maskTrios/BT4B.jpg","null","",NA,NA,NA,NA,""
"image-keyboard-response",329,327834,"0.0-4.105-2.105","nxp8ky5d8aanw0c",358,"110.csv","","null","resources/images/fishbone.png","null","",NA,NA,NA,NA,""
"image-keyboard-response",330,327849,"0.0-4.106-0.106","nxp8ky5d8aanw0c",358,"110.csv","","13.899999618530273","resources/trios/L4T4A2.jpg","37","restless",0.4,0.6,0.7,0.626688712796671,"false"
"image-keyboard-response",331,328253,"0.0-4.106-1.106","nxp8ky5d8aanw0c",358,"110.csv","","null","resources/maskTrios/L4BB.jpg","null","",NA,NA,NA,NA,""
"image-keyboard-response",332,329465,"0.0-4.106-2.106","nxp8ky5d8aanw0c",358,"110.csv","","null","resources/images/fishbone.png","null","",NA,NA,NA,NA,""
"image-keyboard-response",333,329634,"0.0-4.107-0.107","nxp8ky5d8aanw0c",358,"110.csv","","167.80000019073486","resources/trios/L4T4A2.jpg","39","restless",0.4,0.6,0.7,0.37066666430455,"true"
"image-keyboard-response",334,330039,"0.0-4.107-1.107","nxp8ky5d8aanw0c",358,"110.csv","","null","resources/maskTrios/BBA2.jpg","null","",NA,NA,NA,NA,""
"image-keyboard-response",335,331246,"0.0-4.107-2.107","nxp8ky5d8aanw0c",358,"110.csv","","null","resources/images/coin2.png","null","",NA,NA,NA,NA,""
"image-keyboard-response",336,331586,"0.0-4.108-0.108","nxp8ky5d8aanw0c",358,"110.csv","","339.80000019073486","resources/trios/L4T4A2.jpg","39","restless",0.4,0.6,0.6,0.22930886844664,"true"
"image-keyboard-response",337,331987,"0.0-4.108-1.108","nxp8ky5d8aanw0c",358,"110.csv","","null","resources/maskTrios/BBA2.jpg","null","",NA,NA,NA,NA,""
"image-keyboard-response",338,333194,"0.0-4.108-2.108","nxp8ky5d8aanw0c",358,"110.csv","","null","resources/images/coin2.png","null","",NA,NA,NA,NA,""
"image-keyboard-response",339,333313,"0.0-4.109-0.109","nxp8ky5d8aanw0c",358,"110.csv","","118.19999980926514","resources/trios/L4T4A2.jpg","39","restless",0.4,0.5,0.6,0.981127738428226,"false"
"image-keyboard-response",340,333724,"0.0-4.109-1.109","nxp8ky5d8aanw0c",358,"110.csv","","null","resources/maskTrios/BBA2.jpg","null","",NA,NA,NA,NA,""
"image-keyboard-response",341,334936,"0.0-4.109-2.109","nxp8ky5d8aanw0c",358,"110.csv","","null","resources/images/fishbone.png","null","",NA,NA,NA,NA,""
"image-keyboard-response",342,335030,"0.0-4.110-0.110","nxp8ky5d8aanw0c",358,"110.csv","","93.19999980926514","resources/trios/L4T4A2.jpg","38","restless",0.4,0.5,0.6,0.414295712059995,"true"
"image-keyboard-response",343,335433,"0.0-4.110-1.110","nxp8ky5d8aanw0c",358,"110.csv","","null","resources/maskTrios/BT4B.jpg","null","",NA,NA,NA,NA,""
"image-keyboard-response",344,336640,"0.0-4.110-2.110","nxp8ky5d8aanw0c",358,"110.csv","","null","resources/images/coin2.png","null","",NA,NA,NA,NA,""
"image-keyboard-response",345,336722,"0.0-4.111-0.111","nxp8ky5d8aanw0c",358,"110.csv","","81.59999990463257","resources/trios/L4T4A2.jpg","38","restless",0.4,0.5,0.6,0.41050180887544,"true"
"image-keyboard-response",346,337133,"0.0-4.111-1.111","nxp8ky5d8aanw0c",358,"110.csv","","null","resources/maskTrios/BT4B.jpg","null","",NA,NA,NA,NA,""
"image-keyboard-response",347,338341,"0.0-4.111-2.111","nxp8ky5d8aanw0c",358,"110.csv","","null","resources/images/coin2.png","null","",NA,NA,NA,NA,""
"image-keyboard-response",348,338438,"0.0-4.112-0.112","nxp8ky5d8aanw0c",358,"110.csv","","96.59999990463257","resources/trios/L4T4A2.jpg","38","restless",0.3,0.6,0.6,0.0057706675397462,"true"
"image-keyboard-response",349,338851,"0.0-4.112-1.112","nxp8ky5d8aanw0c",358,"110.csv","","null","resources/maskTrios/BT4B.jpg","null","",NA,NA,NA,NA,""
"image-keyboard-response",350,340056,"0.0-4.112-2.112","nxp8ky5d8aanw0c",358,"110.csv","","null","resources/images/coin2.png","null","",NA,NA,NA,NA,""
"image-keyboard-response",351,340402,"0.0-4.113-0.113","nxp8ky5d8aanw0c",358,"110.csv","","345.80000019073486","resources/trios/L4T4A2.jpg","38","restless",0.3,0.6,0.6,0.662224556162526,"false"
"image-keyboard-response",352,340805,"0.0-4.113-1.113","nxp8ky5d8aanw0c",358,"110.csv","","null","resources/maskTrios/BT4B.jpg","null","",NA,NA,NA,NA,""
"image-keyboard-response",353,342014,"0.0-4.113-2.113","nxp8ky5d8aanw0c",358,"110.csv","","null","resources/images/fishbone.png","null","",NA,NA,NA,NA,""
"image-keyboard-response",354,342161,"0.0-4.114-0.114","nxp8ky5d8aanw0c",358,"110.csv","","146","resources/trios/L4T4A2.jpg","37","restless",0.3,0.6,0.6,0.843752235641306,"false"
"image-keyboard-response",355,342572,"0.0-4.114-1.114","nxp8ky5d8aanw0c",358,"110.csv","","null","resources/maskTrios/L4BB.jpg","null","",NA,NA,NA,NA,""
"image-keyboard-response",356,343783,"0.0-4.114-2.114","nxp8ky5d8aanw0c",358,"110.csv","","null","resources/images/fishbone.png","null","",NA,NA,NA,NA,""
"image-keyboard-response",357,343991,"0.0-4.115-0.115","nxp8ky5d8aanw0c",358,"110.csv","","207.19999980926514","resources/trios/L4T4A2.jpg","39","restless",0.3,0.6,0.6,0.383929079089943,"true"
"image-keyboard-response",358,344404,"0.0-4.115-1.115","nxp8ky5d8aanw0c",358,"110.csv","","null","resources/maskTrios/BBA2.jpg","null","",NA,NA,NA,NA,""
"image-keyboard-response",359,345610,"0.0-4.115-2.115","nxp8ky5d8aanw0c",358,"110.csv","","null","resources/images/coin2.png","null","",NA,NA,NA,NA,""
"image-keyboard-response",360,345624,"0.0-4.116-0.116","nxp8ky5d8aanw0c",358,"110.csv","","12.300000190734863","resources/trios/L4T4A2.jpg","39","restless",0.3,0.5,0.6,0.0877880235150494,"true"
"image-keyboard-response",361,346029,"0.0-4.116-1.116","nxp8ky5d8aanw0c",358,"110.csv","","null","resources/maskTrios/BBA2.jpg","null","",NA,NA,NA,NA,""
"image-keyboard-response",362,347234,"0.0-4.116-2.116","nxp8ky5d8aanw0c",358,"110.csv","","null","resources/images/coin2.png","null","",NA,NA,NA,NA,""
"image-keyboard-response",363,347353,"0.0-4.117-0.117","nxp8ky5d8aanw0c",358,"110.csv","","118.30000019073486","resources/trios/L4T4A2.jpg","38","restless",0.3,0.5,0.6,0.589783998568288,"false"
"image-keyboard-response",364,347761,"0.0-4.117-1.117","nxp8ky5d8aanw0c",358,"110.csv","","null","resources/maskTrios/BT4B.jpg","null","",NA,NA,NA,NA,""
"image-keyboard-response",365,348974,"0.0-4.117-2.117","nxp8ky5d8aanw0c",358,"110.csv","","null","resources/images/fishbone.png","null","",NA,NA,NA,NA,""
"image-keyboard-response",366,349083,"0.0-4.118-0.118","nxp8ky5d8aanw0c",358,"110.csv","","108.69999980926514","resources/trios/L4T4A2.jpg","37","restless",0.3,0.5,0.6,0.321304903126902,"false"
"image-keyboard-response",367,349499,"0.0-4.118-1.118","nxp8ky5d8aanw0c",358,"110.csv","","null","resources/maskTrios/L4BB.jpg","null","",NA,NA,NA,NA,""
"image-keyboard-response",368,350709,"0.0-4.118-2.118","nxp8ky5d8aanw0c",358,"110.csv","","null","resources/images/fishbone.png","null","",NA,NA,NA,NA,""
"image-keyboard-response",369,350993,"0.0-4.119-0.119","nxp8ky5d8aanw0c",358,"110.csv","","283","resources/trios/L4T4A2.jpg","39","restless",0.2,0.5,0.6,0.197698291133982,"true"
"image-keyboard-response",370,351407,"0.0-4.119-1.119","nxp8ky5d8aanw0c",358,"110.csv","","null","resources/maskTrios/BBA2.jpg","null","",NA,NA,NA,NA,""
"image-keyboard-response",371,352611,"0.0-4.119-2.119","nxp8ky5d8aanw0c",358,"110.csv","","null","resources/images/coin2.png","null","",NA,NA,NA,NA,""
"image-keyboard-response",372,352872,"0.0-4.120-0.120","nxp8ky5d8aanw0c",358,"110.csv","","259.80000019073486","resources/trios/L4T4A2.jpg","39","restless",0.2,0.5,0.6,0.665206570106203,"false"
"image-keyboard-response",373,353280,"0.0-4.120-1.120","nxp8ky5d8aanw0c",358,"110.csv","","null","resources/maskTrios/BBA2.jpg","null","",NA,NA,NA,NA,""
"image-keyboard-response",374,354493,"0.0-4.120-2.120","nxp8ky5d8aanw0c",358,"110.csv","","null","resources/images/fishbone.png","null","",NA,NA,NA,NA,""
"image-keyboard-response",375,354752,"0.0-4.121-0.121","nxp8ky5d8aanw0c",358,"110.csv","","258.80000019073486","resources/trios/L4T4A2.jpg","38","restless",0.2,0.4,0.6,0.726301585251905,"false"
"image-keyboard-response",376,355155,"0.0-4.121-1.121","nxp8ky5d8aanw0c",358,"110.csv","","null","resources/maskTrios/BT4B.jpg","null","",NA,NA,NA,NA,""
"image-keyboard-response",377,356364,"0.0-4.121-2.121","nxp8ky5d8aanw0c",358,"110.csv","","null","resources/images/fishbone.png","null","",NA,NA,NA,NA,""
"image-keyboard-response",378,356451,"0.0-4.122-0.122","nxp8ky5d8aanw0c",358,"110.csv","","86.69999980926514","resources/trios/L4T4A2.jpg","39","restless",0.2,0.4,0.6,0.728064500578544,"false"
"image-keyboard-response",379,356863,"0.0-4.122-1.122","nxp8ky5d8aanw0c",358,"110.csv","","null","resources/maskTrios/BBA2.jpg","null","",NA,NA,NA,NA,""
"image-keyboard-response",380,358073,"0.0-4.122-2.122","nxp8ky5d8aanw0c",358,"110.csv","","null","resources/images/fishbone.png","null","",NA,NA,NA,NA,""
"image-keyboard-response",381,358304,"0.0-4.123-0.123","nxp8ky5d8aanw0c",358,"110.csv","","230","resources/trios/L4T4A2.jpg","37","restless",0.2,0.4,0.6,0.992912221546143,"false"
"image-keyboard-response",382,358712,"0.0-4.123-1.123","nxp8ky5d8aanw0c",358,"110.csv","","null","resources/maskTrios/L4BB.jpg","null","",NA,NA,NA,NA,""
"image-keyboard-response",383,359926,"0.0-4.123-2.123","nxp8ky5d8aanw0c",358,"110.csv","","null","resources/images/fishbone.png","null","",NA,NA,NA,NA,""
"image-keyboard-response",384,359946,"0.0-4.124-0.124","nxp8ky5d8aanw0c",358,"110.csv","","20","resources/trios/L4T4A2.jpg","38","restless",0.2,0.4,0.6,0.673798497378133,"false"
"image-keyboard-response",385,360359,"0.0-4.124-1.124","nxp8ky5d8aanw0c",358,"110.csv","","null","resources/maskTrios/BT4B.jpg","null","",NA,NA,NA,NA,""
"image-keyboard-response",386,361574,"0.0-4.124-2.124","nxp8ky5d8aanw0c",358,"110.csv","","null","resources/images/fishbone.png","null","",NA,NA,NA,NA,""
"image-keyboard-response",387,361691,"0.0-4.125-0.125","nxp8ky5d8aanw0c",358,"110.csv","","116.30000019073486","resources/trios/L4T4A2.jpg","38","restless",0.2,0.4,0.6,0.985149483560008,"false"
"image-keyboard-response",388,362104,"0.0-4.125-1.125","nxp8ky5d8aanw0c",358,"110.csv","","null","resources/maskTrios/BT4B.jpg","null","",NA,NA,NA,NA,""
"image-keyboard-response",389,363315,"0.0-4.125-2.125","nxp8ky5d8aanw0c",358,"110.csv","","null","resources/images/fishbone.png","null","",NA,NA,NA,NA,""
"image-keyboard-response",390,363377,"0.0-4.126-0.126","nxp8ky5d8aanw0c",358,"110.csv","","62.09999990463257","resources/trios/L4T4A2.jpg","39","restless",0.2,0.4,0.6,0.492854171622982,"true"
"image-keyboard-response",391,363779,"0.0-4.126-1.126","nxp8ky5d8aanw0c",358,"110.csv","","null","resources/maskTrios/BBA2.jpg","null","",NA,NA,NA,NA,""
"image-keyboard-response",392,364980,"0.0-4.126-2.126","nxp8ky5d8aanw0c",358,"110.csv","","null","resources/images/coin2.png","null","",NA,NA,NA,NA,""
"image-keyboard-response",393,365120,"0.0-4.127-0.127","nxp8ky5d8aanw0c",358,"110.csv","","139.40000009536743","resources/trios/L4T4A2.jpg","39","restless",0.2,0.4,0.6,0.35728138499313,"true"
"image-keyboard-response",394,365524,"0.0-4.127-1.127","nxp8ky5d8aanw0c",358,"110.csv","","null","resources/maskTrios/BBA2.jpg","null","",NA,NA,NA,NA,""
"image-keyboard-response",395,366726,"0.0-4.127-2.127","nxp8ky5d8aanw0c",358,"110.csv","","null","resources/images/coin2.png","null","",NA,NA,NA,NA,""
"image-keyboard-response",396,366849,"0.0-4.128-0.128","nxp8ky5d8aanw0c",358,"110.csv","","122.2000002861023","resources/trios/L4T4A2.jpg","39","restless",0.2,0.4,0.6,0.260944199362733,"true"
"image-keyboard-response",397,367254,"0.0-4.128-1.128","nxp8ky5d8aanw0c",358,"110.csv","","null","resources/maskTrios/BBA2.jpg","null","",NA,NA,NA,NA,""
"image-keyboard-response",398,368468,"0.0-4.128-2.128","nxp8ky5d8aanw0c",358,"110.csv","","null","resources/images/coin2.png","null","",NA,NA,NA,NA,""
"image-keyboard-response",399,368771,"0.0-4.129-0.129","nxp8ky5d8aanw0c",358,"110.csv","","303","resources/trios/L4T4A2.jpg","39","restless",0.2,0.4,0.6,0.601521398378414,"false"
"image-keyboard-response",400,369184,"0.0-4.129-1.129","nxp8ky5d8aanw0c",358,"110.csv","","null","resources/maskTrios/BBA2.jpg","null","",NA,NA,NA,NA,""
"image-keyboard-response",401,370387,"0.0-4.129-2.129","nxp8ky5d8aanw0c",358,"110.csv","","null","resources/images/fishbone.png","null","",NA,NA,NA,NA,""
"image-keyboard-response",402,373078,"0.0-4.130-0.130","nxp8ky5d8aanw0c",358,"110.csv","","2690.9000000953674","resources/trios/L4T4A2.jpg","39","restless",0.2,0.4,0.5,0.984086309003117,"false"
"image-keyboard-response",403,373495,"0.0-4.130-1.130","nxp8ky5d8aanw0c",358,"110.csv","","null","resources/maskTrios/BBA2.jpg","null","",NA,NA,NA,NA,""
"image-keyboard-response",404,374710,"0.0-4.130-2.130","nxp8ky5d8aanw0c",358,"110.csv","","null","resources/images/fishbone.png","null","",NA,NA,NA,NA,""
"image-keyboard-response",405,374884,"0.0-4.131-0.131","nxp8ky5d8aanw0c",358,"110.csv","","173.60000038146973","resources/trios/L4T4A2.jpg","37","restless",0.2,0.4,0.4,0.342593627126345,"false"
"image-keyboard-response",406,375299,"0.0-4.131-1.131","nxp8ky5d8aanw0c",358,"110.csv","","null","resources/maskTrios/L4BB.jpg","null","",NA,NA,NA,NA,""
"image-keyboard-response",407,376515,"0.0-4.131-2.131","nxp8ky5d8aanw0c",358,"110.csv","","null","resources/images/fishbone.png","null","",NA,NA,NA,NA,""
"image-keyboard-response",408,376666,"0.0-4.132-0.132","nxp8ky5d8aanw0c",358,"110.csv","","150.90000009536743","resources/trios/L4T4A2.jpg","38","restless",0.2,0.3,0.4,0.419135268730868,"false"
"image-keyboard-response",409,377079,"0.0-4.132-1.132","nxp8ky5d8aanw0c",358,"110.csv","","null","resources/maskTrios/BT4B.jpg","null","",NA,NA,NA,NA,""
"image-keyboard-response",410,378294,"0.0-4.132-2.132","nxp8ky5d8aanw0c",358,"110.csv","","null","resources/images/fishbone.png","null","",NA,NA,NA,NA,""
"image-keyboard-response",411,378447,"0.0-4.133-0.133","nxp8ky5d8aanw0c",358,"110.csv","","151.90000009536743","resources/trios/L4T4A2.jpg","38","restless",0.2,0.3,0.4,0.470941857493556,"false"
"image-keyboard-response",412,378854,"0.0-4.133-1.133","nxp8ky5d8aanw0c",358,"110.csv","","null","resources/maskTrios/BT4B.jpg","null","",NA,NA,NA,NA,""
"image-keyboard-response",413,380066,"0.0-4.133-2.133","nxp8ky5d8aanw0c",358,"110.csv","","null","resources/images/fishbone.png","null","",NA,NA,NA,NA,""
"image-keyboard-response",414,384580,"0.0-4.134-0.134","nxp8ky5d8aanw0c",358,"110.csv","","4512.800000190735","resources/trios/L4T4A2.jpg","38","restless",0.2,0.3,0.4,0.492280847345989,"false"
"image-keyboard-response",415,384997,"0.0-4.134-1.134","nxp8ky5d8aanw0c",358,"110.csv","","null","resources/maskTrios/BT4B.jpg","null","",NA,NA,NA,NA,""
"image-keyboard-response",416,386208,"0.0-4.134-2.134","nxp8ky5d8aanw0c",358,"110.csv","","null","resources/images/fishbone.png","null","",NA,NA,NA,NA,""
"image-keyboard-response",417,386765,"0.0-4.135-0.135","nxp8ky5d8aanw0c",358,"110.csv","","557","resources/trios/L4T4A2.jpg","39","restless",0.3,0.3,0.4,0.00831423050867541,"true"
"image-keyboard-response",418,387174,"0.0-4.135-1.135","nxp8ky5d8aanw0c",358,"110.csv","","null","resources/maskTrios/BBA2.jpg","null","",NA,NA,NA,NA,""
"image-keyboard-response",419,388387,"0.0-4.135-2.135","nxp8ky5d8aanw0c",358,"110.csv","","null","resources/images/coin2.png","null","",NA,NA,NA,NA,""
"image-keyboard-response",420,388873,"0.0-4.136-0.136","nxp8ky5d8aanw0c",358,"110.csv","","485.09999990463257","resources/trios/L4T4A2.jpg","39","restless",0.3,0.3,0.4,0.783191687613483,"false"
"image-keyboard-response",421,389275,"0.0-4.136-1.136","nxp8ky5d8aanw0c",358,"110.csv","","null","resources/maskTrios/BBA2.jpg","null","",NA,NA,NA,NA,""
"image-keyboard-response",422,390487,"0.0-4.136-2.136","nxp8ky5d8aanw0c",358,"110.csv","","null","resources/images/fishbone.png","null","",NA,NA,NA,NA,""
"image-keyboard-response",423,390772,"0.0-4.137-0.137","nxp8ky5d8aanw0c",358,"110.csv","","284.7000002861023","resources/trios/L4T4A2.jpg","37","restless",0.3,0.3,0.4,0.334827190745807,"false"
"image-keyboard-response",424,391187,"0.0-4.137-1.137","nxp8ky5d8aanw0c",358,"110.csv","","null","resources/maskTrios/L4BB.jpg","null","",NA,NA,NA,NA,""
"image-keyboard-response",425,392398,"0.0-4.137-2.137","nxp8ky5d8aanw0c",358,"110.csv","","null","resources/images/fishbone.png","null","",NA,NA,NA,NA,""
"image-keyboard-response",426,393526,"0.0-4.138-0.138","nxp8ky5d8aanw0c",358,"110.csv","","1127","resources/trios/L4T4A2.jpg","38","restless",0.3,0.3,0.5,0.21480933363851,"true"
"image-keyboard-response",427,393933,"0.0-4.138-1.138","nxp8ky5d8aanw0c",358,"110.csv","","null","resources/maskTrios/BT4B.jpg","null","",NA,NA,NA,NA,""
"image-keyboard-response",428,395146,"0.0-4.138-2.138","nxp8ky5d8aanw0c",358,"110.csv","","null","resources/images/coin2.png","null","",NA,NA,NA,NA,""
"image-keyboard-response",429,395630,"0.0-4.139-0.139","nxp8ky5d8aanw0c",358,"110.csv","","484.2000002861023","resources/trios/L4T4A2.jpg","38","restless",0.3,0.3,0.6,0.678490877931109,"false"
"image-keyboard-response",430,396032,"0.0-4.139-1.139","nxp8ky5d8aanw0c",358,"110.csv","","null","resources/maskTrios/BT4B.jpg","null","",NA,NA,NA,NA,""
"image-keyboard-response",431,397246,"0.0-4.139-2.139","nxp8ky5d8aanw0c",358,"110.csv","","null","resources/images/fishbone.png","null","",NA,NA,NA,NA,""
"image-keyboard-response",432,397954,"0.0-4.140-0.140","nxp8ky5d8aanw0c",358,"110.csv","","707.2000002861023","resources/trios/L4T4A2.jpg","39","restless",0.3,0.3,0.6,0.311817947533398,"true"
"image-keyboard-response",433,398366,"0.0-4.140-1.140","nxp8ky5d8aanw0c",358,"110.csv","","null","resources/maskTrios/BBA2.jpg","null","",NA,NA,NA,NA,""
"image-keyboard-response",434,399579,"0.0-4.140-2.140","nxp8ky5d8aanw0c",358,"110.csv","","null","resources/images/coin2.png","null","",NA,NA,NA,NA,""
"image-keyboard-response",435,399745,"0.0-4.141-0.141","nxp8ky5d8aanw0c",358,"110.csv","","165.30000019073486","resources/trios/L4T4A2.jpg","39","restless",0.3,0.3,0.6,0.719483506940787,"false"
"image-keyboard-response",436,400154,"0.0-4.141-1.141","nxp8ky5d8aanw0c",358,"110.csv","","null","resources/maskTrios/BBA2.jpg","null","",NA,NA,NA,NA,""
"image-keyboard-response",437,401364,"0.0-4.141-2.141","nxp8ky5d8aanw0c",358,"110.csv","","null","resources/images/fishbone.png","null","",NA,NA,NA,NA,""
"image-keyboard-response",438,401684,"0.0-4.142-0.142","nxp8ky5d8aanw0c",358,"110.csv","","319","resources/trios/L4T4A2.jpg","37","restless",0.3,0.3,0.7,0.126140368032945,"true"
"image-keyboard-response",439,402096,"0.0-4.142-1.142","nxp8ky5d8aanw0c",358,"110.csv","","null","resources/maskTrios/L4BB.jpg","null","",NA,NA,NA,NA,""
"image-keyboard-response",440,403311,"0.0-4.142-2.142","nxp8ky5d8aanw0c",358,"110.csv","","null","resources/images/coin2.png","null","",NA,NA,NA,NA,""
"image-keyboard-response",441,403772,"0.0-4.143-0.143","nxp8ky5d8aanw0c",358,"110.csv","","460.2000002861023","resources/trios/L4T4A2.jpg","37","restless",0.3,0.3,0.8,0.0684729840307987,"true"
"image-keyboard-response",442,404186,"0.0-4.143-1.143","nxp8ky5d8aanw0c",358,"110.csv","","null","resources/maskTrios/L4BB.jpg","null","",NA,NA,NA,NA,""
"image-keyboard-response",443,405401,"0.0-4.143-2.143","nxp8ky5d8aanw0c",358,"110.csv","","null","resources/images/coin2.png","null","",NA,NA,NA,NA,""
"image-keyboard-response",444,405670,"0.0-4.144-0.144","nxp8ky5d8aanw0c",358,"110.csv","","269.2000002861023","resources/trios/L4T4A2.jpg","37","restless",0.3,0.3,0.8,0.039726485949843,"true"
"image-keyboard-response",445,406083,"0.0-4.144-1.144","nxp8ky5d8aanw0c",358,"110.csv","","null","resources/maskTrios/L4BB.jpg","null","",NA,NA,NA,NA,""
"image-keyboard-response",446,407299,"0.0-4.144-2.144","nxp8ky5d8aanw0c",358,"110.csv","","null","resources/images/coin2.png","null","",NA,NA,NA,NA,""
"image-keyboard-response",447,407674,"0.0-4.145-0.145","nxp8ky5d8aanw0c",358,"110.csv","","374.2000002861023","resources/trios/L4T4A2.jpg","38","restless",0.3,0.3,0.8,0.220281129048865,"true"
"image-keyboard-response",448,408086,"0.0-4.145-1.145","nxp8ky5d8aanw0c",358,"110.csv","","null","resources/maskTrios/BT4B.jpg","null","",NA,NA,NA,NA,""
"image-keyboard-response",449,409301,"0.0-4.145-2.145","nxp8ky5d8aanw0c",358,"110.csv","","null","resources/images/coin2.png","null","",NA,NA,NA,NA,""
"image-keyboard-response",450,409625,"0.0-4.146-0.146","nxp8ky5d8aanw0c",358,"110.csv","","322.7999997138977","resources/trios/L4T4A2.jpg","38","restless",0.2,0.3,0.8,0.754291364311883,"false"
"image-keyboard-response",451,410032,"0.0-4.146-1.146","nxp8ky5d8aanw0c",358,"110.csv","","null","resources/maskTrios/BT4B.jpg","null","",NA,NA,NA,NA,""
"image-keyboard-response",452,411244,"0.0-4.146-2.146","nxp8ky5d8aanw0c",358,"110.csv","","null","resources/images/fishbone.png","null","",NA,NA,NA,NA,""
"image-keyboard-response",453,411574,"0.0-4.147-0.147","nxp8ky5d8aanw0c",358,"110.csv","","329.2000002861023","resources/trios/L4T4A2.jpg","37","restless",0.2,0.3,0.7,0.806457456431314,"false"
"image-keyboard-response",454,411989,"0.0-4.147-1.147","nxp8ky5d8aanw0c",358,"110.csv","","null","resources/maskTrios/L4BB.jpg","null","",NA,NA,NA,NA,""
"image-keyboard-response",455,413200,"0.0-4.147-2.147","nxp8ky5d8aanw0c",358,"110.csv","","null","resources/images/fishbone.png","null","",NA,NA,NA,NA,""
"image-keyboard-response",456,413462,"0.0-4.148-0.148","nxp8ky5d8aanw0c",358,"110.csv","","261.59999990463257","resources/trios/L4T4A2.jpg","39","restless",0.2,0.3,0.7,0.553571554510585,"true"
"image-keyboard-response",457,413868,"0.0-4.148-1.148","nxp8ky5d8aanw0c",358,"110.csv","","null","resources/maskTrios/BBA2.jpg","null","",NA,NA,NA,NA,""
"image-keyboard-response",458,415082,"0.0-4.148-2.148","nxp8ky5d8aanw0c",358,"110.csv","","null","resources/images/coin2.png","null","",NA,NA,NA,NA,""
"image-keyboard-response",459,415385,"0.0-4.149-0.149","nxp8ky5d8aanw0c",358,"110.csv","","302.80000019073486","resources/trios/L4T4A2.jpg","39","restless",0.1,0.3,0.7,0.517276172589535,"true"
"image-keyboard-response",460,415794,"0.0-4.149-1.149","nxp8ky5d8aanw0c",358,"110.csv","","null","resources/maskTrios/BBA2.jpg","null","",NA,NA,NA,NA,""
"image-keyboard-response",461,416997,"0.0-4.149-2.149","nxp8ky5d8aanw0c",358,"110.csv","","null","resources/images/coin2.png","null","",NA,NA,NA,NA,""
"image-keyboard-response",462,417211,"0.0-4.150-0.150","nxp8ky5d8aanw0c",358,"110.csv","","213.09999990463257","resources/trios/L4T4A2.jpg","39","restless",0.1,0.3,0.7,0.315371664522278,"true"
"image-keyboard-response",463,417613,"0.0-4.150-1.150","nxp8ky5d8aanw0c",358,"110.csv","","null","resources/maskTrios/BBA2.jpg","null","",NA,NA,NA,NA,""
"image-keyboard-response",464,418816,"0.0-4.150-2.150","nxp8ky5d8aanw0c",358,"110.csv","","null","resources/images/coin2.png","null","",NA,NA,NA,NA,""
"image-keyboard-response",465,419381,"0.0-4.151-0.151","nxp8ky5d8aanw0c",358,"110.csv","","564.4000000953674","resources/trios/L4T4A2.jpg","39","restless",0.1,0.3,0.7,0.122652202457656,"true"
"image-keyboard-response",466,419785,"0.0-4.151-1.151","nxp8ky5d8aanw0c",358,"110.csv","","null","resources/maskTrios/BBA2.jpg","null","",NA,NA,NA,NA,""
"image-keyboard-response",467,420991,"0.0-4.151-2.151","nxp8ky5d8aanw0c",358,"110.csv","","null","resources/images/coin2.png","null","",NA,NA,NA,NA,""
"image-keyboard-response",468,421333,"0.0-4.152-0.152","nxp8ky5d8aanw0c",358,"110.csv","","341","resources/trios/L4T4A2.jpg","38","restless",0.1,0.3,0.7,0.542835945057555,"false"
"image-keyboard-response",469,421737,"0.0-4.152-1.152","nxp8ky5d8aanw0c",358,"110.csv","","null","resources/maskTrios/BT4B.jpg","null","",NA,NA,NA,NA,""
"image-keyboard-response",470,422950,"0.0-4.152-2.152","nxp8ky5d8aanw0c",358,"110.csv","","null","resources/images/fishbone.png","null","",NA,NA,NA,NA,""
"image-keyboard-response",471,423165,"0.0-4.153-0.153","nxp8ky5d8aanw0c",358,"110.csv","","214.09999990463257","resources/trios/L4T4A2.jpg","39","restless",0.1,0.3,0.7,0.23775811403266,"true"
"image-keyboard-response",472,423572,"0.0-4.153-1.153","nxp8ky5d8aanw0c",358,"110.csv","","null","resources/maskTrios/BBA2.jpg","null","",NA,NA,NA,NA,""
"image-keyboard-response",473,424783,"0.0-4.153-2.153","nxp8ky5d8aanw0c",358,"110.csv","","null","resources/images/coin2.png","null","",NA,NA,NA,NA,""
"image-keyboard-response",474,425030,"0.0-4.154-0.154","nxp8ky5d8aanw0c",358,"110.csv","","246.80000019073486","resources/trios/L4T4A2.jpg","39","restless",0.1,0.3,0.6,0.106161356755422,"true"
"image-keyboard-response",475,425431,"0.0-4.154-1.154","nxp8ky5d8aanw0c",358,"110.csv","","null","resources/maskTrios/BBA2.jpg","null","",NA,NA,NA,NA,""
"image-keyboard-response",476,426641,"0.0-4.154-2.154","nxp8ky5d8aanw0c",358,"110.csv","","null","resources/images/coin2.png","null","",NA,NA,NA,NA,""
"image-keyboard-response",477,427030,"0.0-4.155-0.155","nxp8ky5d8aanw0c",358,"110.csv","","387.5","resources/trios/L4T4A2.jpg","39","restless",0.1,0.3,0.7,0.1405034476996,"true"
"image-keyboard-response",478,427436,"0.0-4.155-1.155","nxp8ky5d8aanw0c",358,"110.csv","","null","resources/maskTrios/BBA2.jpg","null","",NA,NA,NA,NA,""
"image-keyboard-response",479,428642,"0.0-4.155-2.155","nxp8ky5d8aanw0c",358,"110.csv","","null","resources/images/coin2.png","null","",NA,NA,NA,NA,""
"image-keyboard-response",480,428944,"0.0-4.156-0.156","nxp8ky5d8aanw0c",358,"110.csv","","300.90000009536743","resources/trios/L4T4A2.jpg","39","restless",0.1,0.3,0.8,0.13747199166723,"true"
"image-keyboard-response",481,429356,"0.0-4.156-1.156","nxp8ky5d8aanw0c",358,"110.csv","","null","resources/maskTrios/BBA2.jpg","null","",NA,NA,NA,NA,""
"image-keyboard-response",482,430569,"0.0-4.156-2.156","nxp8ky5d8aanw0c",358,"110.csv","","null","resources/images/coin2.png","null","",NA,NA,NA,NA,""
"image-keyboard-response",483,430603,"0.0-4.157-0.157","nxp8ky5d8aanw0c",358,"110.csv","","32.59999990463257","resources/trios/L4T4A2.jpg","39","restless",0.1,0.3,0.8,0.473476962890058,"true"
"image-keyboard-response",484,431019,"0.0-4.157-1.157","nxp8ky5d8aanw0c",358,"110.csv","","null","resources/maskTrios/BBA2.jpg","null","",NA,NA,NA,NA,""
"image-keyboard-response",485,432231,"0.0-4.157-2.157","nxp8ky5d8aanw0c",358,"110.csv","","null","resources/images/coin2.png","null","",NA,NA,NA,NA,""
"image-keyboard-response",486,432544,"0.0-4.158-0.158","nxp8ky5d8aanw0c",358,"110.csv","","312","resources/trios/L4T4A2.jpg","39","restless",0.1,0.3,0.8,0.492395690519342,"true"
"image-keyboard-response",487,432958,"0.0-4.158-1.158","nxp8ky5d8aanw0c",358,"110.csv","","null","resources/maskTrios/BBA2.jpg","null","",NA,NA,NA,NA,""
"image-keyboard-response",488,434167,"0.0-4.158-2.158","nxp8ky5d8aanw0c",358,"110.csv","","null","resources/images/coin2.png","null","",NA,NA,NA,NA,""
"image-keyboard-response",489,434366,"0.0-4.159-0.159","nxp8ky5d8aanw0c",358,"110.csv","","198.19999980926514","resources/trios/L4T4A2.jpg","39","restless",0.1,0.3,0.8,0.339485943649021,"true"
"image-keyboard-response",490,434774,"0.0-4.159-1.159","nxp8ky5d8aanw0c",358,"110.csv","","null","resources/maskTrios/BBA2.jpg","null","",NA,NA,NA,NA,""
"image-keyboard-response",491,435984,"0.0-4.159-2.159","nxp8ky5d8aanw0c",358,"110.csv","","null","resources/images/coin2.png","null","",NA,NA,NA,NA,""
"image-keyboard-response",492,436308,"0.0-4.160-0.160","nxp8ky5d8aanw0c",358,"110.csv","","322.80000019073486","resources/trios/L4T4A2.jpg","39","restless",0.1,0.3,0.7,0.313898134244439,"true"
"image-keyboard-response",493,436712,"0.0-4.160-1.160","nxp8ky5d8aanw0c",358,"110.csv","","null","resources/maskTrios/BBA2.jpg","null","",NA,NA,NA,NA,""
"image-keyboard-response",494,437925,"0.0-4.160-2.160","nxp8ky5d8aanw0c",358,"110.csv","","null","resources/images/coin2.png","null","",NA,NA,NA,NA,""
"image-keyboard-response",495,438091,"0.0-4.161-0.161","nxp8ky5d8aanw0c",358,"110.csv","","166.19999980926514","resources/trios/L4T4A2.jpg","39","restless",0.1,0.3,0.7,0.00481684458625753,"true"
"image-keyboard-response",496,438501,"0.0-4.161-1.161","nxp8ky5d8aanw0c",358,"110.csv","","null","resources/maskTrios/BBA2.jpg","null","",NA,NA,NA,NA,""
"image-keyboard-response",497,439714,"0.0-4.161-2.161","nxp8ky5d8aanw0c",358,"110.csv","","null","resources/images/coin2.png","null","",NA,NA,NA,NA,""
"image-keyboard-response",498,439824,"0.0-4.162-0.162","nxp8ky5d8aanw0c",358,"110.csv","","108.90000009536743","resources/trios/L4T4A2.jpg","39","restless",0.1,0.3,0.7,0.644961925459336,"true"
"image-keyboard-response",499,440228,"0.0-4.162-1.162","nxp8ky5d8aanw0c",358,"110.csv","","null","resources/maskTrios/BBA2.jpg","null","",NA,NA,NA,NA,""
"image-keyboard-response",500,441439,"0.0-4.162-2.162","nxp8ky5d8aanw0c",358,"110.csv","","null","resources/images/coin2.png","null","",NA,NA,NA,NA,""
"image-keyboard-response",501,441514,"0.0-4.163-0.163","nxp8ky5d8aanw0c",358,"110.csv","","74.60000038146973","resources/trios/L4T4A2.jpg","39","restless",0.1,0.3,0.7,0.740253389587537,"false"
"image-keyboard-response",502,441919,"0.0-4.163-1.163","nxp8ky5d8aanw0c",358,"110.csv","","null","resources/maskTrios/BBA2.jpg","null","",NA,NA,NA,NA,""
"image-keyboard-response",503,443134,"0.0-4.163-2.163","nxp8ky5d8aanw0c",358,"110.csv","","null","resources/images/fishbone.png","null","",NA,NA,NA,NA,""
"image-keyboard-response",504,443436,"0.0-4.164-0.164","nxp8ky5d8aanw0c",358,"110.csv","","301","resources/trios/L4T4A2.jpg","37","restless",0.1,0.3,0.7,0.901446939870908,"false"
"image-keyboard-response",505,443847,"0.0-4.164-1.164","nxp8ky5d8aanw0c",358,"110.csv","","null","resources/maskTrios/L4BB.jpg","null","",NA,NA,NA,NA,""
"image-keyboard-response",506,445054,"0.0-4.164-2.164","nxp8ky5d8aanw0c",358,"110.csv","","null","resources/images/fishbone.png","null","",NA,NA,NA,NA,""
"image-keyboard-response",507,445151,"0.0-4.165-0.165","nxp8ky5d8aanw0c",358,"110.csv","","96.59999990463257","resources/trios/L4T4A2.jpg","38","restless",0.1,0.3,0.7,0.500486957865779,"false"
"image-keyboard-response",508,445566,"0.0-4.165-1.165","nxp8ky5d8aanw0c",358,"110.csv","","null","resources/maskTrios/BT4B.jpg","null","",NA,NA,NA,NA,""
"image-keyboard-response",509,446769,"0.0-4.165-2.165","nxp8ky5d8aanw0c",358,"110.csv","","null","resources/images/fishbone.png","null","",NA,NA,NA,NA,""
"image-keyboard-response",510,446785,"0.0-4.166-0.166","nxp8ky5d8aanw0c",358,"110.csv","","15.199999809265137","resources/trios/L4T4A2.jpg","39","restless",0.1,0.3,0.7,0.264567321529497,"true"
"image-keyboard-response",511,447197,"0.0-4.166-1.166","nxp8ky5d8aanw0c",358,"110.csv","","null","resources/maskTrios/BBA2.jpg","null","",NA,NA,NA,NA,""
"image-keyboard-response",512,448411,"0.0-4.166-2.166","nxp8ky5d8aanw0c",358,"110.csv","","null","resources/images/coin2.png","null","",NA,NA,NA,NA,""
"image-keyboard-response",513,448672,"0.0-4.167-0.167","nxp8ky5d8aanw0c",358,"110.csv","","261.19999980926514","resources/trios/L4T4A2.jpg","39","restless",0.1,0.3,0.7,0.795988623158151,"false"
"image-keyboard-response",514,449082,"0.0-4.167-1.167","nxp8ky5d8aanw0c",358,"110.csv","","null","resources/maskTrios/BBA2.jpg","null","",NA,NA,NA,NA,""
"image-keyboard-response",515,450294,"0.0-4.167-2.167","nxp8ky5d8aanw0c",358,"110.csv","","null","resources/images/fishbone.png","null","",NA,NA,NA,NA,""
"image-keyboard-response",516,450625,"0.0-4.168-0.168","nxp8ky5d8aanw0c",358,"110.csv","","330.5","resources/trios/L4T4A2.jpg","37","restless",0.1,0.3,0.7,0.774348905107177,"false"
"image-keyboard-response",517,451038,"0.0-4.168-1.168","nxp8ky5d8aanw0c",358,"110.csv","","null","resources/maskTrios/L4BB.jpg","null","",NA,NA,NA,NA,""
"image-keyboard-response",518,452247,"0.0-4.168-2.168","nxp8ky5d8aanw0c",358,"110.csv","","null","resources/images/fishbone.png","null","",NA,NA,NA,NA,""
"image-keyboard-response",519,452300,"0.0-4.169-0.169","nxp8ky5d8aanw0c",358,"110.csv","","52.299999713897705","resources/trios/L4T4A2.jpg","38","restless",0.1,0.3,0.7,0.713080849966037,"false"
"image-keyboard-response",520,452711,"0.0-4.169-1.169","nxp8ky5d8aanw0c",358,"110.csv","","null","resources/maskTrios/BT4B.jpg","null","",NA,NA,NA,NA,""
"image-keyboard-response",521,453921,"0.0-4.169-2.169","nxp8ky5d8aanw0c",358,"110.csv","","null","resources/images/fishbone.png","null","",NA,NA,NA,NA,""
"image-keyboard-response",522,453955,"0.0-4.170-0.170","nxp8ky5d8aanw0c",358,"110.csv","","32.69999980926514","resources/trios/L4T4A2.jpg","39","restless",0.1,0.3,0.7,0.758480632558243,"false"
"image-keyboard-response",523,454368,"0.0-4.170-1.170","nxp8ky5d8aanw0c",358,"110.csv","","null","resources/maskTrios/BBA2.jpg","null","",NA,NA,NA,NA,""
"image-keyboard-response",524,455581,"0.0-4.170-2.170","nxp8ky5d8aanw0c",358,"110.csv","","null","resources/images/fishbone.png","null","",NA,NA,NA,NA,""
"image-keyboard-response",525,455830,"0.0-4.171-0.171","nxp8ky5d8aanw0c",358,"110.csv","","248.40000009536743","resources/trios/L4T4A2.jpg","37","restless",0.2,0.3,0.7,0.648282768134384,"false"
"image-keyboard-response",526,456234,"0.0-4.171-1.171","nxp8ky5d8aanw0c",358,"110.csv","","null","resources/maskTrios/L4BB.jpg","null","",NA,NA,NA,NA,""
"image-keyboard-response",527,457446,"0.0-4.171-2.171","nxp8ky5d8aanw0c",358,"110.csv","","null","resources/images/fishbone.png","null","",NA,NA,NA,NA,""
"image-keyboard-response",528,457475,"0.0-4.172-0.172","nxp8ky5d8aanw0c",358,"110.csv","","27.90000009536743","resources/trios/L4T4A2.jpg","38","restless",0.2,0.3,0.7,0.255745079830737,"true"
"image-keyboard-response",529,457883,"0.0-4.172-1.172","nxp8ky5d8aanw0c",358,"110.csv","","null","resources/maskTrios/BT4B.jpg","null","",NA,NA,NA,NA,""
"image-keyboard-response",530,459093,"0.0-4.172-2.172","nxp8ky5d8aanw0c",358,"110.csv","","null","resources/images/coin2.png","null","",NA,NA,NA,NA,""
"image-keyboard-response",531,460069,"0.0-4.173-0.173","nxp8ky5d8aanw0c",358,"110.csv","","975.6999998092651","resources/trios/L4T4A2.jpg","38","restless",0.2,0.3,0.6,0.936892016335316,"false"
"image-keyboard-response",532,460473,"0.0-4.173-1.173","nxp8ky5d8aanw0c",358,"110.csv","","null","resources/maskTrios/BT4B.jpg","null","",NA,NA,NA,NA,""
"image-keyboard-response",533,461686,"0.0-4.173-2.173","nxp8ky5d8aanw0c",358,"110.csv","","null","resources/images/fishbone.png","null","",NA,NA,NA,NA,""
"image-keyboard-response",534,462409,"0.0-4.174-0.174","nxp8ky5d8aanw0c",358,"110.csv","","721.5999999046326","resources/trios/L4T4A2.jpg","39","restless",0.2,0.3,0.6,0.536933393702919,"true"
"image-keyboard-response",535,462821,"0.0-4.174-1.174","nxp8ky5d8aanw0c",358,"110.csv","","null","resources/maskTrios/BBA2.jpg","null","",NA,NA,NA,NA,""
"image-keyboard-response",536,464034,"0.0-4.174-2.174","nxp8ky5d8aanw0c",358,"110.csv","","null","resources/images/coin2.png","null","",NA,NA,NA,NA,""
"image-keyboard-response",537,464339,"0.0-4.175-0.175","nxp8ky5d8aanw0c",358,"110.csv","","304.40000009536743","resources/trios/L4T4A2.jpg","39","restless",0.2,0.3,0.6,0.894901701056849,"false"
"image-keyboard-response",538,464744,"0.0-4.175-1.175","nxp8ky5d8aanw0c",358,"110.csv","","null","resources/maskTrios/BBA2.jpg","null","",NA,NA,NA,NA,""
"image-keyboard-response",539,465955,"0.0-4.175-2.175","nxp8ky5d8aanw0c",358,"110.csv","","null","resources/images/fishbone.png","null","",NA,NA,NA,NA,""
"image-keyboard-response",540,466761,"0.0-4.176-0.176","nxp8ky5d8aanw0c",358,"110.csv","","804.6000003814697","resources/trios/L4T4A2.jpg","37","restless",0.2,0.3,0.6,0.382318033012871,"false"
"image-keyboard-response",541,467165,"0.0-4.176-1.176","nxp8ky5d8aanw0c",358,"110.csv","","null","resources/maskTrios/L4BB.jpg","null","",NA,NA,NA,NA,""
"image-keyboard-response",542,468375,"0.0-4.176-2.176","nxp8ky5d8aanw0c",358,"110.csv","","null","resources/images/fishbone.png","null","",NA,NA,NA,NA,""
"image-keyboard-response",543,468504,"0.0-4.177-0.177","nxp8ky5d8aanw0c",358,"110.csv","","128.2999997138977","resources/trios/L4T4A2.jpg","38","restless",0.2,0.3,0.6,0.156732484548289,"true"
"image-keyboard-response",544,468919,"0.0-4.177-1.177","nxp8ky5d8aanw0c",358,"110.csv","","null","resources/maskTrios/BT4B.jpg","null","",NA,NA,NA,NA,""
"image-keyboard-response",545,470133,"0.0-4.177-2.177","nxp8ky5d8aanw0c",358,"110.csv","","null","resources/images/coin2.png","null","",NA,NA,NA,NA,""
"image-keyboard-response",546,470344,"0.0-4.178-0.178","nxp8ky5d8aanw0c",358,"110.csv","","210.40000009536743","resources/trios/L4T4A2.jpg","38","restless",0.2,0.4,0.6,0.459599919231231,"false"
"image-keyboard-response",547,470752,"0.0-4.178-1.178","nxp8ky5d8aanw0c",358,"110.csv","","null","resources/maskTrios/BT4B.jpg","null","",NA,NA,NA,NA,""
"image-keyboard-response",548,471955,"0.0-4.178-2.178","nxp8ky5d8aanw0c",358,"110.csv","","null","resources/images/fishbone.png","null","",NA,NA,NA,NA,""
"image-keyboard-response",549,472395,"0.0-4.179-0.179","nxp8ky5d8aanw0c",358,"110.csv","","439.80000019073486","resources/trios/L4T4A2.jpg","39","restless",0.3,0.5,0.6,0.614606830772321,"false"
"image-keyboard-response",550,472798,"0.0-4.179-1.179","nxp8ky5d8aanw0c",358,"110.csv","","null","resources/maskTrios/BBA2.jpg","null","",NA,NA,NA,NA,""
"image-keyboard-response",551,474003,"0.0-4.179-2.179","nxp8ky5d8aanw0c",358,"110.csv","","null","resources/images/fishbone.png","null","",NA,NA,NA,NA,""
"image-keyboard-response",552,474290,"0.0-4.180-0.180","nxp8ky5d8aanw0c",358,"110.csv","","285.69999980926514","resources/trios/L4T4A2.jpg","37","restless",0.3,0.5,0.6,0.732113943776915,"false"
"image-keyboard-response",553,474697,"0.0-4.180-1.180","nxp8ky5d8aanw0c",358,"110.csv","","null","resources/maskTrios/L4BB.jpg","null","",NA,NA,NA,NA,""
"image-keyboard-response",554,475910,"0.0-4.180-2.180","nxp8ky5d8aanw0c",358,"110.csv","","null","resources/images/fishbone.png","null","",NA,NA,NA,NA,""
"image-keyboard-response",555,476195,"0.0-4.181-0.181","nxp8ky5d8aanw0c",358,"110.csv","","283.6000003814697","resources/trios/L4T4A2.jpg","38","restless",0.3,0.5,0.6,0.867203983651934,"false"
"image-keyboard-response",556,476607,"0.0-4.181-1.181","nxp8ky5d8aanw0c",358,"110.csv","","null","resources/maskTrios/BT4B.jpg","null","",NA,NA,NA,NA,""
"image-keyboard-response",557,477821,"0.0-4.181-2.181","nxp8ky5d8aanw0c",358,"110.csv","","null","resources/images/fishbone.png","null","",NA,NA,NA,NA,""
"image-keyboard-response",558,478055,"0.0-4.182-0.182","nxp8ky5d8aanw0c",358,"110.csv","","233","resources/trios/L4T4A2.jpg","38","restless",0.4,0.6,0.6,0.755130086014589,"false"
"image-keyboard-response",559,478460,"0.0-4.182-1.182","nxp8ky5d8aanw0c",358,"110.csv","","null","resources/maskTrios/BT4B.jpg","null","",NA,NA,NA,NA,""
"image-keyboard-response",560,479670,"0.0-4.182-2.182","nxp8ky5d8aanw0c",358,"110.csv","","null","resources/images/fishbone.png","null","",NA,NA,NA,NA,""
"image-keyboard-response",561,479737,"0.0-4.183-0.183","nxp8ky5d8aanw0c",358,"110.csv","","65.80000019073486","resources/trios/L4T4A2.jpg","37","restless",0.4,0.6,0.6,0.631167041710093,"false"
"image-keyboard-response",562,480148,"0.0-4.183-1.183","nxp8ky5d8aanw0c",358,"110.csv","","null","resources/maskTrios/L4BB.jpg","null","",NA,NA,NA,NA,""
"image-keyboard-response",563,481349,"0.0-4.183-2.183","nxp8ky5d8aanw0c",358,"110.csv","","null","resources/images/fishbone.png","null","",NA,NA,NA,NA,""
"image-keyboard-response",564,481489,"0.0-4.184-0.184","nxp8ky5d8aanw0c",358,"110.csv","","138.59999990463257","resources/trios/L4T4A2.jpg","39","restless",0.4,0.6,0.6,0.889816639284444,"false"
"image-keyboard-response",565,481896,"0.0-4.184-1.184","nxp8ky5d8aanw0c",358,"110.csv","","null","resources/maskTrios/BBA2.jpg","null","",NA,NA,NA,NA,""
"image-keyboard-response",566,483105,"0.0-4.184-2.184","nxp8ky5d8aanw0c",358,"110.csv","","null","resources/images/fishbone.png","null","",NA,NA,NA,NA,""
"image-keyboard-response",567,483806,"0.0-4.185-0.185","nxp8ky5d8aanw0c",358,"110.csv","","700","resources/trios/L4T4A2.jpg","39","restless",0.4,0.6,0.6,0.857745492569729,"false"
"image-keyboard-response",568,484221,"0.0-4.185-1.185","nxp8ky5d8aanw0c",358,"110.csv","","null","resources/maskTrios/BBA2.jpg","null","",NA,NA,NA,NA,""
"image-keyboard-response",569,485437,"0.0-4.185-2.185","nxp8ky5d8aanw0c",358,"110.csv","","null","resources/images/fishbone.png","null","",NA,NA,NA,NA,""
"image-keyboard-response",570,485799,"0.0-4.186-0.186","nxp8ky5d8aanw0c",358,"110.csv","","361.59999990463257","resources/trios/L4T4A2.jpg","39","restless",0.4,0.6,0.6,0.575287162876687,"true"
"image-keyboard-response",571,486208,"0.0-4.186-1.186","nxp8ky5d8aanw0c",358,"110.csv","","null","resources/maskTrios/BBA2.jpg","null","",NA,NA,NA,NA,""
"image-keyboard-response",572,487415,"0.0-4.186-2.186","nxp8ky5d8aanw0c",358,"110.csv","","null","resources/images/coin2.png","null","",NA,NA,NA,NA,""
"image-keyboard-response",573,487465,"0.0-4.187-0.187","nxp8ky5d8aanw0c",358,"110.csv","","49.59999990463257","resources/trios/L4T4A2.jpg","39","restless",0.4,0.6,0.6,0.746221109230707,"false"
"image-keyboard-response",574,487879,"0.0-4.187-1.187","nxp8ky5d8aanw0c",358,"110.csv","","null","resources/maskTrios/BBA2.jpg","null","",NA,NA,NA,NA,""
"image-keyboard-response",575,489090,"0.0-4.187-2.187","nxp8ky5d8aanw0c",358,"110.csv","","null","resources/images/fishbone.png","null","",NA,NA,NA,NA,""
"image-keyboard-response",576,489302,"0.0-4.188-0.188","nxp8ky5d8aanw0c",358,"110.csv","","211.40000009536743","resources/trios/L4T4A2.jpg","37","restless",0.4,0.6,0.6,0.747256486351574,"false"
"image-keyboard-response",577,489708,"0.0-4.188-1.188","nxp8ky5d8aanw0c",358,"110.csv","","null","resources/maskTrios/L4BB.jpg","null","",NA,NA,NA,NA,""
"image-keyboard-response",578,490913,"0.0-4.188-2.188","nxp8ky5d8aanw0c",358,"110.csv","","null","resources/images/fishbone.png","null","",NA,NA,NA,NA,""
"image-keyboard-response",579,491264,"0.0-4.189-0.189","nxp8ky5d8aanw0c",358,"110.csv","","350.2999997138977","resources/trios/L4T4A2.jpg","38","restless",0.4,0.6,0.6,0.865075266888539,"false"
"image-keyboard-response",580,491674,"0.0-4.189-1.189","nxp8ky5d8aanw0c",358,"110.csv","","null","resources/maskTrios/BT4B.jpg","null","",NA,NA,NA,NA,""
"image-keyboard-response",581,492882,"0.0-4.189-2.189","nxp8ky5d8aanw0c",358,"110.csv","","null","resources/images/fishbone.png","null","",NA,NA,NA,NA,""
"image-keyboard-response",582,493883,"0.0-4.190-0.190","nxp8ky5d8aanw0c",358,"110.csv","","1000.1999998092651","resources/trios/L4T4A2.jpg","39","restless",0.4,0.6,0.6,0.37210343032571,"true"
"image-keyboard-response",583,494293,"0.0-4.190-1.190","nxp8ky5d8aanw0c",358,"110.csv","","null","resources/maskTrios/BBA2.jpg","null","",NA,NA,NA,NA,""
"image-keyboard-response",584,495496,"0.0-4.190-2.190","nxp8ky5d8aanw0c",358,"110.csv","","null","resources/images/coin2.png","null","",NA,NA,NA,NA,""
"image-keyboard-response",585,495749,"0.0-4.191-0.191","nxp8ky5d8aanw0c",358,"110.csv","","251.7000002861023","resources/trios/L4T4A2.jpg","39","restless",0.4,0.6,0.6,0.380147030070717,"true"
"image-keyboard-response",586,496164,"0.0-4.191-1.191","nxp8ky5d8aanw0c",358,"110.csv","","null","resources/maskTrios/BBA2.jpg","null","",NA,NA,NA,NA,""
"image-keyboard-response",587,497371,"0.0-4.191-2.191","nxp8ky5d8aanw0c",358,"110.csv","","null","resources/images/coin2.png","null","",NA,NA,NA,NA,""
"image-keyboard-response",588,497775,"0.0-4.192-0.192","nxp8ky5d8aanw0c",358,"110.csv","","403.80000019073486","resources/trios/L4T4A2.jpg","39","restless",0.4,0.6,0.6,0.986864910764756,"false"
"image-keyboard-response",589,498193,"0.0-4.192-1.192","nxp8ky5d8aanw0c",358,"110.csv","","null","resources/maskTrios/BBA2.jpg","null","",NA,NA,NA,NA,""
"image-keyboard-response",590,499398,"0.0-4.192-2.192","nxp8ky5d8aanw0c",358,"110.csv","","null","resources/images/fishbone.png","null","",NA,NA,NA,NA,""
"image-keyboard-response",591,500273,"0.0-4.193-0.193","nxp8ky5d8aanw0c",358,"110.csv","","873.6000003814697","resources/trios/L4T4A2.jpg","39","restless",0.4,0.6,0.6,0.974945046670204,"false"
"image-keyboard-response",592,500687,"0.0-4.193-1.193","nxp8ky5d8aanw0c",358,"110.csv","","null","resources/maskTrios/BBA2.jpg","null","",NA,NA,NA,NA,""
"image-keyboard-response",593,501896,"0.0-4.193-2.193","nxp8ky5d8aanw0c",358,"110.csv","","null","resources/images/fishbone.png","null","",NA,NA,NA,NA,""
"image-keyboard-response",594,502099,"0.0-4.194-0.194","nxp8ky5d8aanw0c",358,"110.csv","","202.40000009536743","resources/trios/L4T4A2.jpg","37","restless",0.4,0.6,0.6,0.538035822514306,"false"
"image-keyboard-response",595,502504,"0.0-4.194-1.194","nxp8ky5d8aanw0c",358,"110.csv","","null","resources/maskTrios/L4BB.jpg","null","",NA,NA,NA,NA,""
"image-keyboard-response",596,503714,"0.0-4.194-2.194","nxp8ky5d8aanw0c",358,"110.csv","","null","resources/images/fishbone.png","null","",NA,NA,NA,NA,""
"image-keyboard-response",597,503753,"0.0-4.195-0.195","nxp8ky5d8aanw0c",358,"110.csv","","37.30000019073486","resources/trios/L4T4A2.jpg","38","restless",0.4,0.6,0.6,0.233128668899647,"true"
"image-keyboard-response",598,504165,"0.0-4.195-1.195","nxp8ky5d8aanw0c",358,"110.csv","","null","resources/maskTrios/BT4B.jpg","null","",NA,NA,NA,NA,""
"image-keyboard-response",599,505379,"0.0-4.195-2.195","nxp8ky5d8aanw0c",358,"110.csv","","null","resources/images/coin2.png","null","",NA,NA,NA,NA,""
"image-keyboard-response",600,505878,"0.0-4.196-0.196","nxp8ky5d8aanw0c",358,"110.csv","","499","resources/trios/L4T4A2.jpg","38","restless",0.4,0.7,0.5,0.639276778563296,"true"
"image-keyboard-response",601,506291,"0.0-4.196-1.196","nxp8ky5d8aanw0c",358,"110.csv","","null","resources/maskTrios/BT4B.jpg","null","",NA,NA,NA,NA,""
"image-keyboard-response",602,507497,"0.0-4.196-2.196","nxp8ky5d8aanw0c",358,"110.csv","","null","resources/images/coin2.png","null","",NA,NA,NA,NA,""
"image-keyboard-response",603,507915,"0.0-4.197-0.197","nxp8ky5d8aanw0c",358,"110.csv","","416.69999980926514","resources/trios/L4T4A2.jpg","38","restless",0.4,0.7,0.5,0.104389407925147,"true"
"image-keyboard-response",604,508320,"0.0-4.197-1.197","nxp8ky5d8aanw0c",358,"110.csv","","null","resources/maskTrios/BT4B.jpg","null","",NA,NA,NA,NA,""
"image-keyboard-response",605,509527,"0.0-4.197-2.197","nxp8ky5d8aanw0c",358,"110.csv","","null","resources/images/coin2.png","null","",NA,NA,NA,NA,""
"image-keyboard-response",606,510082,"0.0-4.198-0.198","nxp8ky5d8aanw0c",358,"110.csv","","554.3000001907349","resources/trios/L4T4A2.jpg","38","restless",0.5,0.7,0.5,0.411545812856678,"true"
"image-keyboard-response",607,510490,"0.0-4.198-1.198","nxp8ky5d8aanw0c",358,"110.csv","","null","resources/maskTrios/BT4B.jpg","null","",NA,NA,NA,NA,""
