"trial_type","trial_index","time_elapsed","internal_node_id","subject","participantCode","walkNumber","success","rt","stimulus","key_press","test_part","leftProb","midProb","rightProb","generatedNum","correct"
"pavlovia",0,1002,"0.0-0.0","3pvqvuz9hfwum7v",873,"60.csv","","","","","",NA,NA,NA,NA,""
"fullscreen",1,3989,"0.0-1.0","3pvqvuz9hfwum7v",873,"60.csv","true","","","","",NA,NA,NA,NA,""
"survey-html-form",2,10947,"0.0-2.0","3pvqvuz9hfwum7v",873,"60.csv","","6956.299999952316","","","",NA,NA,NA,NA,""
"image-keyboard-response",3,14484,"0.0-3.0-0.0","3pvqvuz9hfwum7v",873,"60.csv","","3536.2000000476837","resources/images/parrot_nobg.png","13","",NA,NA,NA,NA,""
"image-keyboard-response",4,17498,"0.0-3.0-1.0","3pvqvuz9hfwum7v",873,"60.csv","","null","resources/image_sets/111.png","null","",NA,NA,NA,NA,""
"image-keyboard-response",5,20500,"0.0-3.0-2.0","3pvqvuz9hfwum7v",873,"60.csv","","3001.2000000476837","resources/image_sets/left_highlight.png","37","",NA,NA,NA,NA,""
"image-keyboard-response",6,22052,"0.0-3.0-3.0","3pvqvuz9hfwum7v",873,"60.csv","","1551.0999999046326","resources/image_sets/mid_highlight.png","38","",NA,NA,NA,NA,""
"image-keyboard-response",7,23412,"0.0-3.0-4.0","3pvqvuz9hfwum7v",873,"60.csv","","1359.2999999523163","resources/image_sets/right_highlight.png","39","",NA,NA,NA,NA,""
"image-keyboard-response",8,25812,"0.0-3.0-5.0","3pvqvuz9hfwum7v",873,"60.csv","","2400","resources/image_sets/111.png","13","",NA,NA,NA,NA,""
"image-keyboard-response",9,27492,"0.0-3.0-6.0","3pvqvuz9hfwum7v",873,"60.csv","","1679.4000000953674","resources/images/coin2.png","13","",NA,NA,NA,NA,""
"image-keyboard-response",10,29196,"0.0-3.0-7.0","3pvqvuz9hfwum7v",873,"60.csv","","1703.3999998569489","resources/images/fishbone.png","13","",NA,NA,NA,NA,""
"html-keyboard-response",11,31260,"0.0-3.0-8.0","3pvqvuz9hfwum7v",873,"60.csv","","2063.5","<p>You can track your coin total on the top right of your screen. </p><p>At the end of your journey you will be directed to a survey, so please click on the link before exiting the task</p><p>Press Enter to begin</p>","13","",NA,NA,NA,NA,""
"image-keyboard-response",12,34293,"0.0-4.0-0.0","3pvqvuz9hfwum7v",873,"60.csv","","3032.0999999046326","resources/trios/L1T4A3.jpg","38","restless",0.7,0.9,0.3,0.898043888771376,"true"
"image-keyboard-response",13,34709,"0.0-4.0-1.0","3pvqvuz9hfwum7v",873,"60.csv","","null","resources/maskTrios/BT4B.jpg","null","",NA,NA,NA,NA,""
"image-keyboard-response",14,35924,"0.0-4.0-2.0","3pvqvuz9hfwum7v",873,"60.csv","","null","resources/images/coin2.png","null","",NA,NA,NA,NA,""
"image-keyboard-response",15,37262,"0.0-4.1-0.1","3pvqvuz9hfwum7v",873,"60.csv","","1335.7999999523163","resources/trios/L1T4A3.jpg","38","restless",0.7,0.9,0.3,0.00571719103583401,"true"
"image-keyboard-response",16,37666,"0.0-4.1-1.1","3pvqvuz9hfwum7v",873,"60.csv","","null","resources/maskTrios/BT4B.jpg","null","",NA,NA,NA,NA,""
"image-keyboard-response",17,38880,"0.0-4.1-2.1","3pvqvuz9hfwum7v",873,"60.csv","","null","resources/images/coin2.png","null","",NA,NA,NA,NA,""
"image-keyboard-response",18,39549,"0.0-4.2-0.2","3pvqvuz9hfwum7v",873,"60.csv","","667.5","resources/trios/L1T4A3.jpg","38","restless",0.7,0.9,0.3,0.151569001183525,"true"
"image-keyboard-response",19,39955,"0.0-4.2-1.2","3pvqvuz9hfwum7v",873,"60.csv","","null","resources/maskTrios/BT4B.jpg","null","",NA,NA,NA,NA,""
"image-keyboard-response",20,41169,"0.0-4.2-2.2","3pvqvuz9hfwum7v",873,"60.csv","","null","resources/images/coin2.png","null","",NA,NA,NA,NA,""
"image-keyboard-response",21,41630,"0.0-4.3-0.3","3pvqvuz9hfwum7v",873,"60.csv","","459.7999999523163","resources/trios/L1T4A3.jpg","38","restless",0.7,0.9,0.3,0.324469175272606,"true"
"image-keyboard-response",22,42034,"0.0-4.3-1.3","3pvqvuz9hfwum7v",873,"60.csv","","null","resources/maskTrios/BT4B.jpg","null","",NA,NA,NA,NA,""
"image-keyboard-response",23,43249,"0.0-4.3-2.3","3pvqvuz9hfwum7v",873,"60.csv","","null","resources/images/coin2.png","null","",NA,NA,NA,NA,""
"image-keyboard-response",24,44261,"0.0-4.4-0.4","3pvqvuz9hfwum7v",873,"60.csv","","1010.5","resources/trios/L1T4A3.jpg","38","restless",0.8,0.9,0.4,0.532917513193647,"true"
"image-keyboard-response",25,44666,"0.0-4.4-1.4","3pvqvuz9hfwum7v",873,"60.csv","","null","resources/maskTrios/BT4B.jpg","null","",NA,NA,NA,NA,""
"image-keyboard-response",26,45876,"0.0-4.4-2.4","3pvqvuz9hfwum7v",873,"60.csv","","null","resources/images/coin2.png","null","",NA,NA,NA,NA,""
"image-keyboard-response",27,46284,"0.0-4.5-0.5","3pvqvuz9hfwum7v",873,"60.csv","","405.90000009536743","resources/trios/L1T4A3.jpg","38","restless",0.8,0.9,0.4,0.121264747699323,"true"
"image-keyboard-response",28,46699,"0.0-4.5-1.5","3pvqvuz9hfwum7v",873,"60.csv","","null","resources/maskTrios/BT4B.jpg","null","",NA,NA,NA,NA,""
"image-keyboard-response",29,47912,"0.0-4.5-2.5","3pvqvuz9hfwum7v",873,"60.csv","","null","resources/images/coin2.png","null","",NA,NA,NA,NA,""
"image-keyboard-response",30,48428,"0.0-4.6-0.6","3pvqvuz9hfwum7v",873,"60.csv","","514.4000000953674","resources/trios/L1T4A3.jpg","38","restless",0.9,0.8,0.4,0.968023507372914,"false"
"image-keyboard-response",31,48841,"0.0-4.6-1.6","3pvqvuz9hfwum7v",873,"60.csv","","null","resources/maskTrios/BT4B.jpg","null","",NA,NA,NA,NA,""
"image-keyboard-response",32,50055,"0.0-4.6-2.6","3pvqvuz9hfwum7v",873,"60.csv","","null","resources/images/fishbone.png","null","",NA,NA,NA,NA,""
"image-keyboard-response",33,50501,"0.0-4.7-0.7","3pvqvuz9hfwum7v",873,"60.csv","","444.59999990463257","resources/trios/L1T4A3.jpg","39","restless",0.9,0.8,0.4,0.717735724692783,"false"
"image-keyboard-response",34,50908,"0.0-4.7-1.7","3pvqvuz9hfwum7v",873,"60.csv","","null","resources/maskTrios/BBA3.jpg","null","",NA,NA,NA,NA,""
"image-keyboard-response",35,52118,"0.0-4.7-2.7","3pvqvuz9hfwum7v",873,"60.csv","","null","resources/images/fishbone.png","null","",NA,NA,NA,NA,""
"image-keyboard-response",36,52485,"0.0-4.8-0.8","3pvqvuz9hfwum7v",873,"60.csv","","366.39999985694885","resources/trios/L1T4A3.jpg","39","restless",0.9,0.8,0.4,0.832411148647328,"false"
"image-keyboard-response",37,52896,"0.0-4.8-1.8","3pvqvuz9hfwum7v",873,"60.csv","","null","resources/maskTrios/BBA3.jpg","null","",NA,NA,NA,NA,""
"image-keyboard-response",38,54100,"0.0-4.8-2.8","3pvqvuz9hfwum7v",873,"60.csv","","null","resources/images/fishbone.png","null","",NA,NA,NA,NA,""
"image-keyboard-response",39,54357,"0.0-4.9-0.9","3pvqvuz9hfwum7v",873,"60.csv","","256.30000019073486","resources/trios/L1T4A3.jpg","37","restless",0.9,0.8,0.4,0.274892599025662,"true"
"image-keyboard-response",40,54763,"0.0-4.9-1.9","3pvqvuz9hfwum7v",873,"60.csv","","null","resources/maskTrios/L1BB.jpg","null","",NA,NA,NA,NA,""
"image-keyboard-response",41,55975,"0.0-4.9-2.9","3pvqvuz9hfwum7v",873,"60.csv","","null","resources/images/coin2.png","null","",NA,NA,NA,NA,""
"image-keyboard-response",42,56228,"0.0-4.10-0.10","3pvqvuz9hfwum7v",873,"60.csv","","250.90000009536743","resources/trios/L1T4A3.jpg","37","restless",0.9,0.8,0.4,0.940429074803309,"false"
"image-keyboard-response",43,56642,"0.0-4.10-1.10","3pvqvuz9hfwum7v",873,"60.csv","","null","resources/maskTrios/L1BB.jpg","null","",NA,NA,NA,NA,""
"image-keyboard-response",44,57854,"0.0-4.10-2.10","3pvqvuz9hfwum7v",873,"60.csv","","null","resources/images/fishbone.png","null","",NA,NA,NA,NA,""
"image-keyboard-response",45,58165,"0.0-4.11-0.11","3pvqvuz9hfwum7v",873,"60.csv","","309.2000000476837","resources/trios/L1T4A3.jpg","39","restless",0.9,0.8,0.4,0.634568252971636,"false"
"image-keyboard-response",46,58570,"0.0-4.11-1.11","3pvqvuz9hfwum7v",873,"60.csv","","null","resources/maskTrios/BBA3.jpg","null","",NA,NA,NA,NA,""
"image-keyboard-response",47,59783,"0.0-4.11-2.11","3pvqvuz9hfwum7v",873,"60.csv","","null","resources/images/fishbone.png","null","",NA,NA,NA,NA,""
"image-keyboard-response",48,60061,"0.0-4.12-0.12","3pvqvuz9hfwum7v",873,"60.csv","","276.59999990463257","resources/trios/L1T4A3.jpg","37","restless",0.8,0.8,0.4,0.750715011760484,"true"
"image-keyboard-response",49,60466,"0.0-4.12-1.12","3pvqvuz9hfwum7v",873,"60.csv","","null","resources/maskTrios/L1BB.jpg","null","",NA,NA,NA,NA,""
"image-keyboard-response",50,61684,"0.0-4.12-2.12","3pvqvuz9hfwum7v",873,"60.csv","","null","resources/images/coin2.png","null","",NA,NA,NA,NA,""
"image-keyboard-response",51,61997,"0.0-4.13-0.13","3pvqvuz9hfwum7v",873,"60.csv","","311.2999999523163","resources/trios/L1T4A3.jpg","37","restless",0.8,0.8,0.4,0.866292530443788,"false"
"image-keyboard-response",52,62412,"0.0-4.13-1.13","3pvqvuz9hfwum7v",873,"60.csv","","null","resources/maskTrios/L1BB.jpg","null","",NA,NA,NA,NA,""
"image-keyboard-response",53,63625,"0.0-4.13-2.13","3pvqvuz9hfwum7v",873,"60.csv","","null","resources/images/fishbone.png","null","",NA,NA,NA,NA,""
"image-keyboard-response",54,63813,"0.0-4.14-0.14","3pvqvuz9hfwum7v",873,"60.csv","","186.29999995231628","resources/trios/L1T4A3.jpg","37","restless",0.7,0.8,0.5,0.993493220253403,"false"
"image-keyboard-response",55,64224,"0.0-4.14-1.14","3pvqvuz9hfwum7v",873,"60.csv","","null","resources/maskTrios/L1BB.jpg","null","",NA,NA,NA,NA,""
"image-keyboard-response",56,65430,"0.0-4.14-2.14","3pvqvuz9hfwum7v",873,"60.csv","","null","resources/images/fishbone.png","null","",NA,NA,NA,NA,""
"image-keyboard-response",57,65964,"0.0-4.15-0.15","3pvqvuz9hfwum7v",873,"60.csv","","531.8999998569489","resources/trios/L1T4A3.jpg","39","restless",0.7,0.8,0.5,0.551764820316842,"false"
"image-keyboard-response",58,66376,"0.0-4.15-1.15","3pvqvuz9hfwum7v",873,"60.csv","","null","resources/maskTrios/BBA3.jpg","null","",NA,NA,NA,NA,""
"image-keyboard-response",59,67585,"0.0-4.15-2.15","3pvqvuz9hfwum7v",873,"60.csv","","null","resources/images/fishbone.png","null","",NA,NA,NA,NA,""
"image-keyboard-response",60,67877,"0.0-4.16-0.16","3pvqvuz9hfwum7v",873,"60.csv","","289.90000009536743","resources/trios/L1T4A3.jpg","38","restless",0.7,0.8,0.5,0.0922204153891222,"true"
"image-keyboard-response",61,68280,"0.0-4.16-1.16","3pvqvuz9hfwum7v",873,"60.csv","","null","resources/maskTrios/BT4B.jpg","null","",NA,NA,NA,NA,""
"image-keyboard-response",62,69490,"0.0-4.16-2.16","3pvqvuz9hfwum7v",873,"60.csv","","null","resources/images/coin2.png","null","",NA,NA,NA,NA,""
"image-keyboard-response",63,69814,"0.0-4.17-0.17","3pvqvuz9hfwum7v",873,"60.csv","","321.69999980926514","resources/trios/L1T4A3.jpg","38","restless",0.7,0.8,0.5,0.588479832269991,"true"
"image-keyboard-response",64,70232,"0.0-4.17-1.17","3pvqvuz9hfwum7v",873,"60.csv","","null","resources/maskTrios/BT4B.jpg","null","",NA,NA,NA,NA,""
"image-keyboard-response",65,71448,"0.0-4.17-2.17","3pvqvuz9hfwum7v",873,"60.csv","","null","resources/images/coin2.png","null","",NA,NA,NA,NA,""
"image-keyboard-response",66,71659,"0.0-4.18-0.18","3pvqvuz9hfwum7v",873,"60.csv","","209.20000004768372","resources/trios/L1T4A3.jpg","38","restless",0.7,0.8,0.5,0.25179338900511,"true"
"image-keyboard-response",67,72072,"0.0-4.18-1.18","3pvqvuz9hfwum7v",873,"60.csv","","null","resources/maskTrios/BT4B.jpg","null","",NA,NA,NA,NA,""
"image-keyboard-response",68,73285,"0.0-4.18-2.18","3pvqvuz9hfwum7v",873,"60.csv","","null","resources/images/coin2.png","null","",NA,NA,NA,NA,""
"image-keyboard-response",69,73813,"0.0-4.19-0.19","3pvqvuz9hfwum7v",873,"60.csv","","527.7999999523163","resources/trios/L1T4A3.jpg","38","restless",0.6,0.8,0.5,0.999739156650493,"false"
"image-keyboard-response",70,74217,"0.0-4.19-1.19","3pvqvuz9hfwum7v",873,"60.csv","","null","resources/maskTrios/BT4B.jpg","null","",NA,NA,NA,NA,""
"image-keyboard-response",71,75433,"0.0-4.19-2.19","3pvqvuz9hfwum7v",873,"60.csv","","null","resources/images/fishbone.png","null","",NA,NA,NA,NA,""
"image-keyboard-response",72,75684,"0.0-4.20-0.20","3pvqvuz9hfwum7v",873,"60.csv","","250.39999985694885","resources/trios/L1T4A3.jpg","37","restless",0.6,0.8,0.5,0.403691028690261,"true"
"image-keyboard-response",73,76098,"0.0-4.20-1.20","3pvqvuz9hfwum7v",873,"60.csv","","null","resources/maskTrios/L1BB.jpg","null","",NA,NA,NA,NA,""
"image-keyboard-response",74,77308,"0.0-4.20-2.20","3pvqvuz9hfwum7v",873,"60.csv","","null","resources/images/coin2.png","null","",NA,NA,NA,NA,""
"image-keyboard-response",75,77581,"0.0-4.21-0.21","3pvqvuz9hfwum7v",873,"60.csv","","271.90000009536743","resources/trios/L1T4A3.jpg","39","restless",0.6,0.8,0.5,0.0776019437274449,"true"
"image-keyboard-response",76,77989,"0.0-4.21-1.21","3pvqvuz9hfwum7v",873,"60.csv","","null","resources/maskTrios/BBA3.jpg","null","",NA,NA,NA,NA,""
"image-keyboard-response",77,79199,"0.0-4.21-2.21","3pvqvuz9hfwum7v",873,"60.csv","","null","resources/images/coin2.png","null","",NA,NA,NA,NA,""
"image-keyboard-response",78,79604,"0.0-4.22-0.22","3pvqvuz9hfwum7v",873,"60.csv","","403.39999985694885","resources/trios/L1T4A3.jpg","39","restless",0.6,0.8,0.5,0.395191408321686,"true"
"image-keyboard-response",79,80005,"0.0-4.22-1.22","3pvqvuz9hfwum7v",873,"60.csv","","null","resources/maskTrios/BBA3.jpg","null","",NA,NA,NA,NA,""
"image-keyboard-response",80,81218,"0.0-4.22-2.22","3pvqvuz9hfwum7v",873,"60.csv","","null","resources/images/coin2.png","null","",NA,NA,NA,NA,""
"image-keyboard-response",81,81476,"0.0-4.23-0.23","3pvqvuz9hfwum7v",873,"60.csv","","256.30000019073486","resources/trios/L1T4A3.jpg","39","restless",0.6,0.7,0.5,0.90189065016956,"false"
"image-keyboard-response",82,81878,"0.0-4.23-1.23","3pvqvuz9hfwum7v",873,"60.csv","","null","resources/maskTrios/BBA3.jpg","null","",NA,NA,NA,NA,""
"image-keyboard-response",83,83091,"0.0-4.23-2.23","3pvqvuz9hfwum7v",873,"60.csv","","null","resources/images/fishbone.png","null","",NA,NA,NA,NA,""
"image-keyboard-response",84,83333,"0.0-4.24-0.24","3pvqvuz9hfwum7v",873,"60.csv","","240.79999995231628","resources/trios/L1T4A3.jpg","37","restless",0.5,0.7,0.5,0.287985471482997,"true"
"image-keyboard-response",85,83741,"0.0-4.24-1.24","3pvqvuz9hfwum7v",873,"60.csv","","null","resources/maskTrios/L1BB.jpg","null","",NA,NA,NA,NA,""
"image-keyboard-response",86,84943,"0.0-4.24-2.24","3pvqvuz9hfwum7v",873,"60.csv","","null","resources/images/coin2.png","null","",NA,NA,NA,NA,""
"image-keyboard-response",87,85205,"0.0-4.25-0.25","3pvqvuz9hfwum7v",873,"60.csv","","260.09999990463257","resources/trios/L1T4A3.jpg","37","restless",0.5,0.7,0.5,0.993233915830898,"false"
"image-keyboard-response",88,85610,"0.0-4.25-1.25","3pvqvuz9hfwum7v",873,"60.csv","","null","resources/maskTrios/L1BB.jpg","null","",NA,NA,NA,NA,""
"image-keyboard-response",89,86821,"0.0-4.25-2.25","3pvqvuz9hfwum7v",873,"60.csv","","null","resources/images/fishbone.png","null","",NA,NA,NA,NA,""
"image-keyboard-response",90,87062,"0.0-4.26-0.26","3pvqvuz9hfwum7v",873,"60.csv","","240.09999990463257","resources/trios/L1T4A3.jpg","38","restless",0.5,0.7,0.5,0.0393677150521259,"true"
"image-keyboard-response",91,87472,"0.0-4.26-1.26","3pvqvuz9hfwum7v",873,"60.csv","","null","resources/maskTrios/BT4B.jpg","null","",NA,NA,NA,NA,""
"image-keyboard-response",92,88675,"0.0-4.26-2.26","3pvqvuz9hfwum7v",873,"60.csv","","null","resources/images/coin2.png","null","",NA,NA,NA,NA,""
"image-keyboard-response",93,88789,"0.0-4.27-0.27","3pvqvuz9hfwum7v",873,"60.csv","","112.40000009536743","resources/trios/L1T4A3.jpg","38","restless",0.5,0.7,0.5,0.920101822177636,"false"
"image-keyboard-response",94,89206,"0.0-4.27-1.27","3pvqvuz9hfwum7v",873,"60.csv","","null","resources/maskTrios/BT4B.jpg","null","",NA,NA,NA,NA,""
"image-keyboard-response",95,90421,"0.0-4.27-2.27","3pvqvuz9hfwum7v",873,"60.csv","","null","resources/images/fishbone.png","null","",NA,NA,NA,NA,""
"image-keyboard-response",96,91580,"0.0-4.28-0.28","3pvqvuz9hfwum7v",873,"60.csv","","1157","resources/trios/L1T4A3.jpg","37","restless",0.4,0.7,0.4,0.0781450148629483,"true"
"image-keyboard-response",97,91989,"0.0-4.28-1.28","3pvqvuz9hfwum7v",873,"60.csv","","null","resources/maskTrios/L1BB.jpg","null","",NA,NA,NA,NA,""
"image-keyboard-response",98,93206,"0.0-4.28-2.28","3pvqvuz9hfwum7v",873,"60.csv","","null","resources/images/coin2.png","null","",NA,NA,NA,NA,""
"image-keyboard-response",99,93493,"0.0-4.29-0.29","3pvqvuz9hfwum7v",873,"60.csv","","285.90000009536743","resources/trios/L1T4A3.jpg","37","restless",0.3,0.7,0.5,0.762585050293829,"false"
"image-keyboard-response",100,93904,"0.0-4.29-1.29","3pvqvuz9hfwum7v",873,"60.csv","","null","resources/maskTrios/L1BB.jpg","null","",NA,NA,NA,NA,""
"image-keyboard-response",101,95117,"0.0-4.29-2.29","3pvqvuz9hfwum7v",873,"60.csv","","null","resources/images/fishbone.png","null","",NA,NA,NA,NA,""
"image-keyboard-response",102,95492,"0.0-4.30-0.30","3pvqvuz9hfwum7v",873,"60.csv","","372.7000000476837","resources/trios/L1T4A3.jpg","38","restless",0.3,0.7,0.5,0.0908197846822338,"true"
"image-keyboard-response",103,95895,"0.0-4.30-1.30","3pvqvuz9hfwum7v",873,"60.csv","","null","resources/maskTrios/BT4B.jpg","null","",NA,NA,NA,NA,""
"image-keyboard-response",104,97109,"0.0-4.30-2.30","3pvqvuz9hfwum7v",873,"60.csv","","null","resources/images/coin2.png","null","",NA,NA,NA,NA,""
"image-keyboard-response",105,97462,"0.0-4.31-0.31","3pvqvuz9hfwum7v",873,"60.csv","","350.89999985694885","resources/trios/L1T4A3.jpg","39","restless",0.3,0.7,0.5,0.91800774856402,"false"
"image-keyboard-response",106,97874,"0.0-4.31-1.31","3pvqvuz9hfwum7v",873,"60.csv","","null","resources/maskTrios/BBA3.jpg","null","",NA,NA,NA,NA,""
"image-keyboard-response",107,99090,"0.0-4.31-2.31","3pvqvuz9hfwum7v",873,"60.csv","","null","resources/images/fishbone.png","null","",NA,NA,NA,NA,""
"image-keyboard-response",108,99349,"0.0-4.32-0.32","3pvqvuz9hfwum7v",873,"60.csv","","258.30000019073486","resources/trios/L1T4A3.jpg","37","restless",0.3,0.7,0.6,0.886703353456961,"false"
"image-keyboard-response",109,99761,"0.0-4.32-1.32","3pvqvuz9hfwum7v",873,"60.csv","","null","resources/maskTrios/L1BB.jpg","null","",NA,NA,NA,NA,""
"image-keyboard-response",110,100973,"0.0-4.32-2.32","3pvqvuz9hfwum7v",873,"60.csv","","null","resources/images/fishbone.png","null","",NA,NA,NA,NA,""
"image-keyboard-response",111,101060,"0.0-4.33-0.33","3pvqvuz9hfwum7v",873,"60.csv","","85.29999995231628","resources/trios/L1T4A3.jpg","38","restless",0.3,0.7,0.6,0.638199825629855,"true"
"image-keyboard-response",112,101471,"0.0-4.33-1.33","3pvqvuz9hfwum7v",873,"60.csv","","null","resources/maskTrios/BT4B.jpg","null","",NA,NA,NA,NA,""
"image-keyboard-response",113,102675,"0.0-4.33-2.33","3pvqvuz9hfwum7v",873,"60.csv","","null","resources/images/coin2.png","null","",NA,NA,NA,NA,""
"image-keyboard-response",114,103253,"0.0-4.34-0.34","3pvqvuz9hfwum7v",873,"60.csv","","575.7000000476837","resources/trios/L1T4A3.jpg","38","restless",0.3,0.7,0.6,0.54692453839022,"true"
"image-keyboard-response",115,103668,"0.0-4.34-1.34","3pvqvuz9hfwum7v",873,"60.csv","","null","resources/maskTrios/BT4B.jpg","null","",NA,NA,NA,NA,""
"image-keyboard-response",116,104883,"0.0-4.34-2.34","3pvqvuz9hfwum7v",873,"60.csv","","null","resources/images/coin2.png","null","",NA,NA,NA,NA,""
"image-keyboard-response",117,105356,"0.0-4.35-0.35","3pvqvuz9hfwum7v",873,"60.csv","","471.09999990463257","resources/trios/L1T4A3.jpg","38","restless",0.3,0.7,0.6,0.859953521059691,"false"
"image-keyboard-response",118,105766,"0.0-4.35-1.35","3pvqvuz9hfwum7v",873,"60.csv","","null","resources/maskTrios/BT4B.jpg","null","",NA,NA,NA,NA,""
"image-keyboard-response",119,106968,"0.0-4.35-2.35","3pvqvuz9hfwum7v",873,"60.csv","","null","resources/images/fishbone.png","null","",NA,NA,NA,NA,""
"image-keyboard-response",120,107188,"0.0-4.36-0.36","3pvqvuz9hfwum7v",873,"60.csv","","218.5","resources/trios/L1T4A3.jpg","39","restless",0.3,0.7,0.6,0.368348006642987,"true"
"image-keyboard-response",121,107591,"0.0-4.36-1.36","3pvqvuz9hfwum7v",873,"60.csv","","null","resources/maskTrios/BBA3.jpg","null","",NA,NA,NA,NA,""
"image-keyboard-response",122,108798,"0.0-4.36-2.36","3pvqvuz9hfwum7v",873,"60.csv","","null","resources/images/coin2.png","null","",NA,NA,NA,NA,""
"image-keyboard-response",123,109102,"0.0-4.37-0.37","3pvqvuz9hfwum7v",873,"60.csv","","301.60000014305115","resources/trios/L1T4A3.jpg","39","restless",0.3,0.6,0.6,0.070955162810121,"true"
"image-keyboard-response",124,109514,"0.0-4.37-1.37","3pvqvuz9hfwum7v",873,"60.csv","","null","resources/maskTrios/BBA3.jpg","null","",NA,NA,NA,NA,""
"image-keyboard-response",125,110727,"0.0-4.37-2.37","3pvqvuz9hfwum7v",873,"60.csv","","null","resources/images/coin2.png","null","",NA,NA,NA,NA,""
"image-keyboard-response",126,111021,"0.0-4.38-0.38","3pvqvuz9hfwum7v",873,"60.csv","","291.7000000476837","resources/trios/L1T4A3.jpg","39","restless",0.3,0.6,0.5,0.297656038129243,"true"
"image-keyboard-response",127,111432,"0.0-4.38-1.38","3pvqvuz9hfwum7v",873,"60.csv","","null","resources/maskTrios/BBA3.jpg","null","",NA,NA,NA,NA,""
"image-keyboard-response",128,112640,"0.0-4.38-2.38","3pvqvuz9hfwum7v",873,"60.csv","","null","resources/images/coin2.png","null","",NA,NA,NA,NA,""
"image-keyboard-response",129,112948,"0.0-4.39-0.39","3pvqvuz9hfwum7v",873,"60.csv","","306.40000009536743","resources/trios/L1T4A3.jpg","39","restless",0.3,0.6,0.5,0.833928818983854,"false"
"image-keyboard-response",130,113354,"0.0-4.39-1.39","3pvqvuz9hfwum7v",873,"60.csv","","null","resources/maskTrios/BBA3.jpg","null","",NA,NA,NA,NA,""
"image-keyboard-response",131,114569,"0.0-4.39-2.39","3pvqvuz9hfwum7v",873,"60.csv","","null","resources/images/fishbone.png","null","",NA,NA,NA,NA,""
"image-keyboard-response",132,115261,"0.0-4.40-0.40","3pvqvuz9hfwum7v",873,"60.csv","","690.3999998569489","resources/trios/L1T4A3.jpg","39","restless",0.3,0.6,0.5,0.454578817848848,"true"
"image-keyboard-response",133,115674,"0.0-4.40-1.40","3pvqvuz9hfwum7v",873,"60.csv","","null","resources/maskTrios/BBA3.jpg","null","",NA,NA,NA,NA,""
"image-keyboard-response",134,116881,"0.0-4.40-2.40","3pvqvuz9hfwum7v",873,"60.csv","","null","resources/images/coin2.png","null","",NA,NA,NA,NA,""
"image-keyboard-response",135,117157,"0.0-4.41-0.41","3pvqvuz9hfwum7v",873,"60.csv","","273.89999985694885","resources/trios/L1T4A3.jpg","39","restless",0.3,0.6,0.5,0.0879292389170232,"true"
"image-keyboard-response",136,117563,"0.0-4.41-1.41","3pvqvuz9hfwum7v",873,"60.csv","","null","resources/maskTrios/BBA3.jpg","null","",NA,NA,NA,NA,""
"image-keyboard-response",137,118776,"0.0-4.41-2.41","3pvqvuz9hfwum7v",873,"60.csv","","null","resources/images/coin2.png","null","",NA,NA,NA,NA,""
"image-keyboard-response",138,119246,"0.0-4.42-0.42","3pvqvuz9hfwum7v",873,"60.csv","","468","resources/trios/L1T4A3.jpg","37","restless",0.3,0.6,0.5,0.822004695033875,"false"
"image-keyboard-response",139,119655,"0.0-4.42-1.42","3pvqvuz9hfwum7v",873,"60.csv","","null","resources/maskTrios/L1BB.jpg","null","",NA,NA,NA,NA,""
"image-keyboard-response",140,120862,"0.0-4.42-2.42","3pvqvuz9hfwum7v",873,"60.csv","","null","resources/images/fishbone.png","null","",NA,NA,NA,NA,""
"image-keyboard-response",141,120957,"0.0-4.43-0.43","3pvqvuz9hfwum7v",873,"60.csv","","93","resources/trios/L1T4A3.jpg","37","restless",0.3,0.7,0.4,0.101927179556037,"true"
"image-keyboard-response",142,121373,"0.0-4.43-1.43","3pvqvuz9hfwum7v",873,"60.csv","","null","resources/maskTrios/L1BB.jpg","null","",NA,NA,NA,NA,""
"image-keyboard-response",143,122589,"0.0-4.43-2.43","3pvqvuz9hfwum7v",873,"60.csv","","null","resources/images/coin2.png","null","",NA,NA,NA,NA,""
"image-keyboard-response",144,122869,"0.0-4.44-0.44","3pvqvuz9hfwum7v",873,"60.csv","","277.39999985694885","resources/trios/L1T4A3.jpg","38","restless",0.2,0.7,0.4,0.277913027156644,"true"
"image-keyboard-response",145,123274,"0.0-4.44-1.44","3pvqvuz9hfwum7v",873,"60.csv","","null","resources/maskTrios/BT4B.jpg","null","",NA,NA,NA,NA,""
"image-keyboard-response",146,124488,"0.0-4.44-2.44","3pvqvuz9hfwum7v",873,"60.csv","","null","resources/images/coin2.png","null","",NA,NA,NA,NA,""
"image-keyboard-response",147,124685,"0.0-4.45-0.45","3pvqvuz9hfwum7v",873,"60.csv","","195.5","resources/trios/L1T4A3.jpg","38","restless",0.2,0.7,0.4,0.45656393361944,"true"
"image-keyboard-response",148,125096,"0.0-4.45-1.45","3pvqvuz9hfwum7v",873,"60.csv","","null","resources/maskTrios/BT4B.jpg","null","",NA,NA,NA,NA,""
"image-keyboard-response",149,126310,"0.0-4.45-2.45","3pvqvuz9hfwum7v",873,"60.csv","","null","resources/images/coin2.png","null","",NA,NA,NA,NA,""
"image-keyboard-response",150,126460,"0.0-4.46-0.46","3pvqvuz9hfwum7v",873,"60.csv","","148.5","resources/trios/L1T4A3.jpg","38","restless",0.2,0.7,0.4,0.287758531115643,"true"
"image-keyboard-response",151,126869,"0.0-4.46-1.46","3pvqvuz9hfwum7v",873,"60.csv","","null","resources/maskTrios/BT4B.jpg","null","",NA,NA,NA,NA,""
"image-keyboard-response",152,128081,"0.0-4.46-2.46","3pvqvuz9hfwum7v",873,"60.csv","","null","resources/images/coin2.png","null","",NA,NA,NA,NA,""
"image-keyboard-response",153,128333,"0.0-4.47-0.47","3pvqvuz9hfwum7v",873,"60.csv","","251.09999990463257","resources/trios/L1T4A3.jpg","38","restless",0.2,0.7,0.4,0.292179453713374,"true"
"image-keyboard-response",154,128742,"0.0-4.47-1.47","3pvqvuz9hfwum7v",873,"60.csv","","null","resources/maskTrios/BT4B.jpg","null","",NA,NA,NA,NA,""
"image-keyboard-response",155,129952,"0.0-4.47-2.47","3pvqvuz9hfwum7v",873,"60.csv","","null","resources/images/coin2.png","null","",NA,NA,NA,NA,""
"image-keyboard-response",156,130740,"0.0-4.48-0.48","3pvqvuz9hfwum7v",873,"60.csv","","786.0999999046326","resources/trios/L1T4A3.jpg","39","restless",0.2,0.7,0.4,0.211015255715999,"true"
"image-keyboard-response",157,131149,"0.0-4.48-1.48","3pvqvuz9hfwum7v",873,"60.csv","","null","resources/maskTrios/BBA3.jpg","null","",NA,NA,NA,NA,""
"image-keyboard-response",158,132364,"0.0-4.48-2.48","3pvqvuz9hfwum7v",873,"60.csv","","null","resources/images/coin2.png","null","",NA,NA,NA,NA,""
"image-keyboard-response",159,132557,"0.0-4.49-0.49","3pvqvuz9hfwum7v",873,"60.csv","","191.70000004768372","resources/trios/L1T4A3.jpg","37","restless",0.2,0.7,0.4,0.0757968798617801,"true"
"image-keyboard-response",160,132970,"0.0-4.49-1.49","3pvqvuz9hfwum7v",873,"60.csv","","null","resources/maskTrios/L1BB.jpg","null","",NA,NA,NA,NA,""
"image-keyboard-response",161,134181,"0.0-4.49-2.49","3pvqvuz9hfwum7v",873,"60.csv","","null","resources/images/coin2.png","null","",NA,NA,NA,NA,""
"image-keyboard-response",162,134429,"0.0-4.50-0.50","3pvqvuz9hfwum7v",873,"60.csv","","247.10000014305115","resources/trios/L1T4A3.jpg","39","restless",0.2,0.7,0.4,0.286491626457219,"true"
"image-keyboard-response",163,134837,"0.0-4.50-1.50","3pvqvuz9hfwum7v",873,"60.csv","","null","resources/maskTrios/BBA3.jpg","null","",NA,NA,NA,NA,""
"image-keyboard-response",164,136053,"0.0-4.50-2.50","3pvqvuz9hfwum7v",873,"60.csv","","null","resources/images/coin2.png","null","",NA,NA,NA,NA,""
"image-keyboard-response",165,136389,"0.0-4.51-0.51","3pvqvuz9hfwum7v",873,"60.csv","","334.80000019073486","resources/trios/L1T4A3.jpg","37","restless",0.2,0.7,0.4,0.874727656367465,"false"
"image-keyboard-response",166,136800,"0.0-4.51-1.51","3pvqvuz9hfwum7v",873,"60.csv","","null","resources/maskTrios/L1BB.jpg","null","",NA,NA,NA,NA,""
"image-keyboard-response",167,138012,"0.0-4.51-2.51","3pvqvuz9hfwum7v",873,"60.csv","","null","resources/images/fishbone.png","null","",NA,NA,NA,NA,""
"image-keyboard-response",168,138308,"0.0-4.52-0.52","3pvqvuz9hfwum7v",873,"60.csv","","294.2000000476837","resources/trios/L1T4A3.jpg","39","restless",0.2,0.7,0.4,0.946991878081062,"false"
"image-keyboard-response",169,138719,"0.0-4.52-1.52","3pvqvuz9hfwum7v",873,"60.csv","","null","resources/maskTrios/BBA3.jpg","null","",NA,NA,NA,NA,""
"image-keyboard-response",170,139921,"0.0-4.52-2.52","3pvqvuz9hfwum7v",873,"60.csv","","null","resources/images/fishbone.png","null","",NA,NA,NA,NA,""
"image-keyboard-response",171,140014,"0.0-4.53-0.53","3pvqvuz9hfwum7v",873,"60.csv","","90.20000004768372","resources/trios/L1T4A3.jpg","38","restless",0.2,0.7,0.4,0.341339143915861,"true"
"image-keyboard-response",172,140420,"0.0-4.53-1.53","3pvqvuz9hfwum7v",873,"60.csv","","null","resources/maskTrios/BT4B.jpg","null","",NA,NA,NA,NA,""
"image-keyboard-response",173,141623,"0.0-4.53-2.53","3pvqvuz9hfwum7v",873,"60.csv","","null","resources/images/coin2.png","null","",NA,NA,NA,NA,""
"image-keyboard-response",174,141813,"0.0-4.54-0.54","3pvqvuz9hfwum7v",873,"60.csv","","187.90000009536743","resources/trios/L1T4A3.jpg","38","restless",0.3,0.7,0.4,0.626539462659247,"true"
"image-keyboard-response",175,142229,"0.0-4.54-1.54","3pvqvuz9hfwum7v",873,"60.csv","","null","resources/maskTrios/BT4B.jpg","null","",NA,NA,NA,NA,""
"image-keyboard-response",176,143443,"0.0-4.54-2.54","3pvqvuz9hfwum7v",873,"60.csv","","null","resources/images/coin2.png","null","",NA,NA,NA,NA,""
"image-keyboard-response",177,143708,"0.0-4.55-0.55","3pvqvuz9hfwum7v",873,"60.csv","","262.7000000476837","resources/trios/L1T4A3.jpg","38","restless",0.3,0.6,0.4,0.033294541763536,"true"
"image-keyboard-response",178,144111,"0.0-4.55-1.55","3pvqvuz9hfwum7v",873,"60.csv","","null","resources/maskTrios/BT4B.jpg","null","",NA,NA,NA,NA,""
"image-keyboard-response",179,145327,"0.0-4.55-2.55","3pvqvuz9hfwum7v",873,"60.csv","","null","resources/images/coin2.png","null","",NA,NA,NA,NA,""
"image-keyboard-response",180,145565,"0.0-4.56-0.56","3pvqvuz9hfwum7v",873,"60.csv","","236.5","resources/trios/L1T4A3.jpg","38","restless",0.4,0.6,0.4,0.165167794205278,"true"
"image-keyboard-response",181,145981,"0.0-4.56-1.56","3pvqvuz9hfwum7v",873,"60.csv","","null","resources/maskTrios/BT4B.jpg","null","",NA,NA,NA,NA,""
"image-keyboard-response",182,147196,"0.0-4.56-2.56","3pvqvuz9hfwum7v",873,"60.csv","","null","resources/images/coin2.png","null","",NA,NA,NA,NA,""
"image-keyboard-response",183,147868,"0.0-4.57-0.57","3pvqvuz9hfwum7v",873,"60.csv","","670.5999999046326","resources/trios/L1T4A3.jpg","38","restless",0.4,0.6,0.4,0.0282393620123851,"true"
"image-keyboard-response",184,148269,"0.0-4.57-1.57","3pvqvuz9hfwum7v",873,"60.csv","","null","resources/maskTrios/BT4B.jpg","null","",NA,NA,NA,NA,""
"image-keyboard-response",185,149477,"0.0-4.57-2.57","3pvqvuz9hfwum7v",873,"60.csv","","null","resources/images/coin2.png","null","",NA,NA,NA,NA,""
"image-keyboard-response",186,149620,"0.0-4.58-0.58","3pvqvuz9hfwum7v",873,"60.csv","","142.19999980926514","resources/trios/L1T4A3.jpg","38","restless",0.4,0.6,0.4,0.639763015815528,"false"
"image-keyboard-response",187,150036,"0.0-4.58-1.58","3pvqvuz9hfwum7v",873,"60.csv","","null","resources/maskTrios/BT4B.jpg","null","",NA,NA,NA,NA,""
"image-keyboard-response",188,151240,"0.0-4.58-2.58","3pvqvuz9hfwum7v",873,"60.csv","","null","resources/images/fishbone.png","null","",NA,NA,NA,NA,""
"image-keyboard-response",189,151350,"0.0-4.59-0.59","3pvqvuz9hfwum7v",873,"60.csv","","107.40000009536743","resources/trios/L1T4A3.jpg","37","restless",0.4,0.6,0.4,0.689169913234861,"false"
"image-keyboard-response",190,151753,"0.0-4.59-1.59","3pvqvuz9hfwum7v",873,"60.csv","","null","resources/maskTrios/L1BB.jpg","null","",NA,NA,NA,NA,""
"image-keyboard-response",191,152968,"0.0-4.59-2.59","3pvqvuz9hfwum7v",873,"60.csv","","null","resources/images/fishbone.png","null","",NA,NA,NA,NA,""
"image-keyboard-response",192,153020,"0.0-4.60-0.60","3pvqvuz9hfwum7v",873,"60.csv","","50.60000014305115","resources/trios/L1T4A3.jpg","39","restless",0.4,0.6,0.4,0.279615773422618,"true"
"image-keyboard-response",193,153437,"0.0-4.60-1.60","3pvqvuz9hfwum7v",873,"60.csv","","null","resources/maskTrios/BBA3.jpg","null","",NA,NA,NA,NA,""
"image-keyboard-response",194,154647,"0.0-4.60-2.60","3pvqvuz9hfwum7v",873,"60.csv","","null","resources/images/coin2.png","null","",NA,NA,NA,NA,""
"image-keyboard-response",195,155397,"0.0-4.61-0.61","3pvqvuz9hfwum7v",873,"60.csv","","748.1000001430511","resources/trios/L1T4A3.jpg","39","restless",0.4,0.6,0.4,0.31495273907164,"true"
"image-keyboard-response",196,155812,"0.0-4.61-1.61","3pvqvuz9hfwum7v",873,"60.csv","","null","resources/maskTrios/BBA3.jpg","null","",NA,NA,NA,NA,""
"image-keyboard-response",197,157029,"0.0-4.61-2.61","3pvqvuz9hfwum7v",873,"60.csv","","null","resources/images/coin2.png","null","",NA,NA,NA,NA,""
"image-keyboard-response",198,157412,"0.0-4.62-0.62","3pvqvuz9hfwum7v",873,"60.csv","","381.80000019073486","resources/trios/L1T4A3.jpg","39","restless",0.4,0.6,0.4,0.789475912039943,"false"
"image-keyboard-response",199,157822,"0.0-4.62-1.62","3pvqvuz9hfwum7v",873,"60.csv","","null","resources/maskTrios/BBA3.jpg","null","",NA,NA,NA,NA,""
"image-keyboard-response",200,159031,"0.0-4.62-2.62","3pvqvuz9hfwum7v",873,"60.csv","","null","resources/images/fishbone.png","null","",NA,NA,NA,NA,""
"image-keyboard-response",201,159284,"0.0-4.63-0.63","3pvqvuz9hfwum7v",873,"60.csv","","251.60000014305115","resources/trios/L1T4A3.jpg","37","restless",0.4,0.6,0.4,0.375630157968467,"true"
"image-keyboard-response",202,159700,"0.0-4.63-1.63","3pvqvuz9hfwum7v",873,"60.csv","","null","resources/maskTrios/L1BB.jpg","null","",NA,NA,NA,NA,""
"image-keyboard-response",203,160915,"0.0-4.63-2.63","3pvqvuz9hfwum7v",873,"60.csv","","null","resources/images/coin2.png","null","",NA,NA,NA,NA,""
"image-keyboard-response",204,161021,"0.0-4.64-0.64","3pvqvuz9hfwum7v",873,"60.csv","","104.20000004768372","resources/trios/L1T4A3.jpg","37","restless",0.4,0.6,0.4,0.0370081727499285,"true"
"image-keyboard-response",205,161431,"0.0-4.64-1.64","3pvqvuz9hfwum7v",873,"60.csv","","null","resources/maskTrios/L1BB.jpg","null","",NA,NA,NA,NA,""
"image-keyboard-response",206,162645,"0.0-4.64-2.64","3pvqvuz9hfwum7v",873,"60.csv","","null","resources/images/coin2.png","null","",NA,NA,NA,NA,""
"image-keyboard-response",207,162813,"0.0-4.65-0.65","3pvqvuz9hfwum7v",873,"60.csv","","166.5","resources/trios/L1T4A3.jpg","37","restless",0.4,0.6,0.4,0.270380921774794,"true"
"image-keyboard-response",208,163222,"0.0-4.65-1.65","3pvqvuz9hfwum7v",873,"60.csv","","null","resources/maskTrios/L1BB.jpg","null","",NA,NA,NA,NA,""
"image-keyboard-response",209,164424,"0.0-4.65-2.65","3pvqvuz9hfwum7v",873,"60.csv","","null","resources/images/coin2.png","null","",NA,NA,NA,NA,""
"image-keyboard-response",210,165013,"0.0-4.66-0.66","3pvqvuz9hfwum7v",873,"60.csv","","587.9000000953674","resources/trios/L1T4A3.jpg","37","restless",0.4,0.6,0.4,0.991543130993076,"false"
"image-keyboard-response",211,165418,"0.0-4.66-1.66","3pvqvuz9hfwum7v",873,"60.csv","","null","resources/maskTrios/L1BB.jpg","null","",NA,NA,NA,NA,""
"image-keyboard-response",212,166629,"0.0-4.66-2.66","3pvqvuz9hfwum7v",873,"60.csv","","null","resources/images/fishbone.png","null","",NA,NA,NA,NA,""
"image-keyboard-response",213,166876,"0.0-4.67-0.67","3pvqvuz9hfwum7v",873,"60.csv","","245.89999985694885","resources/trios/L1T4A3.jpg","38","restless",0.4,0.6,0.4,0.579401246918493,"true"
"image-keyboard-response",214,167279,"0.0-4.67-1.67","3pvqvuz9hfwum7v",873,"60.csv","","null","resources/maskTrios/BT4B.jpg","null","",NA,NA,NA,NA,""
"image-keyboard-response",215,168481,"0.0-4.67-2.67","3pvqvuz9hfwum7v",873,"60.csv","","null","resources/images/coin2.png","null","",NA,NA,NA,NA,""
"image-keyboard-response",216,168725,"0.0-4.68-0.68","3pvqvuz9hfwum7v",873,"60.csv","","242","resources/trios/L1T4A3.jpg","38","restless",0.4,0.6,0.4,0.929211662463336,"false"
"image-keyboard-response",217,169137,"0.0-4.68-1.68","3pvqvuz9hfwum7v",873,"60.csv","","null","resources/maskTrios/BT4B.jpg","null","",NA,NA,NA,NA,""
"image-keyboard-response",218,170347,"0.0-4.68-2.68","3pvqvuz9hfwum7v",873,"60.csv","","null","resources/images/fishbone.png","null","",NA,NA,NA,NA,""
"image-keyboard-response",219,170869,"0.0-4.69-0.69","3pvqvuz9hfwum7v",873,"60.csv","","520.5999999046326","resources/trios/L1T4A3.jpg","38","restless",0.4,0.6,0.4,0.313655354007391,"true"
"image-keyboard-response",220,171273,"0.0-4.69-1.69","3pvqvuz9hfwum7v",873,"60.csv","","null","resources/maskTrios/BT4B.jpg","null","",NA,NA,NA,NA,""
"image-keyboard-response",221,172484,"0.0-4.69-2.69","3pvqvuz9hfwum7v",873,"60.csv","","null","resources/images/coin2.png","null","",NA,NA,NA,NA,""
"image-keyboard-response",222,172620,"0.0-4.70-0.70","3pvqvuz9hfwum7v",873,"60.csv","","133.70000004768372","resources/trios/L1T4A3.jpg","38","restless",0.3,0.6,0.3,0.810206614492893,"false"
"image-keyboard-response",223,173029,"0.0-4.70-1.70","3pvqvuz9hfwum7v",873,"60.csv","","null","resources/maskTrios/BT4B.jpg","null","",NA,NA,NA,NA,""
"image-keyboard-response",224,174240,"0.0-4.70-2.70","3pvqvuz9hfwum7v",873,"60.csv","","null","resources/images/fishbone.png","null","",NA,NA,NA,NA,""
"image-keyboard-response",225,174582,"0.0-4.71-0.71","3pvqvuz9hfwum7v",873,"60.csv","","339.7999999523163","resources/trios/L1T4A3.jpg","39","restless",0.3,0.6,0.3,0.0709848031262077,"true"
"image-keyboard-response",226,174986,"0.0-4.71-1.71","3pvqvuz9hfwum7v",873,"60.csv","","null","resources/maskTrios/BBA3.jpg","null","",NA,NA,NA,NA,""
"image-keyboard-response",227,176189,"0.0-4.71-2.71","3pvqvuz9hfwum7v",873,"60.csv","","null","resources/images/coin2.png","null","",NA,NA,NA,NA,""
"image-keyboard-response",228,176357,"0.0-4.72-0.72","3pvqvuz9hfwum7v",873,"60.csv","","165.79999995231628","resources/trios/L1T4A3.jpg","39","restless",0.3,0.6,0.3,0.0241615190168287,"true"
"image-keyboard-response",229,176766,"0.0-4.72-1.72","3pvqvuz9hfwum7v",873,"60.csv","","null","resources/maskTrios/BBA3.jpg","null","",NA,NA,NA,NA,""
"image-keyboard-response",230,177982,"0.0-4.72-2.72","3pvqvuz9hfwum7v",873,"60.csv","","null","resources/images/coin2.png","null","",NA,NA,NA,NA,""
"image-keyboard-response",231,178477,"0.0-4.73-0.73","3pvqvuz9hfwum7v",873,"60.csv","","493.7999999523163","resources/trios/L1T4A3.jpg","39","restless",0.3,0.5,0.3,0.803195366183991,"false"
"image-keyboard-response",232,178885,"0.0-4.73-1.73","3pvqvuz9hfwum7v",873,"60.csv","","null","resources/maskTrios/BBA3.jpg","null","",NA,NA,NA,NA,""
"image-keyboard-response",233,180095,"0.0-4.73-2.73","3pvqvuz9hfwum7v",873,"60.csv","","null","resources/images/fishbone.png","null","",NA,NA,NA,NA,""
"image-keyboard-response",234,180525,"0.0-4.74-0.74","3pvqvuz9hfwum7v",873,"60.csv","","429.09999990463257","resources/trios/L1T4A3.jpg","39","restless",0.3,0.5,0.3,0.434683746038919,"false"
"image-keyboard-response",235,180940,"0.0-4.74-1.74","3pvqvuz9hfwum7v",873,"60.csv","","null","resources/maskTrios/BBA3.jpg","null","",NA,NA,NA,NA,""
"image-keyboard-response",236,182151,"0.0-4.74-2.74","3pvqvuz9hfwum7v",873,"60.csv","","null","resources/images/fishbone.png","null","",NA,NA,NA,NA,""
"image-keyboard-response",237,182332,"0.0-4.75-0.75","3pvqvuz9hfwum7v",873,"60.csv","","178.60000014305115","resources/trios/L1T4A3.jpg","39","restless",0.3,0.5,0.3,0.716958186899664,"false"
"image-keyboard-response",238,182742,"0.0-4.75-1.75","3pvqvuz9hfwum7v",873,"60.csv","","null","resources/maskTrios/BBA3.jpg","null","",NA,NA,NA,NA,""
"image-keyboard-response",239,183956,"0.0-4.75-2.75","3pvqvuz9hfwum7v",873,"60.csv","","null","resources/images/fishbone.png","null","",NA,NA,NA,NA,""
"image-keyboard-response",240,184205,"0.0-4.76-0.76","3pvqvuz9hfwum7v",873,"60.csv","","247.40000009536743","resources/trios/L1T4A3.jpg","39","restless",0.3,0.5,0.3,0.964965675976138,"false"
"image-keyboard-response",241,184611,"0.0-4.76-1.76","3pvqvuz9hfwum7v",873,"60.csv","","null","resources/maskTrios/BBA3.jpg","null","",NA,NA,NA,NA,""
"image-keyboard-response",242,185826,"0.0-4.76-2.76","3pvqvuz9hfwum7v",873,"60.csv","","null","resources/images/fishbone.png","null","",NA,NA,NA,NA,""
"image-keyboard-response",243,185981,"0.0-4.77-0.77","3pvqvuz9hfwum7v",873,"60.csv","","153.29999995231628","resources/trios/L1T4A3.jpg","39","restless",0.3,0.5,0.3,0.0147019054333108,"true"
"image-keyboard-response",244,186385,"0.0-4.77-1.77","3pvqvuz9hfwum7v",873,"60.csv","","null","resources/maskTrios/BBA3.jpg","null","",NA,NA,NA,NA,""
"image-keyboard-response",245,187602,"0.0-4.77-2.77","3pvqvuz9hfwum7v",873,"60.csv","","null","resources/images/coin2.png","null","",NA,NA,NA,NA,""
"image-keyboard-response",246,187876,"0.0-4.78-0.78","3pvqvuz9hfwum7v",873,"60.csv","","272.7999999523163","resources/trios/L1T4A3.jpg","37","restless",0.3,0.5,0.3,0.483895611246715,"false"
"image-keyboard-response",247,188289,"0.0-4.78-1.78","3pvqvuz9hfwum7v",873,"60.csv","","null","resources/maskTrios/L1BB.jpg","null","",NA,NA,NA,NA,""
"image-keyboard-response",248,189499,"0.0-4.78-2.78","3pvqvuz9hfwum7v",873,"60.csv","","null","resources/images/fishbone.png","null","",NA,NA,NA,NA,""
"image-keyboard-response",249,190733,"0.0-4.79-0.79","3pvqvuz9hfwum7v",873,"60.csv","","1232","resources/trios/L1T4A3.jpg","37","restless",0.3,0.5,0.3,0.686613280814021,"false"
"image-keyboard-response",250,191138,"0.0-4.79-1.79","3pvqvuz9hfwum7v",873,"60.csv","","null","resources/maskTrios/L1BB.jpg","null","",NA,NA,NA,NA,""
"image-keyboard-response",251,192342,"0.0-4.79-2.79","3pvqvuz9hfwum7v",873,"60.csv","","null","resources/images/fishbone.png","null","",NA,NA,NA,NA,""
"image-keyboard-response",252,192757,"0.0-4.80-0.80","3pvqvuz9hfwum7v",873,"60.csv","","413.2999999523163","resources/trios/L1T4A3.jpg","37","restless",0.3,0.5,0.3,0.748470323493004,"false"
"image-keyboard-response",253,193166,"0.0-4.80-1.80","3pvqvuz9hfwum7v",873,"60.csv","","null","resources/maskTrios/L1BB.jpg","null","",NA,NA,NA,NA,""
"image-keyboard-response",254,194380,"0.0-4.80-2.80","3pvqvuz9hfwum7v",873,"60.csv","","null","resources/images/fishbone.png","null","",NA,NA,NA,NA,""
"image-keyboard-response",255,194501,"0.0-4.81-0.81","3pvqvuz9hfwum7v",873,"60.csv","","119.10000014305115","resources/trios/L1T4A3.jpg","37","restless",0.4,0.5,0.3,0.468635029824985,"false"
"image-keyboard-response",256,194911,"0.0-4.81-1.81","3pvqvuz9hfwum7v",873,"60.csv","","null","resources/maskTrios/L1BB.jpg","null","",NA,NA,NA,NA,""
"image-keyboard-response",257,196125,"0.0-4.81-2.81","3pvqvuz9hfwum7v",873,"60.csv","","null","resources/images/fishbone.png","null","",NA,NA,NA,NA,""
"image-keyboard-response",258,200589,"0.0-4.82-0.82","3pvqvuz9hfwum7v",873,"60.csv","","4461.900000095367","resources/trios/L1T4A3.jpg","38","restless",0.4,0.5,0.3,0.755642542756168,"false"
"image-keyboard-response",259,200995,"0.0-4.82-1.82","3pvqvuz9hfwum7v",873,"60.csv","","null","resources/maskTrios/BT4B.jpg","null","",NA,NA,NA,NA,""
"image-keyboard-response",260,202207,"0.0-4.82-2.82","3pvqvuz9hfwum7v",873,"60.csv","","null","resources/images/fishbone.png","null","",NA,NA,NA,NA,""
"image-keyboard-response",261,207341,"0.0-4.83-0.83","3pvqvuz9hfwum7v",873,"60.csv","","5132.299999952316","resources/trios/L1T4A3.jpg","38","restless",0.4,0.5,0.3,0.780318472079519,"false"
"image-keyboard-response",262,207755,"0.0-4.83-1.83","3pvqvuz9hfwum7v",873,"60.csv","","null","resources/maskTrios/BT4B.jpg","null","",NA,NA,NA,NA,""
"image-keyboard-response",263,208960,"0.0-4.83-2.83","3pvqvuz9hfwum7v",873,"60.csv","","null","resources/images/fishbone.png","null","",NA,NA,NA,NA,""
"image-keyboard-response",264,210798,"0.0-4.84-0.84","3pvqvuz9hfwum7v",873,"60.csv","","1837","resources/trios/L1T4A3.jpg","38","restless",0.4,0.5,0.3,0.550778363311642,"false"
"image-keyboard-response",265,211207,"0.0-4.84-1.84","3pvqvuz9hfwum7v",873,"60.csv","","null","resources/maskTrios/BT4B.jpg","null","",NA,NA,NA,NA,""
"image-keyboard-response",266,212416,"0.0-4.84-2.84","3pvqvuz9hfwum7v",873,"60.csv","","null","resources/images/fishbone.png","null","",NA,NA,NA,NA,""
"image-keyboard-response",267,212861,"0.0-4.85-0.85","3pvqvuz9hfwum7v",873,"60.csv","","444.40000009536743","resources/trios/L1T4A3.jpg","39","restless",0.4,0.5,0.3,0.308121579911244,"false"
"image-keyboard-response",268,213273,"0.0-4.85-1.85","3pvqvuz9hfwum7v",873,"60.csv","","null","resources/maskTrios/BBA3.jpg","null","",NA,NA,NA,NA,""
"image-keyboard-response",269,214486,"0.0-4.85-2.85","3pvqvuz9hfwum7v",873,"60.csv","","null","resources/images/fishbone.png","null","",NA,NA,NA,NA,""
"image-keyboard-response",270,214773,"0.0-4.86-0.86","3pvqvuz9hfwum7v",873,"60.csv","","285.80000019073486","resources/trios/L1T4A3.jpg","37","restless",0.4,0.5,0.3,0.409289129234772,"false"
"image-keyboard-response",271,215184,"0.0-4.86-1.86","3pvqvuz9hfwum7v",873,"60.csv","","null","resources/maskTrios/L1BB.jpg","null","",NA,NA,NA,NA,""
"image-keyboard-response",272,216395,"0.0-4.86-2.86","3pvqvuz9hfwum7v",873,"60.csv","","null","resources/images/fishbone.png","null","",NA,NA,NA,NA,""
"image-keyboard-response",273,216669,"0.0-4.87-0.87","3pvqvuz9hfwum7v",873,"60.csv","","271.90000009536743","resources/trios/L1T4A3.jpg","38","restless",0.4,0.5,0.3,0.791072902409749,"false"
"image-keyboard-response",274,217079,"0.0-4.87-1.87","3pvqvuz9hfwum7v",873,"60.csv","","null","resources/maskTrios/BT4B.jpg","null","",NA,NA,NA,NA,""
"image-keyboard-response",275,218282,"0.0-4.87-2.87","3pvqvuz9hfwum7v",873,"60.csv","","null","resources/images/fishbone.png","null","",NA,NA,NA,NA,""
"image-keyboard-response",276,218549,"0.0-4.88-0.88","3pvqvuz9hfwum7v",873,"60.csv","","264.80000019073486","resources/trios/L1T4A3.jpg","38","restless",0.4,0.5,0.3,0.283717807893646,"true"
"image-keyboard-response",277,218955,"0.0-4.88-1.88","3pvqvuz9hfwum7v",873,"60.csv","","null","resources/maskTrios/BT4B.jpg","null","",NA,NA,NA,NA,""
"image-keyboard-response",278,220168,"0.0-4.88-2.88","3pvqvuz9hfwum7v",873,"60.csv","","null","resources/images/coin2.png","null","",NA,NA,NA,NA,""
"image-keyboard-response",279,220379,"0.0-4.89-0.89","3pvqvuz9hfwum7v",873,"60.csv","","210","resources/trios/L1T4A3.jpg","38","restless",0.4,0.5,0.3,0.286429115134976,"true"
"image-keyboard-response",280,220789,"0.0-4.89-1.89","3pvqvuz9hfwum7v",873,"60.csv","","null","resources/maskTrios/BT4B.jpg","null","",NA,NA,NA,NA,""
"image-keyboard-response",281,222003,"0.0-4.89-2.89","3pvqvuz9hfwum7v",873,"60.csv","","null","resources/images/coin2.png","null","",NA,NA,NA,NA,""
"image-keyboard-response",282,222501,"0.0-4.90-0.90","3pvqvuz9hfwum7v",873,"60.csv","","496.7000000476837","resources/trios/L1T4A3.jpg","38","restless",0.4,0.5,0.3,0.861530596616518,"false"
"image-keyboard-response",283,222905,"0.0-4.90-1.90","3pvqvuz9hfwum7v",873,"60.csv","","null","resources/maskTrios/BT4B.jpg","null","",NA,NA,NA,NA,""
"image-keyboard-response",284,224107,"0.0-4.90-2.90","3pvqvuz9hfwum7v",873,"60.csv","","null","resources/images/fishbone.png","null","",NA,NA,NA,NA,""
"image-keyboard-response",285,224325,"0.0-4.91-0.91","3pvqvuz9hfwum7v",873,"60.csv","","216.5","resources/trios/L1T4A3.jpg","37","restless",0.4,0.5,0.3,0.230522462407858,"true"
"image-keyboard-response",286,224730,"0.0-4.91-1.91","3pvqvuz9hfwum7v",873,"60.csv","","null","resources/maskTrios/L1BB.jpg","null","",NA,NA,NA,NA,""
"image-keyboard-response",287,225939,"0.0-4.91-2.91","3pvqvuz9hfwum7v",873,"60.csv","","null","resources/images/coin2.png","null","",NA,NA,NA,NA,""
"image-keyboard-response",288,226275,"0.0-4.92-0.92","3pvqvuz9hfwum7v",873,"60.csv","","336.2000000476837","resources/trios/L1T4A3.jpg","37","restless",0.5,0.5,0.3,0.333013100961876,"true"
"image-keyboard-response",289,226681,"0.0-4.92-1.92","3pvqvuz9hfwum7v",873,"60.csv","","null","resources/maskTrios/L1BB.jpg","null","",NA,NA,NA,NA,""
"image-keyboard-response",290,227894,"0.0-4.92-2.92","3pvqvuz9hfwum7v",873,"60.csv","","null","resources/images/coin2.png","null","",NA,NA,NA,NA,""
"image-keyboard-response",291,228173,"0.0-4.93-0.93","3pvqvuz9hfwum7v",873,"60.csv","","277.5","resources/trios/L1T4A3.jpg","37","restless",0.5,0.5,0.3,0.749415696717019,"false"
"image-keyboard-response",292,228581,"0.0-4.93-1.93","3pvqvuz9hfwum7v",873,"60.csv","","null","resources/maskTrios/L1BB.jpg","null","",NA,NA,NA,NA,""
"image-keyboard-response",293,229789,"0.0-4.93-2.93","3pvqvuz9hfwum7v",873,"60.csv","","null","resources/images/fishbone.png","null","",NA,NA,NA,NA,""
"image-keyboard-response",294,229925,"0.0-4.94-0.94","3pvqvuz9hfwum7v",873,"60.csv","","134","resources/trios/L1T4A3.jpg","39","restless",0.5,0.5,0.3,0.201574983743291,"true"
"image-keyboard-response",295,230333,"0.0-4.94-1.94","3pvqvuz9hfwum7v",873,"60.csv","","null","resources/maskTrios/BBA3.jpg","null","",NA,NA,NA,NA,""
"image-keyboard-response",296,231546,"0.0-4.94-2.94","3pvqvuz9hfwum7v",873,"60.csv","","null","resources/images/coin2.png","null","",NA,NA,NA,NA,""
"image-keyboard-response",297,231885,"0.0-4.95-0.95","3pvqvuz9hfwum7v",873,"60.csv","","337","resources/trios/L1T4A3.jpg","39","restless",0.5,0.5,0.3,0.0125232398970698,"true"
"image-keyboard-response",298,232292,"0.0-4.95-1.95","3pvqvuz9hfwum7v",873,"60.csv","","null","resources/maskTrios/BBA3.jpg","null","",NA,NA,NA,NA,""
"image-keyboard-response",299,233496,"0.0-4.95-2.95","3pvqvuz9hfwum7v",873,"60.csv","","null","resources/images/coin2.png","null","",NA,NA,NA,NA,""
"image-keyboard-response",300,240660,"0.0-4.96-0.96","3pvqvuz9hfwum7v",873,"60.csv","","7162.599999904633","resources/trios/L1T4A3.jpg","39","restless",0.5,0.5,0.3,0.837505034384491,"false"
"image-keyboard-response",301,241076,"0.0-4.96-1.96","3pvqvuz9hfwum7v",873,"60.csv","","null","resources/maskTrios/BBA3.jpg","null","",NA,NA,NA,NA,""
"image-keyboard-response",302,242279,"0.0-4.96-2.96","3pvqvuz9hfwum7v",873,"60.csv","","null","resources/images/fishbone.png","null","",NA,NA,NA,NA,""
"image-keyboard-response",303,243075,"0.0-4.97-0.97","3pvqvuz9hfwum7v",873,"60.csv","","795.8999998569489","resources/trios/L1T4A3.jpg","37","restless",0.5,0.5,0.3,0.96252081012414,"false"
"image-keyboard-response",304,243489,"0.0-4.97-1.97","3pvqvuz9hfwum7v",873,"60.csv","","null","resources/maskTrios/L1BB.jpg","null","",NA,NA,NA,NA,""
"image-keyboard-response",305,244695,"0.0-4.97-2.97","3pvqvuz9hfwum7v",873,"60.csv","","null","resources/images/fishbone.png","null","",NA,NA,NA,NA,""
"image-keyboard-response",306,245115,"0.0-4.98-0.98","3pvqvuz9hfwum7v",873,"60.csv","","419.09999990463257","resources/trios/L1T4A3.jpg","37","restless",0.6,0.5,0.3,0.21394183894119,"true"
"image-keyboard-response",307,245522,"0.0-4.98-1.98","3pvqvuz9hfwum7v",873,"60.csv","","null","resources/maskTrios/L1BB.jpg","null","",NA,NA,NA,NA,""
"image-keyboard-response",308,246724,"0.0-4.98-2.98","3pvqvuz9hfwum7v",873,"60.csv","","null","resources/images/coin2.png","null","",NA,NA,NA,NA,""
"image-keyboard-response",309,247099,"0.0-4.99-0.99","3pvqvuz9hfwum7v",873,"60.csv","","374.09999990463257","resources/trios/L1T4A3.jpg","37","restless",0.6,0.5,0.2,0.938295138943273,"false"
"image-keyboard-response",310,247514,"0.0-4.99-1.99","3pvqvuz9hfwum7v",873,"60.csv","","null","resources/maskTrios/L1BB.jpg","null","",NA,NA,NA,NA,""
"image-keyboard-response",311,248720,"0.0-4.99-2.99","3pvqvuz9hfwum7v",873,"60.csv","","null","resources/images/fishbone.png","null","",NA,NA,NA,NA,""
"image-keyboard-response",312,249099,"0.0-4.100-0.100","3pvqvuz9hfwum7v",873,"60.csv","","378.2999999523163","resources/trios/L1T4A3.jpg","38","restless",0.6,0.4,0.2,0.924827076356634,"false"
"image-keyboard-response",313,249504,"0.0-4.100-1.100","3pvqvuz9hfwum7v",873,"60.csv","","null","resources/maskTrios/BT4B.jpg","null","",NA,NA,NA,NA,""
"image-keyboard-response",314,250714,"0.0-4.100-2.100","3pvqvuz9hfwum7v",873,"60.csv","","null","resources/images/fishbone.png","null","",NA,NA,NA,NA,""
"image-keyboard-response",315,251283,"0.0-4.101-0.101","3pvqvuz9hfwum7v",873,"60.csv","","568.8999998569489","resources/trios/L1T4A3.jpg","39","restless",0.6,0.4,0.2,0.69937080671715,"false"
"image-keyboard-response",316,251694,"0.0-4.101-1.101","3pvqvuz9hfwum7v",873,"60.csv","","null","resources/maskTrios/BBA3.jpg","null","",NA,NA,NA,NA,""
"image-keyboard-response",317,252906,"0.0-4.101-2.101","3pvqvuz9hfwum7v",873,"60.csv","","null","resources/images/fishbone.png","null","",NA,NA,NA,NA,""
"image-keyboard-response",318,253075,"0.0-4.102-0.102","3pvqvuz9hfwum7v",873,"60.csv","","168.30000019073486","resources/trios/L1T4A3.jpg","37","restless",0.6,0.4,0.2,0.818647739024452,"false"
"image-keyboard-response",319,253490,"0.0-4.102-1.102","3pvqvuz9hfwum7v",873,"60.csv","","null","resources/maskTrios/L1BB.jpg","null","",NA,NA,NA,NA,""
"image-keyboard-response",320,254698,"0.0-4.102-2.102","3pvqvuz9hfwum7v",873,"60.csv","","null","resources/images/fishbone.png","null","",NA,NA,NA,NA,""
"image-keyboard-response",321,254915,"0.0-4.103-0.103","3pvqvuz9hfwum7v",873,"60.csv","","216.29999995231628","resources/trios/L1T4A3.jpg","37","restless",0.6,0.5,0.2,0.813746379437183,"false"
"image-keyboard-response",322,255325,"0.0-4.103-1.103","3pvqvuz9hfwum7v",873,"60.csv","","null","resources/maskTrios/L1BB.jpg","null","",NA,NA,NA,NA,""
"image-keyboard-response",323,256535,"0.0-4.103-2.103","3pvqvuz9hfwum7v",873,"60.csv","","null","resources/images/fishbone.png","null","",NA,NA,NA,NA,""
"image-keyboard-response",324,256739,"0.0-4.104-0.104","3pvqvuz9hfwum7v",873,"60.csv","","203.39999985694885","resources/trios/L1T4A3.jpg","39","restless",0.6,0.5,0.2,0.892869740824178,"false"
"image-keyboard-response",325,257152,"0.0-4.104-1.104","3pvqvuz9hfwum7v",873,"60.csv","","null","resources/maskTrios/BBA3.jpg","null","",NA,NA,NA,NA,""
"image-keyboard-response",326,258364,"0.0-4.104-2.104","3pvqvuz9hfwum7v",873,"60.csv","","null","resources/images/fishbone.png","null","",NA,NA,NA,NA,""
"image-keyboard-response",327,258635,"0.0-4.105-0.105","3pvqvuz9hfwum7v",873,"60.csv","","270.40000009536743","resources/trios/L1T4A3.jpg","39","restless",0.6,0.5,0.1,0.381693769279993,"false"
"image-keyboard-response",328,259050,"0.0-4.105-1.105","3pvqvuz9hfwum7v",873,"60.csv","","null","resources/maskTrios/BBA3.jpg","null","",NA,NA,NA,NA,""
"image-keyboard-response",329,260251,"0.0-4.105-2.105","3pvqvuz9hfwum7v",873,"60.csv","","null","resources/images/fishbone.png","null","",NA,NA,NA,NA,""
"image-keyboard-response",330,260435,"0.0-4.106-0.106","3pvqvuz9hfwum7v",873,"60.csv","","183","resources/trios/L1T4A3.jpg","38","restless",0.6,0.5,0.1,0.659108287911248,"false"
"image-keyboard-response",331,260838,"0.0-4.106-1.106","3pvqvuz9hfwum7v",873,"60.csv","","null","resources/maskTrios/BT4B.jpg","null","",NA,NA,NA,NA,""
"image-keyboard-response",332,262044,"0.0-4.106-2.106","3pvqvuz9hfwum7v",873,"60.csv","","null","resources/images/fishbone.png","null","",NA,NA,NA,NA,""
"image-keyboard-response",333,262259,"0.0-4.107-0.107","3pvqvuz9hfwum7v",873,"60.csv","","213.59999990463257","resources/trios/L1T4A3.jpg","38","restless",0.6,0.5,0.2,0.621988255559139,"false"
"image-keyboard-response",334,262666,"0.0-4.107-1.107","3pvqvuz9hfwum7v",873,"60.csv","","null","resources/maskTrios/BT4B.jpg","null","",NA,NA,NA,NA,""
"image-keyboard-response",335,263879,"0.0-4.107-2.107","3pvqvuz9hfwum7v",873,"60.csv","","null","resources/images/fishbone.png","null","",NA,NA,NA,NA,""
"image-keyboard-response",336,264035,"0.0-4.108-0.108","3pvqvuz9hfwum7v",873,"60.csv","","154.5","resources/trios/L1T4A3.jpg","37","restless",0.6,0.5,0.3,0.342136877568605,"true"
"image-keyboard-response",337,264440,"0.0-4.108-1.108","3pvqvuz9hfwum7v",873,"60.csv","","null","resources/maskTrios/L1BB.jpg","null","",NA,NA,NA,NA,""
"image-keyboard-response",338,265654,"0.0-4.108-2.108","3pvqvuz9hfwum7v",873,"60.csv","","null","resources/images/coin2.png","null","",NA,NA,NA,NA,""
"image-keyboard-response",339,266021,"0.0-4.109-0.109","3pvqvuz9hfwum7v",873,"60.csv","","364.90000009536743","resources/trios/L1T4A3.jpg","37","restless",0.6,0.6,0.3,0.200033439844823,"true"
"image-keyboard-response",340,266432,"0.0-4.109-1.109","3pvqvuz9hfwum7v",873,"60.csv","","null","resources/maskTrios/L1BB.jpg","null","",NA,NA,NA,NA,""
"image-keyboard-response",341,267646,"0.0-4.109-2.109","3pvqvuz9hfwum7v",873,"60.csv","","null","resources/images/coin2.png","null","",NA,NA,NA,NA,""
"image-keyboard-response",342,267788,"0.0-4.110-0.110","3pvqvuz9hfwum7v",873,"60.csv","","140.89999985694885","resources/trios/L1T4A3.jpg","37","restless",0.6,0.5,0.3,0.557845300356539,"true"
"image-keyboard-response",343,268192,"0.0-4.110-1.110","3pvqvuz9hfwum7v",873,"60.csv","","null","resources/maskTrios/L1BB.jpg","null","",NA,NA,NA,NA,""
"image-keyboard-response",344,269393,"0.0-4.110-2.110","3pvqvuz9hfwum7v",873,"60.csv","","null","resources/images/coin2.png","null","",NA,NA,NA,NA,""
"image-keyboard-response",345,269595,"0.0-4.111-0.111","3pvqvuz9hfwum7v",873,"60.csv","","201.5","resources/trios/L1T4A3.jpg","37","restless",0.6,0.5,0.3,0.262464150167057,"true"
"image-keyboard-response",346,269999,"0.0-4.111-1.111","3pvqvuz9hfwum7v",873,"60.csv","","null","resources/maskTrios/L1BB.jpg","null","",NA,NA,NA,NA,""
"image-keyboard-response",347,271211,"0.0-4.111-2.111","3pvqvuz9hfwum7v",873,"60.csv","","null","resources/images/coin2.png","null","",NA,NA,NA,NA,""
"image-keyboard-response",348,271389,"0.0-4.112-0.112","3pvqvuz9hfwum7v",873,"60.csv","","175.79999995231628","resources/trios/L1T4A3.jpg","37","restless",0.6,0.5,0.3,0.798343509797364,"false"
"image-keyboard-response",349,271802,"0.0-4.112-1.112","3pvqvuz9hfwum7v",873,"60.csv","","null","resources/maskTrios/L1BB.jpg","null","",NA,NA,NA,NA,""
"image-keyboard-response",350,273014,"0.0-4.112-2.112","3pvqvuz9hfwum7v",873,"60.csv","","null","resources/images/fishbone.png","null","",NA,NA,NA,NA,""
"image-keyboard-response",351,273221,"0.0-4.113-0.113","3pvqvuz9hfwum7v",873,"60.csv","","206.29999995231628","resources/trios/L1T4A3.jpg","39","restless",0.5,0.5,0.3,0.115750807489483,"true"
"image-keyboard-response",352,273636,"0.0-4.113-1.113","3pvqvuz9hfwum7v",873,"60.csv","","null","resources/maskTrios/BBA3.jpg","null","",NA,NA,NA,NA,""
"image-keyboard-response",353,274849,"0.0-4.113-2.113","3pvqvuz9hfwum7v",873,"60.csv","","null","resources/images/coin2.png","null","",NA,NA,NA,NA,""
"image-keyboard-response",354,274853,"0.0-4.114-0.114","3pvqvuz9hfwum7v",873,"60.csv","","3.200000047683716","resources/trios/L1T4A3.jpg","39","restless",0.5,0.6,0.3,0.595906774455273,"false"
"image-keyboard-response",355,275268,"0.0-4.114-1.114","3pvqvuz9hfwum7v",873,"60.csv","","null","resources/maskTrios/BBA3.jpg","null","",NA,NA,NA,NA,""
"image-keyboard-response",356,276483,"0.0-4.114-2.114","3pvqvuz9hfwum7v",873,"60.csv","","null","resources/images/fishbone.png","null","",NA,NA,NA,NA,""
"image-keyboard-response",357,276788,"0.0-4.115-0.115","3pvqvuz9hfwum7v",873,"60.csv","","302.2999999523163","resources/trios/L1T4A3.jpg","38","restless",0.5,0.6,0.3,0.0679356839935727,"true"
"image-keyboard-response",358,277201,"0.0-4.115-1.115","3pvqvuz9hfwum7v",873,"60.csv","","null","resources/maskTrios/BT4B.jpg","null","",NA,NA,NA,NA,""
"image-keyboard-response",359,278416,"0.0-4.115-2.115","3pvqvuz9hfwum7v",873,"60.csv","","null","resources/images/coin2.png","null","",NA,NA,NA,NA,""
"image-keyboard-response",360,278685,"0.0-4.116-0.116","3pvqvuz9hfwum7v",873,"60.csv","","266.60000014305115","resources/trios/L1T4A3.jpg","38","restless",0.5,0.6,0.3,0.590999335545234,"true"
"image-keyboard-response",361,279099,"0.0-4.116-1.116","3pvqvuz9hfwum7v",873,"60.csv","","null","resources/maskTrios/BT4B.jpg","null","",NA,NA,NA,NA,""
"image-keyboard-response",362,280312,"0.0-4.116-2.116","3pvqvuz9hfwum7v",873,"60.csv","","null","resources/images/coin2.png","null","",NA,NA,NA,NA,""
"image-keyboard-response",363,280501,"0.0-4.117-0.117","3pvqvuz9hfwum7v",873,"60.csv","","187.29999995231628","resources/trios/L1T4A3.jpg","38","restless",0.5,0.6,0.3,0.0766643617117857,"true"
"image-keyboard-response",364,280903,"0.0-4.117-1.117","3pvqvuz9hfwum7v",873,"60.csv","","null","resources/maskTrios/BT4B.jpg","null","",NA,NA,NA,NA,""
"image-keyboard-response",365,282118,"0.0-4.117-2.117","3pvqvuz9hfwum7v",873,"60.csv","","null","resources/images/coin2.png","null","",NA,NA,NA,NA,""
"image-keyboard-response",366,282333,"0.0-4.118-0.118","3pvqvuz9hfwum7v",873,"60.csv","","212.90000009536743","resources/trios/L1T4A3.jpg","38","restless",0.5,0.6,0.3,0.0293443091503531,"true"
"image-keyboard-response",367,282739,"0.0-4.118-1.118","3pvqvuz9hfwum7v",873,"60.csv","","null","resources/maskTrios/BT4B.jpg","null","",NA,NA,NA,NA,""
"image-keyboard-response",368,283953,"0.0-4.118-2.118","3pvqvuz9hfwum7v",873,"60.csv","","null","resources/images/coin2.png","null","",NA,NA,NA,NA,""
"image-keyboard-response",369,284180,"0.0-4.119-0.119","3pvqvuz9hfwum7v",873,"60.csv","","225.29999995231628","resources/trios/L1T4A3.jpg","38","restless",0.5,0.7,0.3,0.00218481094795675,"true"
"image-keyboard-response",370,284592,"0.0-4.119-1.119","3pvqvuz9hfwum7v",873,"60.csv","","null","resources/maskTrios/BT4B.jpg","null","",NA,NA,NA,NA,""
"image-keyboard-response",371,285797,"0.0-4.119-2.119","3pvqvuz9hfwum7v",873,"60.csv","","null","resources/images/coin2.png","null","",NA,NA,NA,NA,""
"image-keyboard-response",372,286101,"0.0-4.120-0.120","3pvqvuz9hfwum7v",873,"60.csv","","301.89999985694885","resources/trios/L1T4A3.jpg","38","restless",0.5,0.7,0.2,0.0700759430568076,"true"
"image-keyboard-response",373,286515,"0.0-4.120-1.120","3pvqvuz9hfwum7v",873,"60.csv","","null","resources/maskTrios/BT4B.jpg","null","",NA,NA,NA,NA,""
"image-keyboard-response",374,287721,"0.0-4.120-2.120","3pvqvuz9hfwum7v",873,"60.csv","","null","resources/images/coin2.png","null","",NA,NA,NA,NA,""
"image-keyboard-response",375,288108,"0.0-4.121-0.121","3pvqvuz9hfwum7v",873,"60.csv","","385.90000009536743","resources/trios/L1T4A3.jpg","38","restless",0.5,0.7,0.2,0.258641655728742,"true"
"image-keyboard-response",376,288515,"0.0-4.121-1.121","3pvqvuz9hfwum7v",873,"60.csv","","null","resources/maskTrios/BT4B.jpg","null","",NA,NA,NA,NA,""
"image-keyboard-response",377,289720,"0.0-4.121-2.121","3pvqvuz9hfwum7v",873,"60.csv","","null","resources/images/coin2.png","null","",NA,NA,NA,NA,""
"image-keyboard-response",378,290292,"0.0-4.122-0.122","3pvqvuz9hfwum7v",873,"60.csv","","571.2999999523163","resources/trios/L1T4A3.jpg","38","restless",0.5,0.7,0.2,0.372901245934204,"true"
"image-keyboard-response",379,290701,"0.0-4.122-1.122","3pvqvuz9hfwum7v",873,"60.csv","","null","resources/maskTrios/BT4B.jpg","null","",NA,NA,NA,NA,""
"image-keyboard-response",380,291916,"0.0-4.122-2.122","3pvqvuz9hfwum7v",873,"60.csv","","null","resources/images/coin2.png","null","",NA,NA,NA,NA,""
"image-keyboard-response",381,292221,"0.0-4.123-0.123","3pvqvuz9hfwum7v",873,"60.csv","","303.59999990463257","resources/trios/L1T4A3.jpg","38","restless",0.5,0.7,0.2,0.0472467447474383,"true"
"image-keyboard-response",382,292626,"0.0-4.123-1.123","3pvqvuz9hfwum7v",873,"60.csv","","null","resources/maskTrios/BT4B.jpg","null","",NA,NA,NA,NA,""
"image-keyboard-response",383,293837,"0.0-4.123-2.123","3pvqvuz9hfwum7v",873,"60.csv","","null","resources/images/coin2.png","null","",NA,NA,NA,NA,""
"image-keyboard-response",384,294043,"0.0-4.124-0.124","3pvqvuz9hfwum7v",873,"60.csv","","205.39999985694885","resources/trios/L1T4A3.jpg","38","restless",0.5,0.7,0.2,0.188755102168908,"true"
"image-keyboard-response",385,294449,"0.0-4.124-1.124","3pvqvuz9hfwum7v",873,"60.csv","","null","resources/maskTrios/BT4B.jpg","null","",NA,NA,NA,NA,""
"image-keyboard-response",386,295664,"0.0-4.124-2.124","3pvqvuz9hfwum7v",873,"60.csv","","null","resources/images/coin2.png","null","",NA,NA,NA,NA,""
"image-keyboard-response",387,296036,"0.0-4.125-0.125","3pvqvuz9hfwum7v",873,"60.csv","","371.7000000476837","resources/trios/L1T4A3.jpg","38","restless",0.5,0.7,0.2,0.980395769517352,"false"
"image-keyboard-response",388,296443,"0.0-4.125-1.125","3pvqvuz9hfwum7v",873,"60.csv","","null","resources/maskTrios/BT4B.jpg","null","",NA,NA,NA,NA,""
"image-keyboard-response",389,297656,"0.0-4.125-2.125","3pvqvuz9hfwum7v",873,"60.csv","","null","resources/images/fishbone.png","null","",NA,NA,NA,NA,""
"image-keyboard-response",390,297908,"0.0-4.126-0.126","3pvqvuz9hfwum7v",873,"60.csv","","250.60000014305115","resources/trios/L1T4A3.jpg","37","restless",0.5,0.7,0.2,0.704571076167899,"false"
"image-keyboard-response",391,298324,"0.0-4.126-1.126","3pvqvuz9hfwum7v",873,"60.csv","","null","resources/maskTrios/L1BB.jpg","null","",NA,NA,NA,NA,""
"image-keyboard-response",392,299539,"0.0-4.126-2.126","3pvqvuz9hfwum7v",873,"60.csv","","null","resources/images/fishbone.png","null","",NA,NA,NA,NA,""
"image-keyboard-response",393,299813,"0.0-4.127-0.127","3pvqvuz9hfwum7v",873,"60.csv","","271.69999980926514","resources/trios/L1T4A3.jpg","39","restless",0.5,0.7,0.2,0.825732970198566,"false"
"image-keyboard-response",394,300224,"0.0-4.127-1.127","3pvqvuz9hfwum7v",873,"60.csv","","null","resources/maskTrios/BBA3.jpg","null","",NA,NA,NA,NA,""
"image-keyboard-response",395,301432,"0.0-4.127-2.127","3pvqvuz9hfwum7v",873,"60.csv","","null","resources/images/fishbone.png","null","",NA,NA,NA,NA,""
"image-keyboard-response",396,301469,"0.0-4.128-0.128","3pvqvuz9hfwum7v",873,"60.csv","","35.299999952316284","resources/trios/L1T4A3.jpg","38","restless",0.5,0.7,0.2,0.450610795111449,"true"
"image-keyboard-response",397,301884,"0.0-4.128-1.128","3pvqvuz9hfwum7v",873,"60.csv","","null","resources/maskTrios/BT4B.jpg","null","",NA,NA,NA,NA,""
"image-keyboard-response",398,303089,"0.0-4.128-2.128","3pvqvuz9hfwum7v",873,"60.csv","","null","resources/images/coin2.png","null","",NA,NA,NA,NA,""
"image-keyboard-response",399,303325,"0.0-4.129-0.129","3pvqvuz9hfwum7v",873,"60.csv","","234","resources/trios/L1T4A3.jpg","38","restless",0.5,0.7,0.2,0.33233001222846,"true"
"image-keyboard-response",400,303728,"0.0-4.129-1.129","3pvqvuz9hfwum7v",873,"60.csv","","null","resources/maskTrios/BT4B.jpg","null","",NA,NA,NA,NA,""
"image-keyboard-response",401,304941,"0.0-4.129-2.129","3pvqvuz9hfwum7v",873,"60.csv","","null","resources/images/coin2.png","null","",NA,NA,NA,NA,""
"image-keyboard-response",402,305181,"0.0-4.130-0.130","3pvqvuz9hfwum7v",873,"60.csv","","238.39999985694885","resources/trios/L1T4A3.jpg","38","restless",0.4,0.6,0.2,0.6542325058842,"false"
"image-keyboard-response",403,305592,"0.0-4.130-1.130","3pvqvuz9hfwum7v",873,"60.csv","","null","resources/maskTrios/BT4B.jpg","null","",NA,NA,NA,NA,""
"image-keyboard-response",404,306807,"0.0-4.130-2.130","3pvqvuz9hfwum7v",873,"60.csv","","null","resources/images/fishbone.png","null","",NA,NA,NA,NA,""
"image-keyboard-response",405,307052,"0.0-4.131-0.131","3pvqvuz9hfwum7v",873,"60.csv","","243.69999980926514","resources/trios/L1T4A3.jpg","37","restless",0.4,0.6,0.2,0.517465331009537,"false"
"image-keyboard-response",406,307459,"0.0-4.131-1.131","3pvqvuz9hfwum7v",873,"60.csv","","null","resources/maskTrios/L1BB.jpg","null","",NA,NA,NA,NA,""
"image-keyboard-response",407,308669,"0.0-4.131-2.131","3pvqvuz9hfwum7v",873,"60.csv","","null","resources/images/fishbone.png","null","",NA,NA,NA,NA,""
"image-keyboard-response",408,308869,"0.0-4.132-0.132","3pvqvuz9hfwum7v",873,"60.csv","","198.79999995231628","resources/trios/L1T4A3.jpg","39","restless",0.4,0.6,0.2,0.35000902385772,"false"
"image-keyboard-response",409,309275,"0.0-4.132-1.132","3pvqvuz9hfwum7v",873,"60.csv","","null","resources/maskTrios/BBA3.jpg","null","",NA,NA,NA,NA,""
"image-keyboard-response",410,310481,"0.0-4.132-2.132","3pvqvuz9hfwum7v",873,"60.csv","","null","resources/images/fishbone.png","null","",NA,NA,NA,NA,""
"image-keyboard-response",411,310740,"0.0-4.133-0.133","3pvqvuz9hfwum7v",873,"60.csv","","257.09999990463257","resources/trios/L1T4A3.jpg","37","restless",0.4,0.6,0.2,0.168064773634773,"true"
"image-keyboard-response",412,311143,"0.0-4.133-1.133","3pvqvuz9hfwum7v",873,"60.csv","","null","resources/maskTrios/L1BB.jpg","null","",NA,NA,NA,NA,""
"image-keyboard-response",413,312358,"0.0-4.133-2.133","3pvqvuz9hfwum7v",873,"60.csv","","null","resources/images/coin2.png","null","",NA,NA,NA,NA,""
"image-keyboard-response",414,312565,"0.0-4.134-0.134","3pvqvuz9hfwum7v",873,"60.csv","","205.5","resources/trios/L1T4A3.jpg","37","restless",0.5,0.6,0.2,0.863822145388027,"false"
"image-keyboard-response",415,312982,"0.0-4.134-1.134","3pvqvuz9hfwum7v",873,"60.csv","","null","resources/maskTrios/L1BB.jpg","null","",NA,NA,NA,NA,""
"image-keyboard-response",416,314191,"0.0-4.134-2.134","3pvqvuz9hfwum7v",873,"60.csv","","null","resources/images/fishbone.png","null","",NA,NA,NA,NA,""
"image-keyboard-response",417,314437,"0.0-4.135-0.135","3pvqvuz9hfwum7v",873,"60.csv","","244.40000009536743","resources/trios/L1T4A3.jpg","38","restless",0.5,0.6,0.2,0.104928301899611,"true"
"image-keyboard-response",418,314843,"0.0-4.135-1.135","3pvqvuz9hfwum7v",873,"60.csv","","null","resources/maskTrios/BT4B.jpg","null","",NA,NA,NA,NA,""
"image-keyboard-response",419,316059,"0.0-4.135-2.135","3pvqvuz9hfwum7v",873,"60.csv","","null","resources/images/coin2.png","null","",NA,NA,NA,NA,""
"image-keyboard-response",420,316213,"0.0-4.136-0.136","3pvqvuz9hfwum7v",873,"60.csv","","152.40000009536743","resources/trios/L1T4A3.jpg","38","restless",0.5,0.6,0.2,0.128277678930611,"true"
"image-keyboard-response",421,316624,"0.0-4.136-1.136","3pvqvuz9hfwum7v",873,"60.csv","","null","resources/maskTrios/BT4B.jpg","null","",NA,NA,NA,NA,""
"image-keyboard-response",422,317837,"0.0-4.136-2.136","3pvqvuz9hfwum7v",873,"60.csv","","null","resources/images/coin2.png","null","",NA,NA,NA,NA,""
"image-keyboard-response",423,318006,"0.0-4.137-0.137","3pvqvuz9hfwum7v",873,"60.csv","","167.90000009536743","resources/trios/L1T4A3.jpg","38","restless",0.5,0.5,0.2,0.848264467095456,"false"
"image-keyboard-response",424,318412,"0.0-4.137-1.137","3pvqvuz9hfwum7v",873,"60.csv","","null","resources/maskTrios/BT4B.jpg","null","",NA,NA,NA,NA,""
"image-keyboard-response",425,319623,"0.0-4.137-2.137","3pvqvuz9hfwum7v",873,"60.csv","","null","resources/images/fishbone.png","null","",NA,NA,NA,NA,""
"image-keyboard-response",426,319875,"0.0-4.138-0.138","3pvqvuz9hfwum7v",873,"60.csv","","251.39999985694885","resources/trios/L1T4A3.jpg","37","restless",0.4,0.5,0.2,0.437575197888876,"false"
"image-keyboard-response",427,320291,"0.0-4.138-1.138","3pvqvuz9hfwum7v",873,"60.csv","","null","resources/maskTrios/L1BB.jpg","null","",NA,NA,NA,NA,""
"image-keyboard-response",428,321508,"0.0-4.138-2.138","3pvqvuz9hfwum7v",873,"60.csv","","null","resources/images/fishbone.png","null","",NA,NA,NA,NA,""
"image-keyboard-response",429,321709,"0.0-4.139-0.139","3pvqvuz9hfwum7v",873,"60.csv","","199.60000014305115","resources/trios/L1T4A3.jpg","39","restless",0.4,0.5,0.2,0.910159223767515,"false"
"image-keyboard-response",430,322113,"0.0-4.139-1.139","3pvqvuz9hfwum7v",873,"60.csv","","null","resources/maskTrios/BBA3.jpg","null","",NA,NA,NA,NA,""
"image-keyboard-response",431,323326,"0.0-4.139-2.139","3pvqvuz9hfwum7v",873,"60.csv","","null","resources/images/fishbone.png","null","",NA,NA,NA,NA,""
"image-keyboard-response",432,323381,"0.0-4.140-0.140","3pvqvuz9hfwum7v",873,"60.csv","","52.59999990463257","resources/trios/L1T4A3.jpg","38","restless",0.4,0.5,0.2,0.370473718245556,"true"
"image-keyboard-response",433,323792,"0.0-4.140-1.140","3pvqvuz9hfwum7v",873,"60.csv","","null","resources/maskTrios/BT4B.jpg","null","",NA,NA,NA,NA,""
"image-keyboard-response",434,325004,"0.0-4.140-2.140","3pvqvuz9hfwum7v",873,"60.csv","","null","resources/images/coin2.png","null","",NA,NA,NA,NA,""
"image-keyboard-response",435,325373,"0.0-4.141-0.141","3pvqvuz9hfwum7v",873,"60.csv","","367.2000000476837","resources/trios/L1T4A3.jpg","38","restless",0.4,0.5,0.2,0.959256660491947,"false"
"image-keyboard-response",436,325787,"0.0-4.141-1.141","3pvqvuz9hfwum7v",873,"60.csv","","null","resources/maskTrios/BT4B.jpg","null","",NA,NA,NA,NA,""
"image-keyboard-response",437,327004,"0.0-4.141-2.141","3pvqvuz9hfwum7v",873,"60.csv","","null","resources/images/fishbone.png","null","",NA,NA,NA,NA,""
"image-keyboard-response",438,327068,"0.0-4.142-0.142","3pvqvuz9hfwum7v",873,"60.csv","","64","resources/trios/L1T4A3.jpg","37","restless",0.4,0.5,0.2,0.207396741081387,"true"
"image-keyboard-response",439,327470,"0.0-4.142-1.142","3pvqvuz9hfwum7v",873,"60.csv","","null","resources/maskTrios/L1BB.jpg","null","",NA,NA,NA,NA,""
"image-keyboard-response",440,328683,"0.0-4.142-2.142","3pvqvuz9hfwum7v",873,"60.csv","","null","resources/images/coin2.png","null","",NA,NA,NA,NA,""
"image-keyboard-response",441,328877,"0.0-4.143-0.143","3pvqvuz9hfwum7v",873,"60.csv","","192.5","resources/trios/L1T4A3.jpg","37","restless",0.4,0.5,0.2,0.621952081928653,"false"
"image-keyboard-response",442,329291,"0.0-4.143-1.143","3pvqvuz9hfwum7v",873,"60.csv","","null","resources/maskTrios/L1BB.jpg","null","",NA,NA,NA,NA,""
"image-keyboard-response",443,330508,"0.0-4.143-2.143","3pvqvuz9hfwum7v",873,"60.csv","","null","resources/images/fishbone.png","null","",NA,NA,NA,NA,""
"image-keyboard-response",444,330876,"0.0-4.144-0.144","3pvqvuz9hfwum7v",873,"60.csv","","367","resources/trios/L1T4A3.jpg","39","restless",0.4,0.5,0.2,0.219406877055784,"false"
"image-keyboard-response",445,331285,"0.0-4.144-1.144","3pvqvuz9hfwum7v",873,"60.csv","","null","resources/maskTrios/BBA3.jpg","null","",NA,NA,NA,NA,""
"image-keyboard-response",446,332501,"0.0-4.144-2.144","3pvqvuz9hfwum7v",873,"60.csv","","null","resources/images/fishbone.png","null","",NA,NA,NA,NA,""
"image-keyboard-response",447,332717,"0.0-4.145-0.145","3pvqvuz9hfwum7v",873,"60.csv","","215.40000009536743","resources/trios/L1T4A3.jpg","39","restless",0.4,0.5,0.2,0.931047225495758,"false"
"image-keyboard-response",448,333120,"0.0-4.145-1.145","3pvqvuz9hfwum7v",873,"60.csv","","null","resources/maskTrios/BBA3.jpg","null","",NA,NA,NA,NA,""
"image-keyboard-response",449,334332,"0.0-4.145-2.145","3pvqvuz9hfwum7v",873,"60.csv","","null","resources/images/fishbone.png","null","",NA,NA,NA,NA,""
"image-keyboard-response",450,334613,"0.0-4.146-0.146","3pvqvuz9hfwum7v",873,"60.csv","","279.39999985694885","resources/trios/L1T4A3.jpg","37","restless",0.4,0.5,0.2,0.018424087047656,"true"
"image-keyboard-response",451,335015,"0.0-4.146-1.146","3pvqvuz9hfwum7v",873,"60.csv","","null","resources/maskTrios/L1BB.jpg","null","",NA,NA,NA,NA,""
"image-keyboard-response",452,336222,"0.0-4.146-2.146","3pvqvuz9hfwum7v",873,"60.csv","","null","resources/images/coin2.png","null","",NA,NA,NA,NA,""
"image-keyboard-response",453,336540,"0.0-4.147-0.147","3pvqvuz9hfwum7v",873,"60.csv","","316.90000009536743","resources/trios/L1T4A3.jpg","37","restless",0.4,0.5,0.2,0.99503431663582,"false"
"image-keyboard-response",454,336954,"0.0-4.147-1.147","3pvqvuz9hfwum7v",873,"60.csv","","null","resources/maskTrios/L1BB.jpg","null","",NA,NA,NA,NA,""
"image-keyboard-response",455,338169,"0.0-4.147-2.147","3pvqvuz9hfwum7v",873,"60.csv","","null","resources/images/fishbone.png","null","",NA,NA,NA,NA,""
"image-keyboard-response",456,338469,"0.0-4.148-0.148","3pvqvuz9hfwum7v",873,"60.csv","","299.09999990463257","resources/trios/L1T4A3.jpg","38","restless",0.4,0.5,0.2,0.835721826674937,"false"
"image-keyboard-response",457,338882,"0.0-4.148-1.148","3pvqvuz9hfwum7v",873,"60.csv","","null","resources/maskTrios/BT4B.jpg","null","",NA,NA,NA,NA,""
"image-keyboard-response",458,340090,"0.0-4.148-2.148","3pvqvuz9hfwum7v",873,"60.csv","","null","resources/images/fishbone.png","null","",NA,NA,NA,NA,""
"image-keyboard-response",459,340537,"0.0-4.149-0.149","3pvqvuz9hfwum7v",873,"60.csv","","445.5","resources/trios/L1T4A3.jpg","38","restless",0.4,0.5,0.2,0.0918203997302429,"true"
"image-keyboard-response",460,340943,"0.0-4.149-1.149","3pvqvuz9hfwum7v",873,"60.csv","","null","resources/maskTrios/BT4B.jpg","null","",NA,NA,NA,NA,""
"image-keyboard-response",461,342157,"0.0-4.149-2.149","3pvqvuz9hfwum7v",873,"60.csv","","null","resources/images/coin2.png","null","",NA,NA,NA,NA,""
"image-keyboard-response",462,342533,"0.0-4.150-0.150","3pvqvuz9hfwum7v",873,"60.csv","","374.09999990463257","resources/trios/L1T4A3.jpg","38","restless",0.4,0.4,0.2,0.322474219170218,"true"
"image-keyboard-response",463,342944,"0.0-4.150-1.150","3pvqvuz9hfwum7v",873,"60.csv","","null","resources/maskTrios/BT4B.jpg","null","",NA,NA,NA,NA,""
"image-keyboard-response",464,344147,"0.0-4.150-2.150","3pvqvuz9hfwum7v",873,"60.csv","","null","resources/images/coin2.png","null","",NA,NA,NA,NA,""
"image-keyboard-response",465,344509,"0.0-4.151-0.151","3pvqvuz9hfwum7v",873,"60.csv","","359.2000000476837","resources/trios/L1T4A3.jpg","38","restless",0.4,0.4,0.2,0.447856458584565,"false"
"image-keyboard-response",466,344924,"0.0-4.151-1.151","3pvqvuz9hfwum7v",873,"60.csv","","null","resources/maskTrios/BT4B.jpg","null","",NA,NA,NA,NA,""
"image-keyboard-response",467,346138,"0.0-4.151-2.151","3pvqvuz9hfwum7v",873,"60.csv","","null","resources/images/fishbone.png","null","",NA,NA,NA,NA,""
"image-keyboard-response",468,346276,"0.0-4.152-0.152","3pvqvuz9hfwum7v",873,"60.csv","","137","resources/trios/L1T4A3.jpg","37","restless",0.4,0.4,0.2,0.739890784072141,"false"
"image-keyboard-response",469,346681,"0.0-4.152-1.152","3pvqvuz9hfwum7v",873,"60.csv","","null","resources/maskTrios/L1BB.jpg","null","",NA,NA,NA,NA,""
"image-keyboard-response",470,347896,"0.0-4.152-2.152","3pvqvuz9hfwum7v",873,"60.csv","","null","resources/images/fishbone.png","null","",NA,NA,NA,NA,""
"image-keyboard-response",471,348253,"0.0-4.153-0.153","3pvqvuz9hfwum7v",873,"60.csv","","356.09999990463257","resources/trios/L1T4A3.jpg","39","restless",0.4,0.4,0.2,0.562007486923302,"false"
"image-keyboard-response",472,348663,"0.0-4.153-1.153","3pvqvuz9hfwum7v",873,"60.csv","","null","resources/maskTrios/BBA3.jpg","null","",NA,NA,NA,NA,""
"image-keyboard-response",473,349881,"0.0-4.153-2.153","3pvqvuz9hfwum7v",873,"60.csv","","null","resources/images/fishbone.png","null","",NA,NA,NA,NA,""
"image-keyboard-response",474,350157,"0.0-4.154-0.154","3pvqvuz9hfwum7v",873,"60.csv","","274.30000019073486","resources/trios/L1T4A3.jpg","39","restless",0.5,0.4,0.2,0.706751463989329,"false"
"image-keyboard-response",475,350569,"0.0-4.154-1.154","3pvqvuz9hfwum7v",873,"60.csv","","null","resources/maskTrios/BBA3.jpg","null","",NA,NA,NA,NA,""
"image-keyboard-response",476,351785,"0.0-4.154-2.154","3pvqvuz9hfwum7v",873,"60.csv","","null","resources/images/fishbone.png","null","",NA,NA,NA,NA,""
"image-keyboard-response",477,351965,"0.0-4.155-0.155","3pvqvuz9hfwum7v",873,"60.csv","","178.09999990463257","resources/trios/L1T4A3.jpg","37","restless",0.5,0.4,0.2,0.880164130965513,"false"
"image-keyboard-response",478,352375,"0.0-4.155-1.155","3pvqvuz9hfwum7v",873,"60.csv","","null","resources/maskTrios/L1BB.jpg","null","",NA,NA,NA,NA,""
"image-keyboard-response",479,353591,"0.0-4.155-2.155","3pvqvuz9hfwum7v",873,"60.csv","","null","resources/images/fishbone.png","null","",NA,NA,NA,NA,""
"image-keyboard-response",480,354115,"0.0-4.156-0.156","3pvqvuz9hfwum7v",873,"60.csv","","523.1000001430511","resources/trios/L1T4A3.jpg","38","restless",0.5,0.4,0.2,0.794362150044231,"false"
"image-keyboard-response",481,354517,"0.0-4.156-1.156","3pvqvuz9hfwum7v",873,"60.csv","","null","resources/maskTrios/BT4B.jpg","null","",NA,NA,NA,NA,""
"image-keyboard-response",482,355732,"0.0-4.156-2.156","3pvqvuz9hfwum7v",873,"60.csv","","null","resources/images/fishbone.png","null","",NA,NA,NA,NA,""
"image-keyboard-response",483,355987,"0.0-4.157-0.157","3pvqvuz9hfwum7v",873,"60.csv","","254.09999990463257","resources/trios/L1T4A3.jpg","39","restless",0.5,0.4,0.2,0.588031239497593,"false"
"image-keyboard-response",484,356400,"0.0-4.157-1.157","3pvqvuz9hfwum7v",873,"60.csv","","null","resources/maskTrios/BBA3.jpg","null","",NA,NA,NA,NA,""
"image-keyboard-response",485,357610,"0.0-4.157-2.157","3pvqvuz9hfwum7v",873,"60.csv","","null","resources/images/fishbone.png","null","",NA,NA,NA,NA,""
"image-keyboard-response",486,357779,"0.0-4.158-0.158","3pvqvuz9hfwum7v",873,"60.csv","","169.19999980926514","resources/trios/L1T4A3.jpg","38","restless",0.6,0.4,0.2,0.819556389972511,"false"
"image-keyboard-response",487,358195,"0.0-4.158-1.158","3pvqvuz9hfwum7v",873,"60.csv","","null","resources/maskTrios/BT4B.jpg","null","",NA,NA,NA,NA,""
"image-keyboard-response",488,359402,"0.0-4.158-2.158","3pvqvuz9hfwum7v",873,"60.csv","","null","resources/images/fishbone.png","null","",NA,NA,NA,NA,""
"image-keyboard-response",489,359547,"0.0-4.159-0.159","3pvqvuz9hfwum7v",873,"60.csv","","144.59999990463257","resources/trios/L1T4A3.jpg","37","restless",0.7,0.4,0.2,0.331504578131957,"true"
"image-keyboard-response",490,359956,"0.0-4.159-1.159","3pvqvuz9hfwum7v",873,"60.csv","","null","resources/maskTrios/L1BB.jpg","null","",NA,NA,NA,NA,""
"image-keyboard-response",491,361172,"0.0-4.159-2.159","3pvqvuz9hfwum7v",873,"60.csv","","null","resources/images/coin2.png","null","",NA,NA,NA,NA,""
"image-keyboard-response",492,361467,"0.0-4.160-0.160","3pvqvuz9hfwum7v",873,"60.csv","","294","resources/trios/L1T4A3.jpg","37","restless",0.7,0.4,0.2,0.11151910020467,"true"
"image-keyboard-response",493,361875,"0.0-4.160-1.160","3pvqvuz9hfwum7v",873,"60.csv","","null","resources/maskTrios/L1BB.jpg","null","",NA,NA,NA,NA,""
"image-keyboard-response",494,363081,"0.0-4.160-2.160","3pvqvuz9hfwum7v",873,"60.csv","","null","resources/images/coin2.png","null","",NA,NA,NA,NA,""
"image-keyboard-response",495,363340,"0.0-4.161-0.161","3pvqvuz9hfwum7v",873,"60.csv","","258","resources/trios/L1T4A3.jpg","37","restless",0.7,0.4,0.2,0.123718019254205,"true"
"image-keyboard-response",496,363745,"0.0-4.161-1.161","3pvqvuz9hfwum7v",873,"60.csv","","null","resources/maskTrios/L1BB.jpg","null","",NA,NA,NA,NA,""
"image-keyboard-response",497,364961,"0.0-4.161-2.161","3pvqvuz9hfwum7v",873,"60.csv","","null","resources/images/coin2.png","null","",NA,NA,NA,NA,""
"image-keyboard-response",498,365203,"0.0-4.162-0.162","3pvqvuz9hfwum7v",873,"60.csv","","241.79999995231628","resources/trios/L1T4A3.jpg","37","restless",0.7,0.4,0.3,0.296560419828292,"true"
"image-keyboard-response",499,365609,"0.0-4.162-1.162","3pvqvuz9hfwum7v",873,"60.csv","","null","resources/maskTrios/L1BB.jpg","null","",NA,NA,NA,NA,""
"image-keyboard-response",500,366811,"0.0-4.162-2.162","3pvqvuz9hfwum7v",873,"60.csv","","null","resources/images/coin2.png","null","",NA,NA,NA,NA,""
"image-keyboard-response",501,367324,"0.0-4.163-0.163","3pvqvuz9hfwum7v",873,"60.csv","","511.89999985694885","resources/trios/L1T4A3.jpg","37","restless",0.7,0.4,0.3,0.702817874169412,"false"
"image-keyboard-response",502,367739,"0.0-4.163-1.163","3pvqvuz9hfwum7v",873,"60.csv","","null","resources/maskTrios/L1BB.jpg","null","",NA,NA,NA,NA,""
"image-keyboard-response",503,368950,"0.0-4.163-2.163","3pvqvuz9hfwum7v",873,"60.csv","","null","resources/images/fishbone.png","null","",NA,NA,NA,NA,""
"image-keyboard-response",504,369228,"0.0-4.164-0.164","3pvqvuz9hfwum7v",873,"60.csv","","276.59999990463257","resources/trios/L1T4A3.jpg","39","restless",0.7,0.4,0.3,0.83719186879504,"false"
"image-keyboard-response",505,369633,"0.0-4.164-1.164","3pvqvuz9hfwum7v",873,"60.csv","","null","resources/maskTrios/BBA3.jpg","null","",NA,NA,NA,NA,""
"image-keyboard-response",506,370837,"0.0-4.164-2.164","3pvqvuz9hfwum7v",873,"60.csv","","null","resources/images/fishbone.png","null","",NA,NA,NA,NA,""
"image-keyboard-response",507,371244,"0.0-4.165-0.165","3pvqvuz9hfwum7v",873,"60.csv","","405.60000014305115","resources/trios/L1T4A3.jpg","39","restless",0.7,0.4,0.3,0.539851417441833,"false"
"image-keyboard-response",508,371652,"0.0-4.165-1.165","3pvqvuz9hfwum7v",873,"60.csv","","null","resources/maskTrios/BBA3.jpg","null","",NA,NA,NA,NA,""
"image-keyboard-response",509,372863,"0.0-4.165-2.165","3pvqvuz9hfwum7v",873,"60.csv","","null","resources/images/fishbone.png","null","",NA,NA,NA,NA,""
"image-keyboard-response",510,373412,"0.0-4.166-0.166","3pvqvuz9hfwum7v",873,"60.csv","","548.0999999046326","resources/trios/L1T4A3.jpg","38","restless",0.7,0.4,0.3,0.981222327691847,"false"
"image-keyboard-response",511,373828,"0.0-4.166-1.166","3pvqvuz9hfwum7v",873,"60.csv","","null","resources/maskTrios/BT4B.jpg","null","",NA,NA,NA,NA,""
"image-keyboard-response",512,375029,"0.0-4.166-2.166","3pvqvuz9hfwum7v",873,"60.csv","","null","resources/images/fishbone.png","null","",NA,NA,NA,NA,""
"image-keyboard-response",513,375363,"0.0-4.167-0.167","3pvqvuz9hfwum7v",873,"60.csv","","333.69999980926514","resources/trios/L1T4A3.jpg","38","restless",0.7,0.4,0.3,0.675684023898168,"false"
"image-keyboard-response",514,375768,"0.0-4.167-1.167","3pvqvuz9hfwum7v",873,"60.csv","","null","resources/maskTrios/BT4B.jpg","null","",NA,NA,NA,NA,""
"image-keyboard-response",515,376976,"0.0-4.167-2.167","3pvqvuz9hfwum7v",873,"60.csv","","null","resources/images/fishbone.png","null","",NA,NA,NA,NA,""
"image-keyboard-response",516,377459,"0.0-4.168-0.168","3pvqvuz9hfwum7v",873,"60.csv","","482.39999985694885","resources/trios/L1T4A3.jpg","37","restless",0.7,0.4,0.3,0.83680510113592,"false"
"image-keyboard-response",517,377862,"0.0-4.168-1.168","3pvqvuz9hfwum7v",873,"60.csv","","null","resources/maskTrios/L1BB.jpg","null","",NA,NA,NA,NA,""
"image-keyboard-response",518,379073,"0.0-4.168-2.168","3pvqvuz9hfwum7v",873,"60.csv","","null","resources/images/fishbone.png","null","",NA,NA,NA,NA,""
"image-keyboard-response",519,379331,"0.0-4.169-0.169","3pvqvuz9hfwum7v",873,"60.csv","","257.7000000476837","resources/trios/L1T4A3.jpg","37","restless",0.7,0.4,0.4,0.435750096650867,"true"
"image-keyboard-response",520,379734,"0.0-4.169-1.169","3pvqvuz9hfwum7v",873,"60.csv","","null","resources/maskTrios/L1BB.jpg","null","",NA,NA,NA,NA,""
"image-keyboard-response",521,380942,"0.0-4.169-2.169","3pvqvuz9hfwum7v",873,"60.csv","","null","resources/images/coin2.png","null","",NA,NA,NA,NA,""
"image-keyboard-response",522,381243,"0.0-4.170-0.170","3pvqvuz9hfwum7v",873,"60.csv","","300.7000000476837","resources/trios/L1T4A3.jpg","37","restless",0.7,0.4,0.4,0.0130341592668171,"true"
"image-keyboard-response",523,381645,"0.0-4.170-1.170","3pvqvuz9hfwum7v",873,"60.csv","","null","resources/maskTrios/L1BB.jpg","null","",NA,NA,NA,NA,""
"image-keyboard-response",524,382848,"0.0-4.170-2.170","3pvqvuz9hfwum7v",873,"60.csv","","null","resources/images/coin2.png","null","",NA,NA,NA,NA,""
"image-keyboard-response",525,383141,"0.0-4.171-0.171","3pvqvuz9hfwum7v",873,"60.csv","","292","resources/trios/L1T4A3.jpg","37","restless",0.7,0.4,0.5,0.993410352424419,"false"
"image-keyboard-response",526,383554,"0.0-4.171-1.171","3pvqvuz9hfwum7v",873,"60.csv","","null","resources/maskTrios/L1BB.jpg","null","",NA,NA,NA,NA,""
"image-keyboard-response",527,384766,"0.0-4.171-2.171","3pvqvuz9hfwum7v",873,"60.csv","","null","resources/images/fishbone.png","null","",NA,NA,NA,NA,""
"image-keyboard-response",528,385061,"0.0-4.172-0.172","3pvqvuz9hfwum7v",873,"60.csv","","293.40000009536743","resources/trios/L1T4A3.jpg","39","restless",0.6,0.4,0.5,0.261904911586608,"true"
"image-keyboard-response",529,385466,"0.0-4.172-1.172","3pvqvuz9hfwum7v",873,"60.csv","","null","resources/maskTrios/BBA3.jpg","null","",NA,NA,NA,NA,""
"image-keyboard-response",530,386680,"0.0-4.172-2.172","3pvqvuz9hfwum7v",873,"60.csv","","null","resources/images/coin2.png","null","",NA,NA,NA,NA,""
"image-keyboard-response",531,386931,"0.0-4.173-0.173","3pvqvuz9hfwum7v",873,"60.csv","","249.90000009536743","resources/trios/L1T4A3.jpg","39","restless",0.6,0.4,0.5,0.00875004718059635,"true"
"image-keyboard-response",532,387333,"0.0-4.173-1.173","3pvqvuz9hfwum7v",873,"60.csv","","null","resources/maskTrios/BBA3.jpg","null","",NA,NA,NA,NA,""
"image-keyboard-response",533,388543,"0.0-4.173-2.173","3pvqvuz9hfwum7v",873,"60.csv","","null","resources/images/coin2.png","null","",NA,NA,NA,NA,""
"image-keyboard-response",534,388797,"0.0-4.174-0.174","3pvqvuz9hfwum7v",873,"60.csv","","252.59999990463257","resources/trios/L1T4A3.jpg","39","restless",0.6,0.4,0.5,0.478144671941518,"true"
"image-keyboard-response",535,389212,"0.0-4.174-1.174","3pvqvuz9hfwum7v",873,"60.csv","","null","resources/maskTrios/BBA3.jpg","null","",NA,NA,NA,NA,""
"image-keyboard-response",536,390416,"0.0-4.174-2.174","3pvqvuz9hfwum7v",873,"60.csv","","null","resources/images/coin2.png","null","",NA,NA,NA,NA,""
"image-keyboard-response",537,390645,"0.0-4.175-0.175","3pvqvuz9hfwum7v",873,"60.csv","","227.20000004768372","resources/trios/L1T4A3.jpg","39","restless",0.7,0.4,0.5,0.422814102842622,"true"
"image-keyboard-response",538,391054,"0.0-4.175-1.175","3pvqvuz9hfwum7v",873,"60.csv","","null","resources/maskTrios/BBA3.jpg","null","",NA,NA,NA,NA,""
"image-keyboard-response",539,392268,"0.0-4.175-2.175","3pvqvuz9hfwum7v",873,"60.csv","","null","resources/images/coin2.png","null","",NA,NA,NA,NA,""
"image-keyboard-response",540,392509,"0.0-4.176-0.176","3pvqvuz9hfwum7v",873,"60.csv","","238.60000014305115","resources/trios/L1T4A3.jpg","39","restless",0.7,0.4,0.5,0.291141930758557,"true"
"image-keyboard-response",541,392924,"0.0-4.176-1.176","3pvqvuz9hfwum7v",873,"60.csv","","null","resources/maskTrios/BBA3.jpg","null","",NA,NA,NA,NA,""
"image-keyboard-response",542,394139,"0.0-4.176-2.176","3pvqvuz9hfwum7v",873,"60.csv","","null","resources/images/coin2.png","null","",NA,NA,NA,NA,""
"image-keyboard-response",543,394237,"0.0-4.177-0.177","3pvqvuz9hfwum7v",873,"60.csv","","95.79999995231628","resources/trios/L1T4A3.jpg","39","restless",0.7,0.4,0.5,0.571147080614923,"false"
"image-keyboard-response",544,394654,"0.0-4.177-1.177","3pvqvuz9hfwum7v",873,"60.csv","","null","resources/maskTrios/BBA3.jpg","null","",NA,NA,NA,NA,""
"image-keyboard-response",545,395870,"0.0-4.177-2.177","3pvqvuz9hfwum7v",873,"60.csv","","null","resources/images/fishbone.png","null","",NA,NA,NA,NA,""
"image-keyboard-response",546,396115,"0.0-4.178-0.178","3pvqvuz9hfwum7v",873,"60.csv","","244.20000004768372","resources/trios/L1T4A3.jpg","37","restless",0.7,0.4,0.5,0.773708666419706,"false"
"image-keyboard-response",547,396523,"0.0-4.178-1.178","3pvqvuz9hfwum7v",873,"60.csv","","null","resources/maskTrios/L1BB.jpg","null","",NA,NA,NA,NA,""
"image-keyboard-response",548,397736,"0.0-4.178-2.178","3pvqvuz9hfwum7v",873,"60.csv","","null","resources/images/fishbone.png","null","",NA,NA,NA,NA,""
"image-keyboard-response",549,397868,"0.0-4.179-0.179","3pvqvuz9hfwum7v",873,"60.csv","","129.59999990463257","resources/trios/L1T4A3.jpg","37","restless",0.7,0.4,0.5,0.194491914130514,"true"
"image-keyboard-response",550,398274,"0.0-4.179-1.179","3pvqvuz9hfwum7v",873,"60.csv","","null","resources/maskTrios/L1BB.jpg","null","",NA,NA,NA,NA,""
"image-keyboard-response",551,399488,"0.0-4.179-2.179","3pvqvuz9hfwum7v",873,"60.csv","","null","resources/images/coin2.png","null","",NA,NA,NA,NA,""
"image-keyboard-response",552,399629,"0.0-4.180-0.180","3pvqvuz9hfwum7v",873,"60.csv","","140.29999995231628","resources/trios/L1T4A3.jpg","37","restless",0.7,0.4,0.5,0.296502146366147,"true"
"image-keyboard-response",553,400031,"0.0-4.180-1.180","3pvqvuz9hfwum7v",873,"60.csv","","null","resources/maskTrios/L1BB.jpg","null","",NA,NA,NA,NA,""
"image-keyboard-response",554,401245,"0.0-4.180-2.180","3pvqvuz9hfwum7v",873,"60.csv","","null","resources/images/coin2.png","null","",NA,NA,NA,NA,""
"image-keyboard-response",555,401284,"0.0-4.181-0.181","3pvqvuz9hfwum7v",873,"60.csv","","38.200000047683716","resources/trios/L1T4A3.jpg","37","restless",0.7,0.4,0.5,0.678225589225702,"true"
"image-keyboard-response",556,401697,"0.0-4.181-1.181","3pvqvuz9hfwum7v",873,"60.csv","","null","resources/maskTrios/L1BB.jpg","null","",NA,NA,NA,NA,""
"image-keyboard-response",557,402910,"0.0-4.181-2.181","3pvqvuz9hfwum7v",873,"60.csv","","null","resources/images/coin2.png","null","",NA,NA,NA,NA,""
"image-keyboard-response",558,403141,"0.0-4.182-0.182","3pvqvuz9hfwum7v",873,"60.csv","","229.5","resources/trios/L1T4A3.jpg","37","restless",0.7,0.4,0.5,0.289432862618366,"true"
"image-keyboard-response",559,403550,"0.0-4.182-1.182","3pvqvuz9hfwum7v",873,"60.csv","","null","resources/maskTrios/L1BB.jpg","null","",NA,NA,NA,NA,""
"image-keyboard-response",560,404766,"0.0-4.182-2.182","3pvqvuz9hfwum7v",873,"60.csv","","null","resources/images/coin2.png","null","",NA,NA,NA,NA,""
"image-keyboard-response",561,405155,"0.0-4.183-0.183","3pvqvuz9hfwum7v",873,"60.csv","","387.7999999523163","resources/trios/L1T4A3.jpg","37","restless",0.7,0.4,0.5,0.41060278302729,"true"
"image-keyboard-response",562,405560,"0.0-4.183-1.183","3pvqvuz9hfwum7v",873,"60.csv","","null","resources/maskTrios/L1BB.jpg","null","",NA,NA,NA,NA,""
"image-keyboard-response",563,406772,"0.0-4.183-2.183","3pvqvuz9hfwum7v",873,"60.csv","","null","resources/images/coin2.png","null","",NA,NA,NA,NA,""
"image-keyboard-response",564,406805,"0.0-4.184-0.184","3pvqvuz9hfwum7v",873,"60.csv","","32.200000047683716","resources/trios/L1T4A3.jpg","37","restless",0.7,0.4,0.5,0.118747542233648,"true"
"image-keyboard-response",565,407210,"0.0-4.184-1.184","3pvqvuz9hfwum7v",873,"60.csv","","null","resources/maskTrios/L1BB.jpg","null","",NA,NA,NA,NA,""
"image-keyboard-response",566,408425,"0.0-4.184-2.184","3pvqvuz9hfwum7v",873,"60.csv","","null","resources/images/coin2.png","null","",NA,NA,NA,NA,""
"image-keyboard-response",567,408805,"0.0-4.185-0.185","3pvqvuz9hfwum7v",873,"60.csv","","379.2000000476837","resources/trios/L1T4A3.jpg","37","restless",0.6,0.4,0.5,0.37181297743876,"true"
"image-keyboard-response",568,409220,"0.0-4.185-1.185","3pvqvuz9hfwum7v",873,"60.csv","","null","resources/maskTrios/L1BB.jpg","null","",NA,NA,NA,NA,""
"image-keyboard-response",569,410433,"0.0-4.185-2.185","3pvqvuz9hfwum7v",873,"60.csv","","null","resources/images/coin2.png","null","",NA,NA,NA,NA,""
"image-keyboard-response",570,410685,"0.0-4.186-0.186","3pvqvuz9hfwum7v",873,"60.csv","","250.10000014305115","resources/trios/L1T4A3.jpg","37","restless",0.5,0.4,0.5,0.956722176208641,"false"
"image-keyboard-response",571,411093,"0.0-4.186-1.186","3pvqvuz9hfwum7v",873,"60.csv","","null","resources/maskTrios/L1BB.jpg","null","",NA,NA,NA,NA,""
"image-keyboard-response",572,412309,"0.0-4.186-2.186","3pvqvuz9hfwum7v",873,"60.csv","","null","resources/images/fishbone.png","null","",NA,NA,NA,NA,""
"image-keyboard-response",573,412364,"0.0-4.187-0.187","3pvqvuz9hfwum7v",873,"60.csv","","52.39999985694885","resources/trios/L1T4A3.jpg","38","restless",0.5,0.4,0.5,0.872659642325839,"false"
"image-keyboard-response",574,412771,"0.0-4.187-1.187","3pvqvuz9hfwum7v",873,"60.csv","","null","resources/maskTrios/BT4B.jpg","null","",NA,NA,NA,NA,""
"image-keyboard-response",575,413986,"0.0-4.187-2.187","3pvqvuz9hfwum7v",873,"60.csv","","null","resources/images/fishbone.png","null","",NA,NA,NA,NA,""
"image-keyboard-response",576,414269,"0.0-4.188-0.188","3pvqvuz9hfwum7v",873,"60.csv","","280.59999990463257","resources/trios/L1T4A3.jpg","39","restless",0.5,0.4,0.5,0.509411003705894,"false"
"image-keyboard-response",577,414671,"0.0-4.188-1.188","3pvqvuz9hfwum7v",873,"60.csv","","null","resources/maskTrios/BBA3.jpg","null","",NA,NA,NA,NA,""
"image-keyboard-response",578,415879,"0.0-4.188-2.188","3pvqvuz9hfwum7v",873,"60.csv","","null","resources/images/fishbone.png","null","",NA,NA,NA,NA,""
"image-keyboard-response",579,416125,"0.0-4.189-0.189","3pvqvuz9hfwum7v",873,"60.csv","","244.20000004768372","resources/trios/L1T4A3.jpg","38","restless",0.5,0.4,0.5,0.151491127298803,"true"
"image-keyboard-response",580,416536,"0.0-4.189-1.189","3pvqvuz9hfwum7v",873,"60.csv","","null","resources/maskTrios/BT4B.jpg","null","",NA,NA,NA,NA,""
"image-keyboard-response",581,417754,"0.0-4.189-2.189","3pvqvuz9hfwum7v",873,"60.csv","","null","resources/images/coin2.png","null","",NA,NA,NA,NA,""
"image-keyboard-response",582,417909,"0.0-4.190-0.190","3pvqvuz9hfwum7v",873,"60.csv","","153","resources/trios/L1T4A3.jpg","38","restless",0.5,0.4,0.5,0.348908167245444,"true"
"image-keyboard-response",583,418316,"0.0-4.190-1.190","3pvqvuz9hfwum7v",873,"60.csv","","null","resources/maskTrios/BT4B.jpg","null","",NA,NA,NA,NA,""
"image-keyboard-response",584,419529,"0.0-4.190-2.190","3pvqvuz9hfwum7v",873,"60.csv","","null","resources/images/coin2.png","null","",NA,NA,NA,NA,""
"image-keyboard-response",585,419772,"0.0-4.191-0.191","3pvqvuz9hfwum7v",873,"60.csv","","241.5","resources/trios/L1T4A3.jpg","38","restless",0.5,0.4,0.5,0.27948861440772,"true"
"image-keyboard-response",586,420186,"0.0-4.191-1.191","3pvqvuz9hfwum7v",873,"60.csv","","null","resources/maskTrios/BT4B.jpg","null","",NA,NA,NA,NA,""
"image-keyboard-response",587,421401,"0.0-4.191-2.191","3pvqvuz9hfwum7v",873,"60.csv","","null","resources/images/coin2.png","null","",NA,NA,NA,NA,""
"image-keyboard-response",588,421692,"0.0-4.192-0.192","3pvqvuz9hfwum7v",873,"60.csv","","289.2000000476837","resources/trios/L1T4A3.jpg","38","restless",0.5,0.4,0.5,0.0575873280355232,"true"
"image-keyboard-response",589,422101,"0.0-4.192-1.192","3pvqvuz9hfwum7v",873,"60.csv","","null","resources/maskTrios/BT4B.jpg","null","",NA,NA,NA,NA,""
"image-keyboard-response",590,423318,"0.0-4.192-2.192","3pvqvuz9hfwum7v",873,"60.csv","","null","resources/images/coin2.png","null","",NA,NA,NA,NA,""
"image-keyboard-response",591,423548,"0.0-4.193-0.193","3pvqvuz9hfwum7v",873,"60.csv","","229.5","resources/trios/L1T4A3.jpg","38","restless",0.5,0.4,0.5,0.348745873958424,"true"
"image-keyboard-response",592,423955,"0.0-4.193-1.193","3pvqvuz9hfwum7v",873,"60.csv","","null","resources/maskTrios/BT4B.jpg","null","",NA,NA,NA,NA,""
"image-keyboard-response",593,425167,"0.0-4.193-2.193","3pvqvuz9hfwum7v",873,"60.csv","","null","resources/images/coin2.png","null","",NA,NA,NA,NA,""
"image-keyboard-response",594,425484,"0.0-4.194-0.194","3pvqvuz9hfwum7v",873,"60.csv","","316.7999999523163","resources/trios/L1T4A3.jpg","38","restless",0.5,0.4,0.5,0.415499192284528,"false"
"image-keyboard-response",595,425898,"0.0-4.194-1.194","3pvqvuz9hfwum7v",873,"60.csv","","null","resources/maskTrios/BT4B.jpg","null","",NA,NA,NA,NA,""
"image-keyboard-response",596,427108,"0.0-4.194-2.194","3pvqvuz9hfwum7v",873,"60.csv","","null","resources/images/fishbone.png","null","",NA,NA,NA,NA,""
"image-keyboard-response",597,427435,"0.0-4.195-0.195","3pvqvuz9hfwum7v",873,"60.csv","","325.7000000476837","resources/trios/L1T4A3.jpg","37","restless",0.5,0.4,0.5,0.18535613453493,"true"
"image-keyboard-response",598,427838,"0.0-4.195-1.195","3pvqvuz9hfwum7v",873,"60.csv","","null","resources/maskTrios/L1BB.jpg","null","",NA,NA,NA,NA,""
"image-keyboard-response",599,429040,"0.0-4.195-2.195","3pvqvuz9hfwum7v",873,"60.csv","","null","resources/images/coin2.png","null","",NA,NA,NA,NA,""
"image-keyboard-response",600,429213,"0.0-4.196-0.196","3pvqvuz9hfwum7v",873,"60.csv","","171.5","resources/trios/L1T4A3.jpg","37","restless",0.5,0.4,0.5,0.730901039969279,"false"
"image-keyboard-response",601,429618,"0.0-4.196-1.196","3pvqvuz9hfwum7v",873,"60.csv","","null","resources/maskTrios/L1BB.jpg","null","",NA,NA,NA,NA,""
"image-keyboard-response",602,430826,"0.0-4.196-2.196","3pvqvuz9hfwum7v",873,"60.csv","","null","resources/images/fishbone.png","null","",NA,NA,NA,NA,""
"image-keyboard-response",603,431084,"0.0-4.197-0.197","3pvqvuz9hfwum7v",873,"60.csv","","257.2000000476837","resources/trios/L1T4A3.jpg","38","restless",0.5,0.4,0.6,0.851693258110826,"false"
"image-keyboard-response",604,431496,"0.0-4.197-1.197","3pvqvuz9hfwum7v",873,"60.csv","","null","resources/maskTrios/BT4B.jpg","null","",NA,NA,NA,NA,""
"image-keyboard-response",605,432710,"0.0-4.197-2.197","3pvqvuz9hfwum7v",873,"60.csv","","null","resources/images/fishbone.png","null","",NA,NA,NA,NA,""
"image-keyboard-response",606,432779,"0.0-4.198-0.198","3pvqvuz9hfwum7v",873,"60.csv","","68.59999990463257","resources/trios/L1T4A3.jpg","39","restless",0.5,0.4,0.6,0.1888485545373,"true"
"image-keyboard-response",607,433192,"0.0-4.198-1.198","3pvqvuz9hfwum7v",873,"60.csv","","null","resources/maskTrios/BBA3.jpg","null","",NA,NA,NA,NA,""
"image-keyboard-response",608,434405,"0.0-4.198-2.198","3pvqvuz9hfwum7v",873,"60.csv","","null","resources/images/coin2.png","null","",NA,NA,NA,NA,""
"image-keyboard-response",609,434613,"0.0-4.199-0.199","3pvqvuz9hfwum7v",873,"60.csv","","205.40000009536743","resources/trios/L1T4A3.jpg","39","restless",0.5,0.4,0.6,0.409770703513074,"true"
"image-keyboard-response",610,435029,"0.0-4.199-1.199","3pvqvuz9hfwum7v",873,"60.csv","","null","resources/maskTrios/BBA3.jpg","null","",NA,NA,NA,NA,""
"image-keyboard-response",611,436245,"0.0-4.199-2.199","3pvqvuz9hfwum7v",873,"60.csv","","null","resources/images/coin2.png","null","",NA,NA,NA,NA,""
"survey-text",612,463432,"0.0-5.0","3pvqvuz9hfwum7v",873,"60.csv","","27183.5","","","",NA,NA,NA,NA,""
