"trial_type","trial_index","time_elapsed","internal_node_id","subject","participantCode","walkNumber","success","rt","stimulus","key_press","test_part","leftProb","midProb","rightProb","generatedNum","correct"
"pavlovia",0,1330,"0.0-0.0","jyksed11mk05608",457,"67.csv","","","","","",NA,NA,NA,NA,""
"fullscreen",1,5982,"0.0-1.0","jyksed11mk05608",457,"67.csv","true","","","","",NA,NA,NA,NA,""
"survey-html-form",2,13571,"0.0-2.0","jyksed11mk05608",457,"67.csv","","7586.4000000003725","","","",NA,NA,NA,NA,""
"image-keyboard-response",3,22792,"0.0-3.0-0.0","jyksed11mk05608",457,"67.csv","","9219.600000000559","resources/images/parrot_nobg.png","13","",NA,NA,NA,NA,""
"image-keyboard-response",4,25798,"0.0-3.0-1.0","jyksed11mk05608",457,"67.csv","","null","resources/image_sets/111.png","null","",NA,NA,NA,NA,""
"image-keyboard-response",5,29710,"0.0-3.0-2.0","jyksed11mk05608",457,"67.csv","","3911.4000000003725","resources/image_sets/left_highlight.png","37","",NA,NA,NA,NA,""
"image-keyboard-response",6,31593,"0.0-3.0-3.0","jyksed11mk05608",457,"67.csv","","1881.800000000745","resources/image_sets/mid_highlight.png","38","",NA,NA,NA,NA,""
"image-keyboard-response",7,33237,"0.0-3.0-4.0","jyksed11mk05608",457,"67.csv","","1642.7000000001863","resources/image_sets/right_highlight.png","39","",NA,NA,NA,NA,""
"image-keyboard-response",8,35818,"0.0-3.0-5.0","jyksed11mk05608",457,"67.csv","","2579.899999999441","resources/image_sets/111.png","13","",NA,NA,NA,NA,""
"image-keyboard-response",9,38688,"0.0-3.0-6.0","jyksed11mk05608",457,"67.csv","","2868.7999999998137","resources/images/coin2.png","13","",NA,NA,NA,NA,""
"image-keyboard-response",10,40573,"0.0-3.0-7.0","jyksed11mk05608",457,"67.csv","","1884.2999999998137","resources/images/fishbone.png","13","",NA,NA,NA,NA,""
"html-keyboard-response",11,45681,"0.0-3.0-8.0","jyksed11mk05608",457,"67.csv","","5106.4000000003725","<p>You can track your coin total on the top right of your screen. </p><p>At the end of your journey you will be directed to a survey, so please click on the link before exiting the task</p><p>Press Enter to begin</p>","13","",NA,NA,NA,NA,""
"image-keyboard-response",12,47486,"0.0-4.0-0.0","jyksed11mk05608",457,"67.csv","","1802.3999999994412","resources/trios/L1T4A3.jpg","39","restless",0.9,0.7,0.3,0.450459187387287,"false"
"image-keyboard-response",13,47890,"0.0-4.0-1.0","jyksed11mk05608",457,"67.csv","","null","resources/maskTrios/BBA3.jpg","null","",NA,NA,NA,NA,""
"image-keyboard-response",14,49095,"0.0-4.0-2.0","jyksed11mk05608",457,"67.csv","","null","resources/images/fishbone.png","null","",NA,NA,NA,NA,""
"image-keyboard-response",15,50223,"0.0-4.1-0.1","jyksed11mk05608",457,"67.csv","","1126.5","resources/trios/L1T4A3.jpg","38","restless",0.9,0.7,0.3,0.212363178574206,"true"
"image-keyboard-response",16,50649,"0.0-4.1-1.1","jyksed11mk05608",457,"67.csv","","null","resources/maskTrios/BT4B.jpg","null","",NA,NA,NA,NA,""
"image-keyboard-response",17,51863,"0.0-4.1-2.1","jyksed11mk05608",457,"67.csv","","null","resources/images/coin2.png","null","",NA,NA,NA,NA,""
"image-keyboard-response",18,52214,"0.0-4.2-0.2","jyksed11mk05608",457,"67.csv","","350.09999999962747","resources/trios/L1T4A3.jpg","38","restless",0.9,0.7,0.3,0.696978149103302,"true"
"image-keyboard-response",19,52643,"0.0-4.2-1.2","jyksed11mk05608",457,"67.csv","","null","resources/maskTrios/BT4B.jpg","null","",NA,NA,NA,NA,""
"image-keyboard-response",20,53846,"0.0-4.2-2.2","jyksed11mk05608",457,"67.csv","","null","resources/images/coin2.png","null","",NA,NA,NA,NA,""
"image-keyboard-response",21,54112,"0.0-4.3-0.3","jyksed11mk05608",457,"67.csv","","264.5","resources/trios/L1T4A3.jpg","37","restless",0.9,0.7,0.3,0.277149584541097,"true"
"image-keyboard-response",22,54515,"0.0-4.3-1.3","jyksed11mk05608",457,"67.csv","","null","resources/maskTrios/L1BB.jpg","null","",NA,NA,NA,NA,""
"image-keyboard-response",23,55724,"0.0-4.3-2.3","jyksed11mk05608",457,"67.csv","","null","resources/images/coin2.png","null","",NA,NA,NA,NA,""
"image-keyboard-response",24,56007,"0.0-4.4-0.4","jyksed11mk05608",457,"67.csv","","282.09999999962747","resources/trios/L1T4A3.jpg","38","restless",0.9,0.7,0.3,0.487974872731888,"true"
"image-keyboard-response",25,56421,"0.0-4.4-1.4","jyksed11mk05608",457,"67.csv","","null","resources/maskTrios/BT4B.jpg","null","",NA,NA,NA,NA,""
"image-keyboard-response",26,57636,"0.0-4.4-2.4","jyksed11mk05608",457,"67.csv","","null","resources/images/coin2.png","null","",NA,NA,NA,NA,""
"image-keyboard-response",27,57883,"0.0-4.5-0.5","jyksed11mk05608",457,"67.csv","","245.6000000005588","resources/trios/L1T4A3.jpg","37","restless",0.9,0.7,0.3,0.229250369178806,"true"
"image-keyboard-response",28,58294,"0.0-4.5-1.5","jyksed11mk05608",457,"67.csv","","null","resources/maskTrios/L1BB.jpg","null","",NA,NA,NA,NA,""
"image-keyboard-response",29,59510,"0.0-4.5-2.5","jyksed11mk05608",457,"67.csv","","null","resources/images/coin2.png","null","",NA,NA,NA,NA,""
"image-keyboard-response",30,59956,"0.0-4.6-0.6","jyksed11mk05608",457,"67.csv","","444.79999999981374","resources/trios/L1T4A3.jpg","37","restless",0.9,0.7,0.3,0.826565495006155,"true"
"image-keyboard-response",31,60364,"0.0-4.6-1.6","jyksed11mk05608",457,"67.csv","","null","resources/maskTrios/L1BB.jpg","null","",NA,NA,NA,NA,""
"image-keyboard-response",32,61581,"0.0-4.6-2.6","jyksed11mk05608",457,"67.csv","","null","resources/images/coin2.png","null","",NA,NA,NA,NA,""
"image-keyboard-response",33,61853,"0.0-4.7-0.7","jyksed11mk05608",457,"67.csv","","271.29999999981374","resources/trios/L1T4A3.jpg","39","restless",0.9,0.7,0.3,0.38385100741167,"false"
"image-keyboard-response",34,62256,"0.0-4.7-1.7","jyksed11mk05608",457,"67.csv","","null","resources/maskTrios/BBA3.jpg","null","",NA,NA,NA,NA,""
"image-keyboard-response",35,63458,"0.0-4.7-2.7","jyksed11mk05608",457,"67.csv","","null","resources/images/fishbone.png","null","",NA,NA,NA,NA,""
"image-keyboard-response",36,63869,"0.0-4.8-0.8","jyksed11mk05608",457,"67.csv","","409.5","resources/trios/L1T4A3.jpg","38","restless",0.9,0.7,0.3,0.186867880595188,"true"
"image-keyboard-response",37,64279,"0.0-4.8-1.8","jyksed11mk05608",457,"67.csv","","null","resources/maskTrios/BT4B.jpg","null","",NA,NA,NA,NA,""
"image-keyboard-response",38,65485,"0.0-4.8-2.8","jyksed11mk05608",457,"67.csv","","null","resources/images/coin2.png","null","",NA,NA,NA,NA,""
"image-keyboard-response",39,65770,"0.0-4.9-0.9","jyksed11mk05608",457,"67.csv","","283.40000000037253","resources/trios/L1T4A3.jpg","38","restless",0.9,0.7,0.3,0.808366390202993,"false"
"image-keyboard-response",40,66177,"0.0-4.9-1.9","jyksed11mk05608",457,"67.csv","","null","resources/maskTrios/BT4B.jpg","null","",NA,NA,NA,NA,""
"image-keyboard-response",41,67386,"0.0-4.9-2.9","jyksed11mk05608",457,"67.csv","","null","resources/images/fishbone.png","null","",NA,NA,NA,NA,""
"image-keyboard-response",42,68069,"0.0-4.10-0.10","jyksed11mk05608",457,"67.csv","","682","resources/trios/L1T4A3.jpg","39","restless",0.9,0.6,0.3,0.017185105110427,"true"
"image-keyboard-response",43,68487,"0.0-4.10-1.10","jyksed11mk05608",457,"67.csv","","null","resources/maskTrios/BBA3.jpg","null","",NA,NA,NA,NA,""
"image-keyboard-response",44,69696,"0.0-4.10-2.10","jyksed11mk05608",457,"67.csv","","null","resources/images/coin2.png","null","",NA,NA,NA,NA,""
"image-keyboard-response",45,69983,"0.0-4.11-0.11","jyksed11mk05608",457,"67.csv","","286.20000000018626","resources/trios/L1T4A3.jpg","39","restless",0.8,0.6,0.3,0.335715310633447,"false"
"image-keyboard-response",46,70388,"0.0-4.11-1.11","jyksed11mk05608",457,"67.csv","","null","resources/maskTrios/BBA3.jpg","null","",NA,NA,NA,NA,""
"image-keyboard-response",47,71591,"0.0-4.11-2.11","jyksed11mk05608",457,"67.csv","","null","resources/images/fishbone.png","null","",NA,NA,NA,NA,""
"image-keyboard-response",48,71666,"0.0-4.12-0.12","jyksed11mk05608",457,"67.csv","","74.20000000018626","resources/trios/L1T4A3.jpg","37","restless",0.8,0.6,0.2,0.263035072846516,"true"
"image-keyboard-response",49,72073,"0.0-4.12-1.12","jyksed11mk05608",457,"67.csv","","null","resources/maskTrios/L1BB.jpg","null","",NA,NA,NA,NA,""
"image-keyboard-response",50,73281,"0.0-4.12-2.12","jyksed11mk05608",457,"67.csv","","null","resources/images/coin2.png","null","",NA,NA,NA,NA,""
"image-keyboard-response",51,73537,"0.0-4.13-0.13","jyksed11mk05608",457,"67.csv","","254.80000000074506","resources/trios/L1T4A3.jpg","37","restless",0.7,0.6,0.2,0.36339879503948,"true"
"image-keyboard-response",52,73959,"0.0-4.13-1.13","jyksed11mk05608",457,"67.csv","","null","resources/maskTrios/L1BB.jpg","null","",NA,NA,NA,NA,""
"image-keyboard-response",53,75169,"0.0-4.13-2.13","jyksed11mk05608",457,"67.csv","","null","resources/images/coin2.png","null","",NA,NA,NA,NA,""
"image-keyboard-response",54,75376,"0.0-4.14-0.14","jyksed11mk05608",457,"67.csv","","205.79999999981374","resources/trios/L1T4A3.jpg","38","restless",0.7,0.6,0.2,0.695136288250351,"false"
"image-keyboard-response",55,75787,"0.0-4.14-1.14","jyksed11mk05608",457,"67.csv","","null","resources/maskTrios/BT4B.jpg","null","",NA,NA,NA,NA,""
"image-keyboard-response",56,77002,"0.0-4.14-2.14","jyksed11mk05608",457,"67.csv","","null","resources/images/fishbone.png","null","",NA,NA,NA,NA,""
"image-keyboard-response",57,77029,"0.0-4.15-0.15","jyksed11mk05608",457,"67.csv","","26.199999999254942","resources/trios/L1T4A3.jpg","37","restless",0.7,0.6,0.2,0.368612504656679,"true"
"image-keyboard-response",58,77439,"0.0-4.15-1.15","jyksed11mk05608",457,"67.csv","","null","resources/maskTrios/L1BB.jpg","null","",NA,NA,NA,NA,""
"image-keyboard-response",59,78641,"0.0-4.15-2.15","jyksed11mk05608",457,"67.csv","","null","resources/images/coin2.png","null","",NA,NA,NA,NA,""
"image-keyboard-response",60,78963,"0.0-4.16-0.16","jyksed11mk05608",457,"67.csv","","320.6000000005588","resources/trios/L1T4A3.jpg","37","restless",0.7,0.6,0.2,0.276055688259913,"true"
"image-keyboard-response",61,79375,"0.0-4.16-1.16","jyksed11mk05608",457,"67.csv","","null","resources/maskTrios/L1BB.jpg","null","",NA,NA,NA,NA,""
"image-keyboard-response",62,80586,"0.0-4.16-2.16","jyksed11mk05608",457,"67.csv","","null","resources/images/coin2.png","null","",NA,NA,NA,NA,""
"image-keyboard-response",63,80939,"0.0-4.17-0.17","jyksed11mk05608",457,"67.csv","","352","resources/trios/L1T4A3.jpg","37","restless",0.6,0.6,0.2,0.207755085659332,"true"
"image-keyboard-response",64,81352,"0.0-4.17-1.17","jyksed11mk05608",457,"67.csv","","null","resources/maskTrios/L1BB.jpg","null","",NA,NA,NA,NA,""
"image-keyboard-response",65,82561,"0.0-4.17-2.17","jyksed11mk05608",457,"67.csv","","null","resources/images/coin2.png","null","",NA,NA,NA,NA,""
"image-keyboard-response",66,82961,"0.0-4.18-0.18","jyksed11mk05608",457,"67.csv","","398.5","resources/trios/L1T4A3.jpg","38","restless",0.6,0.6,0.2,0.902515890028123,"false"
"image-keyboard-response",67,83368,"0.0-4.18-1.18","jyksed11mk05608",457,"67.csv","","null","resources/maskTrios/BT4B.jpg","null","",NA,NA,NA,NA,""
"image-keyboard-response",68,84580,"0.0-4.18-2.18","jyksed11mk05608",457,"67.csv","","null","resources/images/fishbone.png","null","",NA,NA,NA,NA,""
"image-keyboard-response",69,84881,"0.0-4.19-0.19","jyksed11mk05608",457,"67.csv","","299.79999999981374","resources/trios/L1T4A3.jpg","37","restless",0.6,0.6,0.2,0.681458375175619,"false"
"image-keyboard-response",70,85294,"0.0-4.19-1.19","jyksed11mk05608",457,"67.csv","","null","resources/maskTrios/L1BB.jpg","null","",NA,NA,NA,NA,""
"image-keyboard-response",71,86504,"0.0-4.19-2.19","jyksed11mk05608",457,"67.csv","","null","resources/images/fishbone.png","null","",NA,NA,NA,NA,""
"image-keyboard-response",72,86819,"0.0-4.20-0.20","jyksed11mk05608",457,"67.csv","","314","resources/trios/L1T4A3.jpg","39","restless",0.6,0.7,0.2,0.45288845589942,"false"
"image-keyboard-response",73,87226,"0.0-4.20-1.20","jyksed11mk05608",457,"67.csv","","null","resources/maskTrios/BBA3.jpg","null","",NA,NA,NA,NA,""
"image-keyboard-response",74,88429,"0.0-4.20-2.20","jyksed11mk05608",457,"67.csv","","null","resources/images/fishbone.png","null","",NA,NA,NA,NA,""
"image-keyboard-response",75,88740,"0.0-4.21-0.21","jyksed11mk05608",457,"67.csv","","309.5","resources/trios/L1T4A3.jpg","38","restless",0.6,0.7,0.2,0.258722955592859,"true"
"image-keyboard-response",76,89159,"0.0-4.21-1.21","jyksed11mk05608",457,"67.csv","","null","resources/maskTrios/BT4B.jpg","null","",NA,NA,NA,NA,""
"image-keyboard-response",77,90362,"0.0-4.21-2.21","jyksed11mk05608",457,"67.csv","","null","resources/images/coin2.png","null","",NA,NA,NA,NA,""
"image-keyboard-response",78,90728,"0.0-4.22-0.22","jyksed11mk05608",457,"67.csv","","365.5","resources/trios/L1T4A3.jpg","38","restless",0.6,0.7,0.2,0.0600899412056672,"true"
"image-keyboard-response",79,91130,"0.0-4.22-1.22","jyksed11mk05608",457,"67.csv","","null","resources/maskTrios/BT4B.jpg","null","",NA,NA,NA,NA,""
"image-keyboard-response",80,92350,"0.0-4.22-2.22","jyksed11mk05608",457,"67.csv","","null","resources/images/coin2.png","null","",NA,NA,NA,NA,""
"image-keyboard-response",81,92620,"0.0-4.23-0.23","jyksed11mk05608",457,"67.csv","","268.5","resources/trios/L1T4A3.jpg","38","restless",0.6,0.6,0.2,0.88897405074836,"false"
"image-keyboard-response",82,93026,"0.0-4.23-1.23","jyksed11mk05608",457,"67.csv","","null","resources/maskTrios/BT4B.jpg","null","",NA,NA,NA,NA,""
"image-keyboard-response",83,94230,"0.0-4.23-2.23","jyksed11mk05608",457,"67.csv","","null","resources/images/fishbone.png","null","",NA,NA,NA,NA,""
"image-keyboard-response",84,94569,"0.0-4.24-0.24","jyksed11mk05608",457,"67.csv","","337.29999999981374","resources/trios/L1T4A3.jpg","37","restless",0.6,0.6,0.2,0.182322797767239,"true"
"image-keyboard-response",85,94982,"0.0-4.24-1.24","jyksed11mk05608",457,"67.csv","","null","resources/maskTrios/L1BB.jpg","null","",NA,NA,NA,NA,""
"image-keyboard-response",86,96192,"0.0-4.24-2.24","jyksed11mk05608",457,"67.csv","","null","resources/images/coin2.png","null","",NA,NA,NA,NA,""
"image-keyboard-response",87,96479,"0.0-4.25-0.25","jyksed11mk05608",457,"67.csv","","285.59999999962747","resources/trios/L1T4A3.jpg","37","restless",0.6,0.6,0.2,0.785206480220771,"false"
"image-keyboard-response",88,96891,"0.0-4.25-1.25","jyksed11mk05608",457,"67.csv","","null","resources/maskTrios/L1BB.jpg","null","",NA,NA,NA,NA,""
"image-keyboard-response",89,98094,"0.0-4.25-2.25","jyksed11mk05608",457,"67.csv","","null","resources/images/fishbone.png","null","",NA,NA,NA,NA,""
"image-keyboard-response",90,98511,"0.0-4.26-0.26","jyksed11mk05608",457,"67.csv","","416.40000000037253","resources/trios/L1T4A3.jpg","39","restless",0.6,0.6,0.2,0.801498191233797,"false"
"image-keyboard-response",91,98916,"0.0-4.26-1.26","jyksed11mk05608",457,"67.csv","","null","resources/maskTrios/BBA3.jpg","null","",NA,NA,NA,NA,""
"image-keyboard-response",92,100136,"0.0-4.26-2.26","jyksed11mk05608",457,"67.csv","","null","resources/images/fishbone.png","null","",NA,NA,NA,NA,""
"image-keyboard-response",93,100344,"0.0-4.27-0.27","jyksed11mk05608",457,"67.csv","","207.09999999962747","resources/trios/L1T4A3.jpg","38","restless",0.6,0.6,0.3,0.00010037159062759,"true"
"image-keyboard-response",94,100754,"0.0-4.27-1.27","jyksed11mk05608",457,"67.csv","","null","resources/maskTrios/BT4B.jpg","null","",NA,NA,NA,NA,""
"image-keyboard-response",95,101958,"0.0-4.27-2.27","jyksed11mk05608",457,"67.csv","","null","resources/images/coin2.png","null","",NA,NA,NA,NA,""
"image-keyboard-response",96,102244,"0.0-4.28-0.28","jyksed11mk05608",457,"67.csv","","285","resources/trios/L1T4A3.jpg","38","restless",0.6,0.6,0.3,0.123875378999451,"true"
"image-keyboard-response",97,102647,"0.0-4.28-1.28","jyksed11mk05608",457,"67.csv","","null","resources/maskTrios/BT4B.jpg","null","",NA,NA,NA,NA,""
"image-keyboard-response",98,103851,"0.0-4.28-2.28","jyksed11mk05608",457,"67.csv","","null","resources/images/coin2.png","null","",NA,NA,NA,NA,""
"image-keyboard-response",99,104176,"0.0-4.29-0.29","jyksed11mk05608",457,"67.csv","","324.5","resources/trios/L1T4A3.jpg","38","restless",0.6,0.6,0.3,0.61665426722435,"false"
"image-keyboard-response",100,104587,"0.0-4.29-1.29","jyksed11mk05608",457,"67.csv","","null","resources/maskTrios/BT4B.jpg","null","",NA,NA,NA,NA,""
"image-keyboard-response",101,105805,"0.0-4.29-2.29","jyksed11mk05608",457,"67.csv","","null","resources/images/fishbone.png","null","",NA,NA,NA,NA,""
"image-keyboard-response",102,106616,"0.0-4.30-0.30","jyksed11mk05608",457,"67.csv","","810.1999999992549","resources/trios/L1T4A3.jpg","38","restless",0.5,0.6,0.3,0.0672465717844886,"true"
"image-keyboard-response",103,107018,"0.0-4.30-1.30","jyksed11mk05608",457,"67.csv","","null","resources/maskTrios/BT4B.jpg","null","",NA,NA,NA,NA,""
"image-keyboard-response",104,108226,"0.0-4.30-2.30","jyksed11mk05608",457,"67.csv","","null","resources/images/coin2.png","null","",NA,NA,NA,NA,""
"image-keyboard-response",105,108474,"0.0-4.31-0.31","jyksed11mk05608",457,"67.csv","","247","resources/trios/L1T4A3.jpg","38","restless",0.5,0.6,0.3,0.722070104522951,"false"
"image-keyboard-response",106,108882,"0.0-4.31-1.31","jyksed11mk05608",457,"67.csv","","null","resources/maskTrios/BT4B.jpg","null","",NA,NA,NA,NA,""
"image-keyboard-response",107,110086,"0.0-4.31-2.31","jyksed11mk05608",457,"67.csv","","null","resources/images/fishbone.png","null","",NA,NA,NA,NA,""
"image-keyboard-response",108,110115,"0.0-4.32-0.32","jyksed11mk05608",457,"67.csv","","27.90000000037253","resources/trios/L1T4A3.jpg","38","restless",0.5,0.6,0.3,0.0225188666379335,"true"
"image-keyboard-response",109,110517,"0.0-4.32-1.32","jyksed11mk05608",457,"67.csv","","null","resources/maskTrios/BT4B.jpg","null","",NA,NA,NA,NA,""
"image-keyboard-response",110,111732,"0.0-4.32-2.32","jyksed11mk05608",457,"67.csv","","null","resources/images/coin2.png","null","",NA,NA,NA,NA,""
"image-keyboard-response",111,111851,"0.0-4.33-0.33","jyksed11mk05608",457,"67.csv","","118.1000000005588","resources/trios/L1T4A3.jpg","38","restless",0.5,0.6,0.3,0.825139135167541,"false"
"image-keyboard-response",112,112261,"0.0-4.33-1.33","jyksed11mk05608",457,"67.csv","","null","resources/maskTrios/BT4B.jpg","null","",NA,NA,NA,NA,""
"image-keyboard-response",113,113470,"0.0-4.33-2.33","jyksed11mk05608",457,"67.csv","","null","resources/images/fishbone.png","null","",NA,NA,NA,NA,""
"image-keyboard-response",114,113757,"0.0-4.34-0.34","jyksed11mk05608",457,"67.csv","","285.79999999981374","resources/trios/L1T4A3.jpg","39","restless",0.5,0.6,0.3,0.445767793224754,"false"
"image-keyboard-response",115,114166,"0.0-4.34-1.34","jyksed11mk05608",457,"67.csv","","null","resources/maskTrios/BBA3.jpg","null","",NA,NA,NA,NA,""
"image-keyboard-response",116,115371,"0.0-4.34-2.34","jyksed11mk05608",457,"67.csv","","null","resources/images/fishbone.png","null","",NA,NA,NA,NA,""
"image-keyboard-response",117,115596,"0.0-4.35-0.35","jyksed11mk05608",457,"67.csv","","223.29999999981374","resources/trios/L1T4A3.jpg","39","restless",0.6,0.5,0.3,0.518500117132842,"false"
"image-keyboard-response",118,116000,"0.0-4.35-1.35","jyksed11mk05608",457,"67.csv","","null","resources/maskTrios/BBA3.jpg","null","",NA,NA,NA,NA,""
"image-keyboard-response",119,117202,"0.0-4.35-2.35","jyksed11mk05608",457,"67.csv","","null","resources/images/fishbone.png","null","",NA,NA,NA,NA,""
"image-keyboard-response",120,117682,"0.0-4.36-0.36","jyksed11mk05608",457,"67.csv","","478.90000000037253","resources/trios/L1T4A3.jpg","37","restless",0.6,0.5,0.3,0.465185706438337,"true"
"image-keyboard-response",121,118103,"0.0-4.36-1.36","jyksed11mk05608",457,"67.csv","","null","resources/maskTrios/L1BB.jpg","null","",NA,NA,NA,NA,""
"image-keyboard-response",122,119315,"0.0-4.36-2.36","jyksed11mk05608",457,"67.csv","","null","resources/images/coin2.png","null","",NA,NA,NA,NA,""
"image-keyboard-response",123,119981,"0.0-4.37-0.37","jyksed11mk05608",457,"67.csv","","665.5","resources/trios/L1T4A3.jpg","37","restless",0.6,0.5,0.3,0.0342741167556051,"true"
"image-keyboard-response",124,120388,"0.0-4.37-1.37","jyksed11mk05608",457,"67.csv","","null","resources/maskTrios/L1BB.jpg","null","",NA,NA,NA,NA,""
"image-keyboard-response",125,121591,"0.0-4.37-2.37","jyksed11mk05608",457,"67.csv","","null","resources/images/coin2.png","null","",NA,NA,NA,NA,""
"image-keyboard-response",126,122378,"0.0-4.38-0.38","jyksed11mk05608",457,"67.csv","","785.9000000003725","resources/trios/L1T4A3.jpg","37","restless",0.6,0.5,0.3,0.808378022154654,"false"
"image-keyboard-response",127,122784,"0.0-4.38-1.38","jyksed11mk05608",457,"67.csv","","null","resources/maskTrios/L1BB.jpg","null","",NA,NA,NA,NA,""
"image-keyboard-response",128,123997,"0.0-4.38-2.38","jyksed11mk05608",457,"67.csv","","null","resources/images/fishbone.png","null","",NA,NA,NA,NA,""
"image-keyboard-response",129,124029,"0.0-4.39-0.39","jyksed11mk05608",457,"67.csv","","30.800000000745058","resources/trios/L1T4A3.jpg","38","restless",0.6,0.5,0.3,0.351266400028727,"true"
"image-keyboard-response",130,124453,"0.0-4.39-1.39","jyksed11mk05608",457,"67.csv","","null","resources/maskTrios/BT4B.jpg","null","",NA,NA,NA,NA,""
"image-keyboard-response",131,125657,"0.0-4.39-2.39","jyksed11mk05608",457,"67.csv","","null","resources/images/coin2.png","null","",NA,NA,NA,NA,""
"image-keyboard-response",132,126050,"0.0-4.40-0.40","jyksed11mk05608",457,"67.csv","","392.79999999981374","resources/trios/L1T4A3.jpg","38","restless",0.6,0.5,0.4,0.088185629332685,"true"
"image-keyboard-response",133,126458,"0.0-4.40-1.40","jyksed11mk05608",457,"67.csv","","null","resources/maskTrios/BT4B.jpg","null","",NA,NA,NA,NA,""
"image-keyboard-response",134,127674,"0.0-4.40-2.40","jyksed11mk05608",457,"67.csv","","null","resources/images/coin2.png","null","",NA,NA,NA,NA,""
"image-keyboard-response",135,128163,"0.0-4.41-0.41","jyksed11mk05608",457,"67.csv","","487.20000000018626","resources/trios/L1T4A3.jpg","38","restless",0.6,0.5,0.4,0.95091277106256,"false"
"image-keyboard-response",136,128576,"0.0-4.41-1.41","jyksed11mk05608",457,"67.csv","","null","resources/maskTrios/BT4B.jpg","null","",NA,NA,NA,NA,""
"image-keyboard-response",137,129797,"0.0-4.41-2.41","jyksed11mk05608",457,"67.csv","","null","resources/images/fishbone.png","null","",NA,NA,NA,NA,""
"image-keyboard-response",138,130066,"0.0-4.42-0.42","jyksed11mk05608",457,"67.csv","","268.20000000018626","resources/trios/L1T4A3.jpg","38","restless",0.6,0.5,0.4,0.340439347415973,"true"
"image-keyboard-response",139,130475,"0.0-4.42-1.42","jyksed11mk05608",457,"67.csv","","null","resources/maskTrios/BT4B.jpg","null","",NA,NA,NA,NA,""
"image-keyboard-response",140,131683,"0.0-4.42-2.42","jyksed11mk05608",457,"67.csv","","null","resources/images/coin2.png","null","",NA,NA,NA,NA,""
"image-keyboard-response",141,131908,"0.0-4.43-0.43","jyksed11mk05608",457,"67.csv","","223.6000000005588","resources/trios/L1T4A3.jpg","38","restless",0.6,0.5,0.4,0.00399513985491629,"true"
"image-keyboard-response",142,132313,"0.0-4.43-1.43","jyksed11mk05608",457,"67.csv","","null","resources/maskTrios/BT4B.jpg","null","",NA,NA,NA,NA,""
"image-keyboard-response",143,133518,"0.0-4.43-2.43","jyksed11mk05608",457,"67.csv","","null","resources/images/coin2.png","null","",NA,NA,NA,NA,""
"image-keyboard-response",144,133769,"0.0-4.44-0.44","jyksed11mk05608",457,"67.csv","","249.30000000074506","resources/trios/L1T4A3.jpg","38","restless",0.6,0.5,0.4,0.353452453330781,"true"
"image-keyboard-response",145,134181,"0.0-4.44-1.44","jyksed11mk05608",457,"67.csv","","null","resources/maskTrios/BT4B.jpg","null","",NA,NA,NA,NA,""
"image-keyboard-response",146,135399,"0.0-4.44-2.44","jyksed11mk05608",457,"67.csv","","null","resources/images/coin2.png","null","",NA,NA,NA,NA,""
"image-keyboard-response",147,135684,"0.0-4.45-0.45","jyksed11mk05608",457,"67.csv","","284","resources/trios/L1T4A3.jpg","38","restless",0.6,0.5,0.4,0.393909823186263,"true"
"image-keyboard-response",148,136095,"0.0-4.45-1.45","jyksed11mk05608",457,"67.csv","","null","resources/maskTrios/BT4B.jpg","null","",NA,NA,NA,NA,""
"image-keyboard-response",149,137317,"0.0-4.45-2.45","jyksed11mk05608",457,"67.csv","","null","resources/images/coin2.png","null","",NA,NA,NA,NA,""
"image-keyboard-response",150,137620,"0.0-4.46-0.46","jyksed11mk05608",457,"67.csv","","301.79999999981374","resources/trios/L1T4A3.jpg","38","restless",0.6,0.5,0.4,0.412523919775384,"true"
"image-keyboard-response",151,138027,"0.0-4.46-1.46","jyksed11mk05608",457,"67.csv","","null","resources/maskTrios/BT4B.jpg","null","",NA,NA,NA,NA,""
"image-keyboard-response",152,139238,"0.0-4.46-2.46","jyksed11mk05608",457,"67.csv","","null","resources/images/coin2.png","null","",NA,NA,NA,NA,""
"image-keyboard-response",153,139494,"0.0-4.47-0.47","jyksed11mk05608",457,"67.csv","","255.09999999962747","resources/trios/L1T4A3.jpg","38","restless",0.6,0.5,0.4,0.484367351529578,"true"
"image-keyboard-response",154,139901,"0.0-4.47-1.47","jyksed11mk05608",457,"67.csv","","null","resources/maskTrios/BT4B.jpg","null","",NA,NA,NA,NA,""
"image-keyboard-response",155,141111,"0.0-4.47-2.47","jyksed11mk05608",457,"67.csv","","null","resources/images/coin2.png","null","",NA,NA,NA,NA,""
"image-keyboard-response",156,141405,"0.0-4.48-0.48","jyksed11mk05608",457,"67.csv","","292.8999999994412","resources/trios/L1T4A3.jpg","38","restless",0.6,0.5,0.4,0.437579847130902,"true"
"image-keyboard-response",157,141806,"0.0-4.48-1.48","jyksed11mk05608",457,"67.csv","","null","resources/maskTrios/BT4B.jpg","null","",NA,NA,NA,NA,""
"image-keyboard-response",158,143030,"0.0-4.48-2.48","jyksed11mk05608",457,"67.csv","","null","resources/images/coin2.png","null","",NA,NA,NA,NA,""
"image-keyboard-response",159,143284,"0.0-4.49-0.49","jyksed11mk05608",457,"67.csv","","253.20000000018626","resources/trios/L1T4A3.jpg","38","restless",0.6,0.5,0.4,0.197378771340417,"true"
"image-keyboard-response",160,143691,"0.0-4.49-1.49","jyksed11mk05608",457,"67.csv","","null","resources/maskTrios/BT4B.jpg","null","",NA,NA,NA,NA,""
"image-keyboard-response",161,144893,"0.0-4.49-2.49","jyksed11mk05608",457,"67.csv","","null","resources/images/coin2.png","null","",NA,NA,NA,NA,""
"image-keyboard-response",162,145146,"0.0-4.50-0.50","jyksed11mk05608",457,"67.csv","","251.70000000018626","resources/trios/L1T4A3.jpg","38","restless",0.6,0.5,0.4,0.67615681978607,"false"
"image-keyboard-response",163,145557,"0.0-4.50-1.50","jyksed11mk05608",457,"67.csv","","null","resources/maskTrios/BT4B.jpg","null","",NA,NA,NA,NA,""
"image-keyboard-response",164,146770,"0.0-4.50-2.50","jyksed11mk05608",457,"67.csv","","null","resources/images/fishbone.png","null","",NA,NA,NA,NA,""
"image-keyboard-response",165,146982,"0.0-4.51-0.51","jyksed11mk05608",457,"67.csv","","211.5","resources/trios/L1T4A3.jpg","39","restless",0.7,0.5,0.4,0.481655798997752,"false"
"image-keyboard-response",166,147396,"0.0-4.51-1.51","jyksed11mk05608",457,"67.csv","","null","resources/maskTrios/BBA3.jpg","null","",NA,NA,NA,NA,""
"image-keyboard-response",167,148602,"0.0-4.51-2.51","jyksed11mk05608",457,"67.csv","","null","resources/images/fishbone.png","null","",NA,NA,NA,NA,""
"image-keyboard-response",168,148915,"0.0-4.52-0.52","jyksed11mk05608",457,"67.csv","","312","resources/trios/L1T4A3.jpg","37","restless",0.7,0.5,0.5,0.684557718637395,"true"
"image-keyboard-response",169,149337,"0.0-4.52-1.52","jyksed11mk05608",457,"67.csv","","null","resources/maskTrios/L1BB.jpg","null","",NA,NA,NA,NA,""
"image-keyboard-response",170,150554,"0.0-4.52-2.52","jyksed11mk05608",457,"67.csv","","null","resources/images/coin2.png","null","",NA,NA,NA,NA,""
"image-keyboard-response",171,150845,"0.0-4.53-0.53","jyksed11mk05608",457,"67.csv","","290.29999999981374","resources/trios/L1T4A3.jpg","37","restless",0.7,0.5,0.5,0.772485645069475,"false"
"image-keyboard-response",172,151258,"0.0-4.53-1.53","jyksed11mk05608",457,"67.csv","","null","resources/maskTrios/L1BB.jpg","null","",NA,NA,NA,NA,""
"image-keyboard-response",173,152459,"0.0-4.53-2.53","jyksed11mk05608",457,"67.csv","","null","resources/images/fishbone.png","null","",NA,NA,NA,NA,""
"image-keyboard-response",174,152727,"0.0-4.54-0.54","jyksed11mk05608",457,"67.csv","","267.1000000005588","resources/trios/L1T4A3.jpg","38","restless",0.7,0.5,0.5,0.591984930037516,"false"
"image-keyboard-response",175,153132,"0.0-4.54-1.54","jyksed11mk05608",457,"67.csv","","null","resources/maskTrios/BT4B.jpg","null","",NA,NA,NA,NA,""
"image-keyboard-response",176,154334,"0.0-4.54-2.54","jyksed11mk05608",457,"67.csv","","null","resources/images/fishbone.png","null","",NA,NA,NA,NA,""
"image-keyboard-response",177,154631,"0.0-4.55-0.55","jyksed11mk05608",457,"67.csv","","295.79999999981374","resources/trios/L1T4A3.jpg","38","restless",0.6,0.6,0.5,0.406771648713533,"true"
"image-keyboard-response",178,155043,"0.0-4.55-1.55","jyksed11mk05608",457,"67.csv","","null","resources/maskTrios/BT4B.jpg","null","",NA,NA,NA,NA,""
"image-keyboard-response",179,156248,"0.0-4.55-2.55","jyksed11mk05608",457,"67.csv","","null","resources/images/coin2.png","null","",NA,NA,NA,NA,""
"image-keyboard-response",180,156527,"0.0-4.56-0.56","jyksed11mk05608",457,"67.csv","","278.09999999962747","resources/trios/L1T4A3.jpg","38","restless",0.6,0.6,0.5,0.148029378025776,"true"
"image-keyboard-response",181,156940,"0.0-4.56-1.56","jyksed11mk05608",457,"67.csv","","null","resources/maskTrios/BT4B.jpg","null","",NA,NA,NA,NA,""
"image-keyboard-response",182,158154,"0.0-4.56-2.56","jyksed11mk05608",457,"67.csv","","null","resources/images/coin2.png","null","",NA,NA,NA,NA,""
"image-keyboard-response",183,158458,"0.0-4.57-0.57","jyksed11mk05608",457,"67.csv","","303.20000000018626","resources/trios/L1T4A3.jpg","38","restless",0.6,0.7,0.5,0.177666271307291,"true"
"image-keyboard-response",184,158862,"0.0-4.57-1.57","jyksed11mk05608",457,"67.csv","","null","resources/maskTrios/BT4B.jpg","null","",NA,NA,NA,NA,""
"image-keyboard-response",185,160075,"0.0-4.57-2.57","jyksed11mk05608",457,"67.csv","","null","resources/images/coin2.png","null","",NA,NA,NA,NA,""
"image-keyboard-response",186,160417,"0.0-4.58-0.58","jyksed11mk05608",457,"67.csv","","341.5","resources/trios/L1T4A3.jpg","38","restless",0.6,0.7,0.5,0.349103847230763,"true"
"image-keyboard-response",187,160831,"0.0-4.58-1.58","jyksed11mk05608",457,"67.csv","","null","resources/maskTrios/BT4B.jpg","null","",NA,NA,NA,NA,""
"image-keyboard-response",188,162037,"0.0-4.58-2.58","jyksed11mk05608",457,"67.csv","","null","resources/images/coin2.png","null","",NA,NA,NA,NA,""
"image-keyboard-response",189,162446,"0.0-4.59-0.59","jyksed11mk05608",457,"67.csv","","407.90000000037253","resources/trios/L1T4A3.jpg","38","restless",0.7,0.8,0.5,0.800064850844943,"false"
"image-keyboard-response",190,162856,"0.0-4.59-1.59","jyksed11mk05608",457,"67.csv","","null","resources/maskTrios/BT4B.jpg","null","",NA,NA,NA,NA,""
"image-keyboard-response",191,164061,"0.0-4.59-2.59","jyksed11mk05608",457,"67.csv","","null","resources/images/fishbone.png","null","",NA,NA,NA,NA,""
"image-keyboard-response",192,164164,"0.0-4.60-0.60","jyksed11mk05608",457,"67.csv","","101.1000000005588","resources/trios/L1T4A3.jpg","39","restless",0.7,0.8,0.5,0.69254723249651,"false"
"image-keyboard-response",193,164577,"0.0-4.60-1.60","jyksed11mk05608",457,"67.csv","","null","resources/maskTrios/BBA3.jpg","null","",NA,NA,NA,NA,""
"image-keyboard-response",194,165781,"0.0-4.60-2.60","jyksed11mk05608",457,"67.csv","","null","resources/images/fishbone.png","null","",NA,NA,NA,NA,""
"image-keyboard-response",195,166029,"0.0-4.61-0.61","jyksed11mk05608",457,"67.csv","","246.40000000037253","resources/trios/L1T4A3.jpg","39","restless",0.7,0.9,0.5,0.695087780408446,"false"
"image-keyboard-response",196,166444,"0.0-4.61-1.61","jyksed11mk05608",457,"67.csv","","null","resources/maskTrios/BBA3.jpg","null","",NA,NA,NA,NA,""
"image-keyboard-response",197,167651,"0.0-4.61-2.61","jyksed11mk05608",457,"67.csv","","null","resources/images/fishbone.png","null","",NA,NA,NA,NA,""
"image-keyboard-response",198,167974,"0.0-4.62-0.62","jyksed11mk05608",457,"67.csv","","321.70000000018626","resources/trios/L1T4A3.jpg","37","restless",0.7,0.9,0.5,0.897345143373259,"false"
"image-keyboard-response",199,168390,"0.0-4.62-1.62","jyksed11mk05608",457,"67.csv","","null","resources/maskTrios/L1BB.jpg","null","",NA,NA,NA,NA,""
"image-keyboard-response",200,169592,"0.0-4.62-2.62","jyksed11mk05608",457,"67.csv","","null","resources/images/fishbone.png","null","",NA,NA,NA,NA,""
"image-keyboard-response",201,169929,"0.0-4.63-0.63","jyksed11mk05608",457,"67.csv","","335.09999999962747","resources/trios/L1T4A3.jpg","38","restless",0.7,0.9,0.5,0.240037040753077,"true"
"image-keyboard-response",202,170342,"0.0-4.63-1.63","jyksed11mk05608",457,"67.csv","","null","resources/maskTrios/BT4B.jpg","null","",NA,NA,NA,NA,""
"image-keyboard-response",203,171548,"0.0-4.63-2.63","jyksed11mk05608",457,"67.csv","","null","resources/images/coin2.png","null","",NA,NA,NA,NA,""
"image-keyboard-response",204,171723,"0.0-4.64-0.64","jyksed11mk05608",457,"67.csv","","174.09999999962747","resources/trios/L1T4A3.jpg","38","restless",0.7,0.9,0.5,0.237604624651487,"true"
"image-keyboard-response",205,172133,"0.0-4.64-1.64","jyksed11mk05608",457,"67.csv","","null","resources/maskTrios/BT4B.jpg","null","",NA,NA,NA,NA,""
"image-keyboard-response",206,173349,"0.0-4.64-2.64","jyksed11mk05608",457,"67.csv","","null","resources/images/coin2.png","null","",NA,NA,NA,NA,""
"image-keyboard-response",207,173473,"0.0-4.65-0.65","jyksed11mk05608",457,"67.csv","","123","resources/trios/L1T4A3.jpg","38","restless",0.7,0.9,0.5,0.492805964493519,"true"
"image-keyboard-response",208,173897,"0.0-4.65-1.65","jyksed11mk05608",457,"67.csv","","null","resources/maskTrios/BT4B.jpg","null","",NA,NA,NA,NA,""
"image-keyboard-response",209,175106,"0.0-4.65-2.65","jyksed11mk05608",457,"67.csv","","null","resources/images/coin2.png","null","",NA,NA,NA,NA,""
"image-keyboard-response",210,175336,"0.0-4.66-0.66","jyksed11mk05608",457,"67.csv","","228.79999999981374","resources/trios/L1T4A3.jpg","38","restless",0.7,0.9,0.4,0.941819420852931,"false"
"image-keyboard-response",211,175743,"0.0-4.66-1.66","jyksed11mk05608",457,"67.csv","","null","resources/maskTrios/BT4B.jpg","null","",NA,NA,NA,NA,""
"image-keyboard-response",212,176952,"0.0-4.66-2.66","jyksed11mk05608",457,"67.csv","","null","resources/images/fishbone.png","null","",NA,NA,NA,NA,""
"image-keyboard-response",213,177304,"0.0-4.67-0.67","jyksed11mk05608",457,"67.csv","","350.79999999981374","resources/trios/L1T4A3.jpg","38","restless",0.7,0.8,0.4,0.485613762126073,"true"
"image-keyboard-response",214,177729,"0.0-4.67-1.67","jyksed11mk05608",457,"67.csv","","null","resources/maskTrios/BT4B.jpg","null","",NA,NA,NA,NA,""
"image-keyboard-response",215,178934,"0.0-4.67-2.67","jyksed11mk05608",457,"67.csv","","null","resources/images/coin2.png","null","",NA,NA,NA,NA,""
"image-keyboard-response",216,179142,"0.0-4.68-0.68","jyksed11mk05608",457,"67.csv","","206.30000000074506","resources/trios/L1T4A3.jpg","38","restless",0.7,0.8,0.4,0.0887385530019567,"true"
"image-keyboard-response",217,179557,"0.0-4.68-1.68","jyksed11mk05608",457,"67.csv","","null","resources/maskTrios/BT4B.jpg","null","",NA,NA,NA,NA,""
"image-keyboard-response",218,180770,"0.0-4.68-2.68","jyksed11mk05608",457,"67.csv","","null","resources/images/coin2.png","null","",NA,NA,NA,NA,""
"image-keyboard-response",219,180797,"0.0-4.69-0.69","jyksed11mk05608",457,"67.csv","","26.100000000558794","resources/trios/L1T4A3.jpg","38","restless",0.7,0.8,0.4,0.30871072857564,"true"
"image-keyboard-response",220,181209,"0.0-4.69-1.69","jyksed11mk05608",457,"67.csv","","null","resources/maskTrios/BT4B.jpg","null","",NA,NA,NA,NA,""
"image-keyboard-response",221,182425,"0.0-4.69-2.69","jyksed11mk05608",457,"67.csv","","null","resources/images/coin2.png","null","",NA,NA,NA,NA,""
"image-keyboard-response",222,182695,"0.0-4.70-0.70","jyksed11mk05608",457,"67.csv","","268.20000000018626","resources/trios/L1T4A3.jpg","38","restless",0.7,0.8,0.4,0.0753100414661279,"true"
"image-keyboard-response",223,183105,"0.0-4.70-1.70","jyksed11mk05608",457,"67.csv","","null","resources/maskTrios/BT4B.jpg","null","",NA,NA,NA,NA,""
"image-keyboard-response",224,184316,"0.0-4.70-2.70","jyksed11mk05608",457,"67.csv","","null","resources/images/coin2.png","null","",NA,NA,NA,NA,""
"image-keyboard-response",225,184574,"0.0-4.71-0.71","jyksed11mk05608",457,"67.csv","","255.79999999981374","resources/trios/L1T4A3.jpg","38","restless",0.7,0.8,0.4,0.0249831949533277,"true"
"image-keyboard-response",226,184983,"0.0-4.71-1.71","jyksed11mk05608",457,"67.csv","","null","resources/maskTrios/BT4B.jpg","null","",NA,NA,NA,NA,""
"image-keyboard-response",227,186199,"0.0-4.71-2.71","jyksed11mk05608",457,"67.csv","","null","resources/images/coin2.png","null","",NA,NA,NA,NA,""
"image-keyboard-response",228,186478,"0.0-4.72-0.72","jyksed11mk05608",457,"67.csv","","277.90000000037253","resources/trios/L1T4A3.jpg","38","restless",0.6,0.8,0.4,0.0106732791635795,"true"
"image-keyboard-response",229,186885,"0.0-4.72-1.72","jyksed11mk05608",457,"67.csv","","null","resources/maskTrios/BT4B.jpg","null","",NA,NA,NA,NA,""
"image-keyboard-response",230,188093,"0.0-4.72-2.72","jyksed11mk05608",457,"67.csv","","null","resources/images/coin2.png","null","",NA,NA,NA,NA,""
"image-keyboard-response",231,188372,"0.0-4.73-0.73","jyksed11mk05608",457,"67.csv","","278.19999999925494","resources/trios/L1T4A3.jpg","38","restless",0.6,0.8,0.4,0.542809709418741,"true"
"image-keyboard-response",232,188781,"0.0-4.73-1.73","jyksed11mk05608",457,"67.csv","","null","resources/maskTrios/BT4B.jpg","null","",NA,NA,NA,NA,""
"image-keyboard-response",233,190004,"0.0-4.73-2.73","jyksed11mk05608",457,"67.csv","","null","resources/images/coin2.png","null","",NA,NA,NA,NA,""
"image-keyboard-response",234,190305,"0.0-4.74-0.74","jyksed11mk05608",457,"67.csv","","300.5","resources/trios/L1T4A3.jpg","38","restless",0.6,0.8,0.4,0.670663532028354,"true"
"image-keyboard-response",235,190719,"0.0-4.74-1.74","jyksed11mk05608",457,"67.csv","","null","resources/maskTrios/BT4B.jpg","null","",NA,NA,NA,NA,""
"image-keyboard-response",236,191926,"0.0-4.74-2.74","jyksed11mk05608",457,"67.csv","","null","resources/images/coin2.png","null","",NA,NA,NA,NA,""
"image-keyboard-response",237,192186,"0.0-4.75-0.75","jyksed11mk05608",457,"67.csv","","259.5","resources/trios/L1T4A3.jpg","38","restless",0.6,0.8,0.4,0.458781106299284,"true"
"image-keyboard-response",238,192602,"0.0-4.75-1.75","jyksed11mk05608",457,"67.csv","","null","resources/maskTrios/BT4B.jpg","null","",NA,NA,NA,NA,""
"image-keyboard-response",239,193816,"0.0-4.75-2.75","jyksed11mk05608",457,"67.csv","","null","resources/images/coin2.png","null","",NA,NA,NA,NA,""
"image-keyboard-response",240,194056,"0.0-4.76-0.76","jyksed11mk05608",457,"67.csv","","238.5","resources/trios/L1T4A3.jpg","38","restless",0.6,0.8,0.4,0.412455307934786,"true"
"image-keyboard-response",241,194463,"0.0-4.76-1.76","jyksed11mk05608",457,"67.csv","","null","resources/maskTrios/BT4B.jpg","null","",NA,NA,NA,NA,""
"image-keyboard-response",242,195671,"0.0-4.76-2.76","jyksed11mk05608",457,"67.csv","","null","resources/images/coin2.png","null","",NA,NA,NA,NA,""
"image-keyboard-response",243,195993,"0.0-4.77-0.77","jyksed11mk05608",457,"67.csv","","320.79999999981374","resources/trios/L1T4A3.jpg","38","restless",0.6,0.8,0.4,0.962921570098911,"false"
"image-keyboard-response",244,196408,"0.0-4.77-1.77","jyksed11mk05608",457,"67.csv","","null","resources/maskTrios/BT4B.jpg","null","",NA,NA,NA,NA,""
"image-keyboard-response",245,197615,"0.0-4.77-2.77","jyksed11mk05608",457,"67.csv","","null","resources/images/fishbone.png","null","",NA,NA,NA,NA,""
"image-keyboard-response",246,197875,"0.0-4.78-0.78","jyksed11mk05608",457,"67.csv","","259.79999999981374","resources/trios/L1T4A3.jpg","38","restless",0.6,0.8,0.5,0.498485608322656,"true"
"image-keyboard-response",247,198286,"0.0-4.78-1.78","jyksed11mk05608",457,"67.csv","","null","resources/maskTrios/BT4B.jpg","null","",NA,NA,NA,NA,""
"image-keyboard-response",248,199502,"0.0-4.78-2.78","jyksed11mk05608",457,"67.csv","","null","resources/images/coin2.png","null","",NA,NA,NA,NA,""
"image-keyboard-response",249,199744,"0.0-4.79-0.79","jyksed11mk05608",457,"67.csv","","241.5","resources/trios/L1T4A3.jpg","38","restless",0.6,0.8,0.5,0.686140165525914,"true"
"image-keyboard-response",250,200154,"0.0-4.79-1.79","jyksed11mk05608",457,"67.csv","","null","resources/maskTrios/BT4B.jpg","null","",NA,NA,NA,NA,""
"image-keyboard-response",251,201360,"0.0-4.79-2.79","jyksed11mk05608",457,"67.csv","","null","resources/images/coin2.png","null","",NA,NA,NA,NA,""
"image-keyboard-response",252,201590,"0.0-4.80-0.80","jyksed11mk05608",457,"67.csv","","229.1000000005588","resources/trios/L1T4A3.jpg","38","restless",0.6,0.8,0.5,0.387275452473101,"true"
"image-keyboard-response",253,202008,"0.0-4.80-1.80","jyksed11mk05608",457,"67.csv","","null","resources/maskTrios/BT4B.jpg","null","",NA,NA,NA,NA,""
"image-keyboard-response",254,203212,"0.0-4.80-2.80","jyksed11mk05608",457,"67.csv","","null","resources/images/coin2.png","null","",NA,NA,NA,NA,""
"image-keyboard-response",255,203327,"0.0-4.81-0.81","jyksed11mk05608",457,"67.csv","","114","resources/trios/L1T4A3.jpg","38","restless",0.6,0.7,0.5,0.314967560706452,"true"
"image-keyboard-response",256,203740,"0.0-4.81-1.81","jyksed11mk05608",457,"67.csv","","null","resources/maskTrios/BT4B.jpg","null","",NA,NA,NA,NA,""
"image-keyboard-response",257,204952,"0.0-4.81-2.81","jyksed11mk05608",457,"67.csv","","null","resources/images/coin2.png","null","",NA,NA,NA,NA,""
"image-keyboard-response",258,205188,"0.0-4.82-0.82","jyksed11mk05608",457,"67.csv","","234.09999999962747","resources/trios/L1T4A3.jpg","38","restless",0.6,0.7,0.5,0.739750295422525,"false"
"image-keyboard-response",259,205591,"0.0-4.82-1.82","jyksed11mk05608",457,"67.csv","","null","resources/maskTrios/BT4B.jpg","null","",NA,NA,NA,NA,""
"image-keyboard-response",260,206807,"0.0-4.82-2.82","jyksed11mk05608",457,"67.csv","","null","resources/images/fishbone.png","null","",NA,NA,NA,NA,""
"image-keyboard-response",261,207078,"0.0-4.83-0.83","jyksed11mk05608",457,"67.csv","","269.20000000018626","resources/trios/L1T4A3.jpg","38","restless",0.6,0.7,0.5,0.122073991397559,"true"
"image-keyboard-response",262,207490,"0.0-4.83-1.83","jyksed11mk05608",457,"67.csv","","null","resources/maskTrios/BT4B.jpg","null","",NA,NA,NA,NA,""
"image-keyboard-response",263,208694,"0.0-4.83-2.83","jyksed11mk05608",457,"67.csv","","null","resources/images/coin2.png","null","",NA,NA,NA,NA,""
"image-keyboard-response",264,208865,"0.0-4.84-0.84","jyksed11mk05608",457,"67.csv","","168.80000000074506","resources/trios/L1T4A3.jpg","38","restless",0.5,0.7,0.5,0.900112219243011,"false"
"image-keyboard-response",265,209294,"0.0-4.84-1.84","jyksed11mk05608",457,"67.csv","","null","resources/maskTrios/BT4B.jpg","null","",NA,NA,NA,NA,""
"image-keyboard-response",266,210500,"0.0-4.84-2.84","jyksed11mk05608",457,"67.csv","","null","resources/images/fishbone.png","null","",NA,NA,NA,NA,""
"image-keyboard-response",267,210952,"0.0-4.85-0.85","jyksed11mk05608",457,"67.csv","","450.5","resources/trios/L1T4A3.jpg","38","restless",0.5,0.7,0.5,0.8414588679904,"false"
"image-keyboard-response",268,211358,"0.0-4.85-1.85","jyksed11mk05608",457,"67.csv","","null","resources/maskTrios/BT4B.jpg","null","",NA,NA,NA,NA,""
"image-keyboard-response",269,212572,"0.0-4.85-2.85","jyksed11mk05608",457,"67.csv","","null","resources/images/fishbone.png","null","",NA,NA,NA,NA,""
"image-keyboard-response",270,212996,"0.0-4.86-0.86","jyksed11mk05608",457,"67.csv","","422.79999999981374","resources/trios/L1T4A3.jpg","39","restless",0.4,0.7,0.5,0.288951842621547,"true"
"image-keyboard-response",271,213401,"0.0-4.86-1.86","jyksed11mk05608",457,"67.csv","","null","resources/maskTrios/BBA3.jpg","null","",NA,NA,NA,NA,""
"image-keyboard-response",272,214608,"0.0-4.86-2.86","jyksed11mk05608",457,"67.csv","","null","resources/images/coin2.png","null","",NA,NA,NA,NA,""
"image-keyboard-response",273,214878,"0.0-4.87-0.87","jyksed11mk05608",457,"67.csv","","267.40000000037253","resources/trios/L1T4A3.jpg","39","restless",0.4,0.7,0.5,0.984090563293785,"false"
"image-keyboard-response",274,215282,"0.0-4.87-1.87","jyksed11mk05608",457,"67.csv","","null","resources/maskTrios/BBA3.jpg","null","",NA,NA,NA,NA,""
"image-keyboard-response",275,216494,"0.0-4.87-2.87","jyksed11mk05608",457,"67.csv","","null","resources/images/fishbone.png","null","",NA,NA,NA,NA,""
"image-keyboard-response",276,216767,"0.0-4.88-0.88","jyksed11mk05608",457,"67.csv","","271.79999999981374","resources/trios/L1T4A3.jpg","37","restless",0.4,0.7,0.5,0.567252327670119,"false"
"image-keyboard-response",277,217183,"0.0-4.88-1.88","jyksed11mk05608",457,"67.csv","","null","resources/maskTrios/L1BB.jpg","null","",NA,NA,NA,NA,""
"image-keyboard-response",278,218392,"0.0-4.88-2.88","jyksed11mk05608",457,"67.csv","","null","resources/images/fishbone.png","null","",NA,NA,NA,NA,""
"image-keyboard-response",279,218654,"0.0-4.89-0.89","jyksed11mk05608",457,"67.csv","","261.70000000018626","resources/trios/L1T4A3.jpg","37","restless",0.4,0.7,0.5,0.831860702613135,"false"
"image-keyboard-response",280,219070,"0.0-4.89-1.89","jyksed11mk05608",457,"67.csv","","null","resources/maskTrios/L1BB.jpg","null","",NA,NA,NA,NA,""
"image-keyboard-response",281,220276,"0.0-4.89-2.89","jyksed11mk05608",457,"67.csv","","null","resources/images/fishbone.png","null","",NA,NA,NA,NA,""
"image-keyboard-response",282,220525,"0.0-4.90-0.90","jyksed11mk05608",457,"67.csv","","248.1000000005588","resources/trios/L1T4A3.jpg","38","restless",0.4,0.7,0.5,0.297134514316705,"true"
"image-keyboard-response",283,220927,"0.0-4.90-1.90","jyksed11mk05608",457,"67.csv","","null","resources/maskTrios/BT4B.jpg","null","",NA,NA,NA,NA,""
"image-keyboard-response",284,222132,"0.0-4.90-2.90","jyksed11mk05608",457,"67.csv","","null","resources/images/coin2.png","null","",NA,NA,NA,NA,""
"image-keyboard-response",285,222428,"0.0-4.91-0.91","jyksed11mk05608",457,"67.csv","","295.20000000018626","resources/trios/L1T4A3.jpg","38","restless",0.4,0.7,0.5,0.971739717342545,"false"
"image-keyboard-response",286,222830,"0.0-4.91-1.91","jyksed11mk05608",457,"67.csv","","null","resources/maskTrios/BT4B.jpg","null","",NA,NA,NA,NA,""
"image-keyboard-response",287,224043,"0.0-4.91-2.91","jyksed11mk05608",457,"67.csv","","null","resources/images/fishbone.png","null","",NA,NA,NA,NA,""
"image-keyboard-response",288,224368,"0.0-4.92-0.92","jyksed11mk05608",457,"67.csv","","323.59999999962747","resources/trios/L1T4A3.jpg","38","restless",0.4,0.7,0.5,0.644222585991819,"true"
"image-keyboard-response",289,224782,"0.0-4.92-1.92","jyksed11mk05608",457,"67.csv","","null","resources/maskTrios/BT4B.jpg","null","",NA,NA,NA,NA,""
"image-keyboard-response",290,225992,"0.0-4.92-2.92","jyksed11mk05608",457,"67.csv","","null","resources/images/coin2.png","null","",NA,NA,NA,NA,""
"image-keyboard-response",291,226269,"0.0-4.93-0.93","jyksed11mk05608",457,"67.csv","","275.79999999981374","resources/trios/L1T4A3.jpg","38","restless",0.4,0.7,0.5,0.294379430593731,"true"
"image-keyboard-response",292,226680,"0.0-4.93-1.93","jyksed11mk05608",457,"67.csv","","null","resources/maskTrios/BT4B.jpg","null","",NA,NA,NA,NA,""
"image-keyboard-response",293,227883,"0.0-4.93-2.93","jyksed11mk05608",457,"67.csv","","null","resources/images/coin2.png","null","",NA,NA,NA,NA,""
"image-keyboard-response",294,228195,"0.0-4.94-0.94","jyksed11mk05608",457,"67.csv","","310.70000000018626","resources/trios/L1T4A3.jpg","38","restless",0.4,0.7,0.5,0.463990190045767,"true"
"image-keyboard-response",295,228611,"0.0-4.94-1.94","jyksed11mk05608",457,"67.csv","","null","resources/maskTrios/BT4B.jpg","null","",NA,NA,NA,NA,""
"image-keyboard-response",296,229817,"0.0-4.94-2.94","jyksed11mk05608",457,"67.csv","","null","resources/images/coin2.png","null","",NA,NA,NA,NA,""
"image-keyboard-response",297,230060,"0.0-4.95-0.95","jyksed11mk05608",457,"67.csv","","242","resources/trios/L1T4A3.jpg","38","restless",0.4,0.7,0.5,0.402164661552908,"true"
"image-keyboard-response",298,230471,"0.0-4.95-1.95","jyksed11mk05608",457,"67.csv","","null","resources/maskTrios/BT4B.jpg","null","",NA,NA,NA,NA,""
"image-keyboard-response",299,231680,"0.0-4.95-2.95","jyksed11mk05608",457,"67.csv","","null","resources/images/coin2.png","null","",NA,NA,NA,NA,""
"image-keyboard-response",300,231967,"0.0-4.96-0.96","jyksed11mk05608",457,"67.csv","","285.59999999962747","resources/trios/L1T4A3.jpg","38","restless",0.4,0.7,0.5,0.609542807693964,"true"
"image-keyboard-response",301,232368,"0.0-4.96-1.96","jyksed11mk05608",457,"67.csv","","null","resources/maskTrios/BT4B.jpg","null","",NA,NA,NA,NA,""
"image-keyboard-response",302,233570,"0.0-4.96-2.96","jyksed11mk05608",457,"67.csv","","null","resources/images/coin2.png","null","",NA,NA,NA,NA,""
"image-keyboard-response",303,233827,"0.0-4.97-0.97","jyksed11mk05608",457,"67.csv","","255.70000000018626","resources/trios/L1T4A3.jpg","38","restless",0.4,0.7,0.5,0.625745941976956,"true"
"image-keyboard-response",304,234235,"0.0-4.97-1.97","jyksed11mk05608",457,"67.csv","","null","resources/maskTrios/BT4B.jpg","null","",NA,NA,NA,NA,""
"image-keyboard-response",305,235450,"0.0-4.97-2.97","jyksed11mk05608",457,"67.csv","","null","resources/images/coin2.png","null","",NA,NA,NA,NA,""
"image-keyboard-response",306,235642,"0.0-4.98-0.98","jyksed11mk05608",457,"67.csv","","190.1000000005588","resources/trios/L1T4A3.jpg","38","restless",0.4,0.7,0.5,0.181291559309035,"true"
"image-keyboard-response",307,236052,"0.0-4.98-1.98","jyksed11mk05608",457,"67.csv","","null","resources/maskTrios/BT4B.jpg","null","",NA,NA,NA,NA,""
"image-keyboard-response",308,237269,"0.0-4.98-2.98","jyksed11mk05608",457,"67.csv","","null","resources/images/coin2.png","null","",NA,NA,NA,NA,""
"image-keyboard-response",309,237300,"0.0-4.99-0.99","jyksed11mk05608",457,"67.csv","","29.5","resources/trios/L1T4A3.jpg","38","restless",0.3,0.7,0.5,0.31513220647794,"true"
"image-keyboard-response",310,237703,"0.0-4.99-1.99","jyksed11mk05608",457,"67.csv","","null","resources/maskTrios/BT4B.jpg","null","",NA,NA,NA,NA,""
"image-keyboard-response",311,238915,"0.0-4.99-2.99","jyksed11mk05608",457,"67.csv","","null","resources/images/coin2.png","null","",NA,NA,NA,NA,""
"image-keyboard-response",312,239120,"0.0-4.100-0.100","jyksed11mk05608",457,"67.csv","","203.70000000018626","resources/trios/L1T4A3.jpg","38","restless",0.3,0.7,0.6,0.15996730991813,"true"
"image-keyboard-response",313,239527,"0.0-4.100-1.100","jyksed11mk05608",457,"67.csv","","null","resources/maskTrios/BT4B.jpg","null","",NA,NA,NA,NA,""
"image-keyboard-response",314,240728,"0.0-4.100-2.100","jyksed11mk05608",457,"67.csv","","null","resources/images/coin2.png","null","",NA,NA,NA,NA,""
"image-keyboard-response",315,241258,"0.0-4.101-0.101","jyksed11mk05608",457,"67.csv","","528.7999999998137","resources/trios/L1T4A3.jpg","38","restless",0.3,0.7,0.6,0.994570915283681,"false"
"image-keyboard-response",316,241663,"0.0-4.101-1.101","jyksed11mk05608",457,"67.csv","","null","resources/maskTrios/BT4B.jpg","null","",NA,NA,NA,NA,""
"image-keyboard-response",317,242871,"0.0-4.101-2.101","jyksed11mk05608",457,"67.csv","","null","resources/images/fishbone.png","null","",NA,NA,NA,NA,""
"image-keyboard-response",318,243124,"0.0-4.102-0.102","jyksed11mk05608",457,"67.csv","","252","resources/trios/L1T4A3.jpg","38","restless",0.3,0.7,0.6,0.394912193396104,"true"
"image-keyboard-response",319,243536,"0.0-4.102-1.102","jyksed11mk05608",457,"67.csv","","null","resources/maskTrios/BT4B.jpg","null","",NA,NA,NA,NA,""
"image-keyboard-response",320,244748,"0.0-4.102-2.102","jyksed11mk05608",457,"67.csv","","null","resources/images/coin2.png","null","",NA,NA,NA,NA,""
"image-keyboard-response",321,244953,"0.0-4.103-0.103","jyksed11mk05608",457,"67.csv","","204.09999999962747","resources/trios/L1T4A3.jpg","38","restless",0.3,0.7,0.6,0.931953391792201,"false"
"image-keyboard-response",322,245367,"0.0-4.103-1.103","jyksed11mk05608",457,"67.csv","","null","resources/maskTrios/BT4B.jpg","null","",NA,NA,NA,NA,""
"image-keyboard-response",323,246574,"0.0-4.103-2.103","jyksed11mk05608",457,"67.csv","","null","resources/images/fishbone.png","null","",NA,NA,NA,NA,""
"image-keyboard-response",324,247220,"0.0-4.104-0.104","jyksed11mk05608",457,"67.csv","","644.0999999996275","resources/trios/L1T4A3.jpg","38","restless",0.3,0.7,0.6,0.0359654372553113,"true"
"image-keyboard-response",325,247625,"0.0-4.104-1.104","jyksed11mk05608",457,"67.csv","","null","resources/maskTrios/BT4B.jpg","null","",NA,NA,NA,NA,""
"image-keyboard-response",326,248828,"0.0-4.104-2.104","jyksed11mk05608",457,"67.csv","","null","resources/images/coin2.png","null","",NA,NA,NA,NA,""
"image-keyboard-response",327,249105,"0.0-4.105-0.105","jyksed11mk05608",457,"67.csv","","275.5","resources/trios/L1T4A3.jpg","38","restless",0.3,0.7,0.6,0.960204777788344,"false"
"image-keyboard-response",328,249520,"0.0-4.105-1.105","jyksed11mk05608",457,"67.csv","","null","resources/maskTrios/BT4B.jpg","null","",NA,NA,NA,NA,""
"image-keyboard-response",329,250734,"0.0-4.105-2.105","jyksed11mk05608",457,"67.csv","","null","resources/images/fishbone.png","null","",NA,NA,NA,NA,""
"image-keyboard-response",330,251017,"0.0-4.106-0.106","jyksed11mk05608",457,"67.csv","","281.5","resources/trios/L1T4A3.jpg","38","restless",0.3,0.7,0.6,0.518013670160567,"true"
"image-keyboard-response",331,251419,"0.0-4.106-1.106","jyksed11mk05608",457,"67.csv","","null","resources/maskTrios/BT4B.jpg","null","",NA,NA,NA,NA,""
"image-keyboard-response",332,252624,"0.0-4.106-2.106","jyksed11mk05608",457,"67.csv","","null","resources/images/coin2.png","null","",NA,NA,NA,NA,""
"image-keyboard-response",333,252882,"0.0-4.107-0.107","jyksed11mk05608",457,"67.csv","","257.3999999994412","resources/trios/L1T4A3.jpg","38","restless",0.3,0.7,0.6,0.589212627438782,"true"
"image-keyboard-response",334,253291,"0.0-4.107-1.107","jyksed11mk05608",457,"67.csv","","null","resources/maskTrios/BT4B.jpg","null","",NA,NA,NA,NA,""
"image-keyboard-response",335,254502,"0.0-4.107-2.107","jyksed11mk05608",457,"67.csv","","null","resources/images/coin2.png","null","",NA,NA,NA,NA,""
"image-keyboard-response",336,254726,"0.0-4.108-0.108","jyksed11mk05608",457,"67.csv","","222.70000000018626","resources/trios/L1T4A3.jpg","38","restless",0.2,0.7,0.6,0.150951194354717,"true"
"image-keyboard-response",337,255141,"0.0-4.108-1.108","jyksed11mk05608",457,"67.csv","","null","resources/maskTrios/BT4B.jpg","null","",NA,NA,NA,NA,""
"image-keyboard-response",338,256347,"0.0-4.108-2.108","jyksed11mk05608",457,"67.csv","","null","resources/images/coin2.png","null","",NA,NA,NA,NA,""
"image-keyboard-response",339,256610,"0.0-4.109-0.109","jyksed11mk05608",457,"67.csv","","262","resources/trios/L1T4A3.jpg","38","restless",0.2,0.7,0.6,0.606805638260718,"true"
"image-keyboard-response",340,257018,"0.0-4.109-1.109","jyksed11mk05608",457,"67.csv","","null","resources/maskTrios/BT4B.jpg","null","",NA,NA,NA,NA,""
"image-keyboard-response",341,258233,"0.0-4.109-2.109","jyksed11mk05608",457,"67.csv","","null","resources/images/coin2.png","null","",NA,NA,NA,NA,""
"image-keyboard-response",342,258366,"0.0-4.110-0.110","jyksed11mk05608",457,"67.csv","","131.79999999981374","resources/trios/L1T4A3.jpg","38","restless",0.2,0.7,0.6,0.285584166946515,"true"
"image-keyboard-response",343,258781,"0.0-4.110-1.110","jyksed11mk05608",457,"67.csv","","null","resources/maskTrios/BT4B.jpg","null","",NA,NA,NA,NA,""
"image-keyboard-response",344,259997,"0.0-4.110-2.110","jyksed11mk05608",457,"67.csv","","null","resources/images/coin2.png","null","",NA,NA,NA,NA,""
"image-keyboard-response",345,260254,"0.0-4.111-0.111","jyksed11mk05608",457,"67.csv","","256","resources/trios/L1T4A3.jpg","38","restless",0.2,0.6,0.6,0.887858056604173,"false"
"image-keyboard-response",346,260656,"0.0-4.111-1.111","jyksed11mk05608",457,"67.csv","","null","resources/maskTrios/BT4B.jpg","null","",NA,NA,NA,NA,""
"image-keyboard-response",347,261871,"0.0-4.111-2.111","jyksed11mk05608",457,"67.csv","","null","resources/images/fishbone.png","null","",NA,NA,NA,NA,""
"image-keyboard-response",348,261900,"0.0-4.112-0.112","jyksed11mk05608",457,"67.csv","","27.700000000186265","resources/trios/L1T4A3.jpg","38","restless",0.3,0.6,0.6,0.620079787596987,"false"
"image-keyboard-response",349,262302,"0.0-4.112-1.112","jyksed11mk05608",457,"67.csv","","null","resources/maskTrios/BT4B.jpg","null","",NA,NA,NA,NA,""
"image-keyboard-response",350,263504,"0.0-4.112-2.112","jyksed11mk05608",457,"67.csv","","null","resources/images/fishbone.png","null","",NA,NA,NA,NA,""
"image-keyboard-response",351,263767,"0.0-4.113-0.113","jyksed11mk05608",457,"67.csv","","262.30000000074506","resources/trios/L1T4A3.jpg","38","restless",0.3,0.6,0.6,0.435002921987599,"true"
"image-keyboard-response",352,264188,"0.0-4.113-1.113","jyksed11mk05608",457,"67.csv","","null","resources/maskTrios/BT4B.jpg","null","",NA,NA,NA,NA,""
"image-keyboard-response",353,265401,"0.0-4.113-2.113","jyksed11mk05608",457,"67.csv","","null","resources/images/coin2.png","null","",NA,NA,NA,NA,""
"image-keyboard-response",354,265638,"0.0-4.114-0.114","jyksed11mk05608",457,"67.csv","","236","resources/trios/L1T4A3.jpg","38","restless",0.3,0.7,0.6,0.766322958125007,"false"
"image-keyboard-response",355,266047,"0.0-4.114-1.114","jyksed11mk05608",457,"67.csv","","null","resources/maskTrios/BT4B.jpg","null","",NA,NA,NA,NA,""
"image-keyboard-response",356,267262,"0.0-4.114-2.114","jyksed11mk05608",457,"67.csv","","null","resources/images/fishbone.png","null","",NA,NA,NA,NA,""
"image-keyboard-response",357,267589,"0.0-4.115-0.115","jyksed11mk05608",457,"67.csv","","325.90000000037253","resources/trios/L1T4A3.jpg","39","restless",0.3,0.6,0.6,0.131802123701429,"true"
"image-keyboard-response",358,267999,"0.0-4.115-1.115","jyksed11mk05608",457,"67.csv","","null","resources/maskTrios/BBA3.jpg","null","",NA,NA,NA,NA,""
"image-keyboard-response",359,269212,"0.0-4.115-2.115","jyksed11mk05608",457,"67.csv","","null","resources/images/coin2.png","null","",NA,NA,NA,NA,""
"image-keyboard-response",360,269494,"0.0-4.116-0.116","jyksed11mk05608",457,"67.csv","","280.90000000037253","resources/trios/L1T4A3.jpg","39","restless",0.3,0.5,0.6,0.493763470268271,"true"
"image-keyboard-response",361,269908,"0.0-4.116-1.116","jyksed11mk05608",457,"67.csv","","null","resources/maskTrios/BBA3.jpg","null","",NA,NA,NA,NA,""
"image-keyboard-response",362,271123,"0.0-4.116-2.116","jyksed11mk05608",457,"67.csv","","null","resources/images/coin2.png","null","",NA,NA,NA,NA,""
"image-keyboard-response",363,271387,"0.0-4.117-0.117","jyksed11mk05608",457,"67.csv","","262.30000000074506","resources/trios/L1T4A3.jpg","39","restless",0.3,0.5,0.6,0.470671464474525,"true"
"image-keyboard-response",364,271802,"0.0-4.117-1.117","jyksed11mk05608",457,"67.csv","","null","resources/maskTrios/BBA3.jpg","null","",NA,NA,NA,NA,""
"image-keyboard-response",365,273008,"0.0-4.117-2.117","jyksed11mk05608",457,"67.csv","","null","resources/images/coin2.png","null","",NA,NA,NA,NA,""
"image-keyboard-response",366,273253,"0.0-4.118-0.118","jyksed11mk05608",457,"67.csv","","243.80000000074506","resources/trios/L1T4A3.jpg","39","restless",0.3,0.5,0.6,0.881658176434609,"false"
"image-keyboard-response",367,273662,"0.0-4.118-1.118","jyksed11mk05608",457,"67.csv","","null","resources/maskTrios/BBA3.jpg","null","",NA,NA,NA,NA,""
"image-keyboard-response",368,274868,"0.0-4.118-2.118","jyksed11mk05608",457,"67.csv","","null","resources/images/fishbone.png","null","",NA,NA,NA,NA,""
"image-keyboard-response",369,275171,"0.0-4.119-0.119","jyksed11mk05608",457,"67.csv","","301.59999999962747","resources/trios/L1T4A3.jpg","39","restless",0.3,0.5,0.6,0.957117738221303,"false"
"image-keyboard-response",370,275577,"0.0-4.119-1.119","jyksed11mk05608",457,"67.csv","","null","resources/maskTrios/BBA3.jpg","null","",NA,NA,NA,NA,""
"image-keyboard-response",371,276792,"0.0-4.119-2.119","jyksed11mk05608",457,"67.csv","","null","resources/images/fishbone.png","null","",NA,NA,NA,NA,""
"image-keyboard-response",372,277051,"0.0-4.120-0.120","jyksed11mk05608",457,"67.csv","","258.59999999962747","resources/trios/L1T4A3.jpg","39","restless",0.3,0.5,0.6,0.479174184632105,"true"
"image-keyboard-response",373,277461,"0.0-4.120-1.120","jyksed11mk05608",457,"67.csv","","null","resources/maskTrios/BBA3.jpg","null","",NA,NA,NA,NA,""
"image-keyboard-response",374,278675,"0.0-4.120-2.120","jyksed11mk05608",457,"67.csv","","null","resources/images/coin2.png","null","",NA,NA,NA,NA,""
"image-keyboard-response",375,278940,"0.0-4.121-0.121","jyksed11mk05608",457,"67.csv","","263.70000000018626","resources/trios/L1T4A3.jpg","39","restless",0.3,0.5,0.6,0.143939003133787,"true"
"image-keyboard-response",376,279350,"0.0-4.121-1.121","jyksed11mk05608",457,"67.csv","","null","resources/maskTrios/BBA3.jpg","null","",NA,NA,NA,NA,""
"image-keyboard-response",377,280561,"0.0-4.121-2.121","jyksed11mk05608",457,"67.csv","","null","resources/images/coin2.png","null","",NA,NA,NA,NA,""
"image-keyboard-response",378,280808,"0.0-4.122-0.122","jyksed11mk05608",457,"67.csv","","245.90000000037253","resources/trios/L1T4A3.jpg","39","restless",0.3,0.5,0.6,0.833848251232976,"false"
"image-keyboard-response",379,281238,"0.0-4.122-1.122","jyksed11mk05608",457,"67.csv","","null","resources/maskTrios/BBA3.jpg","null","",NA,NA,NA,NA,""
"image-keyboard-response",380,282453,"0.0-4.122-2.122","jyksed11mk05608",457,"67.csv","","null","resources/images/fishbone.png","null","",NA,NA,NA,NA,""
"image-keyboard-response",381,284473,"0.0-4.123-0.123","jyksed11mk05608",457,"67.csv","","2017.4000000003725","resources/trios/L1T4A3.jpg","37","restless",0.3,0.5,0.6,0.350938727356938,"false"
"image-keyboard-response",382,284888,"0.0-4.123-1.123","jyksed11mk05608",457,"67.csv","","null","resources/maskTrios/L1BB.jpg","null","",NA,NA,NA,NA,""
"image-keyboard-response",383,286105,"0.0-4.123-2.123","jyksed11mk05608",457,"67.csv","","null","resources/images/fishbone.png","null","",NA,NA,NA,NA,""
"image-keyboard-response",384,286367,"0.0-4.124-0.124","jyksed11mk05608",457,"67.csv","","260.8999999994412","resources/trios/L1T4A3.jpg","37","restless",0.3,0.5,0.6,0.113751899524315,"true"
"image-keyboard-response",385,286782,"0.0-4.124-1.124","jyksed11mk05608",457,"67.csv","","null","resources/maskTrios/L1BB.jpg","null","",NA,NA,NA,NA,""
"image-keyboard-response",386,287986,"0.0-4.124-2.124","jyksed11mk05608",457,"67.csv","","null","resources/images/coin2.png","null","",NA,NA,NA,NA,""
"image-keyboard-response",387,288243,"0.0-4.125-0.125","jyksed11mk05608",457,"67.csv","","255.79999999981374","resources/trios/L1T4A3.jpg","37","restless",0.3,0.6,0.6,0.0474204955613675,"true"
"image-keyboard-response",388,288650,"0.0-4.125-1.125","jyksed11mk05608",457,"67.csv","","null","resources/maskTrios/L1BB.jpg","null","",NA,NA,NA,NA,""
"image-keyboard-response",389,289851,"0.0-4.125-2.125","jyksed11mk05608",457,"67.csv","","null","resources/images/coin2.png","null","",NA,NA,NA,NA,""
"image-keyboard-response",390,290074,"0.0-4.126-0.126","jyksed11mk05608",457,"67.csv","","221.8999999994412","resources/trios/L1T4A3.jpg","37","restless",0.3,0.6,0.6,0.424293088933777,"false"
"image-keyboard-response",391,290486,"0.0-4.126-1.126","jyksed11mk05608",457,"67.csv","","null","resources/maskTrios/L1BB.jpg","null","",NA,NA,NA,NA,""
"image-keyboard-response",392,291689,"0.0-4.126-2.126","jyksed11mk05608",457,"67.csv","","null","resources/images/fishbone.png","null","",NA,NA,NA,NA,""
"image-keyboard-response",393,291994,"0.0-4.127-0.127","jyksed11mk05608",457,"67.csv","","303.20000000018626","resources/trios/L1T4A3.jpg","38","restless",0.2,0.5,0.6,0.0703666948887938,"true"
"image-keyboard-response",394,292400,"0.0-4.127-1.127","jyksed11mk05608",457,"67.csv","","null","resources/maskTrios/BT4B.jpg","null","",NA,NA,NA,NA,""
"image-keyboard-response",395,293612,"0.0-4.127-2.127","jyksed11mk05608",457,"67.csv","","null","resources/images/coin2.png","null","",NA,NA,NA,NA,""
"image-keyboard-response",396,293894,"0.0-4.128-0.128","jyksed11mk05608",457,"67.csv","","280.70000000018626","resources/trios/L1T4A3.jpg","38","restless",0.1,0.5,0.6,0.714617931714426,"false"
"image-keyboard-response",397,294302,"0.0-4.128-1.128","jyksed11mk05608",457,"67.csv","","null","resources/maskTrios/BT4B.jpg","null","",NA,NA,NA,NA,""
"image-keyboard-response",398,295512,"0.0-4.128-2.128","jyksed11mk05608",457,"67.csv","","null","resources/images/fishbone.png","null","",NA,NA,NA,NA,""
"image-keyboard-response",399,296298,"0.0-4.129-0.129","jyksed11mk05608",457,"67.csv","","785.0999999996275","resources/trios/L1T4A3.jpg","39","restless",0.1,0.5,0.6,0.300110738300888,"true"
"image-keyboard-response",400,296703,"0.0-4.129-1.129","jyksed11mk05608",457,"67.csv","","null","resources/maskTrios/BBA3.jpg","null","",NA,NA,NA,NA,""
"image-keyboard-response",401,297910,"0.0-4.129-2.129","jyksed11mk05608",457,"67.csv","","null","resources/images/coin2.png","null","",NA,NA,NA,NA,""
"image-keyboard-response",402,297937,"0.0-4.130-0.130","jyksed11mk05608",457,"67.csv","","26.09999999962747","resources/trios/L1T4A3.jpg","39","restless",0.1,0.4,0.6,0.824669655253446,"false"
"image-keyboard-response",403,298341,"0.0-4.130-1.130","jyksed11mk05608",457,"67.csv","","null","resources/maskTrios/BBA3.jpg","null","",NA,NA,NA,NA,""
"image-keyboard-response",404,299555,"0.0-4.130-2.130","jyksed11mk05608",457,"67.csv","","null","resources/images/fishbone.png","null","",NA,NA,NA,NA,""
"image-keyboard-response",405,299871,"0.0-4.131-0.131","jyksed11mk05608",457,"67.csv","","315.3999999994412","resources/trios/L1T4A3.jpg","38","restless",0.1,0.4,0.6,0.987151685146275,"false"
"image-keyboard-response",406,300284,"0.0-4.131-1.131","jyksed11mk05608",457,"67.csv","","null","resources/maskTrios/BT4B.jpg","null","",NA,NA,NA,NA,""
"image-keyboard-response",407,301492,"0.0-4.131-2.131","jyksed11mk05608",457,"67.csv","","null","resources/images/fishbone.png","null","",NA,NA,NA,NA,""
"image-keyboard-response",408,301727,"0.0-4.132-0.132","jyksed11mk05608",457,"67.csv","","233.1000000005588","resources/trios/L1T4A3.jpg","38","restless",0.1,0.4,0.6,0.805298377178691,"false"
"image-keyboard-response",409,302163,"0.0-4.132-1.132","jyksed11mk05608",457,"67.csv","","null","resources/maskTrios/BT4B.jpg","null","",NA,NA,NA,NA,""
"image-keyboard-response",410,303369,"0.0-4.132-2.132","jyksed11mk05608",457,"67.csv","","null","resources/images/fishbone.png","null","",NA,NA,NA,NA,""
"image-keyboard-response",411,303660,"0.0-4.133-0.133","jyksed11mk05608",457,"67.csv","","289.79999999981374","resources/trios/L1T4A3.jpg","38","restless",0.1,0.4,0.6,0.899898591524787,"false"
"image-keyboard-response",412,304063,"0.0-4.133-1.133","jyksed11mk05608",457,"67.csv","","null","resources/maskTrios/BT4B.jpg","null","",NA,NA,NA,NA,""
"image-keyboard-response",413,305272,"0.0-4.133-2.133","jyksed11mk05608",457,"67.csv","","null","resources/images/fishbone.png","null","",NA,NA,NA,NA,""
"image-keyboard-response",414,305413,"0.0-4.134-0.134","jyksed11mk05608",457,"67.csv","","139.5","resources/trios/L1T4A3.jpg","37","restless",0.1,0.4,0.6,0.502032897669894,"false"
"image-keyboard-response",415,305831,"0.0-4.134-1.134","jyksed11mk05608",457,"67.csv","","null","resources/maskTrios/L1BB.jpg","null","",NA,NA,NA,NA,""
"image-keyboard-response",416,307034,"0.0-4.134-2.134","jyksed11mk05608",457,"67.csv","","null","resources/images/fishbone.png","null","",NA,NA,NA,NA,""
"image-keyboard-response",417,307182,"0.0-4.135-0.135","jyksed11mk05608",457,"67.csv","","147.30000000074506","resources/trios/L1T4A3.jpg","37","restless",0.1,0.4,0.5,0.0231467773409899,"true"
"image-keyboard-response",418,307591,"0.0-4.135-1.135","jyksed11mk05608",457,"67.csv","","null","resources/maskTrios/L1BB.jpg","null","",NA,NA,NA,NA,""
"image-keyboard-response",419,308797,"0.0-4.135-2.135","jyksed11mk05608",457,"67.csv","","null","resources/images/coin2.png","null","",NA,NA,NA,NA,""
"image-keyboard-response",420,311002,"0.0-4.136-0.136","jyksed11mk05608",457,"67.csv","","2204.0999999996275","resources/trios/L1T4A3.jpg","37","restless",0.1,0.4,0.5,0.68543103368992,"false"
"image-keyboard-response",421,311415,"0.0-4.136-1.136","jyksed11mk05608",457,"67.csv","","null","resources/maskTrios/L1BB.jpg","null","",NA,NA,NA,NA,""
"image-keyboard-response",422,312624,"0.0-4.136-2.136","jyksed11mk05608",457,"67.csv","","null","resources/images/fishbone.png","null","",NA,NA,NA,NA,""
"image-keyboard-response",423,312880,"0.0-4.137-0.137","jyksed11mk05608",457,"67.csv","","254.70000000018626","resources/trios/L1T4A3.jpg","38","restless",0.1,0.4,0.5,0.512228203505631,"false"
"image-keyboard-response",424,313300,"0.0-4.137-1.137","jyksed11mk05608",457,"67.csv","","null","resources/maskTrios/BT4B.jpg","null","",NA,NA,NA,NA,""
"image-keyboard-response",425,314506,"0.0-4.137-2.137","jyksed11mk05608",457,"67.csv","","null","resources/images/fishbone.png","null","",NA,NA,NA,NA,""
"image-keyboard-response",426,314775,"0.0-4.138-0.138","jyksed11mk05608",457,"67.csv","","268.40000000037253","resources/trios/L1T4A3.jpg","39","restless",0.1,0.4,0.5,0.276231736170926,"true"
"image-keyboard-response",427,315188,"0.0-4.138-1.138","jyksed11mk05608",457,"67.csv","","null","resources/maskTrios/BBA3.jpg","null","",NA,NA,NA,NA,""
"image-keyboard-response",428,316398,"0.0-4.138-2.138","jyksed11mk05608",457,"67.csv","","null","resources/images/coin2.png","null","",NA,NA,NA,NA,""
"image-keyboard-response",429,316641,"0.0-4.139-0.139","jyksed11mk05608",457,"67.csv","","241.30000000074506","resources/trios/L1T4A3.jpg","39","restless",0.1,0.4,0.5,0.836812623106918,"false"
"image-keyboard-response",430,317049,"0.0-4.139-1.139","jyksed11mk05608",457,"67.csv","","null","resources/maskTrios/BBA3.jpg","null","",NA,NA,NA,NA,""
"image-keyboard-response",431,318264,"0.0-4.139-2.139","jyksed11mk05608",457,"67.csv","","null","resources/images/fishbone.png","null","",NA,NA,NA,NA,""
"image-keyboard-response",432,318573,"0.0-4.140-0.140","jyksed11mk05608",457,"67.csv","","307.69999999925494","resources/trios/L1T4A3.jpg","39","restless",0.1,0.4,0.5,0.245968441833023,"true"
"image-keyboard-response",433,318990,"0.0-4.140-1.140","jyksed11mk05608",457,"67.csv","","null","resources/maskTrios/BBA3.jpg","null","",NA,NA,NA,NA,""
"image-keyboard-response",434,320203,"0.0-4.140-2.140","jyksed11mk05608",457,"67.csv","","null","resources/images/coin2.png","null","",NA,NA,NA,NA,""
"image-keyboard-response",435,320472,"0.0-4.141-0.141","jyksed11mk05608",457,"67.csv","","268.09999999962747","resources/trios/L1T4A3.jpg","39","restless",0.1,0.4,0.5,0.831167525695357,"false"
"image-keyboard-response",436,320877,"0.0-4.141-1.141","jyksed11mk05608",457,"67.csv","","null","resources/maskTrios/BBA3.jpg","null","",NA,NA,NA,NA,""
"image-keyboard-response",437,322081,"0.0-4.141-2.141","jyksed11mk05608",457,"67.csv","","null","resources/images/fishbone.png","null","",NA,NA,NA,NA,""
"image-keyboard-response",438,322348,"0.0-4.142-0.142","jyksed11mk05608",457,"67.csv","","265.80000000074506","resources/trios/L1T4A3.jpg","38","restless",0.1,0.4,0.5,0.891482330747322,"false"
"image-keyboard-response",439,322757,"0.0-4.142-1.142","jyksed11mk05608",457,"67.csv","","null","resources/maskTrios/BT4B.jpg","null","",NA,NA,NA,NA,""
"image-keyboard-response",440,323977,"0.0-4.142-2.142","jyksed11mk05608",457,"67.csv","","null","resources/images/fishbone.png","null","",NA,NA,NA,NA,""
"image-keyboard-response",441,324317,"0.0-4.143-0.143","jyksed11mk05608",457,"67.csv","","338.29999999981374","resources/trios/L1T4A3.jpg","38","restless",0.1,0.4,0.5,0.892180677282231,"false"
"image-keyboard-response",442,324727,"0.0-4.143-1.143","jyksed11mk05608",457,"67.csv","","null","resources/maskTrios/BT4B.jpg","null","",NA,NA,NA,NA,""
"image-keyboard-response",443,325939,"0.0-4.143-2.143","jyksed11mk05608",457,"67.csv","","null","resources/images/fishbone.png","null","",NA,NA,NA,NA,""
"image-keyboard-response",444,326351,"0.0-4.144-0.144","jyksed11mk05608",457,"67.csv","","411.09999999962747","resources/trios/L1T4A3.jpg","37","restless",0.1,0.4,0.6,0.525898424654433,"false"
"image-keyboard-response",445,326772,"0.0-4.144-1.144","jyksed11mk05608",457,"67.csv","","null","resources/maskTrios/L1BB.jpg","null","",NA,NA,NA,NA,""
"image-keyboard-response",446,327978,"0.0-4.144-2.144","jyksed11mk05608",457,"67.csv","","null","resources/images/fishbone.png","null","",NA,NA,NA,NA,""
"image-keyboard-response",447,328530,"0.0-4.145-0.145","jyksed11mk05608",457,"67.csv","","550.2000000001863","resources/trios/L1T4A3.jpg","37","restless",0.1,0.4,0.6,0.635103986177258,"false"
"image-keyboard-response",448,328936,"0.0-4.145-1.145","jyksed11mk05608",457,"67.csv","","null","resources/maskTrios/L1BB.jpg","null","",NA,NA,NA,NA,""
"image-keyboard-response",449,330139,"0.0-4.145-2.145","jyksed11mk05608",457,"67.csv","","null","resources/images/fishbone.png","null","",NA,NA,NA,NA,""
"image-keyboard-response",450,330410,"0.0-4.146-0.146","jyksed11mk05608",457,"67.csv","","269.90000000037253","resources/trios/L1T4A3.jpg","38","restless",0.1,0.4,0.6,0.210421606458606,"true"
"image-keyboard-response",451,330811,"0.0-4.146-1.146","jyksed11mk05608",457,"67.csv","","null","resources/maskTrios/BT4B.jpg","null","",NA,NA,NA,NA,""
"image-keyboard-response",452,332021,"0.0-4.146-2.146","jyksed11mk05608",457,"67.csv","","null","resources/images/coin2.png","null","",NA,NA,NA,NA,""
"image-keyboard-response",453,332293,"0.0-4.147-0.147","jyksed11mk05608",457,"67.csv","","269.70000000018626","resources/trios/L1T4A3.jpg","38","restless",0.1,0.4,0.6,0.207692014229237,"true"
"image-keyboard-response",454,332709,"0.0-4.147-1.147","jyksed11mk05608",457,"67.csv","","null","resources/maskTrios/BT4B.jpg","null","",NA,NA,NA,NA,""
"image-keyboard-response",455,333919,"0.0-4.147-2.147","jyksed11mk05608",457,"67.csv","","null","resources/images/coin2.png","null","",NA,NA,NA,NA,""
"image-keyboard-response",456,334152,"0.0-4.148-0.148","jyksed11mk05608",457,"67.csv","","231.20000000018626","resources/trios/L1T4A3.jpg","38","restless",0.1,0.4,0.6,0.811510874676604,"false"
"image-keyboard-response",457,334561,"0.0-4.148-1.148","jyksed11mk05608",457,"67.csv","","null","resources/maskTrios/BT4B.jpg","null","",NA,NA,NA,NA,""
"image-keyboard-response",458,335768,"0.0-4.148-2.148","jyksed11mk05608",457,"67.csv","","null","resources/images/fishbone.png","null","",NA,NA,NA,NA,""
"image-keyboard-response",459,336052,"0.0-4.149-0.149","jyksed11mk05608",457,"67.csv","","282.6000000005588","resources/trios/L1T4A3.jpg","38","restless",0.1,0.4,0.6,0.246663133484652,"true"
"image-keyboard-response",460,336462,"0.0-4.149-1.149","jyksed11mk05608",457,"67.csv","","null","resources/maskTrios/BT4B.jpg","null","",NA,NA,NA,NA,""
"image-keyboard-response",461,337672,"0.0-4.149-2.149","jyksed11mk05608",457,"67.csv","","null","resources/images/coin2.png","null","",NA,NA,NA,NA,""
"image-keyboard-response",462,337936,"0.0-4.150-0.150","jyksed11mk05608",457,"67.csv","","263.3999999994412","resources/trios/L1T4A3.jpg","38","restless",0.1,0.4,0.6,0.613936319498179,"false"
"image-keyboard-response",463,338352,"0.0-4.150-1.150","jyksed11mk05608",457,"67.csv","","null","resources/maskTrios/BT4B.jpg","null","",NA,NA,NA,NA,""
"image-keyboard-response",464,339563,"0.0-4.150-2.150","jyksed11mk05608",457,"67.csv","","null","resources/images/fishbone.png","null","",NA,NA,NA,NA,""
"image-keyboard-response",465,339941,"0.0-4.151-0.151","jyksed11mk05608",457,"67.csv","","377.09999999962747","resources/trios/L1T4A3.jpg","38","restless",0.1,0.4,0.6,0.994243339499058,"false"
"image-keyboard-response",466,340352,"0.0-4.151-1.151","jyksed11mk05608",457,"67.csv","","null","resources/maskTrios/BT4B.jpg","null","",NA,NA,NA,NA,""
"image-keyboard-response",467,341558,"0.0-4.151-2.151","jyksed11mk05608",457,"67.csv","","null","resources/images/fishbone.png","null","",NA,NA,NA,NA,""
"image-keyboard-response",468,341788,"0.0-4.152-0.152","jyksed11mk05608",457,"67.csv","","228.6000000005588","resources/trios/L1T4A3.jpg","39","restless",0.2,0.4,0.6,0.934278518771139,"false"
"image-keyboard-response",469,342201,"0.0-4.152-1.152","jyksed11mk05608",457,"67.csv","","null","resources/maskTrios/BBA3.jpg","null","",NA,NA,NA,NA,""
"image-keyboard-response",470,343422,"0.0-4.152-2.152","jyksed11mk05608",457,"67.csv","","null","resources/images/fishbone.png","null","",NA,NA,NA,NA,""
"image-keyboard-response",471,343734,"0.0-4.153-0.153","jyksed11mk05608",457,"67.csv","","311.59999999962747","resources/trios/L1T4A3.jpg","39","restless",0.2,0.4,0.6,0.816633200409677,"false"
"image-keyboard-response",472,344138,"0.0-4.153-1.153","jyksed11mk05608",457,"67.csv","","null","resources/maskTrios/BBA3.jpg","null","",NA,NA,NA,NA,""
"image-keyboard-response",473,345341,"0.0-4.153-2.153","jyksed11mk05608",457,"67.csv","","null","resources/images/fishbone.png","null","",NA,NA,NA,NA,""
"image-keyboard-response",474,345629,"0.0-4.154-0.154","jyksed11mk05608",457,"67.csv","","287","resources/trios/L1T4A3.jpg","37","restless",0.2,0.4,0.6,0.288902826251214,"false"
"image-keyboard-response",475,346041,"0.0-4.154-1.154","jyksed11mk05608",457,"67.csv","","null","resources/maskTrios/L1BB.jpg","null","",NA,NA,NA,NA,""
"image-keyboard-response",476,347255,"0.0-4.154-2.154","jyksed11mk05608",457,"67.csv","","null","resources/images/fishbone.png","null","",NA,NA,NA,NA,""
"image-keyboard-response",477,347496,"0.0-4.155-0.155","jyksed11mk05608",457,"67.csv","","239.59999999962747","resources/trios/L1T4A3.jpg","37","restless",0.3,0.4,0.6,0.326909288482083,"false"
"image-keyboard-response",478,347915,"0.0-4.155-1.155","jyksed11mk05608",457,"67.csv","","null","resources/maskTrios/L1BB.jpg","null","",NA,NA,NA,NA,""
"image-keyboard-response",479,349118,"0.0-4.155-2.155","jyksed11mk05608",457,"67.csv","","null","resources/images/fishbone.png","null","",NA,NA,NA,NA,""
"image-keyboard-response",480,349401,"0.0-4.156-0.156","jyksed11mk05608",457,"67.csv","","281.20000000018626","resources/trios/L1T4A3.jpg","38","restless",0.3,0.4,0.7,0.115342350197122,"true"
"image-keyboard-response",481,349810,"0.0-4.156-1.156","jyksed11mk05608",457,"67.csv","","null","resources/maskTrios/BT4B.jpg","null","",NA,NA,NA,NA,""
"image-keyboard-response",482,351018,"0.0-4.156-2.156","jyksed11mk05608",457,"67.csv","","null","resources/images/coin2.png","null","",NA,NA,NA,NA,""
"image-keyboard-response",483,351337,"0.0-4.157-0.157","jyksed11mk05608",457,"67.csv","","316.8999999994412","resources/trios/L1T4A3.jpg","38","restless",0.3,0.4,0.7,0.480547096631582,"false"
"image-keyboard-response",484,351744,"0.0-4.157-1.157","jyksed11mk05608",457,"67.csv","","null","resources/maskTrios/BT4B.jpg","null","",NA,NA,NA,NA,""
"image-keyboard-response",485,352945,"0.0-4.157-2.157","jyksed11mk05608",457,"67.csv","","null","resources/images/fishbone.png","null","",NA,NA,NA,NA,""
"image-keyboard-response",486,353193,"0.0-4.158-0.158","jyksed11mk05608",457,"67.csv","","246.79999999981374","resources/trios/L1T4A3.jpg","38","restless",0.3,0.4,0.7,0.185865870671716,"true"
"image-keyboard-response",487,353610,"0.0-4.158-1.158","jyksed11mk05608",457,"67.csv","","null","resources/maskTrios/BT4B.jpg","null","",NA,NA,NA,NA,""
"image-keyboard-response",488,354820,"0.0-4.158-2.158","jyksed11mk05608",457,"67.csv","","null","resources/images/coin2.png","null","",NA,NA,NA,NA,""
"image-keyboard-response",489,355074,"0.0-4.159-0.159","jyksed11mk05608",457,"67.csv","","252.30000000074506","resources/trios/L1T4A3.jpg","38","restless",0.3,0.4,0.6,0.38234187173808,"true"
"image-keyboard-response",490,355478,"0.0-4.159-1.159","jyksed11mk05608",457,"67.csv","","null","resources/maskTrios/BT4B.jpg","null","",NA,NA,NA,NA,""
"image-keyboard-response",491,356684,"0.0-4.159-2.159","jyksed11mk05608",457,"67.csv","","null","resources/images/coin2.png","null","",NA,NA,NA,NA,""
"image-keyboard-response",492,356973,"0.0-4.160-0.160","jyksed11mk05608",457,"67.csv","","287.90000000037253","resources/trios/L1T4A3.jpg","38","restless",0.3,0.4,0.6,0.927903910052601,"false"
"image-keyboard-response",493,357401,"0.0-4.160-1.160","jyksed11mk05608",457,"67.csv","","null","resources/maskTrios/BT4B.jpg","null","",NA,NA,NA,NA,""
"image-keyboard-response",494,358614,"0.0-4.160-2.160","jyksed11mk05608",457,"67.csv","","null","resources/images/fishbone.png","null","",NA,NA,NA,NA,""
"image-keyboard-response",495,358867,"0.0-4.161-0.161","jyksed11mk05608",457,"67.csv","","252.79999999981374","resources/trios/L1T4A3.jpg","38","restless",0.3,0.4,0.6,0.122911259495007,"true"
"image-keyboard-response",496,359283,"0.0-4.161-1.161","jyksed11mk05608",457,"67.csv","","null","resources/maskTrios/BT4B.jpg","null","",NA,NA,NA,NA,""
"image-keyboard-response",497,360498,"0.0-4.161-2.161","jyksed11mk05608",457,"67.csv","","null","resources/images/coin2.png","null","",NA,NA,NA,NA,""
"image-keyboard-response",498,360702,"0.0-4.162-0.162","jyksed11mk05608",457,"67.csv","","202.59999999962747","resources/trios/L1T4A3.jpg","38","restless",0.4,0.4,0.6,0.313259445371494,"true"
"image-keyboard-response",499,361106,"0.0-4.162-1.162","jyksed11mk05608",457,"67.csv","","null","resources/maskTrios/BT4B.jpg","null","",NA,NA,NA,NA,""
"image-keyboard-response",500,362307,"0.0-4.162-2.162","jyksed11mk05608",457,"67.csv","","null","resources/images/coin2.png","null","",NA,NA,NA,NA,""
"image-keyboard-response",501,362452,"0.0-4.163-0.163","jyksed11mk05608",457,"67.csv","","143.1000000005588","resources/trios/L1T4A3.jpg","38","restless",0.4,0.4,0.6,0.518716471864362,"false"
"image-keyboard-response",502,362855,"0.0-4.163-1.163","jyksed11mk05608",457,"67.csv","","null","resources/maskTrios/BT4B.jpg","null","",NA,NA,NA,NA,""
"image-keyboard-response",503,364068,"0.0-4.163-2.163","jyksed11mk05608",457,"67.csv","","null","resources/images/fishbone.png","null","",NA,NA,NA,NA,""
"image-keyboard-response",504,364311,"0.0-4.164-0.164","jyksed11mk05608",457,"67.csv","","242","resources/trios/L1T4A3.jpg","38","restless",0.4,0.4,0.6,0.351198707426658,"true"
"image-keyboard-response",505,364717,"0.0-4.164-1.164","jyksed11mk05608",457,"67.csv","","null","resources/maskTrios/BT4B.jpg","null","",NA,NA,NA,NA,""
"image-keyboard-response",506,365929,"0.0-4.164-2.164","jyksed11mk05608",457,"67.csv","","null","resources/images/coin2.png","null","",NA,NA,NA,NA,""
"image-keyboard-response",507,366081,"0.0-4.165-0.165","jyksed11mk05608",457,"67.csv","","150.5","resources/trios/L1T4A3.jpg","38","restless",0.4,0.4,0.5,0.429097530841892,"false"
"image-keyboard-response",508,366484,"0.0-4.165-1.165","jyksed11mk05608",457,"67.csv","","null","resources/maskTrios/BT4B.jpg","null","",NA,NA,NA,NA,""
"image-keyboard-response",509,367699,"0.0-4.165-2.165","jyksed11mk05608",457,"67.csv","","null","resources/images/fishbone.png","null","",NA,NA,NA,NA,""
"image-keyboard-response",510,367927,"0.0-4.166-0.166","jyksed11mk05608",457,"67.csv","","226.80000000074506","resources/trios/L1T4A3.jpg","38","restless",0.4,0.4,0.5,0.605308301081914,"false"
"image-keyboard-response",511,368338,"0.0-4.166-1.166","jyksed11mk05608",457,"67.csv","","null","resources/maskTrios/BT4B.jpg","null","",NA,NA,NA,NA,""
"image-keyboard-response",512,369546,"0.0-4.166-2.166","jyksed11mk05608",457,"67.csv","","null","resources/images/fishbone.png","null","",NA,NA,NA,NA,""
"image-keyboard-response",513,369985,"0.0-4.167-0.167","jyksed11mk05608",457,"67.csv","","438","resources/trios/L1T4A3.jpg","39","restless",0.4,0.4,0.5,0.506094874603916,"false"
"image-keyboard-response",514,370402,"0.0-4.167-1.167","jyksed11mk05608",457,"67.csv","","null","resources/maskTrios/BBA3.jpg","null","",NA,NA,NA,NA,""
"image-keyboard-response",515,371616,"0.0-4.167-2.167","jyksed11mk05608",457,"67.csv","","null","resources/images/fishbone.png","null","",NA,NA,NA,NA,""
"image-keyboard-response",516,371902,"0.0-4.168-0.168","jyksed11mk05608",457,"67.csv","","285.1000000005588","resources/trios/L1T4A3.jpg","39","restless",0.5,0.4,0.5,0.932417352946301,"false"
"image-keyboard-response",517,372307,"0.0-4.168-1.168","jyksed11mk05608",457,"67.csv","","null","resources/maskTrios/BBA3.jpg","null","",NA,NA,NA,NA,""
"image-keyboard-response",518,373513,"0.0-4.168-2.168","jyksed11mk05608",457,"67.csv","","null","resources/images/fishbone.png","null","",NA,NA,NA,NA,""
"image-keyboard-response",519,373773,"0.0-4.169-0.169","jyksed11mk05608",457,"67.csv","","259.20000000018626","resources/trios/L1T4A3.jpg","37","restless",0.6,0.4,0.5,0.953779929508785,"false"
"image-keyboard-response",520,374181,"0.0-4.169-1.169","jyksed11mk05608",457,"67.csv","","null","resources/maskTrios/L1BB.jpg","null","",NA,NA,NA,NA,""
"image-keyboard-response",521,375386,"0.0-4.169-2.169","jyksed11mk05608",457,"67.csv","","null","resources/images/fishbone.png","null","",NA,NA,NA,NA,""
"image-keyboard-response",522,375658,"0.0-4.170-0.170","jyksed11mk05608",457,"67.csv","","270.3999999994412","resources/trios/L1T4A3.jpg","37","restless",0.6,0.4,0.5,0.127945949667487,"true"
"image-keyboard-response",523,376073,"0.0-4.170-1.170","jyksed11mk05608",457,"67.csv","","null","resources/maskTrios/L1BB.jpg","null","",NA,NA,NA,NA,""
"image-keyboard-response",524,377283,"0.0-4.170-2.170","jyksed11mk05608",457,"67.csv","","null","resources/images/coin2.png","null","",NA,NA,NA,NA,""
"image-keyboard-response",525,377492,"0.0-4.171-0.171","jyksed11mk05608",457,"67.csv","","208","resources/trios/L1T4A3.jpg","37","restless",0.6,0.4,0.5,0.506346718110599,"true"
"image-keyboard-response",526,377899,"0.0-4.171-1.171","jyksed11mk05608",457,"67.csv","","null","resources/maskTrios/L1BB.jpg","null","",NA,NA,NA,NA,""
"image-keyboard-response",527,379106,"0.0-4.171-2.171","jyksed11mk05608",457,"67.csv","","null","resources/images/coin2.png","null","",NA,NA,NA,NA,""
"image-keyboard-response",528,379354,"0.0-4.172-0.172","jyksed11mk05608",457,"67.csv","","246.5","resources/trios/L1T4A3.jpg","37","restless",0.6,0.4,0.4,0.702469863800254,"false"
"image-keyboard-response",529,379768,"0.0-4.172-1.172","jyksed11mk05608",457,"67.csv","","null","resources/maskTrios/L1BB.jpg","null","",NA,NA,NA,NA,""
"image-keyboard-response",530,380972,"0.0-4.172-2.172","jyksed11mk05608",457,"67.csv","","null","resources/images/fishbone.png","null","",NA,NA,NA,NA,""
"image-keyboard-response",531,381747,"0.0-4.173-0.173","jyksed11mk05608",457,"67.csv","","774.2999999998137","resources/trios/L1T4A3.jpg","39","restless",0.6,0.4,0.4,0.181943866156102,"true"
"image-keyboard-response",532,382156,"0.0-4.173-1.173","jyksed11mk05608",457,"67.csv","","null","resources/maskTrios/BBA3.jpg","null","",NA,NA,NA,NA,""
"image-keyboard-response",533,383368,"0.0-4.173-2.173","jyksed11mk05608",457,"67.csv","","null","resources/images/coin2.png","null","",NA,NA,NA,NA,""
"image-keyboard-response",534,383578,"0.0-4.174-0.174","jyksed11mk05608",457,"67.csv","","209.40000000037253","resources/trios/L1T4A3.jpg","39","restless",0.6,0.4,0.3,0.405917032590799,"false"
"image-keyboard-response",535,383990,"0.0-4.174-1.174","jyksed11mk05608",457,"67.csv","","null","resources/maskTrios/BBA3.jpg","null","",NA,NA,NA,NA,""
"image-keyboard-response",536,385193,"0.0-4.174-2.174","jyksed11mk05608",457,"67.csv","","null","resources/images/fishbone.png","null","",NA,NA,NA,NA,""
"image-keyboard-response",537,385530,"0.0-4.175-0.175","jyksed11mk05608",457,"67.csv","","334.79999999981374","resources/trios/L1T4A3.jpg","39","restless",0.6,0.4,0.3,0.657248631148358,"false"
"image-keyboard-response",538,385941,"0.0-4.175-1.175","jyksed11mk05608",457,"67.csv","","null","resources/maskTrios/BBA3.jpg","null","",NA,NA,NA,NA,""
"image-keyboard-response",539,387152,"0.0-4.175-2.175","jyksed11mk05608",457,"67.csv","","null","resources/images/fishbone.png","null","",NA,NA,NA,NA,""
"image-keyboard-response",540,387436,"0.0-4.176-0.176","jyksed11mk05608",457,"67.csv","","283.6000000005588","resources/trios/L1T4A3.jpg","39","restless",0.6,0.3,0.3,0.327177785309993,"false"
"image-keyboard-response",541,387849,"0.0-4.176-1.176","jyksed11mk05608",457,"67.csv","","null","resources/maskTrios/BBA3.jpg","null","",NA,NA,NA,NA,""
"image-keyboard-response",542,389065,"0.0-4.176-2.176","jyksed11mk05608",457,"67.csv","","null","resources/images/fishbone.png","null","",NA,NA,NA,NA,""
"image-keyboard-response",543,389369,"0.0-4.177-0.177","jyksed11mk05608",457,"67.csv","","303.5","resources/trios/L1T4A3.jpg","38","restless",0.6,0.3,0.3,0.828488626057726,"false"
"image-keyboard-response",544,389783,"0.0-4.177-1.177","jyksed11mk05608",457,"67.csv","","null","resources/maskTrios/BT4B.jpg","null","",NA,NA,NA,NA,""
"image-keyboard-response",545,390994,"0.0-4.177-2.177","jyksed11mk05608",457,"67.csv","","null","resources/images/fishbone.png","null","",NA,NA,NA,NA,""
"image-keyboard-response",546,391272,"0.0-4.178-0.178","jyksed11mk05608",457,"67.csv","","276.59999999962747","resources/trios/L1T4A3.jpg","38","restless",0.6,0.3,0.3,0.875093597606077,"false"
"image-keyboard-response",547,391687,"0.0-4.178-1.178","jyksed11mk05608",457,"67.csv","","null","resources/maskTrios/BT4B.jpg","null","",NA,NA,NA,NA,""
"image-keyboard-response",548,392901,"0.0-4.178-2.178","jyksed11mk05608",457,"67.csv","","null","resources/images/fishbone.png","null","",NA,NA,NA,NA,""
"image-keyboard-response",549,393208,"0.0-4.179-0.179","jyksed11mk05608",457,"67.csv","","305.79999999981374","resources/trios/L1T4A3.jpg","38","restless",0.6,0.4,0.3,0.336888682522538,"true"
"image-keyboard-response",550,393614,"0.0-4.179-1.179","jyksed11mk05608",457,"67.csv","","null","resources/maskTrios/BT4B.jpg","null","",NA,NA,NA,NA,""
"image-keyboard-response",551,394815,"0.0-4.179-2.179","jyksed11mk05608",457,"67.csv","","null","resources/images/coin2.png","null","",NA,NA,NA,NA,""
"image-keyboard-response",552,395094,"0.0-4.180-0.180","jyksed11mk05608",457,"67.csv","","277.6000000005588","resources/trios/L1T4A3.jpg","38","restless",0.6,0.4,0.3,0.820513857489644,"false"
"image-keyboard-response",553,395499,"0.0-4.180-1.180","jyksed11mk05608",457,"67.csv","","null","resources/maskTrios/BT4B.jpg","null","",NA,NA,NA,NA,""
"image-keyboard-response",554,396716,"0.0-4.180-2.180","jyksed11mk05608",457,"67.csv","","null","resources/images/fishbone.png","null","",NA,NA,NA,NA,""
"image-keyboard-response",555,397112,"0.0-4.181-0.181","jyksed11mk05608",457,"67.csv","","394.40000000037253","resources/trios/L1T4A3.jpg","38","restless",0.6,0.4,0.3,0.0955468740036443,"true"
"image-keyboard-response",556,397526,"0.0-4.181-1.181","jyksed11mk05608",457,"67.csv","","null","resources/maskTrios/BT4B.jpg","null","",NA,NA,NA,NA,""
"image-keyboard-response",557,398737,"0.0-4.181-2.181","jyksed11mk05608",457,"67.csv","","null","resources/images/coin2.png","null","",NA,NA,NA,NA,""
"image-keyboard-response",558,399053,"0.0-4.182-0.182","jyksed11mk05608",457,"67.csv","","314.59999999962747","resources/trios/L1T4A3.jpg","38","restless",0.6,0.4,0.3,0.126399230811241,"true"
"image-keyboard-response",559,399459,"0.0-4.182-1.182","jyksed11mk05608",457,"67.csv","","null","resources/maskTrios/BT4B.jpg","null","",NA,NA,NA,NA,""
"image-keyboard-response",560,400660,"0.0-4.182-2.182","jyksed11mk05608",457,"67.csv","","null","resources/images/coin2.png","null","",NA,NA,NA,NA,""
"image-keyboard-response",561,400936,"0.0-4.183-0.183","jyksed11mk05608",457,"67.csv","","274.20000000018626","resources/trios/L1T4A3.jpg","38","restless",0.6,0.4,0.4,0.550383948411505,"false"
"image-keyboard-response",562,401344,"0.0-4.183-1.183","jyksed11mk05608",457,"67.csv","","null","resources/maskTrios/BT4B.jpg","null","",NA,NA,NA,NA,""
"image-keyboard-response",563,402547,"0.0-4.183-2.183","jyksed11mk05608",457,"67.csv","","null","resources/images/fishbone.png","null","",NA,NA,NA,NA,""
"image-keyboard-response",564,403035,"0.0-4.184-0.184","jyksed11mk05608",457,"67.csv","","486.40000000037253","resources/trios/L1T4A3.jpg","37","restless",0.6,0.5,0.4,0.428562312694028,"true"
"image-keyboard-response",565,403448,"0.0-4.184-1.184","jyksed11mk05608",457,"67.csv","","null","resources/maskTrios/L1BB.jpg","null","",NA,NA,NA,NA,""
"image-keyboard-response",566,404652,"0.0-4.184-2.184","jyksed11mk05608",457,"67.csv","","null","resources/images/coin2.png","null","",NA,NA,NA,NA,""
"image-keyboard-response",567,405238,"0.0-4.185-0.185","jyksed11mk05608",457,"67.csv","","584.6999999992549","resources/trios/L1T4A3.jpg","37","restless",0.6,0.5,0.4,0.695049779835345,"false"
"image-keyboard-response",568,405645,"0.0-4.185-1.185","jyksed11mk05608",457,"67.csv","","null","resources/maskTrios/L1BB.jpg","null","",NA,NA,NA,NA,""
"image-keyboard-response",569,406859,"0.0-4.185-2.185","jyksed11mk05608",457,"67.csv","","null","resources/images/fishbone.png","null","",NA,NA,NA,NA,""
"image-keyboard-response",570,408163,"0.0-4.186-0.186","jyksed11mk05608",457,"67.csv","","1303","resources/trios/L1T4A3.jpg","37","restless",0.6,0.5,0.4,0.686838909148548,"false"
"image-keyboard-response",571,408571,"0.0-4.186-1.186","jyksed11mk05608",457,"67.csv","","null","resources/maskTrios/L1BB.jpg","null","",NA,NA,NA,NA,""
"image-keyboard-response",572,409783,"0.0-4.186-2.186","jyksed11mk05608",457,"67.csv","","null","resources/images/fishbone.png","null","",NA,NA,NA,NA,""
"image-keyboard-response",573,410079,"0.0-4.187-0.187","jyksed11mk05608",457,"67.csv","","295.5","resources/trios/L1T4A3.jpg","37","restless",0.6,0.5,0.5,0.857234569554324,"false"
"image-keyboard-response",574,410497,"0.0-4.187-1.187","jyksed11mk05608",457,"67.csv","","null","resources/maskTrios/L1BB.jpg","null","",NA,NA,NA,NA,""
"image-keyboard-response",575,411712,"0.0-4.187-2.187","jyksed11mk05608",457,"67.csv","","null","resources/images/fishbone.png","null","",NA,NA,NA,NA,""
"image-keyboard-response",576,412014,"0.0-4.188-0.188","jyksed11mk05608",457,"67.csv","","301.20000000018626","resources/trios/L1T4A3.jpg","38","restless",0.6,0.5,0.5,0.198972837319008,"true"
"image-keyboard-response",577,412420,"0.0-4.188-1.188","jyksed11mk05608",457,"67.csv","","null","resources/maskTrios/BT4B.jpg","null","",NA,NA,NA,NA,""
"image-keyboard-response",578,413632,"0.0-4.188-2.188","jyksed11mk05608",457,"67.csv","","null","resources/images/coin2.png","null","",NA,NA,NA,NA,""
"image-keyboard-response",579,414240,"0.0-4.189-0.189","jyksed11mk05608",457,"67.csv","","606.7000000001863","resources/trios/L1T4A3.jpg","39","restless",0.6,0.5,0.5,0.329021508595059,"true"
"image-keyboard-response",580,414657,"0.0-4.189-1.189","jyksed11mk05608",457,"67.csv","","null","resources/maskTrios/BBA3.jpg","null","",NA,NA,NA,NA,""
"image-keyboard-response",581,415868,"0.0-4.189-2.189","jyksed11mk05608",457,"67.csv","","null","resources/images/coin2.png","null","",NA,NA,NA,NA,""
"image-keyboard-response",582,416334,"0.0-4.190-0.190","jyksed11mk05608",457,"67.csv","","465.70000000018626","resources/trios/L1T4A3.jpg","39","restless",0.6,0.5,0.5,0.951655411943641,"false"
"image-keyboard-response",583,416746,"0.0-4.190-1.190","jyksed11mk05608",457,"67.csv","","null","resources/maskTrios/BBA3.jpg","null","",NA,NA,NA,NA,""
"image-keyboard-response",584,417954,"0.0-4.190-2.190","jyksed11mk05608",457,"67.csv","","null","resources/images/fishbone.png","null","",NA,NA,NA,NA,""
"image-keyboard-response",585,418254,"0.0-4.191-0.191","jyksed11mk05608",457,"67.csv","","298.5","resources/trios/L1T4A3.jpg","39","restless",0.6,0.5,0.5,0.686293471725078,"false"
"image-keyboard-response",586,418669,"0.0-4.191-1.191","jyksed11mk05608",457,"67.csv","","null","resources/maskTrios/BBA3.jpg","null","",NA,NA,NA,NA,""
"image-keyboard-response",587,419877,"0.0-4.191-2.191","jyksed11mk05608",457,"67.csv","","null","resources/images/fishbone.png","null","",NA,NA,NA,NA,""
"image-keyboard-response",588,420132,"0.0-4.192-0.192","jyksed11mk05608",457,"67.csv","","254.09999999962747","resources/trios/L1T4A3.jpg","38","restless",0.6,0.5,0.5,0.8569761552527,"false"
"image-keyboard-response",589,420558,"0.0-4.192-1.192","jyksed11mk05608",457,"67.csv","","null","resources/maskTrios/BT4B.jpg","null","",NA,NA,NA,NA,""
"image-keyboard-response",590,421761,"0.0-4.192-2.192","jyksed11mk05608",457,"67.csv","","null","resources/images/fishbone.png","null","",NA,NA,NA,NA,""
"image-keyboard-response",591,422036,"0.0-4.193-0.193","jyksed11mk05608",457,"67.csv","","273.90000000037253","resources/trios/L1T4A3.jpg","38","restless",0.6,0.5,0.5,0.60795989496636,"false"
"image-keyboard-response",592,422439,"0.0-4.193-1.193","jyksed11mk05608",457,"67.csv","","null","resources/maskTrios/BT4B.jpg","null","",NA,NA,NA,NA,""
"image-keyboard-response",593,423648,"0.0-4.193-2.193","jyksed11mk05608",457,"67.csv","","null","resources/images/fishbone.png","null","",NA,NA,NA,NA,""
"image-keyboard-response",594,423931,"0.0-4.194-0.194","jyksed11mk05608",457,"67.csv","","282.70000000018626","resources/trios/L1T4A3.jpg","38","restless",0.6,0.5,0.5,0.942682462582533,"false"
"image-keyboard-response",595,424337,"0.0-4.194-1.194","jyksed11mk05608",457,"67.csv","","null","resources/maskTrios/BT4B.jpg","null","",NA,NA,NA,NA,""
"image-keyboard-response",596,425550,"0.0-4.194-2.194","jyksed11mk05608",457,"67.csv","","null","resources/images/fishbone.png","null","",NA,NA,NA,NA,""
"image-keyboard-response",597,425884,"0.0-4.195-0.195","jyksed11mk05608",457,"67.csv","","333.20000000018626","resources/trios/L1T4A3.jpg","37","restless",0.6,0.5,0.6,0.641860063003033,"false"
"image-keyboard-response",598,426296,"0.0-4.195-1.195","jyksed11mk05608",457,"67.csv","","null","resources/maskTrios/L1BB.jpg","null","",NA,NA,NA,NA,""
"image-keyboard-response",599,427507,"0.0-4.195-2.195","jyksed11mk05608",457,"67.csv","","null","resources/images/fishbone.png","null","",NA,NA,NA,NA,""
"image-keyboard-response",600,427834,"0.0-4.196-0.196","jyksed11mk05608",457,"67.csv","","325.79999999981374","resources/trios/L1T4A3.jpg","37","restless",0.6,0.5,0.6,0.612457897080706,"false"
"image-keyboard-response",601,428240,"0.0-4.196-1.196","jyksed11mk05608",457,"67.csv","","null","resources/maskTrios/L1BB.jpg","null","",NA,NA,NA,NA,""
"image-keyboard-response",602,429462,"0.0-4.196-2.196","jyksed11mk05608",457,"67.csv","","null","resources/images/fishbone.png","null","",NA,NA,NA,NA,""
"image-keyboard-response",603,429818,"0.0-4.197-0.197","jyksed11mk05608",457,"67.csv","","355.3999999994412","resources/trios/L1T4A3.jpg","39","restless",0.6,0.5,0.6,0.83409787557043,"false"
"image-keyboard-response",604,430223,"0.0-4.197-1.197","jyksed11mk05608",457,"67.csv","","null","resources/maskTrios/BBA3.jpg","null","",NA,NA,NA,NA,""
"image-keyboard-response",605,431436,"0.0-4.197-2.197","jyksed11mk05608",457,"67.csv","","null","resources/images/fishbone.png","null","",NA,NA,NA,NA,""
"image-keyboard-response",606,431901,"0.0-4.198-0.198","jyksed11mk05608",457,"67.csv","","464.40000000037253","resources/trios/L1T4A3.jpg","38","restless",0.6,0.5,0.7,0.0828038325420557,"true"
"image-keyboard-response",607,432309,"0.0-4.198-1.198","jyksed11mk05608",457,"67.csv","","null","resources/maskTrios/BT4B.jpg","null","",NA,NA,NA,NA,""
"image-keyboard-response",608,433525,"0.0-4.198-2.198","jyksed11mk05608",457,"67.csv","","null","resources/images/coin2.png","null","",NA,NA,NA,NA,""
"image-keyboard-response",609,433798,"0.0-4.199-0.199","jyksed11mk05608",457,"67.csv","","271.6000000005588","resources/trios/L1T4A3.jpg","38","restless",0.6,0.5,0.7,0.137606232500427,"true"
"image-keyboard-response",610,434205,"0.0-4.199-1.199","jyksed11mk05608",457,"67.csv","","null","resources/maskTrios/BT4B.jpg","null","",NA,NA,NA,NA,""
"image-keyboard-response",611,435410,"0.0-4.199-2.199","jyksed11mk05608",457,"67.csv","","null","resources/images/coin2.png","null","",NA,NA,NA,NA,""
"survey-text",612,492484,"0.0-5.0","jyksed11mk05608",457,"67.csv","","57069.59999999963","","","",NA,NA,NA,NA,""
