"trial_type","trial_index","time_elapsed","internal_node_id","subject","participantCode","walkNumber","success","rt","stimulus","key_press","test_part","leftProb","midProb","rightProb","generatedNum","correct"
"pavlovia",0,1195,"0.0-0.0","6u6st0eedm0ydu5",789,"103.csv","","","","","",NA,NA,NA,NA,""
"fullscreen",1,10360,"0.0-1.0","6u6st0eedm0ydu5",789,"103.csv","true","","","","",NA,NA,NA,NA,""
"survey-html-form",2,40922,"0.0-2.0","6u6st0eedm0ydu5",789,"103.csv","","30560.400000095367","","","",NA,NA,NA,NA,""
"image-keyboard-response",3,53777,"0.0-3.0-0.0","6u6st0eedm0ydu5",789,"103.csv","","12853.5","resources/images/parrot_nobg.png","13","",NA,NA,NA,NA,""
"image-keyboard-response",4,56788,"0.0-3.0-1.0","6u6st0eedm0ydu5",789,"103.csv","","null","resources/image_sets/111.png","null","",NA,NA,NA,NA,""
"image-keyboard-response",5,60538,"0.0-3.0-2.0","6u6st0eedm0ydu5",789,"103.csv","","3748.7000002861023","resources/image_sets/left_highlight.png","37","",NA,NA,NA,NA,""
"image-keyboard-response",6,64198,"0.0-3.0-3.0","6u6st0eedm0ydu5",789,"103.csv","","3659.8999996185303","resources/image_sets/mid_highlight.png","38","",NA,NA,NA,NA,""
"image-keyboard-response",7,65326,"0.0-3.0-4.0","6u6st0eedm0ydu5",789,"103.csv","","1126.5999999046326","resources/image_sets/right_highlight.png","39","",NA,NA,NA,NA,""
"image-keyboard-response",8,70324,"0.0-3.0-5.0","6u6st0eedm0ydu5",789,"103.csv","","4998","resources/image_sets/111.png","13","",NA,NA,NA,NA,""
"image-keyboard-response",9,73403,"0.0-3.0-6.0","6u6st0eedm0ydu5",789,"103.csv","","3077.199999809265","resources/images/coin2.png","13","",NA,NA,NA,NA,""
"image-keyboard-response",10,75140,"0.0-3.0-7.0","6u6st0eedm0ydu5",789,"103.csv","","1736.5999999046326","resources/images/fishbone.png","13","",NA,NA,NA,NA,""
"html-keyboard-response",11,81028,"0.0-3.0-8.0","6u6st0eedm0ydu5",789,"103.csv","","5887.199999809265","<p>You can track your coin total on the top right of your screen. </p><p>At the end of your journey you will be directed to a survey, so please click on the link before exiting the task</p><p>Press Enter to begin</p>","13","",NA,NA,NA,NA,""
"image-keyboard-response",12,82877,"0.0-4.0-0.0","6u6st0eedm0ydu5",789,"103.csv","","1847.4000000953674","resources/trios/L1T2A2.jpg","38","restless",0.3,0.9,0.7,0.0424655644772862,"true"
"image-keyboard-response",13,83287,"0.0-4.0-1.0","6u6st0eedm0ydu5",789,"103.csv","","null","resources/maskTrios/BT2B.jpg","null","",NA,NA,NA,NA,""
"image-keyboard-response",14,84535,"0.0-4.0-2.0","6u6st0eedm0ydu5",789,"103.csv","","null","resources/images/coin2.png","null","",NA,NA,NA,NA,""
"image-keyboard-response",15,85421,"0.0-4.1-0.1","6u6st0eedm0ydu5",789,"103.csv","","884.5999999046326","resources/trios/L1T2A2.jpg","37","restless",0.3,0.8,0.7,0.834018724502401,"false"
"image-keyboard-response",16,85831,"0.0-4.1-1.1","6u6st0eedm0ydu5",789,"103.csv","","null","resources/maskTrios/L1BB.jpg","null","",NA,NA,NA,NA,""
"image-keyboard-response",17,87044,"0.0-4.1-2.1","6u6st0eedm0ydu5",789,"103.csv","","null","resources/images/fishbone.png","null","",NA,NA,NA,NA,""
"image-keyboard-response",18,87143,"0.0-4.2-0.2","6u6st0eedm0ydu5",789,"103.csv","","98.60000038146973","resources/trios/L1T2A2.jpg","39","restless",0.3,0.8,0.7,0.0989875686547894,"true"
"image-keyboard-response",19,87552,"0.0-4.2-1.2","6u6st0eedm0ydu5",789,"103.csv","","null","resources/maskTrios/BBA2.jpg","null","",NA,NA,NA,NA,""
"image-keyboard-response",20,88756,"0.0-4.2-2.2","6u6st0eedm0ydu5",789,"103.csv","","null","resources/images/coin2.png","null","",NA,NA,NA,NA,""
"image-keyboard-response",21,89883,"0.0-4.3-0.3","6u6st0eedm0ydu5",789,"103.csv","","1126.1000003814697","resources/trios/L1T2A2.jpg","39","restless",0.3,0.8,0.7,0.662616330977825,"true"
"image-keyboard-response",22,90286,"0.0-4.3-1.3","6u6st0eedm0ydu5",789,"103.csv","","null","resources/maskTrios/BBA2.jpg","null","",NA,NA,NA,NA,""
"image-keyboard-response",23,91497,"0.0-4.3-2.3","6u6st0eedm0ydu5",789,"103.csv","","null","resources/images/coin2.png","null","",NA,NA,NA,NA,""
"image-keyboard-response",24,91869,"0.0-4.4-0.4","6u6st0eedm0ydu5",789,"103.csv","","370.09999990463257","resources/trios/L1T2A2.jpg","39","restless",0.3,0.7,0.7,0.0656396596487168,"true"
"image-keyboard-response",25,92283,"0.0-4.4-1.4","6u6st0eedm0ydu5",789,"103.csv","","null","resources/maskTrios/BBA2.jpg","null","",NA,NA,NA,NA,""
"image-keyboard-response",26,93485,"0.0-4.4-2.4","6u6st0eedm0ydu5",789,"103.csv","","null","resources/images/coin2.png","null","",NA,NA,NA,NA,""
"image-keyboard-response",27,93886,"0.0-4.5-0.5","6u6st0eedm0ydu5",789,"103.csv","","400.09999990463257","resources/trios/L1T2A2.jpg","39","restless",0.3,0.7,0.7,0.648460341231332,"true"
"image-keyboard-response",28,94296,"0.0-4.5-1.5","6u6st0eedm0ydu5",789,"103.csv","","null","resources/maskTrios/BBA2.jpg","null","",NA,NA,NA,NA,""
"image-keyboard-response",29,95511,"0.0-4.5-2.5","6u6st0eedm0ydu5",789,"103.csv","","null","resources/images/coin2.png","null","",NA,NA,NA,NA,""
"image-keyboard-response",30,95939,"0.0-4.6-0.6","6u6st0eedm0ydu5",789,"103.csv","","427","resources/trios/L1T2A2.jpg","39","restless",0.3,0.7,0.8,0.327158607529838,"true"
"image-keyboard-response",31,96344,"0.0-4.6-1.6","6u6st0eedm0ydu5",789,"103.csv","","null","resources/maskTrios/BBA2.jpg","null","",NA,NA,NA,NA,""
"image-keyboard-response",32,97557,"0.0-4.6-2.6","6u6st0eedm0ydu5",789,"103.csv","","null","resources/images/coin2.png","null","",NA,NA,NA,NA,""
"image-keyboard-response",33,98542,"0.0-4.7-0.7","6u6st0eedm0ydu5",789,"103.csv","","984.5999999046326","resources/trios/L1T2A2.jpg","39","restless",0.2,0.7,0.8,0.847741152795417,"false"
"image-keyboard-response",34,98958,"0.0-4.7-1.7","6u6st0eedm0ydu5",789,"103.csv","","null","resources/maskTrios/BBA2.jpg","null","",NA,NA,NA,NA,""
"image-keyboard-response",35,100174,"0.0-4.7-2.7","6u6st0eedm0ydu5",789,"103.csv","","null","resources/images/fishbone.png","null","",NA,NA,NA,NA,""
"image-keyboard-response",36,100763,"0.0-4.8-0.8","6u6st0eedm0ydu5",789,"103.csv","","588.5999999046326","resources/trios/L1T2A2.jpg","38","restless",0.2,0.7,0.8,0.420314626398647,"true"
"image-keyboard-response",37,101179,"0.0-4.8-1.8","6u6st0eedm0ydu5",789,"103.csv","","null","resources/maskTrios/BT2B.jpg","null","",NA,NA,NA,NA,""
"image-keyboard-response",38,102392,"0.0-4.8-2.8","6u6st0eedm0ydu5",789,"103.csv","","null","resources/images/coin2.png","null","",NA,NA,NA,NA,""
"image-keyboard-response",39,103006,"0.0-4.9-0.9","6u6st0eedm0ydu5",789,"103.csv","","613.1999998092651","resources/trios/L1T2A2.jpg","38","restless",0.2,0.7,0.8,0.636331453605143,"true"
"image-keyboard-response",40,103416,"0.0-4.9-1.9","6u6st0eedm0ydu5",789,"103.csv","","null","resources/maskTrios/BT2B.jpg","null","",NA,NA,NA,NA,""
"image-keyboard-response",41,104630,"0.0-4.9-2.9","6u6st0eedm0ydu5",789,"103.csv","","null","resources/images/coin2.png","null","",NA,NA,NA,NA,""
"image-keyboard-response",42,105147,"0.0-4.10-0.10","6u6st0eedm0ydu5",789,"103.csv","","516.5","resources/trios/L1T2A2.jpg","38","restless",0.2,0.7,0.8,0.38896789663622,"true"
"image-keyboard-response",43,105554,"0.0-4.10-1.10","6u6st0eedm0ydu5",789,"103.csv","","null","resources/maskTrios/BT2B.jpg","null","",NA,NA,NA,NA,""
"image-keyboard-response",44,106760,"0.0-4.10-2.10","6u6st0eedm0ydu5",789,"103.csv","","null","resources/images/coin2.png","null","",NA,NA,NA,NA,""
"image-keyboard-response",45,107330,"0.0-4.11-0.11","6u6st0eedm0ydu5",789,"103.csv","","570","resources/trios/L1T2A2.jpg","38","restless",0.2,0.7,0.8,0.439703019282226,"true"
"image-keyboard-response",46,107733,"0.0-4.11-1.11","6u6st0eedm0ydu5",789,"103.csv","","null","resources/maskTrios/BT2B.jpg","null","",NA,NA,NA,NA,""
"image-keyboard-response",47,108946,"0.0-4.11-2.11","6u6st0eedm0ydu5",789,"103.csv","","null","resources/images/coin2.png","null","",NA,NA,NA,NA,""
"image-keyboard-response",48,109284,"0.0-4.12-0.12","6u6st0eedm0ydu5",789,"103.csv","","337.2999997138977","resources/trios/L1T2A2.jpg","38","restless",0.2,0.7,0.8,0.693765668472693,"true"
"image-keyboard-response",49,109685,"0.0-4.12-1.12","6u6st0eedm0ydu5",789,"103.csv","","null","resources/maskTrios/BT2B.jpg","null","",NA,NA,NA,NA,""
"image-keyboard-response",50,110901,"0.0-4.12-2.12","6u6st0eedm0ydu5",789,"103.csv","","null","resources/images/coin2.png","null","",NA,NA,NA,NA,""
"image-keyboard-response",51,111277,"0.0-4.13-0.13","6u6st0eedm0ydu5",789,"103.csv","","375.2000002861023","resources/trios/L1T2A2.jpg","38","restless",0.2,0.7,0.8,0.233193783369531,"true"
"image-keyboard-response",52,111687,"0.0-4.13-1.13","6u6st0eedm0ydu5",789,"103.csv","","null","resources/maskTrios/BT2B.jpg","null","",NA,NA,NA,NA,""
"image-keyboard-response",53,112901,"0.0-4.13-2.13","6u6st0eedm0ydu5",789,"103.csv","","null","resources/images/coin2.png","null","",NA,NA,NA,NA,""
"image-keyboard-response",54,113231,"0.0-4.14-0.14","6u6st0eedm0ydu5",789,"103.csv","","328.80000019073486","resources/trios/L1T2A2.jpg","38","restless",0.2,0.7,0.8,0.921577806967763,"false"
"image-keyboard-response",55,113639,"0.0-4.14-1.14","6u6st0eedm0ydu5",789,"103.csv","","null","resources/maskTrios/BT2B.jpg","null","",NA,NA,NA,NA,""
"image-keyboard-response",56,114849,"0.0-4.14-2.14","6u6st0eedm0ydu5",789,"103.csv","","null","resources/images/fishbone.png","null","",NA,NA,NA,NA,""
"image-keyboard-response",57,116034,"0.0-4.15-0.15","6u6st0eedm0ydu5",789,"103.csv","","1184.3000001907349","resources/trios/L1T2A2.jpg","37","restless",0.2,0.7,0.8,0.475676188272911,"false"
"image-keyboard-response",58,116451,"0.0-4.15-1.15","6u6st0eedm0ydu5",789,"103.csv","","null","resources/maskTrios/L1BB.jpg","null","",NA,NA,NA,NA,""
"image-keyboard-response",59,117653,"0.0-4.15-2.15","6u6st0eedm0ydu5",789,"103.csv","","null","resources/images/fishbone.png","null","",NA,NA,NA,NA,""
"image-keyboard-response",60,118692,"0.0-4.16-0.16","6u6st0eedm0ydu5",789,"103.csv","","1037.9000000953674","resources/trios/L1T2A2.jpg","39","restless",0.2,0.7,0.8,0.09163166710492,"true"
"image-keyboard-response",61,119105,"0.0-4.16-1.16","6u6st0eedm0ydu5",789,"103.csv","","null","resources/maskTrios/BBA2.jpg","null","",NA,NA,NA,NA,""
"image-keyboard-response",62,120321,"0.0-4.16-2.16","6u6st0eedm0ydu5",789,"103.csv","","null","resources/images/coin2.png","null","",NA,NA,NA,NA,""
"image-keyboard-response",63,121667,"0.0-4.17-0.17","6u6st0eedm0ydu5",789,"103.csv","","1345.5","resources/trios/L1T2A2.jpg","39","restless",0.2,0.7,0.8,0.919096892364089,"false"
"image-keyboard-response",64,122070,"0.0-4.17-1.17","6u6st0eedm0ydu5",789,"103.csv","","null","resources/maskTrios/BBA2.jpg","null","",NA,NA,NA,NA,""
"image-keyboard-response",65,123286,"0.0-4.17-2.17","6u6st0eedm0ydu5",789,"103.csv","","null","resources/images/fishbone.png","null","",NA,NA,NA,NA,""
"image-keyboard-response",66,124580,"0.0-4.18-0.18","6u6st0eedm0ydu5",789,"103.csv","","1293.1000003814697","resources/trios/L1T2A2.jpg","37","restless",0.2,0.7,0.9,0.12420289263429,"true"
"image-keyboard-response",67,124982,"0.0-4.18-1.18","6u6st0eedm0ydu5",789,"103.csv","","null","resources/maskTrios/L1BB.jpg","null","",NA,NA,NA,NA,""
"image-keyboard-response",68,126198,"0.0-4.18-2.18","6u6st0eedm0ydu5",789,"103.csv","","null","resources/images/coin2.png","null","",NA,NA,NA,NA,""
"image-keyboard-response",69,127749,"0.0-4.19-0.19","6u6st0eedm0ydu5",789,"103.csv","","1550.6999998092651","resources/trios/L1T2A2.jpg","38","restless",0.1,0.7,0.9,0.944178633437737,"false"
"image-keyboard-response",70,128157,"0.0-4.19-1.19","6u6st0eedm0ydu5",789,"103.csv","","null","resources/maskTrios/BT2B.jpg","null","",NA,NA,NA,NA,""
"image-keyboard-response",71,129363,"0.0-4.19-2.19","6u6st0eedm0ydu5",789,"103.csv","","null","resources/images/fishbone.png","null","",NA,NA,NA,NA,""
"image-keyboard-response",72,129869,"0.0-4.20-0.20","6u6st0eedm0ydu5",789,"103.csv","","504.8999996185303","resources/trios/L1T2A2.jpg","37","restless",0.1,0.7,0.9,0.0748666580980633,"true"
"image-keyboard-response",73,130272,"0.0-4.20-1.20","6u6st0eedm0ydu5",789,"103.csv","","null","resources/maskTrios/L1BB.jpg","null","",NA,NA,NA,NA,""
"image-keyboard-response",74,131482,"0.0-4.20-2.20","6u6st0eedm0ydu5",789,"103.csv","","null","resources/images/coin2.png","null","",NA,NA,NA,NA,""
"image-keyboard-response",75,131850,"0.0-4.21-0.21","6u6st0eedm0ydu5",789,"103.csv","","366.7000002861023","resources/trios/L1T2A2.jpg","37","restless",0.1,0.7,0.9,0.222460384197018,"false"
"image-keyboard-response",76,132263,"0.0-4.21-1.21","6u6st0eedm0ydu5",789,"103.csv","","null","resources/maskTrios/L1BB.jpg","null","",NA,NA,NA,NA,""
"image-keyboard-response",77,133472,"0.0-4.21-2.21","6u6st0eedm0ydu5",789,"103.csv","","null","resources/images/fishbone.png","null","",NA,NA,NA,NA,""
"image-keyboard-response",78,133889,"0.0-4.22-0.22","6u6st0eedm0ydu5",789,"103.csv","","415.40000009536743","resources/trios/L1T2A2.jpg","38","restless",0.1,0.8,0.9,0.914856636954372,"false"
"image-keyboard-response",79,134290,"0.0-4.22-1.22","6u6st0eedm0ydu5",789,"103.csv","","null","resources/maskTrios/BT2B.jpg","null","",NA,NA,NA,NA,""
"image-keyboard-response",80,135497,"0.0-4.22-2.22","6u6st0eedm0ydu5",789,"103.csv","","null","resources/images/fishbone.png","null","",NA,NA,NA,NA,""
"image-keyboard-response",81,136010,"0.0-4.23-0.23","6u6st0eedm0ydu5",789,"103.csv","","512.8000001907349","resources/trios/L1T2A2.jpg","39","restless",0.1,0.8,0.9,0.181951611159352,"true"
"image-keyboard-response",82,136414,"0.0-4.23-1.23","6u6st0eedm0ydu5",789,"103.csv","","null","resources/maskTrios/BBA2.jpg","null","",NA,NA,NA,NA,""
"image-keyboard-response",83,137626,"0.0-4.23-2.23","6u6st0eedm0ydu5",789,"103.csv","","null","resources/images/coin2.png","null","",NA,NA,NA,NA,""
"image-keyboard-response",84,138156,"0.0-4.24-0.24","6u6st0eedm0ydu5",789,"103.csv","","528.5999999046326","resources/trios/L1T2A2.jpg","39","restless",0.1,0.8,0.9,0.0859438451117969,"true"
"image-keyboard-response",85,138572,"0.0-4.24-1.24","6u6st0eedm0ydu5",789,"103.csv","","null","resources/maskTrios/BBA2.jpg","null","",NA,NA,NA,NA,""
"image-keyboard-response",86,139778,"0.0-4.24-2.24","6u6st0eedm0ydu5",789,"103.csv","","null","resources/images/coin2.png","null","",NA,NA,NA,NA,""
"image-keyboard-response",87,140228,"0.0-4.25-0.25","6u6st0eedm0ydu5",789,"103.csv","","449.19999980926514","resources/trios/L1T2A2.jpg","39","restless",0.1,0.7,0.9,0.756885926216425,"true"
"image-keyboard-response",88,140642,"0.0-4.25-1.25","6u6st0eedm0ydu5",789,"103.csv","","null","resources/maskTrios/BBA2.jpg","null","",NA,NA,NA,NA,""
"image-keyboard-response",89,141854,"0.0-4.25-2.25","6u6st0eedm0ydu5",789,"103.csv","","null","resources/images/coin2.png","null","",NA,NA,NA,NA,""
"image-keyboard-response",90,141878,"0.0-4.26-0.26","6u6st0eedm0ydu5",789,"103.csv","","23.5","resources/trios/L1T2A2.jpg","39","restless",0.1,0.7,0.9,0.628311124127256,"true"
"image-keyboard-response",91,142293,"0.0-4.26-1.26","6u6st0eedm0ydu5",789,"103.csv","","null","resources/maskTrios/BBA2.jpg","null","",NA,NA,NA,NA,""
"image-keyboard-response",92,143504,"0.0-4.26-2.26","6u6st0eedm0ydu5",789,"103.csv","","null","resources/images/coin2.png","null","",NA,NA,NA,NA,""
"image-keyboard-response",93,146797,"0.0-4.27-0.27","6u6st0eedm0ydu5",789,"103.csv","","3292.5999999046326","resources/trios/L1T2A2.jpg","39","restless",0.1,0.7,0.8,0.267267223443181,"true"
"image-keyboard-response",94,147208,"0.0-4.27-1.27","6u6st0eedm0ydu5",789,"103.csv","","null","resources/maskTrios/BBA2.jpg","null","",NA,NA,NA,NA,""
"image-keyboard-response",95,148424,"0.0-4.27-2.27","6u6st0eedm0ydu5",789,"103.csv","","null","resources/images/coin2.png","null","",NA,NA,NA,NA,""
"image-keyboard-response",96,148954,"0.0-4.28-0.28","6u6st0eedm0ydu5",789,"103.csv","","529.3000001907349","resources/trios/L1T2A2.jpg","39","restless",0.1,0.7,0.8,0.0732411609096106,"true"
"image-keyboard-response",97,149357,"0.0-4.28-1.28","6u6st0eedm0ydu5",789,"103.csv","","null","resources/maskTrios/BBA2.jpg","null","",NA,NA,NA,NA,""
"image-keyboard-response",98,150573,"0.0-4.28-2.28","6u6st0eedm0ydu5",789,"103.csv","","null","resources/images/coin2.png","null","",NA,NA,NA,NA,""
"image-keyboard-response",99,150885,"0.0-4.29-0.29","6u6st0eedm0ydu5",789,"103.csv","","310.3999996185303","resources/trios/L1T2A2.jpg","39","restless",0.1,0.7,0.8,0.799428418349659,"true"
"image-keyboard-response",100,151293,"0.0-4.29-1.29","6u6st0eedm0ydu5",789,"103.csv","","null","resources/maskTrios/BBA2.jpg","null","",NA,NA,NA,NA,""
"image-keyboard-response",101,152506,"0.0-4.29-2.29","6u6st0eedm0ydu5",789,"103.csv","","null","resources/images/coin2.png","null","",NA,NA,NA,NA,""
"image-keyboard-response",102,153057,"0.0-4.30-0.30","6u6st0eedm0ydu5",789,"103.csv","","549.9000000953674","resources/trios/L1T2A2.jpg","38","restless",0.1,0.7,0.8,0.645524195337023,"true"
"image-keyboard-response",103,153463,"0.0-4.30-1.30","6u6st0eedm0ydu5",789,"103.csv","","null","resources/maskTrios/BT2B.jpg","null","",NA,NA,NA,NA,""
"image-keyboard-response",104,154678,"0.0-4.30-2.30","6u6st0eedm0ydu5",789,"103.csv","","null","resources/images/coin2.png","null","",NA,NA,NA,NA,""
"image-keyboard-response",105,155595,"0.0-4.31-0.31","6u6st0eedm0ydu5",789,"103.csv","","916.6999998092651","resources/trios/L1T2A2.jpg","37","restless",0.1,0.6,0.8,0.733984329762843,"false"
"image-keyboard-response",106,156004,"0.0-4.31-1.31","6u6st0eedm0ydu5",789,"103.csv","","null","resources/maskTrios/L1BB.jpg","null","",NA,NA,NA,NA,""
"image-keyboard-response",107,157212,"0.0-4.31-2.31","6u6st0eedm0ydu5",789,"103.csv","","null","resources/images/fishbone.png","null","",NA,NA,NA,NA,""
"image-keyboard-response",108,158862,"0.0-4.32-0.32","6u6st0eedm0ydu5",789,"103.csv","","1649.4000000953674","resources/trios/L1T2A2.jpg","37","restless",0.2,0.6,0.8,0.989717807892298,"false"
"image-keyboard-response",109,159273,"0.0-4.32-1.32","6u6st0eedm0ydu5",789,"103.csv","","null","resources/maskTrios/L1BB.jpg","null","",NA,NA,NA,NA,""
"image-keyboard-response",110,160476,"0.0-4.32-2.32","6u6st0eedm0ydu5",789,"103.csv","","null","resources/images/fishbone.png","null","",NA,NA,NA,NA,""
"image-keyboard-response",111,160876,"0.0-4.33-0.33","6u6st0eedm0ydu5",789,"103.csv","","399.40000009536743","resources/trios/L1T2A2.jpg","37","restless",0.2,0.6,0.8,0.848113101638497,"false"
"image-keyboard-response",112,161281,"0.0-4.33-1.33","6u6st0eedm0ydu5",789,"103.csv","","null","resources/maskTrios/L1BB.jpg","null","",NA,NA,NA,NA,""
"image-keyboard-response",113,162487,"0.0-4.33-2.33","6u6st0eedm0ydu5",789,"103.csv","","null","resources/images/fishbone.png","null","",NA,NA,NA,NA,""
"image-keyboard-response",114,162811,"0.0-4.34-0.34","6u6st0eedm0ydu5",789,"103.csv","","323.40000009536743","resources/trios/L1T2A2.jpg","38","restless",0.2,0.6,0.8,0.330113671977946,"true"
"image-keyboard-response",115,163226,"0.0-4.34-1.34","6u6st0eedm0ydu5",789,"103.csv","","null","resources/maskTrios/BT2B.jpg","null","",NA,NA,NA,NA,""
"image-keyboard-response",116,164439,"0.0-4.34-2.34","6u6st0eedm0ydu5",789,"103.csv","","null","resources/images/coin2.png","null","",NA,NA,NA,NA,""
"image-keyboard-response",117,165135,"0.0-4.35-0.35","6u6st0eedm0ydu5",789,"103.csv","","694.9000000953674","resources/trios/L1T2A2.jpg","38","restless",0.2,0.6,0.8,0.387850446109149,"true"
"image-keyboard-response",118,165551,"0.0-4.35-1.35","6u6st0eedm0ydu5",789,"103.csv","","null","resources/maskTrios/BT2B.jpg","null","",NA,NA,NA,NA,""
"image-keyboard-response",119,166758,"0.0-4.35-2.35","6u6st0eedm0ydu5",789,"103.csv","","null","resources/images/coin2.png","null","",NA,NA,NA,NA,""
"image-keyboard-response",120,167428,"0.0-4.36-0.36","6u6st0eedm0ydu5",789,"103.csv","","669.1999998092651","resources/trios/L1T2A2.jpg","38","restless",0.2,0.6,0.8,0.915700404211583,"false"
"image-keyboard-response",121,167834,"0.0-4.36-1.36","6u6st0eedm0ydu5",789,"103.csv","","null","resources/maskTrios/BT2B.jpg","null","",NA,NA,NA,NA,""
"image-keyboard-response",122,169043,"0.0-4.36-2.36","6u6st0eedm0ydu5",789,"103.csv","","null","resources/images/fishbone.png","null","",NA,NA,NA,NA,""
"image-keyboard-response",123,169445,"0.0-4.37-0.37","6u6st0eedm0ydu5",789,"103.csv","","401.40000009536743","resources/trios/L1T2A2.jpg","38","restless",0.2,0.5,0.8,0.560099571282867,"false"
"image-keyboard-response",124,169848,"0.0-4.37-1.37","6u6st0eedm0ydu5",789,"103.csv","","null","resources/maskTrios/BT2B.jpg","null","",NA,NA,NA,NA,""
"image-keyboard-response",125,171057,"0.0-4.37-2.37","6u6st0eedm0ydu5",789,"103.csv","","null","resources/images/fishbone.png","null","",NA,NA,NA,NA,""
"image-keyboard-response",126,171493,"0.0-4.38-0.38","6u6st0eedm0ydu5",789,"103.csv","","434.69999980926514","resources/trios/L1T2A2.jpg","38","restless",0.2,0.5,0.7,0.618803632355054,"false"
"image-keyboard-response",127,171906,"0.0-4.38-1.38","6u6st0eedm0ydu5",789,"103.csv","","null","resources/maskTrios/BT2B.jpg","null","",NA,NA,NA,NA,""
"image-keyboard-response",128,173114,"0.0-4.38-2.38","6u6st0eedm0ydu5",789,"103.csv","","null","resources/images/fishbone.png","null","",NA,NA,NA,NA,""
"image-keyboard-response",129,173553,"0.0-4.39-0.39","6u6st0eedm0ydu5",789,"103.csv","","437.30000019073486","resources/trios/L1T2A2.jpg","37","restless",0.2,0.4,0.7,0.537768037704554,"false"
"image-keyboard-response",130,173966,"0.0-4.39-1.39","6u6st0eedm0ydu5",789,"103.csv","","null","resources/maskTrios/L1BB.jpg","null","",NA,NA,NA,NA,""
"image-keyboard-response",131,175178,"0.0-4.39-2.39","6u6st0eedm0ydu5",789,"103.csv","","null","resources/images/fishbone.png","null","",NA,NA,NA,NA,""
"image-keyboard-response",132,175478,"0.0-4.40-0.40","6u6st0eedm0ydu5",789,"103.csv","","298.80000019073486","resources/trios/L1T2A2.jpg","37","restless",0.2,0.4,0.7,0.0277741613439915,"true"
"image-keyboard-response",133,175885,"0.0-4.40-1.40","6u6st0eedm0ydu5",789,"103.csv","","null","resources/maskTrios/L1BB.jpg","null","",NA,NA,NA,NA,""
"image-keyboard-response",134,177096,"0.0-4.40-2.40","6u6st0eedm0ydu5",789,"103.csv","","null","resources/images/coin2.png","null","",NA,NA,NA,NA,""
"image-keyboard-response",135,177719,"0.0-4.41-0.41","6u6st0eedm0ydu5",789,"103.csv","","622.2000002861023","resources/trios/L1T2A2.jpg","37","restless",0.2,0.4,0.6,0.0460039309360125,"true"
"image-keyboard-response",136,178133,"0.0-4.41-1.41","6u6st0eedm0ydu5",789,"103.csv","","null","resources/maskTrios/L1BB.jpg","null","",NA,NA,NA,NA,""
"image-keyboard-response",137,179349,"0.0-4.41-2.41","6u6st0eedm0ydu5",789,"103.csv","","null","resources/images/coin2.png","null","",NA,NA,NA,NA,""
"image-keyboard-response",138,180042,"0.0-4.42-0.42","6u6st0eedm0ydu5",789,"103.csv","","691.9000000953674","resources/trios/L1T2A2.jpg","37","restless",0.2,0.4,0.6,0.348432214172882,"false"
"image-keyboard-response",139,180449,"0.0-4.42-1.42","6u6st0eedm0ydu5",789,"103.csv","","null","resources/maskTrios/L1BB.jpg","null","",NA,NA,NA,NA,""
"image-keyboard-response",140,181656,"0.0-4.42-2.42","6u6st0eedm0ydu5",789,"103.csv","","null","resources/images/fishbone.png","null","",NA,NA,NA,NA,""
"image-keyboard-response",141,182374,"0.0-4.43-0.43","6u6st0eedm0ydu5",789,"103.csv","","717.2000002861023","resources/trios/L1T2A2.jpg","39","restless",0.2,0.3,0.5,0.222054811604585,"true"
"image-keyboard-response",142,182779,"0.0-4.43-1.43","6u6st0eedm0ydu5",789,"103.csv","","null","resources/maskTrios/BBA2.jpg","null","",NA,NA,NA,NA,""
"image-keyboard-response",143,183991,"0.0-4.43-2.43","6u6st0eedm0ydu5",789,"103.csv","","null","resources/images/coin2.png","null","",NA,NA,NA,NA,""
"image-keyboard-response",144,184333,"0.0-4.44-0.44","6u6st0eedm0ydu5",789,"103.csv","","340.59999990463257","resources/trios/L1T2A2.jpg","38","restless",0.2,0.3,0.5,0.178699879093034,"true"
"image-keyboard-response",145,184743,"0.0-4.44-1.44","6u6st0eedm0ydu5",789,"103.csv","","null","resources/maskTrios/BT2B.jpg","null","",NA,NA,NA,NA,""
"image-keyboard-response",146,185955,"0.0-4.44-2.44","6u6st0eedm0ydu5",789,"103.csv","","null","resources/images/coin2.png","null","",NA,NA,NA,NA,""
"image-keyboard-response",147,186360,"0.0-4.45-0.45","6u6st0eedm0ydu5",789,"103.csv","","404.19999980926514","resources/trios/L1T2A2.jpg","38","restless",0.2,0.3,0.5,0.372916898503731,"false"
"image-keyboard-response",148,186773,"0.0-4.45-1.45","6u6st0eedm0ydu5",789,"103.csv","","null","resources/maskTrios/BT2B.jpg","null","",NA,NA,NA,NA,""
"image-keyboard-response",149,187989,"0.0-4.45-2.45","6u6st0eedm0ydu5",789,"103.csv","","null","resources/images/fishbone.png","null","",NA,NA,NA,NA,""
"image-keyboard-response",150,188416,"0.0-4.46-0.46","6u6st0eedm0ydu5",789,"103.csv","","426.30000019073486","resources/trios/L1T2A2.jpg","37","restless",0.3,0.3,0.5,0.953741364184389,"false"
"image-keyboard-response",151,188820,"0.0-4.46-1.46","6u6st0eedm0ydu5",789,"103.csv","","null","resources/maskTrios/L1BB.jpg","null","",NA,NA,NA,NA,""
"image-keyboard-response",152,190032,"0.0-4.46-2.46","6u6st0eedm0ydu5",789,"103.csv","","null","resources/images/fishbone.png","null","",NA,NA,NA,NA,""
"image-keyboard-response",153,197412,"0.0-4.47-0.47","6u6st0eedm0ydu5",789,"103.csv","","7378.699999809265","resources/trios/L1T2A2.jpg","39","restless",0.4,0.3,0.5,0.400687658997605,"true"
"image-keyboard-response",154,197827,"0.0-4.47-1.47","6u6st0eedm0ydu5",789,"103.csv","","null","resources/maskTrios/BBA2.jpg","null","",NA,NA,NA,NA,""
"image-keyboard-response",155,199030,"0.0-4.47-2.47","6u6st0eedm0ydu5",789,"103.csv","","null","resources/images/coin2.png","null","",NA,NA,NA,NA,""
"image-keyboard-response",156,199047,"0.0-4.48-0.48","6u6st0eedm0ydu5",789,"103.csv","","16.100000381469727","resources/trios/L1T2A2.jpg","39","restless",0.4,0.2,0.5,0.77187682242646,"false"
"image-keyboard-response",157,199453,"0.0-4.48-1.48","6u6st0eedm0ydu5",789,"103.csv","","null","resources/maskTrios/BBA2.jpg","null","",NA,NA,NA,NA,""
"image-keyboard-response",158,200667,"0.0-4.48-2.48","6u6st0eedm0ydu5",789,"103.csv","","null","resources/images/fishbone.png","null","",NA,NA,NA,NA,""
"image-keyboard-response",159,200904,"0.0-4.49-0.49","6u6st0eedm0ydu5",789,"103.csv","","236.80000019073486","resources/trios/L1T2A2.jpg","39","restless",0.4,0.2,0.5,0.670603823649168,"false"
"image-keyboard-response",160,201317,"0.0-4.49-1.49","6u6st0eedm0ydu5",789,"103.csv","","null","resources/maskTrios/BBA2.jpg","null","",NA,NA,NA,NA,""
"image-keyboard-response",161,202533,"0.0-4.49-2.49","6u6st0eedm0ydu5",789,"103.csv","","null","resources/images/fishbone.png","null","",NA,NA,NA,NA,""
"image-keyboard-response",162,202789,"0.0-4.50-0.50","6u6st0eedm0ydu5",789,"103.csv","","255.09999990463257","resources/trios/L1T2A2.jpg","38","restless",0.4,0.2,0.4,0.911813320863116,"false"
"image-keyboard-response",163,203191,"0.0-4.50-1.50","6u6st0eedm0ydu5",789,"103.csv","","null","resources/maskTrios/BT2B.jpg","null","",NA,NA,NA,NA,""
"image-keyboard-response",164,204407,"0.0-4.50-2.50","6u6st0eedm0ydu5",789,"103.csv","","null","resources/images/fishbone.png","null","",NA,NA,NA,NA,""
"image-keyboard-response",165,204959,"0.0-4.51-0.51","6u6st0eedm0ydu5",789,"103.csv","","551.8000001907349","resources/trios/L1T2A2.jpg","38","restless",0.3,0.3,0.4,0.394084564198599,"false"
"image-keyboard-response",166,205372,"0.0-4.51-1.51","6u6st0eedm0ydu5",789,"103.csv","","null","resources/maskTrios/BT2B.jpg","null","",NA,NA,NA,NA,""
"image-keyboard-response",167,206577,"0.0-4.51-2.51","6u6st0eedm0ydu5",789,"103.csv","","null","resources/images/fishbone.png","null","",NA,NA,NA,NA,""
"image-keyboard-response",168,207494,"0.0-4.52-0.52","6u6st0eedm0ydu5",789,"103.csv","","916.5999999046326","resources/trios/L1T2A2.jpg","37","restless",0.3,0.3,0.4,0.391867939252472,"false"
"image-keyboard-response",169,207911,"0.0-4.52-1.52","6u6st0eedm0ydu5",789,"103.csv","","null","resources/maskTrios/L1BB.jpg","null","",NA,NA,NA,NA,""
"image-keyboard-response",170,209113,"0.0-4.52-2.52","6u6st0eedm0ydu5",789,"103.csv","","null","resources/images/fishbone.png","null","",NA,NA,NA,NA,""
"image-keyboard-response",171,210067,"0.0-4.53-0.53","6u6st0eedm0ydu5",789,"103.csv","","952.5999999046326","resources/trios/L1T2A2.jpg","39","restless",0.4,0.3,0.4,0.824582882134441,"false"
"image-keyboard-response",172,210483,"0.0-4.53-1.53","6u6st0eedm0ydu5",789,"103.csv","","null","resources/maskTrios/BBA2.jpg","null","",NA,NA,NA,NA,""
"image-keyboard-response",173,211695,"0.0-4.53-2.53","6u6st0eedm0ydu5",789,"103.csv","","null","resources/images/fishbone.png","null","",NA,NA,NA,NA,""
"image-keyboard-response",174,212424,"0.0-4.54-0.54","6u6st0eedm0ydu5",789,"103.csv","","728.4000000953674","resources/trios/L1T2A2.jpg","38","restless",0.4,0.3,0.4,0.351995660053396,"false"
"image-keyboard-response",175,212832,"0.0-4.54-1.54","6u6st0eedm0ydu5",789,"103.csv","","null","resources/maskTrios/BT2B.jpg","null","",NA,NA,NA,NA,""
"image-keyboard-response",176,214035,"0.0-4.54-2.54","6u6st0eedm0ydu5",789,"103.csv","","null","resources/images/fishbone.png","null","",NA,NA,NA,NA,""
"image-keyboard-response",177,214377,"0.0-4.55-0.55","6u6st0eedm0ydu5",789,"103.csv","","341","resources/trios/L1T2A2.jpg","38","restless",0.4,0.3,0.4,0.278437061721666,"true"
"image-keyboard-response",178,214790,"0.0-4.55-1.55","6u6st0eedm0ydu5",789,"103.csv","","null","resources/maskTrios/BT2B.jpg","null","",NA,NA,NA,NA,""
"image-keyboard-response",179,216006,"0.0-4.55-2.55","6u6st0eedm0ydu5",789,"103.csv","","null","resources/images/coin2.png","null","",NA,NA,NA,NA,""
"image-keyboard-response",180,216420,"0.0-4.56-0.56","6u6st0eedm0ydu5",789,"103.csv","","413.09999990463257","resources/trios/L1T2A2.jpg","38","restless",0.4,0.3,0.4,0.0818943453959489,"true"
"image-keyboard-response",181,216828,"0.0-4.56-1.56","6u6st0eedm0ydu5",789,"103.csv","","null","resources/maskTrios/BT2B.jpg","null","",NA,NA,NA,NA,""
"image-keyboard-response",182,218037,"0.0-4.56-2.56","6u6st0eedm0ydu5",789,"103.csv","","null","resources/images/coin2.png","null","",NA,NA,NA,NA,""
"image-keyboard-response",183,218412,"0.0-4.57-0.57","6u6st0eedm0ydu5",789,"103.csv","","374.3999996185303","resources/trios/L1T2A2.jpg","38","restless",0.4,0.3,0.4,0.707993342315331,"false"
"image-keyboard-response",184,218818,"0.0-4.57-1.57","6u6st0eedm0ydu5",789,"103.csv","","null","resources/maskTrios/BT2B.jpg","null","",NA,NA,NA,NA,""
"image-keyboard-response",185,220028,"0.0-4.57-2.57","6u6st0eedm0ydu5",789,"103.csv","","null","resources/images/fishbone.png","null","",NA,NA,NA,NA,""
"image-keyboard-response",186,220423,"0.0-4.58-0.58","6u6st0eedm0ydu5",789,"103.csv","","394.5","resources/trios/L1T2A2.jpg","37","restless",0.4,0.4,0.4,0.68076880121202,"false"
"image-keyboard-response",187,220829,"0.0-4.58-1.58","6u6st0eedm0ydu5",789,"103.csv","","null","resources/maskTrios/L1BB.jpg","null","",NA,NA,NA,NA,""
"image-keyboard-response",188,222042,"0.0-4.58-2.58","6u6st0eedm0ydu5",789,"103.csv","","null","resources/images/fishbone.png","null","",NA,NA,NA,NA,""
"image-keyboard-response",189,222524,"0.0-4.59-0.59","6u6st0eedm0ydu5",789,"103.csv","","480.90000009536743","resources/trios/L1T2A2.jpg","39","restless",0.4,0.4,0.4,0.18249281337415,"true"
"image-keyboard-response",190,222940,"0.0-4.59-1.59","6u6st0eedm0ydu5",789,"103.csv","","null","resources/maskTrios/BBA2.jpg","null","",NA,NA,NA,NA,""
"image-keyboard-response",191,224143,"0.0-4.59-2.59","6u6st0eedm0ydu5",789,"103.csv","","null","resources/images/coin2.png","null","",NA,NA,NA,NA,""
"image-keyboard-response",192,224212,"0.0-4.60-0.60","6u6st0eedm0ydu5",789,"103.csv","","68.5","resources/trios/L1T2A2.jpg","38","restless",0.3,0.4,0.4,0.704804016396355,"false"
"image-keyboard-response",193,224628,"0.0-4.60-1.60","6u6st0eedm0ydu5",789,"103.csv","","null","resources/maskTrios/BT2B.jpg","null","",NA,NA,NA,NA,""
"image-keyboard-response",194,225844,"0.0-4.60-2.60","6u6st0eedm0ydu5",789,"103.csv","","null","resources/images/fishbone.png","null","",NA,NA,NA,NA,""
"image-keyboard-response",195,226189,"0.0-4.61-0.61","6u6st0eedm0ydu5",789,"103.csv","","344.5","resources/trios/L1T2A2.jpg","37","restless",0.3,0.4,0.4,0.809251730344982,"false"
"image-keyboard-response",196,226593,"0.0-4.61-1.61","6u6st0eedm0ydu5",789,"103.csv","","null","resources/maskTrios/L1BB.jpg","null","",NA,NA,NA,NA,""
"image-keyboard-response",197,227803,"0.0-4.61-2.61","6u6st0eedm0ydu5",789,"103.csv","","null","resources/images/fishbone.png","null","",NA,NA,NA,NA,""
"image-keyboard-response",198,228183,"0.0-4.62-0.62","6u6st0eedm0ydu5",789,"103.csv","","379.5","resources/trios/L1T2A2.jpg","38","restless",0.3,0.5,0.4,0.445468574729196,"true"
"image-keyboard-response",199,228590,"0.0-4.62-1.62","6u6st0eedm0ydu5",789,"103.csv","","null","resources/maskTrios/BT2B.jpg","null","",NA,NA,NA,NA,""
"image-keyboard-response",200,229807,"0.0-4.62-2.62","6u6st0eedm0ydu5",789,"103.csv","","null","resources/images/coin2.png","null","",NA,NA,NA,NA,""
"image-keyboard-response",201,265727,"0.0-4.63-0.63","6u6st0eedm0ydu5",789,"103.csv","","35920.199999809265","resources/trios/L1T2A2.jpg","38","restless",0.3,0.6,0.4,0.742690754948732,"false"
"image-keyboard-response",202,266138,"0.0-4.63-1.63","6u6st0eedm0ydu5",789,"103.csv","","null","resources/maskTrios/BT2B.jpg","null","",NA,NA,NA,NA,""
"image-keyboard-response",203,267353,"0.0-4.63-2.63","6u6st0eedm0ydu5",789,"103.csv","","null","resources/images/fishbone.png","null","",NA,NA,NA,NA,""
"image-keyboard-response",204,267677,"0.0-4.64-0.64","6u6st0eedm0ydu5",789,"103.csv","","322.7999997138977","resources/trios/L1T2A2.jpg","37","restless",0.3,0.6,0.4,0.095080255550219,"true"
"image-keyboard-response",205,268093,"0.0-4.64-1.64","6u6st0eedm0ydu5",789,"103.csv","","null","resources/maskTrios/L1BB.jpg","null","",NA,NA,NA,NA,""
"image-keyboard-response",206,269307,"0.0-4.64-2.64","6u6st0eedm0ydu5",789,"103.csv","","null","resources/images/coin2.png","null","",NA,NA,NA,NA,""
"image-keyboard-response",207,269670,"0.0-4.65-0.65","6u6st0eedm0ydu5",789,"103.csv","","362.09999990463257","resources/trios/L1T2A2.jpg","37","restless",0.3,0.6,0.4,0.349322522384463,"false"
"image-keyboard-response",208,270074,"0.0-4.65-1.65","6u6st0eedm0ydu5",789,"103.csv","","null","resources/maskTrios/L1BB.jpg","null","",NA,NA,NA,NA,""
"image-keyboard-response",209,271285,"0.0-4.65-2.65","6u6st0eedm0ydu5",789,"103.csv","","null","resources/images/fishbone.png","null","",NA,NA,NA,NA,""
"image-keyboard-response",210,271575,"0.0-4.66-0.66","6u6st0eedm0ydu5",789,"103.csv","","289.40000009536743","resources/trios/L1T2A2.jpg","39","restless",0.4,0.6,0.4,0.936747511812636,"false"
"image-keyboard-response",211,271976,"0.0-4.66-1.66","6u6st0eedm0ydu5",789,"103.csv","","null","resources/maskTrios/BBA2.jpg","null","",NA,NA,NA,NA,""
"image-keyboard-response",212,273191,"0.0-4.66-2.66","6u6st0eedm0ydu5",789,"103.csv","","null","resources/images/fishbone.png","null","",NA,NA,NA,NA,""
"image-keyboard-response",213,273424,"0.0-4.67-0.67","6u6st0eedm0ydu5",789,"103.csv","","232.19999980926514","resources/trios/L1T2A2.jpg","38","restless",0.4,0.6,0.5,0.980004837083688,"false"
"image-keyboard-response",214,273837,"0.0-4.67-1.67","6u6st0eedm0ydu5",789,"103.csv","","null","resources/maskTrios/BT2B.jpg","null","",NA,NA,NA,NA,""
"image-keyboard-response",215,275049,"0.0-4.67-2.67","6u6st0eedm0ydu5",789,"103.csv","","null","resources/images/fishbone.png","null","",NA,NA,NA,NA,""
"image-keyboard-response",216,275469,"0.0-4.68-0.68","6u6st0eedm0ydu5",789,"103.csv","","419.30000019073486","resources/trios/L1T2A2.jpg","37","restless",0.4,0.6,0.4,0.430968047034803,"false"
"image-keyboard-response",217,275876,"0.0-4.68-1.68","6u6st0eedm0ydu5",789,"103.csv","","null","resources/maskTrios/L1BB.jpg","null","",NA,NA,NA,NA,""
"image-keyboard-response",218,277090,"0.0-4.68-2.68","6u6st0eedm0ydu5",789,"103.csv","","null","resources/images/fishbone.png","null","",NA,NA,NA,NA,""
"image-keyboard-response",219,277463,"0.0-4.69-0.69","6u6st0eedm0ydu5",789,"103.csv","","371.80000019073486","resources/trios/L1T2A2.jpg","39","restless",0.4,0.6,0.4,0.091789918844529,"true"
"image-keyboard-response",220,277872,"0.0-4.69-1.69","6u6st0eedm0ydu5",789,"103.csv","","null","resources/maskTrios/BBA2.jpg","null","",NA,NA,NA,NA,""
"image-keyboard-response",221,279080,"0.0-4.69-2.69","6u6st0eedm0ydu5",789,"103.csv","","null","resources/images/coin2.png","null","",NA,NA,NA,NA,""
"image-keyboard-response",222,279442,"0.0-4.70-0.70","6u6st0eedm0ydu5",789,"103.csv","","361.1000003814697","resources/trios/L1T2A2.jpg","38","restless",0.4,0.6,0.4,0.361868947829479,"true"
"image-keyboard-response",223,279854,"0.0-4.70-1.70","6u6st0eedm0ydu5",789,"103.csv","","null","resources/maskTrios/BT2B.jpg","null","",NA,NA,NA,NA,""
"image-keyboard-response",224,281071,"0.0-4.70-2.70","6u6st0eedm0ydu5",789,"103.csv","","null","resources/images/coin2.png","null","",NA,NA,NA,NA,""
"image-keyboard-response",225,291615,"0.0-4.71-0.71","6u6st0eedm0ydu5",789,"103.csv","","10543.5","resources/trios/L1T2A2.jpg","39","restless",0.4,0.6,0.4,0.364387781499642,"true"
"image-keyboard-response",226,292022,"0.0-4.71-1.71","6u6st0eedm0ydu5",789,"103.csv","","null","resources/maskTrios/BBA2.jpg","null","",NA,NA,NA,NA,""
"image-keyboard-response",227,293232,"0.0-4.71-2.71","6u6st0eedm0ydu5",789,"103.csv","","null","resources/images/coin2.png","null","",NA,NA,NA,NA,""
"image-keyboard-response",228,293534,"0.0-4.72-0.72","6u6st0eedm0ydu5",789,"103.csv","","300.7999997138977","resources/trios/L1T2A2.jpg","39","restless",0.4,0.6,0.4,0.616846474511812,"false"
"image-keyboard-response",229,293940,"0.0-4.72-1.72","6u6st0eedm0ydu5",789,"103.csv","","null","resources/maskTrios/BBA2.jpg","null","",NA,NA,NA,NA,""
"image-keyboard-response",230,295150,"0.0-4.72-2.72","6u6st0eedm0ydu5",789,"103.csv","","null","resources/images/fishbone.png","null","",NA,NA,NA,NA,""
"image-keyboard-response",231,295432,"0.0-4.73-0.73","6u6st0eedm0ydu5",789,"103.csv","","280.5","resources/trios/L1T2A2.jpg","39","restless",0.4,0.6,0.4,0.703040634319521,"false"
"image-keyboard-response",232,295843,"0.0-4.73-1.73","6u6st0eedm0ydu5",789,"103.csv","","null","resources/maskTrios/BBA2.jpg","null","",NA,NA,NA,NA,""
"image-keyboard-response",233,297051,"0.0-4.73-2.73","6u6st0eedm0ydu5",789,"103.csv","","null","resources/images/fishbone.png","null","",NA,NA,NA,NA,""
"image-keyboard-response",234,297680,"0.0-4.74-0.74","6u6st0eedm0ydu5",789,"103.csv","","628.2999997138977","resources/trios/L1T2A2.jpg","38","restless",0.4,0.6,0.4,0.759824581427106,"false"
"image-keyboard-response",235,298086,"0.0-4.74-1.74","6u6st0eedm0ydu5",789,"103.csv","","null","resources/maskTrios/BT2B.jpg","null","",NA,NA,NA,NA,""
"image-keyboard-response",236,299301,"0.0-4.74-2.74","6u6st0eedm0ydu5",789,"103.csv","","null","resources/images/fishbone.png","null","",NA,NA,NA,NA,""
"image-keyboard-response",237,299626,"0.0-4.75-0.75","6u6st0eedm0ydu5",789,"103.csv","","323.80000019073486","resources/trios/L1T2A2.jpg","37","restless",0.4,0.5,0.4,0.511087559275968,"false"
"image-keyboard-response",238,300028,"0.0-4.75-1.75","6u6st0eedm0ydu5",789,"103.csv","","null","resources/maskTrios/L1BB.jpg","null","",NA,NA,NA,NA,""
"image-keyboard-response",239,301237,"0.0-4.75-2.75","6u6st0eedm0ydu5",789,"103.csv","","null","resources/images/fishbone.png","null","",NA,NA,NA,NA,""
"image-keyboard-response",240,302623,"0.0-4.76-0.76","6u6st0eedm0ydu5",789,"103.csv","","1385.5","resources/trios/L1T2A2.jpg","37","restless",0.4,0.5,0.4,0.952442670005888,"false"
"image-keyboard-response",241,303029,"0.0-4.76-1.76","6u6st0eedm0ydu5",789,"103.csv","","null","resources/maskTrios/L1BB.jpg","null","",NA,NA,NA,NA,""
"image-keyboard-response",242,304231,"0.0-4.76-2.76","6u6st0eedm0ydu5",789,"103.csv","","null","resources/images/fishbone.png","null","",NA,NA,NA,NA,""
"image-keyboard-response",243,305358,"0.0-4.77-0.77","6u6st0eedm0ydu5",789,"103.csv","","1126.5","resources/trios/L1T2A2.jpg","38","restless",0.4,0.6,0.4,0.510419324335123,"true"
"image-keyboard-response",244,305766,"0.0-4.77-1.77","6u6st0eedm0ydu5",789,"103.csv","","null","resources/maskTrios/BT2B.jpg","null","",NA,NA,NA,NA,""
"image-keyboard-response",245,306967,"0.0-4.77-2.77","6u6st0eedm0ydu5",789,"103.csv","","null","resources/images/coin2.png","null","",NA,NA,NA,NA,""
"image-keyboard-response",246,307231,"0.0-4.78-0.78","6u6st0eedm0ydu5",789,"103.csv","","262.59999990463257","resources/trios/L1T2A2.jpg","37","restless",0.4,0.6,0.4,0.844466177452964,"false"
"image-keyboard-response",247,307637,"0.0-4.78-1.78","6u6st0eedm0ydu5",789,"103.csv","","null","resources/maskTrios/L1BB.jpg","null","",NA,NA,NA,NA,""
"image-keyboard-response",248,308847,"0.0-4.78-2.78","6u6st0eedm0ydu5",789,"103.csv","","null","resources/images/fishbone.png","null","",NA,NA,NA,NA,""
"image-keyboard-response",249,309220,"0.0-4.79-0.79","6u6st0eedm0ydu5",789,"103.csv","","372.69999980926514","resources/trios/L1T2A2.jpg","39","restless",0.4,0.6,0.4,0.695990312529896,"false"
"image-keyboard-response",250,309633,"0.0-4.79-1.79","6u6st0eedm0ydu5",789,"103.csv","","null","resources/maskTrios/BBA2.jpg","null","",NA,NA,NA,NA,""
"image-keyboard-response",251,310839,"0.0-4.79-2.79","6u6st0eedm0ydu5",789,"103.csv","","null","resources/images/fishbone.png","null","",NA,NA,NA,NA,""
"image-keyboard-response",252,311726,"0.0-4.80-0.80","6u6st0eedm0ydu5",789,"103.csv","","886.2999997138977","resources/trios/L1T2A2.jpg","39","restless",0.4,0.6,0.4,0.841612421201239,"false"
"image-keyboard-response",253,312142,"0.0-4.80-1.80","6u6st0eedm0ydu5",789,"103.csv","","null","resources/maskTrios/BBA2.jpg","null","",NA,NA,NA,NA,""
"image-keyboard-response",254,313356,"0.0-4.80-2.80","6u6st0eedm0ydu5",789,"103.csv","","null","resources/images/fishbone.png","null","",NA,NA,NA,NA,""
"image-keyboard-response",255,313812,"0.0-4.81-0.81","6u6st0eedm0ydu5",789,"103.csv","","455.09999990463257","resources/trios/L1T2A2.jpg","37","restless",0.4,0.6,0.5,0.561459214263016,"false"
"image-keyboard-response",256,314218,"0.0-4.81-1.81","6u6st0eedm0ydu5",789,"103.csv","","null","resources/maskTrios/L1BB.jpg","null","",NA,NA,NA,NA,""
"image-keyboard-response",257,315431,"0.0-4.81-2.81","6u6st0eedm0ydu5",789,"103.csv","","null","resources/images/fishbone.png","null","",NA,NA,NA,NA,""
"image-keyboard-response",258,315848,"0.0-4.82-0.82","6u6st0eedm0ydu5",789,"103.csv","","415.90000009536743","resources/trios/L1T2A2.jpg","38","restless",0.4,0.6,0.5,0.0731416318528826,"true"
"image-keyboard-response",259,316261,"0.0-4.82-1.82","6u6st0eedm0ydu5",789,"103.csv","","null","resources/maskTrios/BT2B.jpg","null","",NA,NA,NA,NA,""
"image-keyboard-response",260,317463,"0.0-4.82-2.82","6u6st0eedm0ydu5",789,"103.csv","","null","resources/images/coin2.png","null","",NA,NA,NA,NA,""
"image-keyboard-response",261,318073,"0.0-4.83-0.83","6u6st0eedm0ydu5",789,"103.csv","","609.3000001907349","resources/trios/L1T2A2.jpg","37","restless",0.4,0.6,0.5,0.599335074003073,"false"
"image-keyboard-response",262,318475,"0.0-4.83-1.83","6u6st0eedm0ydu5",789,"103.csv","","null","resources/maskTrios/L1BB.jpg","null","",NA,NA,NA,NA,""
"image-keyboard-response",263,319680,"0.0-4.83-2.83","6u6st0eedm0ydu5",789,"103.csv","","null","resources/images/fishbone.png","null","",NA,NA,NA,NA,""
"image-keyboard-response",264,320397,"0.0-4.84-0.84","6u6st0eedm0ydu5",789,"103.csv","","716.4000000953674","resources/trios/L1T2A2.jpg","37","restless",0.3,0.6,0.5,0.817504702371102,"false"
"image-keyboard-response",265,320798,"0.0-4.84-1.84","6u6st0eedm0ydu5",789,"103.csv","","null","resources/maskTrios/L1BB.jpg","null","",NA,NA,NA,NA,""
"image-keyboard-response",266,322002,"0.0-4.84-2.84","6u6st0eedm0ydu5",789,"103.csv","","null","resources/images/fishbone.png","null","",NA,NA,NA,NA,""
"image-keyboard-response",267,322646,"0.0-4.85-0.85","6u6st0eedm0ydu5",789,"103.csv","","642.9000000953674","resources/trios/L1T2A2.jpg","38","restless",0.3,0.6,0.5,0.130482361514981,"true"
"image-keyboard-response",268,323063,"0.0-4.85-1.85","6u6st0eedm0ydu5",789,"103.csv","","null","resources/maskTrios/BT2B.jpg","null","",NA,NA,NA,NA,""
"image-keyboard-response",269,324280,"0.0-4.85-2.85","6u6st0eedm0ydu5",789,"103.csv","","null","resources/images/coin2.png","null","",NA,NA,NA,NA,""
"image-keyboard-response",270,324897,"0.0-4.86-0.86","6u6st0eedm0ydu5",789,"103.csv","","616.4000000953674","resources/trios/L1T2A2.jpg","37","restless",0.3,0.6,0.4,0.210730163402725,"true"
"image-keyboard-response",271,325308,"0.0-4.86-1.86","6u6st0eedm0ydu5",789,"103.csv","","null","resources/maskTrios/L1BB.jpg","null","",NA,NA,NA,NA,""
"image-keyboard-response",272,326523,"0.0-4.86-2.86","6u6st0eedm0ydu5",789,"103.csv","","null","resources/images/coin2.png","null","",NA,NA,NA,NA,""
"image-keyboard-response",273,327295,"0.0-4.87-0.87","6u6st0eedm0ydu5",789,"103.csv","","771.0999999046326","resources/trios/L1T2A2.jpg","37","restless",0.3,0.6,0.4,0.762477743260326,"false"
"image-keyboard-response",274,327703,"0.0-4.87-1.87","6u6st0eedm0ydu5",789,"103.csv","","null","resources/maskTrios/L1BB.jpg","null","",NA,NA,NA,NA,""
"image-keyboard-response",275,328911,"0.0-4.87-2.87","6u6st0eedm0ydu5",789,"103.csv","","null","resources/images/fishbone.png","null","",NA,NA,NA,NA,""
"image-keyboard-response",276,329250,"0.0-4.88-0.88","6u6st0eedm0ydu5",789,"103.csv","","338","resources/trios/L1T2A2.jpg","37","restless",0.3,0.6,0.4,0.486347418385075,"false"
"image-keyboard-response",277,329666,"0.0-4.88-1.88","6u6st0eedm0ydu5",789,"103.csv","","null","resources/maskTrios/L1BB.jpg","null","",NA,NA,NA,NA,""
"image-keyboard-response",278,330868,"0.0-4.88-2.88","6u6st0eedm0ydu5",789,"103.csv","","null","resources/images/fishbone.png","null","",NA,NA,NA,NA,""
"image-keyboard-response",279,331260,"0.0-4.89-0.89","6u6st0eedm0ydu5",789,"103.csv","","390.6000003814697","resources/trios/L1T2A2.jpg","39","restless",0.3,0.6,0.4,0.386418498724989,"true"
"image-keyboard-response",280,331667,"0.0-4.89-1.89","6u6st0eedm0ydu5",789,"103.csv","","null","resources/maskTrios/BBA2.jpg","null","",NA,NA,NA,NA,""
"image-keyboard-response",281,332882,"0.0-4.89-2.89","6u6st0eedm0ydu5",789,"103.csv","","null","resources/images/coin2.png","null","",NA,NA,NA,NA,""
"image-keyboard-response",282,333340,"0.0-4.90-0.90","6u6st0eedm0ydu5",789,"103.csv","","456.90000009536743","resources/trios/L1T2A2.jpg","39","restless",0.3,0.6,0.4,0.66556210622208,"false"
"image-keyboard-response",283,333753,"0.0-4.90-1.90","6u6st0eedm0ydu5",789,"103.csv","","null","resources/maskTrios/BBA2.jpg","null","",NA,NA,NA,NA,""
"image-keyboard-response",284,334964,"0.0-4.90-2.90","6u6st0eedm0ydu5",789,"103.csv","","null","resources/images/fishbone.png","null","",NA,NA,NA,NA,""
"image-keyboard-response",285,335314,"0.0-4.91-0.91","6u6st0eedm0ydu5",789,"103.csv","","349.5","resources/trios/L1T2A2.jpg","38","restless",0.3,0.5,0.4,0.254995790705811,"true"
"image-keyboard-response",286,335717,"0.0-4.91-1.91","6u6st0eedm0ydu5",789,"103.csv","","null","resources/maskTrios/BT2B.jpg","null","",NA,NA,NA,NA,""
"image-keyboard-response",287,336931,"0.0-4.91-2.91","6u6st0eedm0ydu5",789,"103.csv","","null","resources/images/coin2.png","null","",NA,NA,NA,NA,""
"image-keyboard-response",288,337247,"0.0-4.92-0.92","6u6st0eedm0ydu5",789,"103.csv","","315","resources/trios/L1T2A2.jpg","38","restless",0.3,0.5,0.4,0.0180054027209051,"true"
"image-keyboard-response",289,337657,"0.0-4.92-1.92","6u6st0eedm0ydu5",789,"103.csv","","null","resources/maskTrios/BT2B.jpg","null","",NA,NA,NA,NA,""
"image-keyboard-response",290,338868,"0.0-4.92-2.92","6u6st0eedm0ydu5",789,"103.csv","","null","resources/images/coin2.png","null","",NA,NA,NA,NA,""
"image-keyboard-response",291,339171,"0.0-4.93-0.93","6u6st0eedm0ydu5",789,"103.csv","","301.69999980926514","resources/trios/L1T2A2.jpg","38","restless",0.3,0.5,0.4,0.0228795253069993,"true"
"image-keyboard-response",292,339577,"0.0-4.93-1.93","6u6st0eedm0ydu5",789,"103.csv","","null","resources/maskTrios/BT2B.jpg","null","",NA,NA,NA,NA,""
"image-keyboard-response",293,340794,"0.0-4.93-2.93","6u6st0eedm0ydu5",789,"103.csv","","null","resources/images/coin2.png","null","",NA,NA,NA,NA,""
"image-keyboard-response",294,341146,"0.0-4.94-0.94","6u6st0eedm0ydu5",789,"103.csv","","351","resources/trios/L1T2A2.jpg","38","restless",0.3,0.5,0.4,0.448709234826265,"true"
"image-keyboard-response",295,341549,"0.0-4.94-1.94","6u6st0eedm0ydu5",789,"103.csv","","null","resources/maskTrios/BT2B.jpg","null","",NA,NA,NA,NA,""
"image-keyboard-response",296,342757,"0.0-4.94-2.94","6u6st0eedm0ydu5",789,"103.csv","","null","resources/images/coin2.png","null","",NA,NA,NA,NA,""
"image-keyboard-response",297,343018,"0.0-4.95-0.95","6u6st0eedm0ydu5",789,"103.csv","","260.5","resources/trios/L1T2A2.jpg","38","restless",0.3,0.5,0.4,0.366256858493784,"true"
"image-keyboard-response",298,343430,"0.0-4.95-1.95","6u6st0eedm0ydu5",789,"103.csv","","null","resources/maskTrios/BT2B.jpg","null","",NA,NA,NA,NA,""
"image-keyboard-response",299,344647,"0.0-4.95-2.95","6u6st0eedm0ydu5",789,"103.csv","","null","resources/images/coin2.png","null","",NA,NA,NA,NA,""
"image-keyboard-response",300,344965,"0.0-4.96-0.96","6u6st0eedm0ydu5",789,"103.csv","","317.69999980926514","resources/trios/L1T2A2.jpg","38","restless",0.3,0.5,0.4,0.0945154736447149,"true"
"image-keyboard-response",301,345373,"0.0-4.96-1.96","6u6st0eedm0ydu5",789,"103.csv","","null","resources/maskTrios/BT2B.jpg","null","",NA,NA,NA,NA,""
"image-keyboard-response",302,346575,"0.0-4.96-2.96","6u6st0eedm0ydu5",789,"103.csv","","null","resources/images/coin2.png","null","",NA,NA,NA,NA,""
"image-keyboard-response",303,346874,"0.0-4.97-0.97","6u6st0eedm0ydu5",789,"103.csv","","297.8999996185303","resources/trios/L1T2A2.jpg","38","restless",0.2,0.5,0.4,0.874113930765734,"false"
"image-keyboard-response",304,347282,"0.0-4.97-1.97","6u6st0eedm0ydu5",789,"103.csv","","null","resources/maskTrios/BT2B.jpg","null","",NA,NA,NA,NA,""
"image-keyboard-response",305,348486,"0.0-4.97-2.97","6u6st0eedm0ydu5",789,"103.csv","","null","resources/images/fishbone.png","null","",NA,NA,NA,NA,""
"image-keyboard-response",306,348743,"0.0-4.98-0.98","6u6st0eedm0ydu5",789,"103.csv","","256.69999980926514","resources/trios/L1T2A2.jpg","38","restless",0.3,0.5,0.4,0.722473048361509,"false"
"image-keyboard-response",307,349146,"0.0-4.98-1.98","6u6st0eedm0ydu5",789,"103.csv","","null","resources/maskTrios/BT2B.jpg","null","",NA,NA,NA,NA,""
"image-keyboard-response",308,350360,"0.0-4.98-2.98","6u6st0eedm0ydu5",789,"103.csv","","null","resources/images/fishbone.png","null","",NA,NA,NA,NA,""
"image-keyboard-response",309,350788,"0.0-4.99-0.99","6u6st0eedm0ydu5",789,"103.csv","","426.5","resources/trios/L1T2A2.jpg","37","restless",0.3,0.5,0.4,0.527099921625349,"false"
"image-keyboard-response",310,351204,"0.0-4.99-1.99","6u6st0eedm0ydu5",789,"103.csv","","null","resources/maskTrios/L1BB.jpg","null","",NA,NA,NA,NA,""
"image-keyboard-response",311,352417,"0.0-4.99-2.99","6u6st0eedm0ydu5",789,"103.csv","","null","resources/images/fishbone.png","null","",NA,NA,NA,NA,""
"image-keyboard-response",312,352428,"0.0-4.100-0.100","6u6st0eedm0ydu5",789,"103.csv","","10.799999713897705","resources/trios/L1T2A2.jpg","37","restless",0.4,0.5,0.4,0.925409770759009,"false"
"image-keyboard-response",313,352837,"0.0-4.100-1.100","6u6st0eedm0ydu5",789,"103.csv","","null","resources/maskTrios/L1BB.jpg","null","",NA,NA,NA,NA,""
"image-keyboard-response",314,354042,"0.0-4.100-2.100","6u6st0eedm0ydu5",789,"103.csv","","null","resources/images/fishbone.png","null","",NA,NA,NA,NA,""
"image-keyboard-response",315,354399,"0.0-4.101-0.101","6u6st0eedm0ydu5",789,"103.csv","","356.5","resources/trios/L1T2A2.jpg","39","restless",0.5,0.5,0.4,0.453238770398471,"false"
"image-keyboard-response",316,354806,"0.0-4.101-1.101","6u6st0eedm0ydu5",789,"103.csv","","null","resources/maskTrios/BBA2.jpg","null","",NA,NA,NA,NA,""
"image-keyboard-response",317,356019,"0.0-4.101-2.101","6u6st0eedm0ydu5",789,"103.csv","","null","resources/images/fishbone.png","null","",NA,NA,NA,NA,""
"image-keyboard-response",318,356993,"0.0-4.102-0.102","6u6st0eedm0ydu5",789,"103.csv","","973.4000000953674","resources/trios/L1T2A2.jpg","38","restless",0.6,0.5,0.4,0.665681704073069,"false"
"image-keyboard-response",319,357403,"0.0-4.102-1.102","6u6st0eedm0ydu5",789,"103.csv","","null","resources/maskTrios/BT2B.jpg","null","",NA,NA,NA,NA,""
"image-keyboard-response",320,358612,"0.0-4.102-2.102","6u6st0eedm0ydu5",789,"103.csv","","null","resources/images/fishbone.png","null","",NA,NA,NA,NA,""
"image-keyboard-response",321,366221,"0.0-4.103-0.103","6u6st0eedm0ydu5",789,"103.csv","","7608.10000038147","resources/trios/L1T2A2.jpg","38","restless",0.6,0.5,0.3,0.782131347321604,"false"
"image-keyboard-response",322,366628,"0.0-4.103-1.103","6u6st0eedm0ydu5",789,"103.csv","","null","resources/maskTrios/BT2B.jpg","null","",NA,NA,NA,NA,""
"image-keyboard-response",323,367843,"0.0-4.103-2.103","6u6st0eedm0ydu5",789,"103.csv","","null","resources/images/fishbone.png","null","",NA,NA,NA,NA,""
"image-keyboard-response",324,368698,"0.0-4.104-0.104","6u6st0eedm0ydu5",789,"103.csv","","854","resources/trios/L1T2A2.jpg","37","restless",0.6,0.5,0.2,0.574568878459217,"true"
"image-keyboard-response",325,369109,"0.0-4.104-1.104","6u6st0eedm0ydu5",789,"103.csv","","null","resources/maskTrios/L1BB.jpg","null","",NA,NA,NA,NA,""
"image-keyboard-response",326,370318,"0.0-4.104-2.104","6u6st0eedm0ydu5",789,"103.csv","","null","resources/images/coin2.png","null","",NA,NA,NA,NA,""
"image-keyboard-response",327,370633,"0.0-4.105-0.105","6u6st0eedm0ydu5",789,"103.csv","","314.5","resources/trios/L1T2A2.jpg","37","restless",0.6,0.5,0.2,0.956272356251653,"false"
"image-keyboard-response",328,371046,"0.0-4.105-1.105","6u6st0eedm0ydu5",789,"103.csv","","null","resources/maskTrios/L1BB.jpg","null","",NA,NA,NA,NA,""
"image-keyboard-response",329,372257,"0.0-4.105-2.105","6u6st0eedm0ydu5",789,"103.csv","","null","resources/images/fishbone.png","null","",NA,NA,NA,NA,""
"image-keyboard-response",330,372592,"0.0-4.106-0.106","6u6st0eedm0ydu5",789,"103.csv","","334.2000002861023","resources/trios/L1T2A2.jpg","37","restless",0.6,0.5,0.2,0.482982124137856,"true"
"image-keyboard-response",331,373000,"0.0-4.106-1.106","6u6st0eedm0ydu5",789,"103.csv","","null","resources/maskTrios/L1BB.jpg","null","",NA,NA,NA,NA,""
"image-keyboard-response",332,374205,"0.0-4.106-2.106","6u6st0eedm0ydu5",789,"103.csv","","null","resources/images/coin2.png","null","",NA,NA,NA,NA,""
"image-keyboard-response",333,374554,"0.0-4.107-0.107","6u6st0eedm0ydu5",789,"103.csv","","348.80000019073486","resources/trios/L1T2A2.jpg","37","restless",0.7,0.5,0.2,0.86752538597767,"false"
"image-keyboard-response",334,374961,"0.0-4.107-1.107","6u6st0eedm0ydu5",789,"103.csv","","null","resources/maskTrios/L1BB.jpg","null","",NA,NA,NA,NA,""
"image-keyboard-response",335,376175,"0.0-4.107-2.107","6u6st0eedm0ydu5",789,"103.csv","","null","resources/images/fishbone.png","null","",NA,NA,NA,NA,""
"image-keyboard-response",336,376420,"0.0-4.108-0.108","6u6st0eedm0ydu5",789,"103.csv","","243.09999990463257","resources/trios/L1T2A2.jpg","37","restless",0.7,0.5,0.2,0.242389210612807,"true"
"image-keyboard-response",337,376835,"0.0-4.108-1.108","6u6st0eedm0ydu5",789,"103.csv","","null","resources/maskTrios/L1BB.jpg","null","",NA,NA,NA,NA,""
"image-keyboard-response",338,378049,"0.0-4.108-2.108","6u6st0eedm0ydu5",789,"103.csv","","null","resources/images/coin2.png","null","",NA,NA,NA,NA,""
"image-keyboard-response",339,378324,"0.0-4.109-0.109","6u6st0eedm0ydu5",789,"103.csv","","274.2000002861023","resources/trios/L1T2A2.jpg","37","restless",0.7,0.5,0.2,0.981793828651048,"false"
"image-keyboard-response",340,378726,"0.0-4.109-1.109","6u6st0eedm0ydu5",789,"103.csv","","null","resources/maskTrios/L1BB.jpg","null","",NA,NA,NA,NA,""
"image-keyboard-response",341,379933,"0.0-4.109-2.109","6u6st0eedm0ydu5",789,"103.csv","","null","resources/images/fishbone.png","null","",NA,NA,NA,NA,""
"image-keyboard-response",342,380272,"0.0-4.110-0.110","6u6st0eedm0ydu5",789,"103.csv","","338.2999997138977","resources/trios/L1T2A2.jpg","37","restless",0.7,0.5,0.2,0.190755215801437,"true"
"image-keyboard-response",343,380676,"0.0-4.110-1.110","6u6st0eedm0ydu5",789,"103.csv","","null","resources/maskTrios/L1BB.jpg","null","",NA,NA,NA,NA,""
"image-keyboard-response",344,381877,"0.0-4.110-2.110","6u6st0eedm0ydu5",789,"103.csv","","null","resources/images/coin2.png","null","",NA,NA,NA,NA,""
"image-keyboard-response",345,383117,"0.0-4.111-0.111","6u6st0eedm0ydu5",789,"103.csv","","1238.5","resources/trios/L1T2A2.jpg","39","restless",0.7,0.5,0.2,0.456272324054626,"false"
"image-keyboard-response",346,383525,"0.0-4.111-1.111","6u6st0eedm0ydu5",789,"103.csv","","null","resources/maskTrios/BBA2.jpg","null","",NA,NA,NA,NA,""
"image-keyboard-response",347,384737,"0.0-4.111-2.111","6u6st0eedm0ydu5",789,"103.csv","","null","resources/images/fishbone.png","null","",NA,NA,NA,NA,""
"image-keyboard-response",348,385075,"0.0-4.112-0.112","6u6st0eedm0ydu5",789,"103.csv","","337.40000009536743","resources/trios/L1T2A2.jpg","38","restless",0.7,0.5,0.2,0.373624922389,"true"
"image-keyboard-response",349,385481,"0.0-4.112-1.112","6u6st0eedm0ydu5",789,"103.csv","","null","resources/maskTrios/BT2B.jpg","null","",NA,NA,NA,NA,""
"image-keyboard-response",350,386691,"0.0-4.112-2.112","6u6st0eedm0ydu5",789,"103.csv","","null","resources/images/coin2.png","null","",NA,NA,NA,NA,""
"image-keyboard-response",351,387044,"0.0-4.113-0.113","6u6st0eedm0ydu5",789,"103.csv","","353.2000002861023","resources/trios/L1T2A2.jpg","38","restless",0.7,0.5,0.2,0.576984235179379,"false"
"image-keyboard-response",352,387450,"0.0-4.113-1.113","6u6st0eedm0ydu5",789,"103.csv","","null","resources/maskTrios/BT2B.jpg","null","",NA,NA,NA,NA,""
"image-keyboard-response",353,388654,"0.0-4.113-2.113","6u6st0eedm0ydu5",789,"103.csv","","null","resources/images/fishbone.png","null","",NA,NA,NA,NA,""
"image-keyboard-response",354,388956,"0.0-4.114-0.114","6u6st0eedm0ydu5",789,"103.csv","","301.69999980926514","resources/trios/L1T2A2.jpg","38","restless",0.8,0.5,0.2,0.850873843291144,"false"
"image-keyboard-response",355,389363,"0.0-4.114-1.114","6u6st0eedm0ydu5",789,"103.csv","","null","resources/maskTrios/BT2B.jpg","null","",NA,NA,NA,NA,""
"image-keyboard-response",356,390574,"0.0-4.114-2.114","6u6st0eedm0ydu5",789,"103.csv","","null","resources/images/fishbone.png","null","",NA,NA,NA,NA,""
"image-keyboard-response",357,390961,"0.0-4.115-0.115","6u6st0eedm0ydu5",789,"103.csv","","386","resources/trios/L1T2A2.jpg","37","restless",0.8,0.5,0.2,0.86226069141407,"false"
"image-keyboard-response",358,391375,"0.0-4.115-1.115","6u6st0eedm0ydu5",789,"103.csv","","null","resources/maskTrios/L1BB.jpg","null","",NA,NA,NA,NA,""
"image-keyboard-response",359,392588,"0.0-4.115-2.115","6u6st0eedm0ydu5",789,"103.csv","","null","resources/images/fishbone.png","null","",NA,NA,NA,NA,""
"image-keyboard-response",360,392959,"0.0-4.116-0.116","6u6st0eedm0ydu5",789,"103.csv","","370.80000019073486","resources/trios/L1T2A2.jpg","38","restless",0.8,0.5,0.1,0.0477494235032949,"true"
"image-keyboard-response",361,393362,"0.0-4.116-1.116","6u6st0eedm0ydu5",789,"103.csv","","null","resources/maskTrios/BT2B.jpg","null","",NA,NA,NA,NA,""
"image-keyboard-response",362,394576,"0.0-4.116-2.116","6u6st0eedm0ydu5",789,"103.csv","","null","resources/images/coin2.png","null","",NA,NA,NA,NA,""
"image-keyboard-response",363,394897,"0.0-4.117-0.117","6u6st0eedm0ydu5",789,"103.csv","","319.40000009536743","resources/trios/L1T2A2.jpg","38","restless",0.7,0.5,0.1,0.60661613686227,"false"
"image-keyboard-response",364,395314,"0.0-4.117-1.117","6u6st0eedm0ydu5",789,"103.csv","","null","resources/maskTrios/BT2B.jpg","null","",NA,NA,NA,NA,""
"image-keyboard-response",365,396516,"0.0-4.117-2.117","6u6st0eedm0ydu5",789,"103.csv","","null","resources/images/fishbone.png","null","",NA,NA,NA,NA,""
"image-keyboard-response",366,397148,"0.0-4.118-0.118","6u6st0eedm0ydu5",789,"103.csv","","631.9000000953674","resources/trios/L1T2A2.jpg","39","restless",0.7,0.5,0.1,0.39695214505998,"false"
"image-keyboard-response",367,397551,"0.0-4.118-1.118","6u6st0eedm0ydu5",789,"103.csv","","null","resources/maskTrios/BBA2.jpg","null","",NA,NA,NA,NA,""
"image-keyboard-response",368,398754,"0.0-4.118-2.118","6u6st0eedm0ydu5",789,"103.csv","","null","resources/images/fishbone.png","null","",NA,NA,NA,NA,""
"image-keyboard-response",369,399118,"0.0-4.119-0.119","6u6st0eedm0ydu5",789,"103.csv","","363.2000002861023","resources/trios/L1T2A2.jpg","37","restless",0.7,0.5,0.1,0.293974874588322,"true"
"image-keyboard-response",370,399526,"0.0-4.119-1.119","6u6st0eedm0ydu5",789,"103.csv","","null","resources/maskTrios/L1BB.jpg","null","",NA,NA,NA,NA,""
"image-keyboard-response",371,400730,"0.0-4.119-2.119","6u6st0eedm0ydu5",789,"103.csv","","null","resources/images/coin2.png","null","",NA,NA,NA,NA,""
"image-keyboard-response",372,401105,"0.0-4.120-0.120","6u6st0eedm0ydu5",789,"103.csv","","374.5","resources/trios/L1T2A2.jpg","37","restless",0.7,0.5,0.1,0.294935356579122,"true"
"image-keyboard-response",373,401511,"0.0-4.120-1.120","6u6st0eedm0ydu5",789,"103.csv","","null","resources/maskTrios/L1BB.jpg","null","",NA,NA,NA,NA,""
"image-keyboard-response",374,402726,"0.0-4.120-2.120","6u6st0eedm0ydu5",789,"103.csv","","null","resources/images/coin2.png","null","",NA,NA,NA,NA,""
"image-keyboard-response",375,403069,"0.0-4.121-0.121","6u6st0eedm0ydu5",789,"103.csv","","342.90000009536743","resources/trios/L1T2A2.jpg","37","restless",0.7,0.5,0.1,0.697530921975431,"true"
"image-keyboard-response",376,403475,"0.0-4.121-1.121","6u6st0eedm0ydu5",789,"103.csv","","null","resources/maskTrios/L1BB.jpg","null","",NA,NA,NA,NA,""
"image-keyboard-response",377,404688,"0.0-4.121-2.121","6u6st0eedm0ydu5",789,"103.csv","","null","resources/images/coin2.png","null","",NA,NA,NA,NA,""
"image-keyboard-response",378,405075,"0.0-4.122-0.122","6u6st0eedm0ydu5",789,"103.csv","","386.7999997138977","resources/trios/L1T2A2.jpg","37","restless",0.7,0.5,0.1,0.799166803047406,"false"
"image-keyboard-response",379,405492,"0.0-4.122-1.122","6u6st0eedm0ydu5",789,"103.csv","","null","resources/maskTrios/L1BB.jpg","null","",NA,NA,NA,NA,""
"image-keyboard-response",380,406708,"0.0-4.122-2.122","6u6st0eedm0ydu5",789,"103.csv","","null","resources/images/fishbone.png","null","",NA,NA,NA,NA,""
"image-keyboard-response",381,406881,"0.0-4.123-0.123","6u6st0eedm0ydu5",789,"103.csv","","171.80000019073486","resources/trios/L1T2A2.jpg","38","restless",0.7,0.5,0.1,0.40350136211736,"true"
"image-keyboard-response",382,407288,"0.0-4.123-1.123","6u6st0eedm0ydu5",789,"103.csv","","null","resources/maskTrios/BT2B.jpg","null","",NA,NA,NA,NA,""
"image-keyboard-response",383,408493,"0.0-4.123-2.123","6u6st0eedm0ydu5",789,"103.csv","","null","resources/images/coin2.png","null","",NA,NA,NA,NA,""
"image-keyboard-response",384,409177,"0.0-4.124-0.124","6u6st0eedm0ydu5",789,"103.csv","","683.9000000953674","resources/trios/L1T2A2.jpg","38","restless",0.7,0.4,0.1,0.627994623458932,"false"
"image-keyboard-response",385,409593,"0.0-4.124-1.124","6u6st0eedm0ydu5",789,"103.csv","","null","resources/maskTrios/BT2B.jpg","null","",NA,NA,NA,NA,""
"image-keyboard-response",386,410805,"0.0-4.124-2.124","6u6st0eedm0ydu5",789,"103.csv","","null","resources/images/fishbone.png","null","",NA,NA,NA,NA,""
"image-keyboard-response",387,411138,"0.0-4.125-0.125","6u6st0eedm0ydu5",789,"103.csv","","332.30000019073486","resources/trios/L1T2A2.jpg","38","restless",0.7,0.4,0.1,0.647529637005673,"false"
"image-keyboard-response",388,411545,"0.0-4.125-1.125","6u6st0eedm0ydu5",789,"103.csv","","null","resources/maskTrios/BT2B.jpg","null","",NA,NA,NA,NA,""
"image-keyboard-response",389,412756,"0.0-4.125-2.125","6u6st0eedm0ydu5",789,"103.csv","","null","resources/images/fishbone.png","null","",NA,NA,NA,NA,""
"image-keyboard-response",390,414068,"0.0-4.126-0.126","6u6st0eedm0ydu5",789,"103.csv","","1311.1000003814697","resources/trios/L1T2A2.jpg","38","restless",0.7,0.4,0.1,0.523739015290982,"false"
"image-keyboard-response",391,414472,"0.0-4.126-1.126","6u6st0eedm0ydu5",789,"103.csv","","null","resources/maskTrios/BT2B.jpg","null","",NA,NA,NA,NA,""
"image-keyboard-response",392,415687,"0.0-4.126-2.126","6u6st0eedm0ydu5",789,"103.csv","","null","resources/images/fishbone.png","null","",NA,NA,NA,NA,""
"image-keyboard-response",393,416269,"0.0-4.127-0.127","6u6st0eedm0ydu5",789,"103.csv","","581.1000003814697","resources/trios/L1T2A2.jpg","38","restless",0.7,0.4,0.1,0.580786252522238,"false"
"image-keyboard-response",394,416673,"0.0-4.127-1.127","6u6st0eedm0ydu5",789,"103.csv","","null","resources/maskTrios/BT2B.jpg","null","",NA,NA,NA,NA,""
"image-keyboard-response",395,417886,"0.0-4.127-2.127","6u6st0eedm0ydu5",789,"103.csv","","null","resources/images/fishbone.png","null","",NA,NA,NA,NA,""
"image-keyboard-response",396,418429,"0.0-4.128-0.128","6u6st0eedm0ydu5",789,"103.csv","","542.5999999046326","resources/trios/L1T2A2.jpg","39","restless",0.7,0.4,0.1,0.716608124957844,"false"
"image-keyboard-response",397,418831,"0.0-4.128-1.128","6u6st0eedm0ydu5",789,"103.csv","","null","resources/maskTrios/BBA2.jpg","null","",NA,NA,NA,NA,""
"image-keyboard-response",398,420039,"0.0-4.128-2.128","6u6st0eedm0ydu5",789,"103.csv","","null","resources/images/fishbone.png","null","",NA,NA,NA,NA,""
"image-keyboard-response",399,420901,"0.0-4.129-0.129","6u6st0eedm0ydu5",789,"103.csv","","860.8000001907349","resources/trios/L1T2A2.jpg","37","restless",0.7,0.4,0.2,0.894070050503111,"false"
"image-keyboard-response",400,421318,"0.0-4.129-1.129","6u6st0eedm0ydu5",789,"103.csv","","null","resources/maskTrios/L1BB.jpg","null","",NA,NA,NA,NA,""
"image-keyboard-response",401,422533,"0.0-4.129-2.129","6u6st0eedm0ydu5",789,"103.csv","","null","resources/images/fishbone.png","null","",NA,NA,NA,NA,""
"image-keyboard-response",402,422712,"0.0-4.130-0.130","6u6st0eedm0ydu5",789,"103.csv","","178.89999961853027","resources/trios/L1T2A2.jpg","37","restless",0.7,0.4,0.2,0.464622616684442,"true"
"image-keyboard-response",403,423129,"0.0-4.130-1.130","6u6st0eedm0ydu5",789,"103.csv","","null","resources/maskTrios/L1BB.jpg","null","",NA,NA,NA,NA,""
"image-keyboard-response",404,424332,"0.0-4.130-2.130","6u6st0eedm0ydu5",789,"103.csv","","null","resources/images/coin2.png","null","",NA,NA,NA,NA,""
"image-keyboard-response",405,425710,"0.0-4.131-0.131","6u6st0eedm0ydu5",789,"103.csv","","1378.1000003814697","resources/trios/L1T2A2.jpg","38","restless",0.7,0.4,0.2,0.0931353926145895,"true"
"image-keyboard-response",406,426115,"0.0-4.131-1.131","6u6st0eedm0ydu5",789,"103.csv","","null","resources/maskTrios/BT2B.jpg","null","",NA,NA,NA,NA,""
"image-keyboard-response",407,427327,"0.0-4.131-2.131","6u6st0eedm0ydu5",789,"103.csv","","null","resources/images/coin2.png","null","",NA,NA,NA,NA,""
"image-keyboard-response",408,427583,"0.0-4.132-0.132","6u6st0eedm0ydu5",789,"103.csv","","254.59999990463257","resources/trios/L1T2A2.jpg","38","restless",0.7,0.4,0.2,0.135686503153156,"true"
"image-keyboard-response",409,427996,"0.0-4.132-1.132","6u6st0eedm0ydu5",789,"103.csv","","null","resources/maskTrios/BT2B.jpg","null","",NA,NA,NA,NA,""
"image-keyboard-response",410,429209,"0.0-4.132-2.132","6u6st0eedm0ydu5",789,"103.csv","","null","resources/images/coin2.png","null","",NA,NA,NA,NA,""
"image-keyboard-response",411,429505,"0.0-4.133-0.133","6u6st0eedm0ydu5",789,"103.csv","","295.5","resources/trios/L1T2A2.jpg","38","restless",0.7,0.4,0.3,0.0971309629607708,"true"
"image-keyboard-response",412,429914,"0.0-4.133-1.133","6u6st0eedm0ydu5",789,"103.csv","","null","resources/maskTrios/BT2B.jpg","null","",NA,NA,NA,NA,""
"image-keyboard-response",413,431120,"0.0-4.133-2.133","6u6st0eedm0ydu5",789,"103.csv","","null","resources/images/coin2.png","null","",NA,NA,NA,NA,""
"image-keyboard-response",414,431800,"0.0-4.134-0.134","6u6st0eedm0ydu5",789,"103.csv","","678.5","resources/trios/L1T2A2.jpg","38","restless",0.7,0.4,0.3,0.290597284085665,"true"
"image-keyboard-response",415,432202,"0.0-4.134-1.134","6u6st0eedm0ydu5",789,"103.csv","","null","resources/maskTrios/BT2B.jpg","null","",NA,NA,NA,NA,""
"image-keyboard-response",416,433413,"0.0-4.134-2.134","6u6st0eedm0ydu5",789,"103.csv","","null","resources/images/coin2.png","null","",NA,NA,NA,NA,""
"image-keyboard-response",417,434230,"0.0-4.135-0.135","6u6st0eedm0ydu5",789,"103.csv","","815.5999999046326","resources/trios/L1T2A2.jpg","39","restless",0.7,0.4,0.3,0.623626839597437,"false"
"image-keyboard-response",418,434645,"0.0-4.135-1.135","6u6st0eedm0ydu5",789,"103.csv","","null","resources/maskTrios/BBA2.jpg","null","",NA,NA,NA,NA,""
"image-keyboard-response",419,435852,"0.0-4.135-2.135","6u6st0eedm0ydu5",789,"103.csv","","null","resources/images/fishbone.png","null","",NA,NA,NA,NA,""
"image-keyboard-response",420,437024,"0.0-4.136-0.136","6u6st0eedm0ydu5",789,"103.csv","","1172","resources/trios/L1T2A2.jpg","37","restless",0.7,0.4,0.3,0.342806329866995,"true"
"image-keyboard-response",421,437426,"0.0-4.136-1.136","6u6st0eedm0ydu5",789,"103.csv","","null","resources/maskTrios/L1BB.jpg","null","",NA,NA,NA,NA,""
"image-keyboard-response",422,438631,"0.0-4.136-2.136","6u6st0eedm0ydu5",789,"103.csv","","null","resources/images/coin2.png","null","",NA,NA,NA,NA,""
"image-keyboard-response",423,439085,"0.0-4.137-0.137","6u6st0eedm0ydu5",789,"103.csv","","453.59999990463257","resources/trios/L1T2A2.jpg","37","restless",0.7,0.4,0.3,0.852275286454298,"false"
"image-keyboard-response",424,439495,"0.0-4.137-1.137","6u6st0eedm0ydu5",789,"103.csv","","null","resources/maskTrios/L1BB.jpg","null","",NA,NA,NA,NA,""
"image-keyboard-response",425,440698,"0.0-4.137-2.137","6u6st0eedm0ydu5",789,"103.csv","","null","resources/images/fishbone.png","null","",NA,NA,NA,NA,""
"image-keyboard-response",426,441302,"0.0-4.138-0.138","6u6st0eedm0ydu5",789,"103.csv","","603.1999998092651","resources/trios/L1T2A2.jpg","37","restless",0.7,0.4,0.3,0.224357574789908,"true"
"image-keyboard-response",427,441718,"0.0-4.138-1.138","6u6st0eedm0ydu5",789,"103.csv","","null","resources/maskTrios/L1BB.jpg","null","",NA,NA,NA,NA,""
"image-keyboard-response",428,442932,"0.0-4.138-2.138","6u6st0eedm0ydu5",789,"103.csv","","null","resources/images/coin2.png","null","",NA,NA,NA,NA,""
"image-keyboard-response",429,443330,"0.0-4.139-0.139","6u6st0eedm0ydu5",789,"103.csv","","396.5","resources/trios/L1T2A2.jpg","38","restless",0.7,0.4,0.3,0.415981610372192,"false"
"image-keyboard-response",430,443738,"0.0-4.139-1.139","6u6st0eedm0ydu5",789,"103.csv","","null","resources/maskTrios/BT2B.jpg","null","",NA,NA,NA,NA,""
"image-keyboard-response",431,444951,"0.0-4.139-2.139","6u6st0eedm0ydu5",789,"103.csv","","null","resources/images/fishbone.png","null","",NA,NA,NA,NA,""
"image-keyboard-response",432,445299,"0.0-4.140-0.140","6u6st0eedm0ydu5",789,"103.csv","","347.19999980926514","resources/trios/L1T2A2.jpg","38","restless",0.7,0.3,0.3,0.595840223260792,"false"
"image-keyboard-response",433,445710,"0.0-4.140-1.140","6u6st0eedm0ydu5",789,"103.csv","","null","resources/maskTrios/BT2B.jpg","null","",NA,NA,NA,NA,""
"image-keyboard-response",434,446921,"0.0-4.140-2.140","6u6st0eedm0ydu5",789,"103.csv","","null","resources/images/fishbone.png","null","",NA,NA,NA,NA,""
"image-keyboard-response",435,447358,"0.0-4.141-0.141","6u6st0eedm0ydu5",789,"103.csv","","435.69999980926514","resources/trios/L1T2A2.jpg","37","restless",0.7,0.3,0.3,0.644016643609357,"true"
"image-keyboard-response",436,447772,"0.0-4.141-1.141","6u6st0eedm0ydu5",789,"103.csv","","null","resources/maskTrios/L1BB.jpg","null","",NA,NA,NA,NA,""
"image-keyboard-response",437,448987,"0.0-4.141-2.141","6u6st0eedm0ydu5",789,"103.csv","","null","resources/images/coin2.png","null","",NA,NA,NA,NA,""
"image-keyboard-response",438,449047,"0.0-4.142-0.142","6u6st0eedm0ydu5",789,"103.csv","","59.19999980926514","resources/trios/L1T2A2.jpg","39","restless",0.7,0.3,0.3,0.954532769182201,"false"
"image-keyboard-response",439,449452,"0.0-4.142-1.142","6u6st0eedm0ydu5",789,"103.csv","","null","resources/maskTrios/BBA2.jpg","null","",NA,NA,NA,NA,""
"image-keyboard-response",440,450654,"0.0-4.142-2.142","6u6st0eedm0ydu5",789,"103.csv","","null","resources/images/fishbone.png","null","",NA,NA,NA,NA,""
"image-keyboard-response",441,450963,"0.0-4.143-0.143","6u6st0eedm0ydu5",789,"103.csv","","308.69999980926514","resources/trios/L1T2A2.jpg","38","restless",0.7,0.3,0.3,0.864296279742479,"false"
"image-keyboard-response",442,451377,"0.0-4.143-1.143","6u6st0eedm0ydu5",789,"103.csv","","null","resources/maskTrios/BT2B.jpg","null","",NA,NA,NA,NA,""
"image-keyboard-response",443,452592,"0.0-4.143-2.143","6u6st0eedm0ydu5",789,"103.csv","","null","resources/images/fishbone.png","null","",NA,NA,NA,NA,""
"image-keyboard-response",444,453177,"0.0-4.144-0.144","6u6st0eedm0ydu5",789,"103.csv","","584.5","resources/trios/L1T2A2.jpg","38","restless",0.7,0.3,0.3,0.174867678183147,"true"
"image-keyboard-response",445,453583,"0.0-4.144-1.144","6u6st0eedm0ydu5",789,"103.csv","","null","resources/maskTrios/BT2B.jpg","null","",NA,NA,NA,NA,""
"image-keyboard-response",446,454794,"0.0-4.144-2.144","6u6st0eedm0ydu5",789,"103.csv","","null","resources/images/coin2.png","null","",NA,NA,NA,NA,""
"image-keyboard-response",447,455115,"0.0-4.145-0.145","6u6st0eedm0ydu5",789,"103.csv","","319.40000009536743","resources/trios/L1T2A2.jpg","38","restless",0.7,0.3,0.3,0.156601461270988,"true"
"image-keyboard-response",448,455521,"0.0-4.145-1.145","6u6st0eedm0ydu5",789,"103.csv","","null","resources/maskTrios/BT2B.jpg","null","",NA,NA,NA,NA,""
"image-keyboard-response",449,456734,"0.0-4.145-2.145","6u6st0eedm0ydu5",789,"103.csv","","null","resources/images/coin2.png","null","",NA,NA,NA,NA,""
"image-keyboard-response",450,457338,"0.0-4.146-0.146","6u6st0eedm0ydu5",789,"103.csv","","603.4000000953674","resources/trios/L1T2A2.jpg","38","restless",0.7,0.3,0.3,0.183246677031137,"true"
"image-keyboard-response",451,457754,"0.0-4.146-1.146","6u6st0eedm0ydu5",789,"103.csv","","null","resources/maskTrios/BT2B.jpg","null","",NA,NA,NA,NA,""
"image-keyboard-response",452,458969,"0.0-4.146-2.146","6u6st0eedm0ydu5",789,"103.csv","","null","resources/images/coin2.png","null","",NA,NA,NA,NA,""
"image-keyboard-response",453,459352,"0.0-4.147-0.147","6u6st0eedm0ydu5",789,"103.csv","","382.40000009536743","resources/trios/L1T2A2.jpg","38","restless",0.7,0.3,0.3,0.889494053128765,"false"
"image-keyboard-response",454,459755,"0.0-4.147-1.147","6u6st0eedm0ydu5",789,"103.csv","","null","resources/maskTrios/BT2B.jpg","null","",NA,NA,NA,NA,""
"image-keyboard-response",455,460967,"0.0-4.147-2.147","6u6st0eedm0ydu5",789,"103.csv","","null","resources/images/fishbone.png","null","",NA,NA,NA,NA,""
"image-keyboard-response",456,461358,"0.0-4.148-0.148","6u6st0eedm0ydu5",789,"103.csv","","389.69999980926514","resources/trios/L1T2A2.jpg","38","restless",0.6,0.3,0.3,0.055518895180237,"true"
"image-keyboard-response",457,461770,"0.0-4.148-1.148","6u6st0eedm0ydu5",789,"103.csv","","null","resources/maskTrios/BT2B.jpg","null","",NA,NA,NA,NA,""
"image-keyboard-response",458,462987,"0.0-4.148-2.148","6u6st0eedm0ydu5",789,"103.csv","","null","resources/images/coin2.png","null","",NA,NA,NA,NA,""
"image-keyboard-response",459,463510,"0.0-4.149-0.149","6u6st0eedm0ydu5",789,"103.csv","","521.5999999046326","resources/trios/L1T2A2.jpg","38","restless",0.7,0.4,0.3,0.979416107910369,"false"
"image-keyboard-response",460,463917,"0.0-4.149-1.149","6u6st0eedm0ydu5",789,"103.csv","","null","resources/maskTrios/BT2B.jpg","null","",NA,NA,NA,NA,""
"image-keyboard-response",461,465130,"0.0-4.149-2.149","6u6st0eedm0ydu5",789,"103.csv","","null","resources/images/fishbone.png","null","",NA,NA,NA,NA,""
"image-keyboard-response",462,466372,"0.0-4.150-0.150","6u6st0eedm0ydu5",789,"103.csv","","1241.6999998092651","resources/trios/L1T2A2.jpg","39","restless",0.6,0.4,0.4,0.329749127333302,"true"
"image-keyboard-response",463,466786,"0.0-4.150-1.150","6u6st0eedm0ydu5",789,"103.csv","","null","resources/maskTrios/BBA2.jpg","null","",NA,NA,NA,NA,""
"image-keyboard-response",464,467990,"0.0-4.150-2.150","6u6st0eedm0ydu5",789,"103.csv","","null","resources/images/coin2.png","null","",NA,NA,NA,NA,""
"image-keyboard-response",465,468712,"0.0-4.151-0.151","6u6st0eedm0ydu5",789,"103.csv","","720.7999997138977","resources/trios/L1T2A2.jpg","39","restless",0.5,0.4,0.4,0.256581396006333,"true"
"image-keyboard-response",466,469128,"0.0-4.151-1.151","6u6st0eedm0ydu5",789,"103.csv","","null","resources/maskTrios/BBA2.jpg","null","",NA,NA,NA,NA,""
"image-keyboard-response",467,470329,"0.0-4.151-2.151","6u6st0eedm0ydu5",789,"103.csv","","null","resources/images/coin2.png","null","",NA,NA,NA,NA,""
"image-keyboard-response",468,471216,"0.0-4.152-0.152","6u6st0eedm0ydu5",789,"103.csv","","885.7999997138977","resources/trios/L1T2A2.jpg","39","restless",0.5,0.4,0.3,0.504579351436367,"false"
"image-keyboard-response",469,471625,"0.0-4.152-1.152","6u6st0eedm0ydu5",789,"103.csv","","null","resources/maskTrios/BBA2.jpg","null","",NA,NA,NA,NA,""
"image-keyboard-response",470,472836,"0.0-4.152-2.152","6u6st0eedm0ydu5",789,"103.csv","","null","resources/images/fishbone.png","null","",NA,NA,NA,NA,""
"image-keyboard-response",471,473594,"0.0-4.153-0.153","6u6st0eedm0ydu5",789,"103.csv","","756.5999999046326","resources/trios/L1T2A2.jpg","38","restless",0.5,0.4,0.3,0.365234707315232,"true"
"image-keyboard-response",472,474002,"0.0-4.153-1.153","6u6st0eedm0ydu5",789,"103.csv","","null","resources/maskTrios/BT2B.jpg","null","",NA,NA,NA,NA,""
"image-keyboard-response",473,475210,"0.0-4.153-2.153","6u6st0eedm0ydu5",789,"103.csv","","null","resources/images/coin2.png","null","",NA,NA,NA,NA,""
"image-keyboard-response",474,475962,"0.0-4.154-0.154","6u6st0eedm0ydu5",789,"103.csv","","751.7999997138977","resources/trios/L1T2A2.jpg","37","restless",0.5,0.4,0.3,0.690347856439544,"false"
"image-keyboard-response",475,476372,"0.0-4.154-1.154","6u6st0eedm0ydu5",789,"103.csv","","null","resources/maskTrios/L1BB.jpg","null","",NA,NA,NA,NA,""
"image-keyboard-response",476,477584,"0.0-4.154-2.154","6u6st0eedm0ydu5",789,"103.csv","","null","resources/images/fishbone.png","null","",NA,NA,NA,NA,""
"image-keyboard-response",477,478622,"0.0-4.155-0.155","6u6st0eedm0ydu5",789,"103.csv","","1037.2999997138977","resources/trios/L1T2A2.jpg","38","restless",0.5,0.4,0.3,0.237506723231035,"true"
"image-keyboard-response",478,479032,"0.0-4.155-1.155","6u6st0eedm0ydu5",789,"103.csv","","null","resources/maskTrios/BT2B.jpg","null","",NA,NA,NA,NA,""
"image-keyboard-response",479,480237,"0.0-4.155-2.155","6u6st0eedm0ydu5",789,"103.csv","","null","resources/images/coin2.png","null","",NA,NA,NA,NA,""
"image-keyboard-response",480,482049,"0.0-4.156-0.156","6u6st0eedm0ydu5",789,"103.csv","","1810.9000000953674","resources/trios/L1T2A2.jpg","38","restless",0.5,0.4,0.2,0.0170123202908512,"true"
"image-keyboard-response",481,482461,"0.0-4.156-1.156","6u6st0eedm0ydu5",789,"103.csv","","null","resources/maskTrios/BT2B.jpg","null","",NA,NA,NA,NA,""
"image-keyboard-response",482,483667,"0.0-4.156-2.156","6u6st0eedm0ydu5",789,"103.csv","","null","resources/images/coin2.png","null","",NA,NA,NA,NA,""
"image-keyboard-response",483,484114,"0.0-4.157-0.157","6u6st0eedm0ydu5",789,"103.csv","","445.90000009536743","resources/trios/L1T2A2.jpg","38","restless",0.5,0.4,0.2,0.231552808600714,"true"
"image-keyboard-response",484,484527,"0.0-4.157-1.157","6u6st0eedm0ydu5",789,"103.csv","","null","resources/maskTrios/BT2B.jpg","null","",NA,NA,NA,NA,""
"image-keyboard-response",485,485738,"0.0-4.157-2.157","6u6st0eedm0ydu5",789,"103.csv","","null","resources/images/coin2.png","null","",NA,NA,NA,NA,""
"image-keyboard-response",486,489137,"0.0-4.158-0.158","6u6st0eedm0ydu5",789,"103.csv","","3397.5999999046326","resources/trios/L1T2A2.jpg","37","restless",0.6,0.4,0.2,0.726260178449162,"false"
"image-keyboard-response",487,489552,"0.0-4.158-1.158","6u6st0eedm0ydu5",789,"103.csv","","null","resources/maskTrios/L1BB.jpg","null","",NA,NA,NA,NA,""
"image-keyboard-response",488,490763,"0.0-4.158-2.158","6u6st0eedm0ydu5",789,"103.csv","","null","resources/images/fishbone.png","null","",NA,NA,NA,NA,""
"image-keyboard-response",489,491756,"0.0-4.159-0.159","6u6st0eedm0ydu5",789,"103.csv","","991.6999998092651","resources/trios/L1T2A2.jpg","39","restless",0.6,0.4,0.2,0.0145029334586497,"true"
"image-keyboard-response",490,492165,"0.0-4.159-1.159","6u6st0eedm0ydu5",789,"103.csv","","null","resources/maskTrios/BBA2.jpg","null","",NA,NA,NA,NA,""
"image-keyboard-response",491,493382,"0.0-4.159-2.159","6u6st0eedm0ydu5",789,"103.csv","","null","resources/images/coin2.png","null","",NA,NA,NA,NA,""
"image-keyboard-response",492,493665,"0.0-4.160-0.160","6u6st0eedm0ydu5",789,"103.csv","","282.30000019073486","resources/trios/L1T2A2.jpg","39","restless",0.6,0.4,0.2,0.498122328673643,"false"
"image-keyboard-response",493,494079,"0.0-4.160-1.160","6u6st0eedm0ydu5",789,"103.csv","","null","resources/maskTrios/BBA2.jpg","null","",NA,NA,NA,NA,""
"image-keyboard-response",494,495295,"0.0-4.160-2.160","6u6st0eedm0ydu5",789,"103.csv","","null","resources/images/fishbone.png","null","",NA,NA,NA,NA,""
"image-keyboard-response",495,495690,"0.0-4.161-0.161","6u6st0eedm0ydu5",789,"103.csv","","394.5","resources/trios/L1T2A2.jpg","39","restless",0.6,0.4,0.2,0.398467814124122,"false"
"image-keyboard-response",496,496104,"0.0-4.161-1.161","6u6st0eedm0ydu5",789,"103.csv","","null","resources/maskTrios/BBA2.jpg","null","",NA,NA,NA,NA,""
"image-keyboard-response",497,497317,"0.0-4.161-2.161","6u6st0eedm0ydu5",789,"103.csv","","null","resources/images/fishbone.png","null","",NA,NA,NA,NA,""
"image-keyboard-response",498,498539,"0.0-4.162-0.162","6u6st0eedm0ydu5",789,"103.csv","","1221.2999997138977","resources/trios/L1T2A2.jpg","38","restless",0.6,0.4,0.3,0.737066503080672,"false"
"image-keyboard-response",499,498947,"0.0-4.162-1.162","6u6st0eedm0ydu5",789,"103.csv","","null","resources/maskTrios/BT2B.jpg","null","",NA,NA,NA,NA,""
"image-keyboard-response",500,500150,"0.0-4.162-2.162","6u6st0eedm0ydu5",789,"103.csv","","null","resources/images/fishbone.png","null","",NA,NA,NA,NA,""
"image-keyboard-response",501,500699,"0.0-4.163-0.163","6u6st0eedm0ydu5",789,"103.csv","","548.2999997138977","resources/trios/L1T2A2.jpg","37","restless",0.6,0.4,0.3,0.497631027821808,"true"
"image-keyboard-response",502,501111,"0.0-4.163-1.163","6u6st0eedm0ydu5",789,"103.csv","","null","resources/maskTrios/L1BB.jpg","null","",NA,NA,NA,NA,""
"image-keyboard-response",503,502325,"0.0-4.163-2.163","6u6st0eedm0ydu5",789,"103.csv","","null","resources/images/coin2.png","null","",NA,NA,NA,NA,""
"image-keyboard-response",504,503710,"0.0-4.164-0.164","6u6st0eedm0ydu5",789,"103.csv","","1384.0999999046326","resources/trios/L1T2A2.jpg","37","restless",0.7,0.4,0.3,0.513152458655041,"true"
"image-keyboard-response",505,504116,"0.0-4.164-1.164","6u6st0eedm0ydu5",789,"103.csv","","null","resources/maskTrios/L1BB.jpg","null","",NA,NA,NA,NA,""
"image-keyboard-response",506,505331,"0.0-4.164-2.164","6u6st0eedm0ydu5",789,"103.csv","","null","resources/images/coin2.png","null","",NA,NA,NA,NA,""
"image-keyboard-response",507,506334,"0.0-4.165-0.165","6u6st0eedm0ydu5",789,"103.csv","","1002.7000002861023","resources/trios/L1T2A2.jpg","39","restless",0.7,0.4,0.3,0.54753270606125,"false"
"image-keyboard-response",508,506748,"0.0-4.165-1.165","6u6st0eedm0ydu5",789,"103.csv","","null","resources/maskTrios/BBA2.jpg","null","",NA,NA,NA,NA,""
"image-keyboard-response",509,507963,"0.0-4.165-2.165","6u6st0eedm0ydu5",789,"103.csv","","null","resources/images/fishbone.png","null","",NA,NA,NA,NA,""
"image-keyboard-response",510,508796,"0.0-4.166-0.166","6u6st0eedm0ydu5",789,"103.csv","","831.7999997138977","resources/trios/L1T2A2.jpg","38","restless",0.7,0.4,0.3,0.999731473893976,"false"
"image-keyboard-response",511,509210,"0.0-4.166-1.166","6u6st0eedm0ydu5",789,"103.csv","","null","resources/maskTrios/BT2B.jpg","null","",NA,NA,NA,NA,""
"image-keyboard-response",512,510425,"0.0-4.166-2.166","6u6st0eedm0ydu5",789,"103.csv","","null","resources/images/fishbone.png","null","",NA,NA,NA,NA,""
"image-keyboard-response",513,511540,"0.0-4.167-0.167","6u6st0eedm0ydu5",789,"103.csv","","1114.5","resources/trios/L1T2A2.jpg","37","restless",0.7,0.4,0.3,0.0128265974068102,"true"
"image-keyboard-response",514,511953,"0.0-4.167-1.167","6u6st0eedm0ydu5",789,"103.csv","","null","resources/maskTrios/L1BB.jpg","null","",NA,NA,NA,NA,""
"image-keyboard-response",515,513165,"0.0-4.167-2.167","6u6st0eedm0ydu5",789,"103.csv","","null","resources/images/coin2.png","null","",NA,NA,NA,NA,""
"image-keyboard-response",516,513822,"0.0-4.168-0.168","6u6st0eedm0ydu5",789,"103.csv","","656.8000001907349","resources/trios/L1T2A2.jpg","38","restless",0.7,0.4,0.4,0.919730185385029,"false"
"image-keyboard-response",517,514225,"0.0-4.168-1.168","6u6st0eedm0ydu5",789,"103.csv","","null","resources/maskTrios/BT2B.jpg","null","",NA,NA,NA,NA,""
"image-keyboard-response",518,515442,"0.0-4.168-2.168","6u6st0eedm0ydu5",789,"103.csv","","null","resources/images/fishbone.png","null","",NA,NA,NA,NA,""
"image-keyboard-response",519,516071,"0.0-4.169-0.169","6u6st0eedm0ydu5",789,"103.csv","","628.5","resources/trios/L1T2A2.jpg","37","restless",0.7,0.4,0.4,0.846171726156901,"false"
"image-keyboard-response",520,516483,"0.0-4.169-1.169","6u6st0eedm0ydu5",789,"103.csv","","null","resources/maskTrios/L1BB.jpg","null","",NA,NA,NA,NA,""
"image-keyboard-response",521,517694,"0.0-4.169-2.169","6u6st0eedm0ydu5",789,"103.csv","","null","resources/images/fishbone.png","null","",NA,NA,NA,NA,""
"image-keyboard-response",522,518603,"0.0-4.170-0.170","6u6st0eedm0ydu5",789,"103.csv","","908.3000001907349","resources/trios/L1T2A2.jpg","39","restless",0.7,0.4,0.4,0.304342210632941,"true"
"image-keyboard-response",523,519008,"0.0-4.170-1.170","6u6st0eedm0ydu5",789,"103.csv","","null","resources/maskTrios/BBA2.jpg","null","",NA,NA,NA,NA,""
"image-keyboard-response",524,520219,"0.0-4.170-2.170","6u6st0eedm0ydu5",789,"103.csv","","null","resources/images/coin2.png","null","",NA,NA,NA,NA,""
"image-keyboard-response",525,520681,"0.0-4.171-0.171","6u6st0eedm0ydu5",789,"103.csv","","461.5","resources/trios/L1T2A2.jpg","39","restless",0.7,0.4,0.4,0.932246569393345,"false"
"image-keyboard-response",526,521093,"0.0-4.171-1.171","6u6st0eedm0ydu5",789,"103.csv","","null","resources/maskTrios/BBA2.jpg","null","",NA,NA,NA,NA,""
"image-keyboard-response",527,522295,"0.0-4.171-2.171","6u6st0eedm0ydu5",789,"103.csv","","null","resources/images/fishbone.png","null","",NA,NA,NA,NA,""
"image-keyboard-response",528,523501,"0.0-4.172-0.172","6u6st0eedm0ydu5",789,"103.csv","","1205.0999999046326","resources/trios/L1T2A2.jpg","39","restless",0.7,0.4,0.4,0.936956401881806,"false"
"image-keyboard-response",529,523908,"0.0-4.172-1.172","6u6st0eedm0ydu5",789,"103.csv","","null","resources/maskTrios/BBA2.jpg","null","",NA,NA,NA,NA,""
"image-keyboard-response",530,525113,"0.0-4.172-2.172","6u6st0eedm0ydu5",789,"103.csv","","null","resources/images/fishbone.png","null","",NA,NA,NA,NA,""
"image-keyboard-response",531,525430,"0.0-4.173-0.173","6u6st0eedm0ydu5",789,"103.csv","","316.40000009536743","resources/trios/L1T2A2.jpg","38","restless",0.7,0.4,0.4,0.264170520476965,"true"
"image-keyboard-response",532,525842,"0.0-4.173-1.173","6u6st0eedm0ydu5",789,"103.csv","","null","resources/maskTrios/BT2B.jpg","null","",NA,NA,NA,NA,""
"image-keyboard-response",533,527045,"0.0-4.173-2.173","6u6st0eedm0ydu5",789,"103.csv","","null","resources/images/coin2.png","null","",NA,NA,NA,NA,""
"image-keyboard-response",534,527372,"0.0-4.174-0.174","6u6st0eedm0ydu5",789,"103.csv","","325.40000009536743","resources/trios/L1T2A2.jpg","38","restless",0.7,0.4,0.4,0.249970633307236,"true"
"image-keyboard-response",535,527783,"0.0-4.174-1.174","6u6st0eedm0ydu5",789,"103.csv","","null","resources/maskTrios/BT2B.jpg","null","",NA,NA,NA,NA,""
"image-keyboard-response",536,528998,"0.0-4.174-2.174","6u6st0eedm0ydu5",789,"103.csv","","null","resources/images/coin2.png","null","",NA,NA,NA,NA,""
"image-keyboard-response",537,529648,"0.0-4.175-0.175","6u6st0eedm0ydu5",789,"103.csv","","649.2000002861023","resources/trios/L1T2A2.jpg","37","restless",0.8,0.4,0.4,0.144618715881861,"true"
"image-keyboard-response",538,530053,"0.0-4.175-1.175","6u6st0eedm0ydu5",789,"103.csv","","null","resources/maskTrios/L1BB.jpg","null","",NA,NA,NA,NA,""
"image-keyboard-response",539,531263,"0.0-4.175-2.175","6u6st0eedm0ydu5",789,"103.csv","","null","resources/images/coin2.png","null","",NA,NA,NA,NA,""
"image-keyboard-response",540,532065,"0.0-4.176-0.176","6u6st0eedm0ydu5",789,"103.csv","","800.9000000953674","resources/trios/L1T2A2.jpg","37","restless",0.7,0.4,0.4,0.283427097570499,"true"
"image-keyboard-response",541,532478,"0.0-4.176-1.176","6u6st0eedm0ydu5",789,"103.csv","","null","resources/maskTrios/L1BB.jpg","null","",NA,NA,NA,NA,""
"image-keyboard-response",542,533683,"0.0-4.176-2.176","6u6st0eedm0ydu5",789,"103.csv","","null","resources/images/coin2.png","null","",NA,NA,NA,NA,""
"image-keyboard-response",543,534115,"0.0-4.177-0.177","6u6st0eedm0ydu5",789,"103.csv","","431.09999990463257","resources/trios/L1T2A2.jpg","39","restless",0.7,0.4,0.4,0.631566085270572,"false"
"image-keyboard-response",544,534518,"0.0-4.177-1.177","6u6st0eedm0ydu5",789,"103.csv","","null","resources/maskTrios/BBA2.jpg","null","",NA,NA,NA,NA,""
"image-keyboard-response",545,535726,"0.0-4.177-2.177","6u6st0eedm0ydu5",789,"103.csv","","null","resources/images/fishbone.png","null","",NA,NA,NA,NA,""
"image-keyboard-response",546,536173,"0.0-4.178-0.178","6u6st0eedm0ydu5",789,"103.csv","","445.59999990463257","resources/trios/L1T2A2.jpg","38","restless",0.7,0.5,0.4,0.777974736188864,"false"
"image-keyboard-response",547,536577,"0.0-4.178-1.178","6u6st0eedm0ydu5",789,"103.csv","","null","resources/maskTrios/BT2B.jpg","null","",NA,NA,NA,NA,""
"image-keyboard-response",548,537788,"0.0-4.178-2.178","6u6st0eedm0ydu5",789,"103.csv","","null","resources/images/fishbone.png","null","",NA,NA,NA,NA,""
"image-keyboard-response",549,538351,"0.0-4.179-0.179","6u6st0eedm0ydu5",789,"103.csv","","562.4000000953674","resources/trios/L1T2A2.jpg","37","restless",0.7,0.5,0.4,0.0262642432434728,"true"
"image-keyboard-response",550,538757,"0.0-4.179-1.179","6u6st0eedm0ydu5",789,"103.csv","","null","resources/maskTrios/L1BB.jpg","null","",NA,NA,NA,NA,""
"image-keyboard-response",551,539960,"0.0-4.179-2.179","6u6st0eedm0ydu5",789,"103.csv","","null","resources/images/coin2.png","null","",NA,NA,NA,NA,""
"image-keyboard-response",552,540116,"0.0-4.180-0.180","6u6st0eedm0ydu5",789,"103.csv","","154.90000009536743","resources/trios/L1T2A2.jpg","39","restless",0.7,0.5,0.4,0.845223440123023,"false"
"image-keyboard-response",553,540528,"0.0-4.180-1.180","6u6st0eedm0ydu5",789,"103.csv","","null","resources/maskTrios/BBA2.jpg","null","",NA,NA,NA,NA,""
"image-keyboard-response",554,541743,"0.0-4.180-2.180","6u6st0eedm0ydu5",789,"103.csv","","null","resources/images/fishbone.png","null","",NA,NA,NA,NA,""
"image-keyboard-response",555,542486,"0.0-4.181-0.181","6u6st0eedm0ydu5",789,"103.csv","","742.4000000953674","resources/trios/L1T2A2.jpg","37","restless",0.7,0.5,0.4,0.0858310489117584,"true"
"image-keyboard-response",556,542893,"0.0-4.181-1.181","6u6st0eedm0ydu5",789,"103.csv","","null","resources/maskTrios/L1BB.jpg","null","",NA,NA,NA,NA,""
"image-keyboard-response",557,544097,"0.0-4.181-2.181","6u6st0eedm0ydu5",789,"103.csv","","null","resources/images/coin2.png","null","",NA,NA,NA,NA,""
"image-keyboard-response",558,544962,"0.0-4.182-0.182","6u6st0eedm0ydu5",789,"103.csv","","863.9000000953674","resources/trios/L1T2A2.jpg","37","restless",0.7,0.5,0.4,0.591359951297034,"true"
"image-keyboard-response",559,545364,"0.0-4.182-1.182","6u6st0eedm0ydu5",789,"103.csv","","null","resources/maskTrios/L1BB.jpg","null","",NA,NA,NA,NA,""
"image-keyboard-response",560,546576,"0.0-4.182-2.182","6u6st0eedm0ydu5",789,"103.csv","","null","resources/images/coin2.png","null","",NA,NA,NA,NA,""
"image-keyboard-response",561,547113,"0.0-4.183-0.183","6u6st0eedm0ydu5",789,"103.csv","","535.6999998092651","resources/trios/L1T2A2.jpg","37","restless",0.7,0.4,0.4,0.084450380813565,"true"
"image-keyboard-response",562,547517,"0.0-4.183-1.183","6u6st0eedm0ydu5",789,"103.csv","","null","resources/maskTrios/L1BB.jpg","null","",NA,NA,NA,NA,""
"image-keyboard-response",563,548732,"0.0-4.183-2.183","6u6st0eedm0ydu5",789,"103.csv","","null","resources/images/coin2.png","null","",NA,NA,NA,NA,""
"image-keyboard-response",564,549421,"0.0-4.184-0.184","6u6st0eedm0ydu5",789,"103.csv","","688.3999996185303","resources/trios/L1T2A2.jpg","37","restless",0.7,0.3,0.4,0.393494101981897,"true"
"image-keyboard-response",565,549831,"0.0-4.184-1.184","6u6st0eedm0ydu5",789,"103.csv","","null","resources/maskTrios/L1BB.jpg","null","",NA,NA,NA,NA,""
"image-keyboard-response",566,551035,"0.0-4.184-2.184","6u6st0eedm0ydu5",789,"103.csv","","null","resources/images/coin2.png","null","",NA,NA,NA,NA,""
"image-keyboard-response",567,551101,"0.0-4.185-0.185","6u6st0eedm0ydu5",789,"103.csv","","64.90000009536743","resources/trios/L1T2A2.jpg","37","restless",0.6,0.3,0.4,0.553771555877244,"true"
"image-keyboard-response",568,551504,"0.0-4.185-1.185","6u6st0eedm0ydu5",789,"103.csv","","null","resources/maskTrios/L1BB.jpg","null","",NA,NA,NA,NA,""
"image-keyboard-response",569,552719,"0.0-4.185-2.185","6u6st0eedm0ydu5",789,"103.csv","","null","resources/images/coin2.png","null","",NA,NA,NA,NA,""
"image-keyboard-response",570,553094,"0.0-4.186-0.186","6u6st0eedm0ydu5",789,"103.csv","","374","resources/trios/L1T2A2.jpg","37","restless",0.6,0.3,0.4,0.0189328682588719,"true"
"image-keyboard-response",571,553504,"0.0-4.186-1.186","6u6st0eedm0ydu5",789,"103.csv","","null","resources/maskTrios/L1BB.jpg","null","",NA,NA,NA,NA,""
"image-keyboard-response",572,554719,"0.0-4.186-2.186","6u6st0eedm0ydu5",789,"103.csv","","null","resources/images/coin2.png","null","",NA,NA,NA,NA,""
"image-keyboard-response",573,556192,"0.0-4.187-0.187","6u6st0eedm0ydu5",789,"103.csv","","1472.7000002861023","resources/trios/L1T2A2.jpg","37","restless",0.6,0.3,0.4,0.973952036176396,"false"
"image-keyboard-response",574,556598,"0.0-4.187-1.187","6u6st0eedm0ydu5",789,"103.csv","","null","resources/maskTrios/L1BB.jpg","null","",NA,NA,NA,NA,""
"image-keyboard-response",575,557810,"0.0-4.187-2.187","6u6st0eedm0ydu5",789,"103.csv","","null","resources/images/fishbone.png","null","",NA,NA,NA,NA,""
"image-keyboard-response",576,559176,"0.0-4.188-0.188","6u6st0eedm0ydu5",789,"103.csv","","1364.5999999046326","resources/trios/L1T2A2.jpg","38","restless",0.6,0.3,0.4,0.37905780980179,"false"
"image-keyboard-response",577,559590,"0.0-4.188-1.188","6u6st0eedm0ydu5",789,"103.csv","","null","resources/maskTrios/BT2B.jpg","null","",NA,NA,NA,NA,""
"image-keyboard-response",578,560803,"0.0-4.188-2.188","6u6st0eedm0ydu5",789,"103.csv","","null","resources/images/fishbone.png","null","",NA,NA,NA,NA,""
"image-keyboard-response",579,561528,"0.0-4.189-0.189","6u6st0eedm0ydu5",789,"103.csv","","724.7999997138977","resources/trios/L1T2A2.jpg","39","restless",0.6,0.3,0.4,0.250723226274288,"true"
"image-keyboard-response",580,561933,"0.0-4.189-1.189","6u6st0eedm0ydu5",789,"103.csv","","null","resources/maskTrios/BBA2.jpg","null","",NA,NA,NA,NA,""
"image-keyboard-response",581,563137,"0.0-4.189-2.189","6u6st0eedm0ydu5",789,"103.csv","","null","resources/images/coin2.png","null","",NA,NA,NA,NA,""
"image-keyboard-response",582,563787,"0.0-4.190-0.190","6u6st0eedm0ydu5",789,"103.csv","","649.1000003814697","resources/trios/L1T2A2.jpg","39","restless",0.6,0.3,0.4,0.194962478093957,"true"
"image-keyboard-response",583,564191,"0.0-4.190-1.190","6u6st0eedm0ydu5",789,"103.csv","","null","resources/maskTrios/BBA2.jpg","null","",NA,NA,NA,NA,""
"image-keyboard-response",584,565406,"0.0-4.190-2.190","6u6st0eedm0ydu5",789,"103.csv","","null","resources/images/coin2.png","null","",NA,NA,NA,NA,""
"image-keyboard-response",585,565710,"0.0-4.191-0.191","6u6st0eedm0ydu5",789,"103.csv","","302.5","resources/trios/L1T2A2.jpg","39","restless",0.6,0.3,0.4,0.28110145338632,"true"
"image-keyboard-response",586,566112,"0.0-4.191-1.191","6u6st0eedm0ydu5",789,"103.csv","","null","resources/maskTrios/BBA2.jpg","null","",NA,NA,NA,NA,""
"image-keyboard-response",587,567317,"0.0-4.191-2.191","6u6st0eedm0ydu5",789,"103.csv","","null","resources/images/coin2.png","null","",NA,NA,NA,NA,""
"image-keyboard-response",588,569186,"0.0-4.192-0.192","6u6st0eedm0ydu5",789,"103.csv","","1868.8000001907349","resources/trios/L1T2A2.jpg","39","restless",0.6,0.3,0.4,0.195964458104052,"true"
"image-keyboard-response",589,569592,"0.0-4.192-1.192","6u6st0eedm0ydu5",789,"103.csv","","null","resources/maskTrios/BBA2.jpg","null","",NA,NA,NA,NA,""
"image-keyboard-response",590,570802,"0.0-4.192-2.192","6u6st0eedm0ydu5",789,"103.csv","","null","resources/images/coin2.png","null","",NA,NA,NA,NA,""
"image-keyboard-response",591,571315,"0.0-4.193-0.193","6u6st0eedm0ydu5",789,"103.csv","","512.4000000953674","resources/trios/L1T2A2.jpg","39","restless",0.6,0.3,0.5,0.582739103711869,"false"
"image-keyboard-response",592,571716,"0.0-4.193-1.193","6u6st0eedm0ydu5",789,"103.csv","","null","resources/maskTrios/BBA2.jpg","null","",NA,NA,NA,NA,""
"image-keyboard-response",593,572924,"0.0-4.193-2.193","6u6st0eedm0ydu5",789,"103.csv","","null","resources/images/fishbone.png","null","",NA,NA,NA,NA,""
"image-keyboard-response",594,573103,"0.0-4.194-0.194","6u6st0eedm0ydu5",789,"103.csv","","178.7999997138977","resources/trios/L1T2A2.jpg","38","restless",0.6,0.3,0.5,0.538747681767495,"false"
"image-keyboard-response",595,573517,"0.0-4.194-1.194","6u6st0eedm0ydu5",789,"103.csv","","null","resources/maskTrios/BT2B.jpg","null","",NA,NA,NA,NA,""
"image-keyboard-response",596,574719,"0.0-4.194-2.194","6u6st0eedm0ydu5",789,"103.csv","","null","resources/images/fishbone.png","null","",NA,NA,NA,NA,""
"image-keyboard-response",597,575057,"0.0-4.195-0.195","6u6st0eedm0ydu5",789,"103.csv","","337.5","resources/trios/L1T2A2.jpg","37","restless",0.6,0.3,0.5,0.399098648665764,"true"
"image-keyboard-response",598,575459,"0.0-4.195-1.195","6u6st0eedm0ydu5",789,"103.csv","","null","resources/maskTrios/L1BB.jpg","null","",NA,NA,NA,NA,""
"image-keyboard-response",599,576667,"0.0-4.195-2.195","6u6st0eedm0ydu5",789,"103.csv","","null","resources/images/coin2.png","null","",NA,NA,NA,NA,""
"image-keyboard-response",600,576753,"0.0-4.196-0.196","6u6st0eedm0ydu5",789,"103.csv","","84.7000002861023","resources/trios/L1T2A2.jpg","38","restless",0.6,0.3,0.5,0.818549802667538,"false"
"image-keyboard-response",601,577166,"0.0-4.196-1.196","6u6st0eedm0ydu5",789,"103.csv","","null","resources/maskTrios/BT2B.jpg","null","",NA,NA,NA,NA,""
"image-keyboard-response",602,578380,"0.0-4.196-2.196","6u6st0eedm0ydu5",789,"103.csv","","null","resources/images/fishbone.png","null","",NA,NA,NA,NA,""
"image-keyboard-response",603,578722,"0.0-4.197-0.197","6u6st0eedm0ydu5",789,"103.csv","","341.2999997138977","resources/trios/L1T2A2.jpg","37","restless",0.6,0.3,0.5,0.0756421934650731,"true"
"image-keyboard-response",604,579135,"0.0-4.197-1.197","6u6st0eedm0ydu5",789,"103.csv","","null","resources/maskTrios/L1BB.jpg","null","",NA,NA,NA,NA,""
"image-keyboard-response",605,580346,"0.0-4.197-2.197","6u6st0eedm0ydu5",789,"103.csv","","null","resources/images/coin2.png","null","",NA,NA,NA,NA,""
"image-keyboard-response",606,580879,"0.0-4.198-0.198","6u6st0eedm0ydu5",789,"103.csv","","532.1999998092651","resources/trios/L1T2A2.jpg","37","restless",0.6,0.3,0.5,0.486603249316541,"true"
"image-keyboard-response",607,581294,"0.0-4.198-1.198","6u6st0eedm0ydu5",789,"103.csv","","null","resources/maskTrios/L1BB.jpg","null","",NA,NA,NA,NA,""
