"trial_type","trial_index","time_elapsed","internal_node_id","subject","participantCode","walkNumber","success","rt","stimulus","key_press","test_part","leftProb","midProb","rightProb","generatedNum","correct"
"pavlovia",0,708,"0.0-0.0","h6cbb825pj0rggx",961,"116.csv","","","","","",NA,NA,NA,NA,""
"fullscreen",1,5972,"0.0-1.0","h6cbb825pj0rggx",961,"116.csv","true","","","","",NA,NA,NA,NA,""
"survey-html-form",2,13580,"0.0-2.0","h6cbb825pj0rggx",961,"116.csv","","7603.599999997765","","","",NA,NA,NA,NA,""
"image-keyboard-response",3,18545,"0.0-3.0-0.0","h6cbb825pj0rggx",961,"116.csv","","4961.29999999702","resources/images/parrot_nobg.png","13","",NA,NA,NA,NA,""
"image-keyboard-response",4,21550,"0.0-3.0-1.0","h6cbb825pj0rggx",961,"116.csv","","null","resources/image_sets/111.png","null","",NA,NA,NA,NA,""
"image-keyboard-response",5,26506,"0.0-3.0-2.0","h6cbb825pj0rggx",961,"116.csv","","4953.60000000149","resources/image_sets/left_highlight.png","37","",NA,NA,NA,NA,""
"image-keyboard-response",6,28254,"0.0-3.0-3.0","h6cbb825pj0rggx",961,"116.csv","","1746.800000000745","resources/image_sets/mid_highlight.png","38","",NA,NA,NA,NA,""
"image-keyboard-response",7,29568,"0.0-3.0-4.0","h6cbb825pj0rggx",961,"116.csv","","1311.6000000014901","resources/image_sets/right_highlight.png","39","",NA,NA,NA,NA,""
"image-keyboard-response",8,31904,"0.0-3.0-5.0","h6cbb825pj0rggx",961,"116.csv","","2333.7000000029802","resources/image_sets/111.png","13","",NA,NA,NA,NA,""
"image-keyboard-response",9,33374,"0.0-3.0-6.0","h6cbb825pj0rggx",961,"116.csv","","1469.5","resources/images/coin2.png","13","",NA,NA,NA,NA,""
"image-keyboard-response",10,34860,"0.0-3.0-7.0","h6cbb825pj0rggx",961,"116.csv","","1485","resources/images/fishbone.png","13","",NA,NA,NA,NA,""
"html-keyboard-response",11,37820,"0.0-3.0-8.0","h6cbb825pj0rggx",961,"116.csv","","2958.400000002235","<p>You can track your coin total on the top right of your screen. </p><p>At the end of your journey you will be directed to a survey, so please click on the link before exiting the task</p><p>Press Enter to begin</p>","13","",NA,NA,NA,NA,""
"image-keyboard-response",12,40813,"0.0-4.0-0.0","h6cbb825pj0rggx",961,"116.csv","","2991.5","resources/trios/L4T4A2.jpg","38","restless",0.3,0.7,0.9,0.490028612840605,"true"
"image-keyboard-response",13,41219,"0.0-4.0-1.0","h6cbb825pj0rggx",961,"116.csv","","null","resources/maskTrios/BT4B.jpg","null","",NA,NA,NA,NA,""
"image-keyboard-response",14,42425,"0.0-4.0-2.0","h6cbb825pj0rggx",961,"116.csv","","null","resources/images/coin2.png","null","",NA,NA,NA,NA,""
"image-keyboard-response",15,44191,"0.0-4.1-0.1","h6cbb825pj0rggx",961,"116.csv","","1762.5","resources/trios/L4T4A2.jpg","37","restless",0.3,0.7,0.9,0.0997035633697207,"true"
"image-keyboard-response",16,44594,"0.0-4.1-1.1","h6cbb825pj0rggx",961,"116.csv","","null","resources/maskTrios/L4BB.jpg","null","",NA,NA,NA,NA,""
"image-keyboard-response",17,45798,"0.0-4.1-2.1","h6cbb825pj0rggx",961,"116.csv","","null","resources/images/coin2.png","null","",NA,NA,NA,NA,""
"image-keyboard-response",18,47598,"0.0-4.2-0.2","h6cbb825pj0rggx",961,"116.csv","","1796.800000000745","resources/trios/L4T4A2.jpg","39","restless",0.3,0.7,0.9,0.622805371107839,"true"
"image-keyboard-response",19,48001,"0.0-4.2-1.2","h6cbb825pj0rggx",961,"116.csv","","null","resources/maskTrios/BBA2.jpg","null","",NA,NA,NA,NA,""
"image-keyboard-response",20,49204,"0.0-4.2-2.2","h6cbb825pj0rggx",961,"116.csv","","null","resources/images/coin2.png","null","",NA,NA,NA,NA,""
"image-keyboard-response",21,50337,"0.0-4.3-0.3","h6cbb825pj0rggx",961,"116.csv","","1130.9000000022352","resources/trios/L4T4A2.jpg","39","restless",0.3,0.7,0.8,0.848976439296993,"false"
"image-keyboard-response",22,50740,"0.0-4.3-1.3","h6cbb825pj0rggx",961,"116.csv","","null","resources/maskTrios/BBA2.jpg","null","",NA,NA,NA,NA,""
"image-keyboard-response",23,51943,"0.0-4.3-2.3","h6cbb825pj0rggx",961,"116.csv","","null","resources/images/fishbone.png","null","",NA,NA,NA,NA,""
"image-keyboard-response",24,53873,"0.0-4.4-0.4","h6cbb825pj0rggx",961,"116.csv","","1928.300000000745","resources/trios/L4T4A2.jpg","39","restless",0.3,0.7,0.8,0.580523751861277,"true"
"image-keyboard-response",25,54277,"0.0-4.4-1.4","h6cbb825pj0rggx",961,"116.csv","","null","resources/maskTrios/BBA2.jpg","null","",NA,NA,NA,NA,""
"image-keyboard-response",26,55481,"0.0-4.4-2.4","h6cbb825pj0rggx",961,"116.csv","","null","resources/images/coin2.png","null","",NA,NA,NA,NA,""
"image-keyboard-response",27,56724,"0.0-4.5-0.5","h6cbb825pj0rggx",961,"116.csv","","1240.6000000014901","resources/trios/L4T4A2.jpg","37","restless",0.3,0.7,0.8,0.387778095883363,"false"
"image-keyboard-response",28,57128,"0.0-4.5-1.5","h6cbb825pj0rggx",961,"116.csv","","null","resources/maskTrios/L4BB.jpg","null","",NA,NA,NA,NA,""
"image-keyboard-response",29,58330,"0.0-4.5-2.5","h6cbb825pj0rggx",961,"116.csv","","null","resources/images/fishbone.png","null","",NA,NA,NA,NA,""
"image-keyboard-response",30,58808,"0.0-4.6-0.6","h6cbb825pj0rggx",961,"116.csv","","475.80000000074506","resources/trios/L4T4A2.jpg","38","restless",0.3,0.7,0.8,0.573913037731163,"true"
"image-keyboard-response",31,59212,"0.0-4.6-1.6","h6cbb825pj0rggx",961,"116.csv","","null","resources/maskTrios/BT4B.jpg","null","",NA,NA,NA,NA,""
"image-keyboard-response",32,60416,"0.0-4.6-2.6","h6cbb825pj0rggx",961,"116.csv","","null","resources/images/coin2.png","null","",NA,NA,NA,NA,""
"image-keyboard-response",33,61220,"0.0-4.7-0.7","h6cbb825pj0rggx",961,"116.csv","","801.6000000014901","resources/trios/L4T4A2.jpg","37","restless",0.3,0.8,0.7,0.542793488058779,"false"
"image-keyboard-response",34,61623,"0.0-4.7-1.7","h6cbb825pj0rggx",961,"116.csv","","null","resources/maskTrios/L4BB.jpg","null","",NA,NA,NA,NA,""
"image-keyboard-response",35,62838,"0.0-4.7-2.7","h6cbb825pj0rggx",961,"116.csv","","null","resources/images/fishbone.png","null","",NA,NA,NA,NA,""
"image-keyboard-response",36,63334,"0.0-4.8-0.8","h6cbb825pj0rggx",961,"116.csv","","493.9000000022352","resources/trios/L4T4A2.jpg","38","restless",0.3,0.8,0.7,0.00139226583977048,"true"
"image-keyboard-response",37,63737,"0.0-4.8-1.8","h6cbb825pj0rggx",961,"116.csv","","null","resources/maskTrios/BT4B.jpg","null","",NA,NA,NA,NA,""
"image-keyboard-response",38,64941,"0.0-4.8-2.8","h6cbb825pj0rggx",961,"116.csv","","null","resources/images/coin2.png","null","",NA,NA,NA,NA,""
"image-keyboard-response",39,66475,"0.0-4.9-0.9","h6cbb825pj0rggx",961,"116.csv","","1532.2000000029802","resources/trios/L4T4A2.jpg","39","restless",0.3,0.8,0.6,0.625341463195591,"false"
"image-keyboard-response",40,66883,"0.0-4.9-1.9","h6cbb825pj0rggx",961,"116.csv","","null","resources/maskTrios/BBA2.jpg","null","",NA,NA,NA,NA,""
"image-keyboard-response",41,68085,"0.0-4.9-2.9","h6cbb825pj0rggx",961,"116.csv","","null","resources/images/fishbone.png","null","",NA,NA,NA,NA,""
"image-keyboard-response",42,68651,"0.0-4.10-0.10","h6cbb825pj0rggx",961,"116.csv","","564.1999999992549","resources/trios/L4T4A2.jpg","38","restless",0.3,0.8,0.6,0.794734144732099,"true"
"image-keyboard-response",43,69055,"0.0-4.10-1.10","h6cbb825pj0rggx",961,"116.csv","","null","resources/maskTrios/BT4B.jpg","null","",NA,NA,NA,NA,""
"image-keyboard-response",44,70258,"0.0-4.10-2.10","h6cbb825pj0rggx",961,"116.csv","","null","resources/images/coin2.png","null","",NA,NA,NA,NA,""
"image-keyboard-response",45,70737,"0.0-4.11-0.11","h6cbb825pj0rggx",961,"116.csv","","476.19999999925494","resources/trios/L4T4A2.jpg","38","restless",0.3,0.8,0.6,0.276972801754058,"true"
"image-keyboard-response",46,71140,"0.0-4.11-1.11","h6cbb825pj0rggx",961,"116.csv","","null","resources/maskTrios/BT4B.jpg","null","",NA,NA,NA,NA,""
"image-keyboard-response",47,72344,"0.0-4.11-2.11","h6cbb825pj0rggx",961,"116.csv","","null","resources/images/coin2.png","null","",NA,NA,NA,NA,""
"image-keyboard-response",48,72803,"0.0-4.12-0.12","h6cbb825pj0rggx",961,"116.csv","","457.3999999985099","resources/trios/L4T4A2.jpg","37","restless",0.3,0.9,0.6,0.858732482645645,"false"
"image-keyboard-response",49,73206,"0.0-4.12-1.12","h6cbb825pj0rggx",961,"116.csv","","null","resources/maskTrios/L4BB.jpg","null","",NA,NA,NA,NA,""
"image-keyboard-response",50,74409,"0.0-4.12-2.12","h6cbb825pj0rggx",961,"116.csv","","null","resources/images/fishbone.png","null","",NA,NA,NA,NA,""
"image-keyboard-response",51,74753,"0.0-4.13-0.13","h6cbb825pj0rggx",961,"116.csv","","341.69999999925494","resources/trios/L4T4A2.jpg","38","restless",0.3,0.9,0.6,0.945574052294407,"false"
"image-keyboard-response",52,75156,"0.0-4.13-1.13","h6cbb825pj0rggx",961,"116.csv","","null","resources/maskTrios/BT4B.jpg","null","",NA,NA,NA,NA,""
"image-keyboard-response",53,76359,"0.0-4.13-2.13","h6cbb825pj0rggx",961,"116.csv","","null","resources/images/fishbone.png","null","",NA,NA,NA,NA,""
"image-keyboard-response",54,76803,"0.0-4.14-0.14","h6cbb825pj0rggx",961,"116.csv","","442.8999999985099","resources/trios/L4T4A2.jpg","38","restless",0.3,0.9,0.6,0.765450653494702,"true"
"image-keyboard-response",55,77207,"0.0-4.14-1.14","h6cbb825pj0rggx",961,"116.csv","","null","resources/maskTrios/BT4B.jpg","null","",NA,NA,NA,NA,""
"image-keyboard-response",56,78411,"0.0-4.14-2.14","h6cbb825pj0rggx",961,"116.csv","","null","resources/images/coin2.png","null","",NA,NA,NA,NA,""
"image-keyboard-response",57,79003,"0.0-4.15-0.15","h6cbb825pj0rggx",961,"116.csv","","590","resources/trios/L4T4A2.jpg","37","restless",0.3,0.9,0.6,0.942935938410709,"false"
"image-keyboard-response",58,79406,"0.0-4.15-1.15","h6cbb825pj0rggx",961,"116.csv","","null","resources/maskTrios/L4BB.jpg","null","",NA,NA,NA,NA,""
"image-keyboard-response",59,80608,"0.0-4.15-2.15","h6cbb825pj0rggx",961,"116.csv","","null","resources/images/fishbone.png","null","",NA,NA,NA,NA,""
"image-keyboard-response",60,80974,"0.0-4.16-0.16","h6cbb825pj0rggx",961,"116.csv","","364","resources/trios/L4T4A2.jpg","39","restless",0.3,0.9,0.6,0.0033872908394823,"true"
"image-keyboard-response",61,81388,"0.0-4.16-1.16","h6cbb825pj0rggx",961,"116.csv","","null","resources/maskTrios/BBA2.jpg","null","",NA,NA,NA,NA,""
"image-keyboard-response",62,82591,"0.0-4.16-2.16","h6cbb825pj0rggx",961,"116.csv","","null","resources/images/coin2.png","null","",NA,NA,NA,NA,""
"image-keyboard-response",63,82996,"0.0-4.17-0.17","h6cbb825pj0rggx",961,"116.csv","","403.1000000014901","resources/trios/L4T4A2.jpg","39","restless",0.4,0.9,0.6,0.45306748849009,"true"
"image-keyboard-response",64,83400,"0.0-4.17-1.17","h6cbb825pj0rggx",961,"116.csv","","null","resources/maskTrios/BBA2.jpg","null","",NA,NA,NA,NA,""
"image-keyboard-response",65,84602,"0.0-4.17-2.17","h6cbb825pj0rggx",961,"116.csv","","null","resources/images/coin2.png","null","",NA,NA,NA,NA,""
"image-keyboard-response",66,84895,"0.0-4.18-0.18","h6cbb825pj0rggx",961,"116.csv","","290.5999999977648","resources/trios/L4T4A2.jpg","38","restless",0.4,0.9,0.6,0.942712630090592,"false"
"image-keyboard-response",67,85298,"0.0-4.18-1.18","h6cbb825pj0rggx",961,"116.csv","","null","resources/maskTrios/BT4B.jpg","null","",NA,NA,NA,NA,""
"image-keyboard-response",68,86499,"0.0-4.18-2.18","h6cbb825pj0rggx",961,"116.csv","","null","resources/images/fishbone.png","null","",NA,NA,NA,NA,""
"image-keyboard-response",69,86881,"0.0-4.19-0.19","h6cbb825pj0rggx",961,"116.csv","","379.1000000014901","resources/trios/L4T4A2.jpg","39","restless",0.4,0.9,0.6,0.692487958018531,"false"
"image-keyboard-response",70,87284,"0.0-4.19-1.19","h6cbb825pj0rggx",961,"116.csv","","null","resources/maskTrios/BBA2.jpg","null","",NA,NA,NA,NA,""
"image-keyboard-response",71,88487,"0.0-4.19-2.19","h6cbb825pj0rggx",961,"116.csv","","null","resources/images/fishbone.png","null","",NA,NA,NA,NA,""
"image-keyboard-response",72,88898,"0.0-4.20-0.20","h6cbb825pj0rggx",961,"116.csv","","407.8999999985099","resources/trios/L4T4A2.jpg","37","restless",0.4,0.9,0.6,0.862931321896251,"false"
"image-keyboard-response",73,89301,"0.0-4.20-1.20","h6cbb825pj0rggx",961,"116.csv","","null","resources/maskTrios/L4BB.jpg","null","",NA,NA,NA,NA,""
"image-keyboard-response",74,90503,"0.0-4.20-2.20","h6cbb825pj0rggx",961,"116.csv","","null","resources/images/fishbone.png","null","",NA,NA,NA,NA,""
"image-keyboard-response",75,90820,"0.0-4.21-0.21","h6cbb825pj0rggx",961,"116.csv","","314.0999999977648","resources/trios/L4T4A2.jpg","38","restless",0.4,0.9,0.6,0.957076826782717,"false"
"image-keyboard-response",76,91223,"0.0-4.21-1.21","h6cbb825pj0rggx",961,"116.csv","","null","resources/maskTrios/BT4B.jpg","null","",NA,NA,NA,NA,""
"image-keyboard-response",77,92425,"0.0-4.21-2.21","h6cbb825pj0rggx",961,"116.csv","","null","resources/images/fishbone.png","null","",NA,NA,NA,NA,""
"image-keyboard-response",78,92776,"0.0-4.22-0.22","h6cbb825pj0rggx",961,"116.csv","","349","resources/trios/L4T4A2.jpg","37","restless",0.4,0.9,0.5,0.93101098963729,"false"
"image-keyboard-response",79,93179,"0.0-4.22-1.22","h6cbb825pj0rggx",961,"116.csv","","null","resources/maskTrios/L4BB.jpg","null","",NA,NA,NA,NA,""
"image-keyboard-response",80,94381,"0.0-4.22-2.22","h6cbb825pj0rggx",961,"116.csv","","null","resources/images/fishbone.png","null","",NA,NA,NA,NA,""
"image-keyboard-response",81,94759,"0.0-4.23-0.23","h6cbb825pj0rggx",961,"116.csv","","376.30000000074506","resources/trios/L4T4A2.jpg","39","restless",0.4,0.9,0.5,0.0762971076216579,"true"
"image-keyboard-response",82,95163,"0.0-4.23-1.23","h6cbb825pj0rggx",961,"116.csv","","null","resources/maskTrios/BBA2.jpg","null","",NA,NA,NA,NA,""
"image-keyboard-response",83,96366,"0.0-4.23-2.23","h6cbb825pj0rggx",961,"116.csv","","null","resources/images/coin2.png","null","",NA,NA,NA,NA,""
"image-keyboard-response",84,97906,"0.0-4.24-0.24","h6cbb825pj0rggx",961,"116.csv","","1537.8999999985099","resources/trios/L4T4A2.jpg","38","restless",0.4,0.9,0.5,0.287831249453086,"true"
"image-keyboard-response",85,98308,"0.0-4.24-1.24","h6cbb825pj0rggx",961,"116.csv","","null","resources/maskTrios/BT4B.jpg","null","",NA,NA,NA,NA,""
"image-keyboard-response",86,99511,"0.0-4.24-2.24","h6cbb825pj0rggx",961,"116.csv","","null","resources/images/coin2.png","null","",NA,NA,NA,NA,""
"image-keyboard-response",87,101094,"0.0-4.25-0.25","h6cbb825pj0rggx",961,"116.csv","","1581.2999999970198","resources/trios/L4T4A2.jpg","37","restless",0.4,0.9,0.5,0.214322041404572,"true"
"image-keyboard-response",88,101498,"0.0-4.25-1.25","h6cbb825pj0rggx",961,"116.csv","","null","resources/maskTrios/L4BB.jpg","null","",NA,NA,NA,NA,""
"image-keyboard-response",89,102701,"0.0-4.25-2.25","h6cbb825pj0rggx",961,"116.csv","","null","resources/images/coin2.png","null","",NA,NA,NA,NA,""
"image-keyboard-response",90,104795,"0.0-4.26-0.26","h6cbb825pj0rggx",961,"116.csv","","2090.900000002235","resources/trios/L4T4A2.jpg","38","restless",0.4,0.9,0.5,0.236639927002928,"true"
"image-keyboard-response",91,105197,"0.0-4.26-1.26","h6cbb825pj0rggx",961,"116.csv","","null","resources/maskTrios/BT4B.jpg","null","",NA,NA,NA,NA,""
"image-keyboard-response",92,106401,"0.0-4.26-2.26","h6cbb825pj0rggx",961,"116.csv","","null","resources/images/coin2.png","null","",NA,NA,NA,NA,""
"image-keyboard-response",93,107982,"0.0-4.27-0.27","h6cbb825pj0rggx",961,"116.csv","","1579.1000000014901","resources/trios/L4T4A2.jpg","37","restless",0.4,0.9,0.5,0.994947996052849,"false"
"image-keyboard-response",94,108384,"0.0-4.27-1.27","h6cbb825pj0rggx",961,"116.csv","","null","resources/maskTrios/L4BB.jpg","null","",NA,NA,NA,NA,""
"image-keyboard-response",95,109587,"0.0-4.27-2.27","h6cbb825pj0rggx",961,"116.csv","","null","resources/images/fishbone.png","null","",NA,NA,NA,NA,""
"image-keyboard-response",96,110621,"0.0-4.28-0.28","h6cbb825pj0rggx",961,"116.csv","","1031.8999999985099","resources/trios/L4T4A2.jpg","39","restless",0.4,0.9,0.5,0.713405045603987,"false"
"image-keyboard-response",97,111026,"0.0-4.28-1.28","h6cbb825pj0rggx",961,"116.csv","","null","resources/maskTrios/BBA2.jpg","null","",NA,NA,NA,NA,""
"image-keyboard-response",98,112229,"0.0-4.28-2.28","h6cbb825pj0rggx",961,"116.csv","","null","resources/images/fishbone.png","null","",NA,NA,NA,NA,""
"image-keyboard-response",99,112576,"0.0-4.29-0.29","h6cbb825pj0rggx",961,"116.csv","","343.9000000022352","resources/trios/L4T4A2.jpg","38","restless",0.4,0.9,0.5,0.356338591360773,"true"
"image-keyboard-response",100,112978,"0.0-4.29-1.29","h6cbb825pj0rggx",961,"116.csv","","null","resources/maskTrios/BT4B.jpg","null","",NA,NA,NA,NA,""
"image-keyboard-response",101,114181,"0.0-4.29-2.29","h6cbb825pj0rggx",961,"116.csv","","null","resources/images/coin2.png","null","",NA,NA,NA,NA,""
"image-keyboard-response",102,114603,"0.0-4.30-0.30","h6cbb825pj0rggx",961,"116.csv","","419.4000000022352","resources/trios/L4T4A2.jpg","38","restless",0.4,0.9,0.5,0.800250728094925,"true"
"image-keyboard-response",103,115006,"0.0-4.30-1.30","h6cbb825pj0rggx",961,"116.csv","","null","resources/maskTrios/BT4B.jpg","null","",NA,NA,NA,NA,""
"image-keyboard-response",104,116208,"0.0-4.30-2.30","h6cbb825pj0rggx",961,"116.csv","","null","resources/images/coin2.png","null","",NA,NA,NA,NA,""
"image-keyboard-response",105,116821,"0.0-4.31-0.31","h6cbb825pj0rggx",961,"116.csv","","610.2999999970198","resources/trios/L4T4A2.jpg","39","restless",0.4,0.9,0.5,0.67836001283859,"false"
"image-keyboard-response",106,117224,"0.0-4.31-1.31","h6cbb825pj0rggx",961,"116.csv","","null","resources/maskTrios/BBA2.jpg","null","",NA,NA,NA,NA,""
"image-keyboard-response",107,118426,"0.0-4.31-2.31","h6cbb825pj0rggx",961,"116.csv","","null","resources/images/fishbone.png","null","",NA,NA,NA,NA,""
"image-keyboard-response",108,119137,"0.0-4.32-0.32","h6cbb825pj0rggx",961,"116.csv","","708.8000000007451","resources/trios/L4T4A2.jpg","38","restless",0.4,0.8,0.5,0.645641901861312,"true"
"image-keyboard-response",109,119541,"0.0-4.32-1.32","h6cbb825pj0rggx",961,"116.csv","","null","resources/maskTrios/BT4B.jpg","null","",NA,NA,NA,NA,""
"image-keyboard-response",110,120745,"0.0-4.32-2.32","h6cbb825pj0rggx",961,"116.csv","","null","resources/images/coin2.png","null","",NA,NA,NA,NA,""
"image-keyboard-response",111,121423,"0.0-4.33-0.33","h6cbb825pj0rggx",961,"116.csv","","675.7999999970198","resources/trios/L4T4A2.jpg","39","restless",0.4,0.8,0.5,0.903842432650439,"false"
"image-keyboard-response",112,121827,"0.0-4.33-1.33","h6cbb825pj0rggx",961,"116.csv","","null","resources/maskTrios/BBA2.jpg","null","",NA,NA,NA,NA,""
"image-keyboard-response",113,123030,"0.0-4.33-2.33","h6cbb825pj0rggx",961,"116.csv","","null","resources/images/fishbone.png","null","",NA,NA,NA,NA,""
"image-keyboard-response",114,123366,"0.0-4.34-0.34","h6cbb825pj0rggx",961,"116.csv","","334.0999999977648","resources/trios/L4T4A2.jpg","37","restless",0.4,0.8,0.5,0.949782215126467,"false"
"image-keyboard-response",115,123769,"0.0-4.34-1.34","h6cbb825pj0rggx",961,"116.csv","","null","resources/maskTrios/L4BB.jpg","null","",NA,NA,NA,NA,""
"image-keyboard-response",116,124972,"0.0-4.34-2.34","h6cbb825pj0rggx",961,"116.csv","","null","resources/images/fishbone.png","null","",NA,NA,NA,NA,""
"image-keyboard-response",117,125228,"0.0-4.35-0.35","h6cbb825pj0rggx",961,"116.csv","","253.90000000223517","resources/trios/L4T4A2.jpg","38","restless",0.3,0.8,0.5,0.748749739507656,"true"
"image-keyboard-response",118,125632,"0.0-4.35-1.35","h6cbb825pj0rggx",961,"116.csv","","null","resources/maskTrios/BT4B.jpg","null","",NA,NA,NA,NA,""
"image-keyboard-response",119,126835,"0.0-4.35-2.35","h6cbb825pj0rggx",961,"116.csv","","null","resources/images/coin2.png","null","",NA,NA,NA,NA,""
"image-keyboard-response",120,127207,"0.0-4.36-0.36","h6cbb825pj0rggx",961,"116.csv","","370.5","resources/trios/L4T4A2.jpg","38","restless",0.3,0.8,0.5,0.68885899931527,"true"
"image-keyboard-response",121,127611,"0.0-4.36-1.36","h6cbb825pj0rggx",961,"116.csv","","null","resources/maskTrios/BT4B.jpg","null","",NA,NA,NA,NA,""
"image-keyboard-response",122,128814,"0.0-4.36-2.36","h6cbb825pj0rggx",961,"116.csv","","null","resources/images/coin2.png","null","",NA,NA,NA,NA,""
"image-keyboard-response",123,129175,"0.0-4.37-0.37","h6cbb825pj0rggx",961,"116.csv","","358.5","resources/trios/L4T4A2.jpg","38","restless",0.3,0.7,0.5,0.870720833346803,"false"
"image-keyboard-response",124,129579,"0.0-4.37-1.37","h6cbb825pj0rggx",961,"116.csv","","null","resources/maskTrios/BT4B.jpg","null","",NA,NA,NA,NA,""
"image-keyboard-response",125,130781,"0.0-4.37-2.37","h6cbb825pj0rggx",961,"116.csv","","null","resources/images/fishbone.png","null","",NA,NA,NA,NA,""
"image-keyboard-response",126,131104,"0.0-4.38-0.38","h6cbb825pj0rggx",961,"116.csv","","321.3999999985099","resources/trios/L4T4A2.jpg","37","restless",0.3,0.7,0.5,0.748272439121804,"false"
"image-keyboard-response",127,131508,"0.0-4.38-1.38","h6cbb825pj0rggx",961,"116.csv","","null","resources/maskTrios/L4BB.jpg","null","",NA,NA,NA,NA,""
"image-keyboard-response",128,132711,"0.0-4.38-2.38","h6cbb825pj0rggx",961,"116.csv","","null","resources/images/fishbone.png","null","",NA,NA,NA,NA,""
"image-keyboard-response",129,133140,"0.0-4.39-0.39","h6cbb825pj0rggx",961,"116.csv","","427.30000000074506","resources/trios/L4T4A2.jpg","37","restless",0.3,0.7,0.5,0.88501139607549,"false"
"image-keyboard-response",130,133544,"0.0-4.39-1.39","h6cbb825pj0rggx",961,"116.csv","","null","resources/maskTrios/L4BB.jpg","null","",NA,NA,NA,NA,""
"image-keyboard-response",131,134746,"0.0-4.39-2.39","h6cbb825pj0rggx",961,"116.csv","","null","resources/images/fishbone.png","null","",NA,NA,NA,NA,""
"image-keyboard-response",132,135114,"0.0-4.40-0.40","h6cbb825pj0rggx",961,"116.csv","","365.4000000022352","resources/trios/L4T4A2.jpg","39","restless",0.3,0.7,0.5,0.16876722672264,"true"
"image-keyboard-response",133,135518,"0.0-4.40-1.40","h6cbb825pj0rggx",961,"116.csv","","null","resources/maskTrios/BBA2.jpg","null","",NA,NA,NA,NA,""
"image-keyboard-response",134,136720,"0.0-4.40-2.40","h6cbb825pj0rggx",961,"116.csv","","null","resources/images/coin2.png","null","",NA,NA,NA,NA,""
"image-keyboard-response",135,137066,"0.0-4.41-0.41","h6cbb825pj0rggx",961,"116.csv","","343.30000000074506","resources/trios/L4T4A2.jpg","39","restless",0.4,0.6,0.5,0.732419965039302,"false"
"image-keyboard-response",136,137469,"0.0-4.41-1.41","h6cbb825pj0rggx",961,"116.csv","","null","resources/maskTrios/BBA2.jpg","null","",NA,NA,NA,NA,""
"image-keyboard-response",137,138671,"0.0-4.41-2.41","h6cbb825pj0rggx",961,"116.csv","","null","resources/images/fishbone.png","null","",NA,NA,NA,NA,""
"image-keyboard-response",138,138990,"0.0-4.42-0.42","h6cbb825pj0rggx",961,"116.csv","","316.19999999925494","resources/trios/L4T4A2.jpg","38","restless",0.4,0.6,0.5,0.29766587166053,"true"
"image-keyboard-response",139,139393,"0.0-4.42-1.42","h6cbb825pj0rggx",961,"116.csv","","null","resources/maskTrios/BT4B.jpg","null","",NA,NA,NA,NA,""
"image-keyboard-response",140,140597,"0.0-4.42-2.42","h6cbb825pj0rggx",961,"116.csv","","null","resources/images/coin2.png","null","",NA,NA,NA,NA,""
"image-keyboard-response",141,140971,"0.0-4.43-0.43","h6cbb825pj0rggx",961,"116.csv","","372.1000000014901","resources/trios/L4T4A2.jpg","39","restless",0.4,0.6,0.4,0.560631305327428,"false"
"image-keyboard-response",142,141374,"0.0-4.43-1.43","h6cbb825pj0rggx",961,"116.csv","","null","resources/maskTrios/BBA2.jpg","null","",NA,NA,NA,NA,""
"image-keyboard-response",143,142577,"0.0-4.43-2.43","h6cbb825pj0rggx",961,"116.csv","","null","resources/images/fishbone.png","null","",NA,NA,NA,NA,""
"image-keyboard-response",144,142906,"0.0-4.44-0.44","h6cbb825pj0rggx",961,"116.csv","","326.6000000014901","resources/trios/L4T4A2.jpg","37","restless",0.4,0.6,0.4,0.534550565860609,"false"
"image-keyboard-response",145,143318,"0.0-4.44-1.44","h6cbb825pj0rggx",961,"116.csv","","null","resources/maskTrios/L4BB.jpg","null","",NA,NA,NA,NA,""
"image-keyboard-response",146,144520,"0.0-4.44-2.44","h6cbb825pj0rggx",961,"116.csv","","null","resources/images/fishbone.png","null","",NA,NA,NA,NA,""
"image-keyboard-response",147,144788,"0.0-4.45-0.45","h6cbb825pj0rggx",961,"116.csv","","266.3999999985099","resources/trios/L4T4A2.jpg","38","restless",0.4,0.6,0.3,0.563797769565841,"true"
"image-keyboard-response",148,145202,"0.0-4.45-1.45","h6cbb825pj0rggx",961,"116.csv","","null","resources/maskTrios/BT4B.jpg","null","",NA,NA,NA,NA,""
"image-keyboard-response",149,146406,"0.0-4.45-2.45","h6cbb825pj0rggx",961,"116.csv","","null","resources/images/coin2.png","null","",NA,NA,NA,NA,""
"image-keyboard-response",150,146697,"0.0-4.46-0.46","h6cbb825pj0rggx",961,"116.csv","","289.0999999977648","resources/trios/L4T4A2.jpg","38","restless",0.4,0.6,0.3,0.452763028296267,"true"
"image-keyboard-response",151,147100,"0.0-4.46-1.46","h6cbb825pj0rggx",961,"116.csv","","null","resources/maskTrios/BT4B.jpg","null","",NA,NA,NA,NA,""
"image-keyboard-response",152,148303,"0.0-4.46-2.46","h6cbb825pj0rggx",961,"116.csv","","null","resources/images/coin2.png","null","",NA,NA,NA,NA,""
"image-keyboard-response",153,148633,"0.0-4.47-0.47","h6cbb825pj0rggx",961,"116.csv","","327.80000000074506","resources/trios/L4T4A2.jpg","38","restless",0.4,0.5,0.3,0.653459758357527,"false"
"image-keyboard-response",154,149036,"0.0-4.47-1.47","h6cbb825pj0rggx",961,"116.csv","","null","resources/maskTrios/BT4B.jpg","null","",NA,NA,NA,NA,""
"image-keyboard-response",155,150238,"0.0-4.47-2.47","h6cbb825pj0rggx",961,"116.csv","","null","resources/images/fishbone.png","null","",NA,NA,NA,NA,""
"image-keyboard-response",156,150554,"0.0-4.48-0.48","h6cbb825pj0rggx",961,"116.csv","","314","resources/trios/L4T4A2.jpg","37","restless",0.4,0.5,0.3,0.515969598250017,"false"
"image-keyboard-response",157,150957,"0.0-4.48-1.48","h6cbb825pj0rggx",961,"116.csv","","null","resources/maskTrios/L4BB.jpg","null","",NA,NA,NA,NA,""
"image-keyboard-response",158,152160,"0.0-4.48-2.48","h6cbb825pj0rggx",961,"116.csv","","null","resources/images/fishbone.png","null","",NA,NA,NA,NA,""
"image-keyboard-response",159,152394,"0.0-4.49-0.49","h6cbb825pj0rggx",961,"116.csv","","232.10000000149012","resources/trios/L4T4A2.jpg","39","restless",0.3,0.5,0.3,0.741614729424253,"false"
"image-keyboard-response",160,152797,"0.0-4.49-1.49","h6cbb825pj0rggx",961,"116.csv","","null","resources/maskTrios/BBA2.jpg","null","",NA,NA,NA,NA,""
"image-keyboard-response",161,154000,"0.0-4.49-2.49","h6cbb825pj0rggx",961,"116.csv","","null","resources/images/fishbone.png","null","",NA,NA,NA,NA,""
"image-keyboard-response",162,154326,"0.0-4.50-0.50","h6cbb825pj0rggx",961,"116.csv","","324.3999999985099","resources/trios/L4T4A2.jpg","38","restless",0.3,0.5,0.3,0.376867226904972,"true"
"image-keyboard-response",163,154730,"0.0-4.50-1.50","h6cbb825pj0rggx",961,"116.csv","","null","resources/maskTrios/BT4B.jpg","null","",NA,NA,NA,NA,""
"image-keyboard-response",164,155932,"0.0-4.50-2.50","h6cbb825pj0rggx",961,"116.csv","","null","resources/images/coin2.png","null","",NA,NA,NA,NA,""
"image-keyboard-response",165,156265,"0.0-4.51-0.51","h6cbb825pj0rggx",961,"116.csv","","330.30000000074506","resources/trios/L4T4A2.jpg","38","restless",0.3,0.4,0.3,0.534023828223962,"false"
"image-keyboard-response",166,156667,"0.0-4.51-1.51","h6cbb825pj0rggx",961,"116.csv","","null","resources/maskTrios/BT4B.jpg","null","",NA,NA,NA,NA,""
"image-keyboard-response",167,157878,"0.0-4.51-2.51","h6cbb825pj0rggx",961,"116.csv","","null","resources/images/fishbone.png","null","",NA,NA,NA,NA,""
"image-keyboard-response",168,158210,"0.0-4.52-0.52","h6cbb825pj0rggx",961,"116.csv","","329.80000000074506","resources/trios/L4T4A2.jpg","37","restless",0.3,0.3,0.3,0.986099927387627,"false"
"image-keyboard-response",169,158612,"0.0-4.52-1.52","h6cbb825pj0rggx",961,"116.csv","","null","resources/maskTrios/L4BB.jpg","null","",NA,NA,NA,NA,""
"image-keyboard-response",170,159815,"0.0-4.52-2.52","h6cbb825pj0rggx",961,"116.csv","","null","resources/images/fishbone.png","null","",NA,NA,NA,NA,""
"image-keyboard-response",171,160110,"0.0-4.53-0.53","h6cbb825pj0rggx",961,"116.csv","","292.1000000014901","resources/trios/L4T4A2.jpg","39","restless",0.3,0.3,0.3,0.587916284944412,"false"
"image-keyboard-response",172,160513,"0.0-4.53-1.53","h6cbb825pj0rggx",961,"116.csv","","null","resources/maskTrios/BBA2.jpg","null","",NA,NA,NA,NA,""
"image-keyboard-response",173,161715,"0.0-4.53-2.53","h6cbb825pj0rggx",961,"116.csv","","null","resources/images/fishbone.png","null","",NA,NA,NA,NA,""
"image-keyboard-response",174,161962,"0.0-4.54-0.54","h6cbb825pj0rggx",961,"116.csv","","244.69999999925494","resources/trios/L4T4A2.jpg","39","restless",0.3,0.3,0.3,0.76644893243717,"false"
"image-keyboard-response",175,162367,"0.0-4.54-1.54","h6cbb825pj0rggx",961,"116.csv","","null","resources/maskTrios/BBA2.jpg","null","",NA,NA,NA,NA,""
"image-keyboard-response",176,163569,"0.0-4.54-2.54","h6cbb825pj0rggx",961,"116.csv","","null","resources/images/fishbone.png","null","",NA,NA,NA,NA,""
"image-keyboard-response",177,163848,"0.0-4.55-0.55","h6cbb825pj0rggx",961,"116.csv","","276.79999999701977","resources/trios/L4T4A2.jpg","39","restless",0.3,0.3,0.3,0.686561768202902,"false"
"image-keyboard-response",178,164252,"0.0-4.55-1.55","h6cbb825pj0rggx",961,"116.csv","","null","resources/maskTrios/BBA2.jpg","null","",NA,NA,NA,NA,""
"image-keyboard-response",179,165453,"0.0-4.55-2.55","h6cbb825pj0rggx",961,"116.csv","","null","resources/images/fishbone.png","null","",NA,NA,NA,NA,""
"image-keyboard-response",180,165754,"0.0-4.56-0.56","h6cbb825pj0rggx",961,"116.csv","","297.9000000022352","resources/trios/L4T4A2.jpg","37","restless",0.3,0.4,0.4,0.976374201056745,"false"
"image-keyboard-response",181,166158,"0.0-4.56-1.56","h6cbb825pj0rggx",961,"116.csv","","null","resources/maskTrios/L4BB.jpg","null","",NA,NA,NA,NA,""
"image-keyboard-response",182,167361,"0.0-4.56-2.56","h6cbb825pj0rggx",961,"116.csv","","null","resources/images/fishbone.png","null","",NA,NA,NA,NA,""
"image-keyboard-response",183,167629,"0.0-4.57-0.57","h6cbb825pj0rggx",961,"116.csv","","266.20000000298023","resources/trios/L4T4A2.jpg","38","restless",0.4,0.5,0.4,0.406744004314343,"true"
"image-keyboard-response",184,168033,"0.0-4.57-1.57","h6cbb825pj0rggx",961,"116.csv","","null","resources/maskTrios/BT4B.jpg","null","",NA,NA,NA,NA,""
"image-keyboard-response",185,169235,"0.0-4.57-2.57","h6cbb825pj0rggx",961,"116.csv","","null","resources/images/coin2.png","null","",NA,NA,NA,NA,""
"image-keyboard-response",186,169625,"0.0-4.58-0.58","h6cbb825pj0rggx",961,"116.csv","","387.30000000074506","resources/trios/L4T4A2.jpg","38","restless",0.4,0.5,0.4,0.0712272097488413,"true"
"image-keyboard-response",187,170028,"0.0-4.58-1.58","h6cbb825pj0rggx",961,"116.csv","","null","resources/maskTrios/BT4B.jpg","null","",NA,NA,NA,NA,""
"image-keyboard-response",188,171230,"0.0-4.58-2.58","h6cbb825pj0rggx",961,"116.csv","","null","resources/images/coin2.png","null","",NA,NA,NA,NA,""
"image-keyboard-response",189,171527,"0.0-4.59-0.59","h6cbb825pj0rggx",961,"116.csv","","294.69999999925494","resources/trios/L4T4A2.jpg","38","restless",0.4,0.5,0.4,0.898150964727911,"false"
"image-keyboard-response",190,171932,"0.0-4.59-1.59","h6cbb825pj0rggx",961,"116.csv","","null","resources/maskTrios/BT4B.jpg","null","",NA,NA,NA,NA,""
"image-keyboard-response",191,173148,"0.0-4.59-2.59","h6cbb825pj0rggx",961,"116.csv","","null","resources/images/fishbone.png","null","",NA,NA,NA,NA,""
"image-keyboard-response",192,173459,"0.0-4.60-0.60","h6cbb825pj0rggx",961,"116.csv","","308.5","resources/trios/L4T4A2.jpg","37","restless",0.4,0.5,0.4,0.56205898031534,"false"
"image-keyboard-response",193,173862,"0.0-4.60-1.60","h6cbb825pj0rggx",961,"116.csv","","null","resources/maskTrios/L4BB.jpg","null","",NA,NA,NA,NA,""
"image-keyboard-response",194,175065,"0.0-4.60-2.60","h6cbb825pj0rggx",961,"116.csv","","null","resources/images/fishbone.png","null","",NA,NA,NA,NA,""
"image-keyboard-response",195,175421,"0.0-4.61-0.61","h6cbb825pj0rggx",961,"116.csv","","353.5999999977648","resources/trios/L4T4A2.jpg","39","restless",0.5,0.5,0.4,0.569062360827732,"false"
"image-keyboard-response",196,175825,"0.0-4.61-1.61","h6cbb825pj0rggx",961,"116.csv","","null","resources/maskTrios/BBA2.jpg","null","",NA,NA,NA,NA,""
"image-keyboard-response",197,177031,"0.0-4.61-2.61","h6cbb825pj0rggx",961,"116.csv","","null","resources/images/fishbone.png","null","",NA,NA,NA,NA,""
"image-keyboard-response",198,177333,"0.0-4.62-0.62","h6cbb825pj0rggx",961,"116.csv","","299.5999999977648","resources/trios/L4T4A2.jpg","38","restless",0.6,0.5,0.4,0.734180566856036,"false"
"image-keyboard-response",199,177736,"0.0-4.62-1.62","h6cbb825pj0rggx",961,"116.csv","","null","resources/maskTrios/BT4B.jpg","null","",NA,NA,NA,NA,""
"image-keyboard-response",200,178939,"0.0-4.62-2.62","h6cbb825pj0rggx",961,"116.csv","","null","resources/images/fishbone.png","null","",NA,NA,NA,NA,""
"image-keyboard-response",201,179243,"0.0-4.63-0.63","h6cbb825pj0rggx",961,"116.csv","","302.0999999977648","resources/trios/L4T4A2.jpg","37","restless",0.6,0.5,0.4,0.620707353190551,"false"
"image-keyboard-response",202,179647,"0.0-4.63-1.63","h6cbb825pj0rggx",961,"116.csv","","null","resources/maskTrios/L4BB.jpg","null","",NA,NA,NA,NA,""
"image-keyboard-response",203,180850,"0.0-4.63-2.63","h6cbb825pj0rggx",961,"116.csv","","null","resources/images/fishbone.png","null","",NA,NA,NA,NA,""
"image-keyboard-response",204,181132,"0.0-4.64-0.64","h6cbb825pj0rggx",961,"116.csv","","279.80000000074506","resources/trios/L4T4A2.jpg","37","restless",0.6,0.5,0.4,0.778767151420779,"false"
"image-keyboard-response",205,181536,"0.0-4.64-1.64","h6cbb825pj0rggx",961,"116.csv","","null","resources/maskTrios/L4BB.jpg","null","",NA,NA,NA,NA,""
"image-keyboard-response",206,182738,"0.0-4.64-2.64","h6cbb825pj0rggx",961,"116.csv","","null","resources/images/fishbone.png","null","",NA,NA,NA,NA,""
"image-keyboard-response",207,182987,"0.0-4.65-0.65","h6cbb825pj0rggx",961,"116.csv","","246.79999999701977","resources/trios/L4T4A2.jpg","37","restless",0.6,0.5,0.4,0.415693300236591,"true"
"image-keyboard-response",208,183390,"0.0-4.65-1.65","h6cbb825pj0rggx",961,"116.csv","","null","resources/maskTrios/L4BB.jpg","null","",NA,NA,NA,NA,""
"image-keyboard-response",209,184598,"0.0-4.65-2.65","h6cbb825pj0rggx",961,"116.csv","","null","resources/images/coin2.png","null","",NA,NA,NA,NA,""
"image-keyboard-response",210,184978,"0.0-4.66-0.66","h6cbb825pj0rggx",961,"116.csv","","377.70000000298023","resources/trios/L4T4A2.jpg","38","restless",0.6,0.5,0.4,0.67177814776291,"false"
"image-keyboard-response",211,185381,"0.0-4.66-1.66","h6cbb825pj0rggx",961,"116.csv","","null","resources/maskTrios/BT4B.jpg","null","",NA,NA,NA,NA,""
"image-keyboard-response",212,186583,"0.0-4.66-2.66","h6cbb825pj0rggx",961,"116.csv","","null","resources/images/fishbone.png","null","",NA,NA,NA,NA,""
"image-keyboard-response",213,186874,"0.0-4.67-0.67","h6cbb825pj0rggx",961,"116.csv","","289.20000000298023","resources/trios/L4T4A2.jpg","38","restless",0.7,0.5,0.4,0.0486139418876463,"true"
"image-keyboard-response",214,187277,"0.0-4.67-1.67","h6cbb825pj0rggx",961,"116.csv","","null","resources/maskTrios/BT4B.jpg","null","",NA,NA,NA,NA,""
"image-keyboard-response",215,188481,"0.0-4.67-2.67","h6cbb825pj0rggx",961,"116.csv","","null","resources/images/coin2.png","null","",NA,NA,NA,NA,""
"image-keyboard-response",216,189102,"0.0-4.68-0.68","h6cbb825pj0rggx",961,"116.csv","","617.9000000022352","resources/trios/L4T4A2.jpg","39","restless",0.7,0.5,0.3,0.240993456413696,"true"
"image-keyboard-response",217,189505,"0.0-4.68-1.68","h6cbb825pj0rggx",961,"116.csv","","null","resources/maskTrios/BBA2.jpg","null","",NA,NA,NA,NA,""
"image-keyboard-response",218,190708,"0.0-4.68-2.68","h6cbb825pj0rggx",961,"116.csv","","null","resources/images/coin2.png","null","",NA,NA,NA,NA,""
"image-keyboard-response",219,191826,"0.0-4.69-0.69","h6cbb825pj0rggx",961,"116.csv","","1115.199999999255","resources/trios/L4T4A2.jpg","39","restless",0.7,0.5,0.3,0.979415030656765,"false"
"image-keyboard-response",220,192228,"0.0-4.69-1.69","h6cbb825pj0rggx",961,"116.csv","","null","resources/maskTrios/BBA2.jpg","null","",NA,NA,NA,NA,""
"image-keyboard-response",221,193431,"0.0-4.69-2.69","h6cbb825pj0rggx",961,"116.csv","","null","resources/images/fishbone.png","null","",NA,NA,NA,NA,""
"image-keyboard-response",222,193745,"0.0-4.70-0.70","h6cbb825pj0rggx",961,"116.csv","","312.30000000074506","resources/trios/L4T4A2.jpg","38","restless",0.7,0.5,0.3,0.348503146160384,"true"
"image-keyboard-response",223,194148,"0.0-4.70-1.70","h6cbb825pj0rggx",961,"116.csv","","null","resources/maskTrios/BT4B.jpg","null","",NA,NA,NA,NA,""
"image-keyboard-response",224,195351,"0.0-4.70-2.70","h6cbb825pj0rggx",961,"116.csv","","null","resources/images/coin2.png","null","",NA,NA,NA,NA,""
"image-keyboard-response",225,195653,"0.0-4.71-0.71","h6cbb825pj0rggx",961,"116.csv","","300.20000000298023","resources/trios/L4T4A2.jpg","38","restless",0.7,0.5,0.3,0.376662511848033,"true"
"image-keyboard-response",226,196057,"0.0-4.71-1.71","h6cbb825pj0rggx",961,"116.csv","","null","resources/maskTrios/BT4B.jpg","null","",NA,NA,NA,NA,""
"image-keyboard-response",227,197260,"0.0-4.71-2.71","h6cbb825pj0rggx",961,"116.csv","","null","resources/images/coin2.png","null","",NA,NA,NA,NA,""
"image-keyboard-response",228,198488,"0.0-4.72-0.72","h6cbb825pj0rggx",961,"116.csv","","1226.199999999255","resources/trios/L4T4A2.jpg","39","restless",0.7,0.5,0.3,0.883765741807686,"false"
"image-keyboard-response",229,198892,"0.0-4.72-1.72","h6cbb825pj0rggx",961,"116.csv","","null","resources/maskTrios/BBA2.jpg","null","",NA,NA,NA,NA,""
"image-keyboard-response",230,200094,"0.0-4.72-2.72","h6cbb825pj0rggx",961,"116.csv","","null","resources/images/fishbone.png","null","",NA,NA,NA,NA,""
"image-keyboard-response",231,200377,"0.0-4.73-0.73","h6cbb825pj0rggx",961,"116.csv","","280.3999999985099","resources/trios/L4T4A2.jpg","38","restless",0.7,0.5,0.3,0.273705466103585,"true"
"image-keyboard-response",232,200780,"0.0-4.73-1.73","h6cbb825pj0rggx",961,"116.csv","","null","resources/maskTrios/BT4B.jpg","null","",NA,NA,NA,NA,""
"image-keyboard-response",233,201983,"0.0-4.73-2.73","h6cbb825pj0rggx",961,"116.csv","","null","resources/images/coin2.png","null","",NA,NA,NA,NA,""
"image-keyboard-response",234,202465,"0.0-4.74-0.74","h6cbb825pj0rggx",961,"116.csv","","479.80000000074506","resources/trios/L4T4A2.jpg","38","restless",0.7,0.5,0.3,0.219606122927998,"true"
"image-keyboard-response",235,202868,"0.0-4.74-1.74","h6cbb825pj0rggx",961,"116.csv","","null","resources/maskTrios/BT4B.jpg","null","",NA,NA,NA,NA,""
"image-keyboard-response",236,204071,"0.0-4.74-2.74","h6cbb825pj0rggx",961,"116.csv","","null","resources/images/coin2.png","null","",NA,NA,NA,NA,""
"image-keyboard-response",237,204491,"0.0-4.75-0.75","h6cbb825pj0rggx",961,"116.csv","","417.9000000022352","resources/trios/L4T4A2.jpg","37","restless",0.6,0.4,0.3,0.968816300160572,"false"
"image-keyboard-response",238,204894,"0.0-4.75-1.75","h6cbb825pj0rggx",961,"116.csv","","null","resources/maskTrios/L4BB.jpg","null","",NA,NA,NA,NA,""
"image-keyboard-response",239,206096,"0.0-4.75-2.75","h6cbb825pj0rggx",961,"116.csv","","null","resources/images/fishbone.png","null","",NA,NA,NA,NA,""
"image-keyboard-response",240,206395,"0.0-4.76-0.76","h6cbb825pj0rggx",961,"116.csv","","296.9000000022352","resources/trios/L4T4A2.jpg","38","restless",0.7,0.4,0.3,0.201187354060754,"true"
"image-keyboard-response",241,206798,"0.0-4.76-1.76","h6cbb825pj0rggx",961,"116.csv","","null","resources/maskTrios/BT4B.jpg","null","",NA,NA,NA,NA,""
"image-keyboard-response",242,208002,"0.0-4.76-2.76","h6cbb825pj0rggx",961,"116.csv","","null","resources/images/coin2.png","null","",NA,NA,NA,NA,""
"image-keyboard-response",243,208230,"0.0-4.77-0.77","h6cbb825pj0rggx",961,"116.csv","","225.80000000074506","resources/trios/L4T4A2.jpg","38","restless",0.7,0.4,0.3,0.871747766325905,"false"
"image-keyboard-response",244,208634,"0.0-4.77-1.77","h6cbb825pj0rggx",961,"116.csv","","null","resources/maskTrios/BT4B.jpg","null","",NA,NA,NA,NA,""
"image-keyboard-response",245,209847,"0.0-4.77-2.77","h6cbb825pj0rggx",961,"116.csv","","null","resources/images/fishbone.png","null","",NA,NA,NA,NA,""
"image-keyboard-response",246,210262,"0.0-4.78-0.78","h6cbb825pj0rggx",961,"116.csv","","413.69999999925494","resources/trios/L4T4A2.jpg","37","restless",0.8,0.4,0.3,0.375263061198118,"true"
"image-keyboard-response",247,210665,"0.0-4.78-1.78","h6cbb825pj0rggx",961,"116.csv","","null","resources/maskTrios/L4BB.jpg","null","",NA,NA,NA,NA,""
"image-keyboard-response",248,211868,"0.0-4.78-2.78","h6cbb825pj0rggx",961,"116.csv","","null","resources/images/coin2.png","null","",NA,NA,NA,NA,""
"image-keyboard-response",249,212168,"0.0-4.79-0.79","h6cbb825pj0rggx",961,"116.csv","","296.8999999985099","resources/trios/L4T4A2.jpg","37","restless",0.9,0.4,0.3,0.717167951242003,"true"
"image-keyboard-response",250,212571,"0.0-4.79-1.79","h6cbb825pj0rggx",961,"116.csv","","null","resources/maskTrios/L4BB.jpg","null","",NA,NA,NA,NA,""
"image-keyboard-response",251,213773,"0.0-4.79-2.79","h6cbb825pj0rggx",961,"116.csv","","null","resources/images/coin2.png","null","",NA,NA,NA,NA,""
"image-keyboard-response",252,215492,"0.0-4.80-0.80","h6cbb825pj0rggx",961,"116.csv","","1716.300000000745","resources/trios/L4T4A2.jpg","39","restless",0.9,0.3,0.2,0.922884081402661,"false"
"image-keyboard-response",253,215896,"0.0-4.80-1.80","h6cbb825pj0rggx",961,"116.csv","","null","resources/maskTrios/BBA2.jpg","null","",NA,NA,NA,NA,""
"image-keyboard-response",254,217099,"0.0-4.80-2.80","h6cbb825pj0rggx",961,"116.csv","","null","resources/images/fishbone.png","null","",NA,NA,NA,NA,""
"image-keyboard-response",255,217394,"0.0-4.81-0.81","h6cbb825pj0rggx",961,"116.csv","","293","resources/trios/L4T4A2.jpg","38","restless",0.9,0.3,0.2,0.60124342135585,"false"
"image-keyboard-response",256,217798,"0.0-4.81-1.81","h6cbb825pj0rggx",961,"116.csv","","null","resources/maskTrios/BT4B.jpg","null","",NA,NA,NA,NA,""
"image-keyboard-response",257,219000,"0.0-4.81-2.81","h6cbb825pj0rggx",961,"116.csv","","null","resources/images/fishbone.png","null","",NA,NA,NA,NA,""
"image-keyboard-response",258,219252,"0.0-4.82-0.82","h6cbb825pj0rggx",961,"116.csv","","249.90000000223517","resources/trios/L4T4A2.jpg","38","restless",0.9,0.3,0.2,0.28684185411296,"true"
"image-keyboard-response",259,219656,"0.0-4.82-1.82","h6cbb825pj0rggx",961,"116.csv","","null","resources/maskTrios/BT4B.jpg","null","",NA,NA,NA,NA,""
"image-keyboard-response",260,220858,"0.0-4.82-2.82","h6cbb825pj0rggx",961,"116.csv","","null","resources/images/coin2.png","null","",NA,NA,NA,NA,""
"image-keyboard-response",261,220911,"0.0-4.83-0.83","h6cbb825pj0rggx",961,"116.csv","","50.80000000074506","resources/trios/L4T4A2.jpg","38","restless",0.9,0.3,0.2,0.752486815555043,"false"
"image-keyboard-response",262,221315,"0.0-4.83-1.83","h6cbb825pj0rggx",961,"116.csv","","null","resources/maskTrios/BT4B.jpg","null","",NA,NA,NA,NA,""
"image-keyboard-response",263,222517,"0.0-4.83-2.83","h6cbb825pj0rggx",961,"116.csv","","null","resources/images/fishbone.png","null","",NA,NA,NA,NA,""
"image-keyboard-response",264,222858,"0.0-4.84-0.84","h6cbb825pj0rggx",961,"116.csv","","338.30000000074506","resources/trios/L4T4A2.jpg","37","restless",0.9,0.3,0.2,0.168557899950005,"true"
"image-keyboard-response",265,223261,"0.0-4.84-1.84","h6cbb825pj0rggx",961,"116.csv","","null","resources/maskTrios/L4BB.jpg","null","",NA,NA,NA,NA,""
"image-keyboard-response",266,224464,"0.0-4.84-2.84","h6cbb825pj0rggx",961,"116.csv","","null","resources/images/coin2.png","null","",NA,NA,NA,NA,""
"image-keyboard-response",267,224754,"0.0-4.85-0.85","h6cbb825pj0rggx",961,"116.csv","","287.80000000074506","resources/trios/L4T4A2.jpg","37","restless",0.9,0.3,0.2,0.984701374659072,"false"
"image-keyboard-response",268,225159,"0.0-4.85-1.85","h6cbb825pj0rggx",961,"116.csv","","null","resources/maskTrios/L4BB.jpg","null","",NA,NA,NA,NA,""
"image-keyboard-response",269,226361,"0.0-4.85-2.85","h6cbb825pj0rggx",961,"116.csv","","null","resources/images/fishbone.png","null","",NA,NA,NA,NA,""
"image-keyboard-response",270,226650,"0.0-4.86-0.86","h6cbb825pj0rggx",961,"116.csv","","286.5999999977648","resources/trios/L4T4A2.jpg","39","restless",0.9,0.3,0.2,0.20512506833963,"false"
"image-keyboard-response",271,227055,"0.0-4.86-1.86","h6cbb825pj0rggx",961,"116.csv","","null","resources/maskTrios/BBA2.jpg","null","",NA,NA,NA,NA,""
"image-keyboard-response",272,228257,"0.0-4.86-2.86","h6cbb825pj0rggx",961,"116.csv","","null","resources/images/fishbone.png","null","",NA,NA,NA,NA,""
"image-keyboard-response",273,228599,"0.0-4.87-0.87","h6cbb825pj0rggx",961,"116.csv","","339","resources/trios/L4T4A2.jpg","39","restless",0.9,0.3,0.2,0.703743324512829,"false"
"image-keyboard-response",274,229002,"0.0-4.87-1.87","h6cbb825pj0rggx",961,"116.csv","","null","resources/maskTrios/BBA2.jpg","null","",NA,NA,NA,NA,""
"image-keyboard-response",275,230205,"0.0-4.87-2.87","h6cbb825pj0rggx",961,"116.csv","","null","resources/images/fishbone.png","null","",NA,NA,NA,NA,""
"image-keyboard-response",276,230634,"0.0-4.88-0.88","h6cbb825pj0rggx",961,"116.csv","","426.8999999985099","resources/trios/L4T4A2.jpg","37","restless",0.9,0.3,0.2,0.647529694717121,"true"
"image-keyboard-response",277,231037,"0.0-4.88-1.88","h6cbb825pj0rggx",961,"116.csv","","null","resources/maskTrios/L4BB.jpg","null","",NA,NA,NA,NA,""
"image-keyboard-response",278,232241,"0.0-4.88-2.88","h6cbb825pj0rggx",961,"116.csv","","null","resources/images/coin2.png","null","",NA,NA,NA,NA,""
"image-keyboard-response",279,232503,"0.0-4.89-0.89","h6cbb825pj0rggx",961,"116.csv","","260.3999999985099","resources/trios/L4T4A2.jpg","38","restless",0.9,0.3,0.2,0.566225443738557,"false"
"image-keyboard-response",280,232911,"0.0-4.89-1.89","h6cbb825pj0rggx",961,"116.csv","","null","resources/maskTrios/BT4B.jpg","null","",NA,NA,NA,NA,""
"image-keyboard-response",281,234114,"0.0-4.89-2.89","h6cbb825pj0rggx",961,"116.csv","","null","resources/images/fishbone.png","null","",NA,NA,NA,NA,""
"image-keyboard-response",282,234354,"0.0-4.90-0.90","h6cbb825pj0rggx",961,"116.csv","","237.89999999850988","resources/trios/L4T4A2.jpg","39","restless",0.9,0.3,0.2,0.262502039272456,"false"
"image-keyboard-response",283,234758,"0.0-4.90-1.90","h6cbb825pj0rggx",961,"116.csv","","null","resources/maskTrios/BBA2.jpg","null","",NA,NA,NA,NA,""
"image-keyboard-response",284,235960,"0.0-4.90-2.90","h6cbb825pj0rggx",961,"116.csv","","null","resources/images/fishbone.png","null","",NA,NA,NA,NA,""
"image-keyboard-response",285,236508,"0.0-4.91-0.91","h6cbb825pj0rggx",961,"116.csv","","545.6999999992549","resources/trios/L4T4A2.jpg","37","restless",0.8,0.3,0.3,0.975638203949488,"false"
"image-keyboard-response",286,236912,"0.0-4.91-1.91","h6cbb825pj0rggx",961,"116.csv","","null","resources/maskTrios/L4BB.jpg","null","",NA,NA,NA,NA,""
"image-keyboard-response",287,238115,"0.0-4.91-2.91","h6cbb825pj0rggx",961,"116.csv","","null","resources/images/fishbone.png","null","",NA,NA,NA,NA,""
"image-keyboard-response",288,238478,"0.0-4.92-0.92","h6cbb825pj0rggx",961,"116.csv","","360.9000000022352","resources/trios/L4T4A2.jpg","37","restless",0.8,0.3,0.3,0.859626148993469,"false"
"image-keyboard-response",289,238881,"0.0-4.92-1.92","h6cbb825pj0rggx",961,"116.csv","","null","resources/maskTrios/L4BB.jpg","null","",NA,NA,NA,NA,""
"image-keyboard-response",290,240083,"0.0-4.92-2.92","h6cbb825pj0rggx",961,"116.csv","","null","resources/images/fishbone.png","null","",NA,NA,NA,NA,""
"image-keyboard-response",291,240433,"0.0-4.93-0.93","h6cbb825pj0rggx",961,"116.csv","","347.69999999925494","resources/trios/L4T4A2.jpg","39","restless",0.8,0.3,0.3,0.49060863434016,"false"
"image-keyboard-response",292,240836,"0.0-4.93-1.93","h6cbb825pj0rggx",961,"116.csv","","null","resources/maskTrios/BBA2.jpg","null","",NA,NA,NA,NA,""
"image-keyboard-response",293,242040,"0.0-4.93-2.93","h6cbb825pj0rggx",961,"116.csv","","null","resources/images/fishbone.png","null","",NA,NA,NA,NA,""
"image-keyboard-response",294,242358,"0.0-4.94-0.94","h6cbb825pj0rggx",961,"116.csv","","316.30000000074506","resources/trios/L4T4A2.jpg","38","restless",0.8,0.3,0.3,0.773381907211313,"false"
"image-keyboard-response",295,242760,"0.0-4.94-1.94","h6cbb825pj0rggx",961,"116.csv","","null","resources/maskTrios/BT4B.jpg","null","",NA,NA,NA,NA,""
"image-keyboard-response",296,243964,"0.0-4.94-2.94","h6cbb825pj0rggx",961,"116.csv","","null","resources/images/fishbone.png","null","",NA,NA,NA,NA,""
"image-keyboard-response",297,244210,"0.0-4.95-0.95","h6cbb825pj0rggx",961,"116.csv","","243.10000000149012","resources/trios/L4T4A2.jpg","39","restless",0.8,0.3,0.3,0.355985077186521,"false"
"image-keyboard-response",298,244613,"0.0-4.95-1.95","h6cbb825pj0rggx",961,"116.csv","","null","resources/maskTrios/BBA2.jpg","null","",NA,NA,NA,NA,""
"image-keyboard-response",299,245816,"0.0-4.95-2.95","h6cbb825pj0rggx",961,"116.csv","","null","resources/images/fishbone.png","null","",NA,NA,NA,NA,""
"image-keyboard-response",300,246527,"0.0-4.96-0.96","h6cbb825pj0rggx",961,"116.csv","","707.6999999992549","resources/trios/L4T4A2.jpg","39","restless",0.8,0.3,0.3,0.519089510675445,"false"
"image-keyboard-response",301,246931,"0.0-4.96-1.96","h6cbb825pj0rggx",961,"116.csv","","null","resources/maskTrios/BBA2.jpg","null","",NA,NA,NA,NA,""
"image-keyboard-response",302,248133,"0.0-4.96-2.96","h6cbb825pj0rggx",961,"116.csv","","null","resources/images/fishbone.png","null","",NA,NA,NA,NA,""
"image-keyboard-response",303,248441,"0.0-4.97-0.97","h6cbb825pj0rggx",961,"116.csv","","305.19999999925494","resources/trios/L4T4A2.jpg","37","restless",0.8,0.3,0.3,0.958285321307344,"false"
"image-keyboard-response",304,248845,"0.0-4.97-1.97","h6cbb825pj0rggx",961,"116.csv","","null","resources/maskTrios/L4BB.jpg","null","",NA,NA,NA,NA,""
"image-keyboard-response",305,250051,"0.0-4.97-2.97","h6cbb825pj0rggx",961,"116.csv","","null","resources/images/fishbone.png","null","",NA,NA,NA,NA,""
"image-keyboard-response",306,250321,"0.0-4.98-0.98","h6cbb825pj0rggx",961,"116.csv","","267.1000000014901","resources/trios/L4T4A2.jpg","38","restless",0.8,0.3,0.3,0.804241263745246,"false"
"image-keyboard-response",307,250724,"0.0-4.98-1.98","h6cbb825pj0rggx",961,"116.csv","","null","resources/maskTrios/BT4B.jpg","null","",NA,NA,NA,NA,""
"image-keyboard-response",308,251927,"0.0-4.98-2.98","h6cbb825pj0rggx",961,"116.csv","","null","resources/images/fishbone.png","null","",NA,NA,NA,NA,""
"image-keyboard-response",309,252151,"0.0-4.99-0.99","h6cbb825pj0rggx",961,"116.csv","","221.19999999925494","resources/trios/L4T4A2.jpg","37","restless",0.7,0.3,0.3,0.0662908069350279,"true"
"image-keyboard-response",310,252555,"0.0-4.99-1.99","h6cbb825pj0rggx",961,"116.csv","","null","resources/maskTrios/L4BB.jpg","null","",NA,NA,NA,NA,""
"image-keyboard-response",311,253758,"0.0-4.99-2.99","h6cbb825pj0rggx",961,"116.csv","","null","resources/images/coin2.png","null","",NA,NA,NA,NA,""
"image-keyboard-response",312,253922,"0.0-4.100-0.100","h6cbb825pj0rggx",961,"116.csv","","161.39999999850988","resources/trios/L4T4A2.jpg","37","restless",0.7,0.3,0.3,0.977309514816486,"false"
"image-keyboard-response",313,254326,"0.0-4.100-1.100","h6cbb825pj0rggx",961,"116.csv","","null","resources/maskTrios/L4BB.jpg","null","",NA,NA,NA,NA,""
"image-keyboard-response",314,255528,"0.0-4.100-2.100","h6cbb825pj0rggx",961,"116.csv","","null","resources/images/fishbone.png","null","",NA,NA,NA,NA,""
"image-keyboard-response",315,255729,"0.0-4.101-0.101","h6cbb825pj0rggx",961,"116.csv","","199.09999999776483","resources/trios/L4T4A2.jpg","38","restless",0.7,0.3,0.3,0.532679368707563,"false"
"image-keyboard-response",316,256132,"0.0-4.101-1.101","h6cbb825pj0rggx",961,"116.csv","","null","resources/maskTrios/BT4B.jpg","null","",NA,NA,NA,NA,""
"image-keyboard-response",317,257335,"0.0-4.101-2.101","h6cbb825pj0rggx",961,"116.csv","","null","resources/images/fishbone.png","null","",NA,NA,NA,NA,""
"image-keyboard-response",318,257564,"0.0-4.102-0.102","h6cbb825pj0rggx",961,"116.csv","","226.5","resources/trios/L4T4A2.jpg","39","restless",0.8,0.3,0.3,0.928174146123164,"false"
"image-keyboard-response",319,257968,"0.0-4.102-1.102","h6cbb825pj0rggx",961,"116.csv","","null","resources/maskTrios/BBA2.jpg","null","",NA,NA,NA,NA,""
"image-keyboard-response",320,259170,"0.0-4.102-2.102","h6cbb825pj0rggx",961,"116.csv","","null","resources/images/fishbone.png","null","",NA,NA,NA,NA,""
"image-keyboard-response",321,259507,"0.0-4.103-0.103","h6cbb825pj0rggx",961,"116.csv","","335.4000000022352","resources/trios/L4T4A2.jpg","37","restless",0.8,0.3,0.3,0.206735361635598,"true"
"image-keyboard-response",322,259917,"0.0-4.103-1.103","h6cbb825pj0rggx",961,"116.csv","","null","resources/maskTrios/L4BB.jpg","null","",NA,NA,NA,NA,""
"image-keyboard-response",323,261120,"0.0-4.103-2.103","h6cbb825pj0rggx",961,"116.csv","","null","resources/images/coin2.png","null","",NA,NA,NA,NA,""
"image-keyboard-response",324,261469,"0.0-4.104-0.104","h6cbb825pj0rggx",961,"116.csv","","346.4000000022352","resources/trios/L4T4A2.jpg","38","restless",0.8,0.2,0.3,0.521223664827976,"false"
"image-keyboard-response",325,261872,"0.0-4.104-1.104","h6cbb825pj0rggx",961,"116.csv","","null","resources/maskTrios/BT4B.jpg","null","",NA,NA,NA,NA,""
"image-keyboard-response",326,263074,"0.0-4.104-2.104","h6cbb825pj0rggx",961,"116.csv","","null","resources/images/fishbone.png","null","",NA,NA,NA,NA,""
"image-keyboard-response",327,263370,"0.0-4.105-0.105","h6cbb825pj0rggx",961,"116.csv","","293.6000000014901","resources/trios/L4T4A2.jpg","38","restless",0.8,0.2,0.3,0.283331759844324,"false"
"image-keyboard-response",328,263773,"0.0-4.105-1.105","h6cbb825pj0rggx",961,"116.csv","","null","resources/maskTrios/BT4B.jpg","null","",NA,NA,NA,NA,""
"image-keyboard-response",329,264975,"0.0-4.105-2.105","h6cbb825pj0rggx",961,"116.csv","","null","resources/images/fishbone.png","null","",NA,NA,NA,NA,""
"image-keyboard-response",330,265356,"0.0-4.106-0.106","h6cbb825pj0rggx",961,"116.csv","","379.30000000074506","resources/trios/L4T4A2.jpg","38","restless",0.8,0.2,0.3,0.379013324816934,"false"
"image-keyboard-response",331,265759,"0.0-4.106-1.106","h6cbb825pj0rggx",961,"116.csv","","null","resources/maskTrios/BT4B.jpg","null","",NA,NA,NA,NA,""
"image-keyboard-response",332,266963,"0.0-4.106-2.106","h6cbb825pj0rggx",961,"116.csv","","null","resources/images/fishbone.png","null","",NA,NA,NA,NA,""
"image-keyboard-response",333,267317,"0.0-4.107-0.107","h6cbb825pj0rggx",961,"116.csv","","352.5","resources/trios/L4T4A2.jpg","37","restless",0.8,0.3,0.3,0.622127488027907,"true"
"image-keyboard-response",334,267721,"0.0-4.107-1.107","h6cbb825pj0rggx",961,"116.csv","","null","resources/maskTrios/L4BB.jpg","null","",NA,NA,NA,NA,""
"image-keyboard-response",335,268923,"0.0-4.107-2.107","h6cbb825pj0rggx",961,"116.csv","","null","resources/images/coin2.png","null","",NA,NA,NA,NA,""
"image-keyboard-response",336,269394,"0.0-4.108-0.108","h6cbb825pj0rggx",961,"116.csv","","468.69999999925494","resources/trios/L4T4A2.jpg","39","restless",0.8,0.3,0.3,0.322931157599073,"false"
"image-keyboard-response",337,269798,"0.0-4.108-1.108","h6cbb825pj0rggx",961,"116.csv","","null","resources/maskTrios/BBA2.jpg","null","",NA,NA,NA,NA,""
"image-keyboard-response",338,271000,"0.0-4.108-2.108","h6cbb825pj0rggx",961,"116.csv","","null","resources/images/fishbone.png","null","",NA,NA,NA,NA,""
"image-keyboard-response",339,271351,"0.0-4.109-0.109","h6cbb825pj0rggx",961,"116.csv","","349","resources/trios/L4T4A2.jpg","37","restless",0.8,0.3,0.3,0.455919148451138,"true"
"image-keyboard-response",340,271754,"0.0-4.109-1.109","h6cbb825pj0rggx",961,"116.csv","","null","resources/maskTrios/L4BB.jpg","null","",NA,NA,NA,NA,""
"image-keyboard-response",341,272957,"0.0-4.109-2.109","h6cbb825pj0rggx",961,"116.csv","","null","resources/images/coin2.png","null","",NA,NA,NA,NA,""
"image-keyboard-response",342,273457,"0.0-4.110-0.110","h6cbb825pj0rggx",961,"116.csv","","497.79999999701977","resources/trios/L4T4A2.jpg","37","restless",0.8,0.4,0.3,0.159633252649979,"true"
"image-keyboard-response",343,273859,"0.0-4.110-1.110","h6cbb825pj0rggx",961,"116.csv","","null","resources/maskTrios/L4BB.jpg","null","",NA,NA,NA,NA,""
"image-keyboard-response",344,275063,"0.0-4.110-2.110","h6cbb825pj0rggx",961,"116.csv","","null","resources/images/coin2.png","null","",NA,NA,NA,NA,""
"image-keyboard-response",345,275789,"0.0-4.111-0.111","h6cbb825pj0rggx",961,"116.csv","","722.8999999985099","resources/trios/L4T4A2.jpg","37","restless",0.8,0.4,0.3,0.671499723303453,"true"
"image-keyboard-response",346,276192,"0.0-4.111-1.111","h6cbb825pj0rggx",961,"116.csv","","null","resources/maskTrios/L4BB.jpg","null","",NA,NA,NA,NA,""
"image-keyboard-response",347,277395,"0.0-4.111-2.111","h6cbb825pj0rggx",961,"116.csv","","null","resources/images/coin2.png","null","",NA,NA,NA,NA,""
"image-keyboard-response",348,277754,"0.0-4.112-0.112","h6cbb825pj0rggx",961,"116.csv","","356.30000000074506","resources/trios/L4T4A2.jpg","37","restless",0.8,0.3,0.4,0.437007079386991,"true"
"image-keyboard-response",349,278157,"0.0-4.112-1.112","h6cbb825pj0rggx",961,"116.csv","","null","resources/maskTrios/L4BB.jpg","null","",NA,NA,NA,NA,""
"image-keyboard-response",350,279360,"0.0-4.112-2.112","h6cbb825pj0rggx",961,"116.csv","","null","resources/images/coin2.png","null","",NA,NA,NA,NA,""
"image-keyboard-response",351,279709,"0.0-4.113-0.113","h6cbb825pj0rggx",961,"116.csv","","347.1000000014901","resources/trios/L4T4A2.jpg","37","restless",0.8,0.3,0.4,0.13749201875883,"true"
"image-keyboard-response",352,280113,"0.0-4.113-1.113","h6cbb825pj0rggx",961,"116.csv","","null","resources/maskTrios/L4BB.jpg","null","",NA,NA,NA,NA,""
"image-keyboard-response",353,281316,"0.0-4.113-2.113","h6cbb825pj0rggx",961,"116.csv","","null","resources/images/coin2.png","null","",NA,NA,NA,NA,""
"image-keyboard-response",354,281860,"0.0-4.114-0.114","h6cbb825pj0rggx",961,"116.csv","","541.1999999992549","resources/trios/L4T4A2.jpg","37","restless",0.8,0.3,0.4,0.409414739230533,"true"
"image-keyboard-response",355,282263,"0.0-4.114-1.114","h6cbb825pj0rggx",961,"116.csv","","null","resources/maskTrios/L4BB.jpg","null","",NA,NA,NA,NA,""
"image-keyboard-response",356,283465,"0.0-4.114-2.114","h6cbb825pj0rggx",961,"116.csv","","null","resources/images/coin2.png","null","",NA,NA,NA,NA,""
"image-keyboard-response",357,283873,"0.0-4.115-0.115","h6cbb825pj0rggx",961,"116.csv","","405.69999999925494","resources/trios/L4T4A2.jpg","37","restless",0.8,0.3,0.4,0.180146491100972,"true"
"image-keyboard-response",358,284276,"0.0-4.115-1.115","h6cbb825pj0rggx",961,"116.csv","","null","resources/maskTrios/L4BB.jpg","null","",NA,NA,NA,NA,""
"image-keyboard-response",359,285491,"0.0-4.115-2.115","h6cbb825pj0rggx",961,"116.csv","","null","resources/images/coin2.png","null","",NA,NA,NA,NA,""
"image-keyboard-response",360,285815,"0.0-4.116-0.116","h6cbb825pj0rggx",961,"116.csv","","322","resources/trios/L4T4A2.jpg","37","restless",0.8,0.3,0.4,0.450190122876012,"true"
"image-keyboard-response",361,286230,"0.0-4.116-1.116","h6cbb825pj0rggx",961,"116.csv","","null","resources/maskTrios/L4BB.jpg","null","",NA,NA,NA,NA,""
"image-keyboard-response",362,287432,"0.0-4.116-2.116","h6cbb825pj0rggx",961,"116.csv","","null","resources/images/coin2.png","null","",NA,NA,NA,NA,""
"image-keyboard-response",363,287761,"0.0-4.117-0.117","h6cbb825pj0rggx",961,"116.csv","","327","resources/trios/L4T4A2.jpg","37","restless",0.8,0.3,0.4,0.240757122182162,"true"
"image-keyboard-response",364,288163,"0.0-4.117-1.117","h6cbb825pj0rggx",961,"116.csv","","null","resources/maskTrios/L4BB.jpg","null","",NA,NA,NA,NA,""
"image-keyboard-response",365,289366,"0.0-4.117-2.117","h6cbb825pj0rggx",961,"116.csv","","null","resources/images/coin2.png","null","",NA,NA,NA,NA,""
"image-keyboard-response",366,289645,"0.0-4.118-0.118","h6cbb825pj0rggx",961,"116.csv","","276.6000000014901","resources/trios/L4T4A2.jpg","37","restless",0.8,0.3,0.4,0.550132902912902,"true"
"image-keyboard-response",367,290048,"0.0-4.118-1.118","h6cbb825pj0rggx",961,"116.csv","","null","resources/maskTrios/L4BB.jpg","null","",NA,NA,NA,NA,""
"image-keyboard-response",368,291251,"0.0-4.118-2.118","h6cbb825pj0rggx",961,"116.csv","","null","resources/images/coin2.png","null","",NA,NA,NA,NA,""
"image-keyboard-response",369,291537,"0.0-4.119-0.119","h6cbb825pj0rggx",961,"116.csv","","283.69999999925494","resources/trios/L4T4A2.jpg","37","restless",0.8,0.4,0.4,0.704561104904556,"true"
"image-keyboard-response",370,291941,"0.0-4.119-1.119","h6cbb825pj0rggx",961,"116.csv","","null","resources/maskTrios/L4BB.jpg","null","",NA,NA,NA,NA,""
"image-keyboard-response",371,293144,"0.0-4.119-2.119","h6cbb825pj0rggx",961,"116.csv","","null","resources/images/coin2.png","null","",NA,NA,NA,NA,""
"image-keyboard-response",372,293476,"0.0-4.120-0.120","h6cbb825pj0rggx",961,"116.csv","","329.19999999925494","resources/trios/L4T4A2.jpg","37","restless",0.8,0.4,0.5,0.474529076644134,"true"
"image-keyboard-response",373,293879,"0.0-4.120-1.120","h6cbb825pj0rggx",961,"116.csv","","null","resources/maskTrios/L4BB.jpg","null","",NA,NA,NA,NA,""
"image-keyboard-response",374,295082,"0.0-4.120-2.120","h6cbb825pj0rggx",961,"116.csv","","null","resources/images/coin2.png","null","",NA,NA,NA,NA,""
"image-keyboard-response",375,295345,"0.0-4.121-0.121","h6cbb825pj0rggx",961,"116.csv","","260.69999999925494","resources/trios/L4T4A2.jpg","37","restless",0.8,0.5,0.5,0.0868166344044281,"true"
"image-keyboard-response",376,295748,"0.0-4.121-1.121","h6cbb825pj0rggx",961,"116.csv","","null","resources/maskTrios/L4BB.jpg","null","",NA,NA,NA,NA,""
"image-keyboard-response",377,296952,"0.0-4.121-2.121","h6cbb825pj0rggx",961,"116.csv","","null","resources/images/coin2.png","null","",NA,NA,NA,NA,""
"image-keyboard-response",378,297237,"0.0-4.122-0.122","h6cbb825pj0rggx",961,"116.csv","","283.29999999701977","resources/trios/L4T4A2.jpg","37","restless",0.7,0.5,0.5,0.629228505437226,"true"
"image-keyboard-response",379,297641,"0.0-4.122-1.122","h6cbb825pj0rggx",961,"116.csv","","null","resources/maskTrios/L4BB.jpg","null","",NA,NA,NA,NA,""
"image-keyboard-response",380,298845,"0.0-4.122-2.122","h6cbb825pj0rggx",961,"116.csv","","null","resources/images/coin2.png","null","",NA,NA,NA,NA,""
"image-keyboard-response",381,299166,"0.0-4.123-0.123","h6cbb825pj0rggx",961,"116.csv","","319.30000000074506","resources/trios/L4T4A2.jpg","37","restless",0.7,0.5,0.5,0.967653130783808,"false"
"image-keyboard-response",382,299569,"0.0-4.123-1.123","h6cbb825pj0rggx",961,"116.csv","","null","resources/maskTrios/L4BB.jpg","null","",NA,NA,NA,NA,""
"image-keyboard-response",383,300772,"0.0-4.123-2.123","h6cbb825pj0rggx",961,"116.csv","","null","resources/images/fishbone.png","null","",NA,NA,NA,NA,""
"image-keyboard-response",384,301080,"0.0-4.124-0.124","h6cbb825pj0rggx",961,"116.csv","","305.5","resources/trios/L4T4A2.jpg","37","restless",0.6,0.5,0.5,0.212861748149694,"true"
"image-keyboard-response",385,301483,"0.0-4.124-1.124","h6cbb825pj0rggx",961,"116.csv","","null","resources/maskTrios/L4BB.jpg","null","",NA,NA,NA,NA,""
"image-keyboard-response",386,302687,"0.0-4.124-2.124","h6cbb825pj0rggx",961,"116.csv","","null","resources/images/coin2.png","null","",NA,NA,NA,NA,""
"image-keyboard-response",387,302954,"0.0-4.125-0.125","h6cbb825pj0rggx",961,"116.csv","","264.69999999925494","resources/trios/L4T4A2.jpg","37","restless",0.6,0.5,0.5,0.961619645008418,"false"
"image-keyboard-response",388,303357,"0.0-4.125-1.125","h6cbb825pj0rggx",961,"116.csv","","null","resources/maskTrios/L4BB.jpg","null","",NA,NA,NA,NA,""
"image-keyboard-response",389,304559,"0.0-4.125-2.125","h6cbb825pj0rggx",961,"116.csv","","null","resources/images/fishbone.png","null","",NA,NA,NA,NA,""
"image-keyboard-response",390,304819,"0.0-4.126-0.126","h6cbb825pj0rggx",961,"116.csv","","257.30000000074506","resources/trios/L4T4A2.jpg","38","restless",0.6,0.5,0.5,0.836192321150145,"false"
"image-keyboard-response",391,305232,"0.0-4.126-1.126","h6cbb825pj0rggx",961,"116.csv","","null","resources/maskTrios/BT4B.jpg","null","",NA,NA,NA,NA,""
"image-keyboard-response",392,306436,"0.0-4.126-2.126","h6cbb825pj0rggx",961,"116.csv","","null","resources/images/fishbone.png","null","",NA,NA,NA,NA,""
"image-keyboard-response",393,306685,"0.0-4.127-0.127","h6cbb825pj0rggx",961,"116.csv","","246.30000000074506","resources/trios/L4T4A2.jpg","38","restless",0.6,0.5,0.5,0.513458501526209,"false"
"image-keyboard-response",394,307088,"0.0-4.127-1.127","h6cbb825pj0rggx",961,"116.csv","","null","resources/maskTrios/BT4B.jpg","null","",NA,NA,NA,NA,""
"image-keyboard-response",395,308299,"0.0-4.127-2.127","h6cbb825pj0rggx",961,"116.csv","","null","resources/images/fishbone.png","null","",NA,NA,NA,NA,""
"image-keyboard-response",396,308555,"0.0-4.128-0.128","h6cbb825pj0rggx",961,"116.csv","","253.89999999850988","resources/trios/L4T4A2.jpg","39","restless",0.6,0.5,0.5,0.969963215937709,"false"
"image-keyboard-response",397,308957,"0.0-4.128-1.128","h6cbb825pj0rggx",961,"116.csv","","null","resources/maskTrios/BBA2.jpg","null","",NA,NA,NA,NA,""
"image-keyboard-response",398,310160,"0.0-4.128-2.128","h6cbb825pj0rggx",961,"116.csv","","null","resources/images/fishbone.png","null","",NA,NA,NA,NA,""
"image-keyboard-response",399,310489,"0.0-4.129-0.129","h6cbb825pj0rggx",961,"116.csv","","326","resources/trios/L4T4A2.jpg","39","restless",0.6,0.5,0.5,0.0988980539283268,"true"
"image-keyboard-response",400,310892,"0.0-4.129-1.129","h6cbb825pj0rggx",961,"116.csv","","null","resources/maskTrios/BBA2.jpg","null","",NA,NA,NA,NA,""
"image-keyboard-response",401,312095,"0.0-4.129-2.129","h6cbb825pj0rggx",961,"116.csv","","null","resources/images/coin2.png","null","",NA,NA,NA,NA,""
"image-keyboard-response",402,312346,"0.0-4.130-0.130","h6cbb825pj0rggx",961,"116.csv","","249","resources/trios/L4T4A2.jpg","39","restless",0.6,0.5,0.5,0.654691174342538,"false"
"image-keyboard-response",403,312750,"0.0-4.130-1.130","h6cbb825pj0rggx",961,"116.csv","","null","resources/maskTrios/BBA2.jpg","null","",NA,NA,NA,NA,""
"image-keyboard-response",404,313953,"0.0-4.130-2.130","h6cbb825pj0rggx",961,"116.csv","","null","resources/images/fishbone.png","null","",NA,NA,NA,NA,""
"image-keyboard-response",405,314257,"0.0-4.131-0.131","h6cbb825pj0rggx",961,"116.csv","","301","resources/trios/L4T4A2.jpg","38","restless",0.6,0.5,0.5,0.718952344629983,"false"
"image-keyboard-response",406,314660,"0.0-4.131-1.131","h6cbb825pj0rggx",961,"116.csv","","null","resources/maskTrios/BT4B.jpg","null","",NA,NA,NA,NA,""
"image-keyboard-response",407,315862,"0.0-4.131-2.131","h6cbb825pj0rggx",961,"116.csv","","null","resources/images/fishbone.png","null","",NA,NA,NA,NA,""
"image-keyboard-response",408,316156,"0.0-4.132-0.132","h6cbb825pj0rggx",961,"116.csv","","291.8999999985099","resources/trios/L4T4A2.jpg","38","restless",0.6,0.5,0.5,0.470754720659065,"true"
"image-keyboard-response",409,316559,"0.0-4.132-1.132","h6cbb825pj0rggx",961,"116.csv","","null","resources/maskTrios/BT4B.jpg","null","",NA,NA,NA,NA,""
"image-keyboard-response",410,317762,"0.0-4.132-2.132","h6cbb825pj0rggx",961,"116.csv","","null","resources/images/coin2.png","null","",NA,NA,NA,NA,""
"image-keyboard-response",411,318076,"0.0-4.133-0.133","h6cbb825pj0rggx",961,"116.csv","","311.8999999985099","resources/trios/L4T4A2.jpg","38","restless",0.6,0.5,0.5,0.905370186737898,"false"
"image-keyboard-response",412,318479,"0.0-4.133-1.133","h6cbb825pj0rggx",961,"116.csv","","null","resources/maskTrios/BT4B.jpg","null","",NA,NA,NA,NA,""
"image-keyboard-response",413,319682,"0.0-4.133-2.133","h6cbb825pj0rggx",961,"116.csv","","null","resources/images/fishbone.png","null","",NA,NA,NA,NA,""
"image-keyboard-response",414,319958,"0.0-4.134-0.134","h6cbb825pj0rggx",961,"116.csv","","272.3999999985099","resources/trios/L4T4A2.jpg","39","restless",0.6,0.4,0.5,0.598542903210103,"false"
"image-keyboard-response",415,320362,"0.0-4.134-1.134","h6cbb825pj0rggx",961,"116.csv","","null","resources/maskTrios/BBA2.jpg","null","",NA,NA,NA,NA,""
"image-keyboard-response",416,321564,"0.0-4.134-2.134","h6cbb825pj0rggx",961,"116.csv","","null","resources/images/fishbone.png","null","",NA,NA,NA,NA,""
"image-keyboard-response",417,321803,"0.0-4.135-0.135","h6cbb825pj0rggx",961,"116.csv","","236.40000000223517","resources/trios/L4T4A2.jpg","38","restless",0.6,0.3,0.5,0.787428511007008,"false"
"image-keyboard-response",418,322207,"0.0-4.135-1.135","h6cbb825pj0rggx",961,"116.csv","","null","resources/maskTrios/BT4B.jpg","null","",NA,NA,NA,NA,""
"image-keyboard-response",419,323409,"0.0-4.135-2.135","h6cbb825pj0rggx",961,"116.csv","","null","resources/images/fishbone.png","null","",NA,NA,NA,NA,""
"image-keyboard-response",420,323752,"0.0-4.136-0.136","h6cbb825pj0rggx",961,"116.csv","","341.19999999925494","resources/trios/L4T4A2.jpg","37","restless",0.6,0.3,0.5,0.0173222466088996,"true"
"image-keyboard-response",421,324156,"0.0-4.136-1.136","h6cbb825pj0rggx",961,"116.csv","","null","resources/maskTrios/L4BB.jpg","null","",NA,NA,NA,NA,""
"image-keyboard-response",422,325359,"0.0-4.136-2.136","h6cbb825pj0rggx",961,"116.csv","","null","resources/images/coin2.png","null","",NA,NA,NA,NA,""
"image-keyboard-response",423,325632,"0.0-4.137-0.137","h6cbb825pj0rggx",961,"116.csv","","271.19999999925494","resources/trios/L4T4A2.jpg","37","restless",0.6,0.3,0.5,0.524458739635691,"true"
"image-keyboard-response",424,326036,"0.0-4.137-1.137","h6cbb825pj0rggx",961,"116.csv","","null","resources/maskTrios/L4BB.jpg","null","",NA,NA,NA,NA,""
"image-keyboard-response",425,327239,"0.0-4.137-2.137","h6cbb825pj0rggx",961,"116.csv","","null","resources/images/coin2.png","null","",NA,NA,NA,NA,""
"image-keyboard-response",426,327558,"0.0-4.138-0.138","h6cbb825pj0rggx",961,"116.csv","","316.5","resources/trios/L4T4A2.jpg","37","restless",0.5,0.4,0.4,0.660425854473569,"false"
"image-keyboard-response",427,327961,"0.0-4.138-1.138","h6cbb825pj0rggx",961,"116.csv","","null","resources/maskTrios/L4BB.jpg","null","",NA,NA,NA,NA,""
"image-keyboard-response",428,329164,"0.0-4.138-2.138","h6cbb825pj0rggx",961,"116.csv","","null","resources/images/fishbone.png","null","",NA,NA,NA,NA,""
"image-keyboard-response",429,329482,"0.0-4.139-0.139","h6cbb825pj0rggx",961,"116.csv","","315.5999999977648","resources/trios/L4T4A2.jpg","38","restless",0.5,0.4,0.4,0.345535809842874,"true"
"image-keyboard-response",430,329886,"0.0-4.139-1.139","h6cbb825pj0rggx",961,"116.csv","","null","resources/maskTrios/BT4B.jpg","null","",NA,NA,NA,NA,""
"image-keyboard-response",431,331088,"0.0-4.139-2.139","h6cbb825pj0rggx",961,"116.csv","","null","resources/images/coin2.png","null","",NA,NA,NA,NA,""
"image-keyboard-response",432,331371,"0.0-4.140-0.140","h6cbb825pj0rggx",961,"116.csv","","280.29999999701977","resources/trios/L4T4A2.jpg","38","restless",0.5,0.4,0.4,0.347432086958106,"true"
"image-keyboard-response",433,331774,"0.0-4.140-1.140","h6cbb825pj0rggx",961,"116.csv","","null","resources/maskTrios/BT4B.jpg","null","",NA,NA,NA,NA,""
"image-keyboard-response",434,332977,"0.0-4.140-2.140","h6cbb825pj0rggx",961,"116.csv","","null","resources/images/coin2.png","null","",NA,NA,NA,NA,""
"image-keyboard-response",435,333505,"0.0-4.141-0.141","h6cbb825pj0rggx",961,"116.csv","","526","resources/trios/L4T4A2.jpg","38","restless",0.5,0.4,0.4,0.764537151428251,"false"
"image-keyboard-response",436,333921,"0.0-4.141-1.141","h6cbb825pj0rggx",961,"116.csv","","null","resources/maskTrios/BT4B.jpg","null","",NA,NA,NA,NA,""
"image-keyboard-response",437,335125,"0.0-4.141-2.141","h6cbb825pj0rggx",961,"116.csv","","null","resources/images/fishbone.png","null","",NA,NA,NA,NA,""
"image-keyboard-response",438,335391,"0.0-4.142-0.142","h6cbb825pj0rggx",961,"116.csv","","263.3999999985099","resources/trios/L4T4A2.jpg","39","restless",0.5,0.4,0.4,0.000133690304961576,"true"
"image-keyboard-response",439,335794,"0.0-4.142-1.142","h6cbb825pj0rggx",961,"116.csv","","null","resources/maskTrios/BBA2.jpg","null","",NA,NA,NA,NA,""
"image-keyboard-response",440,336997,"0.0-4.142-2.142","h6cbb825pj0rggx",961,"116.csv","","null","resources/images/coin2.png","null","",NA,NA,NA,NA,""
"image-keyboard-response",441,337305,"0.0-4.143-0.143","h6cbb825pj0rggx",961,"116.csv","","305.80000000074506","resources/trios/L4T4A2.jpg","39","restless",0.5,0.5,0.4,0.5757939623405,"false"
"image-keyboard-response",442,337709,"0.0-4.143-1.143","h6cbb825pj0rggx",961,"116.csv","","null","resources/maskTrios/BBA2.jpg","null","",NA,NA,NA,NA,""
"image-keyboard-response",443,338911,"0.0-4.143-2.143","h6cbb825pj0rggx",961,"116.csv","","null","resources/images/fishbone.png","null","",NA,NA,NA,NA,""
"image-keyboard-response",444,339315,"0.0-4.144-0.144","h6cbb825pj0rggx",961,"116.csv","","401.3999999985099","resources/trios/L4T4A2.jpg","38","restless",0.5,0.5,0.4,0.46594405831109,"true"
"image-keyboard-response",445,339719,"0.0-4.144-1.144","h6cbb825pj0rggx",961,"116.csv","","null","resources/maskTrios/BT4B.jpg","null","",NA,NA,NA,NA,""
"image-keyboard-response",446,340921,"0.0-4.144-2.144","h6cbb825pj0rggx",961,"116.csv","","null","resources/images/coin2.png","null","",NA,NA,NA,NA,""
"image-keyboard-response",447,341192,"0.0-4.145-0.145","h6cbb825pj0rggx",961,"116.csv","","267.5999999977648","resources/trios/L4T4A2.jpg","38","restless",0.5,0.5,0.4,0.674436834860925,"false"
"image-keyboard-response",448,341594,"0.0-4.145-1.145","h6cbb825pj0rggx",961,"116.csv","","null","resources/maskTrios/BT4B.jpg","null","",NA,NA,NA,NA,""
"image-keyboard-response",449,342796,"0.0-4.145-2.145","h6cbb825pj0rggx",961,"116.csv","","null","resources/images/fishbone.png","null","",NA,NA,NA,NA,""
"image-keyboard-response",450,343021,"0.0-4.146-0.146","h6cbb825pj0rggx",961,"116.csv","","222.69999999925494","resources/trios/L4T4A2.jpg","37","restless",0.5,0.5,0.4,0.14813252819205,"true"
"image-keyboard-response",451,343424,"0.0-4.146-1.146","h6cbb825pj0rggx",961,"116.csv","","null","resources/maskTrios/L4BB.jpg","null","",NA,NA,NA,NA,""
"image-keyboard-response",452,344627,"0.0-4.146-2.146","h6cbb825pj0rggx",961,"116.csv","","null","resources/images/coin2.png","null","",NA,NA,NA,NA,""
"image-keyboard-response",453,344893,"0.0-4.147-0.147","h6cbb825pj0rggx",961,"116.csv","","264.0999999977648","resources/trios/L4T4A2.jpg","37","restless",0.5,0.5,0.4,0.524670449444061,"false"
"image-keyboard-response",454,345297,"0.0-4.147-1.147","h6cbb825pj0rggx",961,"116.csv","","null","resources/maskTrios/L4BB.jpg","null","",NA,NA,NA,NA,""
"image-keyboard-response",455,346499,"0.0-4.147-2.147","h6cbb825pj0rggx",961,"116.csv","","null","resources/images/fishbone.png","null","",NA,NA,NA,NA,""
"image-keyboard-response",456,346841,"0.0-4.148-0.148","h6cbb825pj0rggx",961,"116.csv","","340.0999999977648","resources/trios/L4T4A2.jpg","39","restless",0.5,0.5,0.4,0.593689841308953,"false"
"image-keyboard-response",457,347245,"0.0-4.148-1.148","h6cbb825pj0rggx",961,"116.csv","","null","resources/maskTrios/BBA2.jpg","null","",NA,NA,NA,NA,""
"image-keyboard-response",458,348448,"0.0-4.148-2.148","h6cbb825pj0rggx",961,"116.csv","","null","resources/images/fishbone.png","null","",NA,NA,NA,NA,""
"image-keyboard-response",459,348754,"0.0-4.149-0.149","h6cbb825pj0rggx",961,"116.csv","","303.80000000074506","resources/trios/L4T4A2.jpg","38","restless",0.5,0.5,0.4,0.620979327637879,"false"
"image-keyboard-response",460,349157,"0.0-4.149-1.149","h6cbb825pj0rggx",961,"116.csv","","null","resources/maskTrios/BT4B.jpg","null","",NA,NA,NA,NA,""
"image-keyboard-response",461,350360,"0.0-4.149-2.149","h6cbb825pj0rggx",961,"116.csv","","null","resources/images/fishbone.png","null","",NA,NA,NA,NA,""
"image-keyboard-response",462,350623,"0.0-4.150-0.150","h6cbb825pj0rggx",961,"116.csv","","261","resources/trios/L4T4A2.jpg","37","restless",0.5,0.5,0.4,0.6803684175497,"false"
"image-keyboard-response",463,351037,"0.0-4.150-1.150","h6cbb825pj0rggx",961,"116.csv","","null","resources/maskTrios/L4BB.jpg","null","",NA,NA,NA,NA,""
"image-keyboard-response",464,352239,"0.0-4.150-2.150","h6cbb825pj0rggx",961,"116.csv","","null","resources/images/fishbone.png","null","",NA,NA,NA,NA,""
"image-keyboard-response",465,352606,"0.0-4.151-0.151","h6cbb825pj0rggx",961,"116.csv","","364.6000000014901","resources/trios/L4T4A2.jpg","39","restless",0.5,0.5,0.5,0.170228106000969,"true"
"image-keyboard-response",466,353009,"0.0-4.151-1.151","h6cbb825pj0rggx",961,"116.csv","","null","resources/maskTrios/BBA2.jpg","null","",NA,NA,NA,NA,""
"image-keyboard-response",467,354217,"0.0-4.151-2.151","h6cbb825pj0rggx",961,"116.csv","","null","resources/images/coin2.png","null","",NA,NA,NA,NA,""
"image-keyboard-response",468,354510,"0.0-4.152-0.152","h6cbb825pj0rggx",961,"116.csv","","290.5","resources/trios/L4T4A2.jpg","39","restless",0.5,0.5,0.5,0.988861605811522,"false"
"image-keyboard-response",469,354914,"0.0-4.152-1.152","h6cbb825pj0rggx",961,"116.csv","","null","resources/maskTrios/BBA2.jpg","null","",NA,NA,NA,NA,""
"image-keyboard-response",470,356116,"0.0-4.152-2.152","h6cbb825pj0rggx",961,"116.csv","","null","resources/images/fishbone.png","null","",NA,NA,NA,NA,""
"image-keyboard-response",471,356361,"0.0-4.153-0.153","h6cbb825pj0rggx",961,"116.csv","","242.5","resources/trios/L4T4A2.jpg","38","restless",0.5,0.5,0.5,0.111502846755256,"true"
"image-keyboard-response",472,356764,"0.0-4.153-1.153","h6cbb825pj0rggx",961,"116.csv","","null","resources/maskTrios/BT4B.jpg","null","",NA,NA,NA,NA,""
"image-keyboard-response",473,357968,"0.0-4.153-2.153","h6cbb825pj0rggx",961,"116.csv","","null","resources/images/coin2.png","null","",NA,NA,NA,NA,""
"image-keyboard-response",474,358215,"0.0-4.154-0.154","h6cbb825pj0rggx",961,"116.csv","","244.59999999776483","resources/trios/L4T4A2.jpg","38","restless",0.5,0.5,0.5,0.337159477477884,"true"
"image-keyboard-response",475,358619,"0.0-4.154-1.154","h6cbb825pj0rggx",961,"116.csv","","null","resources/maskTrios/BT4B.jpg","null","",NA,NA,NA,NA,""
"image-keyboard-response",476,359822,"0.0-4.154-2.154","h6cbb825pj0rggx",961,"116.csv","","null","resources/images/coin2.png","null","",NA,NA,NA,NA,""
"image-keyboard-response",477,360094,"0.0-4.155-0.155","h6cbb825pj0rggx",961,"116.csv","","269.6000000014901","resources/trios/L4T4A2.jpg","38","restless",0.5,0.5,0.5,0.547670954257434,"false"
"image-keyboard-response",478,360497,"0.0-4.155-1.155","h6cbb825pj0rggx",961,"116.csv","","null","resources/maskTrios/BT4B.jpg","null","",NA,NA,NA,NA,""
"image-keyboard-response",479,361700,"0.0-4.155-2.155","h6cbb825pj0rggx",961,"116.csv","","null","resources/images/fishbone.png","null","",NA,NA,NA,NA,""
"image-keyboard-response",480,361947,"0.0-4.156-0.156","h6cbb825pj0rggx",961,"116.csv","","245.40000000223517","resources/trios/L4T4A2.jpg","37","restless",0.5,0.5,0.5,0.226418473470286,"true"
"image-keyboard-response",481,362351,"0.0-4.156-1.156","h6cbb825pj0rggx",961,"116.csv","","null","resources/maskTrios/L4BB.jpg","null","",NA,NA,NA,NA,""
"image-keyboard-response",482,363553,"0.0-4.156-2.156","h6cbb825pj0rggx",961,"116.csv","","null","resources/images/coin2.png","null","",NA,NA,NA,NA,""
"image-keyboard-response",483,363819,"0.0-4.157-0.157","h6cbb825pj0rggx",961,"116.csv","","263.5999999977648","resources/trios/L4T4A2.jpg","37","restless",0.5,0.5,0.5,0.308314692468747,"true"
"image-keyboard-response",484,364222,"0.0-4.157-1.157","h6cbb825pj0rggx",961,"116.csv","","null","resources/maskTrios/L4BB.jpg","null","",NA,NA,NA,NA,""
"image-keyboard-response",485,365426,"0.0-4.157-2.157","h6cbb825pj0rggx",961,"116.csv","","null","resources/images/coin2.png","null","",NA,NA,NA,NA,""
"image-keyboard-response",486,365656,"0.0-4.158-0.158","h6cbb825pj0rggx",961,"116.csv","","227.69999999925494","resources/trios/L4T4A2.jpg","37","restless",0.5,0.5,0.5,0.169635768363807,"true"
"image-keyboard-response",487,366060,"0.0-4.158-1.158","h6cbb825pj0rggx",961,"116.csv","","null","resources/maskTrios/L4BB.jpg","null","",NA,NA,NA,NA,""
"image-keyboard-response",488,367263,"0.0-4.158-2.158","h6cbb825pj0rggx",961,"116.csv","","null","resources/images/coin2.png","null","",NA,NA,NA,NA,""
"image-keyboard-response",489,367532,"0.0-4.159-0.159","h6cbb825pj0rggx",961,"116.csv","","267.6000000014901","resources/trios/L4T4A2.jpg","37","restless",0.5,0.5,0.5,0.204755373834304,"true"
"image-keyboard-response",490,367935,"0.0-4.159-1.159","h6cbb825pj0rggx",961,"116.csv","","null","resources/maskTrios/L4BB.jpg","null","",NA,NA,NA,NA,""
"image-keyboard-response",491,369139,"0.0-4.159-2.159","h6cbb825pj0rggx",961,"116.csv","","null","resources/images/coin2.png","null","",NA,NA,NA,NA,""
"image-keyboard-response",492,369432,"0.0-4.160-0.160","h6cbb825pj0rggx",961,"116.csv","","291.0999999977648","resources/trios/L4T4A2.jpg","37","restless",0.5,0.5,0.5,0.0500523546066409,"true"
"image-keyboard-response",493,369835,"0.0-4.160-1.160","h6cbb825pj0rggx",961,"116.csv","","null","resources/maskTrios/L4BB.jpg","null","",NA,NA,NA,NA,""
"image-keyboard-response",494,371038,"0.0-4.160-2.160","h6cbb825pj0rggx",961,"116.csv","","null","resources/images/coin2.png","null","",NA,NA,NA,NA,""
"image-keyboard-response",495,371338,"0.0-4.161-0.161","h6cbb825pj0rggx",961,"116.csv","","297.70000000298023","resources/trios/L4T4A2.jpg","37","restless",0.5,0.5,0.5,0.877399442240009,"false"
"image-keyboard-response",496,371742,"0.0-4.161-1.161","h6cbb825pj0rggx",961,"116.csv","","null","resources/maskTrios/L4BB.jpg","null","",NA,NA,NA,NA,""
"image-keyboard-response",497,372945,"0.0-4.161-2.161","h6cbb825pj0rggx",961,"116.csv","","null","resources/images/fishbone.png","null","",NA,NA,NA,NA,""
"image-keyboard-response",498,373266,"0.0-4.162-0.162","h6cbb825pj0rggx",961,"116.csv","","318.69999999925494","resources/trios/L4T4A2.jpg","38","restless",0.4,0.5,0.5,0.0224538797203504,"true"
"image-keyboard-response",499,373669,"0.0-4.162-1.162","h6cbb825pj0rggx",961,"116.csv","","null","resources/maskTrios/BT4B.jpg","null","",NA,NA,NA,NA,""
"image-keyboard-response",500,374871,"0.0-4.162-2.162","h6cbb825pj0rggx",961,"116.csv","","null","resources/images/coin2.png","null","",NA,NA,NA,NA,""
"image-keyboard-response",501,375127,"0.0-4.163-0.163","h6cbb825pj0rggx",961,"116.csv","","253.30000000074506","resources/trios/L4T4A2.jpg","38","restless",0.4,0.5,0.5,0.104485591765022,"true"
"image-keyboard-response",502,375531,"0.0-4.163-1.163","h6cbb825pj0rggx",961,"116.csv","","null","resources/maskTrios/BT4B.jpg","null","",NA,NA,NA,NA,""
"image-keyboard-response",503,376733,"0.0-4.163-2.163","h6cbb825pj0rggx",961,"116.csv","","null","resources/images/coin2.png","null","",NA,NA,NA,NA,""
"image-keyboard-response",504,376985,"0.0-4.164-0.164","h6cbb825pj0rggx",961,"116.csv","","249.90000000223517","resources/trios/L4T4A2.jpg","38","restless",0.4,0.5,0.5,0.692689677173225,"false"
"image-keyboard-response",505,377388,"0.0-4.164-1.164","h6cbb825pj0rggx",961,"116.csv","","null","resources/maskTrios/BT4B.jpg","null","",NA,NA,NA,NA,""
"image-keyboard-response",506,378591,"0.0-4.164-2.164","h6cbb825pj0rggx",961,"116.csv","","null","resources/images/fishbone.png","null","",NA,NA,NA,NA,""
"image-keyboard-response",507,378856,"0.0-4.165-0.165","h6cbb825pj0rggx",961,"116.csv","","262.19999999925494","resources/trios/L4T4A2.jpg","37","restless",0.5,0.5,0.5,0.729019388113775,"false"
"image-keyboard-response",508,379260,"0.0-4.165-1.165","h6cbb825pj0rggx",961,"116.csv","","null","resources/maskTrios/L4BB.jpg","null","",NA,NA,NA,NA,""
"image-keyboard-response",509,380475,"0.0-4.165-2.165","h6cbb825pj0rggx",961,"116.csv","","null","resources/images/fishbone.png","null","",NA,NA,NA,NA,""
"image-keyboard-response",510,380723,"0.0-4.166-0.166","h6cbb825pj0rggx",961,"116.csv","","244.60000000149012","resources/trios/L4T4A2.jpg","39","restless",0.5,0.5,0.6,0.268018144535016,"true"
"image-keyboard-response",511,381127,"0.0-4.166-1.166","h6cbb825pj0rggx",961,"116.csv","","null","resources/maskTrios/BBA2.jpg","null","",NA,NA,NA,NA,""
"image-keyboard-response",512,382329,"0.0-4.166-2.166","h6cbb825pj0rggx",961,"116.csv","","null","resources/images/coin2.png","null","",NA,NA,NA,NA,""
"image-keyboard-response",513,382610,"0.0-4.167-0.167","h6cbb825pj0rggx",961,"116.csv","","278.3999999985099","resources/trios/L4T4A2.jpg","39","restless",0.5,0.5,0.6,0.503371864893899,"true"
"image-keyboard-response",514,383013,"0.0-4.167-1.167","h6cbb825pj0rggx",961,"116.csv","","null","resources/maskTrios/BBA2.jpg","null","",NA,NA,NA,NA,""
"image-keyboard-response",515,384216,"0.0-4.167-2.167","h6cbb825pj0rggx",961,"116.csv","","null","resources/images/coin2.png","null","",NA,NA,NA,NA,""
"image-keyboard-response",516,384609,"0.0-4.168-0.168","h6cbb825pj0rggx",961,"116.csv","","390.1000000014901","resources/trios/L4T4A2.jpg","39","restless",0.5,0.5,0.6,0.591866643138371,"true"
"image-keyboard-response",517,385011,"0.0-4.168-1.168","h6cbb825pj0rggx",961,"116.csv","","null","resources/maskTrios/BBA2.jpg","null","",NA,NA,NA,NA,""
"image-keyboard-response",518,386214,"0.0-4.168-2.168","h6cbb825pj0rggx",961,"116.csv","","null","resources/images/coin2.png","null","",NA,NA,NA,NA,""
"image-keyboard-response",519,387086,"0.0-4.169-0.169","h6cbb825pj0rggx",961,"116.csv","","869.5","resources/trios/L4T4A2.jpg","39","restless",0.5,0.5,0.6,0.109726030667121,"true"
"image-keyboard-response",520,387488,"0.0-4.169-1.169","h6cbb825pj0rggx",961,"116.csv","","null","resources/maskTrios/BBA2.jpg","null","",NA,NA,NA,NA,""
"image-keyboard-response",521,388691,"0.0-4.169-2.169","h6cbb825pj0rggx",961,"116.csv","","null","resources/images/coin2.png","null","",NA,NA,NA,NA,""
"image-keyboard-response",522,389017,"0.0-4.170-0.170","h6cbb825pj0rggx",961,"116.csv","","324.5","resources/trios/L4T4A2.jpg","39","restless",0.5,0.5,0.6,0.971460956844845,"false"
"image-keyboard-response",523,389420,"0.0-4.170-1.170","h6cbb825pj0rggx",961,"116.csv","","null","resources/maskTrios/BBA2.jpg","null","",NA,NA,NA,NA,""
"image-keyboard-response",524,390623,"0.0-4.170-2.170","h6cbb825pj0rggx",961,"116.csv","","null","resources/images/fishbone.png","null","",NA,NA,NA,NA,""
"image-keyboard-response",525,390985,"0.0-4.171-0.171","h6cbb825pj0rggx",961,"116.csv","","360.1000000014901","resources/trios/L4T4A2.jpg","37","restless",0.5,0.5,0.6,0.973093016511491,"false"
"image-keyboard-response",526,391400,"0.0-4.171-1.171","h6cbb825pj0rggx",961,"116.csv","","null","resources/maskTrios/L4BB.jpg","null","",NA,NA,NA,NA,""
"image-keyboard-response",527,392602,"0.0-4.171-2.171","h6cbb825pj0rggx",961,"116.csv","","null","resources/images/fishbone.png","null","",NA,NA,NA,NA,""
"image-keyboard-response",528,392876,"0.0-4.172-0.172","h6cbb825pj0rggx",961,"116.csv","","271","resources/trios/L4T4A2.jpg","37","restless",0.5,0.5,0.5,0.1490161138501,"true"
"image-keyboard-response",529,393280,"0.0-4.172-1.172","h6cbb825pj0rggx",961,"116.csv","","null","resources/maskTrios/L4BB.jpg","null","",NA,NA,NA,NA,""
"image-keyboard-response",530,394482,"0.0-4.172-2.172","h6cbb825pj0rggx",961,"116.csv","","null","resources/images/coin2.png","null","",NA,NA,NA,NA,""
"image-keyboard-response",531,394748,"0.0-4.173-0.173","h6cbb825pj0rggx",961,"116.csv","","263.29999999701977","resources/trios/L4T4A2.jpg","37","restless",0.5,0.5,0.5,0.726336198286136,"false"
"image-keyboard-response",532,395151,"0.0-4.173-1.173","h6cbb825pj0rggx",961,"116.csv","","null","resources/maskTrios/L4BB.jpg","null","",NA,NA,NA,NA,""
"image-keyboard-response",533,396354,"0.0-4.173-2.173","h6cbb825pj0rggx",961,"116.csv","","null","resources/images/fishbone.png","null","",NA,NA,NA,NA,""
"image-keyboard-response",534,396681,"0.0-4.174-0.174","h6cbb825pj0rggx",961,"116.csv","","324.79999999701977","resources/trios/L4T4A2.jpg","39","restless",0.5,0.5,0.5,0.170174396563911,"true"
"image-keyboard-response",535,397085,"0.0-4.174-1.174","h6cbb825pj0rggx",961,"116.csv","","null","resources/maskTrios/BBA2.jpg","null","",NA,NA,NA,NA,""
"image-keyboard-response",536,398287,"0.0-4.174-2.174","h6cbb825pj0rggx",961,"116.csv","","null","resources/images/coin2.png","null","",NA,NA,NA,NA,""
"image-keyboard-response",537,398543,"0.0-4.175-0.175","h6cbb825pj0rggx",961,"116.csv","","253.20000000298023","resources/trios/L4T4A2.jpg","39","restless",0.5,0.6,0.5,0.179034111104959,"true"
"image-keyboard-response",538,398947,"0.0-4.175-1.175","h6cbb825pj0rggx",961,"116.csv","","null","resources/maskTrios/BBA2.jpg","null","",NA,NA,NA,NA,""
"image-keyboard-response",539,400151,"0.0-4.175-2.175","h6cbb825pj0rggx",961,"116.csv","","null","resources/images/coin2.png","null","",NA,NA,NA,NA,""
"image-keyboard-response",540,400452,"0.0-4.176-0.176","h6cbb825pj0rggx",961,"116.csv","","298.5","resources/trios/L4T4A2.jpg","39","restless",0.5,0.6,0.5,0.264430500102286,"true"
"image-keyboard-response",541,400855,"0.0-4.176-1.176","h6cbb825pj0rggx",961,"116.csv","","null","resources/maskTrios/BBA2.jpg","null","",NA,NA,NA,NA,""
"image-keyboard-response",542,402058,"0.0-4.176-2.176","h6cbb825pj0rggx",961,"116.csv","","null","resources/images/coin2.png","null","",NA,NA,NA,NA,""
"image-keyboard-response",543,402354,"0.0-4.177-0.177","h6cbb825pj0rggx",961,"116.csv","","294.4000000022352","resources/trios/L4T4A2.jpg","39","restless",0.5,0.6,0.4,0.481831255370812,"false"
"image-keyboard-response",544,402757,"0.0-4.177-1.177","h6cbb825pj0rggx",961,"116.csv","","null","resources/maskTrios/BBA2.jpg","null","",NA,NA,NA,NA,""
"image-keyboard-response",545,403960,"0.0-4.177-2.177","h6cbb825pj0rggx",961,"116.csv","","null","resources/images/fishbone.png","null","",NA,NA,NA,NA,""
"image-keyboard-response",546,404376,"0.0-4.178-0.178","h6cbb825pj0rggx",961,"116.csv","","414","resources/trios/L4T4A2.jpg","38","restless",0.5,0.6,0.4,0.560807278957612,"true"
"image-keyboard-response",547,404787,"0.0-4.178-1.178","h6cbb825pj0rggx",961,"116.csv","","null","resources/maskTrios/BT4B.jpg","null","",NA,NA,NA,NA,""
"image-keyboard-response",548,405991,"0.0-4.178-2.178","h6cbb825pj0rggx",961,"116.csv","","null","resources/images/coin2.png","null","",NA,NA,NA,NA,""
"image-keyboard-response",549,406361,"0.0-4.179-0.179","h6cbb825pj0rggx",961,"116.csv","","368","resources/trios/L4T4A2.jpg","38","restless",0.5,0.6,0.4,0.770764757765336,"false"
"image-keyboard-response",550,406763,"0.0-4.179-1.179","h6cbb825pj0rggx",961,"116.csv","","null","resources/maskTrios/BT4B.jpg","null","",NA,NA,NA,NA,""
"image-keyboard-response",551,407967,"0.0-4.179-2.179","h6cbb825pj0rggx",961,"116.csv","","null","resources/images/fishbone.png","null","",NA,NA,NA,NA,""
"image-keyboard-response",552,408188,"0.0-4.180-0.180","h6cbb825pj0rggx",961,"116.csv","","219","resources/trios/L4T4A2.jpg","39","restless",0.5,0.6,0.4,0.620655268832771,"false"
"image-keyboard-response",553,408592,"0.0-4.180-1.180","h6cbb825pj0rggx",961,"116.csv","","null","resources/maskTrios/BBA2.jpg","null","",NA,NA,NA,NA,""
"image-keyboard-response",554,409795,"0.0-4.180-2.180","h6cbb825pj0rggx",961,"116.csv","","null","resources/images/fishbone.png","null","",NA,NA,NA,NA,""
"image-keyboard-response",555,410047,"0.0-4.181-0.181","h6cbb825pj0rggx",961,"116.csv","","249.60000000149012","resources/trios/L4T4A2.jpg","39","restless",0.5,0.6,0.4,0.591951343354312,"false"
"image-keyboard-response",556,410451,"0.0-4.181-1.181","h6cbb825pj0rggx",961,"116.csv","","null","resources/maskTrios/BBA2.jpg","null","",NA,NA,NA,NA,""
"image-keyboard-response",557,411653,"0.0-4.181-2.181","h6cbb825pj0rggx",961,"116.csv","","null","resources/images/fishbone.png","null","",NA,NA,NA,NA,""
"image-keyboard-response",558,411911,"0.0-4.182-0.182","h6cbb825pj0rggx",961,"116.csv","","255.10000000149012","resources/trios/L4T4A2.jpg","38","restless",0.5,0.6,0.4,0.471823606238596,"true"
"image-keyboard-response",559,412313,"0.0-4.182-1.182","h6cbb825pj0rggx",961,"116.csv","","null","resources/maskTrios/BT4B.jpg","null","",NA,NA,NA,NA,""
"image-keyboard-response",560,413515,"0.0-4.182-2.182","h6cbb825pj0rggx",961,"116.csv","","null","resources/images/coin2.png","null","",NA,NA,NA,NA,""
"image-keyboard-response",561,413761,"0.0-4.183-0.183","h6cbb825pj0rggx",961,"116.csv","","243.90000000223517","resources/trios/L4T4A2.jpg","38","restless",0.5,0.6,0.4,0.249891588712488,"true"
"image-keyboard-response",562,414165,"0.0-4.183-1.183","h6cbb825pj0rggx",961,"116.csv","","null","resources/maskTrios/BT4B.jpg","null","",NA,NA,NA,NA,""
"image-keyboard-response",563,415367,"0.0-4.183-2.183","h6cbb825pj0rggx",961,"116.csv","","null","resources/images/coin2.png","null","",NA,NA,NA,NA,""
"image-keyboard-response",564,415708,"0.0-4.184-0.184","h6cbb825pj0rggx",961,"116.csv","","338.5","resources/trios/L4T4A2.jpg","38","restless",0.5,0.6,0.4,0.730805422217993,"false"
"image-keyboard-response",565,416112,"0.0-4.184-1.184","h6cbb825pj0rggx",961,"116.csv","","null","resources/maskTrios/BT4B.jpg","null","",NA,NA,NA,NA,""
"image-keyboard-response",566,417315,"0.0-4.184-2.184","h6cbb825pj0rggx",961,"116.csv","","null","resources/images/fishbone.png","null","",NA,NA,NA,NA,""
"image-keyboard-response",567,417594,"0.0-4.185-0.185","h6cbb825pj0rggx",961,"116.csv","","275.8999999985099","resources/trios/L4T4A2.jpg","37","restless",0.5,0.5,0.4,0.42650205074428,"true"
"image-keyboard-response",568,417998,"0.0-4.185-1.185","h6cbb825pj0rggx",961,"116.csv","","null","resources/maskTrios/L4BB.jpg","null","",NA,NA,NA,NA,""
"image-keyboard-response",569,419201,"0.0-4.185-2.185","h6cbb825pj0rggx",961,"116.csv","","null","resources/images/coin2.png","null","",NA,NA,NA,NA,""
"image-keyboard-response",570,419579,"0.0-4.186-0.186","h6cbb825pj0rggx",961,"116.csv","","375.6000000014901","resources/trios/L4T4A2.jpg","37","restless",0.5,0.5,0.4,0.664603567955145,"false"
"image-keyboard-response",571,419982,"0.0-4.186-1.186","h6cbb825pj0rggx",961,"116.csv","","null","resources/maskTrios/L4BB.jpg","null","",NA,NA,NA,NA,""
"image-keyboard-response",572,421184,"0.0-4.186-2.186","h6cbb825pj0rggx",961,"116.csv","","null","resources/images/fishbone.png","null","",NA,NA,NA,NA,""
"image-keyboard-response",573,421427,"0.0-4.187-0.187","h6cbb825pj0rggx",961,"116.csv","","241.40000000223517","resources/trios/L4T4A2.jpg","38","restless",0.5,0.5,0.4,0.895962479379052,"false"
"image-keyboard-response",574,421831,"0.0-4.187-1.187","h6cbb825pj0rggx",961,"116.csv","","null","resources/maskTrios/BT4B.jpg","null","",NA,NA,NA,NA,""
"image-keyboard-response",575,423033,"0.0-4.187-2.187","h6cbb825pj0rggx",961,"116.csv","","null","resources/images/fishbone.png","null","",NA,NA,NA,NA,""
"image-keyboard-response",576,423221,"0.0-4.188-0.188","h6cbb825pj0rggx",961,"116.csv","","186.09999999776483","resources/trios/L4T4A2.jpg","38","restless",0.5,0.5,0.4,0.0425622786982065,"true"
"image-keyboard-response",577,423626,"0.0-4.188-1.188","h6cbb825pj0rggx",961,"116.csv","","null","resources/maskTrios/BT4B.jpg","null","",NA,NA,NA,NA,""
"image-keyboard-response",578,424829,"0.0-4.188-2.188","h6cbb825pj0rggx",961,"116.csv","","null","resources/images/coin2.png","null","",NA,NA,NA,NA,""
"image-keyboard-response",579,425110,"0.0-4.189-0.189","h6cbb825pj0rggx",961,"116.csv","","278.5","resources/trios/L4T4A2.jpg","38","restless",0.5,0.4,0.4,0.104369220446412,"true"
"image-keyboard-response",580,425513,"0.0-4.189-1.189","h6cbb825pj0rggx",961,"116.csv","","null","resources/maskTrios/BT4B.jpg","null","",NA,NA,NA,NA,""
"image-keyboard-response",581,426716,"0.0-4.189-2.189","h6cbb825pj0rggx",961,"116.csv","","null","resources/images/coin2.png","null","",NA,NA,NA,NA,""
"image-keyboard-response",582,426973,"0.0-4.190-0.190","h6cbb825pj0rggx",961,"116.csv","","255","resources/trios/L4T4A2.jpg","38","restless",0.5,0.4,0.4,0.317555219516654,"true"
"image-keyboard-response",583,427376,"0.0-4.190-1.190","h6cbb825pj0rggx",961,"116.csv","","null","resources/maskTrios/BT4B.jpg","null","",NA,NA,NA,NA,""
"image-keyboard-response",584,428579,"0.0-4.190-2.190","h6cbb825pj0rggx",961,"116.csv","","null","resources/images/coin2.png","null","",NA,NA,NA,NA,""
"image-keyboard-response",585,428856,"0.0-4.191-0.191","h6cbb825pj0rggx",961,"116.csv","","275","resources/trios/L4T4A2.jpg","38","restless",0.5,0.4,0.4,0.701653213633274,"false"
"image-keyboard-response",586,429259,"0.0-4.191-1.191","h6cbb825pj0rggx",961,"116.csv","","null","resources/maskTrios/BT4B.jpg","null","",NA,NA,NA,NA,""
"image-keyboard-response",587,430463,"0.0-4.191-2.191","h6cbb825pj0rggx",961,"116.csv","","null","resources/images/fishbone.png","null","",NA,NA,NA,NA,""
"image-keyboard-response",588,430757,"0.0-4.192-0.192","h6cbb825pj0rggx",961,"116.csv","","292.20000000298023","resources/trios/L4T4A2.jpg","37","restless",0.5,0.4,0.4,0.536136704922762,"false"
"image-keyboard-response",589,431161,"0.0-4.192-1.192","h6cbb825pj0rggx",961,"116.csv","","null","resources/maskTrios/L4BB.jpg","null","",NA,NA,NA,NA,""
"image-keyboard-response",590,432364,"0.0-4.192-2.192","h6cbb825pj0rggx",961,"116.csv","","null","resources/images/fishbone.png","null","",NA,NA,NA,NA,""
"image-keyboard-response",591,432590,"0.0-4.193-0.193","h6cbb825pj0rggx",961,"116.csv","","223.60000000149012","resources/trios/L4T4A2.jpg","37","restless",0.5,0.4,0.4,0.693325435143229,"false"
"image-keyboard-response",592,432994,"0.0-4.193-1.193","h6cbb825pj0rggx",961,"116.csv","","null","resources/maskTrios/L4BB.jpg","null","",NA,NA,NA,NA,""
"image-keyboard-response",593,434197,"0.0-4.193-2.193","h6cbb825pj0rggx",961,"116.csv","","null","resources/images/fishbone.png","null","",NA,NA,NA,NA,""
"image-keyboard-response",594,434440,"0.0-4.194-0.194","h6cbb825pj0rggx",961,"116.csv","","240","resources/trios/L4T4A2.jpg","39","restless",0.5,0.4,0.4,0.106789056697859,"true"
"image-keyboard-response",595,434843,"0.0-4.194-1.194","h6cbb825pj0rggx",961,"116.csv","","null","resources/maskTrios/BBA2.jpg","null","",NA,NA,NA,NA,""
"image-keyboard-response",596,436046,"0.0-4.194-2.194","h6cbb825pj0rggx",961,"116.csv","","null","resources/images/coin2.png","null","",NA,NA,NA,NA,""
"image-keyboard-response",597,436363,"0.0-4.195-0.195","h6cbb825pj0rggx",961,"116.csv","","315","resources/trios/L4T4A2.jpg","39","restless",0.5,0.4,0.5,0.909112525664364,"false"
"image-keyboard-response",598,436766,"0.0-4.195-1.195","h6cbb825pj0rggx",961,"116.csv","","null","resources/maskTrios/BBA2.jpg","null","",NA,NA,NA,NA,""
"image-keyboard-response",599,437969,"0.0-4.195-2.195","h6cbb825pj0rggx",961,"116.csv","","null","resources/images/fishbone.png","null","",NA,NA,NA,NA,""
"image-keyboard-response",600,438219,"0.0-4.196-0.196","h6cbb825pj0rggx",961,"116.csv","","248.10000000149012","resources/trios/L4T4A2.jpg","37","restless",0.5,0.4,0.5,0.626811528932783,"false"
"image-keyboard-response",601,438622,"0.0-4.196-1.196","h6cbb825pj0rggx",961,"116.csv","","null","resources/maskTrios/L4BB.jpg","null","",NA,NA,NA,NA,""
"image-keyboard-response",602,439824,"0.0-4.196-2.196","h6cbb825pj0rggx",961,"116.csv","","null","resources/images/fishbone.png","null","",NA,NA,NA,NA,""
"image-keyboard-response",603,440062,"0.0-4.197-0.197","h6cbb825pj0rggx",961,"116.csv","","236","resources/trios/L4T4A2.jpg","38","restless",0.5,0.3,0.5,0.0878397020999018,"true"
"image-keyboard-response",604,440466,"0.0-4.197-1.197","h6cbb825pj0rggx",961,"116.csv","","null","resources/maskTrios/BT4B.jpg","null","",NA,NA,NA,NA,""
"image-keyboard-response",605,441679,"0.0-4.197-2.197","h6cbb825pj0rggx",961,"116.csv","","null","resources/images/coin2.png","null","",NA,NA,NA,NA,""
"image-keyboard-response",606,441908,"0.0-4.198-0.198","h6cbb825pj0rggx",961,"116.csv","","226.89999999850988","resources/trios/L4T4A2.jpg","38","restless",0.5,0.3,0.5,0.237870719665374,"true"
"image-keyboard-response",607,442310,"0.0-4.198-1.198","h6cbb825pj0rggx",961,"116.csv","","null","resources/maskTrios/BT4B.jpg","null","",NA,NA,NA,NA,""
"image-keyboard-response",608,443514,"0.0-4.198-2.198","h6cbb825pj0rggx",961,"116.csv","","null","resources/images/coin2.png","null","",NA,NA,NA,NA,""
