"trial_type","trial_index","time_elapsed","internal_node_id","subject","participantCode","walkNumber","success","rt","stimulus","key_press","test_part","leftProb","midProb","rightProb","generatedNum","correct"
"pavlovia",0,1710,"0.0-0.0","vu35x6fdppjvx2d",325,"149.csv","","","","","",NA,NA,NA,NA,""
"fullscreen",1,5786,"0.0-1.0","vu35x6fdppjvx2d",325,"149.csv","true","","","","",NA,NA,NA,NA,""
"survey-html-form",2,16747,"0.0-2.0","vu35x6fdppjvx2d",325,"149.csv","","10934.10000000894","","","",NA,NA,NA,NA,""
"image-keyboard-response",3,38581,"0.0-3.0-0.0","vu35x6fdppjvx2d",325,"149.csv","","21829.80000001192","resources/images/parrot_nobg.png","13","",NA,NA,NA,NA,""
"image-keyboard-response",4,41584,"0.0-3.0-1.0","vu35x6fdppjvx2d",325,"149.csv","","null","resources/image_sets/111.png","null","",NA,NA,NA,NA,""
"image-keyboard-response",5,48812,"0.0-3.0-2.0","vu35x6fdppjvx2d",325,"149.csv","","7227.100000008941","resources/image_sets/left_highlight.png","37","",NA,NA,NA,NA,""
"image-keyboard-response",6,51298,"0.0-3.0-3.0","vu35x6fdppjvx2d",325,"149.csv","","2483.7999999970198","resources/image_sets/mid_highlight.png","38","",NA,NA,NA,NA,""
"image-keyboard-response",7,52205,"0.0-3.0-4.0","vu35x6fdppjvx2d",325,"149.csv","","906","resources/image_sets/right_highlight.png","39","",NA,NA,NA,NA,""
"image-keyboard-response",8,55513,"0.0-3.0-5.0","vu35x6fdppjvx2d",325,"149.csv","","3306.7000000029802","resources/image_sets/111.png","13","",NA,NA,NA,NA,""
"image-keyboard-response",9,57793,"0.0-3.0-6.0","vu35x6fdppjvx2d",325,"149.csv","","2278.5","resources/images/coin2.png","13","",NA,NA,NA,NA,""
"image-keyboard-response",10,59140,"0.0-3.0-7.0","vu35x6fdppjvx2d",325,"149.csv","","1344.9000000059605","resources/images/fishbone.png","13","",NA,NA,NA,NA,""
"html-keyboard-response",11,65718,"0.0-3.0-8.0","vu35x6fdppjvx2d",325,"149.csv","","6575.600000008941","<p>You can track your coin total on the top right of your screen. </p><p>At the end of your journey you will be directed to a survey, so please click on the link before exiting the task</p><p>Press Enter to begin</p>","13","",NA,NA,NA,NA,""
"image-keyboard-response",12,68031,"0.0-4.0-0.0","vu35x6fdppjvx2d",325,"149.csv","","2310","resources/trios/L1T2A3.jpg","38","restless",0.3,0.9,0.7,0.433670791194534,"true"
"image-keyboard-response",13,68434,"0.0-4.0-1.0","vu35x6fdppjvx2d",325,"149.csv","","null","resources/maskTrios/BT2B.jpg","null","",NA,NA,NA,NA,""
"image-keyboard-response",14,69637,"0.0-4.0-2.0","vu35x6fdppjvx2d",325,"149.csv","","null","resources/images/coin2.png","null","",NA,NA,NA,NA,""
"image-keyboard-response",15,70723,"0.0-4.1-0.1","vu35x6fdppjvx2d",325,"149.csv","","1084.4000000059605","resources/trios/L1T2A3.jpg","38","restless",0.3,0.9,0.7,0.0161400569690335,"true"
"image-keyboard-response",16,71125,"0.0-4.1-1.1","vu35x6fdppjvx2d",325,"149.csv","","null","resources/maskTrios/BT2B.jpg","null","",NA,NA,NA,NA,""
"image-keyboard-response",17,72327,"0.0-4.1-2.1","vu35x6fdppjvx2d",325,"149.csv","","null","resources/images/coin2.png","null","",NA,NA,NA,NA,""
"image-keyboard-response",18,72984,"0.0-4.2-0.2","vu35x6fdppjvx2d",325,"149.csv","","656","resources/trios/L1T2A3.jpg","37","restless",0.3,0.8,0.7,0.787095611405495,"false"
"image-keyboard-response",19,73386,"0.0-4.2-1.2","vu35x6fdppjvx2d",325,"149.csv","","null","resources/maskTrios/L1BB.jpg","null","",NA,NA,NA,NA,""
"image-keyboard-response",20,74588,"0.0-4.2-2.2","vu35x6fdppjvx2d",325,"149.csv","","null","resources/images/fishbone.png","null","",NA,NA,NA,NA,""
"image-keyboard-response",21,75020,"0.0-4.3-0.3","vu35x6fdppjvx2d",325,"149.csv","","430.5","resources/trios/L1T2A3.jpg","38","restless",0.3,0.8,0.7,0.043770593591725,"true"
"image-keyboard-response",22,75421,"0.0-4.3-1.3","vu35x6fdppjvx2d",325,"149.csv","","null","resources/maskTrios/BT2B.jpg","null","",NA,NA,NA,NA,""
"image-keyboard-response",23,76623,"0.0-4.3-2.3","vu35x6fdppjvx2d",325,"149.csv","","null","resources/images/coin2.png","null","",NA,NA,NA,NA,""
"image-keyboard-response",24,77011,"0.0-4.4-0.4","vu35x6fdppjvx2d",325,"149.csv","","386.70000000298023","resources/trios/L1T2A3.jpg","38","restless",0.3,0.8,0.7,0.872400826485213,"false"
"image-keyboard-response",25,77415,"0.0-4.4-1.4","vu35x6fdppjvx2d",325,"149.csv","","null","resources/maskTrios/BT2B.jpg","null","",NA,NA,NA,NA,""
"image-keyboard-response",26,78617,"0.0-4.4-2.4","vu35x6fdppjvx2d",325,"149.csv","","null","resources/images/fishbone.png","null","",NA,NA,NA,NA,""
"image-keyboard-response",27,78876,"0.0-4.5-0.5","vu35x6fdppjvx2d",325,"149.csv","","257.79999999701977","resources/trios/L1T2A3.jpg","39","restless",0.3,0.8,0.7,0.125040008782398,"true"
"image-keyboard-response",28,79278,"0.0-4.5-1.5","vu35x6fdppjvx2d",325,"149.csv","","null","resources/maskTrios/BBA3.jpg","null","",NA,NA,NA,NA,""
"image-keyboard-response",29,80481,"0.0-4.5-2.5","vu35x6fdppjvx2d",325,"149.csv","","null","resources/images/coin2.png","null","",NA,NA,NA,NA,""
"image-keyboard-response",30,80904,"0.0-4.6-0.6","vu35x6fdppjvx2d",325,"149.csv","","420.6000000089407","resources/trios/L1T2A3.jpg","39","restless",0.3,0.8,0.7,0.449892257280128,"true"
"image-keyboard-response",31,81306,"0.0-4.6-1.6","vu35x6fdppjvx2d",325,"149.csv","","null","resources/maskTrios/BBA3.jpg","null","",NA,NA,NA,NA,""
"image-keyboard-response",32,82507,"0.0-4.6-2.6","vu35x6fdppjvx2d",325,"149.csv","","null","resources/images/coin2.png","null","",NA,NA,NA,NA,""
"image-keyboard-response",33,83104,"0.0-4.7-0.7","vu35x6fdppjvx2d",325,"149.csv","","595.2999999970198","resources/trios/L1T2A3.jpg","37","restless",0.2,0.8,0.7,0.193903793938001,"true"
"image-keyboard-response",34,83507,"0.0-4.7-1.7","vu35x6fdppjvx2d",325,"149.csv","","null","resources/maskTrios/L1BB.jpg","null","",NA,NA,NA,NA,""
"image-keyboard-response",35,84709,"0.0-4.7-2.7","vu35x6fdppjvx2d",325,"149.csv","","null","resources/images/coin2.png","null","",NA,NA,NA,NA,""
"image-keyboard-response",36,85640,"0.0-4.8-0.8","vu35x6fdppjvx2d",325,"149.csv","","929.2999999970198","resources/trios/L1T2A3.jpg","38","restless",0.2,0.8,0.7,0.0978635418362466,"true"
"image-keyboard-response",37,86041,"0.0-4.8-1.8","vu35x6fdppjvx2d",325,"149.csv","","null","resources/maskTrios/BT2B.jpg","null","",NA,NA,NA,NA,""
"image-keyboard-response",38,87243,"0.0-4.8-2.8","vu35x6fdppjvx2d",325,"149.csv","","null","resources/images/coin2.png","null","",NA,NA,NA,NA,""
"image-keyboard-response",39,87552,"0.0-4.9-0.9","vu35x6fdppjvx2d",325,"149.csv","","308.09999999403954","resources/trios/L1T2A3.jpg","37","restless",0.2,0.8,0.7,0.158633113520032,"true"
"image-keyboard-response",40,87954,"0.0-4.9-1.9","vu35x6fdppjvx2d",325,"149.csv","","null","resources/maskTrios/L1BB.jpg","null","",NA,NA,NA,NA,""
"image-keyboard-response",41,89156,"0.0-4.9-2.9","vu35x6fdppjvx2d",325,"149.csv","","null","resources/images/coin2.png","null","",NA,NA,NA,NA,""
"image-keyboard-response",42,89216,"0.0-4.10-0.10","vu35x6fdppjvx2d",325,"149.csv","","59.1000000089407","resources/trios/L1T2A3.jpg","39","restless",0.2,0.8,0.7,0.797691373292991,"false"
"image-keyboard-response",43,89618,"0.0-4.10-1.10","vu35x6fdppjvx2d",325,"149.csv","","null","resources/maskTrios/BBA3.jpg","null","",NA,NA,NA,NA,""
"image-keyboard-response",44,90819,"0.0-4.10-2.10","vu35x6fdppjvx2d",325,"149.csv","","null","resources/images/fishbone.png","null","",NA,NA,NA,NA,""
"image-keyboard-response",45,90926,"0.0-4.11-0.11","vu35x6fdppjvx2d",325,"149.csv","","105.20000000298023","resources/trios/L1T2A3.jpg","38","restless",0.2,0.8,0.7,0.423611992530942,"true"
"image-keyboard-response",46,91327,"0.0-4.11-1.11","vu35x6fdppjvx2d",325,"149.csv","","null","resources/maskTrios/BT2B.jpg","null","",NA,NA,NA,NA,""
"image-keyboard-response",47,92529,"0.0-4.11-2.11","vu35x6fdppjvx2d",325,"149.csv","","null","resources/images/coin2.png","null","",NA,NA,NA,NA,""
"image-keyboard-response",48,92785,"0.0-4.12-0.12","vu35x6fdppjvx2d",325,"149.csv","","253.79999999701977","resources/trios/L1T2A3.jpg","38","restless",0.2,0.8,0.7,0.52568015711874,"true"
"image-keyboard-response",49,93187,"0.0-4.12-1.12","vu35x6fdppjvx2d",325,"149.csv","","null","resources/maskTrios/BT2B.jpg","null","",NA,NA,NA,NA,""
"image-keyboard-response",50,94390,"0.0-4.12-2.12","vu35x6fdppjvx2d",325,"149.csv","","null","resources/images/coin2.png","null","",NA,NA,NA,NA,""
"image-keyboard-response",51,94835,"0.0-4.13-0.13","vu35x6fdppjvx2d",325,"149.csv","","443.70000000298023","resources/trios/L1T2A3.jpg","37","restless",0.3,0.8,0.7,0.0456112645896691,"true"
"image-keyboard-response",52,95237,"0.0-4.13-1.13","vu35x6fdppjvx2d",325,"149.csv","","null","resources/maskTrios/L1BB.jpg","null","",NA,NA,NA,NA,""
"image-keyboard-response",53,96438,"0.0-4.13-2.13","vu35x6fdppjvx2d",325,"149.csv","","null","resources/images/coin2.png","null","",NA,NA,NA,NA,""
"image-keyboard-response",54,96787,"0.0-4.14-0.14","vu35x6fdppjvx2d",325,"149.csv","","346.5","resources/trios/L1T2A3.jpg","38","restless",0.3,0.8,0.7,0.243873476066052,"true"
"image-keyboard-response",55,97190,"0.0-4.14-1.14","vu35x6fdppjvx2d",325,"149.csv","","null","resources/maskTrios/BT2B.jpg","null","",NA,NA,NA,NA,""
"image-keyboard-response",56,98392,"0.0-4.14-2.14","vu35x6fdppjvx2d",325,"149.csv","","null","resources/images/coin2.png","null","",NA,NA,NA,NA,""
"image-keyboard-response",57,99331,"0.0-4.15-0.15","vu35x6fdppjvx2d",325,"149.csv","","937.0999999940395","resources/trios/L1T2A3.jpg","39","restless",0.3,0.7,0.8,0.349749280718646,"true"
"image-keyboard-response",58,99733,"0.0-4.15-1.15","vu35x6fdppjvx2d",325,"149.csv","","null","resources/maskTrios/BBA3.jpg","null","",NA,NA,NA,NA,""
"image-keyboard-response",59,100934,"0.0-4.15-2.15","vu35x6fdppjvx2d",325,"149.csv","","null","resources/images/coin2.png","null","",NA,NA,NA,NA,""
"image-keyboard-response",60,101001,"0.0-4.16-0.16","vu35x6fdppjvx2d",325,"149.csv","","65.3999999910593","resources/trios/L1T2A3.jpg","38","restless",0.3,0.7,0.8,0.803379905753168,"false"
"image-keyboard-response",61,101404,"0.0-4.16-1.16","vu35x6fdppjvx2d",325,"149.csv","","null","resources/maskTrios/BT2B.jpg","null","",NA,NA,NA,NA,""
"image-keyboard-response",62,102606,"0.0-4.16-2.16","vu35x6fdppjvx2d",325,"149.csv","","null","resources/images/fishbone.png","null","",NA,NA,NA,NA,""
"image-keyboard-response",63,102699,"0.0-4.17-0.17","vu35x6fdppjvx2d",325,"149.csv","","92.1000000089407","resources/trios/L1T2A3.jpg","39","restless",0.3,0.7,0.8,0.280978467789261,"true"
"image-keyboard-response",64,103102,"0.0-4.17-1.17","vu35x6fdppjvx2d",325,"149.csv","","null","resources/maskTrios/BBA3.jpg","null","",NA,NA,NA,NA,""
"image-keyboard-response",65,104304,"0.0-4.17-2.17","vu35x6fdppjvx2d",325,"149.csv","","null","resources/images/coin2.png","null","",NA,NA,NA,NA,""
"image-keyboard-response",66,104568,"0.0-4.18-0.18","vu35x6fdppjvx2d",325,"149.csv","","263","resources/trios/L1T2A3.jpg","39","restless",0.3,0.7,0.8,0.351649007261336,"true"
"image-keyboard-response",67,104970,"0.0-4.18-1.18","vu35x6fdppjvx2d",325,"149.csv","","null","resources/maskTrios/BBA3.jpg","null","",NA,NA,NA,NA,""
"image-keyboard-response",68,106173,"0.0-4.18-2.18","vu35x6fdppjvx2d",325,"149.csv","","null","resources/images/coin2.png","null","",NA,NA,NA,NA,""
"image-keyboard-response",69,106688,"0.0-4.19-0.19","vu35x6fdppjvx2d",325,"149.csv","","514.2000000029802","resources/trios/L1T2A3.jpg","39","restless",0.3,0.7,0.8,0.635758269721139,"true"
"image-keyboard-response",70,107092,"0.0-4.19-1.19","vu35x6fdppjvx2d",325,"149.csv","","null","resources/maskTrios/BBA3.jpg","null","",NA,NA,NA,NA,""
"image-keyboard-response",71,108294,"0.0-4.19-2.19","vu35x6fdppjvx2d",325,"149.csv","","null","resources/images/coin2.png","null","",NA,NA,NA,NA,""
"image-keyboard-response",72,108771,"0.0-4.20-0.20","vu35x6fdppjvx2d",325,"149.csv","","476.09999999403954","resources/trios/L1T2A3.jpg","37","restless",0.3,0.7,0.8,0.860932671046427,"false"
"image-keyboard-response",73,109173,"0.0-4.20-1.20","vu35x6fdppjvx2d",325,"149.csv","","null","resources/maskTrios/L1BB.jpg","null","",NA,NA,NA,NA,""
"image-keyboard-response",74,110374,"0.0-4.20-2.20","vu35x6fdppjvx2d",325,"149.csv","","null","resources/images/fishbone.png","null","",NA,NA,NA,NA,""
"image-keyboard-response",75,110746,"0.0-4.21-0.21","vu35x6fdppjvx2d",325,"149.csv","","370.29999999701977","resources/trios/L1T2A3.jpg","39","restless",0.3,0.6,0.8,0.888637418520451,"false"
"image-keyboard-response",76,111150,"0.0-4.21-1.21","vu35x6fdppjvx2d",325,"149.csv","","null","resources/maskTrios/BBA3.jpg","null","",NA,NA,NA,NA,""
"image-keyboard-response",77,112351,"0.0-4.21-2.21","vu35x6fdppjvx2d",325,"149.csv","","null","resources/images/fishbone.png","null","",NA,NA,NA,NA,""
"image-keyboard-response",78,112444,"0.0-4.22-0.22","vu35x6fdppjvx2d",325,"149.csv","","91","resources/trios/L1T2A3.jpg","38","restless",0.3,0.6,0.8,0.05217644393621,"true"
"image-keyboard-response",79,112846,"0.0-4.22-1.22","vu35x6fdppjvx2d",325,"149.csv","","null","resources/maskTrios/BT2B.jpg","null","",NA,NA,NA,NA,""
"image-keyboard-response",80,114047,"0.0-4.22-2.22","vu35x6fdppjvx2d",325,"149.csv","","null","resources/images/coin2.png","null","",NA,NA,NA,NA,""
"image-keyboard-response",81,114281,"0.0-4.23-0.23","vu35x6fdppjvx2d",325,"149.csv","","231.8999999910593","resources/trios/L1T2A3.jpg","38","restless",0.3,0.6,0.8,0.818026747253309,"false"
"image-keyboard-response",82,114685,"0.0-4.23-1.23","vu35x6fdppjvx2d",325,"149.csv","","null","resources/maskTrios/BT2B.jpg","null","",NA,NA,NA,NA,""
"image-keyboard-response",83,115886,"0.0-4.23-2.23","vu35x6fdppjvx2d",325,"149.csv","","null","resources/images/fishbone.png","null","",NA,NA,NA,NA,""
"image-keyboard-response",84,115912,"0.0-4.24-0.24","vu35x6fdppjvx2d",325,"149.csv","","24.5","resources/trios/L1T2A3.jpg","37","restless",0.4,0.6,0.8,0.480887160821921,"false"
"image-keyboard-response",85,116313,"0.0-4.24-1.24","vu35x6fdppjvx2d",325,"149.csv","","null","resources/maskTrios/L1BB.jpg","null","",NA,NA,NA,NA,""
"image-keyboard-response",86,117515,"0.0-4.24-2.24","vu35x6fdppjvx2d",325,"149.csv","","null","resources/images/fishbone.png","null","",NA,NA,NA,NA,""
"image-keyboard-response",87,117544,"0.0-4.25-0.25","vu35x6fdppjvx2d",325,"149.csv","","27.700000002980232","resources/trios/L1T2A3.jpg","38","restless",0.4,0.6,0.8,0.19607689868065,"true"
"image-keyboard-response",88,117946,"0.0-4.25-1.25","vu35x6fdppjvx2d",325,"149.csv","","null","resources/maskTrios/BT2B.jpg","null","",NA,NA,NA,NA,""
"image-keyboard-response",89,119147,"0.0-4.25-2.25","vu35x6fdppjvx2d",325,"149.csv","","null","resources/images/coin2.png","null","",NA,NA,NA,NA,""
"image-keyboard-response",90,119302,"0.0-4.26-0.26","vu35x6fdppjvx2d",325,"149.csv","","152.79999999701977","resources/trios/L1T2A3.jpg","38","restless",0.3,0.6,0.8,0.165143118819701,"true"
"image-keyboard-response",91,119703,"0.0-4.26-1.26","vu35x6fdppjvx2d",325,"149.csv","","null","resources/maskTrios/BT2B.jpg","null","",NA,NA,NA,NA,""
"image-keyboard-response",92,120905,"0.0-4.26-2.26","vu35x6fdppjvx2d",325,"149.csv","","null","resources/images/coin2.png","null","",NA,NA,NA,NA,""
"image-keyboard-response",93,121218,"0.0-4.27-0.27","vu35x6fdppjvx2d",325,"149.csv","","311.1000000089407","resources/trios/L1T2A3.jpg","39","restless",0.2,0.6,0.8,0.35809978953053,"true"
"image-keyboard-response",94,121621,"0.0-4.27-1.27","vu35x6fdppjvx2d",325,"149.csv","","null","resources/maskTrios/BBA3.jpg","null","",NA,NA,NA,NA,""
"image-keyboard-response",95,122822,"0.0-4.27-2.27","vu35x6fdppjvx2d",325,"149.csv","","null","resources/images/coin2.png","null","",NA,NA,NA,NA,""
"image-keyboard-response",96,123066,"0.0-4.28-0.28","vu35x6fdppjvx2d",325,"149.csv","","242.40000000596046","resources/trios/L1T2A3.jpg","39","restless",0.2,0.6,0.8,0.426574419047457,"true"
"image-keyboard-response",97,123468,"0.0-4.28-1.28","vu35x6fdppjvx2d",325,"149.csv","","null","resources/maskTrios/BBA3.jpg","null","",NA,NA,NA,NA,""
"image-keyboard-response",98,124671,"0.0-4.28-2.28","vu35x6fdppjvx2d",325,"149.csv","","null","resources/images/coin2.png","null","",NA,NA,NA,NA,""
"image-keyboard-response",99,124762,"0.0-4.29-0.29","vu35x6fdppjvx2d",325,"149.csv","","90","resources/trios/L1T2A3.jpg","38","restless",0.2,0.5,0.8,0.186358135296444,"true"
"image-keyboard-response",100,125164,"0.0-4.29-1.29","vu35x6fdppjvx2d",325,"149.csv","","null","resources/maskTrios/BT2B.jpg","null","",NA,NA,NA,NA,""
"image-keyboard-response",101,126365,"0.0-4.29-2.29","vu35x6fdppjvx2d",325,"149.csv","","null","resources/images/coin2.png","null","",NA,NA,NA,NA,""
"image-keyboard-response",102,126799,"0.0-4.30-0.30","vu35x6fdppjvx2d",325,"149.csv","","432.20000000298023","resources/trios/L1T2A3.jpg","39","restless",0.2,0.5,0.8,0.936164380148665,"false"
"image-keyboard-response",103,127200,"0.0-4.30-1.30","vu35x6fdppjvx2d",325,"149.csv","","null","resources/maskTrios/BBA3.jpg","null","",NA,NA,NA,NA,""
"image-keyboard-response",104,128402,"0.0-4.30-2.30","vu35x6fdppjvx2d",325,"149.csv","","null","resources/images/fishbone.png","null","",NA,NA,NA,NA,""
"image-keyboard-response",105,128418,"0.0-4.31-0.31","vu35x6fdppjvx2d",325,"149.csv","","14.399999991059303","resources/trios/L1T2A3.jpg","38","restless",0.2,0.5,0.8,0.681485503600502,"false"
"image-keyboard-response",106,128820,"0.0-4.31-1.31","vu35x6fdppjvx2d",325,"149.csv","","null","resources/maskTrios/BT2B.jpg","null","",NA,NA,NA,NA,""
"image-keyboard-response",107,130021,"0.0-4.31-2.31","vu35x6fdppjvx2d",325,"149.csv","","null","resources/images/fishbone.png","null","",NA,NA,NA,NA,""
"image-keyboard-response",108,130171,"0.0-4.32-0.32","vu35x6fdppjvx2d",325,"149.csv","","148.29999999701977","resources/trios/L1T2A3.jpg","37","restless",0.3,0.5,0.8,0.999384626325659,"false"
"image-keyboard-response",109,130573,"0.0-4.32-1.32","vu35x6fdppjvx2d",325,"149.csv","","null","resources/maskTrios/L1BB.jpg","null","",NA,NA,NA,NA,""
"image-keyboard-response",110,131775,"0.0-4.32-2.32","vu35x6fdppjvx2d",325,"149.csv","","null","resources/images/fishbone.png","null","",NA,NA,NA,NA,""
"image-keyboard-response",111,132249,"0.0-4.33-0.33","vu35x6fdppjvx2d",325,"149.csv","","472.59999999403954","resources/trios/L1T2A3.jpg","37","restless",0.4,0.4,0.8,0.513140267146442,"false"
"image-keyboard-response",112,132651,"0.0-4.33-1.33","vu35x6fdppjvx2d",325,"149.csv","","null","resources/maskTrios/L1BB.jpg","null","",NA,NA,NA,NA,""
"image-keyboard-response",113,133853,"0.0-4.33-2.33","vu35x6fdppjvx2d",325,"149.csv","","null","resources/images/fishbone.png","null","",NA,NA,NA,NA,""
"image-keyboard-response",114,134010,"0.0-4.34-0.34","vu35x6fdppjvx2d",325,"149.csv","","155.29999999701977","resources/trios/L1T2A3.jpg","38","restless",0.4,0.4,0.8,0.380486496346252,"true"
"image-keyboard-response",115,134414,"0.0-4.34-1.34","vu35x6fdppjvx2d",325,"149.csv","","null","resources/maskTrios/BT2B.jpg","null","",NA,NA,NA,NA,""
"image-keyboard-response",116,135615,"0.0-4.34-2.34","vu35x6fdppjvx2d",325,"149.csv","","null","resources/images/coin2.png","null","",NA,NA,NA,NA,""
"image-keyboard-response",117,135854,"0.0-4.35-0.35","vu35x6fdppjvx2d",325,"149.csv","","236.90000000596046","resources/trios/L1T2A3.jpg","37","restless",0.5,0.4,0.8,0.518911560955866,"false"
"image-keyboard-response",118,136255,"0.0-4.35-1.35","vu35x6fdppjvx2d",325,"149.csv","","null","resources/maskTrios/L1BB.jpg","null","",NA,NA,NA,NA,""
"image-keyboard-response",119,137457,"0.0-4.35-2.35","vu35x6fdppjvx2d",325,"149.csv","","null","resources/images/fishbone.png","null","",NA,NA,NA,NA,""
"image-keyboard-response",120,137604,"0.0-4.36-0.36","vu35x6fdppjvx2d",325,"149.csv","","145.29999999701977","resources/trios/L1T2A3.jpg","38","restless",0.5,0.4,0.8,0.441650335252499,"false"
"image-keyboard-response",121,138006,"0.0-4.36-1.36","vu35x6fdppjvx2d",325,"149.csv","","null","resources/maskTrios/BT2B.jpg","null","",NA,NA,NA,NA,""
"image-keyboard-response",122,139209,"0.0-4.36-2.36","vu35x6fdppjvx2d",325,"149.csv","","null","resources/images/fishbone.png","null","",NA,NA,NA,NA,""
"image-keyboard-response",123,139505,"0.0-4.37-0.37","vu35x6fdppjvx2d",325,"149.csv","","295.3999999910593","resources/trios/L1T2A3.jpg","39","restless",0.5,0.4,0.8,0.780689553749247,"true"
"image-keyboard-response",124,139909,"0.0-4.37-1.37","vu35x6fdppjvx2d",325,"149.csv","","null","resources/maskTrios/BBA3.jpg","null","",NA,NA,NA,NA,""
"image-keyboard-response",125,141110,"0.0-4.37-2.37","vu35x6fdppjvx2d",325,"149.csv","","null","resources/images/coin2.png","null","",NA,NA,NA,NA,""
"image-keyboard-response",126,141275,"0.0-4.38-0.38","vu35x6fdppjvx2d",325,"149.csv","","163.1000000089407","resources/trios/L1T2A3.jpg","39","restless",0.5,0.4,0.8,0.99370225753399,"false"
"image-keyboard-response",127,141678,"0.0-4.38-1.38","vu35x6fdppjvx2d",325,"149.csv","","null","resources/maskTrios/BBA3.jpg","null","",NA,NA,NA,NA,""
"image-keyboard-response",128,142879,"0.0-4.38-2.38","vu35x6fdppjvx2d",325,"149.csv","","null","resources/images/fishbone.png","null","",NA,NA,NA,NA,""
"image-keyboard-response",129,143031,"0.0-4.39-0.39","vu35x6fdppjvx2d",325,"149.csv","","150.3999999910593","resources/trios/L1T2A3.jpg","39","restless",0.5,0.4,0.8,0.716027254608526,"true"
"image-keyboard-response",130,143433,"0.0-4.39-1.39","vu35x6fdppjvx2d",325,"149.csv","","null","resources/maskTrios/BBA3.jpg","null","",NA,NA,NA,NA,""
"image-keyboard-response",131,144635,"0.0-4.39-2.39","vu35x6fdppjvx2d",325,"149.csv","","null","resources/images/coin2.png","null","",NA,NA,NA,NA,""
"image-keyboard-response",132,144823,"0.0-4.40-0.40","vu35x6fdppjvx2d",325,"149.csv","","186.3999999910593","resources/trios/L1T2A3.jpg","38","restless",0.5,0.4,0.7,0.0160421063728509,"true"
"image-keyboard-response",133,145225,"0.0-4.40-1.40","vu35x6fdppjvx2d",325,"149.csv","","null","resources/maskTrios/BT2B.jpg","null","",NA,NA,NA,NA,""
"image-keyboard-response",134,146427,"0.0-4.40-2.40","vu35x6fdppjvx2d",325,"149.csv","","null","resources/images/coin2.png","null","",NA,NA,NA,NA,""
"image-keyboard-response",135,146607,"0.0-4.41-0.41","vu35x6fdppjvx2d",325,"149.csv","","179.09999999403954","resources/trios/L1T2A3.jpg","39","restless",0.5,0.4,0.7,0.79737846729659,"false"
"image-keyboard-response",136,147011,"0.0-4.41-1.41","vu35x6fdppjvx2d",325,"149.csv","","null","resources/maskTrios/BBA3.jpg","null","",NA,NA,NA,NA,""
"image-keyboard-response",137,148212,"0.0-4.41-2.41","vu35x6fdppjvx2d",325,"149.csv","","null","resources/images/fishbone.png","null","",NA,NA,NA,NA,""
"image-keyboard-response",138,148677,"0.0-4.42-0.42","vu35x6fdppjvx2d",325,"149.csv","","463.1000000089407","resources/trios/L1T2A3.jpg","38","restless",0.5,0.4,0.7,0.671526551824056,"false"
"image-keyboard-response",139,149080,"0.0-4.42-1.42","vu35x6fdppjvx2d",325,"149.csv","","null","resources/maskTrios/BT2B.jpg","null","",NA,NA,NA,NA,""
"image-keyboard-response",140,150281,"0.0-4.42-2.42","vu35x6fdppjvx2d",325,"149.csv","","null","resources/images/fishbone.png","null","",NA,NA,NA,NA,""
"image-keyboard-response",141,150577,"0.0-4.43-0.43","vu35x6fdppjvx2d",325,"149.csv","","294.5","resources/trios/L1T2A3.jpg","38","restless",0.5,0.4,0.7,0.776237656240985,"false"
"image-keyboard-response",142,150979,"0.0-4.43-1.43","vu35x6fdppjvx2d",325,"149.csv","","null","resources/maskTrios/BT2B.jpg","null","",NA,NA,NA,NA,""
"image-keyboard-response",143,152180,"0.0-4.43-2.43","vu35x6fdppjvx2d",325,"149.csv","","null","resources/images/fishbone.png","null","",NA,NA,NA,NA,""
"image-keyboard-response",144,152429,"0.0-4.44-0.44","vu35x6fdppjvx2d",325,"149.csv","","247.20000000298023","resources/trios/L1T2A3.jpg","39","restless",0.6,0.4,0.7,0.55515755067634,"true"
"image-keyboard-response",145,152831,"0.0-4.44-1.44","vu35x6fdppjvx2d",325,"149.csv","","null","resources/maskTrios/BBA3.jpg","null","",NA,NA,NA,NA,""
"image-keyboard-response",146,154033,"0.0-4.44-2.44","vu35x6fdppjvx2d",325,"149.csv","","null","resources/images/coin2.png","null","",NA,NA,NA,NA,""
"image-keyboard-response",147,154292,"0.0-4.45-0.45","vu35x6fdppjvx2d",325,"149.csv","","257.6000000089407","resources/trios/L1T2A3.jpg","39","restless",0.6,0.4,0.8,0.0181860512649556,"true"
"image-keyboard-response",148,154693,"0.0-4.45-1.45","vu35x6fdppjvx2d",325,"149.csv","","null","resources/maskTrios/BBA3.jpg","null","",NA,NA,NA,NA,""
"image-keyboard-response",149,155895,"0.0-4.45-2.45","vu35x6fdppjvx2d",325,"149.csv","","null","resources/images/coin2.png","null","",NA,NA,NA,NA,""
"image-keyboard-response",150,156151,"0.0-4.46-0.46","vu35x6fdppjvx2d",325,"149.csv","","254.80000001192093","resources/trios/L1T2A3.jpg","39","restless",0.6,0.4,0.8,0.396732917710207,"true"
"image-keyboard-response",151,156553,"0.0-4.46-1.46","vu35x6fdppjvx2d",325,"149.csv","","null","resources/maskTrios/BBA3.jpg","null","",NA,NA,NA,NA,""
"image-keyboard-response",152,157755,"0.0-4.46-2.46","vu35x6fdppjvx2d",325,"149.csv","","null","resources/images/coin2.png","null","",NA,NA,NA,NA,""
"image-keyboard-response",153,157949,"0.0-4.47-0.47","vu35x6fdppjvx2d",325,"149.csv","","192.40000000596046","resources/trios/L1T2A3.jpg","39","restless",0.7,0.4,0.8,0.648398023943682,"true"
"image-keyboard-response",154,158352,"0.0-4.47-1.47","vu35x6fdppjvx2d",325,"149.csv","","null","resources/maskTrios/BBA3.jpg","null","",NA,NA,NA,NA,""
"image-keyboard-response",155,159553,"0.0-4.47-2.47","vu35x6fdppjvx2d",325,"149.csv","","null","resources/images/coin2.png","null","",NA,NA,NA,NA,""
"image-keyboard-response",156,159806,"0.0-4.48-0.48","vu35x6fdppjvx2d",325,"149.csv","","251.20000000298023","resources/trios/L1T2A3.jpg","39","restless",0.7,0.4,0.8,0.556702185257266,"true"
"image-keyboard-response",157,160210,"0.0-4.48-1.48","vu35x6fdppjvx2d",325,"149.csv","","null","resources/maskTrios/BBA3.jpg","null","",NA,NA,NA,NA,""
"image-keyboard-response",158,161411,"0.0-4.48-2.48","vu35x6fdppjvx2d",325,"149.csv","","null","resources/images/coin2.png","null","",NA,NA,NA,NA,""
"image-keyboard-response",159,161571,"0.0-4.49-0.49","vu35x6fdppjvx2d",325,"149.csv","","158.79999999701977","resources/trios/L1T2A3.jpg","39","restless",0.7,0.4,0.8,0.816815724475593,"false"
"image-keyboard-response",160,161973,"0.0-4.49-1.49","vu35x6fdppjvx2d",325,"149.csv","","null","resources/maskTrios/BBA3.jpg","null","",NA,NA,NA,NA,""
"image-keyboard-response",161,163175,"0.0-4.49-2.49","vu35x6fdppjvx2d",325,"149.csv","","null","resources/images/fishbone.png","null","",NA,NA,NA,NA,""
"image-keyboard-response",162,163324,"0.0-4.50-0.50","vu35x6fdppjvx2d",325,"149.csv","","148.09999999403954","resources/trios/L1T2A3.jpg","37","restless",0.7,0.3,0.8,0.714604358697223,"false"
"image-keyboard-response",163,163726,"0.0-4.50-1.50","vu35x6fdppjvx2d",325,"149.csv","","null","resources/maskTrios/L1BB.jpg","null","",NA,NA,NA,NA,""
"image-keyboard-response",164,164927,"0.0-4.50-2.50","vu35x6fdppjvx2d",325,"149.csv","","null","resources/images/fishbone.png","null","",NA,NA,NA,NA,""
"image-keyboard-response",165,164974,"0.0-4.51-0.51","vu35x6fdppjvx2d",325,"149.csv","","44.099999994039536","resources/trios/L1T2A3.jpg","39","restless",0.7,0.3,0.8,0.638527893352878,"true"
"image-keyboard-response",166,165376,"0.0-4.51-1.51","vu35x6fdppjvx2d",325,"149.csv","","null","resources/maskTrios/BBA3.jpg","null","",NA,NA,NA,NA,""
"image-keyboard-response",167,166578,"0.0-4.51-2.51","vu35x6fdppjvx2d",325,"149.csv","","null","resources/images/coin2.png","null","",NA,NA,NA,NA,""
"image-keyboard-response",168,166831,"0.0-4.52-0.52","vu35x6fdppjvx2d",325,"149.csv","","252.20000000298023","resources/trios/L1T2A3.jpg","39","restless",0.7,0.3,0.8,0.817465838693323,"false"
"image-keyboard-response",169,167232,"0.0-4.52-1.52","vu35x6fdppjvx2d",325,"149.csv","","null","resources/maskTrios/BBA3.jpg","null","",NA,NA,NA,NA,""
"image-keyboard-response",170,168434,"0.0-4.52-2.52","vu35x6fdppjvx2d",325,"149.csv","","null","resources/images/fishbone.png","null","",NA,NA,NA,NA,""
"image-keyboard-response",171,168772,"0.0-4.53-0.53","vu35x6fdppjvx2d",325,"149.csv","","337.3999999910593","resources/trios/L1T2A3.jpg","38","restless",0.7,0.4,0.8,0.995870816251521,"false"
"image-keyboard-response",172,169174,"0.0-4.53-1.53","vu35x6fdppjvx2d",325,"149.csv","","null","resources/maskTrios/BT2B.jpg","null","",NA,NA,NA,NA,""
"image-keyboard-response",173,170376,"0.0-4.53-2.53","vu35x6fdppjvx2d",325,"149.csv","","null","resources/images/fishbone.png","null","",NA,NA,NA,NA,""
"image-keyboard-response",174,170548,"0.0-4.54-0.54","vu35x6fdppjvx2d",325,"149.csv","","171.70000000298023","resources/trios/L1T2A3.jpg","37","restless",0.7,0.4,0.8,0.191226787489695,"true"
"image-keyboard-response",175,170950,"0.0-4.54-1.54","vu35x6fdppjvx2d",325,"149.csv","","null","resources/maskTrios/L1BB.jpg","null","",NA,NA,NA,NA,""
"image-keyboard-response",176,172152,"0.0-4.54-2.54","vu35x6fdppjvx2d",325,"149.csv","","null","resources/images/coin2.png","null","",NA,NA,NA,NA,""
"image-keyboard-response",177,172226,"0.0-4.55-0.55","vu35x6fdppjvx2d",325,"149.csv","","72.1000000089407","resources/trios/L1T2A3.jpg","37","restless",0.7,0.4,0.8,0.594946533206631,"true"
"image-keyboard-response",178,172628,"0.0-4.55-1.55","vu35x6fdppjvx2d",325,"149.csv","","null","resources/maskTrios/L1BB.jpg","null","",NA,NA,NA,NA,""
"image-keyboard-response",179,173830,"0.0-4.55-2.55","vu35x6fdppjvx2d",325,"149.csv","","null","resources/images/coin2.png","null","",NA,NA,NA,NA,""
"image-keyboard-response",180,174073,"0.0-4.56-0.56","vu35x6fdppjvx2d",325,"149.csv","","242","resources/trios/L1T2A3.jpg","37","restless",0.7,0.4,0.9,0.87847163408644,"false"
"image-keyboard-response",181,174475,"0.0-4.56-1.56","vu35x6fdppjvx2d",325,"149.csv","","null","resources/maskTrios/L1BB.jpg","null","",NA,NA,NA,NA,""
"image-keyboard-response",182,175677,"0.0-4.56-2.56","vu35x6fdppjvx2d",325,"149.csv","","null","resources/images/fishbone.png","null","",NA,NA,NA,NA,""
"image-keyboard-response",183,176146,"0.0-4.57-0.57","vu35x6fdppjvx2d",325,"149.csv","","467.80000001192093","resources/trios/L1T2A3.jpg","39","restless",0.7,0.4,0.9,0.0757678392795533,"true"
"image-keyboard-response",184,176550,"0.0-4.57-1.57","vu35x6fdppjvx2d",325,"149.csv","","null","resources/maskTrios/BBA3.jpg","null","",NA,NA,NA,NA,""
"image-keyboard-response",185,177751,"0.0-4.57-2.57","vu35x6fdppjvx2d",325,"149.csv","","null","resources/images/coin2.png","null","",NA,NA,NA,NA,""
"image-keyboard-response",186,178047,"0.0-4.58-0.58","vu35x6fdppjvx2d",325,"149.csv","","294.30000001192093","resources/trios/L1T2A3.jpg","37","restless",0.7,0.4,0.9,0.402139689680735,"true"
"image-keyboard-response",187,178449,"0.0-4.58-1.58","vu35x6fdppjvx2d",325,"149.csv","","null","resources/maskTrios/L1BB.jpg","null","",NA,NA,NA,NA,""
"image-keyboard-response",188,179651,"0.0-4.58-2.58","vu35x6fdppjvx2d",325,"149.csv","","null","resources/images/coin2.png","null","",NA,NA,NA,NA,""
"image-keyboard-response",189,179939,"0.0-4.59-0.59","vu35x6fdppjvx2d",325,"149.csv","","287","resources/trios/L1T2A3.jpg","38","restless",0.7,0.4,0.9,0.7265296738062,"false"
"image-keyboard-response",190,180342,"0.0-4.59-1.59","vu35x6fdppjvx2d",325,"149.csv","","null","resources/maskTrios/BT2B.jpg","null","",NA,NA,NA,NA,""
"image-keyboard-response",191,181544,"0.0-4.59-2.59","vu35x6fdppjvx2d",325,"149.csv","","null","resources/images/fishbone.png","null","",NA,NA,NA,NA,""
"image-keyboard-response",192,181658,"0.0-4.60-0.60","vu35x6fdppjvx2d",325,"149.csv","","113.29999999701977","resources/trios/L1T2A3.jpg","37","restless",0.7,0.4,0.9,0.66613691194848,"true"
"image-keyboard-response",193,182060,"0.0-4.60-1.60","vu35x6fdppjvx2d",325,"149.csv","","null","resources/maskTrios/L1BB.jpg","null","",NA,NA,NA,NA,""
"image-keyboard-response",194,183262,"0.0-4.60-2.60","vu35x6fdppjvx2d",325,"149.csv","","null","resources/images/coin2.png","null","",NA,NA,NA,NA,""
"image-keyboard-response",195,183296,"0.0-4.61-0.61","vu35x6fdppjvx2d",325,"149.csv","","33","resources/trios/L1T2A3.jpg","37","restless",0.6,0.4,0.9,0.0633735607615384,"true"
"image-keyboard-response",196,183699,"0.0-4.61-1.61","vu35x6fdppjvx2d",325,"149.csv","","null","resources/maskTrios/L1BB.jpg","null","",NA,NA,NA,NA,""
"image-keyboard-response",197,184901,"0.0-4.61-2.61","vu35x6fdppjvx2d",325,"149.csv","","null","resources/images/coin2.png","null","",NA,NA,NA,NA,""
"image-keyboard-response",198,185035,"0.0-4.62-0.62","vu35x6fdppjvx2d",325,"149.csv","","132.70000000298023","resources/trios/L1T2A3.jpg","37","restless",0.6,0.4,0.9,0.305879598604313,"true"
"image-keyboard-response",199,185437,"0.0-4.62-1.62","vu35x6fdppjvx2d",325,"149.csv","","null","resources/maskTrios/L1BB.jpg","null","",NA,NA,NA,NA,""
"image-keyboard-response",200,186639,"0.0-4.62-2.62","vu35x6fdppjvx2d",325,"149.csv","","null","resources/images/coin2.png","null","",NA,NA,NA,NA,""
"image-keyboard-response",201,186874,"0.0-4.63-0.63","vu35x6fdppjvx2d",325,"149.csv","","233.70000000298023","resources/trios/L1T2A3.jpg","37","restless",0.5,0.4,0.9,0.816153504315957,"false"
"image-keyboard-response",202,187278,"0.0-4.63-1.63","vu35x6fdppjvx2d",325,"149.csv","","null","resources/maskTrios/L1BB.jpg","null","",NA,NA,NA,NA,""
"image-keyboard-response",203,188479,"0.0-4.63-2.63","vu35x6fdppjvx2d",325,"149.csv","","null","resources/images/fishbone.png","null","",NA,NA,NA,NA,""
"image-keyboard-response",204,188498,"0.0-4.64-0.64","vu35x6fdppjvx2d",325,"149.csv","","16.799999997019768","resources/trios/L1T2A3.jpg","39","restless",0.5,0.4,0.9,0.0833097590492078,"true"
"image-keyboard-response",205,188900,"0.0-4.64-1.64","vu35x6fdppjvx2d",325,"149.csv","","null","resources/maskTrios/BBA3.jpg","null","",NA,NA,NA,NA,""
"image-keyboard-response",206,190101,"0.0-4.64-2.64","vu35x6fdppjvx2d",325,"149.csv","","null","resources/images/coin2.png","null","",NA,NA,NA,NA,""
"image-keyboard-response",207,190209,"0.0-4.65-0.65","vu35x6fdppjvx2d",325,"149.csv","","106.59999999403954","resources/trios/L1T2A3.jpg","39","restless",0.5,0.4,0.9,0.614589678645604,"true"
"image-keyboard-response",208,190612,"0.0-4.65-1.65","vu35x6fdppjvx2d",325,"149.csv","","null","resources/maskTrios/BBA3.jpg","null","",NA,NA,NA,NA,""
"image-keyboard-response",209,191813,"0.0-4.65-2.65","vu35x6fdppjvx2d",325,"149.csv","","null","resources/images/coin2.png","null","",NA,NA,NA,NA,""
"image-keyboard-response",210,191931,"0.0-4.66-0.66","vu35x6fdppjvx2d",325,"149.csv","","116.59999999403954","resources/trios/L1T2A3.jpg","39","restless",0.5,0.4,0.9,0.555657845051351,"true"
"image-keyboard-response",211,192334,"0.0-4.66-1.66","vu35x6fdppjvx2d",325,"149.csv","","null","resources/maskTrios/BBA3.jpg","null","",NA,NA,NA,NA,""
"image-keyboard-response",212,193537,"0.0-4.66-2.66","vu35x6fdppjvx2d",325,"149.csv","","null","resources/images/coin2.png","null","",NA,NA,NA,NA,""
"image-keyboard-response",213,194007,"0.0-4.67-0.67","vu35x6fdppjvx2d",325,"149.csv","","469.1000000089407","resources/trios/L1T2A3.jpg","38","restless",0.5,0.4,0.9,0.529705225794683,"false"
"image-keyboard-response",214,194409,"0.0-4.67-1.67","vu35x6fdppjvx2d",325,"149.csv","","null","resources/maskTrios/BT2B.jpg","null","",NA,NA,NA,NA,""
"image-keyboard-response",215,195610,"0.0-4.67-2.67","vu35x6fdppjvx2d",325,"149.csv","","null","resources/images/fishbone.png","null","",NA,NA,NA,NA,""
"image-keyboard-response",216,195900,"0.0-4.68-0.68","vu35x6fdppjvx2d",325,"149.csv","","285.40000000596046","resources/trios/L1T2A3.jpg","37","restless",0.5,0.4,0.9,0.183283896589517,"true"
"image-keyboard-response",217,196302,"0.0-4.68-1.68","vu35x6fdppjvx2d",325,"149.csv","","null","resources/maskTrios/L1BB.jpg","null","",NA,NA,NA,NA,""
"image-keyboard-response",218,197503,"0.0-4.68-2.68","vu35x6fdppjvx2d",325,"149.csv","","null","resources/images/coin2.png","null","",NA,NA,NA,NA,""
"image-keyboard-response",219,197785,"0.0-4.69-0.69","vu35x6fdppjvx2d",325,"149.csv","","280.5","resources/trios/L1T2A3.jpg","37","restless",0.5,0.4,0.9,0.90785289862046,"false"
"image-keyboard-response",220,198187,"0.0-4.69-1.69","vu35x6fdppjvx2d",325,"149.csv","","null","resources/maskTrios/L1BB.jpg","null","",NA,NA,NA,NA,""
"image-keyboard-response",221,199389,"0.0-4.69-2.69","vu35x6fdppjvx2d",325,"149.csv","","null","resources/images/fishbone.png","null","",NA,NA,NA,NA,""
"image-keyboard-response",222,199611,"0.0-4.70-0.70","vu35x6fdppjvx2d",325,"149.csv","","221.5","resources/trios/L1T2A3.jpg","39","restless",0.5,0.4,0.9,0.73495190149971,"true"
"image-keyboard-response",223,200015,"0.0-4.70-1.70","vu35x6fdppjvx2d",325,"149.csv","","null","resources/maskTrios/BBA3.jpg","null","",NA,NA,NA,NA,""
"image-keyboard-response",224,201216,"0.0-4.70-2.70","vu35x6fdppjvx2d",325,"149.csv","","null","resources/images/coin2.png","null","",NA,NA,NA,NA,""
"image-keyboard-response",225,201264,"0.0-4.71-0.71","vu35x6fdppjvx2d",325,"149.csv","","46.6000000089407","resources/trios/L1T2A3.jpg","39","restless",0.5,0.4,0.9,0.138041677529656,"true"
"image-keyboard-response",226,201666,"0.0-4.71-1.71","vu35x6fdppjvx2d",325,"149.csv","","null","resources/maskTrios/BBA3.jpg","null","",NA,NA,NA,NA,""
"image-keyboard-response",227,202868,"0.0-4.71-2.71","vu35x6fdppjvx2d",325,"149.csv","","null","resources/images/coin2.png","null","",NA,NA,NA,NA,""
"image-keyboard-response",228,202874,"0.0-4.72-0.72","vu35x6fdppjvx2d",325,"149.csv","","4.5999999940395355","resources/trios/L1T2A3.jpg","39","restless",0.5,0.4,0.9,0.839021442601832,"true"
"image-keyboard-response",229,203276,"0.0-4.72-1.72","vu35x6fdppjvx2d",325,"149.csv","","null","resources/maskTrios/BBA3.jpg","null","",NA,NA,NA,NA,""
"image-keyboard-response",230,204477,"0.0-4.72-2.72","vu35x6fdppjvx2d",325,"149.csv","","null","resources/images/coin2.png","null","",NA,NA,NA,NA,""
"image-keyboard-response",231,204481,"0.0-4.73-0.73","vu35x6fdppjvx2d",325,"149.csv","","0.5","resources/trios/L1T2A3.jpg","39","restless",0.5,0.4,0.9,0.385372074831613,"true"
"image-keyboard-response",232,204884,"0.0-4.73-1.73","vu35x6fdppjvx2d",325,"149.csv","","null","resources/maskTrios/BBA3.jpg","null","",NA,NA,NA,NA,""
"image-keyboard-response",233,206085,"0.0-4.73-2.73","vu35x6fdppjvx2d",325,"149.csv","","null","resources/images/coin2.png","null","",NA,NA,NA,NA,""
"image-keyboard-response",234,206178,"0.0-4.74-0.74","vu35x6fdppjvx2d",325,"149.csv","","90.69999998807907","resources/trios/L1T2A3.jpg","39","restless",0.5,0.4,0.9,0.0090422856704897,"true"
"image-keyboard-response",235,206580,"0.0-4.74-1.74","vu35x6fdppjvx2d",325,"149.csv","","null","resources/maskTrios/BBA3.jpg","null","",NA,NA,NA,NA,""
"image-keyboard-response",236,207782,"0.0-4.74-2.74","vu35x6fdppjvx2d",325,"149.csv","","null","resources/images/coin2.png","null","",NA,NA,NA,NA,""
"image-keyboard-response",237,207879,"0.0-4.75-0.75","vu35x6fdppjvx2d",325,"149.csv","","95.8999999910593","resources/trios/L1T2A3.jpg","39","restless",0.5,0.4,0.9,0.39033148773102,"true"
"image-keyboard-response",238,208281,"0.0-4.75-1.75","vu35x6fdppjvx2d",325,"149.csv","","null","resources/maskTrios/BBA3.jpg","null","",NA,NA,NA,NA,""
"image-keyboard-response",239,209482,"0.0-4.75-2.75","vu35x6fdppjvx2d",325,"149.csv","","null","resources/images/coin2.png","null","",NA,NA,NA,NA,""
"image-keyboard-response",240,209686,"0.0-4.76-0.76","vu35x6fdppjvx2d",325,"149.csv","","202.70000000298023","resources/trios/L1T2A3.jpg","39","restless",0.5,0.4,0.9,0.590608362865642,"true"
"image-keyboard-response",241,210089,"0.0-4.76-1.76","vu35x6fdppjvx2d",325,"149.csv","","null","resources/maskTrios/BBA3.jpg","null","",NA,NA,NA,NA,""
"image-keyboard-response",242,211291,"0.0-4.76-2.76","vu35x6fdppjvx2d",325,"149.csv","","null","resources/images/coin2.png","null","",NA,NA,NA,NA,""
"image-keyboard-response",243,211476,"0.0-4.77-0.77","vu35x6fdppjvx2d",325,"149.csv","","184.09999999403954","resources/trios/L1T2A3.jpg","39","restless",0.5,0.4,0.9,0.941832955415691,"false"
"image-keyboard-response",244,211878,"0.0-4.77-1.77","vu35x6fdppjvx2d",325,"149.csv","","null","resources/maskTrios/BBA3.jpg","null","",NA,NA,NA,NA,""
"image-keyboard-response",245,213079,"0.0-4.77-2.77","vu35x6fdppjvx2d",325,"149.csv","","null","resources/images/fishbone.png","null","",NA,NA,NA,NA,""
"image-keyboard-response",246,213199,"0.0-4.78-0.78","vu35x6fdppjvx2d",325,"149.csv","","118.30000001192093","resources/trios/L1T2A3.jpg","38","restless",0.5,0.4,0.9,0.252719250355488,"true"
"image-keyboard-response",247,213601,"0.0-4.78-1.78","vu35x6fdppjvx2d",325,"149.csv","","null","resources/maskTrios/BT2B.jpg","null","",NA,NA,NA,NA,""
"image-keyboard-response",248,214804,"0.0-4.78-2.78","vu35x6fdppjvx2d",325,"149.csv","","null","resources/images/coin2.png","null","",NA,NA,NA,NA,""
"image-keyboard-response",249,214809,"0.0-4.79-0.79","vu35x6fdppjvx2d",325,"149.csv","","4.4000000059604645","resources/trios/L1T2A3.jpg","38","restless",0.5,0.4,0.9,0.706673632044335,"false"
"image-keyboard-response",250,215211,"0.0-4.79-1.79","vu35x6fdppjvx2d",325,"149.csv","","null","resources/maskTrios/BT2B.jpg","null","",NA,NA,NA,NA,""
"image-keyboard-response",251,216412,"0.0-4.79-2.79","vu35x6fdppjvx2d",325,"149.csv","","null","resources/images/fishbone.png","null","",NA,NA,NA,NA,""
"image-keyboard-response",252,216490,"0.0-4.80-0.80","vu35x6fdppjvx2d",325,"149.csv","","76.29999999701977","resources/trios/L1T2A3.jpg","38","restless",0.5,0.4,0.9,0.517493157257706,"false"
"image-keyboard-response",253,216892,"0.0-4.80-1.80","vu35x6fdppjvx2d",325,"149.csv","","null","resources/maskTrios/BT2B.jpg","null","",NA,NA,NA,NA,""
"image-keyboard-response",254,218093,"0.0-4.80-2.80","vu35x6fdppjvx2d",325,"149.csv","","null","resources/images/fishbone.png","null","",NA,NA,NA,NA,""
"image-keyboard-response",255,218201,"0.0-4.81-0.81","vu35x6fdppjvx2d",325,"149.csv","","106.3999999910593","resources/trios/L1T2A3.jpg","37","restless",0.5,0.3,0.9,0.33562451232632,"true"
"image-keyboard-response",256,218603,"0.0-4.81-1.81","vu35x6fdppjvx2d",325,"149.csv","","null","resources/maskTrios/L1BB.jpg","null","",NA,NA,NA,NA,""
"image-keyboard-response",257,219805,"0.0-4.81-2.81","vu35x6fdppjvx2d",325,"149.csv","","null","resources/images/coin2.png","null","",NA,NA,NA,NA,""
"image-keyboard-response",258,220005,"0.0-4.82-0.82","vu35x6fdppjvx2d",325,"149.csv","","198.70000000298023","resources/trios/L1T2A3.jpg","37","restless",0.4,0.3,0.9,0.606392375223251,"false"
"image-keyboard-response",259,220406,"0.0-4.82-1.82","vu35x6fdppjvx2d",325,"149.csv","","null","resources/maskTrios/L1BB.jpg","null","",NA,NA,NA,NA,""
"image-keyboard-response",260,221608,"0.0-4.82-2.82","vu35x6fdppjvx2d",325,"149.csv","","null","resources/images/fishbone.png","null","",NA,NA,NA,NA,""
"image-keyboard-response",261,221996,"0.0-4.83-0.83","vu35x6fdppjvx2d",325,"149.csv","","387.40000000596046","resources/trios/L1T2A3.jpg","39","restless",0.4,0.3,0.9,0.987409016940468,"false"
"image-keyboard-response",262,222399,"0.0-4.83-1.83","vu35x6fdppjvx2d",325,"149.csv","","null","resources/maskTrios/BBA3.jpg","null","",NA,NA,NA,NA,""
"image-keyboard-response",263,223600,"0.0-4.83-2.83","vu35x6fdppjvx2d",325,"149.csv","","null","resources/images/fishbone.png","null","",NA,NA,NA,NA,""
"image-keyboard-response",264,223800,"0.0-4.84-0.84","vu35x6fdppjvx2d",325,"149.csv","","198.1000000089407","resources/trios/L1T2A3.jpg","37","restless",0.4,0.3,0.9,0.00440895580092415,"true"
"image-keyboard-response",265,224202,"0.0-4.84-1.84","vu35x6fdppjvx2d",325,"149.csv","","null","resources/maskTrios/L1BB.jpg","null","",NA,NA,NA,NA,""
"image-keyboard-response",266,225403,"0.0-4.84-2.84","vu35x6fdppjvx2d",325,"149.csv","","null","resources/images/coin2.png","null","",NA,NA,NA,NA,""
"image-keyboard-response",267,225658,"0.0-4.85-0.85","vu35x6fdppjvx2d",325,"149.csv","","253.3999999910593","resources/trios/L1T2A3.jpg","37","restless",0.4,0.3,0.8,0.561635496480882,"false"
"image-keyboard-response",268,226060,"0.0-4.85-1.85","vu35x6fdppjvx2d",325,"149.csv","","null","resources/maskTrios/L1BB.jpg","null","",NA,NA,NA,NA,""
"image-keyboard-response",269,227262,"0.0-4.85-2.85","vu35x6fdppjvx2d",325,"149.csv","","null","resources/images/fishbone.png","null","",NA,NA,NA,NA,""
"image-keyboard-response",270,227283,"0.0-4.86-0.86","vu35x6fdppjvx2d",325,"149.csv","","18.799999997019768","resources/trios/L1T2A3.jpg","38","restless",0.4,0.3,0.8,0.3009035523923,"false"
"image-keyboard-response",271,227685,"0.0-4.86-1.86","vu35x6fdppjvx2d",325,"149.csv","","null","resources/maskTrios/BT2B.jpg","null","",NA,NA,NA,NA,""
"image-keyboard-response",272,228887,"0.0-4.86-2.86","vu35x6fdppjvx2d",325,"149.csv","","null","resources/images/fishbone.png","null","",NA,NA,NA,NA,""
"image-keyboard-response",273,229268,"0.0-4.87-0.87","vu35x6fdppjvx2d",325,"149.csv","","379","resources/trios/L1T2A3.jpg","37","restless",0.4,0.3,0.8,0.89822610878189,"false"
"image-keyboard-response",274,229669,"0.0-4.87-1.87","vu35x6fdppjvx2d",325,"149.csv","","null","resources/maskTrios/L1BB.jpg","null","",NA,NA,NA,NA,""
"image-keyboard-response",275,230871,"0.0-4.87-2.87","vu35x6fdppjvx2d",325,"149.csv","","null","resources/images/fishbone.png","null","",NA,NA,NA,NA,""
"image-keyboard-response",276,230891,"0.0-4.88-0.88","vu35x6fdppjvx2d",325,"149.csv","","18.299999997019768","resources/trios/L1T2A3.jpg","39","restless",0.4,0.3,0.8,0.872751049712841,"false"
"image-keyboard-response",277,231293,"0.0-4.88-1.88","vu35x6fdppjvx2d",325,"149.csv","","null","resources/maskTrios/BBA3.jpg","null","",NA,NA,NA,NA,""
"image-keyboard-response",278,232495,"0.0-4.88-2.88","vu35x6fdppjvx2d",325,"149.csv","","null","resources/images/fishbone.png","null","",NA,NA,NA,NA,""
"image-keyboard-response",279,232611,"0.0-4.89-0.89","vu35x6fdppjvx2d",325,"149.csv","","114.6000000089407","resources/trios/L1T2A3.jpg","39","restless",0.4,0.3,0.7,0.610831213726419,"true"
"image-keyboard-response",280,233013,"0.0-4.89-1.89","vu35x6fdppjvx2d",325,"149.csv","","null","resources/maskTrios/BBA3.jpg","null","",NA,NA,NA,NA,""
"image-keyboard-response",281,234214,"0.0-4.89-2.89","vu35x6fdppjvx2d",325,"149.csv","","null","resources/images/coin2.png","null","",NA,NA,NA,NA,""
"image-keyboard-response",282,234499,"0.0-4.90-0.90","vu35x6fdppjvx2d",325,"149.csv","","283.09999999403954","resources/trios/L1T2A3.jpg","39","restless",0.4,0.3,0.7,0.549140905396374,"true"
"image-keyboard-response",283,234901,"0.0-4.90-1.90","vu35x6fdppjvx2d",325,"149.csv","","null","resources/maskTrios/BBA3.jpg","null","",NA,NA,NA,NA,""
"image-keyboard-response",284,236102,"0.0-4.90-2.90","vu35x6fdppjvx2d",325,"149.csv","","null","resources/images/coin2.png","null","",NA,NA,NA,NA,""
"image-keyboard-response",285,236302,"0.0-4.91-0.91","vu35x6fdppjvx2d",325,"149.csv","","198.79999999701977","resources/trios/L1T2A3.jpg","39","restless",0.4,0.3,0.8,0.0843538012856488,"true"
"image-keyboard-response",286,236704,"0.0-4.91-1.91","vu35x6fdppjvx2d",325,"149.csv","","null","resources/maskTrios/BBA3.jpg","null","",NA,NA,NA,NA,""
"image-keyboard-response",287,237906,"0.0-4.91-2.91","vu35x6fdppjvx2d",325,"149.csv","","null","resources/images/coin2.png","null","",NA,NA,NA,NA,""
"image-keyboard-response",288,238382,"0.0-4.92-0.92","vu35x6fdppjvx2d",325,"149.csv","","475.29999999701977","resources/trios/L1T2A3.jpg","39","restless",0.3,0.3,0.8,0.0853874644313208,"true"
"image-keyboard-response",289,238784,"0.0-4.92-1.92","vu35x6fdppjvx2d",325,"149.csv","","null","resources/maskTrios/BBA3.jpg","null","",NA,NA,NA,NA,""
"image-keyboard-response",290,239987,"0.0-4.92-2.92","vu35x6fdppjvx2d",325,"149.csv","","null","resources/images/coin2.png","null","",NA,NA,NA,NA,""
"image-keyboard-response",291,240494,"0.0-4.93-0.93","vu35x6fdppjvx2d",325,"149.csv","","505.09999999403954","resources/trios/L1T2A3.jpg","39","restless",0.3,0.3,0.8,0.0545619162818927,"true"
"image-keyboard-response",292,240896,"0.0-4.93-1.93","vu35x6fdppjvx2d",325,"149.csv","","null","resources/maskTrios/BBA3.jpg","null","",NA,NA,NA,NA,""
"image-keyboard-response",293,242097,"0.0-4.93-2.93","vu35x6fdppjvx2d",325,"149.csv","","null","resources/images/coin2.png","null","",NA,NA,NA,NA,""
"image-keyboard-response",294,242240,"0.0-4.94-0.94","vu35x6fdppjvx2d",325,"149.csv","","140.8999999910593","resources/trios/L1T2A3.jpg","39","restless",0.3,0.3,0.7,0.0212838323513318,"true"
"image-keyboard-response",295,242641,"0.0-4.94-1.94","vu35x6fdppjvx2d",325,"149.csv","","null","resources/maskTrios/BBA3.jpg","null","",NA,NA,NA,NA,""
"image-keyboard-response",296,243843,"0.0-4.94-2.94","vu35x6fdppjvx2d",325,"149.csv","","null","resources/images/coin2.png","null","",NA,NA,NA,NA,""
"image-keyboard-response",297,244039,"0.0-4.95-0.95","vu35x6fdppjvx2d",325,"149.csv","","194.1000000089407","resources/trios/L1T2A3.jpg","39","restless",0.3,0.3,0.7,0.203120606484276,"true"
"image-keyboard-response",298,244442,"0.0-4.95-1.95","vu35x6fdppjvx2d",325,"149.csv","","null","resources/maskTrios/BBA3.jpg","null","",NA,NA,NA,NA,""
"image-keyboard-response",299,245643,"0.0-4.95-2.95","vu35x6fdppjvx2d",325,"149.csv","","null","resources/images/coin2.png","null","",NA,NA,NA,NA,""
"image-keyboard-response",300,245883,"0.0-4.96-0.96","vu35x6fdppjvx2d",325,"149.csv","","238.29999999701977","resources/trios/L1T2A3.jpg","39","restless",0.3,0.3,0.7,0.157915070080956,"true"
"image-keyboard-response",301,246287,"0.0-4.96-1.96","vu35x6fdppjvx2d",325,"149.csv","","null","resources/maskTrios/BBA3.jpg","null","",NA,NA,NA,NA,""
"image-keyboard-response",302,247489,"0.0-4.96-2.96","vu35x6fdppjvx2d",325,"149.csv","","null","resources/images/coin2.png","null","",NA,NA,NA,NA,""
"image-keyboard-response",303,247966,"0.0-4.97-0.97","vu35x6fdppjvx2d",325,"149.csv","","474.69999998807907","resources/trios/L1T2A3.jpg","39","restless",0.3,0.3,0.7,0.73913958416171,"false"
"image-keyboard-response",304,248369,"0.0-4.97-1.97","vu35x6fdppjvx2d",325,"149.csv","","null","resources/maskTrios/BBA3.jpg","null","",NA,NA,NA,NA,""
"image-keyboard-response",305,249571,"0.0-4.97-2.97","vu35x6fdppjvx2d",325,"149.csv","","null","resources/images/fishbone.png","null","",NA,NA,NA,NA,""
"image-keyboard-response",306,249691,"0.0-4.98-0.98","vu35x6fdppjvx2d",325,"149.csv","","119","resources/trios/L1T2A3.jpg","38","restless",0.3,0.3,0.7,0.190425425443071,"true"
"image-keyboard-response",307,250095,"0.0-4.98-1.98","vu35x6fdppjvx2d",325,"149.csv","","null","resources/maskTrios/BT2B.jpg","null","",NA,NA,NA,NA,""
"image-keyboard-response",308,251297,"0.0-4.98-2.98","vu35x6fdppjvx2d",325,"149.csv","","null","resources/images/coin2.png","null","",NA,NA,NA,NA,""
"image-keyboard-response",309,251509,"0.0-4.99-0.99","vu35x6fdppjvx2d",325,"149.csv","","209.29999999701977","resources/trios/L1T2A3.jpg","38","restless",0.3,0.2,0.7,0.911606152571049,"false"
"image-keyboard-response",310,251911,"0.0-4.99-1.99","vu35x6fdppjvx2d",325,"149.csv","","null","resources/maskTrios/BT2B.jpg","null","",NA,NA,NA,NA,""
"image-keyboard-response",311,253112,"0.0-4.99-2.99","vu35x6fdppjvx2d",325,"149.csv","","null","resources/images/fishbone.png","null","",NA,NA,NA,NA,""
"image-keyboard-response",312,253232,"0.0-4.100-0.100","vu35x6fdppjvx2d",325,"149.csv","","118.8999999910593","resources/trios/L1T2A3.jpg","39","restless",0.3,0.2,0.7,0.595143711973921,"true"
"image-keyboard-response",313,253635,"0.0-4.100-1.100","vu35x6fdppjvx2d",325,"149.csv","","null","resources/maskTrios/BBA3.jpg","null","",NA,NA,NA,NA,""
"image-keyboard-response",314,254836,"0.0-4.100-2.100","vu35x6fdppjvx2d",325,"149.csv","","null","resources/images/coin2.png","null","",NA,NA,NA,NA,""
"image-keyboard-response",315,254842,"0.0-4.101-0.101","vu35x6fdppjvx2d",325,"149.csv","","4.300000011920929","resources/trios/L1T2A3.jpg","39","restless",0.3,0.2,0.7,0.79597428125318,"false"
"image-keyboard-response",316,255244,"0.0-4.101-1.101","vu35x6fdppjvx2d",325,"149.csv","","null","resources/maskTrios/BBA3.jpg","null","",NA,NA,NA,NA,""
"image-keyboard-response",317,256446,"0.0-4.101-2.101","vu35x6fdppjvx2d",325,"149.csv","","null","resources/images/fishbone.png","null","",NA,NA,NA,NA,""
"image-keyboard-response",318,256746,"0.0-4.102-0.102","vu35x6fdppjvx2d",325,"149.csv","","298.20000000298023","resources/trios/L1T2A3.jpg","37","restless",0.3,0.2,0.7,0.250940642866152,"true"
"image-keyboard-response",319,257148,"0.0-4.102-1.102","vu35x6fdppjvx2d",325,"149.csv","","null","resources/maskTrios/L1BB.jpg","null","",NA,NA,NA,NA,""
"image-keyboard-response",320,258350,"0.0-4.102-2.102","vu35x6fdppjvx2d",325,"149.csv","","null","resources/images/coin2.png","null","",NA,NA,NA,NA,""
"image-keyboard-response",321,258633,"0.0-4.103-0.103","vu35x6fdppjvx2d",325,"149.csv","","280.3999999910593","resources/trios/L1T2A3.jpg","37","restless",0.3,0.2,0.7,0.102060165469639,"true"
"image-keyboard-response",322,259036,"0.0-4.103-1.103","vu35x6fdppjvx2d",325,"149.csv","","null","resources/maskTrios/L1BB.jpg","null","",NA,NA,NA,NA,""
"image-keyboard-response",323,260238,"0.0-4.103-2.103","vu35x6fdppjvx2d",325,"149.csv","","null","resources/images/coin2.png","null","",NA,NA,NA,NA,""
"image-keyboard-response",324,260599,"0.0-4.104-0.104","vu35x6fdppjvx2d",325,"149.csv","","359.69999998807907","resources/trios/L1T2A3.jpg","37","restless",0.3,0.2,0.6,0.466571217086243,"false"
"image-keyboard-response",325,261001,"0.0-4.104-1.104","vu35x6fdppjvx2d",325,"149.csv","","null","resources/maskTrios/L1BB.jpg","null","",NA,NA,NA,NA,""
"image-keyboard-response",326,262202,"0.0-4.104-2.104","vu35x6fdppjvx2d",325,"149.csv","","null","resources/images/fishbone.png","null","",NA,NA,NA,NA,""
"image-keyboard-response",327,275377,"0.0-4.105-0.105","vu35x6fdppjvx2d",325,"149.csv","","13172","resources/trios/L1T2A3.jpg","37","restless",0.3,0.2,0.6,0.182246997131365,"true"
"image-keyboard-response",328,275780,"0.0-4.105-1.105","vu35x6fdppjvx2d",325,"149.csv","","null","resources/maskTrios/L1BB.jpg","null","",NA,NA,NA,NA,""
"image-keyboard-response",329,276982,"0.0-4.105-2.105","vu35x6fdppjvx2d",325,"149.csv","","null","resources/images/coin2.png","null","",NA,NA,NA,NA,""
"image-keyboard-response",330,278234,"0.0-4.106-0.106","vu35x6fdppjvx2d",325,"149.csv","","1251","resources/trios/L1T2A3.jpg","37","restless",0.3,0.2,0.5,0.984983815864541,"false"
"image-keyboard-response",331,278636,"0.0-4.106-1.106","vu35x6fdppjvx2d",325,"149.csv","","null","resources/maskTrios/L1BB.jpg","null","",NA,NA,NA,NA,""
"image-keyboard-response",332,279837,"0.0-4.106-2.106","vu35x6fdppjvx2d",325,"149.csv","","null","resources/images/fishbone.png","null","",NA,NA,NA,NA,""
"image-keyboard-response",333,280138,"0.0-4.107-0.107","vu35x6fdppjvx2d",325,"149.csv","","299.70000000298023","resources/trios/L1T2A3.jpg","39","restless",0.3,0.2,0.5,0.681339232314342,"false"
"image-keyboard-response",334,280540,"0.0-4.107-1.107","vu35x6fdppjvx2d",325,"149.csv","","null","resources/maskTrios/BBA3.jpg","null","",NA,NA,NA,NA,""
"image-keyboard-response",335,281742,"0.0-4.107-2.107","vu35x6fdppjvx2d",325,"149.csv","","null","resources/images/fishbone.png","null","",NA,NA,NA,NA,""
"image-keyboard-response",336,281895,"0.0-4.108-0.108","vu35x6fdppjvx2d",325,"149.csv","","151.5","resources/trios/L1T2A3.jpg","38","restless",0.3,0.2,0.4,0.273441024264777,"false"
"image-keyboard-response",337,282297,"0.0-4.108-1.108","vu35x6fdppjvx2d",325,"149.csv","","null","resources/maskTrios/BT2B.jpg","null","",NA,NA,NA,NA,""
"image-keyboard-response",338,283498,"0.0-4.108-2.108","vu35x6fdppjvx2d",325,"149.csv","","null","resources/images/fishbone.png","null","",NA,NA,NA,NA,""
"image-keyboard-response",339,283593,"0.0-4.109-0.109","vu35x6fdppjvx2d",325,"149.csv","","93.6000000089407","resources/trios/L1T2A3.jpg","38","restless",0.3,0.2,0.4,0.437441403646291,"false"
"image-keyboard-response",340,283995,"0.0-4.109-1.109","vu35x6fdppjvx2d",325,"149.csv","","null","resources/maskTrios/BT2B.jpg","null","",NA,NA,NA,NA,""
"image-keyboard-response",341,285196,"0.0-4.109-2.109","vu35x6fdppjvx2d",325,"149.csv","","null","resources/images/fishbone.png","null","",NA,NA,NA,NA,""
"image-keyboard-response",342,285286,"0.0-4.110-0.110","vu35x6fdppjvx2d",325,"149.csv","","88.80000001192093","resources/trios/L1T2A3.jpg","39","restless",0.3,0.2,0.4,0.0231260512677722,"true"
"image-keyboard-response",343,285688,"0.0-4.110-1.110","vu35x6fdppjvx2d",325,"149.csv","","null","resources/maskTrios/BBA3.jpg","null","",NA,NA,NA,NA,""
"image-keyboard-response",344,286890,"0.0-4.110-2.110","vu35x6fdppjvx2d",325,"149.csv","","null","resources/images/coin2.png","null","",NA,NA,NA,NA,""
"image-keyboard-response",345,286970,"0.0-4.111-0.111","vu35x6fdppjvx2d",325,"149.csv","","79","resources/trios/L1T2A3.jpg","39","restless",0.3,0.2,0.4,0.858966238371189,"false"
"image-keyboard-response",346,287372,"0.0-4.111-1.111","vu35x6fdppjvx2d",325,"149.csv","","null","resources/maskTrios/BBA3.jpg","null","",NA,NA,NA,NA,""
"image-keyboard-response",347,288573,"0.0-4.111-2.111","vu35x6fdppjvx2d",325,"149.csv","","null","resources/images/fishbone.png","null","",NA,NA,NA,NA,""
"image-keyboard-response",348,288850,"0.0-4.112-0.112","vu35x6fdppjvx2d",325,"149.csv","","275.6000000089407","resources/trios/L1T2A3.jpg","37","restless",0.3,0.2,0.4,0.623713229171124,"false"
"image-keyboard-response",349,289252,"0.0-4.112-1.112","vu35x6fdppjvx2d",325,"149.csv","","null","resources/maskTrios/L1BB.jpg","null","",NA,NA,NA,NA,""
"image-keyboard-response",350,290453,"0.0-4.112-2.112","vu35x6fdppjvx2d",325,"149.csv","","null","resources/images/fishbone.png","null","",NA,NA,NA,NA,""
"image-keyboard-response",351,290686,"0.0-4.113-0.113","vu35x6fdppjvx2d",325,"149.csv","","231.5","resources/trios/L1T2A3.jpg","37","restless",0.3,0.2,0.4,0.117218760783328,"true"
"image-keyboard-response",352,291088,"0.0-4.113-1.113","vu35x6fdppjvx2d",325,"149.csv","","null","resources/maskTrios/L1BB.jpg","null","",NA,NA,NA,NA,""
"image-keyboard-response",353,292289,"0.0-4.113-2.113","vu35x6fdppjvx2d",325,"149.csv","","null","resources/images/coin2.png","null","",NA,NA,NA,NA,""
"image-keyboard-response",354,292506,"0.0-4.114-0.114","vu35x6fdppjvx2d",325,"149.csv","","214.3999999910593","resources/trios/L1T2A3.jpg","37","restless",0.3,0.2,0.4,0.32694925289186,"false"
"image-keyboard-response",355,292909,"0.0-4.114-1.114","vu35x6fdppjvx2d",325,"149.csv","","null","resources/maskTrios/L1BB.jpg","null","",NA,NA,NA,NA,""
"image-keyboard-response",356,294111,"0.0-4.114-2.114","vu35x6fdppjvx2d",325,"149.csv","","null","resources/images/fishbone.png","null","",NA,NA,NA,NA,""
"image-keyboard-response",357,294442,"0.0-4.115-0.115","vu35x6fdppjvx2d",325,"149.csv","","330","resources/trios/L1T2A3.jpg","39","restless",0.3,0.2,0.4,0.430112484075625,"false"
"image-keyboard-response",358,294844,"0.0-4.115-1.115","vu35x6fdppjvx2d",325,"149.csv","","null","resources/maskTrios/BBA3.jpg","null","",NA,NA,NA,NA,""
"image-keyboard-response",359,296046,"0.0-4.115-2.115","vu35x6fdppjvx2d",325,"149.csv","","null","resources/images/fishbone.png","null","",NA,NA,NA,NA,""
"image-keyboard-response",360,296313,"0.0-4.116-0.116","vu35x6fdppjvx2d",325,"149.csv","","265.90000000596046","resources/trios/L1T2A3.jpg","39","restless",0.3,0.2,0.4,0.282408104184701,"true"
"image-keyboard-response",361,296718,"0.0-4.116-1.116","vu35x6fdppjvx2d",325,"149.csv","","null","resources/maskTrios/BBA3.jpg","null","",NA,NA,NA,NA,""
"image-keyboard-response",362,297921,"0.0-4.116-2.116","vu35x6fdppjvx2d",325,"149.csv","","null","resources/images/coin2.png","null","",NA,NA,NA,NA,""
"image-keyboard-response",363,298167,"0.0-4.117-0.117","vu35x6fdppjvx2d",325,"149.csv","","243.5","resources/trios/L1T2A3.jpg","38","restless",0.3,0.2,0.4,0.274347985775184,"false"
"image-keyboard-response",364,298569,"0.0-4.117-1.117","vu35x6fdppjvx2d",325,"149.csv","","null","resources/maskTrios/BT2B.jpg","null","",NA,NA,NA,NA,""
"image-keyboard-response",365,299770,"0.0-4.117-2.117","vu35x6fdppjvx2d",325,"149.csv","","null","resources/images/fishbone.png","null","",NA,NA,NA,NA,""
"image-keyboard-response",366,299937,"0.0-4.118-0.118","vu35x6fdppjvx2d",325,"149.csv","","165.70000000298023","resources/trios/L1T2A3.jpg","39","restless",0.3,0.2,0.4,0.248924030605004,"true"
"image-keyboard-response",367,300339,"0.0-4.118-1.118","vu35x6fdppjvx2d",325,"149.csv","","null","resources/maskTrios/BBA3.jpg","null","",NA,NA,NA,NA,""
"image-keyboard-response",368,301541,"0.0-4.118-2.118","vu35x6fdppjvx2d",325,"149.csv","","null","resources/images/coin2.png","null","",NA,NA,NA,NA,""
"image-keyboard-response",369,301681,"0.0-4.119-0.119","vu35x6fdppjvx2d",325,"149.csv","","138.40000000596046","resources/trios/L1T2A3.jpg","39","restless",0.3,0.3,0.5,0.698692453609605,"false"
"image-keyboard-response",370,302084,"0.0-4.119-1.119","vu35x6fdppjvx2d",325,"149.csv","","null","resources/maskTrios/BBA3.jpg","null","",NA,NA,NA,NA,""
"image-keyboard-response",371,303286,"0.0-4.119-2.119","vu35x6fdppjvx2d",325,"149.csv","","null","resources/images/fishbone.png","null","",NA,NA,NA,NA,""
"image-keyboard-response",372,303362,"0.0-4.120-0.120","vu35x6fdppjvx2d",325,"149.csv","","74.90000000596046","resources/trios/L1T2A3.jpg","37","restless",0.3,0.3,0.5,0.126965463029854,"true"
"image-keyboard-response",373,303764,"0.0-4.120-1.120","vu35x6fdppjvx2d",325,"149.csv","","null","resources/maskTrios/L1BB.jpg","null","",NA,NA,NA,NA,""
"image-keyboard-response",374,304966,"0.0-4.120-2.120","vu35x6fdppjvx2d",325,"149.csv","","null","resources/images/coin2.png","null","",NA,NA,NA,NA,""
"image-keyboard-response",375,305020,"0.0-4.121-0.121","vu35x6fdppjvx2d",325,"149.csv","","52.5","resources/trios/L1T2A3.jpg","39","restless",0.3,0.3,0.5,0.646928078859403,"false"
"image-keyboard-response",376,305423,"0.0-4.121-1.121","vu35x6fdppjvx2d",325,"149.csv","","null","resources/maskTrios/BBA3.jpg","null","",NA,NA,NA,NA,""
"image-keyboard-response",377,306625,"0.0-4.121-2.121","vu35x6fdppjvx2d",325,"149.csv","","null","resources/images/fishbone.png","null","",NA,NA,NA,NA,""
"image-keyboard-response",378,306761,"0.0-4.122-0.122","vu35x6fdppjvx2d",325,"149.csv","","134.20000000298023","resources/trios/L1T2A3.jpg","37","restless",0.3,0.3,0.5,0.975732458928719,"false"
"image-keyboard-response",379,307165,"0.0-4.122-1.122","vu35x6fdppjvx2d",325,"149.csv","","null","resources/maskTrios/L1BB.jpg","null","",NA,NA,NA,NA,""
"image-keyboard-response",380,308366,"0.0-4.122-2.122","vu35x6fdppjvx2d",325,"149.csv","","null","resources/images/fishbone.png","null","",NA,NA,NA,NA,""
"image-keyboard-response",381,308467,"0.0-4.123-0.123","vu35x6fdppjvx2d",325,"149.csv","","99.59999999403954","resources/trios/L1T2A3.jpg","37","restless",0.3,0.3,0.5,0.148100258852637,"true"
"image-keyboard-response",382,308869,"0.0-4.123-1.123","vu35x6fdppjvx2d",325,"149.csv","","null","resources/maskTrios/L1BB.jpg","null","",NA,NA,NA,NA,""
"image-keyboard-response",383,310071,"0.0-4.123-2.123","vu35x6fdppjvx2d",325,"149.csv","","null","resources/images/coin2.png","null","",NA,NA,NA,NA,""
"image-keyboard-response",384,310320,"0.0-4.124-0.124","vu35x6fdppjvx2d",325,"149.csv","","246.90000000596046","resources/trios/L1T2A3.jpg","38","restless",0.3,0.3,0.5,0.0461576453571695,"true"
"image-keyboard-response",385,310723,"0.0-4.124-1.124","vu35x6fdppjvx2d",325,"149.csv","","null","resources/maskTrios/BT2B.jpg","null","",NA,NA,NA,NA,""
"image-keyboard-response",386,311925,"0.0-4.124-2.124","vu35x6fdppjvx2d",325,"149.csv","","null","resources/images/coin2.png","null","",NA,NA,NA,NA,""
"image-keyboard-response",387,312106,"0.0-4.125-0.125","vu35x6fdppjvx2d",325,"149.csv","","180.29999999701977","resources/trios/L1T2A3.jpg","39","restless",0.4,0.3,0.5,0.318390360084577,"true"
"image-keyboard-response",388,312510,"0.0-4.125-1.125","vu35x6fdppjvx2d",325,"149.csv","","null","resources/maskTrios/BBA3.jpg","null","",NA,NA,NA,NA,""
"image-keyboard-response",389,313711,"0.0-4.125-2.125","vu35x6fdppjvx2d",325,"149.csv","","null","resources/images/coin2.png","null","",NA,NA,NA,NA,""
"image-keyboard-response",390,313940,"0.0-4.126-0.126","vu35x6fdppjvx2d",325,"149.csv","","227.3999999910593","resources/trios/L1T2A3.jpg","37","restless",0.4,0.4,0.5,0.70484933507745,"false"
"image-keyboard-response",391,314342,"0.0-4.126-1.126","vu35x6fdppjvx2d",325,"149.csv","","null","resources/maskTrios/L1BB.jpg","null","",NA,NA,NA,NA,""
"image-keyboard-response",392,315544,"0.0-4.126-2.126","vu35x6fdppjvx2d",325,"149.csv","","null","resources/images/fishbone.png","null","",NA,NA,NA,NA,""
"image-keyboard-response",393,315799,"0.0-4.127-0.127","vu35x6fdppjvx2d",325,"149.csv","","254.20000000298023","resources/trios/L1T2A3.jpg","38","restless",0.4,0.4,0.5,0.313285810184171,"true"
"image-keyboard-response",394,316202,"0.0-4.127-1.127","vu35x6fdppjvx2d",325,"149.csv","","null","resources/maskTrios/BT2B.jpg","null","",NA,NA,NA,NA,""
"image-keyboard-response",395,317404,"0.0-4.127-2.127","vu35x6fdppjvx2d",325,"149.csv","","null","resources/images/coin2.png","null","",NA,NA,NA,NA,""
"image-keyboard-response",396,317614,"0.0-4.128-0.128","vu35x6fdppjvx2d",325,"149.csv","","208.5","resources/trios/L1T2A3.jpg","38","restless",0.4,0.4,0.5,0.627598982106641,"false"
"image-keyboard-response",397,318016,"0.0-4.128-1.128","vu35x6fdppjvx2d",325,"149.csv","","null","resources/maskTrios/BT2B.jpg","null","",NA,NA,NA,NA,""
"image-keyboard-response",398,319219,"0.0-4.128-2.128","vu35x6fdppjvx2d",325,"149.csv","","null","resources/images/fishbone.png","null","",NA,NA,NA,NA,""
"image-keyboard-response",399,319479,"0.0-4.129-0.129","vu35x6fdppjvx2d",325,"149.csv","","258.20000000298023","resources/trios/L1T2A3.jpg","37","restless",0.4,0.5,0.5,0.390971005385561,"true"
"image-keyboard-response",400,319881,"0.0-4.129-1.129","vu35x6fdppjvx2d",325,"149.csv","","null","resources/maskTrios/L1BB.jpg","null","",NA,NA,NA,NA,""
"image-keyboard-response",401,321082,"0.0-4.129-2.129","vu35x6fdppjvx2d",325,"149.csv","","null","resources/images/coin2.png","null","",NA,NA,NA,NA,""
"image-keyboard-response",402,321479,"0.0-4.130-0.130","vu35x6fdppjvx2d",325,"149.csv","","395.29999999701977","resources/trios/L1T2A3.jpg","38","restless",0.4,0.5,0.5,0.96322572182058,"false"
"image-keyboard-response",403,321882,"0.0-4.130-1.130","vu35x6fdppjvx2d",325,"149.csv","","null","resources/maskTrios/BT2B.jpg","null","",NA,NA,NA,NA,""
"image-keyboard-response",404,323084,"0.0-4.130-2.130","vu35x6fdppjvx2d",325,"149.csv","","null","resources/images/fishbone.png","null","",NA,NA,NA,NA,""
"image-keyboard-response",405,323389,"0.0-4.131-0.131","vu35x6fdppjvx2d",325,"149.csv","","303.79999999701977","resources/trios/L1T2A3.jpg","39","restless",0.4,0.5,0.5,0.288211244043435,"true"
"image-keyboard-response",406,323791,"0.0-4.131-1.131","vu35x6fdppjvx2d",325,"149.csv","","null","resources/maskTrios/BBA3.jpg","null","",NA,NA,NA,NA,""
"image-keyboard-response",407,324993,"0.0-4.131-2.131","vu35x6fdppjvx2d",325,"149.csv","","null","resources/images/coin2.png","null","",NA,NA,NA,NA,""
"image-keyboard-response",408,325501,"0.0-4.132-0.132","vu35x6fdppjvx2d",325,"149.csv","","506","resources/trios/L1T2A3.jpg","39","restless",0.4,0.5,0.5,0.4829088253552,"true"
"image-keyboard-response",409,325905,"0.0-4.132-1.132","vu35x6fdppjvx2d",325,"149.csv","","null","resources/maskTrios/BBA3.jpg","null","",NA,NA,NA,NA,""
"image-keyboard-response",410,327108,"0.0-4.132-2.132","vu35x6fdppjvx2d",325,"149.csv","","null","resources/images/coin2.png","null","",NA,NA,NA,NA,""
"image-keyboard-response",411,327437,"0.0-4.133-0.133","vu35x6fdppjvx2d",325,"149.csv","","325.8999999910593","resources/trios/L1T2A3.jpg","39","restless",0.4,0.5,0.5,0.956791425268648,"false"
"image-keyboard-response",412,327839,"0.0-4.133-1.133","vu35x6fdppjvx2d",325,"149.csv","","null","resources/maskTrios/BBA3.jpg","null","",NA,NA,NA,NA,""
"image-keyboard-response",413,329040,"0.0-4.133-2.133","vu35x6fdppjvx2d",325,"149.csv","","null","resources/images/fishbone.png","null","",NA,NA,NA,NA,""
"image-keyboard-response",414,329251,"0.0-4.134-0.134","vu35x6fdppjvx2d",325,"149.csv","","208.79999999701977","resources/trios/L1T2A3.jpg","37","restless",0.4,0.5,0.5,0.419405687134883,"false"
"image-keyboard-response",415,329653,"0.0-4.134-1.134","vu35x6fdppjvx2d",325,"149.csv","","null","resources/maskTrios/L1BB.jpg","null","",NA,NA,NA,NA,""
"image-keyboard-response",416,330854,"0.0-4.134-2.134","vu35x6fdppjvx2d",325,"149.csv","","null","resources/images/fishbone.png","null","",NA,NA,NA,NA,""
"image-keyboard-response",417,331018,"0.0-4.135-0.135","vu35x6fdppjvx2d",325,"149.csv","","161.70000000298023","resources/trios/L1T2A3.jpg","39","restless",0.4,0.5,0.5,0.736968658649928,"false"
"image-keyboard-response",418,331422,"0.0-4.135-1.135","vu35x6fdppjvx2d",325,"149.csv","","null","resources/maskTrios/BBA3.jpg","null","",NA,NA,NA,NA,""
"image-keyboard-response",419,332623,"0.0-4.135-2.135","vu35x6fdppjvx2d",325,"149.csv","","null","resources/images/fishbone.png","null","",NA,NA,NA,NA,""
"image-keyboard-response",420,332813,"0.0-4.136-0.136","vu35x6fdppjvx2d",325,"149.csv","","188.29999999701977","resources/trios/L1T2A3.jpg","38","restless",0.4,0.5,0.5,0.720458699962125,"false"
"image-keyboard-response",421,333215,"0.0-4.136-1.136","vu35x6fdppjvx2d",325,"149.csv","","null","resources/maskTrios/BT2B.jpg","null","",NA,NA,NA,NA,""
"image-keyboard-response",422,334416,"0.0-4.136-2.136","vu35x6fdppjvx2d",325,"149.csv","","null","resources/images/fishbone.png","null","",NA,NA,NA,NA,""
"image-keyboard-response",423,334878,"0.0-4.137-0.137","vu35x6fdppjvx2d",325,"149.csv","","460.90000000596046","resources/trios/L1T2A3.jpg","38","restless",0.4,0.5,0.5,0.828540698798211,"false"
"image-keyboard-response",424,335282,"0.0-4.137-1.137","vu35x6fdppjvx2d",325,"149.csv","","null","resources/maskTrios/BT2B.jpg","null","",NA,NA,NA,NA,""
"image-keyboard-response",425,336483,"0.0-4.137-2.137","vu35x6fdppjvx2d",325,"149.csv","","null","resources/images/fishbone.png","null","",NA,NA,NA,NA,""
"image-keyboard-response",426,336648,"0.0-4.138-0.138","vu35x6fdppjvx2d",325,"149.csv","","163.5","resources/trios/L1T2A3.jpg","37","restless",0.4,0.5,0.5,0.24947697539737,"true"
"image-keyboard-response",427,337050,"0.0-4.138-1.138","vu35x6fdppjvx2d",325,"149.csv","","null","resources/maskTrios/L1BB.jpg","null","",NA,NA,NA,NA,""
"image-keyboard-response",428,338252,"0.0-4.138-2.138","vu35x6fdppjvx2d",325,"149.csv","","null","resources/images/coin2.png","null","",NA,NA,NA,NA,""
"image-keyboard-response",429,338550,"0.0-4.139-0.139","vu35x6fdppjvx2d",325,"149.csv","","295.90000000596046","resources/trios/L1T2A3.jpg","37","restless",0.4,0.5,0.6,0.526614639605427,"false"
"image-keyboard-response",430,338953,"0.0-4.139-1.139","vu35x6fdppjvx2d",325,"149.csv","","null","resources/maskTrios/L1BB.jpg","null","",NA,NA,NA,NA,""
"image-keyboard-response",431,340154,"0.0-4.139-2.139","vu35x6fdppjvx2d",325,"149.csv","","null","resources/images/fishbone.png","null","",NA,NA,NA,NA,""
"image-keyboard-response",432,340199,"0.0-4.140-0.140","vu35x6fdppjvx2d",325,"149.csv","","43.70000000298023","resources/trios/L1T2A3.jpg","39","restless",0.4,0.5,0.6,0.695230844058404,"false"
"image-keyboard-response",433,340603,"0.0-4.140-1.140","vu35x6fdppjvx2d",325,"149.csv","","null","resources/maskTrios/BBA3.jpg","null","",NA,NA,NA,NA,""
"image-keyboard-response",434,341804,"0.0-4.140-2.140","vu35x6fdppjvx2d",325,"149.csv","","null","resources/images/fishbone.png","null","",NA,NA,NA,NA,""
"image-keyboard-response",435,342104,"0.0-4.141-0.141","vu35x6fdppjvx2d",325,"149.csv","","298.29999999701977","resources/trios/L1T2A3.jpg","38","restless",0.4,0.5,0.6,0.798611735656225,"false"
"image-keyboard-response",436,342506,"0.0-4.141-1.141","vu35x6fdppjvx2d",325,"149.csv","","null","resources/maskTrios/BT2B.jpg","null","",NA,NA,NA,NA,""
"image-keyboard-response",437,343707,"0.0-4.141-2.141","vu35x6fdppjvx2d",325,"149.csv","","null","resources/images/fishbone.png","null","",NA,NA,NA,NA,""
"image-keyboard-response",438,343964,"0.0-4.142-0.142","vu35x6fdppjvx2d",325,"149.csv","","255.5","resources/trios/L1T2A3.jpg","38","restless",0.5,0.5,0.6,0.9973284895676,"false"
"image-keyboard-response",439,344366,"0.0-4.142-1.142","vu35x6fdppjvx2d",325,"149.csv","","null","resources/maskTrios/BT2B.jpg","null","",NA,NA,NA,NA,""
"image-keyboard-response",440,345567,"0.0-4.142-2.142","vu35x6fdppjvx2d",325,"149.csv","","null","resources/images/fishbone.png","null","",NA,NA,NA,NA,""
"image-keyboard-response",441,345742,"0.0-4.143-0.143","vu35x6fdppjvx2d",325,"149.csv","","173.20000000298023","resources/trios/L1T2A3.jpg","38","restless",0.5,0.5,0.6,0.180410069132504,"true"
"image-keyboard-response",442,346146,"0.0-4.143-1.143","vu35x6fdppjvx2d",325,"149.csv","","null","resources/maskTrios/BT2B.jpg","null","",NA,NA,NA,NA,""
"image-keyboard-response",443,347348,"0.0-4.143-2.143","vu35x6fdppjvx2d",325,"149.csv","","null","resources/images/coin2.png","null","",NA,NA,NA,NA,""
"image-keyboard-response",444,347788,"0.0-4.144-0.144","vu35x6fdppjvx2d",325,"149.csv","","438.5","resources/trios/L1T2A3.jpg","38","restless",0.5,0.5,0.6,0.126013534462129,"true"
"image-keyboard-response",445,348191,"0.0-4.144-1.144","vu35x6fdppjvx2d",325,"149.csv","","null","resources/maskTrios/BT2B.jpg","null","",NA,NA,NA,NA,""
"image-keyboard-response",446,349392,"0.0-4.144-2.144","vu35x6fdppjvx2d",325,"149.csv","","null","resources/images/coin2.png","null","",NA,NA,NA,NA,""
"image-keyboard-response",447,349711,"0.0-4.145-0.145","vu35x6fdppjvx2d",325,"149.csv","","317","resources/trios/L1T2A3.jpg","38","restless",0.5,0.5,0.6,0.927264506891928,"false"
"image-keyboard-response",448,350113,"0.0-4.145-1.145","vu35x6fdppjvx2d",325,"149.csv","","null","resources/maskTrios/BT2B.jpg","null","",NA,NA,NA,NA,""
"image-keyboard-response",449,351315,"0.0-4.145-2.145","vu35x6fdppjvx2d",325,"149.csv","","null","resources/images/fishbone.png","null","",NA,NA,NA,NA,""
"image-keyboard-response",450,351494,"0.0-4.146-0.146","vu35x6fdppjvx2d",325,"149.csv","","178.20000000298023","resources/trios/L1T2A3.jpg","39","restless",0.5,0.5,0.6,0.294939098594592,"true"
"image-keyboard-response",451,351896,"0.0-4.146-1.146","vu35x6fdppjvx2d",325,"149.csv","","null","resources/maskTrios/BBA3.jpg","null","",NA,NA,NA,NA,""
"image-keyboard-response",452,353098,"0.0-4.146-2.146","vu35x6fdppjvx2d",325,"149.csv","","null","resources/images/coin2.png","null","",NA,NA,NA,NA,""
"image-keyboard-response",453,353228,"0.0-4.147-0.147","vu35x6fdppjvx2d",325,"149.csv","","128.90000000596046","resources/trios/L1T2A3.jpg","39","restless",0.5,0.5,0.6,0.854526193565093,"false"
"image-keyboard-response",454,353631,"0.0-4.147-1.147","vu35x6fdppjvx2d",325,"149.csv","","null","resources/maskTrios/BBA3.jpg","null","",NA,NA,NA,NA,""
"image-keyboard-response",455,354832,"0.0-4.147-2.147","vu35x6fdppjvx2d",325,"149.csv","","null","resources/images/fishbone.png","null","",NA,NA,NA,NA,""
"image-keyboard-response",456,354952,"0.0-4.148-0.148","vu35x6fdppjvx2d",325,"149.csv","","117.90000000596046","resources/trios/L1T2A3.jpg","39","restless",0.5,0.5,0.6,0.0785336249756008,"true"
"image-keyboard-response",457,355355,"0.0-4.148-1.148","vu35x6fdppjvx2d",325,"149.csv","","null","resources/maskTrios/BBA3.jpg","null","",NA,NA,NA,NA,""
"image-keyboard-response",458,356557,"0.0-4.148-2.148","vu35x6fdppjvx2d",325,"149.csv","","null","resources/images/coin2.png","null","",NA,NA,NA,NA,""
"image-keyboard-response",459,356785,"0.0-4.149-0.149","vu35x6fdppjvx2d",325,"149.csv","","226.59999999403954","resources/trios/L1T2A3.jpg","39","restless",0.5,0.4,0.6,0.911021661674759,"false"
"image-keyboard-response",460,357188,"0.0-4.149-1.149","vu35x6fdppjvx2d",325,"149.csv","","null","resources/maskTrios/BBA3.jpg","null","",NA,NA,NA,NA,""
"image-keyboard-response",461,358390,"0.0-4.149-2.149","vu35x6fdppjvx2d",325,"149.csv","","null","resources/images/fishbone.png","null","",NA,NA,NA,NA,""
"image-keyboard-response",462,358625,"0.0-4.150-0.150","vu35x6fdppjvx2d",325,"149.csv","","233.79999999701977","resources/trios/L1T2A3.jpg","39","restless",0.5,0.4,0.6,0.382061584122112,"true"
"image-keyboard-response",463,359028,"0.0-4.150-1.150","vu35x6fdppjvx2d",325,"149.csv","","null","resources/maskTrios/BBA3.jpg","null","",NA,NA,NA,NA,""
"image-keyboard-response",464,360230,"0.0-4.150-2.150","vu35x6fdppjvx2d",325,"149.csv","","null","resources/images/coin2.png","null","",NA,NA,NA,NA,""
"image-keyboard-response",465,360515,"0.0-4.151-0.151","vu35x6fdppjvx2d",325,"149.csv","","283.70000000298023","resources/trios/L1T2A3.jpg","37","restless",0.6,0.4,0.6,0.574933265335086,"true"
"image-keyboard-response",466,360917,"0.0-4.151-1.151","vu35x6fdppjvx2d",325,"149.csv","","null","resources/maskTrios/L1BB.jpg","null","",NA,NA,NA,NA,""
"image-keyboard-response",467,362119,"0.0-4.151-2.151","vu35x6fdppjvx2d",325,"149.csv","","null","resources/images/coin2.png","null","",NA,NA,NA,NA,""
"image-keyboard-response",468,362221,"0.0-4.152-0.152","vu35x6fdppjvx2d",325,"149.csv","","100.6000000089407","resources/trios/L1T2A3.jpg","39","restless",0.7,0.4,0.6,0.641042100258967,"false"
"image-keyboard-response",469,362623,"0.0-4.152-1.152","vu35x6fdppjvx2d",325,"149.csv","","null","resources/maskTrios/BBA3.jpg","null","",NA,NA,NA,NA,""
"image-keyboard-response",470,363824,"0.0-4.152-2.152","vu35x6fdppjvx2d",325,"149.csv","","null","resources/images/fishbone.png","null","",NA,NA,NA,NA,""
"image-keyboard-response",471,364013,"0.0-4.153-0.153","vu35x6fdppjvx2d",325,"149.csv","","186.8999999910593","resources/trios/L1T2A3.jpg","39","restless",0.7,0.4,0.6,0.936106443870145,"false"
"image-keyboard-response",472,364415,"0.0-4.153-1.153","vu35x6fdppjvx2d",325,"149.csv","","null","resources/maskTrios/BBA3.jpg","null","",NA,NA,NA,NA,""
"image-keyboard-response",473,365616,"0.0-4.153-2.153","vu35x6fdppjvx2d",325,"149.csv","","null","resources/images/fishbone.png","null","",NA,NA,NA,NA,""
"image-keyboard-response",474,365659,"0.0-4.154-0.154","vu35x6fdppjvx2d",325,"149.csv","","41.599999994039536","resources/trios/L1T2A3.jpg","38","restless",0.7,0.4,0.6,0.529169855319022,"false"
"image-keyboard-response",475,366063,"0.0-4.154-1.154","vu35x6fdppjvx2d",325,"149.csv","","null","resources/maskTrios/BT2B.jpg","null","",NA,NA,NA,NA,""
"image-keyboard-response",476,367264,"0.0-4.154-2.154","vu35x6fdppjvx2d",325,"149.csv","","null","resources/images/fishbone.png","null","",NA,NA,NA,NA,""
"image-keyboard-response",477,367327,"0.0-4.155-0.155","vu35x6fdppjvx2d",325,"149.csv","","61.6000000089407","resources/trios/L1T2A3.jpg","39","restless",0.7,0.4,0.6,0.12141344519048,"true"
"image-keyboard-response",478,367729,"0.0-4.155-1.155","vu35x6fdppjvx2d",325,"149.csv","","null","resources/maskTrios/BBA3.jpg","null","",NA,NA,NA,NA,""
"image-keyboard-response",479,368931,"0.0-4.155-2.155","vu35x6fdppjvx2d",325,"149.csv","","null","resources/images/coin2.png","null","",NA,NA,NA,NA,""
"image-keyboard-response",480,369178,"0.0-4.156-0.156","vu35x6fdppjvx2d",325,"149.csv","","245.79999999701977","resources/trios/L1T2A3.jpg","37","restless",0.7,0.4,0.6,0.923933559797087,"false"
"image-keyboard-response",481,369582,"0.0-4.156-1.156","vu35x6fdppjvx2d",325,"149.csv","","null","resources/maskTrios/L1BB.jpg","null","",NA,NA,NA,NA,""
"image-keyboard-response",482,370783,"0.0-4.156-2.156","vu35x6fdppjvx2d",325,"149.csv","","null","resources/images/fishbone.png","null","",NA,NA,NA,NA,""
"image-keyboard-response",483,370816,"0.0-4.157-0.157","vu35x6fdppjvx2d",325,"149.csv","","31","resources/trios/L1T2A3.jpg","38","restless",0.7,0.4,0.6,0.186169625371813,"true"
"image-keyboard-response",484,371219,"0.0-4.157-1.157","vu35x6fdppjvx2d",325,"149.csv","","null","resources/maskTrios/BT2B.jpg","null","",NA,NA,NA,NA,""
"image-keyboard-response",485,372421,"0.0-4.157-2.157","vu35x6fdppjvx2d",325,"149.csv","","null","resources/images/coin2.png","null","",NA,NA,NA,NA,""
"image-keyboard-response",486,372505,"0.0-4.158-0.158","vu35x6fdppjvx2d",325,"149.csv","","82.8999999910593","resources/trios/L1T2A3.jpg","39","restless",0.7,0.4,0.6,0.147724427185457,"true"
"image-keyboard-response",487,372909,"0.0-4.158-1.158","vu35x6fdppjvx2d",325,"149.csv","","null","resources/maskTrios/BBA3.jpg","null","",NA,NA,NA,NA,""
"image-keyboard-response",488,374111,"0.0-4.158-2.158","vu35x6fdppjvx2d",325,"149.csv","","null","resources/images/coin2.png","null","",NA,NA,NA,NA,""
"image-keyboard-response",489,374221,"0.0-4.159-0.159","vu35x6fdppjvx2d",325,"149.csv","","109.70000000298023","resources/trios/L1T2A3.jpg","37","restless",0.8,0.4,0.6,0.153551355023765,"true"
"image-keyboard-response",490,374623,"0.0-4.159-1.159","vu35x6fdppjvx2d",325,"149.csv","","null","resources/maskTrios/L1BB.jpg","null","",NA,NA,NA,NA,""
"image-keyboard-response",491,375825,"0.0-4.159-2.159","vu35x6fdppjvx2d",325,"149.csv","","null","resources/images/coin2.png","null","",NA,NA,NA,NA,""
"image-keyboard-response",492,376097,"0.0-4.160-0.160","vu35x6fdppjvx2d",325,"149.csv","","271.09999999403954","resources/trios/L1T2A3.jpg","38","restless",0.7,0.4,0.6,0.461272414897435,"false"
"image-keyboard-response",493,376499,"0.0-4.160-1.160","vu35x6fdppjvx2d",325,"149.csv","","null","resources/maskTrios/BT2B.jpg","null","",NA,NA,NA,NA,""
"image-keyboard-response",494,377700,"0.0-4.160-2.160","vu35x6fdppjvx2d",325,"149.csv","","null","resources/images/fishbone.png","null","",NA,NA,NA,NA,""
"image-keyboard-response",495,377787,"0.0-4.161-0.161","vu35x6fdppjvx2d",325,"149.csv","","85.20000000298023","resources/trios/L1T2A3.jpg","39","restless",0.7,0.4,0.5,0.979951335940831,"false"
"image-keyboard-response",496,378189,"0.0-4.161-1.161","vu35x6fdppjvx2d",325,"149.csv","","null","resources/maskTrios/BBA3.jpg","null","",NA,NA,NA,NA,""
"image-keyboard-response",497,379390,"0.0-4.161-2.161","vu35x6fdppjvx2d",325,"149.csv","","null","resources/images/fishbone.png","null","",NA,NA,NA,NA,""
"image-keyboard-response",498,379594,"0.0-4.162-0.162","vu35x6fdppjvx2d",325,"149.csv","","201.90000000596046","resources/trios/L1T2A3.jpg","37","restless",0.7,0.3,0.5,0.978880662680578,"false"
"image-keyboard-response",499,379996,"0.0-4.162-1.162","vu35x6fdppjvx2d",325,"149.csv","","null","resources/maskTrios/L1BB.jpg","null","",NA,NA,NA,NA,""
"image-keyboard-response",500,381197,"0.0-4.162-2.162","vu35x6fdppjvx2d",325,"149.csv","","null","resources/images/fishbone.png","null","",NA,NA,NA,NA,""
"image-keyboard-response",501,381625,"0.0-4.163-0.163","vu35x6fdppjvx2d",325,"149.csv","","426.20000000298023","resources/trios/L1T2A3.jpg","37","restless",0.8,0.3,0.5,0.912989442823264,"false"
"image-keyboard-response",502,382028,"0.0-4.163-1.163","vu35x6fdppjvx2d",325,"149.csv","","null","resources/maskTrios/L1BB.jpg","null","",NA,NA,NA,NA,""
"image-keyboard-response",503,383230,"0.0-4.163-2.163","vu35x6fdppjvx2d",325,"149.csv","","null","resources/images/fishbone.png","null","",NA,NA,NA,NA,""
"image-keyboard-response",504,383540,"0.0-4.164-0.164","vu35x6fdppjvx2d",325,"149.csv","","309.30000001192093","resources/trios/L1T2A3.jpg","37","restless",0.8,0.3,0.5,0.533296024934102,"true"
"image-keyboard-response",505,383942,"0.0-4.164-1.164","vu35x6fdppjvx2d",325,"149.csv","","null","resources/maskTrios/L1BB.jpg","null","",NA,NA,NA,NA,""
"image-keyboard-response",506,385144,"0.0-4.164-2.164","vu35x6fdppjvx2d",325,"149.csv","","null","resources/images/coin2.png","null","",NA,NA,NA,NA,""
"image-keyboard-response",507,385363,"0.0-4.165-0.165","vu35x6fdppjvx2d",325,"149.csv","","217.90000000596046","resources/trios/L1T2A3.jpg","38","restless",0.8,0.3,0.5,0.317235437111933,"false"
"image-keyboard-response",508,385765,"0.0-4.165-1.165","vu35x6fdppjvx2d",325,"149.csv","","null","resources/maskTrios/BT2B.jpg","null","",NA,NA,NA,NA,""
"image-keyboard-response",509,386967,"0.0-4.165-2.165","vu35x6fdppjvx2d",325,"149.csv","","null","resources/images/fishbone.png","null","",NA,NA,NA,NA,""
"image-keyboard-response",510,387578,"0.0-4.166-0.166","vu35x6fdppjvx2d",325,"149.csv","","608.9000000059605","resources/trios/L1T2A3.jpg","37","restless",0.8,0.3,0.4,0.728812927702107,"true"
"image-keyboard-response",511,387981,"0.0-4.166-1.166","vu35x6fdppjvx2d",325,"149.csv","","null","resources/maskTrios/L1BB.jpg","null","",NA,NA,NA,NA,""
"image-keyboard-response",512,389183,"0.0-4.166-2.166","vu35x6fdppjvx2d",325,"149.csv","","null","resources/images/coin2.png","null","",NA,NA,NA,NA,""
"image-keyboard-response",513,389447,"0.0-4.167-0.167","vu35x6fdppjvx2d",325,"149.csv","","262.90000000596046","resources/trios/L1T2A3.jpg","37","restless",0.8,0.2,0.4,0.546035337980804,"true"
"image-keyboard-response",514,389849,"0.0-4.167-1.167","vu35x6fdppjvx2d",325,"149.csv","","null","resources/maskTrios/L1BB.jpg","null","",NA,NA,NA,NA,""
"image-keyboard-response",515,391051,"0.0-4.167-2.167","vu35x6fdppjvx2d",325,"149.csv","","null","resources/images/coin2.png","null","",NA,NA,NA,NA,""
"image-keyboard-response",516,391304,"0.0-4.168-0.168","vu35x6fdppjvx2d",325,"149.csv","","251.09999999403954","resources/trios/L1T2A3.jpg","37","restless",0.8,0.2,0.4,0.572735102287137,"true"
"image-keyboard-response",517,391708,"0.0-4.168-1.168","vu35x6fdppjvx2d",325,"149.csv","","null","resources/maskTrios/L1BB.jpg","null","",NA,NA,NA,NA,""
"image-keyboard-response",518,392909,"0.0-4.168-2.168","vu35x6fdppjvx2d",325,"149.csv","","null","resources/images/coin2.png","null","",NA,NA,NA,NA,""
"image-keyboard-response",519,393218,"0.0-4.169-0.169","vu35x6fdppjvx2d",325,"149.csv","","307.70000000298023","resources/trios/L1T2A3.jpg","37","restless",0.8,0.2,0.4,0.108799658384529,"true"
"image-keyboard-response",520,393622,"0.0-4.169-1.169","vu35x6fdppjvx2d",325,"149.csv","","null","resources/maskTrios/L1BB.jpg","null","",NA,NA,NA,NA,""
"image-keyboard-response",521,394823,"0.0-4.169-2.169","vu35x6fdppjvx2d",325,"149.csv","","null","resources/images/coin2.png","null","",NA,NA,NA,NA,""
"image-keyboard-response",522,395303,"0.0-4.170-0.170","vu35x6fdppjvx2d",325,"149.csv","","478.19999998807907","resources/trios/L1T2A3.jpg","37","restless",0.9,0.2,0.4,0.587410547751303,"true"
"image-keyboard-response",523,395705,"0.0-4.170-1.170","vu35x6fdppjvx2d",325,"149.csv","","null","resources/maskTrios/L1BB.jpg","null","",NA,NA,NA,NA,""
"image-keyboard-response",524,396906,"0.0-4.170-2.170","vu35x6fdppjvx2d",325,"149.csv","","null","resources/images/coin2.png","null","",NA,NA,NA,NA,""
"image-keyboard-response",525,397100,"0.0-4.171-0.171","vu35x6fdppjvx2d",325,"149.csv","","191.8999999910593","resources/trios/L1T2A3.jpg","37","restless",0.9,0.2,0.4,0.784770473547449,"true"
"image-keyboard-response",526,397504,"0.0-4.171-1.171","vu35x6fdppjvx2d",325,"149.csv","","null","resources/maskTrios/L1BB.jpg","null","",NA,NA,NA,NA,""
"image-keyboard-response",527,398705,"0.0-4.171-2.171","vu35x6fdppjvx2d",325,"149.csv","","null","resources/images/coin2.png","null","",NA,NA,NA,NA,""
"image-keyboard-response",528,398835,"0.0-4.172-0.172","vu35x6fdppjvx2d",325,"149.csv","","127.79999999701977","resources/trios/L1T2A3.jpg","37","restless",0.9,0.2,0.4,0.124364329801659,"true"
"image-keyboard-response",529,399238,"0.0-4.172-1.172","vu35x6fdppjvx2d",325,"149.csv","","null","resources/maskTrios/L1BB.jpg","null","",NA,NA,NA,NA,""
"image-keyboard-response",530,400439,"0.0-4.172-2.172","vu35x6fdppjvx2d",325,"149.csv","","null","resources/images/coin2.png","null","",NA,NA,NA,NA,""
"image-keyboard-response",531,400954,"0.0-4.173-0.173","vu35x6fdppjvx2d",325,"149.csv","","513.0999999940395","resources/trios/L1T2A3.jpg","37","restless",0.9,0.3,0.3,0.838365843925424,"true"
"image-keyboard-response",532,401357,"0.0-4.173-1.173","vu35x6fdppjvx2d",325,"149.csv","","null","resources/maskTrios/L1BB.jpg","null","",NA,NA,NA,NA,""
"image-keyboard-response",533,402560,"0.0-4.173-2.173","vu35x6fdppjvx2d",325,"149.csv","","null","resources/images/coin2.png","null","",NA,NA,NA,NA,""
"image-keyboard-response",534,402814,"0.0-4.174-0.174","vu35x6fdppjvx2d",325,"149.csv","","253.09999999403954","resources/trios/L1T2A3.jpg","37","restless",0.9,0.3,0.3,0.0258205190575027,"true"
"image-keyboard-response",535,403217,"0.0-4.174-1.174","vu35x6fdppjvx2d",325,"149.csv","","null","resources/maskTrios/L1BB.jpg","null","",NA,NA,NA,NA,""
"image-keyboard-response",536,404418,"0.0-4.174-2.174","vu35x6fdppjvx2d",325,"149.csv","","null","resources/images/coin2.png","null","",NA,NA,NA,NA,""
"image-keyboard-response",537,404715,"0.0-4.175-0.175","vu35x6fdppjvx2d",325,"149.csv","","294.69999998807907","resources/trios/L1T2A3.jpg","37","restless",0.9,0.3,0.3,0.780622371599455,"true"
"image-keyboard-response",538,405118,"0.0-4.175-1.175","vu35x6fdppjvx2d",325,"149.csv","","null","resources/maskTrios/L1BB.jpg","null","",NA,NA,NA,NA,""
"image-keyboard-response",539,406319,"0.0-4.175-2.175","vu35x6fdppjvx2d",325,"149.csv","","null","resources/images/coin2.png","null","",NA,NA,NA,NA,""
"image-keyboard-response",540,406425,"0.0-4.176-0.176","vu35x6fdppjvx2d",325,"149.csv","","103.69999998807907","resources/trios/L1T2A3.jpg","37","restless",0.9,0.3,0.3,0.946024507601202,"false"
"image-keyboard-response",541,406827,"0.0-4.176-1.176","vu35x6fdppjvx2d",325,"149.csv","","null","resources/maskTrios/L1BB.jpg","null","",NA,NA,NA,NA,""
"image-keyboard-response",542,408028,"0.0-4.176-2.176","vu35x6fdppjvx2d",325,"149.csv","","null","resources/images/fishbone.png","null","",NA,NA,NA,NA,""
"image-keyboard-response",543,408189,"0.0-4.177-0.177","vu35x6fdppjvx2d",325,"149.csv","","159.3999999910593","resources/trios/L1T2A3.jpg","39","restless",0.9,0.3,0.3,0.726842763206991,"false"
"image-keyboard-response",544,408593,"0.0-4.177-1.177","vu35x6fdppjvx2d",325,"149.csv","","null","resources/maskTrios/BBA3.jpg","null","",NA,NA,NA,NA,""
"image-keyboard-response",545,409794,"0.0-4.177-2.177","vu35x6fdppjvx2d",325,"149.csv","","null","resources/images/fishbone.png","null","",NA,NA,NA,NA,""
"image-keyboard-response",546,410119,"0.0-4.178-0.178","vu35x6fdppjvx2d",325,"149.csv","","323.40000000596046","resources/trios/L1T2A3.jpg","39","restless",0.9,0.4,0.3,0.947182504341282,"false"
"image-keyboard-response",547,410524,"0.0-4.178-1.178","vu35x6fdppjvx2d",325,"149.csv","","null","resources/maskTrios/BBA3.jpg","null","",NA,NA,NA,NA,""
"image-keyboard-response",548,411726,"0.0-4.178-2.178","vu35x6fdppjvx2d",325,"149.csv","","null","resources/images/fishbone.png","null","",NA,NA,NA,NA,""
"image-keyboard-response",549,411768,"0.0-4.179-0.179","vu35x6fdppjvx2d",325,"149.csv","","38.70000000298023","resources/trios/L1T2A3.jpg","38","restless",0.9,0.4,0.3,0.570722901665078,"false"
"image-keyboard-response",550,412171,"0.0-4.179-1.179","vu35x6fdppjvx2d",325,"149.csv","","null","resources/maskTrios/BT2B.jpg","null","",NA,NA,NA,NA,""
"image-keyboard-response",551,413372,"0.0-4.179-2.179","vu35x6fdppjvx2d",325,"149.csv","","null","resources/images/fishbone.png","null","",NA,NA,NA,NA,""
"image-keyboard-response",552,413541,"0.0-4.180-0.180","vu35x6fdppjvx2d",325,"149.csv","","167","resources/trios/L1T2A3.jpg","37","restless",0.9,0.4,0.3,0.611736687418418,"true"
"image-keyboard-response",553,413943,"0.0-4.180-1.180","vu35x6fdppjvx2d",325,"149.csv","","null","resources/maskTrios/L1BB.jpg","null","",NA,NA,NA,NA,""
"image-keyboard-response",554,415144,"0.0-4.180-2.180","vu35x6fdppjvx2d",325,"149.csv","","null","resources/images/coin2.png","null","",NA,NA,NA,NA,""
"image-keyboard-response",555,415394,"0.0-4.181-0.181","vu35x6fdppjvx2d",325,"149.csv","","248.19999998807907","resources/trios/L1T2A3.jpg","37","restless",0.9,0.4,0.3,0.307839142726675,"true"
"image-keyboard-response",556,415797,"0.0-4.181-1.181","vu35x6fdppjvx2d",325,"149.csv","","null","resources/maskTrios/L1BB.jpg","null","",NA,NA,NA,NA,""
"image-keyboard-response",557,416999,"0.0-4.181-2.181","vu35x6fdppjvx2d",325,"149.csv","","null","resources/images/coin2.png","null","",NA,NA,NA,NA,""
"image-keyboard-response",558,417302,"0.0-4.182-0.182","vu35x6fdppjvx2d",325,"149.csv","","301.3999999910593","resources/trios/L1T2A3.jpg","37","restless",0.9,0.4,0.3,0.314605964807166,"true"
"image-keyboard-response",559,417704,"0.0-4.182-1.182","vu35x6fdppjvx2d",325,"149.csv","","null","resources/maskTrios/L1BB.jpg","null","",NA,NA,NA,NA,""
"image-keyboard-response",560,418905,"0.0-4.182-2.182","vu35x6fdppjvx2d",325,"149.csv","","null","resources/images/coin2.png","null","",NA,NA,NA,NA,""
"image-keyboard-response",561,419256,"0.0-4.183-0.183","vu35x6fdppjvx2d",325,"149.csv","","349.29999999701977","resources/trios/L1T2A3.jpg","37","restless",0.9,0.4,0.3,0.25530401253937,"true"
"image-keyboard-response",562,419660,"0.0-4.183-1.183","vu35x6fdppjvx2d",325,"149.csv","","null","resources/maskTrios/L1BB.jpg","null","",NA,NA,NA,NA,""
"image-keyboard-response",563,420863,"0.0-4.183-2.183","vu35x6fdppjvx2d",325,"149.csv","","null","resources/images/coin2.png","null","",NA,NA,NA,NA,""
"image-keyboard-response",564,421235,"0.0-4.184-0.184","vu35x6fdppjvx2d",325,"149.csv","","370.5","resources/trios/L1T2A3.jpg","37","restless",0.9,0.4,0.3,0.887025106435841,"true"
"image-keyboard-response",565,421637,"0.0-4.184-1.184","vu35x6fdppjvx2d",325,"149.csv","","null","resources/maskTrios/L1BB.jpg","null","",NA,NA,NA,NA,""
"image-keyboard-response",566,422839,"0.0-4.184-2.184","vu35x6fdppjvx2d",325,"149.csv","","null","resources/images/coin2.png","null","",NA,NA,NA,NA,""
"image-keyboard-response",567,423077,"0.0-4.185-0.185","vu35x6fdppjvx2d",325,"149.csv","","236.79999999701977","resources/trios/L1T2A3.jpg","37","restless",0.9,0.4,0.3,0.327911644728315,"true"
"image-keyboard-response",568,423479,"0.0-4.185-1.185","vu35x6fdppjvx2d",325,"149.csv","","null","resources/maskTrios/L1BB.jpg","null","",NA,NA,NA,NA,""
"image-keyboard-response",569,424681,"0.0-4.185-2.185","vu35x6fdppjvx2d",325,"149.csv","","null","resources/images/coin2.png","null","",NA,NA,NA,NA,""
"image-keyboard-response",570,425085,"0.0-4.186-0.186","vu35x6fdppjvx2d",325,"149.csv","","403.1000000089407","resources/trios/L1T2A3.jpg","37","restless",0.8,0.4,0.4,0.606444755967853,"true"
"image-keyboard-response",571,425488,"0.0-4.186-1.186","vu35x6fdppjvx2d",325,"149.csv","","null","resources/maskTrios/L1BB.jpg","null","",NA,NA,NA,NA,""
"image-keyboard-response",572,426690,"0.0-4.186-2.186","vu35x6fdppjvx2d",325,"149.csv","","null","resources/images/coin2.png","null","",NA,NA,NA,NA,""
"image-keyboard-response",573,426783,"0.0-4.187-0.187","vu35x6fdppjvx2d",325,"149.csv","","92.09999999403954","resources/trios/L1T2A3.jpg","37","restless",0.8,0.4,0.4,0.791907915836011,"true"
"image-keyboard-response",574,427186,"0.0-4.187-1.187","vu35x6fdppjvx2d",325,"149.csv","","null","resources/maskTrios/L1BB.jpg","null","",NA,NA,NA,NA,""
"image-keyboard-response",575,428387,"0.0-4.187-2.187","vu35x6fdppjvx2d",325,"149.csv","","null","resources/images/coin2.png","null","",NA,NA,NA,NA,""
"image-keyboard-response",576,428594,"0.0-4.188-0.188","vu35x6fdppjvx2d",325,"149.csv","","203.1000000089407","resources/trios/L1T2A3.jpg","37","restless",0.8,0.5,0.3,0.811258813720972,"false"
"image-keyboard-response",577,428995,"0.0-4.188-1.188","vu35x6fdppjvx2d",325,"149.csv","","null","resources/maskTrios/L1BB.jpg","null","",NA,NA,NA,NA,""
"image-keyboard-response",578,430197,"0.0-4.188-2.188","vu35x6fdppjvx2d",325,"149.csv","","null","resources/images/fishbone.png","null","",NA,NA,NA,NA,""
"image-keyboard-response",579,430558,"0.0-4.189-0.189","vu35x6fdppjvx2d",325,"149.csv","","359.20000000298023","resources/trios/L1T2A3.jpg","37","restless",0.8,0.5,0.3,0.400580390458263,"true"
"image-keyboard-response",580,430960,"0.0-4.189-1.189","vu35x6fdppjvx2d",325,"149.csv","","null","resources/maskTrios/L1BB.jpg","null","",NA,NA,NA,NA,""
"image-keyboard-response",581,432162,"0.0-4.189-2.189","vu35x6fdppjvx2d",325,"149.csv","","null","resources/images/coin2.png","null","",NA,NA,NA,NA,""
"image-keyboard-response",582,432388,"0.0-4.190-0.190","vu35x6fdppjvx2d",325,"149.csv","","224.29999999701977","resources/trios/L1T2A3.jpg","37","restless",0.8,0.5,0.3,0.73049506198663,"true"
"image-keyboard-response",583,432791,"0.0-4.190-1.190","vu35x6fdppjvx2d",325,"149.csv","","null","resources/maskTrios/L1BB.jpg","null","",NA,NA,NA,NA,""
"image-keyboard-response",584,433992,"0.0-4.190-2.190","vu35x6fdppjvx2d",325,"149.csv","","null","resources/images/coin2.png","null","",NA,NA,NA,NA,""
"image-keyboard-response",585,434244,"0.0-4.191-0.191","vu35x6fdppjvx2d",325,"149.csv","","250.20000000298023","resources/trios/L1T2A3.jpg","37","restless",0.7,0.5,0.2,0.432643480497375,"true"
"image-keyboard-response",586,434647,"0.0-4.191-1.191","vu35x6fdppjvx2d",325,"149.csv","","null","resources/maskTrios/L1BB.jpg","null","",NA,NA,NA,NA,""
"image-keyboard-response",587,435849,"0.0-4.191-2.191","vu35x6fdppjvx2d",325,"149.csv","","null","resources/images/coin2.png","null","",NA,NA,NA,NA,""
"image-keyboard-response",588,436310,"0.0-4.192-0.192","vu35x6fdppjvx2d",325,"149.csv","","460.1000000089407","resources/trios/L1T2A3.jpg","37","restless",0.7,0.5,0.2,0.425167046376123,"true"
"image-keyboard-response",589,436713,"0.0-4.192-1.192","vu35x6fdppjvx2d",325,"149.csv","","null","resources/maskTrios/L1BB.jpg","null","",NA,NA,NA,NA,""
"image-keyboard-response",590,437916,"0.0-4.192-2.192","vu35x6fdppjvx2d",325,"149.csv","","null","resources/images/coin2.png","null","",NA,NA,NA,NA,""
"image-keyboard-response",591,438226,"0.0-4.193-0.193","vu35x6fdppjvx2d",325,"149.csv","","308.3999999910593","resources/trios/L1T2A3.jpg","37","restless",0.6,0.5,0.2,0.793841098933439,"false"
"image-keyboard-response",592,438630,"0.0-4.193-1.193","vu35x6fdppjvx2d",325,"149.csv","","null","resources/maskTrios/L1BB.jpg","null","",NA,NA,NA,NA,""
"image-keyboard-response",593,439831,"0.0-4.193-2.193","vu35x6fdppjvx2d",325,"149.csv","","null","resources/images/fishbone.png","null","",NA,NA,NA,NA,""
"image-keyboard-response",594,440049,"0.0-4.194-0.194","vu35x6fdppjvx2d",325,"149.csv","","217.20000000298023","resources/trios/L1T2A3.jpg","39","restless",0.6,0.6,0.3,0.452268445205029,"false"
"image-keyboard-response",595,440451,"0.0-4.194-1.194","vu35x6fdppjvx2d",325,"149.csv","","null","resources/maskTrios/BBA3.jpg","null","",NA,NA,NA,NA,""
"image-keyboard-response",596,441654,"0.0-4.194-2.194","vu35x6fdppjvx2d",325,"149.csv","","null","resources/images/fishbone.png","null","",NA,NA,NA,NA,""
"image-keyboard-response",597,441699,"0.0-4.195-0.195","vu35x6fdppjvx2d",325,"149.csv","","43.1000000089407","resources/trios/L1T2A3.jpg","38","restless",0.6,0.6,0.3,0.804964105465523,"false"
"image-keyboard-response",598,442101,"0.0-4.195-1.195","vu35x6fdppjvx2d",325,"149.csv","","null","resources/maskTrios/BT2B.jpg","null","",NA,NA,NA,NA,""
"image-keyboard-response",599,443302,"0.0-4.195-2.195","vu35x6fdppjvx2d",325,"149.csv","","null","resources/images/fishbone.png","null","",NA,NA,NA,NA,""
"image-keyboard-response",600,443449,"0.0-4.196-0.196","vu35x6fdppjvx2d",325,"149.csv","","145.6000000089407","resources/trios/L1T2A3.jpg","37","restless",0.6,0.6,0.3,0.557438760603025,"true"
"image-keyboard-response",601,443851,"0.0-4.196-1.196","vu35x6fdppjvx2d",325,"149.csv","","null","resources/maskTrios/L1BB.jpg","null","",NA,NA,NA,NA,""
"image-keyboard-response",602,445052,"0.0-4.196-2.196","vu35x6fdppjvx2d",325,"149.csv","","null","resources/images/coin2.png","null","",NA,NA,NA,NA,""
"image-keyboard-response",603,445308,"0.0-4.197-0.197","vu35x6fdppjvx2d",325,"149.csv","","254.5","resources/trios/L1T2A3.jpg","37","restless",0.6,0.6,0.3,0.448402993525158,"true"
"image-keyboard-response",604,445712,"0.0-4.197-1.197","vu35x6fdppjvx2d",325,"149.csv","","null","resources/maskTrios/L1BB.jpg","null","",NA,NA,NA,NA,""
"image-keyboard-response",605,446914,"0.0-4.197-2.197","vu35x6fdppjvx2d",325,"149.csv","","null","resources/images/coin2.png","null","",NA,NA,NA,NA,""
"image-keyboard-response",606,447159,"0.0-4.198-0.198","vu35x6fdppjvx2d",325,"149.csv","","244.20000000298023","resources/trios/L1T2A3.jpg","37","restless",0.6,0.6,0.3,0.441836416411108,"true"
"image-keyboard-response",607,447564,"0.0-4.198-1.198","vu35x6fdppjvx2d",325,"149.csv","","null","resources/maskTrios/L1BB.jpg","null","",NA,NA,NA,NA,""
"image-keyboard-response",608,448766,"0.0-4.198-2.198","vu35x6fdppjvx2d",325,"149.csv","","null","resources/images/coin2.png","null","",NA,NA,NA,NA,""
