"trial_type","trial_index","time_elapsed","internal_node_id","subject","participantCode","walkNumber","success","rt","stimulus","key_press","test_part","leftProb","midProb","rightProb","generatedNum","correct"
"pavlovia",0,945,"0.0-0.0","909j6gs3deyavh4",700,"90.csv","","","","","",NA,NA,NA,NA,""
"fullscreen",1,3833,"0.0-1.0","909j6gs3deyavh4",700,"90.csv","true","","","","",NA,NA,NA,NA,""
"survey-html-form",2,9741,"0.0-2.0","909j6gs3deyavh4",700,"90.csv","","5907.700000000186","","","",NA,NA,NA,NA,""
"image-keyboard-response",3,16303,"0.0-3.0-0.0","909j6gs3deyavh4",700,"90.csv","","6560.9000000003725","resources/images/parrot_nobg.png","13","",NA,NA,NA,NA,""
"image-keyboard-response",4,19311,"0.0-3.0-1.0","909j6gs3deyavh4",700,"90.csv","","null","resources/image_sets/111.png","null","",NA,NA,NA,NA,""
"image-keyboard-response",5,21187,"0.0-3.0-2.0","909j6gs3deyavh4",700,"90.csv","","1875.5999999996275","resources/image_sets/left_highlight.png","37","",NA,NA,NA,NA,""
"image-keyboard-response",6,22150,"0.0-3.0-3.0","909j6gs3deyavh4",700,"90.csv","","962.8000000007451","resources/image_sets/mid_highlight.png","38","",NA,NA,NA,NA,""
"image-keyboard-response",7,22543,"0.0-3.0-4.0","909j6gs3deyavh4",700,"90.csv","","392.70000000018626","resources/image_sets/right_highlight.png","39","",NA,NA,NA,NA,""
"image-keyboard-response",8,23600,"0.0-3.0-5.0","909j6gs3deyavh4",700,"90.csv","","1055.9000000003725","resources/image_sets/111.png","13","",NA,NA,NA,NA,""
"image-keyboard-response",9,24419,"0.0-3.0-6.0","909j6gs3deyavh4",700,"90.csv","","818.2999999998137","resources/images/coin2.png","13","",NA,NA,NA,NA,""
"image-keyboard-response",10,25097,"0.0-3.0-7.0","909j6gs3deyavh4",700,"90.csv","","678.2000000001863","resources/images/fishbone.png","13","",NA,NA,NA,NA,""
"html-keyboard-response",11,26387,"0.0-3.0-8.0","909j6gs3deyavh4",700,"90.csv","","1289.5","<p>You can track your coin total on the top right of your screen. </p><p>At the end of your journey you will be directed to a survey, so please click on the link before exiting the task</p><p>Press Enter to begin</p>","13","",NA,NA,NA,NA,""
"image-keyboard-response",12,26935,"0.0-4.0-0.0","909j6gs3deyavh4",700,"90.csv","","547","resources/trios/L1T2A3.jpg","37","restless",0.9,0.7,0.3,0.564262787707513,"true"
"image-keyboard-response",13,27344,"0.0-4.0-1.0","909j6gs3deyavh4",700,"90.csv","","null","resources/maskTrios/L1BB.jpg","null","",NA,NA,NA,NA,""
"image-keyboard-response",14,28561,"0.0-4.0-2.0","909j6gs3deyavh4",700,"90.csv","","null","resources/images/coin2.png","null","",NA,NA,NA,NA,""
"image-keyboard-response",15,28843,"0.0-4.1-0.1","909j6gs3deyavh4",700,"90.csv","","281.5","resources/trios/L1T2A3.jpg","37","restless",0.9,0.7,0.3,0.557044033837751,"true"
"image-keyboard-response",16,29249,"0.0-4.1-1.1","909j6gs3deyavh4",700,"90.csv","","null","resources/maskTrios/L1BB.jpg","null","",NA,NA,NA,NA,""
"image-keyboard-response",17,30461,"0.0-4.1-2.1","909j6gs3deyavh4",700,"90.csv","","null","resources/images/coin2.png","null","",NA,NA,NA,NA,""
"image-keyboard-response",18,30667,"0.0-4.2-0.2","909j6gs3deyavh4",700,"90.csv","","204.70000000018626","resources/trios/L1T2A3.jpg","37","restless",0.9,0.7,0.3,0.38436703491846,"true"
"image-keyboard-response",19,31071,"0.0-4.2-1.2","909j6gs3deyavh4",700,"90.csv","","null","resources/maskTrios/L1BB.jpg","null","",NA,NA,NA,NA,""
"image-keyboard-response",20,32288,"0.0-4.2-2.2","909j6gs3deyavh4",700,"90.csv","","null","resources/images/coin2.png","null","",NA,NA,NA,NA,""
"image-keyboard-response",21,32417,"0.0-4.3-0.3","909j6gs3deyavh4",700,"90.csv","","128.79999999981374","resources/trios/L1T2A3.jpg","37","restless",0.9,0.7,0.3,0.867251375200695,"true"
"image-keyboard-response",22,32827,"0.0-4.3-1.3","909j6gs3deyavh4",700,"90.csv","","null","resources/maskTrios/L1BB.jpg","null","",NA,NA,NA,NA,""
"image-keyboard-response",23,34030,"0.0-4.3-2.3","909j6gs3deyavh4",700,"90.csv","","null","resources/images/coin2.png","null","",NA,NA,NA,NA,""
"image-keyboard-response",24,34200,"0.0-4.4-0.4","909j6gs3deyavh4",700,"90.csv","","170.09999999962747","resources/trios/L1T2A3.jpg","37","restless",0.9,0.7,0.3,0.9527749330233,"false"
"image-keyboard-response",25,34616,"0.0-4.4-1.4","909j6gs3deyavh4",700,"90.csv","","null","resources/maskTrios/L1BB.jpg","null","",NA,NA,NA,NA,""
"image-keyboard-response",26,35826,"0.0-4.4-2.4","909j6gs3deyavh4",700,"90.csv","","null","resources/images/fishbone.png","null","",NA,NA,NA,NA,""
"image-keyboard-response",27,36007,"0.0-4.5-0.5","909j6gs3deyavh4",700,"90.csv","","180.6000000005588","resources/trios/L1T2A3.jpg","38","restless",0.9,0.7,0.3,0.860001634280839,"false"
"image-keyboard-response",28,36423,"0.0-4.5-1.5","909j6gs3deyavh4",700,"90.csv","","null","resources/maskTrios/BT2B.jpg","null","",NA,NA,NA,NA,""
"image-keyboard-response",29,37637,"0.0-4.5-2.5","909j6gs3deyavh4",700,"90.csv","","null","resources/images/fishbone.png","null","",NA,NA,NA,NA,""
"image-keyboard-response",30,37889,"0.0-4.6-0.6","909j6gs3deyavh4",700,"90.csv","","251.59999999962747","resources/trios/L1T2A3.jpg","39","restless",0.9,0.7,0.2,0.996029285934063,"false"
"image-keyboard-response",31,38297,"0.0-4.6-1.6","909j6gs3deyavh4",700,"90.csv","","null","resources/maskTrios/BBA3.jpg","null","",NA,NA,NA,NA,""
"image-keyboard-response",32,39504,"0.0-4.6-2.6","909j6gs3deyavh4",700,"90.csv","","null","resources/images/fishbone.png","null","",NA,NA,NA,NA,""
"image-keyboard-response",33,39621,"0.0-4.7-0.7","909j6gs3deyavh4",700,"90.csv","","116.1000000005588","resources/trios/L1T2A3.jpg","37","restless",0.9,0.7,0.2,0.898814201577471,"true"
"image-keyboard-response",34,40024,"0.0-4.7-1.7","909j6gs3deyavh4",700,"90.csv","","null","resources/maskTrios/L1BB.jpg","null","",NA,NA,NA,NA,""
"image-keyboard-response",35,41229,"0.0-4.7-2.7","909j6gs3deyavh4",700,"90.csv","","null","resources/images/coin2.png","null","",NA,NA,NA,NA,""
"image-keyboard-response",36,41732,"0.0-4.8-0.8","909j6gs3deyavh4",700,"90.csv","","502","resources/trios/L1T2A3.jpg","37","restless",0.9,0.7,0.2,0.112649402773764,"true"
"image-keyboard-response",37,42147,"0.0-4.8-1.8","909j6gs3deyavh4",700,"90.csv","","null","resources/maskTrios/L1BB.jpg","null","",NA,NA,NA,NA,""
"image-keyboard-response",38,43353,"0.0-4.8-2.8","909j6gs3deyavh4",700,"90.csv","","null","resources/images/coin2.png","null","",NA,NA,NA,NA,""
"image-keyboard-response",39,43475,"0.0-4.9-0.9","909j6gs3deyavh4",700,"90.csv","","122","resources/trios/L1T2A3.jpg","37","restless",0.9,0.7,0.1,0.447803959579319,"true"
"image-keyboard-response",40,43892,"0.0-4.9-1.9","909j6gs3deyavh4",700,"90.csv","","null","resources/maskTrios/L1BB.jpg","null","",NA,NA,NA,NA,""
"image-keyboard-response",41,45097,"0.0-4.9-2.9","909j6gs3deyavh4",700,"90.csv","","null","resources/images/coin2.png","null","",NA,NA,NA,NA,""
"image-keyboard-response",42,45183,"0.0-4.10-0.10","909j6gs3deyavh4",700,"90.csv","","85.1000000005588","resources/trios/L1T2A3.jpg","37","restless",0.9,0.7,0.1,0.537915434746815,"true"
"image-keyboard-response",43,45586,"0.0-4.10-1.10","909j6gs3deyavh4",700,"90.csv","","null","resources/maskTrios/L1BB.jpg","null","",NA,NA,NA,NA,""
"image-keyboard-response",44,46787,"0.0-4.10-2.10","909j6gs3deyavh4",700,"90.csv","","null","resources/images/coin2.png","null","",NA,NA,NA,NA,""
"image-keyboard-response",45,46806,"0.0-4.11-0.11","909j6gs3deyavh4",700,"90.csv","","19.300000000745058","resources/trios/L1T2A3.jpg","37","restless",0.9,0.7,0.1,0.201591173711044,"true"
"image-keyboard-response",46,47216,"0.0-4.11-1.11","909j6gs3deyavh4",700,"90.csv","","null","resources/maskTrios/L1BB.jpg","null","",NA,NA,NA,NA,""
"image-keyboard-response",47,48418,"0.0-4.11-2.11","909j6gs3deyavh4",700,"90.csv","","null","resources/images/coin2.png","null","",NA,NA,NA,NA,""
"image-keyboard-response",48,48506,"0.0-4.12-0.12","909j6gs3deyavh4",700,"90.csv","","87.90000000037253","resources/trios/L1T2A3.jpg","37","restless",0.9,0.7,0.1,0.15442873727482,"true"
"image-keyboard-response",49,48911,"0.0-4.12-1.12","909j6gs3deyavh4",700,"90.csv","","null","resources/maskTrios/L1BB.jpg","null","",NA,NA,NA,NA,""
"image-keyboard-response",50,50122,"0.0-4.12-2.12","909j6gs3deyavh4",700,"90.csv","","null","resources/images/coin2.png","null","",NA,NA,NA,NA,""
"image-keyboard-response",51,50265,"0.0-4.13-0.13","909j6gs3deyavh4",700,"90.csv","","143","resources/trios/L1T2A3.jpg","37","restless",0.9,0.7,0.2,0.216578158687332,"true"
"image-keyboard-response",52,50677,"0.0-4.13-1.13","909j6gs3deyavh4",700,"90.csv","","null","resources/maskTrios/L1BB.jpg","null","",NA,NA,NA,NA,""
"image-keyboard-response",53,51886,"0.0-4.13-2.13","909j6gs3deyavh4",700,"90.csv","","null","resources/images/coin2.png","null","",NA,NA,NA,NA,""
"image-keyboard-response",54,51951,"0.0-4.14-0.14","909j6gs3deyavh4",700,"90.csv","","65.1000000005588","resources/trios/L1T2A3.jpg","37","restless",0.9,0.7,0.2,0.914720084620162,"false"
"image-keyboard-response",55,52356,"0.0-4.14-1.14","909j6gs3deyavh4",700,"90.csv","","null","resources/maskTrios/L1BB.jpg","null","",NA,NA,NA,NA,""
"image-keyboard-response",56,53566,"0.0-4.14-2.14","909j6gs3deyavh4",700,"90.csv","","null","resources/images/fishbone.png","null","",NA,NA,NA,NA,""
"image-keyboard-response",57,53602,"0.0-4.15-0.15","909j6gs3deyavh4",700,"90.csv","","35.19999999925494","resources/trios/L1T2A3.jpg","37","restless",0.9,0.7,0.2,0.573224067555673,"true"
"image-keyboard-response",58,54014,"0.0-4.15-1.15","909j6gs3deyavh4",700,"90.csv","","null","resources/maskTrios/L1BB.jpg","null","",NA,NA,NA,NA,""
"image-keyboard-response",59,55216,"0.0-4.15-2.15","909j6gs3deyavh4",700,"90.csv","","null","resources/images/coin2.png","null","",NA,NA,NA,NA,""
"image-keyboard-response",60,55375,"0.0-4.16-0.16","909j6gs3deyavh4",700,"90.csv","","158.79999999981374","resources/trios/L1T2A3.jpg","37","restless",0.9,0.8,0.2,0.131089699432086,"true"
"image-keyboard-response",61,55791,"0.0-4.16-1.16","909j6gs3deyavh4",700,"90.csv","","null","resources/maskTrios/L1BB.jpg","null","",NA,NA,NA,NA,""
"image-keyboard-response",62,57006,"0.0-4.16-2.16","909j6gs3deyavh4",700,"90.csv","","null","resources/images/coin2.png","null","",NA,NA,NA,NA,""
"image-keyboard-response",63,57074,"0.0-4.17-0.17","909j6gs3deyavh4",700,"90.csv","","67","resources/trios/L1T2A3.jpg","37","restless",0.9,0.7,0.2,0.796245818386994,"true"
"image-keyboard-response",64,57490,"0.0-4.17-1.17","909j6gs3deyavh4",700,"90.csv","","null","resources/maskTrios/L1BB.jpg","null","",NA,NA,NA,NA,""
"image-keyboard-response",65,58697,"0.0-4.17-2.17","909j6gs3deyavh4",700,"90.csv","","null","resources/images/coin2.png","null","",NA,NA,NA,NA,""
"image-keyboard-response",66,58773,"0.0-4.18-0.18","909j6gs3deyavh4",700,"90.csv","","75.70000000018626","resources/trios/L1T2A3.jpg","37","restless",0.9,0.7,0.2,0.0136744658619099,"true"
"image-keyboard-response",67,59189,"0.0-4.18-1.18","909j6gs3deyavh4",700,"90.csv","","null","resources/maskTrios/L1BB.jpg","null","",NA,NA,NA,NA,""
"image-keyboard-response",68,60405,"0.0-4.18-2.18","909j6gs3deyavh4",700,"90.csv","","null","resources/images/coin2.png","null","",NA,NA,NA,NA,""
"image-keyboard-response",69,60550,"0.0-4.19-0.19","909j6gs3deyavh4",700,"90.csv","","144.29999999981374","resources/trios/L1T2A3.jpg","37","restless",0.8,0.7,0.2,0.132334217967593,"true"
"image-keyboard-response",70,60959,"0.0-4.19-1.19","909j6gs3deyavh4",700,"90.csv","","null","resources/maskTrios/L1BB.jpg","null","",NA,NA,NA,NA,""
"image-keyboard-response",71,62160,"0.0-4.19-2.19","909j6gs3deyavh4",700,"90.csv","","null","resources/images/coin2.png","null","",NA,NA,NA,NA,""
"image-keyboard-response",72,62308,"0.0-4.20-0.20","909j6gs3deyavh4",700,"90.csv","","146.59999999962747","resources/trios/L1T2A3.jpg","37","restless",0.8,0.7,0.2,0.379175983284671,"true"
"image-keyboard-response",73,62716,"0.0-4.20-1.20","909j6gs3deyavh4",700,"90.csv","","null","resources/maskTrios/L1BB.jpg","null","",NA,NA,NA,NA,""
"image-keyboard-response",74,63922,"0.0-4.20-2.20","909j6gs3deyavh4",700,"90.csv","","null","resources/images/coin2.png","null","",NA,NA,NA,NA,""
"image-keyboard-response",75,64083,"0.0-4.21-0.21","909j6gs3deyavh4",700,"90.csv","","160.79999999981374","resources/trios/L1T2A3.jpg","37","restless",0.8,0.7,0.2,0.601407972709386,"true"
"image-keyboard-response",76,64489,"0.0-4.21-1.21","909j6gs3deyavh4",700,"90.csv","","null","resources/maskTrios/L1BB.jpg","null","",NA,NA,NA,NA,""
"image-keyboard-response",77,65690,"0.0-4.21-2.21","909j6gs3deyavh4",700,"90.csv","","null","resources/images/coin2.png","null","",NA,NA,NA,NA,""
"image-keyboard-response",78,65746,"0.0-4.22-0.22","909j6gs3deyavh4",700,"90.csv","","55","resources/trios/L1T2A3.jpg","37","restless",0.7,0.6,0.2,0.27171872075932,"true"
"image-keyboard-response",79,66147,"0.0-4.22-1.22","909j6gs3deyavh4",700,"90.csv","","null","resources/maskTrios/L1BB.jpg","null","",NA,NA,NA,NA,""
"image-keyboard-response",80,67358,"0.0-4.22-2.22","909j6gs3deyavh4",700,"90.csv","","null","resources/images/coin2.png","null","",NA,NA,NA,NA,""
"image-keyboard-response",81,67396,"0.0-4.23-0.23","909j6gs3deyavh4",700,"90.csv","","37.299999999813735","resources/trios/L1T2A3.jpg","37","restless",0.7,0.6,0.2,0.618927664640766,"true"
"image-keyboard-response",82,67809,"0.0-4.23-1.23","909j6gs3deyavh4",700,"90.csv","","null","resources/maskTrios/L1BB.jpg","null","",NA,NA,NA,NA,""
"image-keyboard-response",83,69013,"0.0-4.23-2.23","909j6gs3deyavh4",700,"90.csv","","null","resources/images/coin2.png","null","",NA,NA,NA,NA,""
"image-keyboard-response",84,69028,"0.0-4.24-0.24","909j6gs3deyavh4",700,"90.csv","","14.5","resources/trios/L1T2A3.jpg","37","restless",0.7,0.6,0.2,0.595347449679239,"true"
"image-keyboard-response",85,69439,"0.0-4.24-1.24","909j6gs3deyavh4",700,"90.csv","","null","resources/maskTrios/L1BB.jpg","null","",NA,NA,NA,NA,""
"image-keyboard-response",86,70648,"0.0-4.24-2.24","909j6gs3deyavh4",700,"90.csv","","null","resources/images/coin2.png","null","",NA,NA,NA,NA,""
"image-keyboard-response",87,70680,"0.0-4.25-0.25","909j6gs3deyavh4",700,"90.csv","","32.200000000186265","resources/trios/L1T2A3.jpg","37","restless",0.7,0.6,0.2,0.961007333866741,"false"
"image-keyboard-response",88,71094,"0.0-4.25-1.25","909j6gs3deyavh4",700,"90.csv","","null","resources/maskTrios/L1BB.jpg","null","",NA,NA,NA,NA,""
"image-keyboard-response",89,72298,"0.0-4.25-2.25","909j6gs3deyavh4",700,"90.csv","","null","resources/images/fishbone.png","null","",NA,NA,NA,NA,""
"image-keyboard-response",90,72481,"0.0-4.26-0.26","909j6gs3deyavh4",700,"90.csv","","182.59999999962747","resources/trios/L1T2A3.jpg","37","restless",0.7,0.6,0.2,0.133894567889158,"true"
"image-keyboard-response",91,72895,"0.0-4.26-1.26","909j6gs3deyavh4",700,"90.csv","","null","resources/maskTrios/L1BB.jpg","null","",NA,NA,NA,NA,""
"image-keyboard-response",92,74099,"0.0-4.26-2.26","909j6gs3deyavh4",700,"90.csv","","null","resources/images/coin2.png","null","",NA,NA,NA,NA,""
"image-keyboard-response",93,74204,"0.0-4.27-0.27","909j6gs3deyavh4",700,"90.csv","","104.69999999925494","resources/trios/L1T2A3.jpg","37","restless",0.7,0.7,0.2,0.592979663275601,"true"
"image-keyboard-response",94,74608,"0.0-4.27-1.27","909j6gs3deyavh4",700,"90.csv","","null","resources/maskTrios/L1BB.jpg","null","",NA,NA,NA,NA,""
"image-keyboard-response",95,75812,"0.0-4.27-2.27","909j6gs3deyavh4",700,"90.csv","","null","resources/images/coin2.png","null","",NA,NA,NA,NA,""
"image-keyboard-response",96,75949,"0.0-4.28-0.28","909j6gs3deyavh4",700,"90.csv","","136.8999999994412","resources/trios/L1T2A3.jpg","37","restless",0.7,0.7,0.2,0.590652185812606,"true"
"image-keyboard-response",97,76362,"0.0-4.28-1.28","909j6gs3deyavh4",700,"90.csv","","null","resources/maskTrios/L1BB.jpg","null","",NA,NA,NA,NA,""
"image-keyboard-response",98,77576,"0.0-4.28-2.28","909j6gs3deyavh4",700,"90.csv","","null","resources/images/coin2.png","null","",NA,NA,NA,NA,""
"image-keyboard-response",99,77577,"0.0-4.29-0.29","909j6gs3deyavh4",700,"90.csv","","1.300000000745058","resources/trios/L1T2A3.jpg","37","restless",0.7,0.7,0.2,0.930526766615141,"false"
"image-keyboard-response",100,77982,"0.0-4.29-1.29","909j6gs3deyavh4",700,"90.csv","","null","resources/maskTrios/L1BB.jpg","null","",NA,NA,NA,NA,""
"image-keyboard-response",101,79190,"0.0-4.29-2.29","909j6gs3deyavh4",700,"90.csv","","null","resources/images/fishbone.png","null","",NA,NA,NA,NA,""
"image-keyboard-response",102,79257,"0.0-4.30-0.30","909j6gs3deyavh4",700,"90.csv","","66.3999999994412","resources/trios/L1T2A3.jpg","37","restless",0.7,0.7,0.2,0.0477366633039165,"true"
"image-keyboard-response",103,79664,"0.0-4.30-1.30","909j6gs3deyavh4",700,"90.csv","","null","resources/maskTrios/L1BB.jpg","null","",NA,NA,NA,NA,""
"image-keyboard-response",104,80870,"0.0-4.30-2.30","909j6gs3deyavh4",700,"90.csv","","null","resources/images/coin2.png","null","",NA,NA,NA,NA,""
"image-keyboard-response",105,80890,"0.0-4.31-0.31","909j6gs3deyavh4",700,"90.csv","","19.5","resources/trios/L1T2A3.jpg","37","restless",0.7,0.7,0.2,0.385090293385236,"true"
"image-keyboard-response",106,81296,"0.0-4.31-1.31","909j6gs3deyavh4",700,"90.csv","","null","resources/maskTrios/L1BB.jpg","null","",NA,NA,NA,NA,""
"image-keyboard-response",107,82511,"0.0-4.31-2.31","909j6gs3deyavh4",700,"90.csv","","null","resources/images/coin2.png","null","",NA,NA,NA,NA,""
"image-keyboard-response",108,85780,"0.0-4.32-0.32","909j6gs3deyavh4",700,"90.csv","","3268.5999999996275","resources/trios/L1T2A3.jpg","37","restless",0.7,0.7,0.2,0.0643604963842686,"true"
"image-keyboard-response",109,86186,"0.0-4.32-1.32","909j6gs3deyavh4",700,"90.csv","","null","resources/maskTrios/L1BB.jpg","null","",NA,NA,NA,NA,""
"image-keyboard-response",110,87391,"0.0-4.32-2.32","909j6gs3deyavh4",700,"90.csv","","null","resources/images/coin2.png","null","",NA,NA,NA,NA,""
"image-keyboard-response",111,87666,"0.0-4.33-0.33","909j6gs3deyavh4",700,"90.csv","","275.5","resources/trios/L1T2A3.jpg","37","restless",0.7,0.7,0.3,0.167952229381262,"true"
"image-keyboard-response",112,88075,"0.0-4.33-1.33","909j6gs3deyavh4",700,"90.csv","","null","resources/maskTrios/L1BB.jpg","null","",NA,NA,NA,NA,""
"image-keyboard-response",113,89291,"0.0-4.33-2.33","909j6gs3deyavh4",700,"90.csv","","null","resources/images/coin2.png","null","",NA,NA,NA,NA,""
"image-keyboard-response",114,89407,"0.0-4.34-0.34","909j6gs3deyavh4",700,"90.csv","","115.29999999981374","resources/trios/L1T2A3.jpg","37","restless",0.6,0.7,0.3,0.100756789426814,"true"
"image-keyboard-response",115,89813,"0.0-4.34-1.34","909j6gs3deyavh4",700,"90.csv","","null","resources/maskTrios/L1BB.jpg","null","",NA,NA,NA,NA,""
"image-keyboard-response",116,91024,"0.0-4.34-2.34","909j6gs3deyavh4",700,"90.csv","","null","resources/images/coin2.png","null","",NA,NA,NA,NA,""
"image-keyboard-response",117,91250,"0.0-4.35-0.35","909j6gs3deyavh4",700,"90.csv","","225.20000000018626","resources/trios/L1T2A3.jpg","37","restless",0.7,0.7,0.3,0.106261034959464,"true"
"image-keyboard-response",118,91656,"0.0-4.35-1.35","909j6gs3deyavh4",700,"90.csv","","null","resources/maskTrios/L1BB.jpg","null","",NA,NA,NA,NA,""
"image-keyboard-response",119,92865,"0.0-4.35-2.35","909j6gs3deyavh4",700,"90.csv","","null","resources/images/coin2.png","null","",NA,NA,NA,NA,""
"image-keyboard-response",120,92953,"0.0-4.36-0.36","909j6gs3deyavh4",700,"90.csv","","87.70000000018626","resources/trios/L1T2A3.jpg","37","restless",0.8,0.6,0.3,0.832565303685875,"false"
"image-keyboard-response",121,93366,"0.0-4.36-1.36","909j6gs3deyavh4",700,"90.csv","","null","resources/maskTrios/L1BB.jpg","null","",NA,NA,NA,NA,""
"image-keyboard-response",122,94568,"0.0-4.36-2.36","909j6gs3deyavh4",700,"90.csv","","null","resources/images/fishbone.png","null","",NA,NA,NA,NA,""
"image-keyboard-response",123,94601,"0.0-4.37-0.37","909j6gs3deyavh4",700,"90.csv","","32.09999999962747","resources/trios/L1T2A3.jpg","37","restless",0.8,0.6,0.3,0.238656000756201,"true"
"image-keyboard-response",124,95013,"0.0-4.37-1.37","909j6gs3deyavh4",700,"90.csv","","null","resources/maskTrios/L1BB.jpg","null","",NA,NA,NA,NA,""
"image-keyboard-response",125,96218,"0.0-4.37-2.37","909j6gs3deyavh4",700,"90.csv","","null","resources/images/coin2.png","null","",NA,NA,NA,NA,""
"image-keyboard-response",126,96357,"0.0-4.38-0.38","909j6gs3deyavh4",700,"90.csv","","138.29999999981374","resources/trios/L1T2A3.jpg","37","restless",0.8,0.6,0.3,0.971345760579714,"false"
"image-keyboard-response",127,96757,"0.0-4.38-1.38","909j6gs3deyavh4",700,"90.csv","","null","resources/maskTrios/L1BB.jpg","null","",NA,NA,NA,NA,""
"image-keyboard-response",128,97969,"0.0-4.38-2.38","909j6gs3deyavh4",700,"90.csv","","null","resources/images/fishbone.png","null","",NA,NA,NA,NA,""
"image-keyboard-response",129,98119,"0.0-4.39-0.39","909j6gs3deyavh4",700,"90.csv","","149.30000000074506","resources/trios/L1T2A3.jpg","37","restless",0.8,0.6,0.3,0.144517196462386,"true"
"image-keyboard-response",130,98533,"0.0-4.39-1.39","909j6gs3deyavh4",700,"90.csv","","null","resources/maskTrios/L1BB.jpg","null","",NA,NA,NA,NA,""
"image-keyboard-response",131,99738,"0.0-4.39-2.39","909j6gs3deyavh4",700,"90.csv","","null","resources/images/coin2.png","null","",NA,NA,NA,NA,""
"image-keyboard-response",132,99929,"0.0-4.40-0.40","909j6gs3deyavh4",700,"90.csv","","190.5","resources/trios/L1T2A3.jpg","37","restless",0.8,0.6,0.3,0.686148404240016,"true"
"image-keyboard-response",133,100343,"0.0-4.40-1.40","909j6gs3deyavh4",700,"90.csv","","null","resources/maskTrios/L1BB.jpg","null","",NA,NA,NA,NA,""
"image-keyboard-response",134,101555,"0.0-4.40-2.40","909j6gs3deyavh4",700,"90.csv","","null","resources/images/coin2.png","null","",NA,NA,NA,NA,""
"image-keyboard-response",135,101649,"0.0-4.41-0.41","909j6gs3deyavh4",700,"90.csv","","93.30000000074506","resources/trios/L1T2A3.jpg","37","restless",0.8,0.6,0.3,0.0466655071556106,"true"
"image-keyboard-response",136,102064,"0.0-4.41-1.41","909j6gs3deyavh4",700,"90.csv","","null","resources/maskTrios/L1BB.jpg","null","",NA,NA,NA,NA,""
"image-keyboard-response",137,103265,"0.0-4.41-2.41","909j6gs3deyavh4",700,"90.csv","","null","resources/images/coin2.png","null","",NA,NA,NA,NA,""
"image-keyboard-response",138,103418,"0.0-4.42-0.42","909j6gs3deyavh4",700,"90.csv","","152.1000000005588","resources/trios/L1T2A3.jpg","37","restless",0.7,0.6,0.3,0.435566293774845,"true"
"image-keyboard-response",139,103832,"0.0-4.42-1.42","909j6gs3deyavh4",700,"90.csv","","null","resources/maskTrios/L1BB.jpg","null","",NA,NA,NA,NA,""
"image-keyboard-response",140,105038,"0.0-4.42-2.42","909j6gs3deyavh4",700,"90.csv","","null","resources/images/coin2.png","null","",NA,NA,NA,NA,""
"image-keyboard-response",141,105089,"0.0-4.43-0.43","909j6gs3deyavh4",700,"90.csv","","50.799999999813735","resources/trios/L1T2A3.jpg","37","restless",0.7,0.6,0.3,0.94309082574832,"false"
"image-keyboard-response",142,105500,"0.0-4.43-1.43","909j6gs3deyavh4",700,"90.csv","","null","resources/maskTrios/L1BB.jpg","null","",NA,NA,NA,NA,""
"image-keyboard-response",143,106705,"0.0-4.43-2.43","909j6gs3deyavh4",700,"90.csv","","null","resources/images/fishbone.png","null","",NA,NA,NA,NA,""
"image-keyboard-response",144,106721,"0.0-4.44-0.44","909j6gs3deyavh4",700,"90.csv","","15.5","resources/trios/L1T2A3.jpg","37","restless",0.7,0.6,0.3,0.386277439861974,"true"
"image-keyboard-response",145,107126,"0.0-4.44-1.44","909j6gs3deyavh4",700,"90.csv","","null","resources/maskTrios/L1BB.jpg","null","",NA,NA,NA,NA,""
"image-keyboard-response",146,108338,"0.0-4.44-2.44","909j6gs3deyavh4",700,"90.csv","","null","resources/images/coin2.png","null","",NA,NA,NA,NA,""
"image-keyboard-response",147,108477,"0.0-4.45-0.45","909j6gs3deyavh4",700,"90.csv","","137.69999999925494","resources/trios/L1T2A3.jpg","37","restless",0.8,0.6,0.3,0.663321151125559,"true"
"image-keyboard-response",148,108885,"0.0-4.45-1.45","909j6gs3deyavh4",700,"90.csv","","null","resources/maskTrios/L1BB.jpg","null","",NA,NA,NA,NA,""
"image-keyboard-response",149,110097,"0.0-4.45-2.45","909j6gs3deyavh4",700,"90.csv","","null","resources/images/coin2.png","null","",NA,NA,NA,NA,""
"image-keyboard-response",150,110209,"0.0-4.46-0.46","909j6gs3deyavh4",700,"90.csv","","112.09999999962747","resources/trios/L1T2A3.jpg","37","restless",0.8,0.6,0.3,0.732087963832647,"true"
"image-keyboard-response",151,110620,"0.0-4.46-1.46","909j6gs3deyavh4",700,"90.csv","","null","resources/maskTrios/L1BB.jpg","null","",NA,NA,NA,NA,""
"image-keyboard-response",152,111826,"0.0-4.46-2.46","909j6gs3deyavh4",700,"90.csv","","null","resources/images/coin2.png","null","",NA,NA,NA,NA,""
"image-keyboard-response",153,111988,"0.0-4.47-0.47","909j6gs3deyavh4",700,"90.csv","","161.59999999962747","resources/trios/L1T2A3.jpg","37","restless",0.8,0.6,0.3,0.91055059417366,"false"
"image-keyboard-response",154,112399,"0.0-4.47-1.47","909j6gs3deyavh4",700,"90.csv","","null","resources/maskTrios/L1BB.jpg","null","",NA,NA,NA,NA,""
"image-keyboard-response",155,113609,"0.0-4.47-2.47","909j6gs3deyavh4",700,"90.csv","","null","resources/images/fishbone.png","null","",NA,NA,NA,NA,""
"image-keyboard-response",156,113618,"0.0-4.48-0.48","909j6gs3deyavh4",700,"90.csv","","8.099999999627471","resources/trios/L1T2A3.jpg","37","restless",0.8,0.6,0.3,0.722948590385835,"true"
"image-keyboard-response",157,114021,"0.0-4.48-1.48","909j6gs3deyavh4",700,"90.csv","","null","resources/maskTrios/L1BB.jpg","null","",NA,NA,NA,NA,""
"image-keyboard-response",158,115230,"0.0-4.48-2.48","909j6gs3deyavh4",700,"90.csv","","null","resources/images/coin2.png","null","",NA,NA,NA,NA,""
"image-keyboard-response",159,115374,"0.0-4.49-0.49","909j6gs3deyavh4",700,"90.csv","","143.20000000018626","resources/trios/L1T2A3.jpg","37","restless",0.8,0.6,0.3,0.383843800592799,"true"
"image-keyboard-response",160,115783,"0.0-4.49-1.49","909j6gs3deyavh4",700,"90.csv","","null","resources/maskTrios/L1BB.jpg","null","",NA,NA,NA,NA,""
"image-keyboard-response",161,116986,"0.0-4.49-2.49","909j6gs3deyavh4",700,"90.csv","","null","resources/images/coin2.png","null","",NA,NA,NA,NA,""
"image-keyboard-response",162,117030,"0.0-4.50-0.50","909j6gs3deyavh4",700,"90.csv","","43.299999999813735","resources/trios/L1T2A3.jpg","38","restless",0.8,0.6,0.3,0.223106987097893,"true"
"image-keyboard-response",163,117443,"0.0-4.50-1.50","909j6gs3deyavh4",700,"90.csv","","null","resources/maskTrios/BT2B.jpg","null","",NA,NA,NA,NA,""
"image-keyboard-response",164,118651,"0.0-4.50-2.50","909j6gs3deyavh4",700,"90.csv","","null","resources/images/coin2.png","null","",NA,NA,NA,NA,""
"image-keyboard-response",165,118840,"0.0-4.51-0.51","909j6gs3deyavh4",700,"90.csv","","190","resources/trios/L1T2A3.jpg","39","restless",0.7,0.6,0.3,0.29018569359254,"true"
"image-keyboard-response",166,119253,"0.0-4.51-1.51","909j6gs3deyavh4",700,"90.csv","","null","resources/maskTrios/BBA3.jpg","null","",NA,NA,NA,NA,""
"image-keyboard-response",167,120461,"0.0-4.51-2.51","909j6gs3deyavh4",700,"90.csv","","null","resources/images/coin2.png","null","",NA,NA,NA,NA,""
"image-keyboard-response",168,120629,"0.0-4.52-0.52","909j6gs3deyavh4",700,"90.csv","","167.29999999981374","resources/trios/L1T2A3.jpg","37","restless",0.7,0.6,0.3,0.133111199013261,"true"
"image-keyboard-response",169,121032,"0.0-4.52-1.52","909j6gs3deyavh4",700,"90.csv","","null","resources/maskTrios/L1BB.jpg","null","",NA,NA,NA,NA,""
"image-keyboard-response",170,122238,"0.0-4.52-2.52","909j6gs3deyavh4",700,"90.csv","","null","resources/images/coin2.png","null","",NA,NA,NA,NA,""
"image-keyboard-response",171,122374,"0.0-4.53-0.53","909j6gs3deyavh4",700,"90.csv","","135.40000000037253","resources/trios/L1T2A3.jpg","38","restless",0.7,0.6,0.3,0.843104889587597,"false"
"image-keyboard-response",172,122779,"0.0-4.53-1.53","909j6gs3deyavh4",700,"90.csv","","null","resources/maskTrios/BT2B.jpg","null","",NA,NA,NA,NA,""
"image-keyboard-response",173,123994,"0.0-4.53-2.53","909j6gs3deyavh4",700,"90.csv","","null","resources/images/fishbone.png","null","",NA,NA,NA,NA,""
"image-keyboard-response",174,124072,"0.0-4.54-0.54","909j6gs3deyavh4",700,"90.csv","","76.8999999994412","resources/trios/L1T2A3.jpg","39","restless",0.7,0.6,0.3,0.866035550241662,"false"
"image-keyboard-response",175,124474,"0.0-4.54-1.54","909j6gs3deyavh4",700,"90.csv","","null","resources/maskTrios/BBA3.jpg","null","",NA,NA,NA,NA,""
"image-keyboard-response",176,125684,"0.0-4.54-2.54","909j6gs3deyavh4",700,"90.csv","","null","resources/images/fishbone.png","null","",NA,NA,NA,NA,""
"image-keyboard-response",177,125732,"0.0-4.55-0.55","909j6gs3deyavh4",700,"90.csv","","47.69999999925494","resources/trios/L1T2A3.jpg","38","restless",0.7,0.6,0.3,0.89422586044246,"false"
"image-keyboard-response",178,126140,"0.0-4.55-1.55","909j6gs3deyavh4",700,"90.csv","","null","resources/maskTrios/BT2B.jpg","null","",NA,NA,NA,NA,""
"image-keyboard-response",179,127344,"0.0-4.55-2.55","909j6gs3deyavh4",700,"90.csv","","null","resources/images/fishbone.png","null","",NA,NA,NA,NA,""
"image-keyboard-response",180,127405,"0.0-4.56-0.56","909j6gs3deyavh4",700,"90.csv","","60.30000000074506","resources/trios/L1T2A3.jpg","37","restless",0.7,0.6,0.3,0.000541154858630044,"true"
"image-keyboard-response",181,127817,"0.0-4.56-1.56","909j6gs3deyavh4",700,"90.csv","","null","resources/maskTrios/L1BB.jpg","null","",NA,NA,NA,NA,""
"image-keyboard-response",182,129020,"0.0-4.56-2.56","909j6gs3deyavh4",700,"90.csv","","null","resources/images/coin2.png","null","",NA,NA,NA,NA,""
"image-keyboard-response",183,129054,"0.0-4.57-0.57","909j6gs3deyavh4",700,"90.csv","","33.30000000074506","resources/trios/L1T2A3.jpg","37","restless",0.7,0.6,0.3,0.783124539955037,"false"
"image-keyboard-response",184,129465,"0.0-4.57-1.57","909j6gs3deyavh4",700,"90.csv","","null","resources/maskTrios/L1BB.jpg","null","",NA,NA,NA,NA,""
"image-keyboard-response",185,130667,"0.0-4.57-2.57","909j6gs3deyavh4",700,"90.csv","","null","resources/images/fishbone.png","null","",NA,NA,NA,NA,""
"image-keyboard-response",186,130758,"0.0-4.58-0.58","909j6gs3deyavh4",700,"90.csv","","90.3999999994412","resources/trios/L1T2A3.jpg","37","restless",0.7,0.6,0.3,0.379694231277594,"true"
"image-keyboard-response",187,131168,"0.0-4.58-1.58","909j6gs3deyavh4",700,"90.csv","","null","resources/maskTrios/L1BB.jpg","null","",NA,NA,NA,NA,""
"image-keyboard-response",188,132380,"0.0-4.58-2.58","909j6gs3deyavh4",700,"90.csv","","null","resources/images/coin2.png","null","",NA,NA,NA,NA,""
"image-keyboard-response",189,132392,"0.0-4.59-0.59","909j6gs3deyavh4",700,"90.csv","","11.700000000186265","resources/trios/L1T2A3.jpg","37","restless",0.6,0.6,0.4,0.220984573054109,"true"
"image-keyboard-response",190,132793,"0.0-4.59-1.59","909j6gs3deyavh4",700,"90.csv","","null","resources/maskTrios/L1BB.jpg","null","",NA,NA,NA,NA,""
"image-keyboard-response",191,134006,"0.0-4.59-2.59","909j6gs3deyavh4",700,"90.csv","","null","resources/images/coin2.png","null","",NA,NA,NA,NA,""
"image-keyboard-response",192,134039,"0.0-4.60-0.60","909j6gs3deyavh4",700,"90.csv","","31.899999999441206","resources/trios/L1T2A3.jpg","37","restless",0.6,0.6,0.4,0.0230829565811885,"true"
"image-keyboard-response",193,134450,"0.0-4.60-1.60","909j6gs3deyavh4",700,"90.csv","","null","resources/maskTrios/L1BB.jpg","null","",NA,NA,NA,NA,""
"image-keyboard-response",194,135660,"0.0-4.60-2.60","909j6gs3deyavh4",700,"90.csv","","null","resources/images/coin2.png","null","",NA,NA,NA,NA,""
"image-keyboard-response",195,135687,"0.0-4.61-0.61","909j6gs3deyavh4",700,"90.csv","","26.59999999962747","resources/trios/L1T2A3.jpg","37","restless",0.6,0.6,0.4,0.659569205157767,"false"
"image-keyboard-response",196,136094,"0.0-4.61-1.61","909j6gs3deyavh4",700,"90.csv","","null","resources/maskTrios/L1BB.jpg","null","",NA,NA,NA,NA,""
"image-keyboard-response",197,137306,"0.0-4.61-2.61","909j6gs3deyavh4",700,"90.csv","","null","resources/images/fishbone.png","null","",NA,NA,NA,NA,""
"image-keyboard-response",198,137326,"0.0-4.62-0.62","909j6gs3deyavh4",700,"90.csv","","19.699999999254942","resources/trios/L1T2A3.jpg","37","restless",0.5,0.6,0.4,0.588682342085679,"false"
"image-keyboard-response",199,137738,"0.0-4.62-1.62","909j6gs3deyavh4",700,"90.csv","","null","resources/maskTrios/L1BB.jpg","null","",NA,NA,NA,NA,""
"image-keyboard-response",200,138939,"0.0-4.62-2.62","909j6gs3deyavh4",700,"90.csv","","null","resources/images/fishbone.png","null","",NA,NA,NA,NA,""
"image-keyboard-response",201,139078,"0.0-4.63-0.63","909j6gs3deyavh4",700,"90.csv","","138.5","resources/trios/L1T2A3.jpg","38","restless",0.5,0.6,0.4,0.581552294802484,"true"
"image-keyboard-response",202,139491,"0.0-4.63-1.63","909j6gs3deyavh4",700,"90.csv","","null","resources/maskTrios/BT2B.jpg","null","",NA,NA,NA,NA,""
"image-keyboard-response",203,140692,"0.0-4.63-2.63","909j6gs3deyavh4",700,"90.csv","","null","resources/images/coin2.png","null","",NA,NA,NA,NA,""
"image-keyboard-response",204,140826,"0.0-4.64-0.64","909j6gs3deyavh4",700,"90.csv","","132.90000000037253","resources/trios/L1T2A3.jpg","39","restless",0.5,0.6,0.4,0.553924618453847,"false"
"image-keyboard-response",205,141241,"0.0-4.64-1.64","909j6gs3deyavh4",700,"90.csv","","null","resources/maskTrios/BBA3.jpg","null","",NA,NA,NA,NA,""
"image-keyboard-response",206,142449,"0.0-4.64-2.64","909j6gs3deyavh4",700,"90.csv","","null","resources/images/fishbone.png","null","",NA,NA,NA,NA,""
"image-keyboard-response",207,142533,"0.0-4.65-0.65","909j6gs3deyavh4",700,"90.csv","","82.79999999981374","resources/trios/L1T2A3.jpg","38","restless",0.5,0.6,0.4,0.722622655226977,"false"
"image-keyboard-response",208,142946,"0.0-4.65-1.65","909j6gs3deyavh4",700,"90.csv","","null","resources/maskTrios/BT2B.jpg","null","",NA,NA,NA,NA,""
"image-keyboard-response",209,144158,"0.0-4.65-2.65","909j6gs3deyavh4",700,"90.csv","","null","resources/images/fishbone.png","null","",NA,NA,NA,NA,""
"image-keyboard-response",210,144171,"0.0-4.66-0.66","909j6gs3deyavh4",700,"90.csv","","12.099999999627471","resources/trios/L1T2A3.jpg","37","restless",0.5,0.6,0.4,0.183927958279915,"true"
"image-keyboard-response",211,144581,"0.0-4.66-1.66","909j6gs3deyavh4",700,"90.csv","","null","resources/maskTrios/L1BB.jpg","null","",NA,NA,NA,NA,""
"image-keyboard-response",212,145787,"0.0-4.66-2.66","909j6gs3deyavh4",700,"90.csv","","null","resources/images/coin2.png","null","",NA,NA,NA,NA,""
"image-keyboard-response",213,145900,"0.0-4.67-0.67","909j6gs3deyavh4",700,"90.csv","","113.09999999962747","resources/trios/L1T2A3.jpg","37","restless",0.5,0.6,0.4,0.934786134035348,"false"
"image-keyboard-response",214,146301,"0.0-4.67-1.67","909j6gs3deyavh4",700,"90.csv","","null","resources/maskTrios/L1BB.jpg","null","",NA,NA,NA,NA,""
"image-keyboard-response",215,147512,"0.0-4.67-2.67","909j6gs3deyavh4",700,"90.csv","","null","resources/images/fishbone.png","null","",NA,NA,NA,NA,""
"image-keyboard-response",216,147663,"0.0-4.68-0.68","909j6gs3deyavh4",700,"90.csv","","150.20000000018626","resources/trios/L1T2A3.jpg","37","restless",0.5,0.6,0.4,0.473804345006246,"true"
"image-keyboard-response",217,148070,"0.0-4.68-1.68","909j6gs3deyavh4",700,"90.csv","","null","resources/maskTrios/L1BB.jpg","null","",NA,NA,NA,NA,""
"image-keyboard-response",218,149271,"0.0-4.68-2.68","909j6gs3deyavh4",700,"90.csv","","null","resources/images/coin2.png","null","",NA,NA,NA,NA,""
"image-keyboard-response",219,149472,"0.0-4.69-0.69","909j6gs3deyavh4",700,"90.csv","","200.6000000005588","resources/trios/L1T2A3.jpg","37","restless",0.5,0.5,0.5,0.0202633429678616,"true"
"image-keyboard-response",220,149877,"0.0-4.69-1.69","909j6gs3deyavh4",700,"90.csv","","null","resources/maskTrios/L1BB.jpg","null","",NA,NA,NA,NA,""
"image-keyboard-response",221,151091,"0.0-4.69-2.69","909j6gs3deyavh4",700,"90.csv","","null","resources/images/coin2.png","null","",NA,NA,NA,NA,""
"image-keyboard-response",222,151110,"0.0-4.70-0.70","909j6gs3deyavh4",700,"90.csv","","18.699999999254942","resources/trios/L1T2A3.jpg","37","restless",0.4,0.5,0.5,0.950095323465939,"false"
"image-keyboard-response",223,151520,"0.0-4.70-1.70","909j6gs3deyavh4",700,"90.csv","","null","resources/maskTrios/L1BB.jpg","null","",NA,NA,NA,NA,""
"image-keyboard-response",224,152721,"0.0-4.70-2.70","909j6gs3deyavh4",700,"90.csv","","null","resources/images/fishbone.png","null","",NA,NA,NA,NA,""
"image-keyboard-response",225,152722,"0.0-4.71-0.71","909j6gs3deyavh4",700,"90.csv","","0.5","resources/trios/L1T2A3.jpg","37","restless",0.4,0.5,0.5,0.343860974447869,"true"
"image-keyboard-response",226,153133,"0.0-4.71-1.71","909j6gs3deyavh4",700,"90.csv","","null","resources/maskTrios/L1BB.jpg","null","",NA,NA,NA,NA,""
"image-keyboard-response",227,154335,"0.0-4.71-2.71","909j6gs3deyavh4",700,"90.csv","","null","resources/images/coin2.png","null","",NA,NA,NA,NA,""
"image-keyboard-response",228,154503,"0.0-4.72-0.72","909j6gs3deyavh4",700,"90.csv","","167.5","resources/trios/L1T2A3.jpg","37","restless",0.3,0.5,0.5,0.0916471837052977,"true"
"image-keyboard-response",229,154917,"0.0-4.72-1.72","909j6gs3deyavh4",700,"90.csv","","null","resources/maskTrios/L1BB.jpg","null","",NA,NA,NA,NA,""
"image-keyboard-response",230,156122,"0.0-4.72-2.72","909j6gs3deyavh4",700,"90.csv","","null","resources/images/coin2.png","null","",NA,NA,NA,NA,""
"image-keyboard-response",231,156174,"0.0-4.73-0.73","909j6gs3deyavh4",700,"90.csv","","51","resources/trios/L1T2A3.jpg","37","restless",0.2,0.5,0.5,0.153354739769161,"true"
"image-keyboard-response",232,156583,"0.0-4.73-1.73","909j6gs3deyavh4",700,"90.csv","","null","resources/maskTrios/L1BB.jpg","null","",NA,NA,NA,NA,""
"image-keyboard-response",233,157789,"0.0-4.73-2.73","909j6gs3deyavh4",700,"90.csv","","null","resources/images/coin2.png","null","",NA,NA,NA,NA,""
"image-keyboard-response",234,157828,"0.0-4.74-0.74","909j6gs3deyavh4",700,"90.csv","","39.09999999962747","resources/trios/L1T2A3.jpg","37","restless",0.2,0.6,0.5,0.893172892596319,"false"
"image-keyboard-response",235,158239,"0.0-4.74-1.74","909j6gs3deyavh4",700,"90.csv","","null","resources/maskTrios/L1BB.jpg","null","",NA,NA,NA,NA,""
"image-keyboard-response",236,159448,"0.0-4.74-2.74","909j6gs3deyavh4",700,"90.csv","","null","resources/images/fishbone.png","null","",NA,NA,NA,NA,""
"image-keyboard-response",237,159470,"0.0-4.75-0.75","909j6gs3deyavh4",700,"90.csv","","21.200000000186265","resources/trios/L1T2A3.jpg","37","restless",0.2,0.6,0.5,0.522993437100633,"false"
"image-keyboard-response",238,159877,"0.0-4.75-1.75","909j6gs3deyavh4",700,"90.csv","","null","resources/maskTrios/L1BB.jpg","null","",NA,NA,NA,NA,""
"image-keyboard-response",239,161091,"0.0-4.75-2.75","909j6gs3deyavh4",700,"90.csv","","null","resources/images/fishbone.png","null","",NA,NA,NA,NA,""
"image-keyboard-response",240,161187,"0.0-4.76-0.76","909j6gs3deyavh4",700,"90.csv","","95.40000000037253","resources/trios/L1T2A3.jpg","37","restless",0.2,0.6,0.5,0.155702818744543,"true"
"image-keyboard-response",241,161603,"0.0-4.76-1.76","909j6gs3deyavh4",700,"90.csv","","null","resources/maskTrios/L1BB.jpg","null","",NA,NA,NA,NA,""
"image-keyboard-response",242,162814,"0.0-4.76-2.76","909j6gs3deyavh4",700,"90.csv","","null","resources/images/coin2.png","null","",NA,NA,NA,NA,""
"image-keyboard-response",243,162922,"0.0-4.77-0.77","909j6gs3deyavh4",700,"90.csv","","107.8999999994412","resources/trios/L1T2A3.jpg","37","restless",0.2,0.6,0.5,0.424523416435992,"false"
"image-keyboard-response",244,163324,"0.0-4.77-1.77","909j6gs3deyavh4",700,"90.csv","","null","resources/maskTrios/L1BB.jpg","null","",NA,NA,NA,NA,""
"image-keyboard-response",245,164529,"0.0-4.77-2.77","909j6gs3deyavh4",700,"90.csv","","null","resources/images/fishbone.png","null","",NA,NA,NA,NA,""
"image-keyboard-response",246,164686,"0.0-4.78-0.78","909j6gs3deyavh4",700,"90.csv","","156.5","resources/trios/L1T2A3.jpg","37","restless",0.2,0.5,0.5,0.627044675997139,"false"
"image-keyboard-response",247,165094,"0.0-4.78-1.78","909j6gs3deyavh4",700,"90.csv","","null","resources/maskTrios/L1BB.jpg","null","",NA,NA,NA,NA,""
"image-keyboard-response",248,166303,"0.0-4.78-2.78","909j6gs3deyavh4",700,"90.csv","","null","resources/images/fishbone.png","null","",NA,NA,NA,NA,""
"image-keyboard-response",249,166311,"0.0-4.79-0.79","909j6gs3deyavh4",700,"90.csv","","7","resources/trios/L1T2A3.jpg","38","restless",0.2,0.5,0.5,0.354701779267423,"true"
"image-keyboard-response",250,166720,"0.0-4.79-1.79","909j6gs3deyavh4",700,"90.csv","","null","resources/maskTrios/BT2B.jpg","null","",NA,NA,NA,NA,""
"image-keyboard-response",251,167928,"0.0-4.79-2.79","909j6gs3deyavh4",700,"90.csv","","null","resources/images/coin2.png","null","",NA,NA,NA,NA,""
"image-keyboard-response",252,168290,"0.0-4.80-0.80","909j6gs3deyavh4",700,"90.csv","","362.20000000018626","resources/trios/L1T2A3.jpg","38","restless",0.2,0.5,0.5,0.826189379452464,"false"
"image-keyboard-response",253,168700,"0.0-4.80-1.80","909j6gs3deyavh4",700,"90.csv","","null","resources/maskTrios/BT2B.jpg","null","",NA,NA,NA,NA,""
"image-keyboard-response",254,169901,"0.0-4.80-2.80","909j6gs3deyavh4",700,"90.csv","","null","resources/images/fishbone.png","null","",NA,NA,NA,NA,""
"image-keyboard-response",255,169942,"0.0-4.81-0.81","909j6gs3deyavh4",700,"90.csv","","40.5","resources/trios/L1T2A3.jpg","39","restless",0.2,0.5,0.5,0.940016784343997,"false"
"image-keyboard-response",256,170350,"0.0-4.81-1.81","909j6gs3deyavh4",700,"90.csv","","null","resources/maskTrios/BBA3.jpg","null","",NA,NA,NA,NA,""
"image-keyboard-response",257,171562,"0.0-4.81-2.81","909j6gs3deyavh4",700,"90.csv","","null","resources/images/fishbone.png","null","",NA,NA,NA,NA,""
"image-keyboard-response",258,171745,"0.0-4.82-0.82","909j6gs3deyavh4",700,"90.csv","","182.20000000018626","resources/trios/L1T2A3.jpg","37","restless",0.2,0.5,0.5,0.956591089181594,"false"
"image-keyboard-response",259,172161,"0.0-4.82-1.82","909j6gs3deyavh4",700,"90.csv","","null","resources/maskTrios/L1BB.jpg","null","",NA,NA,NA,NA,""
"image-keyboard-response",260,173363,"0.0-4.82-2.82","909j6gs3deyavh4",700,"90.csv","","null","resources/images/fishbone.png","null","",NA,NA,NA,NA,""
"image-keyboard-response",261,174033,"0.0-4.83-0.83","909j6gs3deyavh4",700,"90.csv","","669.2999999998137","resources/trios/L1T2A3.jpg","38","restless",0.2,0.5,0.5,0.0409366554812047,"true"
"image-keyboard-response",262,174446,"0.0-4.83-1.83","909j6gs3deyavh4",700,"90.csv","","null","resources/maskTrios/BT2B.jpg","null","",NA,NA,NA,NA,""
"image-keyboard-response",263,175650,"0.0-4.83-2.83","909j6gs3deyavh4",700,"90.csv","","null","resources/images/coin2.png","null","",NA,NA,NA,NA,""
"image-keyboard-response",264,175730,"0.0-4.84-0.84","909j6gs3deyavh4",700,"90.csv","","79.40000000037253","resources/trios/L1T2A3.jpg","38","restless",0.2,0.5,0.5,0.246108747047118,"true"
"image-keyboard-response",265,176141,"0.0-4.84-1.84","909j6gs3deyavh4",700,"90.csv","","null","resources/maskTrios/BT2B.jpg","null","",NA,NA,NA,NA,""
"image-keyboard-response",266,177350,"0.0-4.84-2.84","909j6gs3deyavh4",700,"90.csv","","null","resources/images/coin2.png","null","",NA,NA,NA,NA,""
"image-keyboard-response",267,177491,"0.0-4.85-0.85","909j6gs3deyavh4",700,"90.csv","","140.20000000018626","resources/trios/L1T2A3.jpg","38","restless",0.2,0.5,0.5,0.156241807475009,"true"
"image-keyboard-response",268,177894,"0.0-4.85-1.85","909j6gs3deyavh4",700,"90.csv","","null","resources/maskTrios/BT2B.jpg","null","",NA,NA,NA,NA,""
"image-keyboard-response",269,179096,"0.0-4.85-2.85","909j6gs3deyavh4",700,"90.csv","","null","resources/images/coin2.png","null","",NA,NA,NA,NA,""
"image-keyboard-response",270,179140,"0.0-4.86-0.86","909j6gs3deyavh4",700,"90.csv","","42.90000000037253","resources/trios/L1T2A3.jpg","38","restless",0.2,0.5,0.5,0.577270945198956,"false"
"image-keyboard-response",271,179546,"0.0-4.86-1.86","909j6gs3deyavh4",700,"90.csv","","null","resources/maskTrios/BT2B.jpg","null","",NA,NA,NA,NA,""
"image-keyboard-response",272,180753,"0.0-4.86-2.86","909j6gs3deyavh4",700,"90.csv","","null","resources/images/fishbone.png","null","",NA,NA,NA,NA,""
"image-keyboard-response",273,180800,"0.0-4.87-0.87","909j6gs3deyavh4",700,"90.csv","","46.200000000186265","resources/trios/L1T2A3.jpg","39","restless",0.2,0.5,0.5,0.624871793910432,"false"
"image-keyboard-response",274,181209,"0.0-4.87-1.87","909j6gs3deyavh4",700,"90.csv","","null","resources/maskTrios/BBA3.jpg","null","",NA,NA,NA,NA,""
"image-keyboard-response",275,182422,"0.0-4.87-2.87","909j6gs3deyavh4",700,"90.csv","","null","resources/images/fishbone.png","null","",NA,NA,NA,NA,""
"image-keyboard-response",276,182506,"0.0-4.88-0.88","909j6gs3deyavh4",700,"90.csv","","83.70000000018626","resources/trios/L1T2A3.jpg","37","restless",0.2,0.5,0.5,0.771533801413343,"false"
"image-keyboard-response",277,182911,"0.0-4.88-1.88","909j6gs3deyavh4",700,"90.csv","","null","resources/maskTrios/L1BB.jpg","null","",NA,NA,NA,NA,""
"image-keyboard-response",278,184115,"0.0-4.88-2.88","909j6gs3deyavh4",700,"90.csv","","null","resources/images/fishbone.png","null","",NA,NA,NA,NA,""
"image-keyboard-response",279,184194,"0.0-4.89-0.89","909j6gs3deyavh4",700,"90.csv","","77.90000000037253","resources/trios/L1T2A3.jpg","38","restless",0.2,0.5,0.4,0.693445632273218,"false"
"image-keyboard-response",280,184595,"0.0-4.89-1.89","909j6gs3deyavh4",700,"90.csv","","null","resources/maskTrios/BT2B.jpg","null","",NA,NA,NA,NA,""
"image-keyboard-response",281,185807,"0.0-4.89-2.89","909j6gs3deyavh4",700,"90.csv","","null","resources/images/fishbone.png","null","",NA,NA,NA,NA,""
"image-keyboard-response",282,185834,"0.0-4.90-0.90","909j6gs3deyavh4",700,"90.csv","","26.5","resources/trios/L1T2A3.jpg","37","restless",0.2,0.5,0.4,0.790576048623038,"false"
"image-keyboard-response",283,186243,"0.0-4.90-1.90","909j6gs3deyavh4",700,"90.csv","","null","resources/maskTrios/L1BB.jpg","null","",NA,NA,NA,NA,""
"image-keyboard-response",284,187456,"0.0-4.90-2.90","909j6gs3deyavh4",700,"90.csv","","null","resources/images/fishbone.png","null","",NA,NA,NA,NA,""
"image-keyboard-response",285,187639,"0.0-4.91-0.91","909j6gs3deyavh4",700,"90.csv","","182.90000000037253","resources/trios/L1T2A3.jpg","38","restless",0.2,0.5,0.4,0.17230226440858,"true"
"image-keyboard-response",286,188045,"0.0-4.91-1.91","909j6gs3deyavh4",700,"90.csv","","null","resources/maskTrios/BT2B.jpg","null","",NA,NA,NA,NA,""
"image-keyboard-response",287,189255,"0.0-4.91-2.91","909j6gs3deyavh4",700,"90.csv","","null","resources/images/coin2.png","null","",NA,NA,NA,NA,""
"image-keyboard-response",288,189271,"0.0-4.92-0.92","909j6gs3deyavh4",700,"90.csv","","15.100000000558794","resources/trios/L1T2A3.jpg","38","restless",0.2,0.5,0.4,0.30415222422371,"true"
"image-keyboard-response",289,189674,"0.0-4.92-1.92","909j6gs3deyavh4",700,"90.csv","","null","resources/maskTrios/BT2B.jpg","null","",NA,NA,NA,NA,""
"image-keyboard-response",290,190879,"0.0-4.92-2.92","909j6gs3deyavh4",700,"90.csv","","null","resources/images/coin2.png","null","",NA,NA,NA,NA,""
"image-keyboard-response",291,190888,"0.0-4.93-0.93","909j6gs3deyavh4",700,"90.csv","","8.800000000745058","resources/trios/L1T2A3.jpg","38","restless",0.2,0.4,0.3,0.0711540344895611,"true"
"image-keyboard-response",292,191296,"0.0-4.93-1.93","909j6gs3deyavh4",700,"90.csv","","null","resources/maskTrios/BT2B.jpg","null","",NA,NA,NA,NA,""
"image-keyboard-response",293,192507,"0.0-4.93-2.93","909j6gs3deyavh4",700,"90.csv","","null","resources/images/coin2.png","null","",NA,NA,NA,NA,""
"image-keyboard-response",294,192568,"0.0-4.94-0.94","909j6gs3deyavh4",700,"90.csv","","60.39999999944121","resources/trios/L1T2A3.jpg","38","restless",0.2,0.4,0.3,0.00764507029624806,"true"
"image-keyboard-response",295,192978,"0.0-4.94-1.94","909j6gs3deyavh4",700,"90.csv","","null","resources/maskTrios/BT2B.jpg","null","",NA,NA,NA,NA,""
"image-keyboard-response",296,194184,"0.0-4.94-2.94","909j6gs3deyavh4",700,"90.csv","","null","resources/images/coin2.png","null","",NA,NA,NA,NA,""
"image-keyboard-response",297,194235,"0.0-4.95-0.95","909j6gs3deyavh4",700,"90.csv","","50","resources/trios/L1T2A3.jpg","38","restless",0.2,0.4,0.3,0.186220636503083,"true"
"image-keyboard-response",298,194644,"0.0-4.95-1.95","909j6gs3deyavh4",700,"90.csv","","null","resources/maskTrios/BT2B.jpg","null","",NA,NA,NA,NA,""
"image-keyboard-response",299,195849,"0.0-4.95-2.95","909j6gs3deyavh4",700,"90.csv","","null","resources/images/coin2.png","null","",NA,NA,NA,NA,""
"image-keyboard-response",300,195997,"0.0-4.96-0.96","909j6gs3deyavh4",700,"90.csv","","148.20000000018626","resources/trios/L1T2A3.jpg","38","restless",0.2,0.4,0.3,0.533191108315112,"false"
"image-keyboard-response",301,196405,"0.0-4.96-1.96","909j6gs3deyavh4",700,"90.csv","","null","resources/maskTrios/BT2B.jpg","null","",NA,NA,NA,NA,""
"image-keyboard-response",302,197618,"0.0-4.96-2.96","909j6gs3deyavh4",700,"90.csv","","null","resources/images/fishbone.png","null","",NA,NA,NA,NA,""
"image-keyboard-response",303,197647,"0.0-4.97-0.97","909j6gs3deyavh4",700,"90.csv","","28.700000000186265","resources/trios/L1T2A3.jpg","37","restless",0.2,0.4,0.3,0.511875151070013,"false"
"image-keyboard-response",304,198060,"0.0-4.97-1.97","909j6gs3deyavh4",700,"90.csv","","null","resources/maskTrios/L1BB.jpg","null","",NA,NA,NA,NA,""
"image-keyboard-response",305,199265,"0.0-4.97-2.97","909j6gs3deyavh4",700,"90.csv","","null","resources/images/fishbone.png","null","",NA,NA,NA,NA,""
"image-keyboard-response",306,199395,"0.0-4.98-0.98","909j6gs3deyavh4",700,"90.csv","","129.29999999981374","resources/trios/L1T2A3.jpg","39","restless",0.2,0.4,0.3,0.51231589289773,"false"
"image-keyboard-response",307,199802,"0.0-4.98-1.98","909j6gs3deyavh4",700,"90.csv","","null","resources/maskTrios/BBA3.jpg","null","",NA,NA,NA,NA,""
"image-keyboard-response",308,201006,"0.0-4.98-2.98","909j6gs3deyavh4",700,"90.csv","","null","resources/images/fishbone.png","null","",NA,NA,NA,NA,""
"image-keyboard-response",309,201038,"0.0-4.99-0.99","909j6gs3deyavh4",700,"90.csv","","32","resources/trios/L1T2A3.jpg","37","restless",0.2,0.4,0.3,0.468999359648827,"false"
"image-keyboard-response",310,201442,"0.0-4.99-1.99","909j6gs3deyavh4",700,"90.csv","","null","resources/maskTrios/L1BB.jpg","null","",NA,NA,NA,NA,""
"image-keyboard-response",311,202647,"0.0-4.99-2.99","909j6gs3deyavh4",700,"90.csv","","null","resources/images/fishbone.png","null","",NA,NA,NA,NA,""
"image-keyboard-response",312,202812,"0.0-4.100-0.100","909j6gs3deyavh4",700,"90.csv","","164","resources/trios/L1T2A3.jpg","37","restless",0.2,0.4,0.4,0.08370607948303,"true"
"image-keyboard-response",313,203220,"0.0-4.100-1.100","909j6gs3deyavh4",700,"90.csv","","null","resources/maskTrios/L1BB.jpg","null","",NA,NA,NA,NA,""
"image-keyboard-response",314,204427,"0.0-4.100-2.100","909j6gs3deyavh4",700,"90.csv","","null","resources/images/coin2.png","null","",NA,NA,NA,NA,""
"image-keyboard-response",315,204705,"0.0-4.101-0.101","909j6gs3deyavh4",700,"90.csv","","277.70000000018626","resources/trios/L1T2A3.jpg","37","restless",0.2,0.4,0.4,0.479555237648362,"false"
"image-keyboard-response",316,205107,"0.0-4.101-1.101","909j6gs3deyavh4",700,"90.csv","","null","resources/maskTrios/L1BB.jpg","null","",NA,NA,NA,NA,""
"image-keyboard-response",317,206311,"0.0-4.101-2.101","909j6gs3deyavh4",700,"90.csv","","null","resources/images/fishbone.png","null","",NA,NA,NA,NA,""
"image-keyboard-response",318,206459,"0.0-4.102-0.102","909j6gs3deyavh4",700,"90.csv","","147.40000000037253","resources/trios/L1T2A3.jpg","38","restless",0.2,0.4,0.4,0.0275575844024554,"true"
"image-keyboard-response",319,206867,"0.0-4.102-1.102","909j6gs3deyavh4",700,"90.csv","","null","resources/maskTrios/BT2B.jpg","null","",NA,NA,NA,NA,""
"image-keyboard-response",320,208077,"0.0-4.102-2.102","909j6gs3deyavh4",700,"90.csv","","null","resources/images/coin2.png","null","",NA,NA,NA,NA,""
"image-keyboard-response",321,208078,"0.0-4.103-0.103","909j6gs3deyavh4",700,"90.csv","","0.6000000005587935","resources/trios/L1T2A3.jpg","39","restless",0.2,0.4,0.4,0.413828172266934,"false"
"image-keyboard-response",322,208495,"0.0-4.103-1.103","909j6gs3deyavh4",700,"90.csv","","null","resources/maskTrios/BBA3.jpg","null","",NA,NA,NA,NA,""
"image-keyboard-response",323,209702,"0.0-4.103-2.103","909j6gs3deyavh4",700,"90.csv","","null","resources/images/fishbone.png","null","",NA,NA,NA,NA,""
"image-keyboard-response",324,209851,"0.0-4.104-0.104","909j6gs3deyavh4",700,"90.csv","","148.20000000018626","resources/trios/L1T2A3.jpg","37","restless",0.2,0.4,0.4,0.0969167235337596,"true"
"image-keyboard-response",325,210262,"0.0-4.104-1.104","909j6gs3deyavh4",700,"90.csv","","null","resources/maskTrios/L1BB.jpg","null","",NA,NA,NA,NA,""
"image-keyboard-response",326,211467,"0.0-4.104-2.104","909j6gs3deyavh4",700,"90.csv","","null","resources/images/coin2.png","null","",NA,NA,NA,NA,""
"image-keyboard-response",327,211519,"0.0-4.105-0.105","909j6gs3deyavh4",700,"90.csv","","52.10000000055879","resources/trios/L1T2A3.jpg","37","restless",0.2,0.4,0.4,0.454797025577263,"false"
"image-keyboard-response",328,211921,"0.0-4.105-1.105","909j6gs3deyavh4",700,"90.csv","","null","resources/maskTrios/L1BB.jpg","null","",NA,NA,NA,NA,""
"image-keyboard-response",329,213123,"0.0-4.105-2.105","909j6gs3deyavh4",700,"90.csv","","null","resources/images/fishbone.png","null","",NA,NA,NA,NA,""
"image-keyboard-response",330,213618,"0.0-4.106-0.106","909j6gs3deyavh4",700,"90.csv","","494.5","resources/trios/L1T2A3.jpg","38","restless",0.2,0.4,0.4,0.155280404029122,"true"
"image-keyboard-response",331,214028,"0.0-4.106-1.106","909j6gs3deyavh4",700,"90.csv","","null","resources/maskTrios/BT2B.jpg","null","",NA,NA,NA,NA,""
"image-keyboard-response",332,215247,"0.0-4.106-2.106","909j6gs3deyavh4",700,"90.csv","","null","resources/images/coin2.png","null","",NA,NA,NA,NA,""
"image-keyboard-response",333,215304,"0.0-4.107-0.107","909j6gs3deyavh4",700,"90.csv","","56.799999999813735","resources/trios/L1T2A3.jpg","39","restless",0.2,0.4,0.4,0.806247122312637,"false"
"image-keyboard-response",334,215712,"0.0-4.107-1.107","909j6gs3deyavh4",700,"90.csv","","null","resources/maskTrios/BBA3.jpg","null","",NA,NA,NA,NA,""
"image-keyboard-response",335,216921,"0.0-4.107-2.107","909j6gs3deyavh4",700,"90.csv","","null","resources/images/fishbone.png","null","",NA,NA,NA,NA,""
"image-keyboard-response",336,216950,"0.0-4.108-0.108","909j6gs3deyavh4",700,"90.csv","","28.40000000037253","resources/trios/L1T2A3.jpg","37","restless",0.2,0.5,0.4,0.334762582274494,"false"
"image-keyboard-response",337,217363,"0.0-4.108-1.108","909j6gs3deyavh4",700,"90.csv","","null","resources/maskTrios/L1BB.jpg","null","",NA,NA,NA,NA,""
"image-keyboard-response",338,218576,"0.0-4.108-2.108","909j6gs3deyavh4",700,"90.csv","","null","resources/images/fishbone.png","null","",NA,NA,NA,NA,""
"image-keyboard-response",339,219318,"0.0-4.109-0.109","909j6gs3deyavh4",700,"90.csv","","740.5999999996275","resources/trios/L1T2A3.jpg","37","restless",0.2,0.5,0.4,0.0470232170758886,"true"
"image-keyboard-response",340,219722,"0.0-4.109-1.109","909j6gs3deyavh4",700,"90.csv","","null","resources/maskTrios/L1BB.jpg","null","",NA,NA,NA,NA,""
"image-keyboard-response",341,220926,"0.0-4.109-2.109","909j6gs3deyavh4",700,"90.csv","","null","resources/images/coin2.png","null","",NA,NA,NA,NA,""
"image-keyboard-response",342,222812,"0.0-4.110-0.110","909j6gs3deyavh4",700,"90.csv","","1885.7000000001863","resources/trios/L1T2A3.jpg","37","restless",0.2,0.4,0.4,0.414762120363711,"false"
"image-keyboard-response",343,223217,"0.0-4.110-1.110","909j6gs3deyavh4",700,"90.csv","","null","resources/maskTrios/L1BB.jpg","null","",NA,NA,NA,NA,""
"image-keyboard-response",344,224427,"0.0-4.110-2.110","909j6gs3deyavh4",700,"90.csv","","null","resources/images/fishbone.png","null","",NA,NA,NA,NA,""
"image-keyboard-response",345,224589,"0.0-4.111-0.111","909j6gs3deyavh4",700,"90.csv","","161.59999999962747","resources/trios/L1T2A3.jpg","37","restless",0.3,0.4,0.4,0.970755074077762,"false"
"image-keyboard-response",346,225003,"0.0-4.111-1.111","909j6gs3deyavh4",700,"90.csv","","null","resources/maskTrios/L1BB.jpg","null","",NA,NA,NA,NA,""
"image-keyboard-response",347,226214,"0.0-4.111-2.111","909j6gs3deyavh4",700,"90.csv","","null","resources/images/fishbone.png","null","",NA,NA,NA,NA,""
"image-keyboard-response",348,226355,"0.0-4.112-0.112","909j6gs3deyavh4",700,"90.csv","","141.09999999962747","resources/trios/L1T2A3.jpg","37","restless",0.3,0.4,0.4,0.302454815317802,"false"
"image-keyboard-response",349,226767,"0.0-4.112-1.112","909j6gs3deyavh4",700,"90.csv","","null","resources/maskTrios/L1BB.jpg","null","",NA,NA,NA,NA,""
"image-keyboard-response",350,227970,"0.0-4.112-2.112","909j6gs3deyavh4",700,"90.csv","","null","resources/images/fishbone.png","null","",NA,NA,NA,NA,""
"image-keyboard-response",351,228083,"0.0-4.113-0.113","909j6gs3deyavh4",700,"90.csv","","112.59999999962747","resources/trios/L1T2A3.jpg","38","restless",0.3,0.4,0.4,0.696913182359484,"false"
"image-keyboard-response",352,228501,"0.0-4.113-1.113","909j6gs3deyavh4",700,"90.csv","","null","resources/maskTrios/BT2B.jpg","null","",NA,NA,NA,NA,""
"image-keyboard-response",353,229702,"0.0-4.113-2.113","909j6gs3deyavh4",700,"90.csv","","null","resources/images/fishbone.png","null","",NA,NA,NA,NA,""
"image-keyboard-response",354,229835,"0.0-4.114-0.114","909j6gs3deyavh4",700,"90.csv","","132.5","resources/trios/L1T2A3.jpg","38","restless",0.3,0.4,0.4,0.545984424715634,"false"
"image-keyboard-response",355,230250,"0.0-4.114-1.114","909j6gs3deyavh4",700,"90.csv","","null","resources/maskTrios/BT2B.jpg","null","",NA,NA,NA,NA,""
"image-keyboard-response",356,231462,"0.0-4.114-2.114","909j6gs3deyavh4",700,"90.csv","","null","resources/images/fishbone.png","null","",NA,NA,NA,NA,""
"image-keyboard-response",357,231557,"0.0-4.115-0.115","909j6gs3deyavh4",700,"90.csv","","94.40000000037253","resources/trios/L1T2A3.jpg","39","restless",0.3,0.4,0.5,0.664599273382294,"false"
"image-keyboard-response",358,231963,"0.0-4.115-1.115","909j6gs3deyavh4",700,"90.csv","","null","resources/maskTrios/BBA3.jpg","null","",NA,NA,NA,NA,""
"image-keyboard-response",359,233164,"0.0-4.115-2.115","909j6gs3deyavh4",700,"90.csv","","null","resources/images/fishbone.png","null","",NA,NA,NA,NA,""
"image-keyboard-response",360,233219,"0.0-4.116-0.116","909j6gs3deyavh4",700,"90.csv","","55.200000000186265","resources/trios/L1T2A3.jpg","39","restless",0.3,0.4,0.5,0.60017924957869,"false"
"image-keyboard-response",361,233625,"0.0-4.116-1.116","909j6gs3deyavh4",700,"90.csv","","null","resources/maskTrios/BBA3.jpg","null","",NA,NA,NA,NA,""
"image-keyboard-response",362,234832,"0.0-4.116-2.116","909j6gs3deyavh4",700,"90.csv","","null","resources/images/fishbone.png","null","",NA,NA,NA,NA,""
"image-keyboard-response",363,234960,"0.0-4.117-0.117","909j6gs3deyavh4",700,"90.csv","","127.80000000074506","resources/trios/L1T2A3.jpg","37","restless",0.3,0.4,0.5,0.484985758388095,"false"
"image-keyboard-response",364,235377,"0.0-4.117-1.117","909j6gs3deyavh4",700,"90.csv","","null","resources/maskTrios/L1BB.jpg","null","",NA,NA,NA,NA,""
"image-keyboard-response",365,236578,"0.0-4.117-2.117","909j6gs3deyavh4",700,"90.csv","","null","resources/images/fishbone.png","null","",NA,NA,NA,NA,""
"image-keyboard-response",366,237198,"0.0-4.118-0.118","909j6gs3deyavh4",700,"90.csv","","620.1000000005588","resources/trios/L1T2A3.jpg","37","restless",0.3,0.4,0.5,0.362445596846281,"false"
"image-keyboard-response",367,237623,"0.0-4.118-1.118","909j6gs3deyavh4",700,"90.csv","","null","resources/maskTrios/L1BB.jpg","null","",NA,NA,NA,NA,""
"image-keyboard-response",368,238836,"0.0-4.118-2.118","909j6gs3deyavh4",700,"90.csv","","null","resources/images/fishbone.png","null","",NA,NA,NA,NA,""
"image-keyboard-response",369,239069,"0.0-4.119-0.119","909j6gs3deyavh4",700,"90.csv","","232.29999999981374","resources/trios/L1T2A3.jpg","38","restless",0.3,0.4,0.5,0.245277221735607,"true"
"image-keyboard-response",370,239480,"0.0-4.119-1.119","909j6gs3deyavh4",700,"90.csv","","null","resources/maskTrios/BT2B.jpg","null","",NA,NA,NA,NA,""
"image-keyboard-response",371,240691,"0.0-4.119-2.119","909j6gs3deyavh4",700,"90.csv","","null","resources/images/coin2.png","null","",NA,NA,NA,NA,""
"image-keyboard-response",372,241061,"0.0-4.120-0.120","909j6gs3deyavh4",700,"90.csv","","368.90000000037253","resources/trios/L1T2A3.jpg","37","restless",0.3,0.4,0.5,0.544476266043826,"false"
"image-keyboard-response",373,241462,"0.0-4.120-1.120","909j6gs3deyavh4",700,"90.csv","","null","resources/maskTrios/L1BB.jpg","null","",NA,NA,NA,NA,""
"image-keyboard-response",374,242676,"0.0-4.120-2.120","909j6gs3deyavh4",700,"90.csv","","null","resources/images/fishbone.png","null","",NA,NA,NA,NA,""
"image-keyboard-response",375,243130,"0.0-4.121-0.121","909j6gs3deyavh4",700,"90.csv","","453.79999999981374","resources/trios/L1T2A3.jpg","38","restless",0.3,0.4,0.4,0.174139845379232,"true"
"image-keyboard-response",376,243534,"0.0-4.121-1.121","909j6gs3deyavh4",700,"90.csv","","null","resources/maskTrios/BT2B.jpg","null","",NA,NA,NA,NA,""
"image-keyboard-response",377,244740,"0.0-4.121-2.121","909j6gs3deyavh4",700,"90.csv","","null","resources/images/coin2.png","null","",NA,NA,NA,NA,""
"image-keyboard-response",378,251075,"0.0-4.122-0.122","909j6gs3deyavh4",700,"90.csv","","6334.399999999441","resources/trios/L1T2A3.jpg","37","restless",0.3,0.5,0.4,0.530942562582865,"false"
"image-keyboard-response",379,251481,"0.0-4.122-1.122","909j6gs3deyavh4",700,"90.csv","","null","resources/maskTrios/L1BB.jpg","null","",NA,NA,NA,NA,""
"image-keyboard-response",380,252692,"0.0-4.122-2.122","909j6gs3deyavh4",700,"90.csv","","null","resources/images/fishbone.png","null","",NA,NA,NA,NA,""
"image-keyboard-response",381,253210,"0.0-4.123-0.123","909j6gs3deyavh4",700,"90.csv","","516.7999999998137","resources/trios/L1T2A3.jpg","38","restless",0.3,0.6,0.4,0.595695186669019,"true"
"image-keyboard-response",382,253623,"0.0-4.123-1.123","909j6gs3deyavh4",700,"90.csv","","null","resources/maskTrios/BT2B.jpg","null","",NA,NA,NA,NA,""
"image-keyboard-response",383,254825,"0.0-4.123-2.123","909j6gs3deyavh4",700,"90.csv","","null","resources/images/coin2.png","null","",NA,NA,NA,NA,""
"image-keyboard-response",384,255035,"0.0-4.124-0.124","909j6gs3deyavh4",700,"90.csv","","209.70000000018626","resources/trios/L1T2A3.jpg","37","restless",0.3,0.6,0.4,0.878839114159738,"false"
"image-keyboard-response",385,255451,"0.0-4.124-1.124","909j6gs3deyavh4",700,"90.csv","","null","resources/maskTrios/L1BB.jpg","null","",NA,NA,NA,NA,""
"image-keyboard-response",386,256659,"0.0-4.124-2.124","909j6gs3deyavh4",700,"90.csv","","null","resources/images/fishbone.png","null","",NA,NA,NA,NA,""
"image-keyboard-response",387,256758,"0.0-4.125-0.125","909j6gs3deyavh4",700,"90.csv","","98.29999999981374","resources/trios/L1T2A3.jpg","37","restless",0.3,0.6,0.4,0.78450109030192,"false"
"image-keyboard-response",388,257163,"0.0-4.125-1.125","909j6gs3deyavh4",700,"90.csv","","null","resources/maskTrios/L1BB.jpg","null","",NA,NA,NA,NA,""
"image-keyboard-response",389,258375,"0.0-4.125-2.125","909j6gs3deyavh4",700,"90.csv","","null","resources/images/fishbone.png","null","",NA,NA,NA,NA,""
"image-keyboard-response",390,258467,"0.0-4.126-0.126","909j6gs3deyavh4",700,"90.csv","","91.70000000018626","resources/trios/L1T2A3.jpg","37","restless",0.3,0.6,0.5,0.374302685944213,"false"
"image-keyboard-response",391,258877,"0.0-4.126-1.126","909j6gs3deyavh4",700,"90.csv","","null","resources/maskTrios/L1BB.jpg","null","",NA,NA,NA,NA,""
"image-keyboard-response",392,260091,"0.0-4.126-2.126","909j6gs3deyavh4",700,"90.csv","","null","resources/images/fishbone.png","null","",NA,NA,NA,NA,""
"image-keyboard-response",393,260778,"0.0-4.127-0.127","909j6gs3deyavh4",700,"90.csv","","687","resources/trios/L1T2A3.jpg","37","restless",0.3,0.6,0.5,0.218188005110349,"true"
"image-keyboard-response",394,261193,"0.0-4.127-1.127","909j6gs3deyavh4",700,"90.csv","","null","resources/maskTrios/L1BB.jpg","null","",NA,NA,NA,NA,""
"image-keyboard-response",395,262397,"0.0-4.127-2.127","909j6gs3deyavh4",700,"90.csv","","null","resources/images/coin2.png","null","",NA,NA,NA,NA,""
"image-keyboard-response",396,262402,"0.0-4.128-0.128","909j6gs3deyavh4",700,"90.csv","","4.2999999998137355","resources/trios/L1T2A3.jpg","37","restless",0.3,0.6,0.5,0.913707711018786,"false"
"image-keyboard-response",397,262808,"0.0-4.128-1.128","909j6gs3deyavh4",700,"90.csv","","null","resources/maskTrios/L1BB.jpg","null","",NA,NA,NA,NA,""
"image-keyboard-response",398,264017,"0.0-4.128-2.128","909j6gs3deyavh4",700,"90.csv","","null","resources/images/fishbone.png","null","",NA,NA,NA,NA,""
"image-keyboard-response",399,264191,"0.0-4.129-0.129","909j6gs3deyavh4",700,"90.csv","","173.8999999994412","resources/trios/L1T2A3.jpg","37","restless",0.4,0.7,0.5,0.234528208414643,"true"
"image-keyboard-response",400,264602,"0.0-4.129-1.129","909j6gs3deyavh4",700,"90.csv","","null","resources/maskTrios/L1BB.jpg","null","",NA,NA,NA,NA,""
"image-keyboard-response",401,265816,"0.0-4.129-2.129","909j6gs3deyavh4",700,"90.csv","","null","resources/images/coin2.png","null","",NA,NA,NA,NA,""
"image-keyboard-response",402,265948,"0.0-4.130-0.130","909j6gs3deyavh4",700,"90.csv","","130.70000000018626","resources/trios/L1T2A3.jpg","37","restless",0.4,0.7,0.5,0.342497409954243,"true"
"image-keyboard-response",403,266349,"0.0-4.130-1.130","909j6gs3deyavh4",700,"90.csv","","null","resources/maskTrios/L1BB.jpg","null","",NA,NA,NA,NA,""
"image-keyboard-response",404,267564,"0.0-4.130-2.130","909j6gs3deyavh4",700,"90.csv","","null","resources/images/coin2.png","null","",NA,NA,NA,NA,""
"image-keyboard-response",405,267584,"0.0-4.131-0.131","909j6gs3deyavh4",700,"90.csv","","19.299999999813735","resources/trios/L1T2A3.jpg","37","restless",0.4,0.6,0.5,0.535494500255183,"false"
"image-keyboard-response",406,268001,"0.0-4.131-1.131","909j6gs3deyavh4",700,"90.csv","","null","resources/maskTrios/L1BB.jpg","null","",NA,NA,NA,NA,""
"image-keyboard-response",407,269209,"0.0-4.131-2.131","909j6gs3deyavh4",700,"90.csv","","null","resources/images/fishbone.png","null","",NA,NA,NA,NA,""
"image-keyboard-response",408,269306,"0.0-4.132-0.132","909j6gs3deyavh4",700,"90.csv","","95.80000000074506","resources/trios/L1T2A3.jpg","37","restless",0.4,0.6,0.5,0.494291604463519,"false"
"image-keyboard-response",409,269719,"0.0-4.132-1.132","909j6gs3deyavh4",700,"90.csv","","null","resources/maskTrios/L1BB.jpg","null","",NA,NA,NA,NA,""
"image-keyboard-response",410,270924,"0.0-4.132-2.132","909j6gs3deyavh4",700,"90.csv","","null","resources/images/fishbone.png","null","",NA,NA,NA,NA,""
"image-keyboard-response",411,272397,"0.0-4.133-0.133","909j6gs3deyavh4",700,"90.csv","","1472.5999999996275","resources/trios/L1T2A3.jpg","37","restless",0.4,0.6,0.5,0.940251682946448,"false"
"image-keyboard-response",412,272804,"0.0-4.133-1.133","909j6gs3deyavh4",700,"90.csv","","null","resources/maskTrios/L1BB.jpg","null","",NA,NA,NA,NA,""
"image-keyboard-response",413,274007,"0.0-4.133-2.133","909j6gs3deyavh4",700,"90.csv","","null","resources/images/fishbone.png","null","",NA,NA,NA,NA,""
"image-keyboard-response",414,274024,"0.0-4.134-0.134","909j6gs3deyavh4",700,"90.csv","","16.200000000186265","resources/trios/L1T2A3.jpg","37","restless",0.4,0.6,0.5,0.941050399172416,"false"
"image-keyboard-response",415,274428,"0.0-4.134-1.134","909j6gs3deyavh4",700,"90.csv","","null","resources/maskTrios/L1BB.jpg","null","",NA,NA,NA,NA,""
"image-keyboard-response",416,275630,"0.0-4.134-2.134","909j6gs3deyavh4",700,"90.csv","","null","resources/images/fishbone.png","null","",NA,NA,NA,NA,""
"image-keyboard-response",417,276006,"0.0-4.135-0.135","909j6gs3deyavh4",700,"90.csv","","375.90000000037253","resources/trios/L1T2A3.jpg","37","restless",0.4,0.6,0.6,0.953383880100799,"false"
"image-keyboard-response",418,276413,"0.0-4.135-1.135","909j6gs3deyavh4",700,"90.csv","","null","resources/maskTrios/L1BB.jpg","null","",NA,NA,NA,NA,""
"image-keyboard-response",419,277615,"0.0-4.135-2.135","909j6gs3deyavh4",700,"90.csv","","null","resources/images/fishbone.png","null","",NA,NA,NA,NA,""
"image-keyboard-response",420,277736,"0.0-4.136-0.136","909j6gs3deyavh4",700,"90.csv","","120.3999999994412","resources/trios/L1T2A3.jpg","37","restless",0.4,0.6,0.6,0.0892955739125172,"true"
"image-keyboard-response",421,278139,"0.0-4.136-1.136","909j6gs3deyavh4",700,"90.csv","","null","resources/maskTrios/L1BB.jpg","null","",NA,NA,NA,NA,""
"image-keyboard-response",422,279350,"0.0-4.136-2.136","909j6gs3deyavh4",700,"90.csv","","null","resources/images/coin2.png","null","",NA,NA,NA,NA,""
"image-keyboard-response",423,279421,"0.0-4.137-0.137","909j6gs3deyavh4",700,"90.csv","","70.40000000037253","resources/trios/L1T2A3.jpg","37","restless",0.4,0.6,0.6,0.0370492295163571,"true"
"image-keyboard-response",424,279827,"0.0-4.137-1.137","909j6gs3deyavh4",700,"90.csv","","null","resources/maskTrios/L1BB.jpg","null","",NA,NA,NA,NA,""
"image-keyboard-response",425,281033,"0.0-4.137-2.137","909j6gs3deyavh4",700,"90.csv","","null","resources/images/coin2.png","null","",NA,NA,NA,NA,""
"image-keyboard-response",426,281178,"0.0-4.138-0.138","909j6gs3deyavh4",700,"90.csv","","144.20000000018626","resources/trios/L1T2A3.jpg","37","restless",0.4,0.6,0.6,0.673593453912536,"false"
"image-keyboard-response",427,281581,"0.0-4.138-1.138","909j6gs3deyavh4",700,"90.csv","","null","resources/maskTrios/L1BB.jpg","null","",NA,NA,NA,NA,""
"image-keyboard-response",428,282789,"0.0-4.138-2.138","909j6gs3deyavh4",700,"90.csv","","null","resources/images/fishbone.png","null","",NA,NA,NA,NA,""
"image-keyboard-response",429,282921,"0.0-4.139-0.139","909j6gs3deyavh4",700,"90.csv","","131.1000000005588","resources/trios/L1T2A3.jpg","37","restless",0.4,0.6,0.6,0.978924038067517,"false"
"image-keyboard-response",430,283325,"0.0-4.139-1.139","909j6gs3deyavh4",700,"90.csv","","null","resources/maskTrios/L1BB.jpg","null","",NA,NA,NA,NA,""
"image-keyboard-response",431,284528,"0.0-4.139-2.139","909j6gs3deyavh4",700,"90.csv","","null","resources/images/fishbone.png","null","",NA,NA,NA,NA,""
"image-keyboard-response",432,284602,"0.0-4.140-0.140","909j6gs3deyavh4",700,"90.csv","","73.59999999962747","resources/trios/L1T2A3.jpg","37","restless",0.4,0.5,0.6,0.48978937208981,"false"
"image-keyboard-response",433,285007,"0.0-4.140-1.140","909j6gs3deyavh4",700,"90.csv","","null","resources/maskTrios/L1BB.jpg","null","",NA,NA,NA,NA,""
"image-keyboard-response",434,286212,"0.0-4.140-2.140","909j6gs3deyavh4",700,"90.csv","","null","resources/images/fishbone.png","null","",NA,NA,NA,NA,""
"image-keyboard-response",435,286400,"0.0-4.141-0.141","909j6gs3deyavh4",700,"90.csv","","187.5","resources/trios/L1T2A3.jpg","37","restless",0.3,0.4,0.6,0.895447517199444,"false"
"image-keyboard-response",436,286805,"0.0-4.141-1.141","909j6gs3deyavh4",700,"90.csv","","null","resources/maskTrios/L1BB.jpg","null","",NA,NA,NA,NA,""
"image-keyboard-response",437,288013,"0.0-4.141-2.141","909j6gs3deyavh4",700,"90.csv","","null","resources/images/fishbone.png","null","",NA,NA,NA,NA,""
"image-keyboard-response",438,288107,"0.0-4.142-0.142","909j6gs3deyavh4",700,"90.csv","","93.5","resources/trios/L1T2A3.jpg","37","restless",0.3,0.4,0.6,0.668873251185524,"false"
"image-keyboard-response",439,288514,"0.0-4.142-1.142","909j6gs3deyavh4",700,"90.csv","","null","resources/maskTrios/L1BB.jpg","null","",NA,NA,NA,NA,""
"image-keyboard-response",440,289716,"0.0-4.142-2.142","909j6gs3deyavh4",700,"90.csv","","null","resources/images/fishbone.png","null","",NA,NA,NA,NA,""
"image-keyboard-response",441,289828,"0.0-4.143-0.143","909j6gs3deyavh4",700,"90.csv","","111.1000000005588","resources/trios/L1T2A3.jpg","37","restless",0.3,0.3,0.6,0.285003029342583,"true"
"image-keyboard-response",442,290229,"0.0-4.143-1.143","909j6gs3deyavh4",700,"90.csv","","null","resources/maskTrios/L1BB.jpg","null","",NA,NA,NA,NA,""
"image-keyboard-response",443,291430,"0.0-4.143-2.143","909j6gs3deyavh4",700,"90.csv","","null","resources/images/coin2.png","null","",NA,NA,NA,NA,""
"image-keyboard-response",444,291720,"0.0-4.144-0.144","909j6gs3deyavh4",700,"90.csv","","289.29999999981374","resources/trios/L1T2A3.jpg","37","restless",0.3,0.3,0.6,0.640601363894444,"false"
"image-keyboard-response",445,292134,"0.0-4.144-1.144","909j6gs3deyavh4",700,"90.csv","","null","resources/maskTrios/L1BB.jpg","null","",NA,NA,NA,NA,""
"image-keyboard-response",446,293335,"0.0-4.144-2.144","909j6gs3deyavh4",700,"90.csv","","null","resources/images/fishbone.png","null","",NA,NA,NA,NA,""
"image-keyboard-response",447,293380,"0.0-4.145-0.145","909j6gs3deyavh4",700,"90.csv","","44.700000000186265","resources/trios/L1T2A3.jpg","39","restless",0.4,0.3,0.6,0.690398381930259,"false"
"image-keyboard-response",448,293791,"0.0-4.145-1.145","909j6gs3deyavh4",700,"90.csv","","null","resources/maskTrios/BBA3.jpg","null","",NA,NA,NA,NA,""
"image-keyboard-response",449,294996,"0.0-4.145-2.145","909j6gs3deyavh4",700,"90.csv","","null","resources/images/fishbone.png","null","",NA,NA,NA,NA,""
"image-keyboard-response",450,295090,"0.0-4.146-0.146","909j6gs3deyavh4",700,"90.csv","","93.29999999981374","resources/trios/L1T2A3.jpg","39","restless",0.4,0.3,0.6,0.100176477070077,"true"
"image-keyboard-response",451,295496,"0.0-4.146-1.146","909j6gs3deyavh4",700,"90.csv","","null","resources/maskTrios/BBA3.jpg","null","",NA,NA,NA,NA,""
"image-keyboard-response",452,296711,"0.0-4.146-2.146","909j6gs3deyavh4",700,"90.csv","","null","resources/images/coin2.png","null","",NA,NA,NA,NA,""
"image-keyboard-response",453,296795,"0.0-4.147-0.147","909j6gs3deyavh4",700,"90.csv","","84.19999999925494","resources/trios/L1T2A3.jpg","39","restless",0.4,0.3,0.6,0.519690358417105,"true"
"image-keyboard-response",454,297199,"0.0-4.147-1.147","909j6gs3deyavh4",700,"90.csv","","null","resources/maskTrios/BBA3.jpg","null","",NA,NA,NA,NA,""
"image-keyboard-response",455,298414,"0.0-4.147-2.147","909j6gs3deyavh4",700,"90.csv","","null","resources/images/coin2.png","null","",NA,NA,NA,NA,""
"image-keyboard-response",456,298462,"0.0-4.148-0.148","909j6gs3deyavh4",700,"90.csv","","47.10000000055879","resources/trios/L1T2A3.jpg","38","restless",0.4,0.3,0.6,0.147579976604852,"true"
"image-keyboard-response",457,298871,"0.0-4.148-1.148","909j6gs3deyavh4",700,"90.csv","","null","resources/maskTrios/BT2B.jpg","null","",NA,NA,NA,NA,""
"image-keyboard-response",458,300079,"0.0-4.148-2.148","909j6gs3deyavh4",700,"90.csv","","null","resources/images/coin2.png","null","",NA,NA,NA,NA,""
"image-keyboard-response",459,300258,"0.0-4.149-0.149","909j6gs3deyavh4",700,"90.csv","","178.3999999994412","resources/trios/L1T2A3.jpg","39","restless",0.4,0.3,0.6,0.729725010913439,"false"
"image-keyboard-response",460,300672,"0.0-4.149-1.149","909j6gs3deyavh4",700,"90.csv","","null","resources/maskTrios/BBA3.jpg","null","",NA,NA,NA,NA,""
"image-keyboard-response",461,301881,"0.0-4.149-2.149","909j6gs3deyavh4",700,"90.csv","","null","resources/images/fishbone.png","null","",NA,NA,NA,NA,""
"image-keyboard-response",462,301935,"0.0-4.150-0.150","909j6gs3deyavh4",700,"90.csv","","54","resources/trios/L1T2A3.jpg","39","restless",0.4,0.3,0.6,0.0299873619787154,"true"
"image-keyboard-response",463,302345,"0.0-4.150-1.150","909j6gs3deyavh4",700,"90.csv","","null","resources/maskTrios/BBA3.jpg","null","",NA,NA,NA,NA,""
"image-keyboard-response",464,303547,"0.0-4.150-2.150","909j6gs3deyavh4",700,"90.csv","","null","resources/images/coin2.png","null","",NA,NA,NA,NA,""
"image-keyboard-response",465,303623,"0.0-4.151-0.151","909j6gs3deyavh4",700,"90.csv","","75.5","resources/trios/L1T2A3.jpg","37","restless",0.4,0.3,0.6,0.566107440205737,"false"
"image-keyboard-response",466,304037,"0.0-4.151-1.151","909j6gs3deyavh4",700,"90.csv","","null","resources/maskTrios/L1BB.jpg","null","",NA,NA,NA,NA,""
"image-keyboard-response",467,305242,"0.0-4.151-2.151","909j6gs3deyavh4",700,"90.csv","","null","resources/images/fishbone.png","null","",NA,NA,NA,NA,""
"image-keyboard-response",468,305329,"0.0-4.152-0.152","909j6gs3deyavh4",700,"90.csv","","86.5","resources/trios/L1T2A3.jpg","37","restless",0.4,0.3,0.6,0.38329804055732,"true"
"image-keyboard-response",469,305740,"0.0-4.152-1.152","909j6gs3deyavh4",700,"90.csv","","null","resources/maskTrios/L1BB.jpg","null","",NA,NA,NA,NA,""
"image-keyboard-response",470,306953,"0.0-4.152-2.152","909j6gs3deyavh4",700,"90.csv","","null","resources/images/coin2.png","null","",NA,NA,NA,NA,""
"image-keyboard-response",471,307017,"0.0-4.153-0.153","909j6gs3deyavh4",700,"90.csv","","63.799999999813735","resources/trios/L1T2A3.jpg","39","restless",0.4,0.3,0.6,0.545017948928089,"true"
"image-keyboard-response",472,307425,"0.0-4.153-1.153","909j6gs3deyavh4",700,"90.csv","","null","resources/maskTrios/BBA3.jpg","null","",NA,NA,NA,NA,""
"image-keyboard-response",473,308629,"0.0-4.153-2.153","909j6gs3deyavh4",700,"90.csv","","null","resources/images/coin2.png","null","",NA,NA,NA,NA,""
"image-keyboard-response",474,308698,"0.0-4.154-0.154","909j6gs3deyavh4",700,"90.csv","","68.3999999994412","resources/trios/L1T2A3.jpg","37","restless",0.4,0.3,0.6,0.0164805694496217,"true"
"image-keyboard-response",475,309101,"0.0-4.154-1.154","909j6gs3deyavh4",700,"90.csv","","null","resources/maskTrios/L1BB.jpg","null","",NA,NA,NA,NA,""
"image-keyboard-response",476,310306,"0.0-4.154-2.154","909j6gs3deyavh4",700,"90.csv","","null","resources/images/coin2.png","null","",NA,NA,NA,NA,""
"image-keyboard-response",477,310324,"0.0-4.155-0.155","909j6gs3deyavh4",700,"90.csv","","18.09999999962747","resources/trios/L1T2A3.jpg","39","restless",0.4,0.3,0.6,0.859407405267065,"false"
"image-keyboard-response",478,310729,"0.0-4.155-1.155","909j6gs3deyavh4",700,"90.csv","","null","resources/maskTrios/BBA3.jpg","null","",NA,NA,NA,NA,""
"image-keyboard-response",479,311933,"0.0-4.155-2.155","909j6gs3deyavh4",700,"90.csv","","null","resources/images/fishbone.png","null","",NA,NA,NA,NA,""
"image-keyboard-response",480,311965,"0.0-4.156-0.156","909j6gs3deyavh4",700,"90.csv","","31.300000000745058","resources/trios/L1T2A3.jpg","37","restless",0.4,0.2,0.6,0.337290304310134,"true"
"image-keyboard-response",481,312368,"0.0-4.156-1.156","909j6gs3deyavh4",700,"90.csv","","null","resources/maskTrios/L1BB.jpg","null","",NA,NA,NA,NA,""
"image-keyboard-response",482,313574,"0.0-4.156-2.156","909j6gs3deyavh4",700,"90.csv","","null","resources/images/coin2.png","null","",NA,NA,NA,NA,""
"image-keyboard-response",483,313601,"0.0-4.157-0.157","909j6gs3deyavh4",700,"90.csv","","26.100000000558794","resources/trios/L1T2A3.jpg","39","restless",0.4,0.2,0.6,0.923130458701226,"false"
"image-keyboard-response",484,314008,"0.0-4.157-1.157","909j6gs3deyavh4",700,"90.csv","","null","resources/maskTrios/BBA3.jpg","null","",NA,NA,NA,NA,""
"image-keyboard-response",485,315219,"0.0-4.157-2.157","909j6gs3deyavh4",700,"90.csv","","null","resources/images/fishbone.png","null","",NA,NA,NA,NA,""
"image-keyboard-response",486,315332,"0.0-4.158-0.158","909j6gs3deyavh4",700,"90.csv","","112.5","resources/trios/L1T2A3.jpg","37","restless",0.4,0.2,0.6,0.406612144740963,"false"
"image-keyboard-response",487,315742,"0.0-4.158-1.158","909j6gs3deyavh4",700,"90.csv","","null","resources/maskTrios/L1BB.jpg","null","",NA,NA,NA,NA,""
"image-keyboard-response",488,316946,"0.0-4.158-2.158","909j6gs3deyavh4",700,"90.csv","","null","resources/images/fishbone.png","null","",NA,NA,NA,NA,""
"image-keyboard-response",489,317019,"0.0-4.159-0.159","909j6gs3deyavh4",700,"90.csv","","72.40000000037253","resources/trios/L1T2A3.jpg","37","restless",0.4,0.2,0.6,0.648352740978325,"false"
"image-keyboard-response",490,317435,"0.0-4.159-1.159","909j6gs3deyavh4",700,"90.csv","","null","resources/maskTrios/L1BB.jpg","null","",NA,NA,NA,NA,""
"image-keyboard-response",491,318644,"0.0-4.159-2.159","909j6gs3deyavh4",700,"90.csv","","null","resources/images/fishbone.png","null","",NA,NA,NA,NA,""
"image-keyboard-response",492,318646,"0.0-4.160-0.160","909j6gs3deyavh4",700,"90.csv","","1.2000000001862645","resources/trios/L1T2A3.jpg","38","restless",0.4,0.2,0.6,0.743657998666863,"false"
"image-keyboard-response",493,319060,"0.0-4.160-1.160","909j6gs3deyavh4",700,"90.csv","","null","resources/maskTrios/BT2B.jpg","null","",NA,NA,NA,NA,""
"image-keyboard-response",494,320267,"0.0-4.160-2.160","909j6gs3deyavh4",700,"90.csv","","null","resources/images/fishbone.png","null","",NA,NA,NA,NA,""
"image-keyboard-response",495,320288,"0.0-4.161-0.161","909j6gs3deyavh4",700,"90.csv","","21.200000000186265","resources/trios/L1T2A3.jpg","37","restless",0.5,0.2,0.6,0.741818050735029,"false"
"image-keyboard-response",496,320692,"0.0-4.161-1.161","909j6gs3deyavh4",700,"90.csv","","null","resources/maskTrios/L1BB.jpg","null","",NA,NA,NA,NA,""
"image-keyboard-response",497,321899,"0.0-4.161-2.161","909j6gs3deyavh4",700,"90.csv","","null","resources/images/fishbone.png","null","",NA,NA,NA,NA,""
"image-keyboard-response",498,322043,"0.0-4.162-0.162","909j6gs3deyavh4",700,"90.csv","","143.59999999962747","resources/trios/L1T2A3.jpg","37","restless",0.5,0.1,0.6,0.786594556115193,"false"
"image-keyboard-response",499,322456,"0.0-4.162-1.162","909j6gs3deyavh4",700,"90.csv","","null","resources/maskTrios/L1BB.jpg","null","",NA,NA,NA,NA,""
"image-keyboard-response",500,323667,"0.0-4.162-2.162","909j6gs3deyavh4",700,"90.csv","","null","resources/images/fishbone.png","null","",NA,NA,NA,NA,""
"image-keyboard-response",501,323672,"0.0-4.163-0.163","909j6gs3deyavh4",700,"90.csv","","4.3999999994412065","resources/trios/L1T2A3.jpg","37","restless",0.5,0.1,0.7,0.6122242440482,"false"
"image-keyboard-response",502,324073,"0.0-4.163-1.163","909j6gs3deyavh4",700,"90.csv","","null","resources/maskTrios/L1BB.jpg","null","",NA,NA,NA,NA,""
"image-keyboard-response",503,325276,"0.0-4.163-2.163","909j6gs3deyavh4",700,"90.csv","","null","resources/images/fishbone.png","null","",NA,NA,NA,NA,""
"image-keyboard-response",504,325386,"0.0-4.164-0.164","909j6gs3deyavh4",700,"90.csv","","108.90000000037253","resources/trios/L1T2A3.jpg","37","restless",0.5,0.1,0.7,0.359854738760985,"true"
"image-keyboard-response",505,325798,"0.0-4.164-1.164","909j6gs3deyavh4",700,"90.csv","","null","resources/maskTrios/L1BB.jpg","null","",NA,NA,NA,NA,""
"image-keyboard-response",506,327009,"0.0-4.164-2.164","909j6gs3deyavh4",700,"90.csv","","null","resources/images/coin2.png","null","",NA,NA,NA,NA,""
"image-keyboard-response",507,327148,"0.0-4.165-0.165","909j6gs3deyavh4",700,"90.csv","","138.79999999981374","resources/trios/L1T2A3.jpg","37","restless",0.5,0.2,0.7,0.819236345822906,"false"
"image-keyboard-response",508,327551,"0.0-4.165-1.165","909j6gs3deyavh4",700,"90.csv","","null","resources/maskTrios/L1BB.jpg","null","",NA,NA,NA,NA,""
"image-keyboard-response",509,328762,"0.0-4.165-2.165","909j6gs3deyavh4",700,"90.csv","","null","resources/images/fishbone.png","null","",NA,NA,NA,NA,""
"image-keyboard-response",510,328851,"0.0-4.166-0.166","909j6gs3deyavh4",700,"90.csv","","87.79999999981374","resources/trios/L1T2A3.jpg","37","restless",0.5,0.2,0.7,0.769346426269037,"false"
"image-keyboard-response",511,329261,"0.0-4.166-1.166","909j6gs3deyavh4",700,"90.csv","","null","resources/maskTrios/L1BB.jpg","null","",NA,NA,NA,NA,""
"image-keyboard-response",512,330462,"0.0-4.166-2.166","909j6gs3deyavh4",700,"90.csv","","null","resources/images/fishbone.png","null","",NA,NA,NA,NA,""
"image-keyboard-response",513,330482,"0.0-4.167-0.167","909j6gs3deyavh4",700,"90.csv","","18.600000000558794","resources/trios/L1T2A3.jpg","37","restless",0.5,0.2,0.7,0.571157923437999,"false"
"image-keyboard-response",514,330888,"0.0-4.167-1.167","909j6gs3deyavh4",700,"90.csv","","null","resources/maskTrios/L1BB.jpg","null","",NA,NA,NA,NA,""
"image-keyboard-response",515,332103,"0.0-4.167-2.167","909j6gs3deyavh4",700,"90.csv","","null","resources/images/fishbone.png","null","",NA,NA,NA,NA,""
"image-keyboard-response",516,332163,"0.0-4.168-0.168","909j6gs3deyavh4",700,"90.csv","","60","resources/trios/L1T2A3.jpg","39","restless",0.6,0.2,0.7,0.651745706922488,"true"
"image-keyboard-response",517,332571,"0.0-4.168-1.168","909j6gs3deyavh4",700,"90.csv","","null","resources/maskTrios/BBA3.jpg","null","",NA,NA,NA,NA,""
"image-keyboard-response",518,333775,"0.0-4.168-2.168","909j6gs3deyavh4",700,"90.csv","","null","resources/images/coin2.png","null","",NA,NA,NA,NA,""
"image-keyboard-response",519,333830,"0.0-4.169-0.169","909j6gs3deyavh4",700,"90.csv","","53.799999999813735","resources/trios/L1T2A3.jpg","39","restless",0.6,0.2,0.7,0.584533775130142,"true"
"image-keyboard-response",520,334235,"0.0-4.169-1.169","909j6gs3deyavh4",700,"90.csv","","null","resources/maskTrios/BBA3.jpg","null","",NA,NA,NA,NA,""
"image-keyboard-response",521,335437,"0.0-4.169-2.169","909j6gs3deyavh4",700,"90.csv","","null","resources/images/coin2.png","null","",NA,NA,NA,NA,""
"image-keyboard-response",522,335580,"0.0-4.170-0.170","909j6gs3deyavh4",700,"90.csv","","143.19999999925494","resources/trios/L1T2A3.jpg","37","restless",0.6,0.2,0.7,0.233347557429739,"true"
"image-keyboard-response",523,335993,"0.0-4.170-1.170","909j6gs3deyavh4",700,"90.csv","","null","resources/maskTrios/L1BB.jpg","null","",NA,NA,NA,NA,""
"image-keyboard-response",524,337206,"0.0-4.170-2.170","909j6gs3deyavh4",700,"90.csv","","null","resources/images/coin2.png","null","",NA,NA,NA,NA,""
"image-keyboard-response",525,337240,"0.0-4.171-0.171","909j6gs3deyavh4",700,"90.csv","","34.200000000186265","resources/trios/L1T2A3.jpg","39","restless",0.6,0.3,0.7,0.0469517010580947,"true"
"image-keyboard-response",526,337641,"0.0-4.171-1.171","909j6gs3deyavh4",700,"90.csv","","null","resources/maskTrios/BBA3.jpg","null","",NA,NA,NA,NA,""
"image-keyboard-response",527,338856,"0.0-4.171-2.171","909j6gs3deyavh4",700,"90.csv","","null","resources/images/coin2.png","null","",NA,NA,NA,NA,""
"image-keyboard-response",528,338918,"0.0-4.172-0.172","909j6gs3deyavh4",700,"90.csv","","60.80000000074506","resources/trios/L1T2A3.jpg","37","restless",0.7,0.4,0.7,0.193454100731359,"true"
"image-keyboard-response",529,339322,"0.0-4.172-1.172","909j6gs3deyavh4",700,"90.csv","","null","resources/maskTrios/L1BB.jpg","null","",NA,NA,NA,NA,""
"image-keyboard-response",530,340528,"0.0-4.172-2.172","909j6gs3deyavh4",700,"90.csv","","null","resources/images/coin2.png","null","",NA,NA,NA,NA,""
"image-keyboard-response",531,340530,"0.0-4.173-0.173","909j6gs3deyavh4",700,"90.csv","","0.7000000001862645","resources/trios/L1T2A3.jpg","37","restless",0.7,0.4,0.7,0.809858648141445,"false"
"image-keyboard-response",532,340945,"0.0-4.173-1.173","909j6gs3deyavh4",700,"90.csv","","null","resources/maskTrios/L1BB.jpg","null","",NA,NA,NA,NA,""
"image-keyboard-response",533,342156,"0.0-4.173-2.173","909j6gs3deyavh4",700,"90.csv","","null","resources/images/fishbone.png","null","",NA,NA,NA,NA,""
"image-keyboard-response",534,342306,"0.0-4.174-0.174","909j6gs3deyavh4",700,"90.csv","","148.70000000018626","resources/trios/L1T2A3.jpg","38","restless",0.7,0.4,0.7,0.0841777436841593,"true"
"image-keyboard-response",535,342722,"0.0-4.174-1.174","909j6gs3deyavh4",700,"90.csv","","null","resources/maskTrios/BT2B.jpg","null","",NA,NA,NA,NA,""
"image-keyboard-response",536,343936,"0.0-4.174-2.174","909j6gs3deyavh4",700,"90.csv","","null","resources/images/coin2.png","null","",NA,NA,NA,NA,""
"image-keyboard-response",537,343958,"0.0-4.175-0.175","909j6gs3deyavh4",700,"90.csv","","21.5","resources/trios/L1T2A3.jpg","38","restless",0.7,0.4,0.7,0.343812245485356,"true"
"image-keyboard-response",538,344370,"0.0-4.175-1.175","909j6gs3deyavh4",700,"90.csv","","null","resources/maskTrios/BT2B.jpg","null","",NA,NA,NA,NA,""
"image-keyboard-response",539,345582,"0.0-4.175-2.175","909j6gs3deyavh4",700,"90.csv","","null","resources/images/coin2.png","null","",NA,NA,NA,NA,""
"image-keyboard-response",540,345772,"0.0-4.176-0.176","909j6gs3deyavh4",700,"90.csv","","190","resources/trios/L1T2A3.jpg","38","restless",0.7,0.4,0.7,0.640419589375171,"false"
"image-keyboard-response",541,346183,"0.0-4.176-1.176","909j6gs3deyavh4",700,"90.csv","","null","resources/maskTrios/BT2B.jpg","null","",NA,NA,NA,NA,""
"image-keyboard-response",542,347390,"0.0-4.176-2.176","909j6gs3deyavh4",700,"90.csv","","null","resources/images/fishbone.png","null","",NA,NA,NA,NA,""
"image-keyboard-response",543,347526,"0.0-4.177-0.177","909j6gs3deyavh4",700,"90.csv","","135.79999999981374","resources/trios/L1T2A3.jpg","38","restless",0.7,0.4,0.7,0.469316066355504,"false"
"image-keyboard-response",544,347940,"0.0-4.177-1.177","909j6gs3deyavh4",700,"90.csv","","null","resources/maskTrios/BT2B.jpg","null","",NA,NA,NA,NA,""
"image-keyboard-response",545,349141,"0.0-4.177-2.177","909j6gs3deyavh4",700,"90.csv","","null","resources/images/fishbone.png","null","",NA,NA,NA,NA,""
"image-keyboard-response",546,349302,"0.0-4.178-0.178","909j6gs3deyavh4",700,"90.csv","","160.09999999962747","resources/trios/L1T2A3.jpg","37","restless",0.7,0.4,0.7,0.386106283955794,"true"
"image-keyboard-response",547,349713,"0.0-4.178-1.178","909j6gs3deyavh4",700,"90.csv","","null","resources/maskTrios/L1BB.jpg","null","",NA,NA,NA,NA,""
"image-keyboard-response",548,350922,"0.0-4.178-2.178","909j6gs3deyavh4",700,"90.csv","","null","resources/images/coin2.png","null","",NA,NA,NA,NA,""
"image-keyboard-response",549,351438,"0.0-4.179-0.179","909j6gs3deyavh4",700,"90.csv","","515.2000000001863","resources/trios/L1T2A3.jpg","37","restless",0.7,0.4,0.7,0.636396061174592,"true"
"image-keyboard-response",550,351842,"0.0-4.179-1.179","909j6gs3deyavh4",700,"90.csv","","null","resources/maskTrios/L1BB.jpg","null","",NA,NA,NA,NA,""
"image-keyboard-response",551,353051,"0.0-4.179-2.179","909j6gs3deyavh4",700,"90.csv","","null","resources/images/coin2.png","null","",NA,NA,NA,NA,""
"image-keyboard-response",552,353203,"0.0-4.180-0.180","909j6gs3deyavh4",700,"90.csv","","151.70000000018626","resources/trios/L1T2A3.jpg","39","restless",0.6,0.4,0.8,0.337420135410122,"true"
"image-keyboard-response",553,353617,"0.0-4.180-1.180","909j6gs3deyavh4",700,"90.csv","","null","resources/maskTrios/BBA3.jpg","null","",NA,NA,NA,NA,""
"image-keyboard-response",554,354826,"0.0-4.180-2.180","909j6gs3deyavh4",700,"90.csv","","null","resources/images/coin2.png","null","",NA,NA,NA,NA,""
"image-keyboard-response",555,354863,"0.0-4.181-0.181","909j6gs3deyavh4",700,"90.csv","","36.5","resources/trios/L1T2A3.jpg","37","restless",0.6,0.4,0.8,0.543277884989997,"true"
"image-keyboard-response",556,355270,"0.0-4.181-1.181","909j6gs3deyavh4",700,"90.csv","","null","resources/maskTrios/L1BB.jpg","null","",NA,NA,NA,NA,""
"image-keyboard-response",557,356484,"0.0-4.181-2.181","909j6gs3deyavh4",700,"90.csv","","null","resources/images/coin2.png","null","",NA,NA,NA,NA,""
"image-keyboard-response",558,356608,"0.0-4.182-0.182","909j6gs3deyavh4",700,"90.csv","","123.70000000018626","resources/trios/L1T2A3.jpg","37","restless",0.6,0.4,0.8,0.436100508015787,"true"
"image-keyboard-response",559,357023,"0.0-4.182-1.182","909j6gs3deyavh4",700,"90.csv","","null","resources/maskTrios/L1BB.jpg","null","",NA,NA,NA,NA,""
"image-keyboard-response",560,358228,"0.0-4.182-2.182","909j6gs3deyavh4",700,"90.csv","","null","resources/images/coin2.png","null","",NA,NA,NA,NA,""
"image-keyboard-response",561,358283,"0.0-4.183-0.183","909j6gs3deyavh4",700,"90.csv","","54","resources/trios/L1T2A3.jpg","37","restless",0.6,0.4,0.8,0.89810426337396,"false"
"image-keyboard-response",562,358684,"0.0-4.183-1.183","909j6gs3deyavh4",700,"90.csv","","null","resources/maskTrios/L1BB.jpg","null","",NA,NA,NA,NA,""
"image-keyboard-response",563,359899,"0.0-4.183-2.183","909j6gs3deyavh4",700,"90.csv","","null","resources/images/fishbone.png","null","",NA,NA,NA,NA,""
"image-keyboard-response",564,360022,"0.0-4.184-0.184","909j6gs3deyavh4",700,"90.csv","","122.40000000037253","resources/trios/L1T2A3.jpg","38","restless",0.6,0.4,0.8,0.790186001313514,"false"
"image-keyboard-response",565,360425,"0.0-4.184-1.184","909j6gs3deyavh4",700,"90.csv","","null","resources/maskTrios/BT2B.jpg","null","",NA,NA,NA,NA,""
"image-keyboard-response",566,361634,"0.0-4.184-2.184","909j6gs3deyavh4",700,"90.csv","","null","resources/images/fishbone.png","null","",NA,NA,NA,NA,""
"image-keyboard-response",567,361791,"0.0-4.185-0.185","909j6gs3deyavh4",700,"90.csv","","156.6000000005588","resources/trios/L1T2A3.jpg","37","restless",0.6,0.5,0.8,0.253125411682941,"true"
"image-keyboard-response",568,362205,"0.0-4.185-1.185","909j6gs3deyavh4",700,"90.csv","","null","resources/maskTrios/L1BB.jpg","null","",NA,NA,NA,NA,""
"image-keyboard-response",569,363421,"0.0-4.185-2.185","909j6gs3deyavh4",700,"90.csv","","null","resources/images/coin2.png","null","",NA,NA,NA,NA,""
"image-keyboard-response",570,363603,"0.0-4.186-0.186","909j6gs3deyavh4",700,"90.csv","","181.79999999981374","resources/trios/L1T2A3.jpg","37","restless",0.6,0.5,0.8,0.580219345789265,"true"
"image-keyboard-response",571,364006,"0.0-4.186-1.186","909j6gs3deyavh4",700,"90.csv","","null","resources/maskTrios/L1BB.jpg","null","",NA,NA,NA,NA,""
"image-keyboard-response",572,365208,"0.0-4.186-2.186","909j6gs3deyavh4",700,"90.csv","","null","resources/images/coin2.png","null","",NA,NA,NA,NA,""
"image-keyboard-response",573,365259,"0.0-4.187-0.187","909j6gs3deyavh4",700,"90.csv","","49.700000000186265","resources/trios/L1T2A3.jpg","37","restless",0.6,0.5,0.8,0.415691183529958,"true"
"image-keyboard-response",574,365665,"0.0-4.187-1.187","909j6gs3deyavh4",700,"90.csv","","null","resources/maskTrios/L1BB.jpg","null","",NA,NA,NA,NA,""
"image-keyboard-response",575,366875,"0.0-4.187-2.187","909j6gs3deyavh4",700,"90.csv","","null","resources/images/coin2.png","null","",NA,NA,NA,NA,""
"image-keyboard-response",576,366994,"0.0-4.188-0.188","909j6gs3deyavh4",700,"90.csv","","118.5","resources/trios/L1T2A3.jpg","37","restless",0.6,0.5,0.8,0.602458942254162,"false"
"image-keyboard-response",577,367397,"0.0-4.188-1.188","909j6gs3deyavh4",700,"90.csv","","null","resources/maskTrios/L1BB.jpg","null","",NA,NA,NA,NA,""
"image-keyboard-response",578,368599,"0.0-4.188-2.188","909j6gs3deyavh4",700,"90.csv","","null","resources/images/fishbone.png","null","",NA,NA,NA,NA,""
"image-keyboard-response",579,368776,"0.0-4.189-0.189","909j6gs3deyavh4",700,"90.csv","","176.5","resources/trios/L1T2A3.jpg","37","restless",0.6,0.5,0.8,0.18354182510378,"true"
"image-keyboard-response",580,369180,"0.0-4.189-1.189","909j6gs3deyavh4",700,"90.csv","","null","resources/maskTrios/L1BB.jpg","null","",NA,NA,NA,NA,""
"image-keyboard-response",581,370385,"0.0-4.189-2.189","909j6gs3deyavh4",700,"90.csv","","null","resources/images/coin2.png","null","",NA,NA,NA,NA,""
"image-keyboard-response",582,370560,"0.0-4.190-0.190","909j6gs3deyavh4",700,"90.csv","","174.40000000037253","resources/trios/L1T2A3.jpg","37","restless",0.6,0.5,0.8,0.936920999249807,"false"
"image-keyboard-response",583,370974,"0.0-4.190-1.190","909j6gs3deyavh4",700,"90.csv","","null","resources/maskTrios/L1BB.jpg","null","",NA,NA,NA,NA,""
"image-keyboard-response",584,372179,"0.0-4.190-2.190","909j6gs3deyavh4",700,"90.csv","","null","resources/images/fishbone.png","null","",NA,NA,NA,NA,""
"image-keyboard-response",585,372307,"0.0-4.191-0.191","909j6gs3deyavh4",700,"90.csv","","127.09999999962747","resources/trios/L1T2A3.jpg","37","restless",0.6,0.5,0.8,0.276219145000915,"true"
"image-keyboard-response",586,372708,"0.0-4.191-1.191","909j6gs3deyavh4",700,"90.csv","","null","resources/maskTrios/L1BB.jpg","null","",NA,NA,NA,NA,""
"image-keyboard-response",587,373911,"0.0-4.191-2.191","909j6gs3deyavh4",700,"90.csv","","null","resources/images/coin2.png","null","",NA,NA,NA,NA,""
"image-keyboard-response",588,374006,"0.0-4.192-0.192","909j6gs3deyavh4",700,"90.csv","","93.8999999994412","resources/trios/L1T2A3.jpg","37","restless",0.6,0.5,0.8,0.398803275615919,"true"
"image-keyboard-response",589,374407,"0.0-4.192-1.192","909j6gs3deyavh4",700,"90.csv","","null","resources/maskTrios/L1BB.jpg","null","",NA,NA,NA,NA,""
"image-keyboard-response",590,375622,"0.0-4.192-2.192","909j6gs3deyavh4",700,"90.csv","","null","resources/images/coin2.png","null","",NA,NA,NA,NA,""
"image-keyboard-response",591,375665,"0.0-4.193-0.193","909j6gs3deyavh4",700,"90.csv","","42.799999999813735","resources/trios/L1T2A3.jpg","37","restless",0.6,0.5,0.8,0.114882608827437,"true"
"image-keyboard-response",592,376076,"0.0-4.193-1.193","909j6gs3deyavh4",700,"90.csv","","null","resources/maskTrios/L1BB.jpg","null","",NA,NA,NA,NA,""
"image-keyboard-response",593,377287,"0.0-4.193-2.193","909j6gs3deyavh4",700,"90.csv","","null","resources/images/coin2.png","null","",NA,NA,NA,NA,""
"image-keyboard-response",594,377353,"0.0-4.194-0.194","909j6gs3deyavh4",700,"90.csv","","65.79999999981374","resources/trios/L1T2A3.jpg","37","restless",0.6,0.5,0.8,0.855710817923812,"false"
"image-keyboard-response",595,377770,"0.0-4.194-1.194","909j6gs3deyavh4",700,"90.csv","","null","resources/maskTrios/L1BB.jpg","null","",NA,NA,NA,NA,""
"image-keyboard-response",596,378973,"0.0-4.194-2.194","909j6gs3deyavh4",700,"90.csv","","null","resources/images/fishbone.png","null","",NA,NA,NA,NA,""
"image-keyboard-response",597,379110,"0.0-4.195-0.195","909j6gs3deyavh4",700,"90.csv","","136.30000000074506","resources/trios/L1T2A3.jpg","37","restless",0.6,0.5,0.8,0.423495706351356,"true"
"image-keyboard-response",598,379518,"0.0-4.195-1.195","909j6gs3deyavh4",700,"90.csv","","null","resources/maskTrios/L1BB.jpg","null","",NA,NA,NA,NA,""
"image-keyboard-response",599,380730,"0.0-4.195-2.195","909j6gs3deyavh4",700,"90.csv","","null","resources/images/coin2.png","null","",NA,NA,NA,NA,""
"image-keyboard-response",600,380772,"0.0-4.196-0.196","909j6gs3deyavh4",700,"90.csv","","40.700000000186265","resources/trios/L1T2A3.jpg","37","restless",0.6,0.5,0.8,0.964929304496724,"false"
"image-keyboard-response",601,381180,"0.0-4.196-1.196","909j6gs3deyavh4",700,"90.csv","","null","resources/maskTrios/L1BB.jpg","null","",NA,NA,NA,NA,""
"image-keyboard-response",602,382385,"0.0-4.196-2.196","909j6gs3deyavh4",700,"90.csv","","null","resources/images/fishbone.png","null","",NA,NA,NA,NA,""
"image-keyboard-response",603,382563,"0.0-4.197-0.197","909j6gs3deyavh4",700,"90.csv","","177.90000000037253","resources/trios/L1T2A3.jpg","37","restless",0.6,0.6,0.8,0.880984386558284,"false"
"image-keyboard-response",604,382977,"0.0-4.197-1.197","909j6gs3deyavh4",700,"90.csv","","null","resources/maskTrios/L1BB.jpg","null","",NA,NA,NA,NA,""
"image-keyboard-response",605,384189,"0.0-4.197-2.197","909j6gs3deyavh4",700,"90.csv","","null","resources/images/fishbone.png","null","",NA,NA,NA,NA,""
"image-keyboard-response",606,384325,"0.0-4.198-0.198","909j6gs3deyavh4",700,"90.csv","","135.29999999981374","resources/trios/L1T2A3.jpg","37","restless",0.6,0.6,0.8,0.983725259759941,"false"
"image-keyboard-response",607,384729,"0.0-4.198-1.198","909j6gs3deyavh4",700,"90.csv","","null","resources/maskTrios/L1BB.jpg","null","",NA,NA,NA,NA,""
"image-keyboard-response",608,385938,"0.0-4.198-2.198","909j6gs3deyavh4",700,"90.csv","","null","resources/images/fishbone.png","null","",NA,NA,NA,NA,""
"image-keyboard-response",609,386303,"0.0-4.199-0.199","909j6gs3deyavh4",700,"90.csv","","364","resources/trios/L1T2A3.jpg","37","restless",0.5,0.6,0.8,0.57593823467822,"false"
"image-keyboard-response",610,386717,"0.0-4.199-1.199","909j6gs3deyavh4",700,"90.csv","","null","resources/maskTrios/L1BB.jpg","null","",NA,NA,NA,NA,""
"image-keyboard-response",611,387928,"0.0-4.199-2.199","909j6gs3deyavh4",700,"90.csv","","null","resources/images/fishbone.png","null","",NA,NA,NA,NA,""
"survey-text",612,450553,"0.0-5.0","909j6gs3deyavh4",700,"90.csv","","62623.90000000037","","","",NA,NA,NA,NA,""
