"trial_type","trial_index","time_elapsed","internal_node_id","subject","participantCode","walkNumber","success","rt","stimulus","key_press","test_part","leftProb","midProb","rightProb","generatedNum","correct"
"pavlovia",0,633,"0.0-0.0","t2vfwg53gjeslzh",380,"168.csv","","","","","",NA,NA,NA,NA,""
"fullscreen",1,3236,"0.0-1.0","t2vfwg53gjeslzh",380,"168.csv","true","","","","",NA,NA,NA,NA,""
"survey-html-form",2,18298,"0.0-2.0","t2vfwg53gjeslzh",380,"168.csv","","15060.799999952316","","","",NA,NA,NA,NA,""
"image-keyboard-response",3,24962,"0.0-3.0-0.0","t2vfwg53gjeslzh",380,"168.csv","","6663.700000047684","resources/images/parrot_nobg.png","13","",NA,NA,NA,NA,""
"image-keyboard-response",4,27964,"0.0-3.0-1.0","t2vfwg53gjeslzh",380,"168.csv","","null","resources/image_sets/111.png","null","",NA,NA,NA,NA,""
"image-keyboard-response",5,29908,"0.0-3.0-2.0","t2vfwg53gjeslzh",380,"168.csv","","1943.3999998569489","resources/image_sets/left_highlight.png","37","",NA,NA,NA,NA,""
"image-keyboard-response",6,31948,"0.0-3.0-3.0","t2vfwg53gjeslzh",380,"168.csv","","2039","resources/image_sets/mid_highlight.png","38","",NA,NA,NA,NA,""
"image-keyboard-response",7,32902,"0.0-3.0-4.0","t2vfwg53gjeslzh",380,"168.csv","","953.7000000476837","resources/image_sets/right_highlight.png","39","",NA,NA,NA,NA,""
"image-keyboard-response",8,34268,"0.0-3.0-5.0","t2vfwg53gjeslzh",380,"168.csv","","1364.7000000476837","resources/image_sets/111.png","13","",NA,NA,NA,NA,""
"image-keyboard-response",9,35576,"0.0-3.0-6.0","t2vfwg53gjeslzh",380,"168.csv","","1308","resources/images/coin2.png","13","",NA,NA,NA,NA,""
"image-keyboard-response",10,36526,"0.0-3.0-7.0","t2vfwg53gjeslzh",380,"168.csv","","949.4000000953674","resources/images/fishbone.png","13","",NA,NA,NA,NA,""
"html-keyboard-response",11,39373,"0.0-3.0-8.0","t2vfwg53gjeslzh",380,"168.csv","","2846.399999856949","<p>You can track your coin total on the top right of your screen. </p><p>At the end of your journey you will be directed to a survey, so please click on the link before exiting the task</p><p>Press Enter to begin</p>","13","",NA,NA,NA,NA,""
"image-keyboard-response",12,40474,"0.0-4.0-0.0","t2vfwg53gjeslzh",380,"168.csv","","1100.2000000476837","resources/trios/L1T4A2.jpg","38","restless",0.7,0.9,0.3,0.901726592958401,"false"
"image-keyboard-response",13,40888,"0.0-4.0-1.0","t2vfwg53gjeslzh",380,"168.csv","","null","resources/maskTrios/BT4B.jpg","null","",NA,NA,NA,NA,""
"image-keyboard-response",14,42093,"0.0-4.0-2.0","t2vfwg53gjeslzh",380,"168.csv","","null","resources/images/fishbone.png","null","",NA,NA,NA,NA,""
"image-keyboard-response",15,42704,"0.0-4.1-0.1","t2vfwg53gjeslzh",380,"168.csv","","609.4000000953674","resources/trios/L1T4A2.jpg","37","restless",0.7,0.9,0.3,0.784012174002316,"false"
"image-keyboard-response",16,43116,"0.0-4.1-1.1","t2vfwg53gjeslzh",380,"168.csv","","null","resources/maskTrios/L1BB.jpg","null","",NA,NA,NA,NA,""
"image-keyboard-response",17,44321,"0.0-4.1-2.1","t2vfwg53gjeslzh",380,"168.csv","","null","resources/images/fishbone.png","null","",NA,NA,NA,NA,""
"image-keyboard-response",18,44578,"0.0-4.2-0.2","t2vfwg53gjeslzh",380,"168.csv","","256.2999999523163","resources/trios/L1T4A2.jpg","37","restless",0.7,0.9,0.3,0.391300709010577,"true"
"image-keyboard-response",19,44988,"0.0-4.2-1.2","t2vfwg53gjeslzh",380,"168.csv","","null","resources/maskTrios/L1BB.jpg","null","",NA,NA,NA,NA,""
"image-keyboard-response",20,46194,"0.0-4.2-2.2","t2vfwg53gjeslzh",380,"168.csv","","null","resources/images/coin2.png","null","",NA,NA,NA,NA,""
"image-keyboard-response",21,46741,"0.0-4.3-0.3","t2vfwg53gjeslzh",380,"168.csv","","546.7000000476837","resources/trios/L1T4A2.jpg","37","restless",0.7,0.9,0.3,0.491353473972653,"true"
"image-keyboard-response",22,47150,"0.0-4.3-1.3","t2vfwg53gjeslzh",380,"168.csv","","null","resources/maskTrios/L1BB.jpg","null","",NA,NA,NA,NA,""
"image-keyboard-response",23,48354,"0.0-4.3-2.3","t2vfwg53gjeslzh",380,"168.csv","","null","resources/images/coin2.png","null","",NA,NA,NA,NA,""
"image-keyboard-response",24,48608,"0.0-4.4-0.4","t2vfwg53gjeslzh",380,"168.csv","","253.29999995231628","resources/trios/L1T4A2.jpg","39","restless",0.7,0.9,0.3,0.2864523691733,"true"
"image-keyboard-response",25,49023,"0.0-4.4-1.4","t2vfwg53gjeslzh",380,"168.csv","","null","resources/maskTrios/BBA2.jpg","null","",NA,NA,NA,NA,""
"image-keyboard-response",26,50239,"0.0-4.4-2.4","t2vfwg53gjeslzh",380,"168.csv","","null","resources/images/coin2.png","null","",NA,NA,NA,NA,""
"image-keyboard-response",27,50398,"0.0-4.5-0.5","t2vfwg53gjeslzh",380,"168.csv","","157.80000019073486","resources/trios/L1T4A2.jpg","38","restless",0.7,0.9,0.2,0.190057118219461,"true"
"image-keyboard-response",28,50803,"0.0-4.5-1.5","t2vfwg53gjeslzh",380,"168.csv","","null","resources/maskTrios/BT4B.jpg","null","",NA,NA,NA,NA,""
"image-keyboard-response",29,52005,"0.0-4.5-2.5","t2vfwg53gjeslzh",380,"168.csv","","null","resources/images/coin2.png","null","",NA,NA,NA,NA,""
"image-keyboard-response",30,52369,"0.0-4.6-0.6","t2vfwg53gjeslzh",380,"168.csv","","363.2999999523163","resources/trios/L1T4A2.jpg","39","restless",0.7,0.9,0.1,0.575614380794785,"false"
"image-keyboard-response",31,52784,"0.0-4.6-1.6","t2vfwg53gjeslzh",380,"168.csv","","null","resources/maskTrios/BBA2.jpg","null","",NA,NA,NA,NA,""
"image-keyboard-response",32,53988,"0.0-4.6-2.6","t2vfwg53gjeslzh",380,"168.csv","","null","resources/images/fishbone.png","null","",NA,NA,NA,NA,""
"image-keyboard-response",33,54218,"0.0-4.7-0.7","t2vfwg53gjeslzh",380,"168.csv","","228.79999995231628","resources/trios/L1T4A2.jpg","37","restless",0.6,0.9,0.2,0.634977368790895,"false"
"image-keyboard-response",34,54629,"0.0-4.7-1.7","t2vfwg53gjeslzh",380,"168.csv","","null","resources/maskTrios/L1BB.jpg","null","",NA,NA,NA,NA,""
"image-keyboard-response",35,55836,"0.0-4.7-2.7","t2vfwg53gjeslzh",380,"168.csv","","null","resources/images/fishbone.png","null","",NA,NA,NA,NA,""
"image-keyboard-response",36,56063,"0.0-4.8-0.8","t2vfwg53gjeslzh",380,"168.csv","","225.79999995231628","resources/trios/L1T4A2.jpg","37","restless",0.6,0.9,0.2,0.951124357031388,"false"
"image-keyboard-response",37,56475,"0.0-4.8-1.8","t2vfwg53gjeslzh",380,"168.csv","","null","resources/maskTrios/L1BB.jpg","null","",NA,NA,NA,NA,""
"image-keyboard-response",38,57689,"0.0-4.8-2.8","t2vfwg53gjeslzh",380,"168.csv","","null","resources/images/fishbone.png","null","",NA,NA,NA,NA,""
"image-keyboard-response",39,57950,"0.0-4.9-0.9","t2vfwg53gjeslzh",380,"168.csv","","260.69999980926514","resources/trios/L1T4A2.jpg","38","restless",0.5,0.9,0.3,0.53439642303391,"true"
"image-keyboard-response",40,58362,"0.0-4.9-1.9","t2vfwg53gjeslzh",380,"168.csv","","null","resources/maskTrios/BT4B.jpg","null","",NA,NA,NA,NA,""
"image-keyboard-response",41,59564,"0.0-4.9-2.9","t2vfwg53gjeslzh",380,"168.csv","","null","resources/images/coin2.png","null","",NA,NA,NA,NA,""
"image-keyboard-response",42,59911,"0.0-4.10-0.10","t2vfwg53gjeslzh",380,"168.csv","","345.59999990463257","resources/trios/L1T4A2.jpg","38","restless",0.5,0.9,0.3,0.079150050329315,"true"
"image-keyboard-response",43,60317,"0.0-4.10-1.10","t2vfwg53gjeslzh",380,"168.csv","","null","resources/maskTrios/BT4B.jpg","null","",NA,NA,NA,NA,""
"image-keyboard-response",44,61529,"0.0-4.10-2.10","t2vfwg53gjeslzh",380,"168.csv","","null","resources/images/coin2.png","null","",NA,NA,NA,NA,""
"image-keyboard-response",45,62063,"0.0-4.11-0.11","t2vfwg53gjeslzh",380,"168.csv","","532.4000000953674","resources/trios/L1T4A2.jpg","39","restless",0.5,0.9,0.3,0.67172637902815,"false"
"image-keyboard-response",46,62472,"0.0-4.11-1.11","t2vfwg53gjeslzh",380,"168.csv","","null","resources/maskTrios/BBA2.jpg","null","",NA,NA,NA,NA,""
"image-keyboard-response",47,63680,"0.0-4.11-2.11","t2vfwg53gjeslzh",380,"168.csv","","null","resources/images/fishbone.png","null","",NA,NA,NA,NA,""
"image-keyboard-response",48,64000,"0.0-4.12-0.12","t2vfwg53gjeslzh",380,"168.csv","","319.09999990463257","resources/trios/L1T4A2.jpg","38","restless",0.5,0.9,0.3,0.124730694480361,"true"
"image-keyboard-response",49,64413,"0.0-4.12-1.12","t2vfwg53gjeslzh",380,"168.csv","","null","resources/maskTrios/BT4B.jpg","null","",NA,NA,NA,NA,""
"image-keyboard-response",50,65616,"0.0-4.12-2.12","t2vfwg53gjeslzh",380,"168.csv","","null","resources/images/coin2.png","null","",NA,NA,NA,NA,""
"image-keyboard-response",51,66117,"0.0-4.13-0.13","t2vfwg53gjeslzh",380,"168.csv","","499.89999985694885","resources/trios/L1T4A2.jpg","38","restless",0.6,0.9,0.3,0.274391774543933,"true"
"image-keyboard-response",52,66525,"0.0-4.13-1.13","t2vfwg53gjeslzh",380,"168.csv","","null","resources/maskTrios/BT4B.jpg","null","",NA,NA,NA,NA,""
"image-keyboard-response",53,67730,"0.0-4.13-2.13","t2vfwg53gjeslzh",380,"168.csv","","null","resources/images/coin2.png","null","",NA,NA,NA,NA,""
"image-keyboard-response",54,68022,"0.0-4.14-0.14","t2vfwg53gjeslzh",380,"168.csv","","290.5","resources/trios/L1T4A2.jpg","38","restless",0.6,0.8,0.3,0.241105280579146,"true"
"image-keyboard-response",55,68430,"0.0-4.14-1.14","t2vfwg53gjeslzh",380,"168.csv","","null","resources/maskTrios/BT4B.jpg","null","",NA,NA,NA,NA,""
"image-keyboard-response",56,69633,"0.0-4.14-2.14","t2vfwg53gjeslzh",380,"168.csv","","null","resources/images/coin2.png","null","",NA,NA,NA,NA,""
"image-keyboard-response",57,70073,"0.0-4.15-0.15","t2vfwg53gjeslzh",380,"168.csv","","439.2999999523163","resources/trios/L1T4A2.jpg","38","restless",0.6,0.8,0.3,0.290339432782313,"true"
"image-keyboard-response",58,70477,"0.0-4.15-1.15","t2vfwg53gjeslzh",380,"168.csv","","null","resources/maskTrios/BT4B.jpg","null","",NA,NA,NA,NA,""
"image-keyboard-response",59,71684,"0.0-4.15-2.15","t2vfwg53gjeslzh",380,"168.csv","","null","resources/images/coin2.png","null","",NA,NA,NA,NA,""
"image-keyboard-response",60,71957,"0.0-4.16-0.16","t2vfwg53gjeslzh",380,"168.csv","","272.2000000476837","resources/trios/L1T4A2.jpg","38","restless",0.6,0.8,0.3,0.00976697750631361,"true"
"image-keyboard-response",61,72372,"0.0-4.16-1.16","t2vfwg53gjeslzh",380,"168.csv","","null","resources/maskTrios/BT4B.jpg","null","",NA,NA,NA,NA,""
"image-keyboard-response",62,73575,"0.0-4.16-2.16","t2vfwg53gjeslzh",380,"168.csv","","null","resources/images/coin2.png","null","",NA,NA,NA,NA,""
"image-keyboard-response",63,73802,"0.0-4.17-0.17","t2vfwg53gjeslzh",380,"168.csv","","225.79999995231628","resources/trios/L1T4A2.jpg","38","restless",0.6,0.8,0.3,0.145343785083943,"true"
"image-keyboard-response",64,74212,"0.0-4.17-1.17","t2vfwg53gjeslzh",380,"168.csv","","null","resources/maskTrios/BT4B.jpg","null","",NA,NA,NA,NA,""
"image-keyboard-response",65,75426,"0.0-4.17-2.17","t2vfwg53gjeslzh",380,"168.csv","","null","resources/images/coin2.png","null","",NA,NA,NA,NA,""
"image-keyboard-response",66,75649,"0.0-4.18-0.18","t2vfwg53gjeslzh",380,"168.csv","","222","resources/trios/L1T4A2.jpg","38","restless",0.6,0.8,0.3,0.562184191891767,"true"
"image-keyboard-response",67,76051,"0.0-4.18-1.18","t2vfwg53gjeslzh",380,"168.csv","","null","resources/maskTrios/BT4B.jpg","null","",NA,NA,NA,NA,""
"image-keyboard-response",68,77254,"0.0-4.18-2.18","t2vfwg53gjeslzh",380,"168.csv","","null","resources/images/coin2.png","null","",NA,NA,NA,NA,""
"image-keyboard-response",69,77469,"0.0-4.19-0.19","t2vfwg53gjeslzh",380,"168.csv","","214.10000014305115","resources/trios/L1T4A2.jpg","38","restless",0.6,0.8,0.3,0.867780328725907,"false"
"image-keyboard-response",70,77877,"0.0-4.19-1.19","t2vfwg53gjeslzh",380,"168.csv","","null","resources/maskTrios/BT4B.jpg","null","",NA,NA,NA,NA,""
"image-keyboard-response",71,79080,"0.0-4.19-2.19","t2vfwg53gjeslzh",380,"168.csv","","null","resources/images/fishbone.png","null","",NA,NA,NA,NA,""
"image-keyboard-response",72,79223,"0.0-4.20-0.20","t2vfwg53gjeslzh",380,"168.csv","","141.20000004768372","resources/trios/L1T4A2.jpg","39","restless",0.6,0.7,0.3,0.561441410296668,"false"
"image-keyboard-response",73,79627,"0.0-4.20-1.20","t2vfwg53gjeslzh",380,"168.csv","","null","resources/maskTrios/BBA2.jpg","null","",NA,NA,NA,NA,""
"image-keyboard-response",74,80841,"0.0-4.20-2.20","t2vfwg53gjeslzh",380,"168.csv","","null","resources/images/fishbone.png","null","",NA,NA,NA,NA,""
"image-keyboard-response",75,81094,"0.0-4.21-0.21","t2vfwg53gjeslzh",380,"168.csv","","251.60000014305115","resources/trios/L1T4A2.jpg","39","restless",0.6,0.7,0.3,0.409077823320266,"false"
"image-keyboard-response",76,81498,"0.0-4.21-1.21","t2vfwg53gjeslzh",380,"168.csv","","null","resources/maskTrios/BBA2.jpg","null","",NA,NA,NA,NA,""
"image-keyboard-response",77,82702,"0.0-4.21-2.21","t2vfwg53gjeslzh",380,"168.csv","","null","resources/images/fishbone.png","null","",NA,NA,NA,NA,""
"image-keyboard-response",78,83073,"0.0-4.22-0.22","t2vfwg53gjeslzh",380,"168.csv","","370.59999990463257","resources/trios/L1T4A2.jpg","37","restless",0.6,0.7,0.3,0.22906129799528,"true"
"image-keyboard-response",79,83480,"0.0-4.22-1.22","t2vfwg53gjeslzh",380,"168.csv","","null","resources/maskTrios/L1BB.jpg","null","",NA,NA,NA,NA,""
"image-keyboard-response",80,84685,"0.0-4.22-2.22","t2vfwg53gjeslzh",380,"168.csv","","null","resources/images/coin2.png","null","",NA,NA,NA,NA,""
"image-keyboard-response",81,84933,"0.0-4.23-0.23","t2vfwg53gjeslzh",380,"168.csv","","247.70000004768372","resources/trios/L1T4A2.jpg","37","restless",0.6,0.7,0.4,0.37716584690766,"true"
"image-keyboard-response",82,85341,"0.0-4.23-1.23","t2vfwg53gjeslzh",380,"168.csv","","null","resources/maskTrios/L1BB.jpg","null","",NA,NA,NA,NA,""
"image-keyboard-response",83,86558,"0.0-4.23-2.23","t2vfwg53gjeslzh",380,"168.csv","","null","resources/images/coin2.png","null","",NA,NA,NA,NA,""
"image-keyboard-response",84,86762,"0.0-4.24-0.24","t2vfwg53gjeslzh",380,"168.csv","","202.79999995231628","resources/trios/L1T4A2.jpg","37","restless",0.6,0.7,0.4,0.162934684090066,"true"
"image-keyboard-response",85,87166,"0.0-4.24-1.24","t2vfwg53gjeslzh",380,"168.csv","","null","resources/maskTrios/L1BB.jpg","null","",NA,NA,NA,NA,""
"image-keyboard-response",86,88379,"0.0-4.24-2.24","t2vfwg53gjeslzh",380,"168.csv","","null","resources/images/coin2.png","null","",NA,NA,NA,NA,""
"image-keyboard-response",87,88595,"0.0-4.25-0.25","t2vfwg53gjeslzh",380,"168.csv","","215.29999995231628","resources/trios/L1T4A2.jpg","37","restless",0.6,0.6,0.4,0.498266280103166,"true"
"image-keyboard-response",88,89004,"0.0-4.25-1.25","t2vfwg53gjeslzh",380,"168.csv","","null","resources/maskTrios/L1BB.jpg","null","",NA,NA,NA,NA,""
"image-keyboard-response",89,90208,"0.0-4.25-2.25","t2vfwg53gjeslzh",380,"168.csv","","null","resources/images/coin2.png","null","",NA,NA,NA,NA,""
"image-keyboard-response",90,90343,"0.0-4.26-0.26","t2vfwg53gjeslzh",380,"168.csv","","133.79999995231628","resources/trios/L1T4A2.jpg","37","restless",0.7,0.6,0.4,0.309207470913978,"true"
"image-keyboard-response",91,90755,"0.0-4.26-1.26","t2vfwg53gjeslzh",380,"168.csv","","null","resources/maskTrios/L1BB.jpg","null","",NA,NA,NA,NA,""
"image-keyboard-response",92,91971,"0.0-4.26-2.26","t2vfwg53gjeslzh",380,"168.csv","","null","resources/images/coin2.png","null","",NA,NA,NA,NA,""
"image-keyboard-response",93,92022,"0.0-4.27-0.27","t2vfwg53gjeslzh",380,"168.csv","","50.19999980926514","resources/trios/L1T4A2.jpg","37","restless",0.7,0.6,0.4,0.675826380063197,"true"
"image-keyboard-response",94,92426,"0.0-4.27-1.27","t2vfwg53gjeslzh",380,"168.csv","","null","resources/maskTrios/L1BB.jpg","null","",NA,NA,NA,NA,""
"image-keyboard-response",95,93633,"0.0-4.27-2.27","t2vfwg53gjeslzh",380,"168.csv","","null","resources/images/coin2.png","null","",NA,NA,NA,NA,""
"image-keyboard-response",96,94212,"0.0-4.28-0.28","t2vfwg53gjeslzh",380,"168.csv","","578.2999999523163","resources/trios/L1T4A2.jpg","37","restless",0.7,0.6,0.4,0.212991396743149,"true"
"image-keyboard-response",97,94615,"0.0-4.28-1.28","t2vfwg53gjeslzh",380,"168.csv","","null","resources/maskTrios/L1BB.jpg","null","",NA,NA,NA,NA,""
"image-keyboard-response",98,95825,"0.0-4.28-2.28","t2vfwg53gjeslzh",380,"168.csv","","null","resources/images/coin2.png","null","",NA,NA,NA,NA,""
"image-keyboard-response",99,96000,"0.0-4.29-0.29","t2vfwg53gjeslzh",380,"168.csv","","174.70000004768372","resources/trios/L1T4A2.jpg","37","restless",0.7,0.5,0.5,0.894611113383368,"false"
"image-keyboard-response",100,96402,"0.0-4.29-1.29","t2vfwg53gjeslzh",380,"168.csv","","null","resources/maskTrios/L1BB.jpg","null","",NA,NA,NA,NA,""
"image-keyboard-response",101,97616,"0.0-4.29-2.29","t2vfwg53gjeslzh",380,"168.csv","","null","resources/images/fishbone.png","null","",NA,NA,NA,NA,""
"image-keyboard-response",102,97810,"0.0-4.30-0.30","t2vfwg53gjeslzh",380,"168.csv","","192.89999985694885","resources/trios/L1T4A2.jpg","39","restless",0.8,0.5,0.5,0.461197440287993,"true"
"image-keyboard-response",103,98224,"0.0-4.30-1.30","t2vfwg53gjeslzh",380,"168.csv","","null","resources/maskTrios/BBA2.jpg","null","",NA,NA,NA,NA,""
"image-keyboard-response",104,99431,"0.0-4.30-2.30","t2vfwg53gjeslzh",380,"168.csv","","null","resources/images/coin2.png","null","",NA,NA,NA,NA,""
"image-keyboard-response",105,99508,"0.0-4.31-0.31","t2vfwg53gjeslzh",380,"168.csv","","76","resources/trios/L1T4A2.jpg","39","restless",0.8,0.5,0.5,0.298276960495315,"true"
"image-keyboard-response",106,99913,"0.0-4.31-1.31","t2vfwg53gjeslzh",380,"168.csv","","null","resources/maskTrios/BBA2.jpg","null","",NA,NA,NA,NA,""
"image-keyboard-response",107,101117,"0.0-4.31-2.31","t2vfwg53gjeslzh",380,"168.csv","","null","resources/images/coin2.png","null","",NA,NA,NA,NA,""
"image-keyboard-response",108,101276,"0.0-4.32-0.32","t2vfwg53gjeslzh",380,"168.csv","","157.70000004768372","resources/trios/L1T4A2.jpg","39","restless",0.8,0.5,0.5,0.405839379820781,"true"
"image-keyboard-response",109,101690,"0.0-4.32-1.32","t2vfwg53gjeslzh",380,"168.csv","","null","resources/maskTrios/BBA2.jpg","null","",NA,NA,NA,NA,""
"image-keyboard-response",110,102900,"0.0-4.32-2.32","t2vfwg53gjeslzh",380,"168.csv","","null","resources/images/coin2.png","null","",NA,NA,NA,NA,""
"image-keyboard-response",111,103098,"0.0-4.33-0.33","t2vfwg53gjeslzh",380,"168.csv","","197.09999990463257","resources/trios/L1T4A2.jpg","39","restless",0.8,0.5,0.5,0.922911315309197,"false"
"image-keyboard-response",112,103511,"0.0-4.33-1.33","t2vfwg53gjeslzh",380,"168.csv","","null","resources/maskTrios/BBA2.jpg","null","",NA,NA,NA,NA,""
"image-keyboard-response",113,104714,"0.0-4.33-2.33","t2vfwg53gjeslzh",380,"168.csv","","null","resources/images/fishbone.png","null","",NA,NA,NA,NA,""
"image-keyboard-response",114,104964,"0.0-4.34-0.34","t2vfwg53gjeslzh",380,"168.csv","","249.10000014305115","resources/trios/L1T4A2.jpg","38","restless",0.8,0.5,0.5,0.451631955090414,"true"
"image-keyboard-response",115,105373,"0.0-4.34-1.34","t2vfwg53gjeslzh",380,"168.csv","","null","resources/maskTrios/BT4B.jpg","null","",NA,NA,NA,NA,""
"image-keyboard-response",116,106580,"0.0-4.34-2.34","t2vfwg53gjeslzh",380,"168.csv","","null","resources/images/coin2.png","null","",NA,NA,NA,NA,""
"image-keyboard-response",117,106926,"0.0-4.35-0.35","t2vfwg53gjeslzh",380,"168.csv","","344.59999990463257","resources/trios/L1T4A2.jpg","38","restless",0.9,0.5,0.5,0.327841733753029,"true"
"image-keyboard-response",118,107329,"0.0-4.35-1.35","t2vfwg53gjeslzh",380,"168.csv","","null","resources/maskTrios/BT4B.jpg","null","",NA,NA,NA,NA,""
"image-keyboard-response",119,108533,"0.0-4.35-2.35","t2vfwg53gjeslzh",380,"168.csv","","null","resources/images/coin2.png","null","",NA,NA,NA,NA,""
"image-keyboard-response",120,108755,"0.0-4.36-0.36","t2vfwg53gjeslzh",380,"168.csv","","220.5","resources/trios/L1T4A2.jpg","38","restless",0.9,0.5,0.5,0.170735389181658,"true"
"image-keyboard-response",121,109169,"0.0-4.36-1.36","t2vfwg53gjeslzh",380,"168.csv","","null","resources/maskTrios/BT4B.jpg","null","",NA,NA,NA,NA,""
"image-keyboard-response",122,110373,"0.0-4.36-2.36","t2vfwg53gjeslzh",380,"168.csv","","null","resources/images/coin2.png","null","",NA,NA,NA,NA,""
"image-keyboard-response",123,110439,"0.0-4.37-0.37","t2vfwg53gjeslzh",380,"168.csv","","64.89999985694885","resources/trios/L1T4A2.jpg","38","restless",0.9,0.5,0.5,0.319246824947475,"true"
"image-keyboard-response",124,110844,"0.0-4.37-1.37","t2vfwg53gjeslzh",380,"168.csv","","null","resources/maskTrios/BT4B.jpg","null","",NA,NA,NA,NA,""
"image-keyboard-response",125,112049,"0.0-4.37-2.37","t2vfwg53gjeslzh",380,"168.csv","","null","resources/images/coin2.png","null","",NA,NA,NA,NA,""
"image-keyboard-response",126,112458,"0.0-4.38-0.38","t2vfwg53gjeslzh",380,"168.csv","","407.39999985694885","resources/trios/L1T4A2.jpg","38","restless",0.9,0.5,0.5,0.384887774224296,"true"
"image-keyboard-response",127,112861,"0.0-4.38-1.38","t2vfwg53gjeslzh",380,"168.csv","","null","resources/maskTrios/BT4B.jpg","null","",NA,NA,NA,NA,""
"image-keyboard-response",128,114070,"0.0-4.38-2.38","t2vfwg53gjeslzh",380,"168.csv","","null","resources/images/coin2.png","null","",NA,NA,NA,NA,""
"image-keyboard-response",129,114234,"0.0-4.39-0.39","t2vfwg53gjeslzh",380,"168.csv","","163.79999995231628","resources/trios/L1T4A2.jpg","38","restless",0.9,0.4,0.5,0.663577705571811,"false"
"image-keyboard-response",130,114648,"0.0-4.39-1.39","t2vfwg53gjeslzh",380,"168.csv","","null","resources/maskTrios/BT4B.jpg","null","",NA,NA,NA,NA,""
"image-keyboard-response",131,115855,"0.0-4.39-2.39","t2vfwg53gjeslzh",380,"168.csv","","null","resources/images/fishbone.png","null","",NA,NA,NA,NA,""
"image-keyboard-response",132,115865,"0.0-4.40-0.40","t2vfwg53gjeslzh",380,"168.csv","","9.200000047683716","resources/trios/L1T4A2.jpg","37","restless",0.9,0.4,0.5,0.429684220243885,"true"
"image-keyboard-response",133,116274,"0.0-4.40-1.40","t2vfwg53gjeslzh",380,"168.csv","","null","resources/maskTrios/L1BB.jpg","null","",NA,NA,NA,NA,""
"image-keyboard-response",134,117481,"0.0-4.40-2.40","t2vfwg53gjeslzh",380,"168.csv","","null","resources/images/coin2.png","null","",NA,NA,NA,NA,""
"image-keyboard-response",135,117688,"0.0-4.41-0.41","t2vfwg53gjeslzh",380,"168.csv","","205.79999995231628","resources/trios/L1T4A2.jpg","37","restless",0.8,0.4,0.5,0.546238571647614,"true"
"image-keyboard-response",136,118091,"0.0-4.41-1.41","t2vfwg53gjeslzh",380,"168.csv","","null","resources/maskTrios/L1BB.jpg","null","",NA,NA,NA,NA,""
"image-keyboard-response",137,119306,"0.0-4.41-2.41","t2vfwg53gjeslzh",380,"168.csv","","null","resources/images/coin2.png","null","",NA,NA,NA,NA,""
"image-keyboard-response",138,119382,"0.0-4.42-0.42","t2vfwg53gjeslzh",380,"168.csv","","74.60000014305115","resources/trios/L1T4A2.jpg","37","restless",0.8,0.4,0.5,0.783258162163687,"true"
"image-keyboard-response",139,119791,"0.0-4.42-1.42","t2vfwg53gjeslzh",380,"168.csv","","null","resources/maskTrios/L1BB.jpg","null","",NA,NA,NA,NA,""
"image-keyboard-response",140,121005,"0.0-4.42-2.42","t2vfwg53gjeslzh",380,"168.csv","","null","resources/images/coin2.png","null","",NA,NA,NA,NA,""
"image-keyboard-response",141,121156,"0.0-4.43-0.43","t2vfwg53gjeslzh",380,"168.csv","","150.09999990463257","resources/trios/L1T4A2.jpg","37","restless",0.8,0.4,0.5,0.629196400843842,"true"
"image-keyboard-response",142,121564,"0.0-4.43-1.43","t2vfwg53gjeslzh",380,"168.csv","","null","resources/maskTrios/L1BB.jpg","null","",NA,NA,NA,NA,""
"image-keyboard-response",143,122769,"0.0-4.43-2.43","t2vfwg53gjeslzh",380,"168.csv","","null","resources/images/coin2.png","null","",NA,NA,NA,NA,""
"image-keyboard-response",144,122991,"0.0-4.44-0.44","t2vfwg53gjeslzh",380,"168.csv","","221.29999995231628","resources/trios/L1T4A2.jpg","37","restless",0.8,0.4,0.6,0.418160978917056,"true"
"image-keyboard-response",145,123395,"0.0-4.44-1.44","t2vfwg53gjeslzh",380,"168.csv","","null","resources/maskTrios/L1BB.jpg","null","",NA,NA,NA,NA,""
"image-keyboard-response",146,124597,"0.0-4.44-2.44","t2vfwg53gjeslzh",380,"168.csv","","null","resources/images/coin2.png","null","",NA,NA,NA,NA,""
"image-keyboard-response",147,124807,"0.0-4.45-0.45","t2vfwg53gjeslzh",380,"168.csv","","208.90000009536743","resources/trios/L1T4A2.jpg","37","restless",0.8,0.3,0.5,0.520077186396283,"true"
"image-keyboard-response",148,125223,"0.0-4.45-1.45","t2vfwg53gjeslzh",380,"168.csv","","null","resources/maskTrios/L1BB.jpg","null","",NA,NA,NA,NA,""
"image-keyboard-response",149,126440,"0.0-4.45-2.45","t2vfwg53gjeslzh",380,"168.csv","","null","resources/images/coin2.png","null","",NA,NA,NA,NA,""
"image-keyboard-response",150,126541,"0.0-4.46-0.46","t2vfwg53gjeslzh",380,"168.csv","","100.90000009536743","resources/trios/L1T4A2.jpg","37","restless",0.8,0.3,0.5,0.744259454876124,"true"
"image-keyboard-response",151,126955,"0.0-4.46-1.46","t2vfwg53gjeslzh",380,"168.csv","","null","resources/maskTrios/L1BB.jpg","null","",NA,NA,NA,NA,""
"image-keyboard-response",152,128158,"0.0-4.46-2.46","t2vfwg53gjeslzh",380,"168.csv","","null","resources/images/coin2.png","null","",NA,NA,NA,NA,""
"image-keyboard-response",153,128245,"0.0-4.47-0.47","t2vfwg53gjeslzh",380,"168.csv","","85.60000014305115","resources/trios/L1T4A2.jpg","37","restless",0.8,0.3,0.5,0.997387103141317,"false"
"image-keyboard-response",154,128656,"0.0-4.47-1.47","t2vfwg53gjeslzh",380,"168.csv","","null","resources/maskTrios/L1BB.jpg","null","",NA,NA,NA,NA,""
"image-keyboard-response",155,129859,"0.0-4.47-2.47","t2vfwg53gjeslzh",380,"168.csv","","null","resources/images/fishbone.png","null","",NA,NA,NA,NA,""
"image-keyboard-response",156,130112,"0.0-4.48-0.48","t2vfwg53gjeslzh",380,"168.csv","","251.19999980926514","resources/trios/L1T4A2.jpg","38","restless",0.8,0.3,0.5,0.0933374532776847,"true"
"image-keyboard-response",157,130529,"0.0-4.48-1.48","t2vfwg53gjeslzh",380,"168.csv","","null","resources/maskTrios/BT4B.jpg","null","",NA,NA,NA,NA,""
"image-keyboard-response",158,131733,"0.0-4.48-2.48","t2vfwg53gjeslzh",380,"168.csv","","null","resources/images/coin2.png","null","",NA,NA,NA,NA,""
"image-keyboard-response",159,131769,"0.0-4.49-0.49","t2vfwg53gjeslzh",380,"168.csv","","35","resources/trios/L1T4A2.jpg","38","restless",0.8,0.2,0.5,0.563327566573378,"false"
"image-keyboard-response",160,132174,"0.0-4.49-1.49","t2vfwg53gjeslzh",380,"168.csv","","null","resources/maskTrios/BT4B.jpg","null","",NA,NA,NA,NA,""
"image-keyboard-response",161,133382,"0.0-4.49-2.49","t2vfwg53gjeslzh",380,"168.csv","","null","resources/images/fishbone.png","null","",NA,NA,NA,NA,""
"image-keyboard-response",162,133395,"0.0-4.50-0.50","t2vfwg53gjeslzh",380,"168.csv","","12.099999904632568","resources/trios/L1T4A2.jpg","39","restless",0.8,0.2,0.5,0.320951036445932,"true"
"image-keyboard-response",163,133806,"0.0-4.50-1.50","t2vfwg53gjeslzh",380,"168.csv","","null","resources/maskTrios/BBA2.jpg","null","",NA,NA,NA,NA,""
"image-keyboard-response",164,135020,"0.0-4.50-2.50","t2vfwg53gjeslzh",380,"168.csv","","null","resources/images/coin2.png","null","",NA,NA,NA,NA,""
"image-keyboard-response",165,135048,"0.0-4.51-0.51","t2vfwg53gjeslzh",380,"168.csv","","27","resources/trios/L1T4A2.jpg","39","restless",0.8,0.2,0.5,0.0233842622500411,"true"
"image-keyboard-response",166,135456,"0.0-4.51-1.51","t2vfwg53gjeslzh",380,"168.csv","","null","resources/maskTrios/BBA2.jpg","null","",NA,NA,NA,NA,""
"image-keyboard-response",167,136664,"0.0-4.51-2.51","t2vfwg53gjeslzh",380,"168.csv","","null","resources/images/coin2.png","null","",NA,NA,NA,NA,""
"image-keyboard-response",168,136857,"0.0-4.52-0.52","t2vfwg53gjeslzh",380,"168.csv","","192.09999990463257","resources/trios/L1T4A2.jpg","39","restless",0.7,0.2,0.6,0.0612165045206359,"true"
"image-keyboard-response",169,137261,"0.0-4.52-1.52","t2vfwg53gjeslzh",380,"168.csv","","null","resources/maskTrios/BBA2.jpg","null","",NA,NA,NA,NA,""
"image-keyboard-response",170,138478,"0.0-4.52-2.52","t2vfwg53gjeslzh",380,"168.csv","","null","resources/images/coin2.png","null","",NA,NA,NA,NA,""
"image-keyboard-response",171,138517,"0.0-4.53-0.53","t2vfwg53gjeslzh",380,"168.csv","","37.60000014305115","resources/trios/L1T4A2.jpg","39","restless",0.7,0.2,0.6,0.928463009755437,"false"
"image-keyboard-response",172,138929,"0.0-4.53-1.53","t2vfwg53gjeslzh",380,"168.csv","","null","resources/maskTrios/BBA2.jpg","null","",NA,NA,NA,NA,""
"image-keyboard-response",173,140134,"0.0-4.53-2.53","t2vfwg53gjeslzh",380,"168.csv","","null","resources/images/fishbone.png","null","",NA,NA,NA,NA,""
"image-keyboard-response",174,140329,"0.0-4.54-0.54","t2vfwg53gjeslzh",380,"168.csv","","193.79999995231628","resources/trios/L1T4A2.jpg","38","restless",0.7,0.2,0.6,0.950416674283921,"false"
"image-keyboard-response",175,140737,"0.0-4.54-1.54","t2vfwg53gjeslzh",380,"168.csv","","null","resources/maskTrios/BT4B.jpg","null","",NA,NA,NA,NA,""
"image-keyboard-response",176,141943,"0.0-4.54-2.54","t2vfwg53gjeslzh",380,"168.csv","","null","resources/images/fishbone.png","null","",NA,NA,NA,NA,""
"image-keyboard-response",177,142218,"0.0-4.55-0.55","t2vfwg53gjeslzh",380,"168.csv","","273.30000019073486","resources/trios/L1T4A2.jpg","39","restless",0.7,0.2,0.6,0.139496101714053,"true"
"image-keyboard-response",178,142621,"0.0-4.55-1.55","t2vfwg53gjeslzh",380,"168.csv","","null","resources/maskTrios/BBA2.jpg","null","",NA,NA,NA,NA,""
"image-keyboard-response",179,143836,"0.0-4.55-2.55","t2vfwg53gjeslzh",380,"168.csv","","null","resources/images/coin2.png","null","",NA,NA,NA,NA,""
"image-keyboard-response",180,143942,"0.0-4.56-0.56","t2vfwg53gjeslzh",380,"168.csv","","105.5","resources/trios/L1T4A2.jpg","39","restless",0.8,0.2,0.6,0.0709271612339244,"true"
"image-keyboard-response",181,144359,"0.0-4.56-1.56","t2vfwg53gjeslzh",380,"168.csv","","null","resources/maskTrios/BBA2.jpg","null","",NA,NA,NA,NA,""
"image-keyboard-response",182,145562,"0.0-4.56-2.56","t2vfwg53gjeslzh",380,"168.csv","","null","resources/images/coin2.png","null","",NA,NA,NA,NA,""
"image-keyboard-response",183,145734,"0.0-4.57-0.57","t2vfwg53gjeslzh",380,"168.csv","","170.90000009536743","resources/trios/L1T4A2.jpg","39","restless",0.8,0.2,0.6,0.0626711151240269,"true"
"image-keyboard-response",184,146140,"0.0-4.57-1.57","t2vfwg53gjeslzh",380,"168.csv","","null","resources/maskTrios/BBA2.jpg","null","",NA,NA,NA,NA,""
"image-keyboard-response",185,147342,"0.0-4.57-2.57","t2vfwg53gjeslzh",380,"168.csv","","null","resources/images/coin2.png","null","",NA,NA,NA,NA,""
"image-keyboard-response",186,147577,"0.0-4.58-0.58","t2vfwg53gjeslzh",380,"168.csv","","234.09999990463257","resources/trios/L1T4A2.jpg","39","restless",0.8,0.2,0.6,0.115331575836197,"true"
"image-keyboard-response",187,147981,"0.0-4.58-1.58","t2vfwg53gjeslzh",380,"168.csv","","null","resources/maskTrios/BBA2.jpg","null","",NA,NA,NA,NA,""
"image-keyboard-response",188,149188,"0.0-4.58-2.58","t2vfwg53gjeslzh",380,"168.csv","","null","resources/images/coin2.png","null","",NA,NA,NA,NA,""
"image-keyboard-response",189,149208,"0.0-4.59-0.59","t2vfwg53gjeslzh",380,"168.csv","","18.59999990463257","resources/trios/L1T4A2.jpg","39","restless",0.8,0.2,0.6,0.621158894355223,"false"
"image-keyboard-response",190,149624,"0.0-4.59-1.59","t2vfwg53gjeslzh",380,"168.csv","","null","resources/maskTrios/BBA2.jpg","null","",NA,NA,NA,NA,""
"image-keyboard-response",191,150839,"0.0-4.59-2.59","t2vfwg53gjeslzh",380,"168.csv","","null","resources/images/fishbone.png","null","",NA,NA,NA,NA,""
"image-keyboard-response",192,151057,"0.0-4.60-0.60","t2vfwg53gjeslzh",380,"168.csv","","216.90000009536743","resources/trios/L1T4A2.jpg","37","restless",0.8,0.2,0.6,0.0416015043654836,"true"
"image-keyboard-response",193,151466,"0.0-4.60-1.60","t2vfwg53gjeslzh",380,"168.csv","","null","resources/maskTrios/L1BB.jpg","null","",NA,NA,NA,NA,""
"image-keyboard-response",194,152671,"0.0-4.60-2.60","t2vfwg53gjeslzh",380,"168.csv","","null","resources/images/coin2.png","null","",NA,NA,NA,NA,""
"image-keyboard-response",195,152927,"0.0-4.61-0.61","t2vfwg53gjeslzh",380,"168.csv","","255.70000004768372","resources/trios/L1T4A2.jpg","37","restless",0.7,0.2,0.6,0.540827575625034,"true"
"image-keyboard-response",196,153339,"0.0-4.61-1.61","t2vfwg53gjeslzh",380,"168.csv","","null","resources/maskTrios/L1BB.jpg","null","",NA,NA,NA,NA,""
"image-keyboard-response",197,154545,"0.0-4.61-2.61","t2vfwg53gjeslzh",380,"168.csv","","null","resources/images/coin2.png","null","",NA,NA,NA,NA,""
"image-keyboard-response",198,154795,"0.0-4.62-0.62","t2vfwg53gjeslzh",380,"168.csv","","248.70000004768372","resources/trios/L1T4A2.jpg","37","restless",0.7,0.2,0.6,0.649197767356609,"true"
"image-keyboard-response",199,155199,"0.0-4.62-1.62","t2vfwg53gjeslzh",380,"168.csv","","null","resources/maskTrios/L1BB.jpg","null","",NA,NA,NA,NA,""
"image-keyboard-response",200,156406,"0.0-4.62-2.62","t2vfwg53gjeslzh",380,"168.csv","","null","resources/images/coin2.png","null","",NA,NA,NA,NA,""
"image-keyboard-response",201,156525,"0.0-4.63-0.63","t2vfwg53gjeslzh",380,"168.csv","","117.39999985694885","resources/trios/L1T4A2.jpg","37","restless",0.7,0.2,0.6,0.830803176283995,"false"
"image-keyboard-response",202,156938,"0.0-4.63-1.63","t2vfwg53gjeslzh",380,"168.csv","","null","resources/maskTrios/L1BB.jpg","null","",NA,NA,NA,NA,""
"image-keyboard-response",203,158141,"0.0-4.63-2.63","t2vfwg53gjeslzh",380,"168.csv","","null","resources/images/fishbone.png","null","",NA,NA,NA,NA,""
"image-keyboard-response",204,158185,"0.0-4.64-0.64","t2vfwg53gjeslzh",380,"168.csv","","42.799999952316284","resources/trios/L1T4A2.jpg","39","restless",0.7,0.2,0.6,0.132368398050242,"true"
"image-keyboard-response",205,158595,"0.0-4.64-1.64","t2vfwg53gjeslzh",380,"168.csv","","null","resources/maskTrios/BBA2.jpg","null","",NA,NA,NA,NA,""
"image-keyboard-response",206,159806,"0.0-4.64-2.64","t2vfwg53gjeslzh",380,"168.csv","","null","resources/images/coin2.png","null","",NA,NA,NA,NA,""
"image-keyboard-response",207,160010,"0.0-4.65-0.65","t2vfwg53gjeslzh",380,"168.csv","","202.79999995231628","resources/trios/L1T4A2.jpg","39","restless",0.7,0.2,0.6,0.280600435495088,"true"
"image-keyboard-response",208,160416,"0.0-4.65-1.65","t2vfwg53gjeslzh",380,"168.csv","","null","resources/maskTrios/BBA2.jpg","null","",NA,NA,NA,NA,""
"image-keyboard-response",209,161625,"0.0-4.65-2.65","t2vfwg53gjeslzh",380,"168.csv","","null","resources/images/coin2.png","null","",NA,NA,NA,NA,""
"image-keyboard-response",210,161906,"0.0-4.66-0.66","t2vfwg53gjeslzh",380,"168.csv","","279.60000014305115","resources/trios/L1T4A2.jpg","39","restless",0.7,0.2,0.6,0.105332469541383,"true"
"image-keyboard-response",211,162322,"0.0-4.66-1.66","t2vfwg53gjeslzh",380,"168.csv","","null","resources/maskTrios/BBA2.jpg","null","",NA,NA,NA,NA,""
"image-keyboard-response",212,163538,"0.0-4.66-2.66","t2vfwg53gjeslzh",380,"168.csv","","null","resources/images/coin2.png","null","",NA,NA,NA,NA,""
"image-keyboard-response",213,163933,"0.0-4.67-0.67","t2vfwg53gjeslzh",380,"168.csv","","393.10000014305115","resources/trios/L1T4A2.jpg","39","restless",0.7,0.2,0.6,0.163511602070244,"true"
"image-keyboard-response",214,164335,"0.0-4.67-1.67","t2vfwg53gjeslzh",380,"168.csv","","null","resources/maskTrios/BBA2.jpg","null","",NA,NA,NA,NA,""
"image-keyboard-response",215,165545,"0.0-4.67-2.67","t2vfwg53gjeslzh",380,"168.csv","","null","resources/images/coin2.png","null","",NA,NA,NA,NA,""
"image-keyboard-response",216,165774,"0.0-4.68-0.68","t2vfwg53gjeslzh",380,"168.csv","","228","resources/trios/L1T4A2.jpg","39","restless",0.7,0.2,0.6,0.846696119454024,"false"
"image-keyboard-response",217,166187,"0.0-4.68-1.68","t2vfwg53gjeslzh",380,"168.csv","","null","resources/maskTrios/BBA2.jpg","null","",NA,NA,NA,NA,""
"image-keyboard-response",218,167393,"0.0-4.68-2.68","t2vfwg53gjeslzh",380,"168.csv","","null","resources/images/fishbone.png","null","",NA,NA,NA,NA,""
"image-keyboard-response",219,167745,"0.0-4.69-0.69","t2vfwg53gjeslzh",380,"168.csv","","351.09999990463257","resources/trios/L1T4A2.jpg","38","restless",0.7,0.2,0.6,0.330417280324059,"false"
"image-keyboard-response",220,168158,"0.0-4.69-1.69","t2vfwg53gjeslzh",380,"168.csv","","null","resources/maskTrios/BT4B.jpg","null","",NA,NA,NA,NA,""
"image-keyboard-response",221,169365,"0.0-4.69-2.69","t2vfwg53gjeslzh",380,"168.csv","","null","resources/images/fishbone.png","null","",NA,NA,NA,NA,""
"image-keyboard-response",222,169635,"0.0-4.70-0.70","t2vfwg53gjeslzh",380,"168.csv","","269.2999999523163","resources/trios/L1T4A2.jpg","37","restless",0.7,0.2,0.6,0.215619256789161,"true"
"image-keyboard-response",223,170049,"0.0-4.70-1.70","t2vfwg53gjeslzh",380,"168.csv","","null","resources/maskTrios/L1BB.jpg","null","",NA,NA,NA,NA,""
"image-keyboard-response",224,171254,"0.0-4.70-2.70","t2vfwg53gjeslzh",380,"168.csv","","null","resources/images/coin2.png","null","",NA,NA,NA,NA,""
"image-keyboard-response",225,171473,"0.0-4.71-0.71","t2vfwg53gjeslzh",380,"168.csv","","218.20000004768372","resources/trios/L1T4A2.jpg","37","restless",0.6,0.2,0.6,0.268526132821291,"true"
"image-keyboard-response",226,171878,"0.0-4.71-1.71","t2vfwg53gjeslzh",380,"168.csv","","null","resources/maskTrios/L1BB.jpg","null","",NA,NA,NA,NA,""
"image-keyboard-response",227,173094,"0.0-4.71-2.71","t2vfwg53gjeslzh",380,"168.csv","","null","resources/images/coin2.png","null","",NA,NA,NA,NA,""
"image-keyboard-response",228,173344,"0.0-4.72-0.72","t2vfwg53gjeslzh",380,"168.csv","","249.09999990463257","resources/trios/L1T4A2.jpg","37","restless",0.6,0.2,0.6,0.600582690149083,"false"
"image-keyboard-response",229,173749,"0.0-4.72-1.72","t2vfwg53gjeslzh",380,"168.csv","","null","resources/maskTrios/L1BB.jpg","null","",NA,NA,NA,NA,""
"image-keyboard-response",230,174958,"0.0-4.72-2.72","t2vfwg53gjeslzh",380,"168.csv","","null","resources/images/fishbone.png","null","",NA,NA,NA,NA,""
"image-keyboard-response",231,175257,"0.0-4.73-0.73","t2vfwg53gjeslzh",380,"168.csv","","298.69999980926514","resources/trios/L1T4A2.jpg","39","restless",0.6,0.3,0.6,0.88653694498171,"false"
"image-keyboard-response",232,175660,"0.0-4.73-1.73","t2vfwg53gjeslzh",380,"168.csv","","null","resources/maskTrios/BBA2.jpg","null","",NA,NA,NA,NA,""
"image-keyboard-response",233,176868,"0.0-4.73-2.73","t2vfwg53gjeslzh",380,"168.csv","","null","resources/images/fishbone.png","null","",NA,NA,NA,NA,""
"image-keyboard-response",234,176907,"0.0-4.74-0.74","t2vfwg53gjeslzh",380,"168.csv","","38.5","resources/trios/L1T4A2.jpg","37","restless",0.6,0.4,0.6,0.324368119743677,"true"
"image-keyboard-response",235,177319,"0.0-4.74-1.74","t2vfwg53gjeslzh",380,"168.csv","","null","resources/maskTrios/L1BB.jpg","null","",NA,NA,NA,NA,""
"image-keyboard-response",236,178529,"0.0-4.74-2.74","t2vfwg53gjeslzh",380,"168.csv","","null","resources/images/coin2.png","null","",NA,NA,NA,NA,""
"image-keyboard-response",237,178766,"0.0-4.75-0.75","t2vfwg53gjeslzh",380,"168.csv","","235.30000019073486","resources/trios/L1T4A2.jpg","37","restless",0.6,0.4,0.6,0.524475432364327,"true"
"image-keyboard-response",238,179170,"0.0-4.75-1.75","t2vfwg53gjeslzh",380,"168.csv","","null","resources/maskTrios/L1BB.jpg","null","",NA,NA,NA,NA,""
"image-keyboard-response",239,180375,"0.0-4.75-2.75","t2vfwg53gjeslzh",380,"168.csv","","null","resources/images/coin2.png","null","",NA,NA,NA,NA,""
"image-keyboard-response",240,180653,"0.0-4.76-0.76","t2vfwg53gjeslzh",380,"168.csv","","276.89999985694885","resources/trios/L1T4A2.jpg","37","restless",0.6,0.4,0.6,0.696159602802726,"false"
"image-keyboard-response",241,181062,"0.0-4.76-1.76","t2vfwg53gjeslzh",380,"168.csv","","null","resources/maskTrios/L1BB.jpg","null","",NA,NA,NA,NA,""
"image-keyboard-response",242,182265,"0.0-4.76-2.76","t2vfwg53gjeslzh",380,"168.csv","","null","resources/images/fishbone.png","null","",NA,NA,NA,NA,""
"image-keyboard-response",243,182536,"0.0-4.77-0.77","t2vfwg53gjeslzh",380,"168.csv","","270.39999985694885","resources/trios/L1T4A2.jpg","38","restless",0.6,0.4,0.6,0.23619739973241,"true"
"image-keyboard-response",244,182951,"0.0-4.77-1.77","t2vfwg53gjeslzh",380,"168.csv","","null","resources/maskTrios/BT4B.jpg","null","",NA,NA,NA,NA,""
"image-keyboard-response",245,184156,"0.0-4.77-2.77","t2vfwg53gjeslzh",380,"168.csv","","null","resources/images/coin2.png","null","",NA,NA,NA,NA,""
"image-keyboard-response",246,184410,"0.0-4.78-0.78","t2vfwg53gjeslzh",380,"168.csv","","253.09999990463257","resources/trios/L1T4A2.jpg","38","restless",0.6,0.4,0.6,0.911153283327267,"false"
"image-keyboard-response",247,184812,"0.0-4.78-1.78","t2vfwg53gjeslzh",380,"168.csv","","null","resources/maskTrios/BT4B.jpg","null","",NA,NA,NA,NA,""
"image-keyboard-response",248,186020,"0.0-4.78-2.78","t2vfwg53gjeslzh",380,"168.csv","","null","resources/images/fishbone.png","null","",NA,NA,NA,NA,""
"image-keyboard-response",249,186256,"0.0-4.79-0.79","t2vfwg53gjeslzh",380,"168.csv","","235.20000004768372","resources/trios/L1T4A2.jpg","39","restless",0.6,0.4,0.6,0.08057924512359,"true"
"image-keyboard-response",250,186660,"0.0-4.79-1.79","t2vfwg53gjeslzh",380,"168.csv","","null","resources/maskTrios/BBA2.jpg","null","",NA,NA,NA,NA,""
"image-keyboard-response",251,187869,"0.0-4.79-2.79","t2vfwg53gjeslzh",380,"168.csv","","null","resources/images/coin2.png","null","",NA,NA,NA,NA,""
"image-keyboard-response",252,188108,"0.0-4.80-0.80","t2vfwg53gjeslzh",380,"168.csv","","238.29999995231628","resources/trios/L1T4A2.jpg","39","restless",0.6,0.4,0.6,0.668040761783239,"false"
"image-keyboard-response",253,188512,"0.0-4.80-1.80","t2vfwg53gjeslzh",380,"168.csv","","null","resources/maskTrios/BBA2.jpg","null","",NA,NA,NA,NA,""
"image-keyboard-response",254,189717,"0.0-4.80-2.80","t2vfwg53gjeslzh",380,"168.csv","","null","resources/images/fishbone.png","null","",NA,NA,NA,NA,""
"image-keyboard-response",255,189933,"0.0-4.81-0.81","t2vfwg53gjeslzh",380,"168.csv","","215.59999990463257","resources/trios/L1T4A2.jpg","37","restless",0.6,0.4,0.6,0.718245386820346,"false"
"image-keyboard-response",256,190348,"0.0-4.81-1.81","t2vfwg53gjeslzh",380,"168.csv","","null","resources/maskTrios/L1BB.jpg","null","",NA,NA,NA,NA,""
"image-keyboard-response",257,191557,"0.0-4.81-2.81","t2vfwg53gjeslzh",380,"168.csv","","null","resources/images/fishbone.png","null","",NA,NA,NA,NA,""
"image-keyboard-response",258,191850,"0.0-4.82-0.82","t2vfwg53gjeslzh",380,"168.csv","","291.90000009536743","resources/trios/L1T4A2.jpg","38","restless",0.7,0.4,0.6,0.226541023179705,"true"
"image-keyboard-response",259,192262,"0.0-4.82-1.82","t2vfwg53gjeslzh",380,"168.csv","","null","resources/maskTrios/BT4B.jpg","null","",NA,NA,NA,NA,""
"image-keyboard-response",260,193472,"0.0-4.82-2.82","t2vfwg53gjeslzh",380,"168.csv","","null","resources/images/coin2.png","null","",NA,NA,NA,NA,""
"image-keyboard-response",261,193638,"0.0-4.83-0.83","t2vfwg53gjeslzh",380,"168.csv","","164.5","resources/trios/L1T4A2.jpg","38","restless",0.7,0.4,0.6,0.654407415224839,"false"
"image-keyboard-response",262,194052,"0.0-4.83-1.83","t2vfwg53gjeslzh",380,"168.csv","","null","resources/maskTrios/BT4B.jpg","null","",NA,NA,NA,NA,""
"image-keyboard-response",263,195254,"0.0-4.83-2.83","t2vfwg53gjeslzh",380,"168.csv","","null","resources/images/fishbone.png","null","",NA,NA,NA,NA,""
"image-keyboard-response",264,195343,"0.0-4.84-0.84","t2vfwg53gjeslzh",380,"168.csv","","87.40000009536743","resources/trios/L1T4A2.jpg","39","restless",0.7,0.4,0.6,0.0764397946654753,"true"
"image-keyboard-response",265,195755,"0.0-4.84-1.84","t2vfwg53gjeslzh",380,"168.csv","","null","resources/maskTrios/BBA2.jpg","null","",NA,NA,NA,NA,""
"image-keyboard-response",266,196965,"0.0-4.84-2.84","t2vfwg53gjeslzh",380,"168.csv","","null","resources/images/coin2.png","null","",NA,NA,NA,NA,""
"image-keyboard-response",267,197142,"0.0-4.85-0.85","t2vfwg53gjeslzh",380,"168.csv","","176","resources/trios/L1T4A2.jpg","39","restless",0.7,0.4,0.6,0.655276655344267,"false"
"image-keyboard-response",268,197556,"0.0-4.85-1.85","t2vfwg53gjeslzh",380,"168.csv","","null","resources/maskTrios/BBA2.jpg","null","",NA,NA,NA,NA,""
"image-keyboard-response",269,198773,"0.0-4.85-2.85","t2vfwg53gjeslzh",380,"168.csv","","null","resources/images/fishbone.png","null","",NA,NA,NA,NA,""
"image-keyboard-response",270,198975,"0.0-4.86-0.86","t2vfwg53gjeslzh",380,"168.csv","","201","resources/trios/L1T4A2.jpg","37","restless",0.7,0.4,0.6,0.0662851523394852,"true"
"image-keyboard-response",271,199383,"0.0-4.86-1.86","t2vfwg53gjeslzh",380,"168.csv","","null","resources/maskTrios/L1BB.jpg","null","",NA,NA,NA,NA,""
"image-keyboard-response",272,200587,"0.0-4.86-2.86","t2vfwg53gjeslzh",380,"168.csv","","null","resources/images/coin2.png","null","",NA,NA,NA,NA,""
"image-keyboard-response",273,200731,"0.0-4.87-0.87","t2vfwg53gjeslzh",380,"168.csv","","142.80000019073486","resources/trios/L1T4A2.jpg","37","restless",0.7,0.4,0.6,0.699156779603375,"true"
"image-keyboard-response",274,201146,"0.0-4.87-1.87","t2vfwg53gjeslzh",380,"168.csv","","null","resources/maskTrios/L1BB.jpg","null","",NA,NA,NA,NA,""
"image-keyboard-response",275,202347,"0.0-4.87-2.87","t2vfwg53gjeslzh",380,"168.csv","","null","resources/images/coin2.png","null","",NA,NA,NA,NA,""
"image-keyboard-response",276,202611,"0.0-4.88-0.88","t2vfwg53gjeslzh",380,"168.csv","","263","resources/trios/L1T4A2.jpg","37","restless",0.7,0.4,0.6,0.713689593125977,"false"
"image-keyboard-response",277,203021,"0.0-4.88-1.88","t2vfwg53gjeslzh",380,"168.csv","","null","resources/maskTrios/L1BB.jpg","null","",NA,NA,NA,NA,""
"image-keyboard-response",278,204238,"0.0-4.88-2.88","t2vfwg53gjeslzh",380,"168.csv","","null","resources/images/fishbone.png","null","",NA,NA,NA,NA,""
"image-keyboard-response",279,204449,"0.0-4.89-0.89","t2vfwg53gjeslzh",380,"168.csv","","210","resources/trios/L1T4A2.jpg","38","restless",0.6,0.4,0.6,0.582985598454302,"false"
"image-keyboard-response",280,204865,"0.0-4.89-1.89","t2vfwg53gjeslzh",380,"168.csv","","null","resources/maskTrios/BT4B.jpg","null","",NA,NA,NA,NA,""
"image-keyboard-response",281,206070,"0.0-4.89-2.89","t2vfwg53gjeslzh",380,"168.csv","","null","resources/images/fishbone.png","null","",NA,NA,NA,NA,""
"image-keyboard-response",282,206141,"0.0-4.90-0.90","t2vfwg53gjeslzh",380,"168.csv","","70.60000014305115","resources/trios/L1T4A2.jpg","39","restless",0.6,0.4,0.6,0.522194681219396,"true"
"image-keyboard-response",283,206555,"0.0-4.90-1.90","t2vfwg53gjeslzh",380,"168.csv","","null","resources/maskTrios/BBA2.jpg","null","",NA,NA,NA,NA,""
"image-keyboard-response",284,207772,"0.0-4.90-2.90","t2vfwg53gjeslzh",380,"168.csv","","null","resources/images/coin2.png","null","",NA,NA,NA,NA,""
"image-keyboard-response",285,207865,"0.0-4.91-0.91","t2vfwg53gjeslzh",380,"168.csv","","92.5","resources/trios/L1T4A2.jpg","39","restless",0.6,0.4,0.5,0.121357185529179,"true"
"image-keyboard-response",286,208272,"0.0-4.91-1.91","t2vfwg53gjeslzh",380,"168.csv","","null","resources/maskTrios/BBA2.jpg","null","",NA,NA,NA,NA,""
"image-keyboard-response",287,209476,"0.0-4.91-2.91","t2vfwg53gjeslzh",380,"168.csv","","null","resources/images/coin2.png","null","",NA,NA,NA,NA,""
"image-keyboard-response",288,209775,"0.0-4.92-0.92","t2vfwg53gjeslzh",380,"168.csv","","298.59999990463257","resources/trios/L1T4A2.jpg","39","restless",0.7,0.4,0.5,0.644659262718907,"false"
"image-keyboard-response",289,210182,"0.0-4.92-1.92","t2vfwg53gjeslzh",380,"168.csv","","null","resources/maskTrios/BBA2.jpg","null","",NA,NA,NA,NA,""
"image-keyboard-response",290,211392,"0.0-4.92-2.92","t2vfwg53gjeslzh",380,"168.csv","","null","resources/images/fishbone.png","null","",NA,NA,NA,NA,""
"image-keyboard-response",291,211609,"0.0-4.93-0.93","t2vfwg53gjeslzh",380,"168.csv","","216","resources/trios/L1T4A2.jpg","38","restless",0.7,0.4,0.5,0.867498480225077,"false"
"image-keyboard-response",292,212017,"0.0-4.93-1.93","t2vfwg53gjeslzh",380,"168.csv","","null","resources/maskTrios/BT4B.jpg","null","",NA,NA,NA,NA,""
"image-keyboard-response",293,213221,"0.0-4.93-2.93","t2vfwg53gjeslzh",380,"168.csv","","null","resources/images/fishbone.png","null","",NA,NA,NA,NA,""
"image-keyboard-response",294,213401,"0.0-4.94-0.94","t2vfwg53gjeslzh",380,"168.csv","","178.79999995231628","resources/trios/L1T4A2.jpg","37","restless",0.7,0.4,0.5,0.0312666507688018,"true"
"image-keyboard-response",295,213813,"0.0-4.94-1.94","t2vfwg53gjeslzh",380,"168.csv","","null","resources/maskTrios/L1BB.jpg","null","",NA,NA,NA,NA,""
"image-keyboard-response",296,215019,"0.0-4.94-2.94","t2vfwg53gjeslzh",380,"168.csv","","null","resources/images/coin2.png","null","",NA,NA,NA,NA,""
"image-keyboard-response",297,215276,"0.0-4.95-0.95","t2vfwg53gjeslzh",380,"168.csv","","256","resources/trios/L1T4A2.jpg","37","restless",0.7,0.4,0.5,0.0290227461213441,"true"
"image-keyboard-response",298,215692,"0.0-4.95-1.95","t2vfwg53gjeslzh",380,"168.csv","","null","resources/maskTrios/L1BB.jpg","null","",NA,NA,NA,NA,""
"image-keyboard-response",299,216895,"0.0-4.95-2.95","t2vfwg53gjeslzh",380,"168.csv","","null","resources/images/coin2.png","null","",NA,NA,NA,NA,""
"image-keyboard-response",300,217112,"0.0-4.96-0.96","t2vfwg53gjeslzh",380,"168.csv","","216.29999995231628","resources/trios/L1T4A2.jpg","37","restless",0.7,0.4,0.5,0.546769655876953,"true"
"image-keyboard-response",301,217520,"0.0-4.96-1.96","t2vfwg53gjeslzh",380,"168.csv","","null","resources/maskTrios/L1BB.jpg","null","",NA,NA,NA,NA,""
"image-keyboard-response",302,218724,"0.0-4.96-2.96","t2vfwg53gjeslzh",380,"168.csv","","null","resources/images/coin2.png","null","",NA,NA,NA,NA,""
"image-keyboard-response",303,219029,"0.0-4.97-0.97","t2vfwg53gjeslzh",380,"168.csv","","304.10000014305115","resources/trios/L1T4A2.jpg","37","restless",0.7,0.4,0.5,0.927246077034569,"false"
"image-keyboard-response",304,219441,"0.0-4.97-1.97","t2vfwg53gjeslzh",380,"168.csv","","null","resources/maskTrios/L1BB.jpg","null","",NA,NA,NA,NA,""
"image-keyboard-response",305,220643,"0.0-4.97-2.97","t2vfwg53gjeslzh",380,"168.csv","","null","resources/images/fishbone.png","null","",NA,NA,NA,NA,""
"image-keyboard-response",306,220752,"0.0-4.98-0.98","t2vfwg53gjeslzh",380,"168.csv","","107.89999985694885","resources/trios/L1T4A2.jpg","39","restless",0.7,0.4,0.5,0.349390638968153,"true"
"image-keyboard-response",307,221158,"0.0-4.98-1.98","t2vfwg53gjeslzh",380,"168.csv","","null","resources/maskTrios/BBA2.jpg","null","",NA,NA,NA,NA,""
"image-keyboard-response",308,222375,"0.0-4.98-2.98","t2vfwg53gjeslzh",380,"168.csv","","null","resources/images/coin2.png","null","",NA,NA,NA,NA,""
"image-keyboard-response",309,222778,"0.0-4.99-0.99","t2vfwg53gjeslzh",380,"168.csv","","403.2000000476837","resources/trios/L1T4A2.jpg","39","restless",0.7,0.4,0.5,0.918992394171799,"false"
"image-keyboard-response",310,223188,"0.0-4.99-1.99","t2vfwg53gjeslzh",380,"168.csv","","null","resources/maskTrios/BBA2.jpg","null","",NA,NA,NA,NA,""
"image-keyboard-response",311,224390,"0.0-4.99-2.99","t2vfwg53gjeslzh",380,"168.csv","","null","resources/images/fishbone.png","null","",NA,NA,NA,NA,""
"image-keyboard-response",312,224649,"0.0-4.100-0.100","t2vfwg53gjeslzh",380,"168.csv","","258.19999980926514","resources/trios/L1T4A2.jpg","38","restless",0.7,0.4,0.5,0.198784331566022,"true"
"image-keyboard-response",313,225063,"0.0-4.100-1.100","t2vfwg53gjeslzh",380,"168.csv","","null","resources/maskTrios/BT4B.jpg","null","",NA,NA,NA,NA,""
"image-keyboard-response",314,226268,"0.0-4.100-2.100","t2vfwg53gjeslzh",380,"168.csv","","null","resources/images/coin2.png","null","",NA,NA,NA,NA,""
"image-keyboard-response",315,226507,"0.0-4.101-0.101","t2vfwg53gjeslzh",380,"168.csv","","237.90000009536743","resources/trios/L1T4A2.jpg","38","restless",0.7,0.4,0.5,0.318175289894182,"true"
"image-keyboard-response",316,226921,"0.0-4.101-1.101","t2vfwg53gjeslzh",380,"168.csv","","null","resources/maskTrios/BT4B.jpg","null","",NA,NA,NA,NA,""
"image-keyboard-response",317,228128,"0.0-4.101-2.101","t2vfwg53gjeslzh",380,"168.csv","","null","resources/images/coin2.png","null","",NA,NA,NA,NA,""
"image-keyboard-response",318,228202,"0.0-4.102-0.102","t2vfwg53gjeslzh",380,"168.csv","","73.09999990463257","resources/trios/L1T4A2.jpg","38","restless",0.7,0.4,0.4,0.958326555796088,"false"
"image-keyboard-response",319,228608,"0.0-4.102-1.102","t2vfwg53gjeslzh",380,"168.csv","","null","resources/maskTrios/BT4B.jpg","null","",NA,NA,NA,NA,""
"image-keyboard-response",320,229811,"0.0-4.102-2.102","t2vfwg53gjeslzh",380,"168.csv","","null","resources/images/fishbone.png","null","",NA,NA,NA,NA,""
"image-keyboard-response",321,229908,"0.0-4.103-0.103","t2vfwg53gjeslzh",380,"168.csv","","95.70000004768372","resources/trios/L1T4A2.jpg","37","restless",0.7,0.4,0.3,0.0538342676737031,"true"
"image-keyboard-response",322,230309,"0.0-4.103-1.103","t2vfwg53gjeslzh",380,"168.csv","","null","resources/maskTrios/L1BB.jpg","null","",NA,NA,NA,NA,""
"image-keyboard-response",323,231514,"0.0-4.103-2.103","t2vfwg53gjeslzh",380,"168.csv","","null","resources/images/coin2.png","null","",NA,NA,NA,NA,""
"image-keyboard-response",324,231769,"0.0-4.104-0.104","t2vfwg53gjeslzh",380,"168.csv","","254.20000004768372","resources/trios/L1T4A2.jpg","37","restless",0.7,0.4,0.3,0.390613024856558,"true"
"image-keyboard-response",325,232185,"0.0-4.104-1.104","t2vfwg53gjeslzh",380,"168.csv","","null","resources/maskTrios/L1BB.jpg","null","",NA,NA,NA,NA,""
"image-keyboard-response",326,233395,"0.0-4.104-2.104","t2vfwg53gjeslzh",380,"168.csv","","null","resources/images/coin2.png","null","",NA,NA,NA,NA,""
"image-keyboard-response",327,233640,"0.0-4.105-0.105","t2vfwg53gjeslzh",380,"168.csv","","243.5","resources/trios/L1T4A2.jpg","37","restless",0.7,0.4,0.3,0.378535526693927,"true"
"image-keyboard-response",328,234055,"0.0-4.105-1.105","t2vfwg53gjeslzh",380,"168.csv","","null","resources/maskTrios/L1BB.jpg","null","",NA,NA,NA,NA,""
"image-keyboard-response",329,235261,"0.0-4.105-2.105","t2vfwg53gjeslzh",380,"168.csv","","null","resources/images/coin2.png","null","",NA,NA,NA,NA,""
"image-keyboard-response",330,235588,"0.0-4.106-0.106","t2vfwg53gjeslzh",380,"168.csv","","325.89999985694885","resources/trios/L1T4A2.jpg","37","restless",0.7,0.4,0.3,0.252488584063046,"true"
"image-keyboard-response",331,235992,"0.0-4.106-1.106","t2vfwg53gjeslzh",380,"168.csv","","null","resources/maskTrios/L1BB.jpg","null","",NA,NA,NA,NA,""
"image-keyboard-response",332,237198,"0.0-4.106-2.106","t2vfwg53gjeslzh",380,"168.csv","","null","resources/images/coin2.png","null","",NA,NA,NA,NA,""
"image-keyboard-response",333,237478,"0.0-4.107-0.107","t2vfwg53gjeslzh",380,"168.csv","","279.5","resources/trios/L1T4A2.jpg","37","restless",0.7,0.4,0.3,0.643592482935374,"true"
"image-keyboard-response",334,237884,"0.0-4.107-1.107","t2vfwg53gjeslzh",380,"168.csv","","null","resources/maskTrios/L1BB.jpg","null","",NA,NA,NA,NA,""
"image-keyboard-response",335,239096,"0.0-4.107-2.107","t2vfwg53gjeslzh",380,"168.csv","","null","resources/images/coin2.png","null","",NA,NA,NA,NA,""
"image-keyboard-response",336,239342,"0.0-4.108-0.108","t2vfwg53gjeslzh",380,"168.csv","","245.30000019073486","resources/trios/L1T4A2.jpg","37","restless",0.7,0.5,0.3,0.292076554745069,"true"
"image-keyboard-response",337,239755,"0.0-4.108-1.108","t2vfwg53gjeslzh",380,"168.csv","","null","resources/maskTrios/L1BB.jpg","null","",NA,NA,NA,NA,""
"image-keyboard-response",338,240960,"0.0-4.108-2.108","t2vfwg53gjeslzh",380,"168.csv","","null","resources/images/coin2.png","null","",NA,NA,NA,NA,""
"image-keyboard-response",339,241425,"0.0-4.109-0.109","t2vfwg53gjeslzh",380,"168.csv","","463.7000000476837","resources/trios/L1T4A2.jpg","37","restless",0.7,0.5,0.3,0.638974282639444,"true"
"image-keyboard-response",340,241838,"0.0-4.109-1.109","t2vfwg53gjeslzh",380,"168.csv","","null","resources/maskTrios/L1BB.jpg","null","",NA,NA,NA,NA,""
"image-keyboard-response",341,243042,"0.0-4.109-2.109","t2vfwg53gjeslzh",380,"168.csv","","null","resources/images/coin2.png","null","",NA,NA,NA,NA,""
"image-keyboard-response",342,243407,"0.0-4.110-0.110","t2vfwg53gjeslzh",380,"168.csv","","363.7000000476837","resources/trios/L1T4A2.jpg","37","restless",0.7,0.5,0.3,0.503953290607392,"true"
"image-keyboard-response",343,243812,"0.0-4.110-1.110","t2vfwg53gjeslzh",380,"168.csv","","null","resources/maskTrios/L1BB.jpg","null","",NA,NA,NA,NA,""
"image-keyboard-response",344,245015,"0.0-4.110-2.110","t2vfwg53gjeslzh",380,"168.csv","","null","resources/images/coin2.png","null","",NA,NA,NA,NA,""
"image-keyboard-response",345,245235,"0.0-4.111-0.111","t2vfwg53gjeslzh",380,"168.csv","","219.60000014305115","resources/trios/L1T4A2.jpg","37","restless",0.7,0.5,0.3,0.114151850947511,"true"
"image-keyboard-response",346,245638,"0.0-4.111-1.111","t2vfwg53gjeslzh",380,"168.csv","","null","resources/maskTrios/L1BB.jpg","null","",NA,NA,NA,NA,""
"image-keyboard-response",347,246844,"0.0-4.111-2.111","t2vfwg53gjeslzh",380,"168.csv","","null","resources/images/coin2.png","null","",NA,NA,NA,NA,""
"image-keyboard-response",348,247117,"0.0-4.112-0.112","t2vfwg53gjeslzh",380,"168.csv","","272.7000000476837","resources/trios/L1T4A2.jpg","37","restless",0.7,0.5,0.4,0.137053111706613,"true"
"image-keyboard-response",349,247529,"0.0-4.112-1.112","t2vfwg53gjeslzh",380,"168.csv","","null","resources/maskTrios/L1BB.jpg","null","",NA,NA,NA,NA,""
"image-keyboard-response",350,248732,"0.0-4.112-2.112","t2vfwg53gjeslzh",380,"168.csv","","null","resources/images/coin2.png","null","",NA,NA,NA,NA,""
"image-keyboard-response",351,249095,"0.0-4.113-0.113","t2vfwg53gjeslzh",380,"168.csv","","362.09999990463257","resources/trios/L1T4A2.jpg","37","restless",0.7,0.5,0.4,0.667556795026548,"true"
"image-keyboard-response",352,249497,"0.0-4.113-1.113","t2vfwg53gjeslzh",380,"168.csv","","null","resources/maskTrios/L1BB.jpg","null","",NA,NA,NA,NA,""
"image-keyboard-response",353,250701,"0.0-4.113-2.113","t2vfwg53gjeslzh",380,"168.csv","","null","resources/images/coin2.png","null","",NA,NA,NA,NA,""
"image-keyboard-response",354,250961,"0.0-4.114-0.114","t2vfwg53gjeslzh",380,"168.csv","","258.90000009536743","resources/trios/L1T4A2.jpg","37","restless",0.7,0.5,0.4,0.0579548352127131,"true"
"image-keyboard-response",355,251370,"0.0-4.114-1.114","t2vfwg53gjeslzh",380,"168.csv","","null","resources/maskTrios/L1BB.jpg","null","",NA,NA,NA,NA,""
"image-keyboard-response",356,252575,"0.0-4.114-2.114","t2vfwg53gjeslzh",380,"168.csv","","null","resources/images/coin2.png","null","",NA,NA,NA,NA,""
"image-keyboard-response",357,252869,"0.0-4.115-0.115","t2vfwg53gjeslzh",380,"168.csv","","292.7000000476837","resources/trios/L1T4A2.jpg","37","restless",0.8,0.5,0.4,0.0523465111451007,"true"
"image-keyboard-response",358,253279,"0.0-4.115-1.115","t2vfwg53gjeslzh",380,"168.csv","","null","resources/maskTrios/L1BB.jpg","null","",NA,NA,NA,NA,""
"image-keyboard-response",359,254481,"0.0-4.115-2.115","t2vfwg53gjeslzh",380,"168.csv","","null","resources/images/coin2.png","null","",NA,NA,NA,NA,""
"image-keyboard-response",360,254660,"0.0-4.116-0.116","t2vfwg53gjeslzh",380,"168.csv","","178.60000014305115","resources/trios/L1T4A2.jpg","37","restless",0.7,0.6,0.4,0.97247796178474,"false"
"image-keyboard-response",361,255072,"0.0-4.116-1.116","t2vfwg53gjeslzh",380,"168.csv","","null","resources/maskTrios/L1BB.jpg","null","",NA,NA,NA,NA,""
"image-keyboard-response",362,256275,"0.0-4.116-2.116","t2vfwg53gjeslzh",380,"168.csv","","null","resources/images/fishbone.png","null","",NA,NA,NA,NA,""
"image-keyboard-response",363,256308,"0.0-4.117-0.117","t2vfwg53gjeslzh",380,"168.csv","","32.09999990463257","resources/trios/L1T4A2.jpg","39","restless",0.7,0.6,0.5,0.804249347108038,"false"
"image-keyboard-response",364,256712,"0.0-4.117-1.117","t2vfwg53gjeslzh",380,"168.csv","","null","resources/maskTrios/BBA2.jpg","null","",NA,NA,NA,NA,""
"image-keyboard-response",365,257914,"0.0-4.117-2.117","t2vfwg53gjeslzh",380,"168.csv","","null","resources/images/fishbone.png","null","",NA,NA,NA,NA,""
"image-keyboard-response",366,258314,"0.0-4.118-0.118","t2vfwg53gjeslzh",380,"168.csv","","399","resources/trios/L1T4A2.jpg","38","restless",0.7,0.6,0.5,0.22643504863091,"true"
"image-keyboard-response",367,258725,"0.0-4.118-1.118","t2vfwg53gjeslzh",380,"168.csv","","null","resources/maskTrios/BT4B.jpg","null","",NA,NA,NA,NA,""
"image-keyboard-response",368,259942,"0.0-4.118-2.118","t2vfwg53gjeslzh",380,"168.csv","","null","resources/images/coin2.png","null","",NA,NA,NA,NA,""
"image-keyboard-response",369,260561,"0.0-4.119-0.119","t2vfwg53gjeslzh",380,"168.csv","","618.3999998569489","resources/trios/L1T4A2.jpg","38","restless",0.7,0.6,0.5,0.385867694675611,"true"
"image-keyboard-response",370,260970,"0.0-4.119-1.119","t2vfwg53gjeslzh",380,"168.csv","","null","resources/maskTrios/BT4B.jpg","null","",NA,NA,NA,NA,""
"image-keyboard-response",371,262175,"0.0-4.119-2.119","t2vfwg53gjeslzh",380,"168.csv","","null","resources/images/coin2.png","null","",NA,NA,NA,NA,""
"image-keyboard-response",372,262425,"0.0-4.120-0.120","t2vfwg53gjeslzh",380,"168.csv","","248.79999995231628","resources/trios/L1T4A2.jpg","38","restless",0.7,0.6,0.5,0.032973059381763,"true"
"image-keyboard-response",373,262833,"0.0-4.120-1.120","t2vfwg53gjeslzh",380,"168.csv","","null","resources/maskTrios/BT4B.jpg","null","",NA,NA,NA,NA,""
"image-keyboard-response",374,264047,"0.0-4.120-2.120","t2vfwg53gjeslzh",380,"168.csv","","null","resources/images/coin2.png","null","",NA,NA,NA,NA,""
"image-keyboard-response",375,264212,"0.0-4.121-0.121","t2vfwg53gjeslzh",380,"168.csv","","163.79999995231628","resources/trios/L1T4A2.jpg","38","restless",0.6,0.6,0.5,0.0823405878522911,"true"
"image-keyboard-response",376,264627,"0.0-4.121-1.121","t2vfwg53gjeslzh",380,"168.csv","","null","resources/maskTrios/BT4B.jpg","null","",NA,NA,NA,NA,""
"image-keyboard-response",377,265836,"0.0-4.121-2.121","t2vfwg53gjeslzh",380,"168.csv","","null","resources/images/coin2.png","null","",NA,NA,NA,NA,""
"image-keyboard-response",378,266068,"0.0-4.122-0.122","t2vfwg53gjeslzh",380,"168.csv","","230.70000004768372","resources/trios/L1T4A2.jpg","38","restless",0.6,0.6,0.5,0.115286671557484,"true"
"image-keyboard-response",379,266477,"0.0-4.122-1.122","t2vfwg53gjeslzh",380,"168.csv","","null","resources/maskTrios/BT4B.jpg","null","",NA,NA,NA,NA,""
"image-keyboard-response",380,267681,"0.0-4.122-2.122","t2vfwg53gjeslzh",380,"168.csv","","null","resources/images/coin2.png","null","",NA,NA,NA,NA,""
"image-keyboard-response",381,267981,"0.0-4.123-0.123","t2vfwg53gjeslzh",380,"168.csv","","299.2999999523163","resources/trios/L1T4A2.jpg","38","restless",0.6,0.6,0.5,0.308755193495654,"true"
"image-keyboard-response",382,268384,"0.0-4.123-1.123","t2vfwg53gjeslzh",380,"168.csv","","null","resources/maskTrios/BT4B.jpg","null","",NA,NA,NA,NA,""
"image-keyboard-response",383,269587,"0.0-4.123-2.123","t2vfwg53gjeslzh",380,"168.csv","","null","resources/images/coin2.png","null","",NA,NA,NA,NA,""
"image-keyboard-response",384,269896,"0.0-4.124-0.124","t2vfwg53gjeslzh",380,"168.csv","","308.80000019073486","resources/trios/L1T4A2.jpg","38","restless",0.6,0.6,0.5,0.0915416045492949,"true"
"image-keyboard-response",385,270308,"0.0-4.124-1.124","t2vfwg53gjeslzh",380,"168.csv","","null","resources/maskTrios/BT4B.jpg","null","",NA,NA,NA,NA,""
"image-keyboard-response",386,271518,"0.0-4.124-2.124","t2vfwg53gjeslzh",380,"168.csv","","null","resources/images/coin2.png","null","",NA,NA,NA,NA,""
"image-keyboard-response",387,271782,"0.0-4.125-0.125","t2vfwg53gjeslzh",380,"168.csv","","263.39999985694885","resources/trios/L1T4A2.jpg","38","restless",0.6,0.6,0.5,0.558867476019295,"true"
"image-keyboard-response",388,272196,"0.0-4.125-1.125","t2vfwg53gjeslzh",380,"168.csv","","null","resources/maskTrios/BT4B.jpg","null","",NA,NA,NA,NA,""
"image-keyboard-response",389,273403,"0.0-4.125-2.125","t2vfwg53gjeslzh",380,"168.csv","","null","resources/images/coin2.png","null","",NA,NA,NA,NA,""
"image-keyboard-response",390,273601,"0.0-4.126-0.126","t2vfwg53gjeslzh",380,"168.csv","","197","resources/trios/L1T4A2.jpg","38","restless",0.6,0.6,0.5,0.656509285776278,"false"
"image-keyboard-response",391,274014,"0.0-4.126-1.126","t2vfwg53gjeslzh",380,"168.csv","","null","resources/maskTrios/BT4B.jpg","null","",NA,NA,NA,NA,""
"image-keyboard-response",392,275221,"0.0-4.126-2.126","t2vfwg53gjeslzh",380,"168.csv","","null","resources/images/fishbone.png","null","",NA,NA,NA,NA,""
"image-keyboard-response",393,275250,"0.0-4.127-0.127","t2vfwg53gjeslzh",380,"168.csv","","28.300000190734863","resources/trios/L1T4A2.jpg","37","restless",0.6,0.6,0.5,0.942814023451577,"false"
"image-keyboard-response",394,275662,"0.0-4.127-1.127","t2vfwg53gjeslzh",380,"168.csv","","null","resources/maskTrios/L1BB.jpg","null","",NA,NA,NA,NA,""
"image-keyboard-response",395,276870,"0.0-4.127-2.127","t2vfwg53gjeslzh",380,"168.csv","","null","resources/images/fishbone.png","null","",NA,NA,NA,NA,""
"image-keyboard-response",396,276945,"0.0-4.128-0.128","t2vfwg53gjeslzh",380,"168.csv","","74.29999995231628","resources/trios/L1T4A2.jpg","39","restless",0.6,0.6,0.5,0.115883507488979,"true"
"image-keyboard-response",397,277355,"0.0-4.128-1.128","t2vfwg53gjeslzh",380,"168.csv","","null","resources/maskTrios/BBA2.jpg","null","",NA,NA,NA,NA,""
"image-keyboard-response",398,278560,"0.0-4.128-2.128","t2vfwg53gjeslzh",380,"168.csv","","null","resources/images/coin2.png","null","",NA,NA,NA,NA,""
"image-keyboard-response",399,278562,"0.0-4.129-0.129","t2vfwg53gjeslzh",380,"168.csv","","1","resources/trios/L1T4A2.jpg","39","restless",0.6,0.6,0.5,0.62954618331387,"false"
"image-keyboard-response",400,278964,"0.0-4.129-1.129","t2vfwg53gjeslzh",380,"168.csv","","null","resources/maskTrios/BBA2.jpg","null","",NA,NA,NA,NA,""
"image-keyboard-response",401,280168,"0.0-4.129-2.129","t2vfwg53gjeslzh",380,"168.csv","","null","resources/images/fishbone.png","null","",NA,NA,NA,NA,""
"image-keyboard-response",402,280243,"0.0-4.130-0.130","t2vfwg53gjeslzh",380,"168.csv","","74.20000004768372","resources/trios/L1T4A2.jpg","38","restless",0.6,0.6,0.5,0.0627612467115233,"true"
"image-keyboard-response",403,280651,"0.0-4.130-1.130","t2vfwg53gjeslzh",380,"168.csv","","null","resources/maskTrios/BT4B.jpg","null","",NA,NA,NA,NA,""
"image-keyboard-response",404,281869,"0.0-4.130-2.130","t2vfwg53gjeslzh",380,"168.csv","","null","resources/images/coin2.png","null","",NA,NA,NA,NA,""
"image-keyboard-response",405,282127,"0.0-4.131-0.131","t2vfwg53gjeslzh",380,"168.csv","","257","resources/trios/L1T4A2.jpg","38","restless",0.6,0.6,0.4,0.902699196867979,"false"
"image-keyboard-response",406,282541,"0.0-4.131-1.131","t2vfwg53gjeslzh",380,"168.csv","","null","resources/maskTrios/BT4B.jpg","null","",NA,NA,NA,NA,""
"image-keyboard-response",407,283745,"0.0-4.131-2.131","t2vfwg53gjeslzh",380,"168.csv","","null","resources/images/fishbone.png","null","",NA,NA,NA,NA,""
"image-keyboard-response",408,284165,"0.0-4.132-0.132","t2vfwg53gjeslzh",380,"168.csv","","419.19999980926514","resources/trios/L1T4A2.jpg","37","restless",0.6,0.6,0.4,0.896853702015741,"false"
"image-keyboard-response",409,284570,"0.0-4.132-1.132","t2vfwg53gjeslzh",380,"168.csv","","null","resources/maskTrios/L1BB.jpg","null","",NA,NA,NA,NA,""
"image-keyboard-response",410,285778,"0.0-4.132-2.132","t2vfwg53gjeslzh",380,"168.csv","","null","resources/images/fishbone.png","null","",NA,NA,NA,NA,""
"image-keyboard-response",411,285969,"0.0-4.133-0.133","t2vfwg53gjeslzh",380,"168.csv","","189.90000009536743","resources/trios/L1T4A2.jpg","39","restless",0.6,0.6,0.4,0.20000454058099,"true"
"image-keyboard-response",412,286386,"0.0-4.133-1.133","t2vfwg53gjeslzh",380,"168.csv","","null","resources/maskTrios/BBA2.jpg","null","",NA,NA,NA,NA,""
"image-keyboard-response",413,287593,"0.0-4.133-2.133","t2vfwg53gjeslzh",380,"168.csv","","null","resources/images/coin2.png","null","",NA,NA,NA,NA,""
"image-keyboard-response",414,287875,"0.0-4.134-0.134","t2vfwg53gjeslzh",380,"168.csv","","281.40000009536743","resources/trios/L1T4A2.jpg","39","restless",0.6,0.6,0.4,0.603789553720514,"false"
"image-keyboard-response",415,288289,"0.0-4.134-1.134","t2vfwg53gjeslzh",380,"168.csv","","null","resources/maskTrios/BBA2.jpg","null","",NA,NA,NA,NA,""
"image-keyboard-response",416,289493,"0.0-4.134-2.134","t2vfwg53gjeslzh",380,"168.csv","","null","resources/images/fishbone.png","null","",NA,NA,NA,NA,""
"image-keyboard-response",417,289756,"0.0-4.135-0.135","t2vfwg53gjeslzh",380,"168.csv","","262","resources/trios/L1T4A2.jpg","38","restless",0.6,0.6,0.4,0.0506001814797814,"true"
"image-keyboard-response",418,290170,"0.0-4.135-1.135","t2vfwg53gjeslzh",380,"168.csv","","null","resources/maskTrios/BT4B.jpg","null","",NA,NA,NA,NA,""
"image-keyboard-response",419,291374,"0.0-4.135-2.135","t2vfwg53gjeslzh",380,"168.csv","","null","resources/images/coin2.png","null","",NA,NA,NA,NA,""
"image-keyboard-response",420,291675,"0.0-4.136-0.136","t2vfwg53gjeslzh",380,"168.csv","","300.39999985694885","resources/trios/L1T4A2.jpg","38","restless",0.6,0.5,0.4,0.75603214933829,"false"
"image-keyboard-response",421,292080,"0.0-4.136-1.136","t2vfwg53gjeslzh",380,"168.csv","","null","resources/maskTrios/BT4B.jpg","null","",NA,NA,NA,NA,""
"image-keyboard-response",422,293295,"0.0-4.136-2.136","t2vfwg53gjeslzh",380,"168.csv","","null","resources/images/fishbone.png","null","",NA,NA,NA,NA,""
"image-keyboard-response",423,293374,"0.0-4.137-0.137","t2vfwg53gjeslzh",380,"168.csv","","78.10000014305115","resources/trios/L1T4A2.jpg","37","restless",0.5,0.5,0.4,0.865560578322464,"false"
"image-keyboard-response",424,293779,"0.0-4.137-1.137","t2vfwg53gjeslzh",380,"168.csv","","null","resources/maskTrios/L1BB.jpg","null","",NA,NA,NA,NA,""
"image-keyboard-response",425,294992,"0.0-4.137-2.137","t2vfwg53gjeslzh",380,"168.csv","","null","resources/images/fishbone.png","null","",NA,NA,NA,NA,""
"image-keyboard-response",426,295000,"0.0-4.138-0.138","t2vfwg53gjeslzh",380,"168.csv","","7.199999809265137","resources/trios/L1T4A2.jpg","39","restless",0.5,0.5,0.4,0.0811550395849443,"true"
"image-keyboard-response",427,295415,"0.0-4.138-1.138","t2vfwg53gjeslzh",380,"168.csv","","null","resources/maskTrios/BBA2.jpg","null","",NA,NA,NA,NA,""
"image-keyboard-response",428,296617,"0.0-4.138-2.138","t2vfwg53gjeslzh",380,"168.csv","","null","resources/images/coin2.png","null","",NA,NA,NA,NA,""
"image-keyboard-response",429,296716,"0.0-4.139-0.139","t2vfwg53gjeslzh",380,"168.csv","","98.60000014305115","resources/trios/L1T4A2.jpg","39","restless",0.5,0.5,0.4,0.496491110062343,"false"
"image-keyboard-response",430,297119,"0.0-4.139-1.139","t2vfwg53gjeslzh",380,"168.csv","","null","resources/maskTrios/BBA2.jpg","null","",NA,NA,NA,NA,""
"image-keyboard-response",431,298335,"0.0-4.139-2.139","t2vfwg53gjeslzh",380,"168.csv","","null","resources/images/fishbone.png","null","",NA,NA,NA,NA,""
"image-keyboard-response",432,298662,"0.0-4.140-0.140","t2vfwg53gjeslzh",380,"168.csv","","326.09999990463257","resources/trios/L1T4A2.jpg","38","restless",0.5,0.5,0.4,0.0919906290324304,"true"
"image-keyboard-response",433,299071,"0.0-4.140-1.140","t2vfwg53gjeslzh",380,"168.csv","","null","resources/maskTrios/BT4B.jpg","null","",NA,NA,NA,NA,""
"image-keyboard-response",434,300279,"0.0-4.140-2.140","t2vfwg53gjeslzh",380,"168.csv","","null","resources/images/coin2.png","null","",NA,NA,NA,NA,""
"image-keyboard-response",435,300491,"0.0-4.141-0.141","t2vfwg53gjeslzh",380,"168.csv","","211.5","resources/trios/L1T4A2.jpg","38","restless",0.6,0.5,0.4,0.803286953129156,"false"
"image-keyboard-response",436,300904,"0.0-4.141-1.141","t2vfwg53gjeslzh",380,"168.csv","","null","resources/maskTrios/BT4B.jpg","null","",NA,NA,NA,NA,""
"image-keyboard-response",437,302106,"0.0-4.141-2.141","t2vfwg53gjeslzh",380,"168.csv","","null","resources/images/fishbone.png","null","",NA,NA,NA,NA,""
"image-keyboard-response",438,302359,"0.0-4.142-0.142","t2vfwg53gjeslzh",380,"168.csv","","252.10000014305115","resources/trios/L1T4A2.jpg","37","restless",0.6,0.5,0.4,0.744325728710238,"false"
"image-keyboard-response",439,302765,"0.0-4.142-1.142","t2vfwg53gjeslzh",380,"168.csv","","null","resources/maskTrios/L1BB.jpg","null","",NA,NA,NA,NA,""
"image-keyboard-response",440,303976,"0.0-4.142-2.142","t2vfwg53gjeslzh",380,"168.csv","","null","resources/images/fishbone.png","null","",NA,NA,NA,NA,""
"image-keyboard-response",441,304316,"0.0-4.143-0.143","t2vfwg53gjeslzh",380,"168.csv","","339.39999985694885","resources/trios/L1T4A2.jpg","39","restless",0.5,0.5,0.4,0.290498741866639,"true"
"image-keyboard-response",442,304724,"0.0-4.143-1.143","t2vfwg53gjeslzh",380,"168.csv","","null","resources/maskTrios/BBA2.jpg","null","",NA,NA,NA,NA,""
"image-keyboard-response",443,305934,"0.0-4.143-2.143","t2vfwg53gjeslzh",380,"168.csv","","null","resources/images/coin2.png","null","",NA,NA,NA,NA,""
"image-keyboard-response",444,306180,"0.0-4.144-0.144","t2vfwg53gjeslzh",380,"168.csv","","244.60000014305115","resources/trios/L1T4A2.jpg","39","restless",0.5,0.5,0.4,0.227613641521288,"true"
"image-keyboard-response",445,306591,"0.0-4.144-1.144","t2vfwg53gjeslzh",380,"168.csv","","null","resources/maskTrios/BBA2.jpg","null","",NA,NA,NA,NA,""
"image-keyboard-response",446,307803,"0.0-4.144-2.144","t2vfwg53gjeslzh",380,"168.csv","","null","resources/images/coin2.png","null","",NA,NA,NA,NA,""
"image-keyboard-response",447,308326,"0.0-4.145-0.145","t2vfwg53gjeslzh",380,"168.csv","","522","resources/trios/L1T4A2.jpg","39","restless",0.6,0.5,0.4,0.282463278608316,"true"
"image-keyboard-response",448,308728,"0.0-4.145-1.145","t2vfwg53gjeslzh",380,"168.csv","","null","resources/maskTrios/BBA2.jpg","null","",NA,NA,NA,NA,""
"image-keyboard-response",449,309929,"0.0-4.145-2.145","t2vfwg53gjeslzh",380,"168.csv","","null","resources/images/coin2.png","null","",NA,NA,NA,NA,""
"image-keyboard-response",450,311355,"0.0-4.146-0.146","t2vfwg53gjeslzh",380,"168.csv","","1425.2000000476837","resources/trios/L1T4A2.jpg","39","restless",0.6,0.5,0.4,0.485766922200421,"false"
"image-keyboard-response",451,311767,"0.0-4.146-1.146","t2vfwg53gjeslzh",380,"168.csv","","null","resources/maskTrios/BBA2.jpg","null","",NA,NA,NA,NA,""
"image-keyboard-response",452,312972,"0.0-4.146-2.146","t2vfwg53gjeslzh",380,"168.csv","","null","resources/images/fishbone.png","null","",NA,NA,NA,NA,""
"image-keyboard-response",453,313162,"0.0-4.147-0.147","t2vfwg53gjeslzh",380,"168.csv","","188","resources/trios/L1T4A2.jpg","38","restless",0.6,0.5,0.4,0.858740745638376,"false"
"image-keyboard-response",454,313567,"0.0-4.147-1.147","t2vfwg53gjeslzh",380,"168.csv","","null","resources/maskTrios/BT4B.jpg","null","",NA,NA,NA,NA,""
"image-keyboard-response",455,314774,"0.0-4.147-2.147","t2vfwg53gjeslzh",380,"168.csv","","null","resources/images/fishbone.png","null","",NA,NA,NA,NA,""
"image-keyboard-response",456,314795,"0.0-4.148-0.148","t2vfwg53gjeslzh",380,"168.csv","","20.200000047683716","resources/trios/L1T4A2.jpg","37","restless",0.6,0.5,0.4,0.0022543820079961,"true"
"image-keyboard-response",457,315212,"0.0-4.148-1.148","t2vfwg53gjeslzh",380,"168.csv","","null","resources/maskTrios/L1BB.jpg","null","",NA,NA,NA,NA,""
"image-keyboard-response",458,316421,"0.0-4.148-2.148","t2vfwg53gjeslzh",380,"168.csv","","null","resources/images/coin2.png","null","",NA,NA,NA,NA,""
"image-keyboard-response",459,316439,"0.0-4.149-0.149","t2vfwg53gjeslzh",380,"168.csv","","16.90000009536743","resources/trios/L1T4A2.jpg","37","restless",0.6,0.5,0.4,0.359729538961816,"true"
"image-keyboard-response",460,316842,"0.0-4.149-1.149","t2vfwg53gjeslzh",380,"168.csv","","null","resources/maskTrios/L1BB.jpg","null","",NA,NA,NA,NA,""
"image-keyboard-response",461,318054,"0.0-4.149-2.149","t2vfwg53gjeslzh",380,"168.csv","","null","resources/images/coin2.png","null","",NA,NA,NA,NA,""
"image-keyboard-response",462,318063,"0.0-4.150-0.150","t2vfwg53gjeslzh",380,"168.csv","","8","resources/trios/L1T4A2.jpg","37","restless",0.6,0.5,0.4,0.106685876081941,"true"
"image-keyboard-response",463,318480,"0.0-4.150-1.150","t2vfwg53gjeslzh",380,"168.csv","","null","resources/maskTrios/L1BB.jpg","null","",NA,NA,NA,NA,""
"image-keyboard-response",464,319690,"0.0-4.150-2.150","t2vfwg53gjeslzh",380,"168.csv","","null","resources/images/coin2.png","null","",NA,NA,NA,NA,""
"image-keyboard-response",465,319896,"0.0-4.151-0.151","t2vfwg53gjeslzh",380,"168.csv","","205.59999990463257","resources/trios/L1T4A2.jpg","37","restless",0.5,0.5,0.4,0.409235924730924,"true"
"image-keyboard-response",466,320299,"0.0-4.151-1.151","t2vfwg53gjeslzh",380,"168.csv","","null","resources/maskTrios/L1BB.jpg","null","",NA,NA,NA,NA,""
"image-keyboard-response",467,321513,"0.0-4.151-2.151","t2vfwg53gjeslzh",380,"168.csv","","null","resources/images/coin2.png","null","",NA,NA,NA,NA,""
"image-keyboard-response",468,321820,"0.0-4.152-0.152","t2vfwg53gjeslzh",380,"168.csv","","306.5","resources/trios/L1T4A2.jpg","37","restless",0.5,0.5,0.4,0.704377223828591,"false"
"image-keyboard-response",469,322232,"0.0-4.152-1.152","t2vfwg53gjeslzh",380,"168.csv","","null","resources/maskTrios/L1BB.jpg","null","",NA,NA,NA,NA,""
"image-keyboard-response",470,323437,"0.0-4.152-2.152","t2vfwg53gjeslzh",380,"168.csv","","null","resources/images/fishbone.png","null","",NA,NA,NA,NA,""
"image-keyboard-response",471,323578,"0.0-4.153-0.153","t2vfwg53gjeslzh",380,"168.csv","","140.70000004768372","resources/trios/L1T4A2.jpg","39","restless",0.5,0.5,0.4,0.98702842382697,"false"
"image-keyboard-response",472,323983,"0.0-4.153-1.153","t2vfwg53gjeslzh",380,"168.csv","","null","resources/maskTrios/BBA2.jpg","null","",NA,NA,NA,NA,""
"image-keyboard-response",473,325199,"0.0-4.153-2.153","t2vfwg53gjeslzh",380,"168.csv","","null","resources/images/fishbone.png","null","",NA,NA,NA,NA,""
"image-keyboard-response",474,325216,"0.0-4.154-0.154","t2vfwg53gjeslzh",380,"168.csv","","15.5","resources/trios/L1T4A2.jpg","38","restless",0.4,0.5,0.4,0.0346326343900851,"true"
"image-keyboard-response",475,325622,"0.0-4.154-1.154","t2vfwg53gjeslzh",380,"168.csv","","null","resources/maskTrios/BT4B.jpg","null","",NA,NA,NA,NA,""
"image-keyboard-response",476,326836,"0.0-4.154-2.154","t2vfwg53gjeslzh",380,"168.csv","","null","resources/images/coin2.png","null","",NA,NA,NA,NA,""
"image-keyboard-response",477,327073,"0.0-4.155-0.155","t2vfwg53gjeslzh",380,"168.csv","","235.09999990463257","resources/trios/L1T4A2.jpg","38","restless",0.4,0.5,0.4,0.607910242691914,"false"
"image-keyboard-response",478,327481,"0.0-4.155-1.155","t2vfwg53gjeslzh",380,"168.csv","","null","resources/maskTrios/BT4B.jpg","null","",NA,NA,NA,NA,""
"image-keyboard-response",479,328684,"0.0-4.155-2.155","t2vfwg53gjeslzh",380,"168.csv","","null","resources/images/fishbone.png","null","",NA,NA,NA,NA,""
"image-keyboard-response",480,329062,"0.0-4.156-0.156","t2vfwg53gjeslzh",380,"168.csv","","377.09999990463257","resources/trios/L1T4A2.jpg","37","restless",0.4,0.5,0.4,0.882809851942231,"false"
"image-keyboard-response",481,329467,"0.0-4.156-1.156","t2vfwg53gjeslzh",380,"168.csv","","null","resources/maskTrios/L1BB.jpg","null","",NA,NA,NA,NA,""
"image-keyboard-response",482,330671,"0.0-4.156-2.156","t2vfwg53gjeslzh",380,"168.csv","","null","resources/images/fishbone.png","null","",NA,NA,NA,NA,""
"image-keyboard-response",483,330922,"0.0-4.157-0.157","t2vfwg53gjeslzh",380,"168.csv","","249.89999985694885","resources/trios/L1T4A2.jpg","39","restless",0.4,0.5,0.4,0.465808366194333,"false"
"image-keyboard-response",484,331330,"0.0-4.157-1.157","t2vfwg53gjeslzh",380,"168.csv","","null","resources/maskTrios/BBA2.jpg","null","",NA,NA,NA,NA,""
"image-keyboard-response",485,332532,"0.0-4.157-2.157","t2vfwg53gjeslzh",380,"168.csv","","null","resources/images/fishbone.png","null","",NA,NA,NA,NA,""
"image-keyboard-response",486,332879,"0.0-4.158-0.158","t2vfwg53gjeslzh",380,"168.csv","","345.2000000476837","resources/trios/L1T4A2.jpg","38","restless",0.4,0.5,0.4,0.133573563224083,"true"
"image-keyboard-response",487,333283,"0.0-4.158-1.158","t2vfwg53gjeslzh",380,"168.csv","","null","resources/maskTrios/BT4B.jpg","null","",NA,NA,NA,NA,""
"image-keyboard-response",488,334486,"0.0-4.158-2.158","t2vfwg53gjeslzh",380,"168.csv","","null","resources/images/coin2.png","null","",NA,NA,NA,NA,""
"image-keyboard-response",489,334746,"0.0-4.159-0.159","t2vfwg53gjeslzh",380,"168.csv","","259","resources/trios/L1T4A2.jpg","38","restless",0.4,0.4,0.4,0.00989979774859595,"true"
"image-keyboard-response",490,335158,"0.0-4.159-1.159","t2vfwg53gjeslzh",380,"168.csv","","null","resources/maskTrios/BT4B.jpg","null","",NA,NA,NA,NA,""
"image-keyboard-response",491,336362,"0.0-4.159-2.159","t2vfwg53gjeslzh",380,"168.csv","","null","resources/images/coin2.png","null","",NA,NA,NA,NA,""
"image-keyboard-response",492,336642,"0.0-4.160-0.160","t2vfwg53gjeslzh",380,"168.csv","","278.90000009536743","resources/trios/L1T4A2.jpg","38","restless",0.4,0.4,0.4,0.324176726102442,"true"
"image-keyboard-response",493,337044,"0.0-4.160-1.160","t2vfwg53gjeslzh",380,"168.csv","","null","resources/maskTrios/BT4B.jpg","null","",NA,NA,NA,NA,""
"image-keyboard-response",494,338256,"0.0-4.160-2.160","t2vfwg53gjeslzh",380,"168.csv","","null","resources/images/coin2.png","null","",NA,NA,NA,NA,""
"image-keyboard-response",495,338494,"0.0-4.161-0.161","t2vfwg53gjeslzh",380,"168.csv","","236.79999995231628","resources/trios/L1T4A2.jpg","38","restless",0.4,0.4,0.4,0.460486458960211,"false"
"image-keyboard-response",496,338897,"0.0-4.161-1.161","t2vfwg53gjeslzh",380,"168.csv","","null","resources/maskTrios/BT4B.jpg","null","",NA,NA,NA,NA,""
"image-keyboard-response",497,340103,"0.0-4.161-2.161","t2vfwg53gjeslzh",380,"168.csv","","null","resources/images/fishbone.png","null","",NA,NA,NA,NA,""
"image-keyboard-response",498,340394,"0.0-4.162-0.162","t2vfwg53gjeslzh",380,"168.csv","","290.09999990463257","resources/trios/L1T4A2.jpg","37","restless",0.4,0.4,0.4,0.65520260404871,"false"
"image-keyboard-response",499,340796,"0.0-4.162-1.162","t2vfwg53gjeslzh",380,"168.csv","","null","resources/maskTrios/L1BB.jpg","null","",NA,NA,NA,NA,""
"image-keyboard-response",500,342002,"0.0-4.162-2.162","t2vfwg53gjeslzh",380,"168.csv","","null","resources/images/fishbone.png","null","",NA,NA,NA,NA,""
"image-keyboard-response",501,342153,"0.0-4.163-0.163","t2vfwg53gjeslzh",380,"168.csv","","149.79999995231628","resources/trios/L1T4A2.jpg","38","restless",0.4,0.4,0.4,0.716249840053016,"false"
"image-keyboard-response",502,342568,"0.0-4.163-1.163","t2vfwg53gjeslzh",380,"168.csv","","null","resources/maskTrios/BT4B.jpg","null","",NA,NA,NA,NA,""
"image-keyboard-response",503,343775,"0.0-4.163-2.163","t2vfwg53gjeslzh",380,"168.csv","","null","resources/images/fishbone.png","null","",NA,NA,NA,NA,""
"image-keyboard-response",504,343880,"0.0-4.164-0.164","t2vfwg53gjeslzh",380,"168.csv","","103.90000009536743","resources/trios/L1T4A2.jpg","39","restless",0.4,0.4,0.5,0.369260187899616,"true"
"image-keyboard-response",505,344290,"0.0-4.164-1.164","t2vfwg53gjeslzh",380,"168.csv","","null","resources/maskTrios/BBA2.jpg","null","",NA,NA,NA,NA,""
"image-keyboard-response",506,345493,"0.0-4.164-2.164","t2vfwg53gjeslzh",380,"168.csv","","null","resources/images/coin2.png","null","",NA,NA,NA,NA,""
"image-keyboard-response",507,345513,"0.0-4.165-0.165","t2vfwg53gjeslzh",380,"168.csv","","18.90000009536743","resources/trios/L1T4A2.jpg","39","restless",0.4,0.3,0.5,0.728158260052907,"false"
"image-keyboard-response",508,345915,"0.0-4.165-1.165","t2vfwg53gjeslzh",380,"168.csv","","null","resources/maskTrios/BBA2.jpg","null","",NA,NA,NA,NA,""
"image-keyboard-response",509,347117,"0.0-4.165-2.165","t2vfwg53gjeslzh",380,"168.csv","","null","resources/images/fishbone.png","null","",NA,NA,NA,NA,""
"image-keyboard-response",510,347506,"0.0-4.166-0.166","t2vfwg53gjeslzh",380,"168.csv","","387.2000000476837","resources/trios/L1T4A2.jpg","38","restless",0.4,0.3,0.5,0.673639352152264,"false"
"image-keyboard-response",511,347912,"0.0-4.166-1.166","t2vfwg53gjeslzh",380,"168.csv","","null","resources/maskTrios/BT4B.jpg","null","",NA,NA,NA,NA,""
"image-keyboard-response",512,349117,"0.0-4.166-2.166","t2vfwg53gjeslzh",380,"168.csv","","null","resources/images/fishbone.png","null","",NA,NA,NA,NA,""
"image-keyboard-response",513,350507,"0.0-4.167-0.167","t2vfwg53gjeslzh",380,"168.csv","","1389.1000001430511","resources/trios/L1T4A2.jpg","37","restless",0.4,0.3,0.6,0.870954704319857,"false"
"image-keyboard-response",514,350914,"0.0-4.167-1.167","t2vfwg53gjeslzh",380,"168.csv","","null","resources/maskTrios/L1BB.jpg","null","",NA,NA,NA,NA,""
"image-keyboard-response",515,352119,"0.0-4.167-2.167","t2vfwg53gjeslzh",380,"168.csv","","null","resources/images/fishbone.png","null","",NA,NA,NA,NA,""
"image-keyboard-response",516,352538,"0.0-4.168-0.168","t2vfwg53gjeslzh",380,"168.csv","","417.2999999523163","resources/trios/L1T4A2.jpg","38","restless",0.4,0.3,0.6,0.590845041036306,"false"
"image-keyboard-response",517,352949,"0.0-4.168-1.168","t2vfwg53gjeslzh",380,"168.csv","","null","resources/maskTrios/BT4B.jpg","null","",NA,NA,NA,NA,""
"image-keyboard-response",518,354161,"0.0-4.168-2.168","t2vfwg53gjeslzh",380,"168.csv","","null","resources/images/fishbone.png","null","",NA,NA,NA,NA,""
"image-keyboard-response",519,354644,"0.0-4.169-0.169","t2vfwg53gjeslzh",380,"168.csv","","482.2999999523163","resources/trios/L1T4A2.jpg","39","restless",0.4,0.3,0.6,0.994299270538778,"false"
"image-keyboard-response",520,355055,"0.0-4.169-1.169","t2vfwg53gjeslzh",380,"168.csv","","null","resources/maskTrios/BBA2.jpg","null","",NA,NA,NA,NA,""
"image-keyboard-response",521,356260,"0.0-4.169-2.169","t2vfwg53gjeslzh",380,"168.csv","","null","resources/images/fishbone.png","null","",NA,NA,NA,NA,""
"image-keyboard-response",522,356271,"0.0-4.170-0.170","t2vfwg53gjeslzh",380,"168.csv","","9.900000095367432","resources/trios/L1T4A2.jpg","38","restless",0.4,0.3,0.6,0.33359330038303,"false"
"image-keyboard-response",523,356680,"0.0-4.170-1.170","t2vfwg53gjeslzh",380,"168.csv","","null","resources/maskTrios/BT4B.jpg","null","",NA,NA,NA,NA,""
"image-keyboard-response",524,357882,"0.0-4.170-2.170","t2vfwg53gjeslzh",380,"168.csv","","null","resources/images/fishbone.png","null","",NA,NA,NA,NA,""
"image-keyboard-response",525,358344,"0.0-4.171-0.171","t2vfwg53gjeslzh",380,"168.csv","","461.2000000476837","resources/trios/L1T4A2.jpg","37","restless",0.4,0.3,0.6,0.440750920294142,"false"
"image-keyboard-response",526,358751,"0.0-4.171-1.171","t2vfwg53gjeslzh",380,"168.csv","","null","resources/maskTrios/L1BB.jpg","null","",NA,NA,NA,NA,""
"image-keyboard-response",527,359953,"0.0-4.171-2.171","t2vfwg53gjeslzh",380,"168.csv","","null","resources/images/fishbone.png","null","",NA,NA,NA,NA,""
"image-keyboard-response",528,360621,"0.0-4.172-0.172","t2vfwg53gjeslzh",380,"168.csv","","667.6000001430511","resources/trios/L1T4A2.jpg","38","restless",0.4,0.4,0.6,0.776816273661723,"false"
"image-keyboard-response",529,361030,"0.0-4.172-1.172","t2vfwg53gjeslzh",380,"168.csv","","null","resources/maskTrios/BT4B.jpg","null","",NA,NA,NA,NA,""
"image-keyboard-response",530,362233,"0.0-4.172-2.172","t2vfwg53gjeslzh",380,"168.csv","","null","resources/images/fishbone.png","null","",NA,NA,NA,NA,""
"image-keyboard-response",531,362485,"0.0-4.173-0.173","t2vfwg53gjeslzh",380,"168.csv","","250.79999995231628","resources/trios/L1T4A2.jpg","38","restless",0.4,0.4,0.6,0.921754664750753,"false"
"image-keyboard-response",532,362894,"0.0-4.173-1.173","t2vfwg53gjeslzh",380,"168.csv","","null","resources/maskTrios/BT4B.jpg","null","",NA,NA,NA,NA,""
"image-keyboard-response",533,364106,"0.0-4.173-2.173","t2vfwg53gjeslzh",380,"168.csv","","null","resources/images/fishbone.png","null","",NA,NA,NA,NA,""
"image-keyboard-response",534,364141,"0.0-4.174-0.174","t2vfwg53gjeslzh",380,"168.csv","","34.299999952316284","resources/trios/L1T4A2.jpg","39","restless",0.4,0.4,0.6,0.956328248967832,"false"
"image-keyboard-response",535,364543,"0.0-4.174-1.174","t2vfwg53gjeslzh",380,"168.csv","","null","resources/maskTrios/BBA2.jpg","null","",NA,NA,NA,NA,""
"image-keyboard-response",536,365749,"0.0-4.174-2.174","t2vfwg53gjeslzh",380,"168.csv","","null","resources/images/fishbone.png","null","",NA,NA,NA,NA,""
"image-keyboard-response",537,366085,"0.0-4.175-0.175","t2vfwg53gjeslzh",380,"168.csv","","334.90000009536743","resources/trios/L1T4A2.jpg","38","restless",0.4,0.4,0.6,0.264281330749352,"true"
"image-keyboard-response",538,366498,"0.0-4.175-1.175","t2vfwg53gjeslzh",380,"168.csv","","null","resources/maskTrios/BT4B.jpg","null","",NA,NA,NA,NA,""
"image-keyboard-response",539,367714,"0.0-4.175-2.175","t2vfwg53gjeslzh",380,"168.csv","","null","resources/images/coin2.png","null","",NA,NA,NA,NA,""
"image-keyboard-response",540,367887,"0.0-4.176-0.176","t2vfwg53gjeslzh",380,"168.csv","","172.20000004768372","resources/trios/L1T4A2.jpg","38","restless",0.4,0.4,0.6,0.0792499437106375,"true"
"image-keyboard-response",541,368292,"0.0-4.176-1.176","t2vfwg53gjeslzh",380,"168.csv","","null","resources/maskTrios/BT4B.jpg","null","",NA,NA,NA,NA,""
"image-keyboard-response",542,369498,"0.0-4.176-2.176","t2vfwg53gjeslzh",380,"168.csv","","null","resources/images/coin2.png","null","",NA,NA,NA,NA,""
"image-keyboard-response",543,369532,"0.0-4.177-0.177","t2vfwg53gjeslzh",380,"168.csv","","33.09999990463257","resources/trios/L1T4A2.jpg","38","restless",0.3,0.4,0.6,0.0454517171573408,"true"
"image-keyboard-response",544,369936,"0.0-4.177-1.177","t2vfwg53gjeslzh",380,"168.csv","","null","resources/maskTrios/BT4B.jpg","null","",NA,NA,NA,NA,""
"image-keyboard-response",545,371144,"0.0-4.177-2.177","t2vfwg53gjeslzh",380,"168.csv","","null","resources/images/coin2.png","null","",NA,NA,NA,NA,""
"image-keyboard-response",546,371609,"0.0-4.178-0.178","t2vfwg53gjeslzh",380,"168.csv","","464","resources/trios/L1T4A2.jpg","38","restless",0.3,0.4,0.6,0.427143730641747,"false"
"image-keyboard-response",547,372018,"0.0-4.178-1.178","t2vfwg53gjeslzh",380,"168.csv","","null","resources/maskTrios/BT4B.jpg","null","",NA,NA,NA,NA,""
"image-keyboard-response",548,373224,"0.0-4.178-2.178","t2vfwg53gjeslzh",380,"168.csv","","null","resources/images/fishbone.png","null","",NA,NA,NA,NA,""
"image-keyboard-response",549,373450,"0.0-4.179-0.179","t2vfwg53gjeslzh",380,"168.csv","","225.39999985694885","resources/trios/L1T4A2.jpg","37","restless",0.3,0.4,0.6,0.884433463198759,"false"
"image-keyboard-response",550,373864,"0.0-4.179-1.179","t2vfwg53gjeslzh",380,"168.csv","","null","resources/maskTrios/L1BB.jpg","null","",NA,NA,NA,NA,""
"image-keyboard-response",551,375069,"0.0-4.179-2.179","t2vfwg53gjeslzh",380,"168.csv","","null","resources/images/fishbone.png","null","",NA,NA,NA,NA,""
"image-keyboard-response",552,375571,"0.0-4.180-0.180","t2vfwg53gjeslzh",380,"168.csv","","501.19999980926514","resources/trios/L1T4A2.jpg","39","restless",0.3,0.4,0.6,0.677958730905299,"false"
"image-keyboard-response",553,375976,"0.0-4.180-1.180","t2vfwg53gjeslzh",380,"168.csv","","null","resources/maskTrios/BBA2.jpg","null","",NA,NA,NA,NA,""
"image-keyboard-response",554,377180,"0.0-4.180-2.180","t2vfwg53gjeslzh",380,"168.csv","","null","resources/images/fishbone.png","null","",NA,NA,NA,NA,""
"image-keyboard-response",555,377468,"0.0-4.181-0.181","t2vfwg53gjeslzh",380,"168.csv","","287","resources/trios/L1T4A2.jpg","38","restless",0.3,0.4,0.6,0.341151518819078,"true"
"image-keyboard-response",556,377881,"0.0-4.181-1.181","t2vfwg53gjeslzh",380,"168.csv","","null","resources/maskTrios/BT4B.jpg","null","",NA,NA,NA,NA,""
"image-keyboard-response",557,379087,"0.0-4.181-2.181","t2vfwg53gjeslzh",380,"168.csv","","null","resources/images/coin2.png","null","",NA,NA,NA,NA,""
"image-keyboard-response",558,379415,"0.0-4.182-0.182","t2vfwg53gjeslzh",380,"168.csv","","326.7000000476837","resources/trios/L1T4A2.jpg","38","restless",0.3,0.4,0.6,0.742831600899206,"false"
"image-keyboard-response",559,379820,"0.0-4.182-1.182","t2vfwg53gjeslzh",380,"168.csv","","null","resources/maskTrios/BT4B.jpg","null","",NA,NA,NA,NA,""
"image-keyboard-response",560,381037,"0.0-4.182-2.182","t2vfwg53gjeslzh",380,"168.csv","","null","resources/images/fishbone.png","null","",NA,NA,NA,NA,""
"image-keyboard-response",561,381747,"0.0-4.183-0.183","t2vfwg53gjeslzh",380,"168.csv","","708.7000000476837","resources/trios/L1T4A2.jpg","37","restless",0.3,0.4,0.6,0.811257028804252,"false"
"image-keyboard-response",562,382155,"0.0-4.183-1.183","t2vfwg53gjeslzh",380,"168.csv","","null","resources/maskTrios/L1BB.jpg","null","",NA,NA,NA,NA,""
"image-keyboard-response",563,383356,"0.0-4.183-2.183","t2vfwg53gjeslzh",380,"168.csv","","null","resources/images/fishbone.png","null","",NA,NA,NA,NA,""
"image-keyboard-response",564,383877,"0.0-4.184-0.184","t2vfwg53gjeslzh",380,"168.csv","","519.3999998569489","resources/trios/L1T4A2.jpg","39","restless",0.3,0.4,0.6,0.149081587043572,"true"
"image-keyboard-response",565,384284,"0.0-4.184-1.184","t2vfwg53gjeslzh",380,"168.csv","","null","resources/maskTrios/BBA2.jpg","null","",NA,NA,NA,NA,""
"image-keyboard-response",566,385490,"0.0-4.184-2.184","t2vfwg53gjeslzh",380,"168.csv","","null","resources/images/coin2.png","null","",NA,NA,NA,NA,""
"image-keyboard-response",567,385933,"0.0-4.185-0.185","t2vfwg53gjeslzh",380,"168.csv","","442.59999990463257","resources/trios/L1T4A2.jpg","39","restless",0.3,0.5,0.6,0.725930920857247,"false"
"image-keyboard-response",568,386348,"0.0-4.185-1.185","t2vfwg53gjeslzh",380,"168.csv","","null","resources/maskTrios/BBA2.jpg","null","",NA,NA,NA,NA,""
"image-keyboard-response",569,387558,"0.0-4.185-2.185","t2vfwg53gjeslzh",380,"168.csv","","null","resources/images/fishbone.png","null","",NA,NA,NA,NA,""
"image-keyboard-response",570,387642,"0.0-4.186-0.186","t2vfwg53gjeslzh",380,"168.csv","","83.09999990463257","resources/trios/L1T4A2.jpg","38","restless",0.3,0.5,0.6,0.478438853139168,"true"
"image-keyboard-response",571,388058,"0.0-4.186-1.186","t2vfwg53gjeslzh",380,"168.csv","","null","resources/maskTrios/BT4B.jpg","null","",NA,NA,NA,NA,""
"image-keyboard-response",572,389270,"0.0-4.186-2.186","t2vfwg53gjeslzh",380,"168.csv","","null","resources/images/coin2.png","null","",NA,NA,NA,NA,""
"image-keyboard-response",573,389494,"0.0-4.187-0.187","t2vfwg53gjeslzh",380,"168.csv","","223.09999990463257","resources/trios/L1T4A2.jpg","38","restless",0.3,0.5,0.7,0.370829697782628,"true"
"image-keyboard-response",574,389907,"0.0-4.187-1.187","t2vfwg53gjeslzh",380,"168.csv","","null","resources/maskTrios/BT4B.jpg","null","",NA,NA,NA,NA,""
"image-keyboard-response",575,391120,"0.0-4.187-2.187","t2vfwg53gjeslzh",380,"168.csv","","null","resources/images/coin2.png","null","",NA,NA,NA,NA,""
"image-keyboard-response",576,391409,"0.0-4.188-0.188","t2vfwg53gjeslzh",380,"168.csv","","289.10000014305115","resources/trios/L1T4A2.jpg","38","restless",0.3,0.5,0.7,0.0305370138483829,"true"
"image-keyboard-response",577,391820,"0.0-4.188-1.188","t2vfwg53gjeslzh",380,"168.csv","","null","resources/maskTrios/BT4B.jpg","null","",NA,NA,NA,NA,""
"image-keyboard-response",578,393033,"0.0-4.188-2.188","t2vfwg53gjeslzh",380,"168.csv","","null","resources/images/coin2.png","null","",NA,NA,NA,NA,""
"image-keyboard-response",579,393499,"0.0-4.189-0.189","t2vfwg53gjeslzh",380,"168.csv","","464.5","resources/trios/L1T4A2.jpg","38","restless",0.2,0.5,0.7,0.680723710609999,"false"
"image-keyboard-response",580,393907,"0.0-4.189-1.189","t2vfwg53gjeslzh",380,"168.csv","","null","resources/maskTrios/BT4B.jpg","null","",NA,NA,NA,NA,""
"image-keyboard-response",581,395110,"0.0-4.189-2.189","t2vfwg53gjeslzh",380,"168.csv","","null","resources/images/fishbone.png","null","",NA,NA,NA,NA,""
"image-keyboard-response",582,395571,"0.0-4.190-0.190","t2vfwg53gjeslzh",380,"168.csv","","460","resources/trios/L1T4A2.jpg","37","restless",0.2,0.5,0.7,0.781530124387854,"false"
"image-keyboard-response",583,395987,"0.0-4.190-1.190","t2vfwg53gjeslzh",380,"168.csv","","null","resources/maskTrios/L1BB.jpg","null","",NA,NA,NA,NA,""
"image-keyboard-response",584,397192,"0.0-4.190-2.190","t2vfwg53gjeslzh",380,"168.csv","","null","resources/images/fishbone.png","null","",NA,NA,NA,NA,""
"image-keyboard-response",585,397614,"0.0-4.191-0.191","t2vfwg53gjeslzh",380,"168.csv","","420.2999999523163","resources/trios/L1T4A2.jpg","39","restless",0.2,0.5,0.7,0.126657326405436,"true"
"image-keyboard-response",586,398023,"0.0-4.191-1.191","t2vfwg53gjeslzh",380,"168.csv","","null","resources/maskTrios/BBA2.jpg","null","",NA,NA,NA,NA,""
"image-keyboard-response",587,399235,"0.0-4.191-2.191","t2vfwg53gjeslzh",380,"168.csv","","null","resources/images/coin2.png","null","",NA,NA,NA,NA,""
"image-keyboard-response",588,399691,"0.0-4.192-0.192","t2vfwg53gjeslzh",380,"168.csv","","455.10000014305115","resources/trios/L1T4A2.jpg","39","restless",0.2,0.5,0.7,0.230125654278276,"true"
"image-keyboard-response",589,400097,"0.0-4.192-1.192","t2vfwg53gjeslzh",380,"168.csv","","null","resources/maskTrios/BBA2.jpg","null","",NA,NA,NA,NA,""
"image-keyboard-response",590,401305,"0.0-4.192-2.192","t2vfwg53gjeslzh",380,"168.csv","","null","resources/images/coin2.png","null","",NA,NA,NA,NA,""
"image-keyboard-response",591,401657,"0.0-4.193-0.193","t2vfwg53gjeslzh",380,"168.csv","","351.60000014305115","resources/trios/L1T4A2.jpg","39","restless",0.2,0.5,0.7,0.865242773320011,"false"
"image-keyboard-response",592,402070,"0.0-4.193-1.193","t2vfwg53gjeslzh",380,"168.csv","","null","resources/maskTrios/BBA2.jpg","null","",NA,NA,NA,NA,""
"image-keyboard-response",593,403274,"0.0-4.193-2.193","t2vfwg53gjeslzh",380,"168.csv","","null","resources/images/fishbone.png","null","",NA,NA,NA,NA,""
"image-keyboard-response",594,403716,"0.0-4.194-0.194","t2vfwg53gjeslzh",380,"168.csv","","440.7999999523163","resources/trios/L1T4A2.jpg","38","restless",0.2,0.4,0.7,0.133854016142222,"true"
"image-keyboard-response",595,404120,"0.0-4.194-1.194","t2vfwg53gjeslzh",380,"168.csv","","null","resources/maskTrios/BT4B.jpg","null","",NA,NA,NA,NA,""
"image-keyboard-response",596,405328,"0.0-4.194-2.194","t2vfwg53gjeslzh",380,"168.csv","","null","resources/images/coin2.png","null","",NA,NA,NA,NA,""
"image-keyboard-response",597,406331,"0.0-4.195-0.195","t2vfwg53gjeslzh",380,"168.csv","","1001.5999999046326","resources/trios/L1T4A2.jpg","38","restless",0.2,0.4,0.7,0.665178720908973,"false"
"image-keyboard-response",598,406735,"0.0-4.195-1.195","t2vfwg53gjeslzh",380,"168.csv","","null","resources/maskTrios/BT4B.jpg","null","",NA,NA,NA,NA,""
"image-keyboard-response",599,407949,"0.0-4.195-2.195","t2vfwg53gjeslzh",380,"168.csv","","null","resources/images/fishbone.png","null","",NA,NA,NA,NA,""
"image-keyboard-response",600,408097,"0.0-4.196-0.196","t2vfwg53gjeslzh",380,"168.csv","","146.70000004768372","resources/trios/L1T4A2.jpg","37","restless",0.3,0.5,0.7,0.334333915653908,"false"
"image-keyboard-response",601,408511,"0.0-4.196-1.196","t2vfwg53gjeslzh",380,"168.csv","","null","resources/maskTrios/L1BB.jpg","null","",NA,NA,NA,NA,""
"image-keyboard-response",602,409715,"0.0-4.196-2.196","t2vfwg53gjeslzh",380,"168.csv","","null","resources/images/fishbone.png","null","",NA,NA,NA,NA,""
"image-keyboard-response",603,410412,"0.0-4.197-0.197","t2vfwg53gjeslzh",380,"168.csv","","695.7999999523163","resources/trios/L1T4A2.jpg","37","restless",0.4,0.5,0.7,0.241755637893767,"true"
"image-keyboard-response",604,410822,"0.0-4.197-1.197","t2vfwg53gjeslzh",380,"168.csv","","null","resources/maskTrios/L1BB.jpg","null","",NA,NA,NA,NA,""
"image-keyboard-response",605,412029,"0.0-4.197-2.197","t2vfwg53gjeslzh",380,"168.csv","","null","resources/images/coin2.png","null","",NA,NA,NA,NA,""
"image-keyboard-response",606,412512,"0.0-4.198-0.198","t2vfwg53gjeslzh",380,"168.csv","","482.09999990463257","resources/trios/L1T4A2.jpg","37","restless",0.4,0.5,0.7,0.361669663088687,"true"
"image-keyboard-response",607,412923,"0.0-4.198-1.198","t2vfwg53gjeslzh",380,"168.csv","","null","resources/maskTrios/L1BB.jpg","null","",NA,NA,NA,NA,""
"image-keyboard-response",608,414140,"0.0-4.198-2.198","t2vfwg53gjeslzh",380,"168.csv","","null","resources/images/coin2.png","null","",NA,NA,NA,NA,""
