"trial_type","trial_index","time_elapsed","internal_node_id","subject","participantCode","walkNumber","success","rt","stimulus","key_press","test_part","leftProb","midProb","rightProb","generatedNum","correct"
"pavlovia",0,735,"0.0-0.0","zlvqk2brjx347l8",133,"86.csv","","","","","",NA,NA,NA,NA,""
"fullscreen",1,4471,"0.0-1.0","zlvqk2brjx347l8",133,"86.csv","true","","","","",NA,NA,NA,NA,""
"survey-html-form",2,23169,"0.0-2.0","zlvqk2brjx347l8",133,"86.csv","","18679","","","",NA,NA,NA,NA,""
"image-keyboard-response",3,31351,"0.0-3.0-0.0","zlvqk2brjx347l8",133,"86.csv","","8181","resources/images/parrot_nobg.png","13","",NA,NA,NA,NA,""
"image-keyboard-response",4,34354,"0.0-3.0-1.0","zlvqk2brjx347l8",133,"86.csv","","null","resources/image_sets/111.png","null","",NA,NA,NA,NA,""
"image-keyboard-response",5,38611,"0.0-3.0-2.0","zlvqk2brjx347l8",133,"86.csv","","4256","resources/image_sets/left_highlight.png","37","",NA,NA,NA,NA,""
"image-keyboard-response",6,47844,"0.0-3.0-3.0","zlvqk2brjx347l8",133,"86.csv","","9234","resources/image_sets/mid_highlight.png","38","",NA,NA,NA,NA,""
"image-keyboard-response",7,49259,"0.0-3.0-4.0","zlvqk2brjx347l8",133,"86.csv","","1414","resources/image_sets/right_highlight.png","39","",NA,NA,NA,NA,""
"image-keyboard-response",8,51329,"0.0-3.0-5.0","zlvqk2brjx347l8",133,"86.csv","","2069","resources/image_sets/111.png","13","",NA,NA,NA,NA,""
"image-keyboard-response",9,53107,"0.0-3.0-6.0","zlvqk2brjx347l8",133,"86.csv","","1777","resources/images/coin2.png","13","",NA,NA,NA,NA,""
"image-keyboard-response",10,54292,"0.0-3.0-7.0","zlvqk2brjx347l8",133,"86.csv","","1184","resources/images/fishbone.png","13","",NA,NA,NA,NA,""
"html-keyboard-response",11,58339,"0.0-3.0-8.0","zlvqk2brjx347l8",133,"86.csv","","4048","<p>You can track your coin total on the top right of your screen. </p><p>At the end of your journey you will be directed to a survey, so please click on the link before exiting the task</p><p>Press Enter to begin</p>","13","",NA,NA,NA,NA,""
"image-keyboard-response",12,59317,"0.0-4.0-0.0","zlvqk2brjx347l8",133,"86.csv","","977","resources/trios/L4T4A2.jpg","38","restless",0.3,0.7,0.9,0.839477803843791,"false"
"image-keyboard-response",13,59718,"0.0-4.0-1.0","zlvqk2brjx347l8",133,"86.csv","","null","resources/maskTrios/BT4B.jpg","null","",NA,NA,NA,NA,""
"image-keyboard-response",14,60922,"0.0-4.0-2.0","zlvqk2brjx347l8",133,"86.csv","","null","resources/images/fishbone.png","null","",NA,NA,NA,NA,""
"image-keyboard-response",15,61888,"0.0-4.1-0.1","zlvqk2brjx347l8",133,"86.csv","","964","resources/trios/L4T4A2.jpg","37","restless",0.3,0.7,0.9,0.822106399508034,"false"
"image-keyboard-response",16,62295,"0.0-4.1-1.1","zlvqk2brjx347l8",133,"86.csv","","null","resources/maskTrios/L4BB.jpg","null","",NA,NA,NA,NA,""
"image-keyboard-response",17,63498,"0.0-4.1-2.1","zlvqk2brjx347l8",133,"86.csv","","null","resources/images/fishbone.png","null","",NA,NA,NA,NA,""
"image-keyboard-response",18,63974,"0.0-4.2-0.2","zlvqk2brjx347l8",133,"86.csv","","477","resources/trios/L4T4A2.jpg","39","restless",0.3,0.8,0.9,0.928547877703408,"false"
"image-keyboard-response",19,64386,"0.0-4.2-1.2","zlvqk2brjx347l8",133,"86.csv","","null","resources/maskTrios/BBA2.jpg","null","",NA,NA,NA,NA,""
"image-keyboard-response",20,65592,"0.0-4.2-2.2","zlvqk2brjx347l8",133,"86.csv","","null","resources/images/fishbone.png","null","",NA,NA,NA,NA,""
"image-keyboard-response",21,66044,"0.0-4.3-0.3","zlvqk2brjx347l8",133,"86.csv","","452","resources/trios/L4T4A2.jpg","38","restless",0.3,0.8,0.9,0.12761280013053,"true"
"image-keyboard-response",22,66451,"0.0-4.3-1.3","zlvqk2brjx347l8",133,"86.csv","","null","resources/maskTrios/BT4B.jpg","null","",NA,NA,NA,NA,""
"image-keyboard-response",23,67666,"0.0-4.3-2.3","zlvqk2brjx347l8",133,"86.csv","","null","resources/images/coin2.png","null","",NA,NA,NA,NA,""
"image-keyboard-response",24,68306,"0.0-4.4-0.4","zlvqk2brjx347l8",133,"86.csv","","640","resources/trios/L4T4A2.jpg","38","restless",0.3,0.8,0.9,0.323823626432393,"true"
"image-keyboard-response",25,68714,"0.0-4.4-1.4","zlvqk2brjx347l8",133,"86.csv","","null","resources/maskTrios/BT4B.jpg","null","",NA,NA,NA,NA,""
"image-keyboard-response",26,69930,"0.0-4.4-2.4","zlvqk2brjx347l8",133,"86.csv","","null","resources/images/coin2.png","null","",NA,NA,NA,NA,""
"image-keyboard-response",27,70720,"0.0-4.5-0.5","zlvqk2brjx347l8",133,"86.csv","","789","resources/trios/L4T4A2.jpg","38","restless",0.3,0.8,0.9,0.899991669024352,"false"
"image-keyboard-response",28,71129,"0.0-4.5-1.5","zlvqk2brjx347l8",133,"86.csv","","null","resources/maskTrios/BT4B.jpg","null","",NA,NA,NA,NA,""
"image-keyboard-response",29,72343,"0.0-4.5-2.5","zlvqk2brjx347l8",133,"86.csv","","null","resources/images/fishbone.png","null","",NA,NA,NA,NA,""
"image-keyboard-response",30,72802,"0.0-4.6-0.6","zlvqk2brjx347l8",133,"86.csv","","460","resources/trios/L4T4A2.jpg","37","restless",0.4,0.8,0.9,0.87219552549769,"false"
"image-keyboard-response",31,73204,"0.0-4.6-1.6","zlvqk2brjx347l8",133,"86.csv","","null","resources/maskTrios/L4BB.jpg","null","",NA,NA,NA,NA,""
"image-keyboard-response",32,74407,"0.0-4.6-2.6","zlvqk2brjx347l8",133,"86.csv","","null","resources/images/fishbone.png","null","",NA,NA,NA,NA,""
"image-keyboard-response",33,75206,"0.0-4.7-0.7","zlvqk2brjx347l8",133,"86.csv","","798","resources/trios/L4T4A2.jpg","39","restless",0.4,0.8,0.9,0.614995628653829,"true"
"image-keyboard-response",34,75609,"0.0-4.7-1.7","zlvqk2brjx347l8",133,"86.csv","","null","resources/maskTrios/BBA2.jpg","null","",NA,NA,NA,NA,""
"image-keyboard-response",35,76814,"0.0-4.7-2.7","zlvqk2brjx347l8",133,"86.csv","","null","resources/images/coin2.png","null","",NA,NA,NA,NA,""
"image-keyboard-response",36,77172,"0.0-4.8-0.8","zlvqk2brjx347l8",133,"86.csv","","357","resources/trios/L4T4A2.jpg","39","restless",0.4,0.8,0.9,0.773475959571002,"true"
"image-keyboard-response",37,77578,"0.0-4.8-1.8","zlvqk2brjx347l8",133,"86.csv","","null","resources/maskTrios/BBA2.jpg","null","",NA,NA,NA,NA,""
"image-keyboard-response",38,78780,"0.0-4.8-2.8","zlvqk2brjx347l8",133,"86.csv","","null","resources/images/coin2.png","null","",NA,NA,NA,NA,""
"image-keyboard-response",39,79796,"0.0-4.9-0.9","zlvqk2brjx347l8",133,"86.csv","","1016","resources/trios/L4T4A2.jpg","37","restless",0.4,0.8,0.9,0.848179205077484,"false"
"image-keyboard-response",40,80200,"0.0-4.9-1.9","zlvqk2brjx347l8",133,"86.csv","","null","resources/maskTrios/L4BB.jpg","null","",NA,NA,NA,NA,""
"image-keyboard-response",41,81406,"0.0-4.9-2.9","zlvqk2brjx347l8",133,"86.csv","","null","resources/images/fishbone.png","null","",NA,NA,NA,NA,""
"image-keyboard-response",42,81877,"0.0-4.10-0.10","zlvqk2brjx347l8",133,"86.csv","","472","resources/trios/L4T4A2.jpg","39","restless",0.4,0.8,0.9,0.370555127152759,"true"
"image-keyboard-response",43,82292,"0.0-4.10-1.10","zlvqk2brjx347l8",133,"86.csv","","null","resources/maskTrios/BBA2.jpg","null","",NA,NA,NA,NA,""
"image-keyboard-response",44,83500,"0.0-4.10-2.10","zlvqk2brjx347l8",133,"86.csv","","null","resources/images/coin2.png","null","",NA,NA,NA,NA,""
"image-keyboard-response",45,84303,"0.0-4.11-0.11","zlvqk2brjx347l8",133,"86.csv","","803","resources/trios/L4T4A2.jpg","38","restless",0.4,0.7,0.9,0.644339637203526,"true"
"image-keyboard-response",46,84716,"0.0-4.11-1.11","zlvqk2brjx347l8",133,"86.csv","","null","resources/maskTrios/BT4B.jpg","null","",NA,NA,NA,NA,""
"image-keyboard-response",47,85929,"0.0-4.11-2.11","zlvqk2brjx347l8",133,"86.csv","","null","resources/images/coin2.png","null","",NA,NA,NA,NA,""
"image-keyboard-response",48,86295,"0.0-4.12-0.12","zlvqk2brjx347l8",133,"86.csv","","365","resources/trios/L4T4A2.jpg","38","restless",0.4,0.7,0.9,0.276825479174452,"true"
"image-keyboard-response",49,86709,"0.0-4.12-1.12","zlvqk2brjx347l8",133,"86.csv","","null","resources/maskTrios/BT4B.jpg","null","",NA,NA,NA,NA,""
"image-keyboard-response",50,87924,"0.0-4.12-2.12","zlvqk2brjx347l8",133,"86.csv","","null","resources/images/coin2.png","null","",NA,NA,NA,NA,""
"image-keyboard-response",51,88887,"0.0-4.13-0.13","zlvqk2brjx347l8",133,"86.csv","","963","resources/trios/L4T4A2.jpg","37","restless",0.4,0.7,0.9,0.164947359349974,"true"
"image-keyboard-response",52,89298,"0.0-4.13-1.13","zlvqk2brjx347l8",133,"86.csv","","null","resources/maskTrios/L4BB.jpg","null","",NA,NA,NA,NA,""
"image-keyboard-response",53,90512,"0.0-4.13-2.13","zlvqk2brjx347l8",133,"86.csv","","null","resources/images/coin2.png","null","",NA,NA,NA,NA,""
"image-keyboard-response",54,90774,"0.0-4.14-0.14","zlvqk2brjx347l8",133,"86.csv","","260","resources/trios/L4T4A2.jpg","37","restless",0.4,0.7,0.9,0.654732446041062,"false"
"image-keyboard-response",55,91185,"0.0-4.14-1.14","zlvqk2brjx347l8",133,"86.csv","","null","resources/maskTrios/L4BB.jpg","null","",NA,NA,NA,NA,""
"image-keyboard-response",56,92389,"0.0-4.14-2.14","zlvqk2brjx347l8",133,"86.csv","","null","resources/images/fishbone.png","null","",NA,NA,NA,NA,""
"image-keyboard-response",57,92596,"0.0-4.15-0.15","zlvqk2brjx347l8",133,"86.csv","","206","resources/trios/L4T4A2.jpg","39","restless",0.4,0.7,0.9,0.422463812233649,"true"
"image-keyboard-response",58,93010,"0.0-4.15-1.15","zlvqk2brjx347l8",133,"86.csv","","null","resources/maskTrios/BBA2.jpg","null","",NA,NA,NA,NA,""
"image-keyboard-response",59,94220,"0.0-4.15-2.15","zlvqk2brjx347l8",133,"86.csv","","null","resources/images/coin2.png","null","",NA,NA,NA,NA,""
"image-keyboard-response",60,94261,"0.0-4.16-0.16","zlvqk2brjx347l8",133,"86.csv","","40","resources/trios/L4T4A2.jpg","38","restless",0.4,0.7,0.8,0.612607731255477,"true"
"image-keyboard-response",61,94673,"0.0-4.16-1.16","zlvqk2brjx347l8",133,"86.csv","","null","resources/maskTrios/BT4B.jpg","null","",NA,NA,NA,NA,""
"image-keyboard-response",62,95874,"0.0-4.16-2.16","zlvqk2brjx347l8",133,"86.csv","","null","resources/images/coin2.png","null","",NA,NA,NA,NA,""
"image-keyboard-response",63,96585,"0.0-4.17-0.17","zlvqk2brjx347l8",133,"86.csv","","712","resources/trios/L4T4A2.jpg","39","restless",0.4,0.7,0.8,0.121017176487596,"true"
"image-keyboard-response",64,96995,"0.0-4.17-1.17","zlvqk2brjx347l8",133,"86.csv","","null","resources/maskTrios/BBA2.jpg","null","",NA,NA,NA,NA,""
"image-keyboard-response",65,98197,"0.0-4.17-2.17","zlvqk2brjx347l8",133,"86.csv","","null","resources/images/coin2.png","null","",NA,NA,NA,NA,""
"image-keyboard-response",66,98406,"0.0-4.18-0.18","zlvqk2brjx347l8",133,"86.csv","","209","resources/trios/L4T4A2.jpg","38","restless",0.4,0.7,0.8,0.727275416209885,"false"
"image-keyboard-response",67,98811,"0.0-4.18-1.18","zlvqk2brjx347l8",133,"86.csv","","null","resources/maskTrios/BT4B.jpg","null","",NA,NA,NA,NA,""
"image-keyboard-response",68,100018,"0.0-4.18-2.18","zlvqk2brjx347l8",133,"86.csv","","null","resources/images/fishbone.png","null","",NA,NA,NA,NA,""
"image-keyboard-response",69,100321,"0.0-4.19-0.19","zlvqk2brjx347l8",133,"86.csv","","301","resources/trios/L4T4A2.jpg","37","restless",0.3,0.7,0.8,0.469042992442823,"false"
"image-keyboard-response",70,100722,"0.0-4.19-1.19","zlvqk2brjx347l8",133,"86.csv","","null","resources/maskTrios/L4BB.jpg","null","",NA,NA,NA,NA,""
"image-keyboard-response",71,101925,"0.0-4.19-2.19","zlvqk2brjx347l8",133,"86.csv","","null","resources/images/fishbone.png","null","",NA,NA,NA,NA,""
"image-keyboard-response",72,102593,"0.0-4.20-0.20","zlvqk2brjx347l8",133,"86.csv","","669","resources/trios/L4T4A2.jpg","38","restless",0.3,0.6,0.8,0.764953116033344,"false"
"image-keyboard-response",73,103002,"0.0-4.20-1.20","zlvqk2brjx347l8",133,"86.csv","","null","resources/maskTrios/BT4B.jpg","null","",NA,NA,NA,NA,""
"image-keyboard-response",74,104209,"0.0-4.20-2.20","zlvqk2brjx347l8",133,"86.csv","","null","resources/images/fishbone.png","null","",NA,NA,NA,NA,""
"image-keyboard-response",75,104251,"0.0-4.21-0.21","zlvqk2brjx347l8",133,"86.csv","","42","resources/trios/L4T4A2.jpg","39","restless",0.3,0.6,0.8,0.318792767006137,"true"
"image-keyboard-response",76,104659,"0.0-4.21-1.21","zlvqk2brjx347l8",133,"86.csv","","null","resources/maskTrios/BBA2.jpg","null","",NA,NA,NA,NA,""
"image-keyboard-response",77,105860,"0.0-4.21-2.21","zlvqk2brjx347l8",133,"86.csv","","null","resources/images/coin2.png","null","",NA,NA,NA,NA,""
"image-keyboard-response",78,106073,"0.0-4.22-0.22","zlvqk2brjx347l8",133,"86.csv","","212","resources/trios/L4T4A2.jpg","37","restless",0.3,0.6,0.7,0.404108577480772,"false"
"image-keyboard-response",79,106485,"0.0-4.22-1.22","zlvqk2brjx347l8",133,"86.csv","","null","resources/maskTrios/L4BB.jpg","null","",NA,NA,NA,NA,""
"image-keyboard-response",80,107687,"0.0-4.22-2.22","zlvqk2brjx347l8",133,"86.csv","","null","resources/images/fishbone.png","null","",NA,NA,NA,NA,""
"image-keyboard-response",81,107821,"0.0-4.23-0.23","zlvqk2brjx347l8",133,"86.csv","","134","resources/trios/L4T4A2.jpg","38","restless",0.3,0.6,0.7,0.447501068666559,"true"
"image-keyboard-response",82,108232,"0.0-4.23-1.23","zlvqk2brjx347l8",133,"86.csv","","null","resources/maskTrios/BT4B.jpg","null","",NA,NA,NA,NA,""
"image-keyboard-response",83,109437,"0.0-4.23-2.23","zlvqk2brjx347l8",133,"86.csv","","null","resources/images/coin2.png","null","",NA,NA,NA,NA,""
"image-keyboard-response",84,110229,"0.0-4.24-0.24","zlvqk2brjx347l8",133,"86.csv","","792","resources/trios/L4T4A2.jpg","39","restless",0.3,0.6,0.7,0.42082605522294,"true"
"image-keyboard-response",85,110642,"0.0-4.24-1.24","zlvqk2brjx347l8",133,"86.csv","","null","resources/maskTrios/BBA2.jpg","null","",NA,NA,NA,NA,""
"image-keyboard-response",86,111857,"0.0-4.24-2.24","zlvqk2brjx347l8",133,"86.csv","","null","resources/images/coin2.png","null","",NA,NA,NA,NA,""
"image-keyboard-response",87,112082,"0.0-4.25-0.25","zlvqk2brjx347l8",133,"86.csv","","224","resources/trios/L4T4A2.jpg","39","restless",0.3,0.6,0.7,0.456074658838836,"true"
"image-keyboard-response",88,112495,"0.0-4.25-1.25","zlvqk2brjx347l8",133,"86.csv","","null","resources/maskTrios/BBA2.jpg","null","",NA,NA,NA,NA,""
"image-keyboard-response",89,113699,"0.0-4.25-2.25","zlvqk2brjx347l8",133,"86.csv","","null","resources/images/coin2.png","null","",NA,NA,NA,NA,""
"image-keyboard-response",90,114009,"0.0-4.26-0.26","zlvqk2brjx347l8",133,"86.csv","","309","resources/trios/L4T4A2.jpg","38","restless",0.3,0.6,0.7,0.727194832986897,"false"
"image-keyboard-response",91,114420,"0.0-4.26-1.26","zlvqk2brjx347l8",133,"86.csv","","null","resources/maskTrios/BT4B.jpg","null","",NA,NA,NA,NA,""
"image-keyboard-response",92,115623,"0.0-4.26-2.26","zlvqk2brjx347l8",133,"86.csv","","null","resources/images/fishbone.png","null","",NA,NA,NA,NA,""
"image-keyboard-response",93,115974,"0.0-4.27-0.27","zlvqk2brjx347l8",133,"86.csv","","350","resources/trios/L4T4A2.jpg","37","restless",0.3,0.6,0.7,0.752543233169406,"false"
"image-keyboard-response",94,116378,"0.0-4.27-1.27","zlvqk2brjx347l8",133,"86.csv","","null","resources/maskTrios/L4BB.jpg","null","",NA,NA,NA,NA,""
"image-keyboard-response",95,117580,"0.0-4.27-2.27","zlvqk2brjx347l8",133,"86.csv","","null","resources/images/fishbone.png","null","",NA,NA,NA,NA,""
"image-keyboard-response",96,117829,"0.0-4.28-0.28","zlvqk2brjx347l8",133,"86.csv","","249","resources/trios/L4T4A2.jpg","39","restless",0.3,0.6,0.7,0.513903422980454,"true"
"image-keyboard-response",97,118231,"0.0-4.28-1.28","zlvqk2brjx347l8",133,"86.csv","","null","resources/maskTrios/BBA2.jpg","null","",NA,NA,NA,NA,""
"image-keyboard-response",98,119442,"0.0-4.28-2.28","zlvqk2brjx347l8",133,"86.csv","","null","resources/images/coin2.png","null","",NA,NA,NA,NA,""
"image-keyboard-response",99,119484,"0.0-4.29-0.29","zlvqk2brjx347l8",133,"86.csv","","41","resources/trios/L4T4A2.jpg","39","restless",0.3,0.6,0.7,0.971969450490533,"false"
"image-keyboard-response",100,119898,"0.0-4.29-1.29","zlvqk2brjx347l8",133,"86.csv","","null","resources/maskTrios/BBA2.jpg","null","",NA,NA,NA,NA,""
"image-keyboard-response",101,121107,"0.0-4.29-2.29","zlvqk2brjx347l8",133,"86.csv","","null","resources/images/fishbone.png","null","",NA,NA,NA,NA,""
"image-keyboard-response",102,122030,"0.0-4.30-0.30","zlvqk2brjx347l8",133,"86.csv","","921","resources/trios/L4T4A2.jpg","39","restless",0.3,0.5,0.7,0.322914407768108,"true"
"image-keyboard-response",103,122433,"0.0-4.30-1.30","zlvqk2brjx347l8",133,"86.csv","","null","resources/maskTrios/BBA2.jpg","null","",NA,NA,NA,NA,""
"image-keyboard-response",104,123639,"0.0-4.30-2.30","zlvqk2brjx347l8",133,"86.csv","","null","resources/images/coin2.png","null","",NA,NA,NA,NA,""
"image-keyboard-response",105,123865,"0.0-4.31-0.31","zlvqk2brjx347l8",133,"86.csv","","224","resources/trios/L4T4A2.jpg","37","restless",0.3,0.5,0.7,0.584362802484032,"false"
"image-keyboard-response",106,124267,"0.0-4.31-1.31","zlvqk2brjx347l8",133,"86.csv","","null","resources/maskTrios/L4BB.jpg","null","",NA,NA,NA,NA,""
"image-keyboard-response",107,125468,"0.0-4.31-2.31","zlvqk2brjx347l8",133,"86.csv","","null","resources/images/fishbone.png","null","",NA,NA,NA,NA,""
"image-keyboard-response",108,125732,"0.0-4.32-0.32","zlvqk2brjx347l8",133,"86.csv","","264","resources/trios/L4T4A2.jpg","39","restless",0.3,0.5,0.7,0.466885416729252,"true"
"image-keyboard-response",109,126141,"0.0-4.32-1.32","zlvqk2brjx347l8",133,"86.csv","","null","resources/maskTrios/BBA2.jpg","null","",NA,NA,NA,NA,""
"image-keyboard-response",110,127343,"0.0-4.32-2.32","zlvqk2brjx347l8",133,"86.csv","","null","resources/images/coin2.png","null","",NA,NA,NA,NA,""
"image-keyboard-response",111,127389,"0.0-4.33-0.33","zlvqk2brjx347l8",133,"86.csv","","47","resources/trios/L4T4A2.jpg","38","restless",0.3,0.4,0.7,0.181368268705433,"true"
"image-keyboard-response",112,127795,"0.0-4.33-1.33","zlvqk2brjx347l8",133,"86.csv","","null","resources/maskTrios/BT4B.jpg","null","",NA,NA,NA,NA,""
"image-keyboard-response",113,128998,"0.0-4.33-2.33","zlvqk2brjx347l8",133,"86.csv","","null","resources/images/coin2.png","null","",NA,NA,NA,NA,""
"image-keyboard-response",114,129362,"0.0-4.34-0.34","zlvqk2brjx347l8",133,"86.csv","","364","resources/trios/L4T4A2.jpg","38","restless",0.3,0.4,0.7,0.61745307596557,"false"
"image-keyboard-response",115,129764,"0.0-4.34-1.34","zlvqk2brjx347l8",133,"86.csv","","null","resources/maskTrios/BT4B.jpg","null","",NA,NA,NA,NA,""
"image-keyboard-response",116,130968,"0.0-4.34-2.34","zlvqk2brjx347l8",133,"86.csv","","null","resources/images/fishbone.png","null","",NA,NA,NA,NA,""
"image-keyboard-response",117,131050,"0.0-4.35-0.35","zlvqk2brjx347l8",133,"86.csv","","81","resources/trios/L4T4A2.jpg","39","restless",0.3,0.4,0.7,0.210423977667671,"true"
"image-keyboard-response",118,131451,"0.0-4.35-1.35","zlvqk2brjx347l8",133,"86.csv","","null","resources/maskTrios/BBA2.jpg","null","",NA,NA,NA,NA,""
"image-keyboard-response",119,132654,"0.0-4.35-2.35","zlvqk2brjx347l8",133,"86.csv","","null","resources/images/coin2.png","null","",NA,NA,NA,NA,""
"image-keyboard-response",120,132873,"0.0-4.36-0.36","zlvqk2brjx347l8",133,"86.csv","","219","resources/trios/L4T4A2.jpg","39","restless",0.3,0.4,0.7,0.091527342788401,"true"
"image-keyboard-response",121,133284,"0.0-4.36-1.36","zlvqk2brjx347l8",133,"86.csv","","null","resources/maskTrios/BBA2.jpg","null","",NA,NA,NA,NA,""
"image-keyboard-response",122,134490,"0.0-4.36-2.36","zlvqk2brjx347l8",133,"86.csv","","null","resources/images/coin2.png","null","",NA,NA,NA,NA,""
"image-keyboard-response",123,134494,"0.0-4.37-0.37","zlvqk2brjx347l8",133,"86.csv","","2","resources/trios/L4T4A2.jpg","39","restless",0.3,0.4,0.6,0.596098821844455,"true"
"image-keyboard-response",124,134896,"0.0-4.37-1.37","zlvqk2brjx347l8",133,"86.csv","","null","resources/maskTrios/BBA2.jpg","null","",NA,NA,NA,NA,""
"image-keyboard-response",125,136111,"0.0-4.37-2.37","zlvqk2brjx347l8",133,"86.csv","","null","resources/images/coin2.png","null","",NA,NA,NA,NA,""
"image-keyboard-response",126,136668,"0.0-4.38-0.38","zlvqk2brjx347l8",133,"86.csv","","555","resources/trios/L4T4A2.jpg","37","restless",0.3,0.5,0.6,0.0850146250894332,"true"
"image-keyboard-response",127,137083,"0.0-4.38-1.38","zlvqk2brjx347l8",133,"86.csv","","null","resources/maskTrios/L4BB.jpg","null","",NA,NA,NA,NA,""
"image-keyboard-response",128,138286,"0.0-4.38-2.38","zlvqk2brjx347l8",133,"86.csv","","null","resources/images/coin2.png","null","",NA,NA,NA,NA,""
"image-keyboard-response",129,138798,"0.0-4.39-0.39","zlvqk2brjx347l8",133,"86.csv","","512","resources/trios/L4T4A2.jpg","39","restless",0.3,0.5,0.6,0.429300556356788,"true"
"image-keyboard-response",130,139206,"0.0-4.39-1.39","zlvqk2brjx347l8",133,"86.csv","","null","resources/maskTrios/BBA2.jpg","null","",NA,NA,NA,NA,""
"image-keyboard-response",131,140407,"0.0-4.39-2.39","zlvqk2brjx347l8",133,"86.csv","","null","resources/images/coin2.png","null","",NA,NA,NA,NA,""
"image-keyboard-response",132,140665,"0.0-4.40-0.40","zlvqk2brjx347l8",133,"86.csv","","257","resources/trios/L4T4A2.jpg","39","restless",0.3,0.5,0.6,0.711596118975923,"false"
"image-keyboard-response",133,141078,"0.0-4.40-1.40","zlvqk2brjx347l8",133,"86.csv","","null","resources/maskTrios/BBA2.jpg","null","",NA,NA,NA,NA,""
"image-keyboard-response",134,142284,"0.0-4.40-2.40","zlvqk2brjx347l8",133,"86.csv","","null","resources/images/fishbone.png","null","",NA,NA,NA,NA,""
"image-keyboard-response",135,142653,"0.0-4.41-0.41","zlvqk2brjx347l8",133,"86.csv","","368","resources/trios/L4T4A2.jpg","37","restless",0.3,0.5,0.6,0.72929464042001,"false"
"image-keyboard-response",136,143069,"0.0-4.41-1.41","zlvqk2brjx347l8",133,"86.csv","","null","resources/maskTrios/L4BB.jpg","null","",NA,NA,NA,NA,""
"image-keyboard-response",137,144283,"0.0-4.41-2.41","zlvqk2brjx347l8",133,"86.csv","","null","resources/images/fishbone.png","null","",NA,NA,NA,NA,""
"image-keyboard-response",138,144513,"0.0-4.42-0.42","zlvqk2brjx347l8",133,"86.csv","","230","resources/trios/L4T4A2.jpg","39","restless",0.3,0.5,0.6,0.744110146895015,"false"
"image-keyboard-response",139,144922,"0.0-4.42-1.42","zlvqk2brjx347l8",133,"86.csv","","null","resources/maskTrios/BBA2.jpg","null","",NA,NA,NA,NA,""
"image-keyboard-response",140,146137,"0.0-4.42-2.42","zlvqk2brjx347l8",133,"86.csv","","null","resources/images/fishbone.png","null","",NA,NA,NA,NA,""
"image-keyboard-response",141,146373,"0.0-4.43-0.43","zlvqk2brjx347l8",133,"86.csv","","234","resources/trios/L4T4A2.jpg","38","restless",0.3,0.5,0.6,0.542492388857788,"false"
"image-keyboard-response",142,146778,"0.0-4.43-1.43","zlvqk2brjx347l8",133,"86.csv","","null","resources/maskTrios/BT4B.jpg","null","",NA,NA,NA,NA,""
"image-keyboard-response",143,147984,"0.0-4.43-2.43","zlvqk2brjx347l8",133,"86.csv","","null","resources/images/fishbone.png","null","",NA,NA,NA,NA,""
"image-keyboard-response",144,148323,"0.0-4.44-0.44","zlvqk2brjx347l8",133,"86.csv","","339","resources/trios/L4T4A2.jpg","38","restless",0.3,0.4,0.6,0.811861554041823,"false"
"image-keyboard-response",145,148731,"0.0-4.44-1.44","zlvqk2brjx347l8",133,"86.csv","","null","resources/maskTrios/BT4B.jpg","null","",NA,NA,NA,NA,""
"image-keyboard-response",146,149942,"0.0-4.44-2.44","zlvqk2brjx347l8",133,"86.csv","","null","resources/images/fishbone.png","null","",NA,NA,NA,NA,""
"image-keyboard-response",147,150303,"0.0-4.45-0.45","zlvqk2brjx347l8",133,"86.csv","","360","resources/trios/L4T4A2.jpg","38","restless",0.3,0.4,0.6,0.759476072483788,"false"
"image-keyboard-response",148,150716,"0.0-4.45-1.45","zlvqk2brjx347l8",133,"86.csv","","null","resources/maskTrios/BT4B.jpg","null","",NA,NA,NA,NA,""
"image-keyboard-response",149,151922,"0.0-4.45-2.45","zlvqk2brjx347l8",133,"86.csv","","null","resources/images/fishbone.png","null","",NA,NA,NA,NA,""
"image-keyboard-response",150,151945,"0.0-4.46-0.46","zlvqk2brjx347l8",133,"86.csv","","25","resources/trios/L4T4A2.jpg","38","restless",0.3,0.4,0.6,0.225879705678525,"true"
"image-keyboard-response",151,152354,"0.0-4.46-1.46","zlvqk2brjx347l8",133,"86.csv","","null","resources/maskTrios/BT4B.jpg","null","",NA,NA,NA,NA,""
"image-keyboard-response",152,153564,"0.0-4.46-2.46","zlvqk2brjx347l8",133,"86.csv","","null","resources/images/coin2.png","null","",NA,NA,NA,NA,""
"image-keyboard-response",153,153843,"0.0-4.47-0.47","zlvqk2brjx347l8",133,"86.csv","","278","resources/trios/L4T4A2.jpg","38","restless",0.3,0.4,0.6,0.23717242363765,"true"
"image-keyboard-response",154,154251,"0.0-4.47-1.47","zlvqk2brjx347l8",133,"86.csv","","null","resources/maskTrios/BT4B.jpg","null","",NA,NA,NA,NA,""
"image-keyboard-response",155,155452,"0.0-4.47-2.47","zlvqk2brjx347l8",133,"86.csv","","null","resources/images/coin2.png","null","",NA,NA,NA,NA,""
"image-keyboard-response",156,155741,"0.0-4.48-0.48","zlvqk2brjx347l8",133,"86.csv","","288","resources/trios/L4T4A2.jpg","38","restless",0.4,0.4,0.6,0.77942684060028,"false"
"image-keyboard-response",157,156153,"0.0-4.48-1.48","zlvqk2brjx347l8",133,"86.csv","","null","resources/maskTrios/BT4B.jpg","null","",NA,NA,NA,NA,""
"image-keyboard-response",158,157357,"0.0-4.48-2.48","zlvqk2brjx347l8",133,"86.csv","","null","resources/images/fishbone.png","null","",NA,NA,NA,NA,""
"image-keyboard-response",159,157420,"0.0-4.49-0.49","zlvqk2brjx347l8",133,"86.csv","","63","resources/trios/L4T4A2.jpg","37","restless",0.4,0.4,0.6,0.736853506298058,"false"
"image-keyboard-response",160,157834,"0.0-4.49-1.49","zlvqk2brjx347l8",133,"86.csv","","null","resources/maskTrios/L4BB.jpg","null","",NA,NA,NA,NA,""
"image-keyboard-response",161,159043,"0.0-4.49-2.49","zlvqk2brjx347l8",133,"86.csv","","null","resources/images/fishbone.png","null","",NA,NA,NA,NA,""
"image-keyboard-response",162,159166,"0.0-4.50-0.50","zlvqk2brjx347l8",133,"86.csv","","122","resources/trios/L4T4A2.jpg","37","restless",0.4,0.4,0.6,0.0403751917773324,"true"
"image-keyboard-response",163,159573,"0.0-4.50-1.50","zlvqk2brjx347l8",133,"86.csv","","null","resources/maskTrios/L4BB.jpg","null","",NA,NA,NA,NA,""
"image-keyboard-response",164,160773,"0.0-4.50-2.50","zlvqk2brjx347l8",133,"86.csv","","null","resources/images/coin2.png","null","",NA,NA,NA,NA,""
"image-keyboard-response",165,160969,"0.0-4.51-0.51","zlvqk2brjx347l8",133,"86.csv","","194","resources/trios/L4T4A2.jpg","38","restless",0.4,0.4,0.6,0.985779549737271,"false"
"image-keyboard-response",166,161378,"0.0-4.51-1.51","zlvqk2brjx347l8",133,"86.csv","","null","resources/maskTrios/BT4B.jpg","null","",NA,NA,NA,NA,""
"image-keyboard-response",167,162578,"0.0-4.51-2.51","zlvqk2brjx347l8",133,"86.csv","","null","resources/images/fishbone.png","null","",NA,NA,NA,NA,""
"image-keyboard-response",168,162941,"0.0-4.52-0.52","zlvqk2brjx347l8",133,"86.csv","","363","resources/trios/L4T4A2.jpg","39","restless",0.4,0.4,0.6,0.508581686269037,"true"
"image-keyboard-response",169,163356,"0.0-4.52-1.52","zlvqk2brjx347l8",133,"86.csv","","null","resources/maskTrios/BBA2.jpg","null","",NA,NA,NA,NA,""
"image-keyboard-response",170,164560,"0.0-4.52-2.52","zlvqk2brjx347l8",133,"86.csv","","null","resources/images/coin2.png","null","",NA,NA,NA,NA,""
"image-keyboard-response",171,164741,"0.0-4.53-0.53","zlvqk2brjx347l8",133,"86.csv","","181","resources/trios/L4T4A2.jpg","39","restless",0.5,0.5,0.6,0.207151788437713,"true"
"image-keyboard-response",172,165149,"0.0-4.53-1.53","zlvqk2brjx347l8",133,"86.csv","","null","resources/maskTrios/BBA2.jpg","null","",NA,NA,NA,NA,""
"image-keyboard-response",173,166362,"0.0-4.53-2.53","zlvqk2brjx347l8",133,"86.csv","","null","resources/images/coin2.png","null","",NA,NA,NA,NA,""
"image-keyboard-response",174,166601,"0.0-4.54-0.54","zlvqk2brjx347l8",133,"86.csv","","239","resources/trios/L4T4A2.jpg","39","restless",0.5,0.5,0.7,0.428601910465994,"true"
"image-keyboard-response",175,167013,"0.0-4.54-1.54","zlvqk2brjx347l8",133,"86.csv","","null","resources/maskTrios/BBA2.jpg","null","",NA,NA,NA,NA,""
"image-keyboard-response",176,168221,"0.0-4.54-2.54","zlvqk2brjx347l8",133,"86.csv","","null","resources/images/coin2.png","null","",NA,NA,NA,NA,""
"image-keyboard-response",177,168432,"0.0-4.55-0.55","zlvqk2brjx347l8",133,"86.csv","","212","resources/trios/L4T4A2.jpg","39","restless",0.5,0.5,0.6,0.464322992611697,"true"
"image-keyboard-response",178,168846,"0.0-4.55-1.55","zlvqk2brjx347l8",133,"86.csv","","null","resources/maskTrios/BBA2.jpg","null","",NA,NA,NA,NA,""
"image-keyboard-response",179,170058,"0.0-4.55-2.55","zlvqk2brjx347l8",133,"86.csv","","null","resources/images/coin2.png","null","",NA,NA,NA,NA,""
"image-keyboard-response",180,170254,"0.0-4.56-0.56","zlvqk2brjx347l8",133,"86.csv","","196","resources/trios/L4T4A2.jpg","39","restless",0.6,0.5,0.6,0.797152526909934,"false"
"image-keyboard-response",181,170658,"0.0-4.56-1.56","zlvqk2brjx347l8",133,"86.csv","","null","resources/maskTrios/BBA2.jpg","null","",NA,NA,NA,NA,""
"image-keyboard-response",182,171873,"0.0-4.56-2.56","zlvqk2brjx347l8",133,"86.csv","","null","resources/images/fishbone.png","null","",NA,NA,NA,NA,""
"image-keyboard-response",183,172279,"0.0-4.57-0.57","zlvqk2brjx347l8",133,"86.csv","","405","resources/trios/L4T4A2.jpg","38","restless",0.6,0.5,0.6,0.979784380701877,"false"
"image-keyboard-response",184,172684,"0.0-4.57-1.57","zlvqk2brjx347l8",133,"86.csv","","null","resources/maskTrios/BT4B.jpg","null","",NA,NA,NA,NA,""
"image-keyboard-response",185,173887,"0.0-4.57-2.57","zlvqk2brjx347l8",133,"86.csv","","null","resources/images/fishbone.png","null","",NA,NA,NA,NA,""
"image-keyboard-response",186,174131,"0.0-4.58-0.58","zlvqk2brjx347l8",133,"86.csv","","244","resources/trios/L4T4A2.jpg","38","restless",0.6,0.5,0.6,0.708681441202343,"false"
"image-keyboard-response",187,174541,"0.0-4.58-1.58","zlvqk2brjx347l8",133,"86.csv","","null","resources/maskTrios/BT4B.jpg","null","",NA,NA,NA,NA,""
"image-keyboard-response",188,175744,"0.0-4.58-2.58","zlvqk2brjx347l8",133,"86.csv","","null","resources/images/fishbone.png","null","",NA,NA,NA,NA,""
"image-keyboard-response",189,175902,"0.0-4.59-0.59","zlvqk2brjx347l8",133,"86.csv","","157","resources/trios/L4T4A2.jpg","39","restless",0.6,0.5,0.6,0.692779017658769,"false"
"image-keyboard-response",190,176307,"0.0-4.59-1.59","zlvqk2brjx347l8",133,"86.csv","","null","resources/maskTrios/BBA2.jpg","null","",NA,NA,NA,NA,""
"image-keyboard-response",191,177521,"0.0-4.59-2.59","zlvqk2brjx347l8",133,"86.csv","","null","resources/images/fishbone.png","null","",NA,NA,NA,NA,""
"image-keyboard-response",192,177611,"0.0-4.60-0.60","zlvqk2brjx347l8",133,"86.csv","","90","resources/trios/L4T4A2.jpg","37","restless",0.6,0.5,0.6,0.683562341582141,"false"
"image-keyboard-response",193,178025,"0.0-4.60-1.60","zlvqk2brjx347l8",133,"86.csv","","null","resources/maskTrios/L4BB.jpg","null","",NA,NA,NA,NA,""
"image-keyboard-response",194,179233,"0.0-4.60-2.60","zlvqk2brjx347l8",133,"86.csv","","null","resources/images/fishbone.png","null","",NA,NA,NA,NA,""
"image-keyboard-response",195,179421,"0.0-4.61-0.61","zlvqk2brjx347l8",133,"86.csv","","189","resources/trios/L4T4A2.jpg","38","restless",0.6,0.5,0.6,0.0724182557928094,"true"
"image-keyboard-response",196,179824,"0.0-4.61-1.61","zlvqk2brjx347l8",133,"86.csv","","null","resources/maskTrios/BT4B.jpg","null","",NA,NA,NA,NA,""
"image-keyboard-response",197,181035,"0.0-4.61-2.61","zlvqk2brjx347l8",133,"86.csv","","null","resources/images/coin2.png","null","",NA,NA,NA,NA,""
"image-keyboard-response",198,181573,"0.0-4.62-0.62","zlvqk2brjx347l8",133,"86.csv","","537","resources/trios/L4T4A2.jpg","38","restless",0.7,0.5,0.6,0.154641171239827,"true"
"image-keyboard-response",199,181977,"0.0-4.62-1.62","zlvqk2brjx347l8",133,"86.csv","","null","resources/maskTrios/BT4B.jpg","null","",NA,NA,NA,NA,""
"image-keyboard-response",200,183193,"0.0-4.62-2.62","zlvqk2brjx347l8",133,"86.csv","","null","resources/images/coin2.png","null","",NA,NA,NA,NA,""
"image-keyboard-response",201,183447,"0.0-4.63-0.63","zlvqk2brjx347l8",133,"86.csv","","254","resources/trios/L4T4A2.jpg","38","restless",0.6,0.5,0.6,0.0433401692307557,"true"
"image-keyboard-response",202,183858,"0.0-4.63-1.63","zlvqk2brjx347l8",133,"86.csv","","null","resources/maskTrios/BT4B.jpg","null","",NA,NA,NA,NA,""
"image-keyboard-response",203,185063,"0.0-4.63-2.63","zlvqk2brjx347l8",133,"86.csv","","null","resources/images/coin2.png","null","",NA,NA,NA,NA,""
"image-keyboard-response",204,185360,"0.0-4.64-0.64","zlvqk2brjx347l8",133,"86.csv","","297","resources/trios/L4T4A2.jpg","37","restless",0.6,0.5,0.6,0.937153218819863,"false"
"image-keyboard-response",205,185764,"0.0-4.64-1.64","zlvqk2brjx347l8",133,"86.csv","","null","resources/maskTrios/L4BB.jpg","null","",NA,NA,NA,NA,""
"image-keyboard-response",206,186978,"0.0-4.64-2.64","zlvqk2brjx347l8",133,"86.csv","","null","resources/images/fishbone.png","null","",NA,NA,NA,NA,""
"image-keyboard-response",207,187182,"0.0-4.65-0.65","zlvqk2brjx347l8",133,"86.csv","","205","resources/trios/L4T4A2.jpg","38","restless",0.6,0.5,0.6,0.297992953587061,"true"
"image-keyboard-response",208,187597,"0.0-4.65-1.65","zlvqk2brjx347l8",133,"86.csv","","null","resources/maskTrios/BT4B.jpg","null","",NA,NA,NA,NA,""
"image-keyboard-response",209,188802,"0.0-4.65-2.65","zlvqk2brjx347l8",133,"86.csv","","null","resources/images/coin2.png","null","",NA,NA,NA,NA,""
"image-keyboard-response",210,188869,"0.0-4.66-0.66","zlvqk2brjx347l8",133,"86.csv","","67","resources/trios/L4T4A2.jpg","38","restless",0.6,0.5,0.6,0.705909366501535,"false"
"image-keyboard-response",211,189282,"0.0-4.66-1.66","zlvqk2brjx347l8",133,"86.csv","","null","resources/maskTrios/BT4B.jpg","null","",NA,NA,NA,NA,""
"image-keyboard-response",212,190484,"0.0-4.66-2.66","zlvqk2brjx347l8",133,"86.csv","","null","resources/images/fishbone.png","null","",NA,NA,NA,NA,""
"image-keyboard-response",213,190708,"0.0-4.67-0.67","zlvqk2brjx347l8",133,"86.csv","","224","resources/trios/L4T4A2.jpg","37","restless",0.6,0.5,0.6,0.589523666574067,"true"
"image-keyboard-response",214,191109,"0.0-4.67-1.67","zlvqk2brjx347l8",133,"86.csv","","null","resources/maskTrios/L4BB.jpg","null","",NA,NA,NA,NA,""
"image-keyboard-response",215,192312,"0.0-4.67-2.67","zlvqk2brjx347l8",133,"86.csv","","null","resources/images/coin2.png","null","",NA,NA,NA,NA,""
"image-keyboard-response",216,192507,"0.0-4.68-0.68","zlvqk2brjx347l8",133,"86.csv","","197","resources/trios/L4T4A2.jpg","37","restless",0.6,0.5,0.5,0.918955197334053,"false"
"image-keyboard-response",217,192918,"0.0-4.68-1.68","zlvqk2brjx347l8",133,"86.csv","","null","resources/maskTrios/L4BB.jpg","null","",NA,NA,NA,NA,""
"image-keyboard-response",218,194119,"0.0-4.68-2.68","zlvqk2brjx347l8",133,"86.csv","","null","resources/images/fishbone.png","null","",NA,NA,NA,NA,""
"image-keyboard-response",219,194315,"0.0-4.69-0.69","zlvqk2brjx347l8",133,"86.csv","","195","resources/trios/L4T4A2.jpg","39","restless",0.6,0.6,0.5,0.46304945356411,"true"
"image-keyboard-response",220,194716,"0.0-4.69-1.69","zlvqk2brjx347l8",133,"86.csv","","null","resources/maskTrios/BBA2.jpg","null","",NA,NA,NA,NA,""
"image-keyboard-response",221,195919,"0.0-4.69-2.69","zlvqk2brjx347l8",133,"86.csv","","null","resources/images/coin2.png","null","",NA,NA,NA,NA,""
"image-keyboard-response",222,196122,"0.0-4.70-0.70","zlvqk2brjx347l8",133,"86.csv","","202","resources/trios/L4T4A2.jpg","39","restless",0.6,0.6,0.5,0.501397671836996,"false"
"image-keyboard-response",223,196530,"0.0-4.70-1.70","zlvqk2brjx347l8",133,"86.csv","","null","resources/maskTrios/BBA2.jpg","null","",NA,NA,NA,NA,""
"image-keyboard-response",224,197733,"0.0-4.70-2.70","zlvqk2brjx347l8",133,"86.csv","","null","resources/images/fishbone.png","null","",NA,NA,NA,NA,""
"image-keyboard-response",225,198058,"0.0-4.71-0.71","zlvqk2brjx347l8",133,"86.csv","","324","resources/trios/L4T4A2.jpg","38","restless",0.6,0.6,0.5,0.613428777551367,"false"
"image-keyboard-response",226,198465,"0.0-4.71-1.71","zlvqk2brjx347l8",133,"86.csv","","null","resources/maskTrios/BT4B.jpg","null","",NA,NA,NA,NA,""
"image-keyboard-response",227,199667,"0.0-4.71-2.71","zlvqk2brjx347l8",133,"86.csv","","null","resources/images/fishbone.png","null","",NA,NA,NA,NA,""
"image-keyboard-response",228,200683,"0.0-4.72-0.72","zlvqk2brjx347l8",133,"86.csv","","1016","resources/trios/L4T4A2.jpg","39","restless",0.6,0.6,0.5,0.0196977460901623,"true"
"image-keyboard-response",229,201099,"0.0-4.72-1.72","zlvqk2brjx347l8",133,"86.csv","","null","resources/maskTrios/BBA2.jpg","null","",NA,NA,NA,NA,""
"image-keyboard-response",230,202312,"0.0-4.72-2.72","zlvqk2brjx347l8",133,"86.csv","","null","resources/images/coin2.png","null","",NA,NA,NA,NA,""
"image-keyboard-response",231,202535,"0.0-4.73-0.73","zlvqk2brjx347l8",133,"86.csv","","222","resources/trios/L4T4A2.jpg","37","restless",0.6,0.6,0.5,0.273753002029518,"true"
"image-keyboard-response",232,202939,"0.0-4.73-1.73","zlvqk2brjx347l8",133,"86.csv","","null","resources/maskTrios/L4BB.jpg","null","",NA,NA,NA,NA,""
"image-keyboard-response",233,204154,"0.0-4.73-2.73","zlvqk2brjx347l8",133,"86.csv","","null","resources/images/coin2.png","null","",NA,NA,NA,NA,""
"image-keyboard-response",234,204515,"0.0-4.74-0.74","zlvqk2brjx347l8",133,"86.csv","","362","resources/trios/L4T4A2.jpg","39","restless",0.6,0.6,0.5,0.432198682725664,"true"
"image-keyboard-response",235,204932,"0.0-4.74-1.74","zlvqk2brjx347l8",133,"86.csv","","null","resources/maskTrios/BBA2.jpg","null","",NA,NA,NA,NA,""
"image-keyboard-response",236,206138,"0.0-4.74-2.74","zlvqk2brjx347l8",133,"86.csv","","null","resources/images/coin2.png","null","",NA,NA,NA,NA,""
"image-keyboard-response",237,206384,"0.0-4.75-0.75","zlvqk2brjx347l8",133,"86.csv","","245","resources/trios/L4T4A2.jpg","38","restless",0.6,0.6,0.5,0.819009148312558,"false"
"image-keyboard-response",238,206794,"0.0-4.75-1.75","zlvqk2brjx347l8",133,"86.csv","","null","resources/maskTrios/BT4B.jpg","null","",NA,NA,NA,NA,""
"image-keyboard-response",239,207998,"0.0-4.75-2.75","zlvqk2brjx347l8",133,"86.csv","","null","resources/images/fishbone.png","null","",NA,NA,NA,NA,""
"image-keyboard-response",240,208153,"0.0-4.76-0.76","zlvqk2brjx347l8",133,"86.csv","","155","resources/trios/L4T4A2.jpg","37","restless",0.6,0.6,0.5,0.356674828136131,"true"
"image-keyboard-response",241,208560,"0.0-4.76-1.76","zlvqk2brjx347l8",133,"86.csv","","null","resources/maskTrios/L4BB.jpg","null","",NA,NA,NA,NA,""
"image-keyboard-response",242,209765,"0.0-4.76-2.76","zlvqk2brjx347l8",133,"86.csv","","null","resources/images/coin2.png","null","",NA,NA,NA,NA,""
"image-keyboard-response",243,209780,"0.0-4.77-0.77","zlvqk2brjx347l8",133,"86.csv","","16","resources/trios/L4T4A2.jpg","39","restless",0.6,0.6,0.5,0.69608192090897,"false"
"image-keyboard-response",244,210186,"0.0-4.77-1.77","zlvqk2brjx347l8",133,"86.csv","","null","resources/maskTrios/BBA2.jpg","null","",NA,NA,NA,NA,""
"image-keyboard-response",245,211401,"0.0-4.77-2.77","zlvqk2brjx347l8",133,"86.csv","","null","resources/images/fishbone.png","null","",NA,NA,NA,NA,""
"image-keyboard-response",246,211656,"0.0-4.78-0.78","zlvqk2brjx347l8",133,"86.csv","","254","resources/trios/L4T4A2.jpg","37","restless",0.6,0.6,0.5,0.454710959516121,"true"
"image-keyboard-response",247,212057,"0.0-4.78-1.78","zlvqk2brjx347l8",133,"86.csv","","null","resources/maskTrios/L4BB.jpg","null","",NA,NA,NA,NA,""
"image-keyboard-response",248,213263,"0.0-4.78-2.78","zlvqk2brjx347l8",133,"86.csv","","null","resources/images/coin2.png","null","",NA,NA,NA,NA,""
"image-keyboard-response",249,213628,"0.0-4.79-0.79","zlvqk2brjx347l8",133,"86.csv","","366","resources/trios/L4T4A2.jpg","37","restless",0.6,0.6,0.5,0.106791422478355,"true"
"image-keyboard-response",250,214044,"0.0-4.79-1.79","zlvqk2brjx347l8",133,"86.csv","","null","resources/maskTrios/L4BB.jpg","null","",NA,NA,NA,NA,""
"image-keyboard-response",251,215260,"0.0-4.79-2.79","zlvqk2brjx347l8",133,"86.csv","","null","resources/images/coin2.png","null","",NA,NA,NA,NA,""
"image-keyboard-response",252,215399,"0.0-4.80-0.80","zlvqk2brjx347l8",133,"86.csv","","138","resources/trios/L4T4A2.jpg","39","restless",0.6,0.6,0.4,0.271792463004077,"true"
"image-keyboard-response",253,215808,"0.0-4.80-1.80","zlvqk2brjx347l8",133,"86.csv","","null","resources/maskTrios/BBA2.jpg","null","",NA,NA,NA,NA,""
"image-keyboard-response",254,217015,"0.0-4.80-2.80","zlvqk2brjx347l8",133,"86.csv","","null","resources/images/coin2.png","null","",NA,NA,NA,NA,""
"image-keyboard-response",255,217243,"0.0-4.81-0.81","zlvqk2brjx347l8",133,"86.csv","","227","resources/trios/L4T4A2.jpg","38","restless",0.6,0.6,0.5,0.404441854940529,"true"
"image-keyboard-response",256,217655,"0.0-4.81-1.81","zlvqk2brjx347l8",133,"86.csv","","null","resources/maskTrios/BT4B.jpg","null","",NA,NA,NA,NA,""
"image-keyboard-response",257,218857,"0.0-4.81-2.81","zlvqk2brjx347l8",133,"86.csv","","null","resources/images/coin2.png","null","",NA,NA,NA,NA,""
"image-keyboard-response",258,218923,"0.0-4.82-0.82","zlvqk2brjx347l8",133,"86.csv","","65","resources/trios/L4T4A2.jpg","39","restless",0.6,0.6,0.5,0.479547925622431,"true"
"image-keyboard-response",259,219324,"0.0-4.82-1.82","zlvqk2brjx347l8",133,"86.csv","","null","resources/maskTrios/BBA2.jpg","null","",NA,NA,NA,NA,""
"image-keyboard-response",260,220537,"0.0-4.82-2.82","zlvqk2brjx347l8",133,"86.csv","","null","resources/images/coin2.png","null","",NA,NA,NA,NA,""
"image-keyboard-response",261,220691,"0.0-4.83-0.83","zlvqk2brjx347l8",133,"86.csv","","154","resources/trios/L4T4A2.jpg","37","restless",0.6,0.6,0.5,0.0963280566262538,"true"
"image-keyboard-response",262,221096,"0.0-4.83-1.83","zlvqk2brjx347l8",133,"86.csv","","null","resources/maskTrios/L4BB.jpg","null","",NA,NA,NA,NA,""
"image-keyboard-response",263,222299,"0.0-4.83-2.83","zlvqk2brjx347l8",133,"86.csv","","null","resources/images/coin2.png","null","",NA,NA,NA,NA,""
"image-keyboard-response",264,222539,"0.0-4.84-0.84","zlvqk2brjx347l8",133,"86.csv","","239","resources/trios/L4T4A2.jpg","38","restless",0.6,0.6,0.4,0.0874255625980426,"true"
"image-keyboard-response",265,222952,"0.0-4.84-1.84","zlvqk2brjx347l8",133,"86.csv","","null","resources/maskTrios/BT4B.jpg","null","",NA,NA,NA,NA,""
"image-keyboard-response",266,224152,"0.0-4.84-2.84","zlvqk2brjx347l8",133,"86.csv","","null","resources/images/coin2.png","null","",NA,NA,NA,NA,""
"image-keyboard-response",267,224414,"0.0-4.85-0.85","zlvqk2brjx347l8",133,"86.csv","","260","resources/trios/L4T4A2.jpg","37","restless",0.6,0.6,0.4,0.766336615778835,"false"
"image-keyboard-response",268,224823,"0.0-4.85-1.85","zlvqk2brjx347l8",133,"86.csv","","null","resources/maskTrios/L4BB.jpg","null","",NA,NA,NA,NA,""
"image-keyboard-response",269,226029,"0.0-4.85-2.85","zlvqk2brjx347l8",133,"86.csv","","null","resources/images/fishbone.png","null","",NA,NA,NA,NA,""
"image-keyboard-response",270,226237,"0.0-4.86-0.86","zlvqk2brjx347l8",133,"86.csv","","208","resources/trios/L4T4A2.jpg","39","restless",0.6,0.7,0.4,0.404502682763511,"false"
"image-keyboard-response",271,226646,"0.0-4.86-1.86","zlvqk2brjx347l8",133,"86.csv","","null","resources/maskTrios/BBA2.jpg","null","",NA,NA,NA,NA,""
"image-keyboard-response",272,227854,"0.0-4.86-2.86","zlvqk2brjx347l8",133,"86.csv","","null","resources/images/fishbone.png","null","",NA,NA,NA,NA,""
"image-keyboard-response",273,229526,"0.0-4.87-0.87","zlvqk2brjx347l8",133,"86.csv","","1672","resources/trios/L4T4A2.jpg","38","restless",0.6,0.7,0.4,0.500648304187462,"true"
"image-keyboard-response",274,229926,"0.0-4.87-1.87","zlvqk2brjx347l8",133,"86.csv","","null","resources/maskTrios/BT4B.jpg","null","",NA,NA,NA,NA,""
"image-keyboard-response",275,231136,"0.0-4.87-2.87","zlvqk2brjx347l8",133,"86.csv","","null","resources/images/coin2.png","null","",NA,NA,NA,NA,""
"image-keyboard-response",276,231926,"0.0-4.88-0.88","zlvqk2brjx347l8",133,"86.csv","","790","resources/trios/L4T4A2.jpg","38","restless",0.6,0.7,0.4,0.390417576402477,"true"
"image-keyboard-response",277,232328,"0.0-4.88-1.88","zlvqk2brjx347l8",133,"86.csv","","null","resources/maskTrios/BT4B.jpg","null","",NA,NA,NA,NA,""
"image-keyboard-response",278,233540,"0.0-4.88-2.88","zlvqk2brjx347l8",133,"86.csv","","null","resources/images/coin2.png","null","",NA,NA,NA,NA,""
"image-keyboard-response",279,235434,"0.0-4.89-0.89","zlvqk2brjx347l8",133,"86.csv","","1894","resources/trios/L4T4A2.jpg","38","restless",0.6,0.7,0.4,0.52266703295941,"true"
"image-keyboard-response",280,235843,"0.0-4.89-1.89","zlvqk2brjx347l8",133,"86.csv","","null","resources/maskTrios/BT4B.jpg","null","",NA,NA,NA,NA,""
"image-keyboard-response",281,237058,"0.0-4.89-2.89","zlvqk2brjx347l8",133,"86.csv","","null","resources/images/coin2.png","null","",NA,NA,NA,NA,""
"image-keyboard-response",282,237367,"0.0-4.90-0.90","zlvqk2brjx347l8",133,"86.csv","","309","resources/trios/L4T4A2.jpg","38","restless",0.6,0.7,0.4,0.186805621402585,"true"
"image-keyboard-response",283,237777,"0.0-4.90-1.90","zlvqk2brjx347l8",133,"86.csv","","null","resources/maskTrios/BT4B.jpg","null","",NA,NA,NA,NA,""
"image-keyboard-response",284,238992,"0.0-4.90-2.90","zlvqk2brjx347l8",133,"86.csv","","null","resources/images/coin2.png","null","",NA,NA,NA,NA,""
"image-keyboard-response",285,240343,"0.0-4.91-0.91","zlvqk2brjx347l8",133,"86.csv","","1352","resources/trios/L4T4A2.jpg","37","restless",0.6,0.7,0.4,0.0271606083743031,"true"
"image-keyboard-response",286,240743,"0.0-4.91-1.91","zlvqk2brjx347l8",133,"86.csv","","null","resources/maskTrios/L4BB.jpg","null","",NA,NA,NA,NA,""
"image-keyboard-response",287,241946,"0.0-4.91-2.91","zlvqk2brjx347l8",133,"86.csv","","null","resources/images/coin2.png","null","",NA,NA,NA,NA,""
"image-keyboard-response",288,245036,"0.0-4.92-0.92","zlvqk2brjx347l8",133,"86.csv","","3090","resources/trios/L4T4A2.jpg","37","restless",0.6,0.7,0.4,0.475848080515708,"true"
"image-keyboard-response",289,245441,"0.0-4.92-1.92","zlvqk2brjx347l8",133,"86.csv","","null","resources/maskTrios/L4BB.jpg","null","",NA,NA,NA,NA,""
"image-keyboard-response",290,246650,"0.0-4.92-2.92","zlvqk2brjx347l8",133,"86.csv","","null","resources/images/coin2.png","null","",NA,NA,NA,NA,""
"image-keyboard-response",291,249138,"0.0-4.93-0.93","zlvqk2brjx347l8",133,"86.csv","","2486","resources/trios/L4T4A2.jpg","39","restless",0.6,0.7,0.4,0.318165247815934,"true"
"image-keyboard-response",292,249551,"0.0-4.93-1.93","zlvqk2brjx347l8",133,"86.csv","","null","resources/maskTrios/BBA2.jpg","null","",NA,NA,NA,NA,""
"image-keyboard-response",293,250752,"0.0-4.93-2.93","zlvqk2brjx347l8",133,"86.csv","","null","resources/images/coin2.png","null","",NA,NA,NA,NA,""
"image-keyboard-response",294,252215,"0.0-4.94-0.94","zlvqk2brjx347l8",133,"86.csv","","1463","resources/trios/L4T4A2.jpg","38","restless",0.7,0.7,0.4,0.66639264464806,"true"
"image-keyboard-response",295,252620,"0.0-4.94-1.94","zlvqk2brjx347l8",133,"86.csv","","null","resources/maskTrios/BT4B.jpg","null","",NA,NA,NA,NA,""
"image-keyboard-response",296,253827,"0.0-4.94-2.94","zlvqk2brjx347l8",133,"86.csv","","null","resources/images/coin2.png","null","",NA,NA,NA,NA,""
"image-keyboard-response",297,254205,"0.0-4.95-0.95","zlvqk2brjx347l8",133,"86.csv","","377","resources/trios/L4T4A2.jpg","37","restless",0.7,0.7,0.4,0.615058234511577,"true"
"image-keyboard-response",298,254606,"0.0-4.95-1.95","zlvqk2brjx347l8",133,"86.csv","","null","resources/maskTrios/L4BB.jpg","null","",NA,NA,NA,NA,""
"image-keyboard-response",299,255820,"0.0-4.95-2.95","zlvqk2brjx347l8",133,"86.csv","","null","resources/images/coin2.png","null","",NA,NA,NA,NA,""
"image-keyboard-response",300,256511,"0.0-4.96-0.96","zlvqk2brjx347l8",133,"86.csv","","691","resources/trios/L4T4A2.jpg","37","restless",0.7,0.7,0.4,0.36799060598252,"true"
"image-keyboard-response",301,256922,"0.0-4.96-1.96","zlvqk2brjx347l8",133,"86.csv","","null","resources/maskTrios/L4BB.jpg","null","",NA,NA,NA,NA,""
"image-keyboard-response",302,258133,"0.0-4.96-2.96","zlvqk2brjx347l8",133,"86.csv","","null","resources/images/coin2.png","null","",NA,NA,NA,NA,""
"image-keyboard-response",303,258671,"0.0-4.97-0.97","zlvqk2brjx347l8",133,"86.csv","","538","resources/trios/L4T4A2.jpg","39","restless",0.7,0.7,0.4,0.875474881086249,"false"
"image-keyboard-response",304,259073,"0.0-4.97-1.97","zlvqk2brjx347l8",133,"86.csv","","null","resources/maskTrios/BBA2.jpg","null","",NA,NA,NA,NA,""
"image-keyboard-response",305,260281,"0.0-4.97-2.97","zlvqk2brjx347l8",133,"86.csv","","null","resources/images/fishbone.png","null","",NA,NA,NA,NA,""
"image-keyboard-response",306,260563,"0.0-4.98-0.98","zlvqk2brjx347l8",133,"86.csv","","281","resources/trios/L4T4A2.jpg","38","restless",0.7,0.7,0.4,0.95933207603512,"false"
"image-keyboard-response",307,260968,"0.0-4.98-1.98","zlvqk2brjx347l8",133,"86.csv","","null","resources/maskTrios/BT4B.jpg","null","",NA,NA,NA,NA,""
"image-keyboard-response",308,262182,"0.0-4.98-2.98","zlvqk2brjx347l8",133,"86.csv","","null","resources/images/fishbone.png","null","",NA,NA,NA,NA,""
"image-keyboard-response",309,262314,"0.0-4.99-0.99","zlvqk2brjx347l8",133,"86.csv","","130","resources/trios/L4T4A2.jpg","37","restless",0.8,0.7,0.4,0.372166688931775,"true"
"image-keyboard-response",310,262724,"0.0-4.99-1.99","zlvqk2brjx347l8",133,"86.csv","","null","resources/maskTrios/L4BB.jpg","null","",NA,NA,NA,NA,""
"image-keyboard-response",311,263936,"0.0-4.99-2.99","zlvqk2brjx347l8",133,"86.csv","","null","resources/images/coin2.png","null","",NA,NA,NA,NA,""
"image-keyboard-response",312,264159,"0.0-4.100-0.100","zlvqk2brjx347l8",133,"86.csv","","222","resources/trios/L4T4A2.jpg","37","restless",0.8,0.7,0.4,0.495396850941557,"true"
"image-keyboard-response",313,264561,"0.0-4.100-1.100","zlvqk2brjx347l8",133,"86.csv","","null","resources/maskTrios/L4BB.jpg","null","",NA,NA,NA,NA,""
"image-keyboard-response",314,265762,"0.0-4.100-2.100","zlvqk2brjx347l8",133,"86.csv","","null","resources/images/coin2.png","null","",NA,NA,NA,NA,""
"image-keyboard-response",315,265884,"0.0-4.101-0.101","zlvqk2brjx347l8",133,"86.csv","","120","resources/trios/L4T4A2.jpg","37","restless",0.8,0.7,0.4,0.593714701963069,"true"
"image-keyboard-response",316,266287,"0.0-4.101-1.101","zlvqk2brjx347l8",133,"86.csv","","null","resources/maskTrios/L4BB.jpg","null","",NA,NA,NA,NA,""
"image-keyboard-response",317,267503,"0.0-4.101-2.101","zlvqk2brjx347l8",133,"86.csv","","null","resources/images/coin2.png","null","",NA,NA,NA,NA,""
"image-keyboard-response",318,267998,"0.0-4.102-0.102","zlvqk2brjx347l8",133,"86.csv","","495","resources/trios/L4T4A2.jpg","39","restless",0.7,0.7,0.4,0.339853388179095,"true"
"image-keyboard-response",319,268408,"0.0-4.102-1.102","zlvqk2brjx347l8",133,"86.csv","","null","resources/maskTrios/BBA2.jpg","null","",NA,NA,NA,NA,""
"image-keyboard-response",320,269617,"0.0-4.102-2.102","zlvqk2brjx347l8",133,"86.csv","","null","resources/images/coin2.png","null","",NA,NA,NA,NA,""
"image-keyboard-response",321,269806,"0.0-4.103-0.103","zlvqk2brjx347l8",133,"86.csv","","187","resources/trios/L4T4A2.jpg","39","restless",0.7,0.7,0.3,0.103524603055862,"true"
"image-keyboard-response",322,270215,"0.0-4.103-1.103","zlvqk2brjx347l8",133,"86.csv","","null","resources/maskTrios/BBA2.jpg","null","",NA,NA,NA,NA,""
"image-keyboard-response",323,271417,"0.0-4.103-2.103","zlvqk2brjx347l8",133,"86.csv","","null","resources/images/coin2.png","null","",NA,NA,NA,NA,""
"image-keyboard-response",324,271748,"0.0-4.104-0.104","zlvqk2brjx347l8",133,"86.csv","","331","resources/trios/L4T4A2.jpg","38","restless",0.7,0.7,0.3,0.251994537311245,"true"
"image-keyboard-response",325,272152,"0.0-4.104-1.104","zlvqk2brjx347l8",133,"86.csv","","null","resources/maskTrios/BT4B.jpg","null","",NA,NA,NA,NA,""
"image-keyboard-response",326,273357,"0.0-4.104-2.104","zlvqk2brjx347l8",133,"86.csv","","null","resources/images/coin2.png","null","",NA,NA,NA,NA,""
"image-keyboard-response",327,273601,"0.0-4.105-0.105","zlvqk2brjx347l8",133,"86.csv","","245","resources/trios/L4T4A2.jpg","37","restless",0.7,0.6,0.3,0.0122884158902107,"true"
"image-keyboard-response",328,274010,"0.0-4.105-1.105","zlvqk2brjx347l8",133,"86.csv","","null","resources/maskTrios/L4BB.jpg","null","",NA,NA,NA,NA,""
"image-keyboard-response",329,275212,"0.0-4.105-2.105","zlvqk2brjx347l8",133,"86.csv","","null","resources/images/coin2.png","null","",NA,NA,NA,NA,""
"image-keyboard-response",330,275634,"0.0-4.106-0.106","zlvqk2brjx347l8",133,"86.csv","","421","resources/trios/L4T4A2.jpg","37","restless",0.8,0.5,0.3,0.0811642380284736,"true"
"image-keyboard-response",331,276037,"0.0-4.106-1.106","zlvqk2brjx347l8",133,"86.csv","","null","resources/maskTrios/L4BB.jpg","null","",NA,NA,NA,NA,""
"image-keyboard-response",332,277251,"0.0-4.106-2.106","zlvqk2brjx347l8",133,"86.csv","","null","resources/images/coin2.png","null","",NA,NA,NA,NA,""
"image-keyboard-response",333,277569,"0.0-4.107-0.107","zlvqk2brjx347l8",133,"86.csv","","316","resources/trios/L4T4A2.jpg","39","restless",0.8,0.5,0.3,0.279233270839102,"true"
"image-keyboard-response",334,277971,"0.0-4.107-1.107","zlvqk2brjx347l8",133,"86.csv","","null","resources/maskTrios/BBA2.jpg","null","",NA,NA,NA,NA,""
"image-keyboard-response",335,279186,"0.0-4.107-2.107","zlvqk2brjx347l8",133,"86.csv","","null","resources/images/coin2.png","null","",NA,NA,NA,NA,""
"image-keyboard-response",336,279407,"0.0-4.108-0.108","zlvqk2brjx347l8",133,"86.csv","","220","resources/trios/L4T4A2.jpg","39","restless",0.8,0.5,0.3,0.829332454420239,"false"
"image-keyboard-response",337,279810,"0.0-4.108-1.108","zlvqk2brjx347l8",133,"86.csv","","null","resources/maskTrios/BBA2.jpg","null","",NA,NA,NA,NA,""
"image-keyboard-response",338,281015,"0.0-4.108-2.108","zlvqk2brjx347l8",133,"86.csv","","null","resources/images/fishbone.png","null","",NA,NA,NA,NA,""
"image-keyboard-response",339,281287,"0.0-4.109-0.109","zlvqk2brjx347l8",133,"86.csv","","272","resources/trios/L4T4A2.jpg","38","restless",0.8,0.4,0.3,0.899402998484338,"false"
"image-keyboard-response",340,281699,"0.0-4.109-1.109","zlvqk2brjx347l8",133,"86.csv","","null","resources/maskTrios/BT4B.jpg","null","",NA,NA,NA,NA,""
"image-keyboard-response",341,282905,"0.0-4.109-2.109","zlvqk2brjx347l8",133,"86.csv","","null","resources/images/fishbone.png","null","",NA,NA,NA,NA,""
"image-keyboard-response",342,283397,"0.0-4.110-0.110","zlvqk2brjx347l8",133,"86.csv","","492","resources/trios/L4T4A2.jpg","39","restless",0.8,0.3,0.3,0.0693215103438083,"true"
"image-keyboard-response",343,283811,"0.0-4.110-1.110","zlvqk2brjx347l8",133,"86.csv","","null","resources/maskTrios/BBA2.jpg","null","",NA,NA,NA,NA,""
"image-keyboard-response",344,285015,"0.0-4.110-2.110","zlvqk2brjx347l8",133,"86.csv","","null","resources/images/coin2.png","null","",NA,NA,NA,NA,""
"image-keyboard-response",345,285174,"0.0-4.111-0.111","zlvqk2brjx347l8",133,"86.csv","","158","resources/trios/L4T4A2.jpg","39","restless",0.8,0.3,0.3,0.319470020377954,"false"
"image-keyboard-response",346,285575,"0.0-4.111-1.111","zlvqk2brjx347l8",133,"86.csv","","null","resources/maskTrios/BBA2.jpg","null","",NA,NA,NA,NA,""
"image-keyboard-response",347,286780,"0.0-4.111-2.111","zlvqk2brjx347l8",133,"86.csv","","null","resources/images/fishbone.png","null","",NA,NA,NA,NA,""
"image-keyboard-response",348,287274,"0.0-4.112-0.112","zlvqk2brjx347l8",133,"86.csv","","494","resources/trios/L4T4A2.jpg","37","restless",0.8,0.3,0.3,0.662006320475306,"true"
"image-keyboard-response",349,287687,"0.0-4.112-1.112","zlvqk2brjx347l8",133,"86.csv","","null","resources/maskTrios/L4BB.jpg","null","",NA,NA,NA,NA,""
"image-keyboard-response",350,288888,"0.0-4.112-2.112","zlvqk2brjx347l8",133,"86.csv","","null","resources/images/coin2.png","null","",NA,NA,NA,NA,""
"image-keyboard-response",351,289066,"0.0-4.113-0.113","zlvqk2brjx347l8",133,"86.csv","","178","resources/trios/L4T4A2.jpg","37","restless",0.7,0.3,0.4,0.919105811998918,"false"
"image-keyboard-response",352,289479,"0.0-4.113-1.113","zlvqk2brjx347l8",133,"86.csv","","null","resources/maskTrios/L4BB.jpg","null","",NA,NA,NA,NA,""
"image-keyboard-response",353,290682,"0.0-4.113-2.113","zlvqk2brjx347l8",133,"86.csv","","null","resources/images/fishbone.png","null","",NA,NA,NA,NA,""
"image-keyboard-response",354,293376,"0.0-4.114-0.114","zlvqk2brjx347l8",133,"86.csv","","2693","resources/trios/L4T4A2.jpg","39","restless",0.7,0.3,0.4,0.182917623799404,"true"
"image-keyboard-response",355,293784,"0.0-4.114-1.114","zlvqk2brjx347l8",133,"86.csv","","null","resources/maskTrios/BBA2.jpg","null","",NA,NA,NA,NA,""
"image-keyboard-response",356,294997,"0.0-4.114-2.114","zlvqk2brjx347l8",133,"86.csv","","null","resources/images/coin2.png","null","",NA,NA,NA,NA,""
"image-keyboard-response",357,295285,"0.0-4.115-0.115","zlvqk2brjx347l8",133,"86.csv","","287","resources/trios/L4T4A2.jpg","39","restless",0.8,0.3,0.4,0.600343850515915,"false"
"image-keyboard-response",358,295700,"0.0-4.115-1.115","zlvqk2brjx347l8",133,"86.csv","","null","resources/maskTrios/BBA2.jpg","null","",NA,NA,NA,NA,""
"image-keyboard-response",359,296901,"0.0-4.115-2.115","zlvqk2brjx347l8",133,"86.csv","","null","resources/images/fishbone.png","null","",NA,NA,NA,NA,""
"image-keyboard-response",360,297145,"0.0-4.116-0.116","zlvqk2brjx347l8",133,"86.csv","","242","resources/trios/L4T4A2.jpg","38","restless",0.8,0.4,0.4,0.899669825239464,"false"
"image-keyboard-response",361,297556,"0.0-4.116-1.116","zlvqk2brjx347l8",133,"86.csv","","null","resources/maskTrios/BT4B.jpg","null","",NA,NA,NA,NA,""
"image-keyboard-response",362,298770,"0.0-4.116-2.116","zlvqk2brjx347l8",133,"86.csv","","null","resources/images/fishbone.png","null","",NA,NA,NA,NA,""
"image-keyboard-response",363,298869,"0.0-4.117-0.117","zlvqk2brjx347l8",133,"86.csv","","100","resources/trios/L4T4A2.jpg","39","restless",0.8,0.4,0.4,0.794250843094028,"false"
"image-keyboard-response",364,299279,"0.0-4.117-1.117","zlvqk2brjx347l8",133,"86.csv","","null","resources/maskTrios/BBA2.jpg","null","",NA,NA,NA,NA,""
"image-keyboard-response",365,300485,"0.0-4.117-2.117","zlvqk2brjx347l8",133,"86.csv","","null","resources/images/fishbone.png","null","",NA,NA,NA,NA,""
"image-keyboard-response",366,300655,"0.0-4.118-0.118","zlvqk2brjx347l8",133,"86.csv","","170","resources/trios/L4T4A2.jpg","37","restless",0.8,0.4,0.4,0.866022498142024,"false"
"image-keyboard-response",367,301064,"0.0-4.118-1.118","zlvqk2brjx347l8",133,"86.csv","","null","resources/maskTrios/L4BB.jpg","null","",NA,NA,NA,NA,""
"image-keyboard-response",368,302275,"0.0-4.118-2.118","zlvqk2brjx347l8",133,"86.csv","","null","resources/images/fishbone.png","null","",NA,NA,NA,NA,""
"image-keyboard-response",369,302848,"0.0-4.119-0.119","zlvqk2brjx347l8",133,"86.csv","","573","resources/trios/L4T4A2.jpg","39","restless",0.8,0.4,0.4,0.475031188933647,"false"
"image-keyboard-response",370,303262,"0.0-4.119-1.119","zlvqk2brjx347l8",133,"86.csv","","null","resources/maskTrios/BBA2.jpg","null","",NA,NA,NA,NA,""
"image-keyboard-response",371,304475,"0.0-4.119-2.119","zlvqk2brjx347l8",133,"86.csv","","null","resources/images/fishbone.png","null","",NA,NA,NA,NA,""
"image-keyboard-response",372,304571,"0.0-4.120-0.120","zlvqk2brjx347l8",133,"86.csv","","95","resources/trios/L4T4A2.jpg","39","restless",0.8,0.4,0.4,0.918639867157228,"false"
"image-keyboard-response",373,304986,"0.0-4.120-1.120","zlvqk2brjx347l8",133,"86.csv","","null","resources/maskTrios/BBA2.jpg","null","",NA,NA,NA,NA,""
"image-keyboard-response",374,306202,"0.0-4.120-2.120","zlvqk2brjx347l8",133,"86.csv","","null","resources/images/fishbone.png","null","",NA,NA,NA,NA,""
"image-keyboard-response",375,306220,"0.0-4.121-0.121","zlvqk2brjx347l8",133,"86.csv","","19","resources/trios/L4T4A2.jpg","39","restless",0.8,0.4,0.4,0.992861068731984,"false"
"image-keyboard-response",376,306634,"0.0-4.121-1.121","zlvqk2brjx347l8",133,"86.csv","","null","resources/maskTrios/BBA2.jpg","null","",NA,NA,NA,NA,""
"image-keyboard-response",377,307844,"0.0-4.121-2.121","zlvqk2brjx347l8",133,"86.csv","","null","resources/images/fishbone.png","null","",NA,NA,NA,NA,""
"image-keyboard-response",378,307893,"0.0-4.122-0.122","zlvqk2brjx347l8",133,"86.csv","","50","resources/trios/L4T4A2.jpg","39","restless",0.8,0.4,0.4,0.0952534037698195,"true"
"image-keyboard-response",379,308308,"0.0-4.122-1.122","zlvqk2brjx347l8",133,"86.csv","","null","resources/maskTrios/BBA2.jpg","null","",NA,NA,NA,NA,""
"image-keyboard-response",380,309510,"0.0-4.122-2.122","zlvqk2brjx347l8",133,"86.csv","","null","resources/images/coin2.png","null","",NA,NA,NA,NA,""
"image-keyboard-response",381,309559,"0.0-4.123-0.123","zlvqk2brjx347l8",133,"86.csv","","48","resources/trios/L4T4A2.jpg","39","restless",0.8,0.4,0.4,0.232828857197541,"true"
"image-keyboard-response",382,309960,"0.0-4.123-1.123","zlvqk2brjx347l8",133,"86.csv","","null","resources/maskTrios/BBA2.jpg","null","",NA,NA,NA,NA,""
"image-keyboard-response",383,311164,"0.0-4.123-2.123","zlvqk2brjx347l8",133,"86.csv","","null","resources/images/coin2.png","null","",NA,NA,NA,NA,""
"image-keyboard-response",384,311395,"0.0-4.124-0.124","zlvqk2brjx347l8",133,"86.csv","","231","resources/trios/L4T4A2.jpg","39","restless",0.8,0.4,0.4,0.687699777405661,"false"
"image-keyboard-response",385,311804,"0.0-4.124-1.124","zlvqk2brjx347l8",133,"86.csv","","null","resources/maskTrios/BBA2.jpg","null","",NA,NA,NA,NA,""
"image-keyboard-response",386,313014,"0.0-4.124-2.124","zlvqk2brjx347l8",133,"86.csv","","null","resources/images/fishbone.png","null","",NA,NA,NA,NA,""
"image-keyboard-response",387,313858,"0.0-4.125-0.125","zlvqk2brjx347l8",133,"86.csv","","844","resources/trios/L4T4A2.jpg","37","restless",0.8,0.4,0.4,0.0486772022539994,"true"
"image-keyboard-response",388,314273,"0.0-4.125-1.125","zlvqk2brjx347l8",133,"86.csv","","null","resources/maskTrios/L4BB.jpg","null","",NA,NA,NA,NA,""
"image-keyboard-response",389,315488,"0.0-4.125-2.125","zlvqk2brjx347l8",133,"86.csv","","null","resources/images/coin2.png","null","",NA,NA,NA,NA,""
"image-keyboard-response",390,316030,"0.0-4.126-0.126","zlvqk2brjx347l8",133,"86.csv","","542","resources/trios/L4T4A2.jpg","37","restless",0.8,0.4,0.4,0.474711498568463,"true"
"image-keyboard-response",391,316439,"0.0-4.126-1.126","zlvqk2brjx347l8",133,"86.csv","","null","resources/maskTrios/L4BB.jpg","null","",NA,NA,NA,NA,""
"image-keyboard-response",392,317646,"0.0-4.126-2.126","zlvqk2brjx347l8",133,"86.csv","","null","resources/images/coin2.png","null","",NA,NA,NA,NA,""
"image-keyboard-response",393,317928,"0.0-4.127-0.127","zlvqk2brjx347l8",133,"86.csv","","282","resources/trios/L4T4A2.jpg","37","restless",0.8,0.4,0.4,0.567856323480883,"true"
"image-keyboard-response",394,318333,"0.0-4.127-1.127","zlvqk2brjx347l8",133,"86.csv","","null","resources/maskTrios/L4BB.jpg","null","",NA,NA,NA,NA,""
"image-keyboard-response",395,319537,"0.0-4.127-2.127","zlvqk2brjx347l8",133,"86.csv","","null","resources/images/coin2.png","null","",NA,NA,NA,NA,""
"image-keyboard-response",396,319781,"0.0-4.128-0.128","zlvqk2brjx347l8",133,"86.csv","","243","resources/trios/L4T4A2.jpg","39","restless",0.8,0.4,0.4,0.083070557290888,"true"
"image-keyboard-response",397,320188,"0.0-4.128-1.128","zlvqk2brjx347l8",133,"86.csv","","null","resources/maskTrios/BBA2.jpg","null","",NA,NA,NA,NA,""
"image-keyboard-response",398,321390,"0.0-4.128-2.128","zlvqk2brjx347l8",133,"86.csv","","null","resources/images/coin2.png","null","",NA,NA,NA,NA,""
"image-keyboard-response",399,321550,"0.0-4.129-0.129","zlvqk2brjx347l8",133,"86.csv","","161","resources/trios/L4T4A2.jpg","39","restless",0.8,0.4,0.4,0.369071131024189,"true"
"image-keyboard-response",400,321963,"0.0-4.129-1.129","zlvqk2brjx347l8",133,"86.csv","","null","resources/maskTrios/BBA2.jpg","null","",NA,NA,NA,NA,""
"image-keyboard-response",401,323165,"0.0-4.129-2.129","zlvqk2brjx347l8",133,"86.csv","","null","resources/images/coin2.png","null","",NA,NA,NA,NA,""
"image-keyboard-response",402,323373,"0.0-4.130-0.130","zlvqk2brjx347l8",133,"86.csv","","207","resources/trios/L4T4A2.jpg","38","restless",0.8,0.5,0.4,0.807945848560067,"false"
"image-keyboard-response",403,323779,"0.0-4.130-1.130","zlvqk2brjx347l8",133,"86.csv","","null","resources/maskTrios/BT4B.jpg","null","",NA,NA,NA,NA,""
"image-keyboard-response",404,324991,"0.0-4.130-2.130","zlvqk2brjx347l8",133,"86.csv","","null","resources/images/fishbone.png","null","",NA,NA,NA,NA,""
"image-keyboard-response",405,325189,"0.0-4.131-0.131","zlvqk2brjx347l8",133,"86.csv","","197","resources/trios/L4T4A2.jpg","38","restless",0.9,0.4,0.4,0.922066818589994,"false"
"image-keyboard-response",406,325592,"0.0-4.131-1.131","zlvqk2brjx347l8",133,"86.csv","","null","resources/maskTrios/BT4B.jpg","null","",NA,NA,NA,NA,""
"image-keyboard-response",407,326800,"0.0-4.131-2.131","zlvqk2brjx347l8",133,"86.csv","","null","resources/images/fishbone.png","null","",NA,NA,NA,NA,""
"image-keyboard-response",408,327041,"0.0-4.132-0.132","zlvqk2brjx347l8",133,"86.csv","","241","resources/trios/L4T4A2.jpg","38","restless",0.9,0.4,0.4,0.487125013217736,"false"
"image-keyboard-response",409,327445,"0.0-4.132-1.132","zlvqk2brjx347l8",133,"86.csv","","null","resources/maskTrios/BT4B.jpg","null","",NA,NA,NA,NA,""
"image-keyboard-response",410,328657,"0.0-4.132-2.132","zlvqk2brjx347l8",133,"86.csv","","null","resources/images/fishbone.png","null","",NA,NA,NA,NA,""
"image-keyboard-response",411,328879,"0.0-4.133-0.133","zlvqk2brjx347l8",133,"86.csv","","222","resources/trios/L4T4A2.jpg","38","restless",0.9,0.4,0.4,0.333676847372964,"true"
"image-keyboard-response",412,329291,"0.0-4.133-1.133","zlvqk2brjx347l8",133,"86.csv","","null","resources/maskTrios/BT4B.jpg","null","",NA,NA,NA,NA,""
"image-keyboard-response",413,330495,"0.0-4.133-2.133","zlvqk2brjx347l8",133,"86.csv","","null","resources/images/coin2.png","null","",NA,NA,NA,NA,""
"image-keyboard-response",414,331433,"0.0-4.134-0.134","zlvqk2brjx347l8",133,"86.csv","","936","resources/trios/L4T4A2.jpg","38","restless",0.9,0.4,0.4,0.724116646360847,"false"
"image-keyboard-response",415,331835,"0.0-4.134-1.134","zlvqk2brjx347l8",133,"86.csv","","null","resources/maskTrios/BT4B.jpg","null","",NA,NA,NA,NA,""
"image-keyboard-response",416,333048,"0.0-4.134-2.134","zlvqk2brjx347l8",133,"86.csv","","null","resources/images/fishbone.png","null","",NA,NA,NA,NA,""
"image-keyboard-response",417,333139,"0.0-4.135-0.135","zlvqk2brjx347l8",133,"86.csv","","91","resources/trios/L4T4A2.jpg","37","restless",0.9,0.4,0.4,0.241720259003022,"true"
"image-keyboard-response",418,333544,"0.0-4.135-1.135","zlvqk2brjx347l8",133,"86.csv","","null","resources/maskTrios/L4BB.jpg","null","",NA,NA,NA,NA,""
"image-keyboard-response",419,334747,"0.0-4.135-2.135","zlvqk2brjx347l8",133,"86.csv","","null","resources/images/coin2.png","null","",NA,NA,NA,NA,""
"image-keyboard-response",420,334955,"0.0-4.136-0.136","zlvqk2brjx347l8",133,"86.csv","","207","resources/trios/L4T4A2.jpg","37","restless",0.8,0.4,0.4,0.465830624597401,"true"
"image-keyboard-response",421,335355,"0.0-4.136-1.136","zlvqk2brjx347l8",133,"86.csv","","null","resources/maskTrios/L4BB.jpg","null","",NA,NA,NA,NA,""
"image-keyboard-response",422,336565,"0.0-4.136-2.136","zlvqk2brjx347l8",133,"86.csv","","null","resources/images/coin2.png","null","",NA,NA,NA,NA,""
"image-keyboard-response",423,336784,"0.0-4.137-0.137","zlvqk2brjx347l8",133,"86.csv","","219","resources/trios/L4T4A2.jpg","39","restless",0.7,0.4,0.4,0.567815815112473,"false"
"image-keyboard-response",424,337185,"0.0-4.137-1.137","zlvqk2brjx347l8",133,"86.csv","","null","resources/maskTrios/BBA2.jpg","null","",NA,NA,NA,NA,""
"image-keyboard-response",425,338390,"0.0-4.137-2.137","zlvqk2brjx347l8",133,"86.csv","","null","resources/images/fishbone.png","null","",NA,NA,NA,NA,""
"image-keyboard-response",426,338681,"0.0-4.138-0.138","zlvqk2brjx347l8",133,"86.csv","","291","resources/trios/L4T4A2.jpg","39","restless",0.7,0.4,0.4,0.114689081143889,"true"
"image-keyboard-response",427,339092,"0.0-4.138-1.138","zlvqk2brjx347l8",133,"86.csv","","null","resources/maskTrios/BBA2.jpg","null","",NA,NA,NA,NA,""
"image-keyboard-response",428,340300,"0.0-4.138-2.138","zlvqk2brjx347l8",133,"86.csv","","null","resources/images/coin2.png","null","",NA,NA,NA,NA,""
"image-keyboard-response",429,340437,"0.0-4.139-0.139","zlvqk2brjx347l8",133,"86.csv","","135","resources/trios/L4T4A2.jpg","39","restless",0.7,0.4,0.4,0.316824274620383,"true"
"image-keyboard-response",430,340845,"0.0-4.139-1.139","zlvqk2brjx347l8",133,"86.csv","","null","resources/maskTrios/BBA2.jpg","null","",NA,NA,NA,NA,""
"image-keyboard-response",431,342062,"0.0-4.139-2.139","zlvqk2brjx347l8",133,"86.csv","","null","resources/images/coin2.png","null","",NA,NA,NA,NA,""
"image-keyboard-response",432,342327,"0.0-4.140-0.140","zlvqk2brjx347l8",133,"86.csv","","265","resources/trios/L4T4A2.jpg","39","restless",0.7,0.4,0.4,0.128668469691864,"true"
"image-keyboard-response",433,342732,"0.0-4.140-1.140","zlvqk2brjx347l8",133,"86.csv","","null","resources/maskTrios/BBA2.jpg","null","",NA,NA,NA,NA,""
"image-keyboard-response",434,343935,"0.0-4.140-2.140","zlvqk2brjx347l8",133,"86.csv","","null","resources/images/coin2.png","null","",NA,NA,NA,NA,""
"image-keyboard-response",435,344029,"0.0-4.141-0.141","zlvqk2brjx347l8",133,"86.csv","","95","resources/trios/L4T4A2.jpg","39","restless",0.7,0.5,0.5,0.685464507481776,"false"
"image-keyboard-response",436,344443,"0.0-4.141-1.141","zlvqk2brjx347l8",133,"86.csv","","null","resources/maskTrios/BBA2.jpg","null","",NA,NA,NA,NA,""
"image-keyboard-response",437,345655,"0.0-4.141-2.141","zlvqk2brjx347l8",133,"86.csv","","null","resources/images/fishbone.png","null","",NA,NA,NA,NA,""
"image-keyboard-response",438,345875,"0.0-4.142-0.142","zlvqk2brjx347l8",133,"86.csv","","220","resources/trios/L4T4A2.jpg","38","restless",0.7,0.5,0.5,0.599194837746954,"false"
"image-keyboard-response",439,346283,"0.0-4.142-1.142","zlvqk2brjx347l8",133,"86.csv","","null","resources/maskTrios/BT4B.jpg","null","",NA,NA,NA,NA,""
"image-keyboard-response",440,347496,"0.0-4.142-2.142","zlvqk2brjx347l8",133,"86.csv","","null","resources/images/fishbone.png","null","",NA,NA,NA,NA,""
"image-keyboard-response",441,347652,"0.0-4.143-0.143","zlvqk2brjx347l8",133,"86.csv","","155","resources/trios/L4T4A2.jpg","39","restless",0.7,0.5,0.5,0.87899582057818,"false"
"image-keyboard-response",442,348053,"0.0-4.143-1.143","zlvqk2brjx347l8",133,"86.csv","","null","resources/maskTrios/BBA2.jpg","null","",NA,NA,NA,NA,""
"image-keyboard-response",443,349266,"0.0-4.143-2.143","zlvqk2brjx347l8",133,"86.csv","","null","resources/images/fishbone.png","null","",NA,NA,NA,NA,""
"image-keyboard-response",444,349317,"0.0-4.144-0.144","zlvqk2brjx347l8",133,"86.csv","","50","resources/trios/L4T4A2.jpg","39","restless",0.7,0.5,0.5,0.784006276326568,"false"
"image-keyboard-response",445,349719,"0.0-4.144-1.144","zlvqk2brjx347l8",133,"86.csv","","null","resources/maskTrios/BBA2.jpg","null","",NA,NA,NA,NA,""
"image-keyboard-response",446,350935,"0.0-4.144-2.144","zlvqk2brjx347l8",133,"86.csv","","null","resources/images/fishbone.png","null","",NA,NA,NA,NA,""
"image-keyboard-response",447,350960,"0.0-4.145-0.145","zlvqk2brjx347l8",133,"86.csv","","25","resources/trios/L4T4A2.jpg","37","restless",0.7,0.5,0.5,0.682908038957055,"true"
"image-keyboard-response",448,351372,"0.0-4.145-1.145","zlvqk2brjx347l8",133,"86.csv","","null","resources/maskTrios/L4BB.jpg","null","",NA,NA,NA,NA,""
"image-keyboard-response",449,352577,"0.0-4.145-2.145","zlvqk2brjx347l8",133,"86.csv","","null","resources/images/coin2.png","null","",NA,NA,NA,NA,""
"image-keyboard-response",450,352617,"0.0-4.146-0.146","zlvqk2brjx347l8",133,"86.csv","","39","resources/trios/L4T4A2.jpg","37","restless",0.7,0.5,0.4,0.278619917501583,"true"
"image-keyboard-response",451,353029,"0.0-4.146-1.146","zlvqk2brjx347l8",133,"86.csv","","null","resources/maskTrios/L4BB.jpg","null","",NA,NA,NA,NA,""
"image-keyboard-response",452,354245,"0.0-4.146-2.146","zlvqk2brjx347l8",133,"86.csv","","null","resources/images/coin2.png","null","",NA,NA,NA,NA,""
"image-keyboard-response",453,354365,"0.0-4.147-0.147","zlvqk2brjx347l8",133,"86.csv","","121","resources/trios/L4T4A2.jpg","37","restless",0.7,0.5,0.4,0.443358311443936,"true"
"image-keyboard-response",454,354776,"0.0-4.147-1.147","zlvqk2brjx347l8",133,"86.csv","","null","resources/maskTrios/L4BB.jpg","null","",NA,NA,NA,NA,""
"image-keyboard-response",455,355981,"0.0-4.147-2.147","zlvqk2brjx347l8",133,"86.csv","","null","resources/images/coin2.png","null","",NA,NA,NA,NA,""
"image-keyboard-response",456,356338,"0.0-4.148-0.148","zlvqk2brjx347l8",133,"86.csv","","356","resources/trios/L4T4A2.jpg","39","restless",0.7,0.5,0.4,0.0376854935604716,"true"
"image-keyboard-response",457,356748,"0.0-4.148-1.148","zlvqk2brjx347l8",133,"86.csv","","null","resources/maskTrios/BBA2.jpg","null","",NA,NA,NA,NA,""
"image-keyboard-response",458,357954,"0.0-4.148-2.148","zlvqk2brjx347l8",133,"86.csv","","null","resources/images/coin2.png","null","",NA,NA,NA,NA,""
"image-keyboard-response",459,358190,"0.0-4.149-0.149","zlvqk2brjx347l8",133,"86.csv","","235","resources/trios/L4T4A2.jpg","39","restless",0.7,0.6,0.4,0.473532336932143,"false"
"image-keyboard-response",460,358594,"0.0-4.149-1.149","zlvqk2brjx347l8",133,"86.csv","","null","resources/maskTrios/BBA2.jpg","null","",NA,NA,NA,NA,""
"image-keyboard-response",461,359795,"0.0-4.149-2.149","zlvqk2brjx347l8",133,"86.csv","","null","resources/images/fishbone.png","null","",NA,NA,NA,NA,""
"image-keyboard-response",462,359840,"0.0-4.150-0.150","zlvqk2brjx347l8",133,"86.csv","","44","resources/trios/L4T4A2.jpg","38","restless",0.6,0.6,0.5,0.98391611367973,"false"
"image-keyboard-response",463,360249,"0.0-4.150-1.150","zlvqk2brjx347l8",133,"86.csv","","null","resources/maskTrios/BT4B.jpg","null","",NA,NA,NA,NA,""
"image-keyboard-response",464,361454,"0.0-4.150-2.150","zlvqk2brjx347l8",133,"86.csv","","null","resources/images/fishbone.png","null","",NA,NA,NA,NA,""
"image-keyboard-response",465,361535,"0.0-4.151-0.151","zlvqk2brjx347l8",133,"86.csv","","80","resources/trios/L4T4A2.jpg","39","restless",0.6,0.6,0.5,0.179132308652951,"true"
"image-keyboard-response",466,361936,"0.0-4.151-1.151","zlvqk2brjx347l8",133,"86.csv","","null","resources/maskTrios/BBA2.jpg","null","",NA,NA,NA,NA,""
"image-keyboard-response",467,363152,"0.0-4.151-2.151","zlvqk2brjx347l8",133,"86.csv","","null","resources/images/coin2.png","null","",NA,NA,NA,NA,""
"image-keyboard-response",468,363285,"0.0-4.152-0.152","zlvqk2brjx347l8",133,"86.csv","","132","resources/trios/L4T4A2.jpg","39","restless",0.6,0.6,0.5,0.925486671953185,"false"
"image-keyboard-response",469,363688,"0.0-4.152-1.152","zlvqk2brjx347l8",133,"86.csv","","null","resources/maskTrios/BBA2.jpg","null","",NA,NA,NA,NA,""
"image-keyboard-response",470,364901,"0.0-4.152-2.152","zlvqk2brjx347l8",133,"86.csv","","null","resources/images/fishbone.png","null","",NA,NA,NA,NA,""
"image-keyboard-response",471,365172,"0.0-4.153-0.153","zlvqk2brjx347l8",133,"86.csv","","270","resources/trios/L4T4A2.jpg","39","restless",0.6,0.6,0.5,0.82189873198173,"false"
"image-keyboard-response",472,365585,"0.0-4.153-1.153","zlvqk2brjx347l8",133,"86.csv","","null","resources/maskTrios/BBA2.jpg","null","",NA,NA,NA,NA,""
"image-keyboard-response",473,366793,"0.0-4.153-2.153","zlvqk2brjx347l8",133,"86.csv","","null","resources/images/fishbone.png","null","",NA,NA,NA,NA,""
"image-keyboard-response",474,367446,"0.0-4.154-0.154","zlvqk2brjx347l8",133,"86.csv","","653","resources/trios/L4T4A2.jpg","38","restless",0.5,0.6,0.5,0.307654555337168,"true"
"image-keyboard-response",475,367855,"0.0-4.154-1.154","zlvqk2brjx347l8",133,"86.csv","","null","resources/maskTrios/BT4B.jpg","null","",NA,NA,NA,NA,""
"image-keyboard-response",476,369060,"0.0-4.154-2.154","zlvqk2brjx347l8",133,"86.csv","","null","resources/images/coin2.png","null","",NA,NA,NA,NA,""
"image-keyboard-response",477,369178,"0.0-4.155-0.155","zlvqk2brjx347l8",133,"86.csv","","116","resources/trios/L4T4A2.jpg","38","restless",0.6,0.7,0.5,0.757824371361278,"false"
"image-keyboard-response",478,369590,"0.0-4.155-1.155","zlvqk2brjx347l8",133,"86.csv","","null","resources/maskTrios/BT4B.jpg","null","",NA,NA,NA,NA,""
"image-keyboard-response",479,370798,"0.0-4.155-2.155","zlvqk2brjx347l8",133,"86.csv","","null","resources/images/fishbone.png","null","",NA,NA,NA,NA,""
"image-keyboard-response",480,371076,"0.0-4.156-0.156","zlvqk2brjx347l8",133,"86.csv","","277","resources/trios/L4T4A2.jpg","39","restless",0.6,0.7,0.5,0.859622924435288,"false"
"image-keyboard-response",481,371486,"0.0-4.156-1.156","zlvqk2brjx347l8",133,"86.csv","","null","resources/maskTrios/BBA2.jpg","null","",NA,NA,NA,NA,""
"image-keyboard-response",482,372689,"0.0-4.156-2.156","zlvqk2brjx347l8",133,"86.csv","","null","resources/images/fishbone.png","null","",NA,NA,NA,NA,""
"image-keyboard-response",483,372951,"0.0-4.157-0.157","zlvqk2brjx347l8",133,"86.csv","","262","resources/trios/L4T4A2.jpg","37","restless",0.6,0.7,0.5,0.0740042753458785,"true"
"image-keyboard-response",484,373362,"0.0-4.157-1.157","zlvqk2brjx347l8",133,"86.csv","","null","resources/maskTrios/L4BB.jpg","null","",NA,NA,NA,NA,""
"image-keyboard-response",485,374575,"0.0-4.157-2.157","zlvqk2brjx347l8",133,"86.csv","","null","resources/images/coin2.png","null","",NA,NA,NA,NA,""
"image-keyboard-response",486,374938,"0.0-4.158-0.158","zlvqk2brjx347l8",133,"86.csv","","363","resources/trios/L4T4A2.jpg","37","restless",0.6,0.7,0.5,0.942748537483055,"false"
"image-keyboard-response",487,375340,"0.0-4.158-1.158","zlvqk2brjx347l8",133,"86.csv","","null","resources/maskTrios/L4BB.jpg","null","",NA,NA,NA,NA,""
"image-keyboard-response",488,376555,"0.0-4.158-2.158","zlvqk2brjx347l8",133,"86.csv","","null","resources/images/fishbone.png","null","",NA,NA,NA,NA,""
"image-keyboard-response",489,376813,"0.0-4.159-0.159","zlvqk2brjx347l8",133,"86.csv","","258","resources/trios/L4T4A2.jpg","39","restless",0.6,0.7,0.5,0.727089882433013,"false"
"image-keyboard-response",490,377228,"0.0-4.159-1.159","zlvqk2brjx347l8",133,"86.csv","","null","resources/maskTrios/BBA2.jpg","null","",NA,NA,NA,NA,""
"image-keyboard-response",491,378440,"0.0-4.159-2.159","zlvqk2brjx347l8",133,"86.csv","","null","resources/images/fishbone.png","null","",NA,NA,NA,NA,""
"image-keyboard-response",492,378629,"0.0-4.160-0.160","zlvqk2brjx347l8",133,"86.csv","","189","resources/trios/L4T4A2.jpg","38","restless",0.6,0.7,0.5,0.416949162361756,"true"
"image-keyboard-response",493,379030,"0.0-4.160-1.160","zlvqk2brjx347l8",133,"86.csv","","null","resources/maskTrios/BT4B.jpg","null","",NA,NA,NA,NA,""
"image-keyboard-response",494,380231,"0.0-4.160-2.160","zlvqk2brjx347l8",133,"86.csv","","null","resources/images/coin2.png","null","",NA,NA,NA,NA,""
"image-keyboard-response",495,380923,"0.0-4.161-0.161","zlvqk2brjx347l8",133,"86.csv","","693","resources/trios/L4T4A2.jpg","38","restless",0.5,0.7,0.5,0.188336951832954,"true"
"image-keyboard-response",496,381338,"0.0-4.161-1.161","zlvqk2brjx347l8",133,"86.csv","","null","resources/maskTrios/BT4B.jpg","null","",NA,NA,NA,NA,""
"image-keyboard-response",497,382552,"0.0-4.161-2.161","zlvqk2brjx347l8",133,"86.csv","","null","resources/images/coin2.png","null","",NA,NA,NA,NA,""
"image-keyboard-response",498,382886,"0.0-4.162-0.162","zlvqk2brjx347l8",133,"86.csv","","333","resources/trios/L4T4A2.jpg","38","restless",0.5,0.7,0.5,0.85915745273057,"false"
"image-keyboard-response",499,383301,"0.0-4.162-1.162","zlvqk2brjx347l8",133,"86.csv","","null","resources/maskTrios/BT4B.jpg","null","",NA,NA,NA,NA,""
"image-keyboard-response",500,384510,"0.0-4.162-2.162","zlvqk2brjx347l8",133,"86.csv","","null","resources/images/fishbone.png","null","",NA,NA,NA,NA,""
"image-keyboard-response",501,385041,"0.0-4.163-0.163","zlvqk2brjx347l8",133,"86.csv","","531","resources/trios/L4T4A2.jpg","39","restless",0.5,0.7,0.5,0.830799078951846,"false"
"image-keyboard-response",502,385445,"0.0-4.163-1.163","zlvqk2brjx347l8",133,"86.csv","","null","resources/maskTrios/BBA2.jpg","null","",NA,NA,NA,NA,""
"image-keyboard-response",503,386657,"0.0-4.163-2.163","zlvqk2brjx347l8",133,"86.csv","","null","resources/images/fishbone.png","null","",NA,NA,NA,NA,""
"image-keyboard-response",504,387142,"0.0-4.164-0.164","zlvqk2brjx347l8",133,"86.csv","","484","resources/trios/L4T4A2.jpg","37","restless",0.5,0.7,0.6,0.900135407359651,"false"
"image-keyboard-response",505,387543,"0.0-4.164-1.164","zlvqk2brjx347l8",133,"86.csv","","null","resources/maskTrios/L4BB.jpg","null","",NA,NA,NA,NA,""
"image-keyboard-response",506,388755,"0.0-4.164-2.164","zlvqk2brjx347l8",133,"86.csv","","null","resources/images/fishbone.png","null","",NA,NA,NA,NA,""
"image-keyboard-response",507,389039,"0.0-4.165-0.165","zlvqk2brjx347l8",133,"86.csv","","284","resources/trios/L4T4A2.jpg","38","restless",0.5,0.6,0.6,0.672171437530111,"false"
"image-keyboard-response",508,389455,"0.0-4.165-1.165","zlvqk2brjx347l8",133,"86.csv","","null","resources/maskTrios/BT4B.jpg","null","",NA,NA,NA,NA,""
"image-keyboard-response",509,390667,"0.0-4.165-2.165","zlvqk2brjx347l8",133,"86.csv","","null","resources/images/fishbone.png","null","",NA,NA,NA,NA,""
"image-keyboard-response",510,391169,"0.0-4.166-0.166","zlvqk2brjx347l8",133,"86.csv","","501","resources/trios/L4T4A2.jpg","37","restless",0.5,0.6,0.6,0.22420724442912,"true"
"image-keyboard-response",511,391573,"0.0-4.166-1.166","zlvqk2brjx347l8",133,"86.csv","","null","resources/maskTrios/L4BB.jpg","null","",NA,NA,NA,NA,""
"image-keyboard-response",512,392784,"0.0-4.166-2.166","zlvqk2brjx347l8",133,"86.csv","","null","resources/images/coin2.png","null","",NA,NA,NA,NA,""
"image-keyboard-response",513,393037,"0.0-4.167-0.167","zlvqk2brjx347l8",133,"86.csv","","251","resources/trios/L4T4A2.jpg","37","restless",0.5,0.6,0.6,0.240670905442985,"true"
"image-keyboard-response",514,393449,"0.0-4.167-1.167","zlvqk2brjx347l8",133,"86.csv","","null","resources/maskTrios/L4BB.jpg","null","",NA,NA,NA,NA,""
"image-keyboard-response",515,394651,"0.0-4.167-2.167","zlvqk2brjx347l8",133,"86.csv","","null","resources/images/coin2.png","null","",NA,NA,NA,NA,""
"image-keyboard-response",516,395032,"0.0-4.168-0.168","zlvqk2brjx347l8",133,"86.csv","","379","resources/trios/L4T4A2.jpg","37","restless",0.5,0.6,0.6,0.376265097142765,"true"
"image-keyboard-response",517,395445,"0.0-4.168-1.168","zlvqk2brjx347l8",133,"86.csv","","null","resources/maskTrios/L4BB.jpg","null","",NA,NA,NA,NA,""
"image-keyboard-response",518,396648,"0.0-4.168-2.168","zlvqk2brjx347l8",133,"86.csv","","null","resources/images/coin2.png","null","",NA,NA,NA,NA,""
"image-keyboard-response",519,396817,"0.0-4.169-0.169","zlvqk2brjx347l8",133,"86.csv","","168","resources/trios/L4T4A2.jpg","39","restless",0.4,0.6,0.6,0.258718971682975,"true"
"image-keyboard-response",520,397225,"0.0-4.169-1.169","zlvqk2brjx347l8",133,"86.csv","","null","resources/maskTrios/BBA2.jpg","null","",NA,NA,NA,NA,""
"image-keyboard-response",521,398438,"0.0-4.169-2.169","zlvqk2brjx347l8",133,"86.csv","","null","resources/images/coin2.png","null","",NA,NA,NA,NA,""
"image-keyboard-response",522,398895,"0.0-4.170-0.170","zlvqk2brjx347l8",133,"86.csv","","457","resources/trios/L4T4A2.jpg","39","restless",0.4,0.6,0.6,0.397726033037598,"true"
"image-keyboard-response",523,399303,"0.0-4.170-1.170","zlvqk2brjx347l8",133,"86.csv","","null","resources/maskTrios/BBA2.jpg","null","",NA,NA,NA,NA,""
"image-keyboard-response",524,400513,"0.0-4.170-2.170","zlvqk2brjx347l8",133,"86.csv","","null","resources/images/coin2.png","null","",NA,NA,NA,NA,""
"image-keyboard-response",525,400822,"0.0-4.171-0.171","zlvqk2brjx347l8",133,"86.csv","","307","resources/trios/L4T4A2.jpg","39","restless",0.4,0.6,0.6,0.335296040411221,"true"
"image-keyboard-response",526,401229,"0.0-4.171-1.171","zlvqk2brjx347l8",133,"86.csv","","null","resources/maskTrios/BBA2.jpg","null","",NA,NA,NA,NA,""
"image-keyboard-response",527,402430,"0.0-4.171-2.171","zlvqk2brjx347l8",133,"86.csv","","null","resources/images/coin2.png","null","",NA,NA,NA,NA,""
"image-keyboard-response",528,402870,"0.0-4.172-0.172","zlvqk2brjx347l8",133,"86.csv","","439","resources/trios/L4T4A2.jpg","38","restless",0.4,0.6,0.6,0.482089656415314,"true"
"image-keyboard-response",529,403284,"0.0-4.172-1.172","zlvqk2brjx347l8",133,"86.csv","","null","resources/maskTrios/BT4B.jpg","null","",NA,NA,NA,NA,""
"image-keyboard-response",530,404496,"0.0-4.172-2.172","zlvqk2brjx347l8",133,"86.csv","","null","resources/images/coin2.png","null","",NA,NA,NA,NA,""
"image-keyboard-response",531,404750,"0.0-4.173-0.173","zlvqk2brjx347l8",133,"86.csv","","254","resources/trios/L4T4A2.jpg","38","restless",0.4,0.6,0.5,0.217546541722922,"true"
"image-keyboard-response",532,405166,"0.0-4.173-1.173","zlvqk2brjx347l8",133,"86.csv","","null","resources/maskTrios/BT4B.jpg","null","",NA,NA,NA,NA,""
"image-keyboard-response",533,406378,"0.0-4.173-2.173","zlvqk2brjx347l8",133,"86.csv","","null","resources/images/coin2.png","null","",NA,NA,NA,NA,""
"image-keyboard-response",534,406635,"0.0-4.174-0.174","zlvqk2brjx347l8",133,"86.csv","","257","resources/trios/L4T4A2.jpg","38","restless",0.4,0.6,0.5,0.55334738329273,"true"
"image-keyboard-response",535,407044,"0.0-4.174-1.174","zlvqk2brjx347l8",133,"86.csv","","null","resources/maskTrios/BT4B.jpg","null","",NA,NA,NA,NA,""
"image-keyboard-response",536,408246,"0.0-4.174-2.174","zlvqk2brjx347l8",133,"86.csv","","null","resources/images/coin2.png","null","",NA,NA,NA,NA,""
"image-keyboard-response",537,408833,"0.0-4.175-0.175","zlvqk2brjx347l8",133,"86.csv","","587","resources/trios/L4T4A2.jpg","39","restless",0.4,0.6,0.5,0.0549155057209485,"true"
"image-keyboard-response",538,409238,"0.0-4.175-1.175","zlvqk2brjx347l8",133,"86.csv","","null","resources/maskTrios/BBA2.jpg","null","",NA,NA,NA,NA,""
"image-keyboard-response",539,410441,"0.0-4.175-2.175","zlvqk2brjx347l8",133,"86.csv","","null","resources/images/coin2.png","null","",NA,NA,NA,NA,""
"image-keyboard-response",540,410670,"0.0-4.176-0.176","zlvqk2brjx347l8",133,"86.csv","","227","resources/trios/L4T4A2.jpg","39","restless",0.4,0.6,0.5,0.0211417492392558,"true"
"image-keyboard-response",541,411080,"0.0-4.176-1.176","zlvqk2brjx347l8",133,"86.csv","","null","resources/maskTrios/BBA2.jpg","null","",NA,NA,NA,NA,""
"image-keyboard-response",542,412285,"0.0-4.176-2.176","zlvqk2brjx347l8",133,"86.csv","","null","resources/images/coin2.png","null","",NA,NA,NA,NA,""
"image-keyboard-response",543,412531,"0.0-4.177-0.177","zlvqk2brjx347l8",133,"86.csv","","245","resources/trios/L4T4A2.jpg","39","restless",0.4,0.6,0.5,0.563816975191393,"false"
"image-keyboard-response",544,412939,"0.0-4.177-1.177","zlvqk2brjx347l8",133,"86.csv","","null","resources/maskTrios/BBA2.jpg","null","",NA,NA,NA,NA,""
"image-keyboard-response",545,414144,"0.0-4.177-2.177","zlvqk2brjx347l8",133,"86.csv","","null","resources/images/fishbone.png","null","",NA,NA,NA,NA,""
"image-keyboard-response",546,414398,"0.0-4.178-0.178","zlvqk2brjx347l8",133,"86.csv","","253","resources/trios/L4T4A2.jpg","38","restless",0.4,0.6,0.5,0.91775457598318,"false"
"image-keyboard-response",547,414811,"0.0-4.178-1.178","zlvqk2brjx347l8",133,"86.csv","","null","resources/maskTrios/BT4B.jpg","null","",NA,NA,NA,NA,""
"image-keyboard-response",548,416014,"0.0-4.178-2.178","zlvqk2brjx347l8",133,"86.csv","","null","resources/images/fishbone.png","null","",NA,NA,NA,NA,""
"image-keyboard-response",549,416198,"0.0-4.179-0.179","zlvqk2brjx347l8",133,"86.csv","","184","resources/trios/L4T4A2.jpg","39","restless",0.4,0.6,0.6,0.408162124118392,"true"
"image-keyboard-response",550,416605,"0.0-4.179-1.179","zlvqk2brjx347l8",133,"86.csv","","null","resources/maskTrios/BBA2.jpg","null","",NA,NA,NA,NA,""
"image-keyboard-response",551,417819,"0.0-4.179-2.179","zlvqk2brjx347l8",133,"86.csv","","null","resources/images/coin2.png","null","",NA,NA,NA,NA,""
"image-keyboard-response",552,417968,"0.0-4.180-0.180","zlvqk2brjx347l8",133,"86.csv","","148","resources/trios/L4T4A2.jpg","39","restless",0.4,0.6,0.6,0.427354839871729,"true"
"image-keyboard-response",553,418380,"0.0-4.180-1.180","zlvqk2brjx347l8",133,"86.csv","","null","resources/maskTrios/BBA2.jpg","null","",NA,NA,NA,NA,""
"image-keyboard-response",554,419582,"0.0-4.180-2.180","zlvqk2brjx347l8",133,"86.csv","","null","resources/images/coin2.png","null","",NA,NA,NA,NA,""
"image-keyboard-response",555,419603,"0.0-4.181-0.181","zlvqk2brjx347l8",133,"86.csv","","19","resources/trios/L4T4A2.jpg","39","restless",0.4,0.6,0.6,0.814514013053226,"false"
"image-keyboard-response",556,420005,"0.0-4.181-1.181","zlvqk2brjx347l8",133,"86.csv","","null","resources/maskTrios/BBA2.jpg","null","",NA,NA,NA,NA,""
"image-keyboard-response",557,421219,"0.0-4.181-2.181","zlvqk2brjx347l8",133,"86.csv","","null","resources/images/fishbone.png","null","",NA,NA,NA,NA,""
"image-keyboard-response",558,421448,"0.0-4.182-0.182","zlvqk2brjx347l8",133,"86.csv","","228","resources/trios/L4T4A2.jpg","37","restless",0.4,0.6,0.6,0.487581295358491,"false"
"image-keyboard-response",559,421861,"0.0-4.182-1.182","zlvqk2brjx347l8",133,"86.csv","","null","resources/maskTrios/L4BB.jpg","null","",NA,NA,NA,NA,""
"image-keyboard-response",560,423062,"0.0-4.182-2.182","zlvqk2brjx347l8",133,"86.csv","","null","resources/images/fishbone.png","null","",NA,NA,NA,NA,""
"image-keyboard-response",561,423106,"0.0-4.183-0.183","zlvqk2brjx347l8",133,"86.csv","","43","resources/trios/L4T4A2.jpg","38","restless",0.4,0.6,0.6,0.524735125184527,"true"
"image-keyboard-response",562,423513,"0.0-4.183-1.183","zlvqk2brjx347l8",133,"86.csv","","null","resources/maskTrios/BT4B.jpg","null","",NA,NA,NA,NA,""
"image-keyboard-response",563,424725,"0.0-4.183-2.183","zlvqk2brjx347l8",133,"86.csv","","null","resources/images/coin2.png","null","",NA,NA,NA,NA,""
"image-keyboard-response",564,424736,"0.0-4.184-0.184","zlvqk2brjx347l8",133,"86.csv","","10","resources/trios/L4T4A2.jpg","38","restless",0.4,0.6,0.6,0.00709163385333711,"true"
"image-keyboard-response",565,425142,"0.0-4.184-1.184","zlvqk2brjx347l8",133,"86.csv","","null","resources/maskTrios/BT4B.jpg","null","",NA,NA,NA,NA,""
"image-keyboard-response",566,426358,"0.0-4.184-2.184","zlvqk2brjx347l8",133,"86.csv","","null","resources/images/coin2.png","null","",NA,NA,NA,NA,""
"image-keyboard-response",567,426482,"0.0-4.185-0.185","zlvqk2brjx347l8",133,"86.csv","","122","resources/trios/L4T4A2.jpg","38","restless",0.4,0.6,0.6,0.59493559636504,"true"
"image-keyboard-response",568,426888,"0.0-4.185-1.185","zlvqk2brjx347l8",133,"86.csv","","null","resources/maskTrios/BT4B.jpg","null","",NA,NA,NA,NA,""
"image-keyboard-response",569,428093,"0.0-4.185-2.185","zlvqk2brjx347l8",133,"86.csv","","null","resources/images/coin2.png","null","",NA,NA,NA,NA,""
"image-keyboard-response",570,428341,"0.0-4.186-0.186","zlvqk2brjx347l8",133,"86.csv","","248","resources/trios/L4T4A2.jpg","37","restless",0.4,0.6,0.6,0.00132817539939956,"true"
"image-keyboard-response",571,428746,"0.0-4.186-1.186","zlvqk2brjx347l8",133,"86.csv","","null","resources/maskTrios/L4BB.jpg","null","",NA,NA,NA,NA,""
"image-keyboard-response",572,429954,"0.0-4.186-2.186","zlvqk2brjx347l8",133,"86.csv","","null","resources/images/coin2.png","null","",NA,NA,NA,NA,""
"image-keyboard-response",573,430065,"0.0-4.187-0.187","zlvqk2brjx347l8",133,"86.csv","","112","resources/trios/L4T4A2.jpg","37","restless",0.4,0.6,0.6,0.622516884131004,"false"
"image-keyboard-response",574,430471,"0.0-4.187-1.187","zlvqk2brjx347l8",133,"86.csv","","null","resources/maskTrios/L4BB.jpg","null","",NA,NA,NA,NA,""
"image-keyboard-response",575,431676,"0.0-4.187-2.187","zlvqk2brjx347l8",133,"86.csv","","null","resources/images/fishbone.png","null","",NA,NA,NA,NA,""
"image-keyboard-response",576,431701,"0.0-4.188-0.188","zlvqk2brjx347l8",133,"86.csv","","25","resources/trios/L4T4A2.jpg","38","restless",0.4,0.6,0.6,0.481214918708062,"true"
"image-keyboard-response",577,432110,"0.0-4.188-1.188","zlvqk2brjx347l8",133,"86.csv","","null","resources/maskTrios/BT4B.jpg","null","",NA,NA,NA,NA,""
"image-keyboard-response",578,433314,"0.0-4.188-2.188","zlvqk2brjx347l8",133,"86.csv","","null","resources/images/coin2.png","null","",NA,NA,NA,NA,""
"image-keyboard-response",579,433321,"0.0-4.189-0.189","zlvqk2brjx347l8",133,"86.csv","","6","resources/trios/L4T4A2.jpg","38","restless",0.4,0.6,0.6,0.228316504637274,"true"
"image-keyboard-response",580,433725,"0.0-4.189-1.189","zlvqk2brjx347l8",133,"86.csv","","null","resources/maskTrios/BT4B.jpg","null","",NA,NA,NA,NA,""
"image-keyboard-response",581,434931,"0.0-4.189-2.189","zlvqk2brjx347l8",133,"86.csv","","null","resources/images/coin2.png","null","",NA,NA,NA,NA,""
"image-keyboard-response",582,435661,"0.0-4.190-0.190","zlvqk2brjx347l8",133,"86.csv","","729","resources/trios/L4T4A2.jpg","38","restless",0.4,0.6,0.6,0.782616878553932,"false"
"image-keyboard-response",583,436068,"0.0-4.190-1.190","zlvqk2brjx347l8",133,"86.csv","","null","resources/maskTrios/BT4B.jpg","null","",NA,NA,NA,NA,""
"image-keyboard-response",584,437283,"0.0-4.190-2.190","zlvqk2brjx347l8",133,"86.csv","","null","resources/images/fishbone.png","null","",NA,NA,NA,NA,""
"image-keyboard-response",585,437581,"0.0-4.191-0.191","zlvqk2brjx347l8",133,"86.csv","","298","resources/trios/L4T4A2.jpg","39","restless",0.4,0.6,0.6,0.649362426582111,"false"
"image-keyboard-response",586,437985,"0.0-4.191-1.191","zlvqk2brjx347l8",133,"86.csv","","null","resources/maskTrios/BBA2.jpg","null","",NA,NA,NA,NA,""
"image-keyboard-response",587,439189,"0.0-4.191-2.191","zlvqk2brjx347l8",133,"86.csv","","null","resources/images/fishbone.png","null","",NA,NA,NA,NA,""
"image-keyboard-response",588,439554,"0.0-4.192-0.192","zlvqk2brjx347l8",133,"86.csv","","364","resources/trios/L4T4A2.jpg","37","restless",0.4,0.7,0.6,0.0374365256558521,"true"
"image-keyboard-response",589,439955,"0.0-4.192-1.192","zlvqk2brjx347l8",133,"86.csv","","null","resources/maskTrios/L4BB.jpg","null","",NA,NA,NA,NA,""
"image-keyboard-response",590,441158,"0.0-4.192-2.192","zlvqk2brjx347l8",133,"86.csv","","null","resources/images/coin2.png","null","",NA,NA,NA,NA,""
"image-keyboard-response",591,441392,"0.0-4.193-0.193","zlvqk2brjx347l8",133,"86.csv","","232","resources/trios/L4T4A2.jpg","37","restless",0.4,0.7,0.5,0.287967787808297,"true"
"image-keyboard-response",592,441798,"0.0-4.193-1.193","zlvqk2brjx347l8",133,"86.csv","","null","resources/maskTrios/L4BB.jpg","null","",NA,NA,NA,NA,""
"image-keyboard-response",593,443000,"0.0-4.193-2.193","zlvqk2brjx347l8",133,"86.csv","","null","resources/images/coin2.png","null","",NA,NA,NA,NA,""
"image-keyboard-response",594,443319,"0.0-4.194-0.194","zlvqk2brjx347l8",133,"86.csv","","319","resources/trios/L4T4A2.jpg","37","restless",0.4,0.7,0.5,0.576332891127516,"false"
"image-keyboard-response",595,443734,"0.0-4.194-1.194","zlvqk2brjx347l8",133,"86.csv","","null","resources/maskTrios/L4BB.jpg","null","",NA,NA,NA,NA,""
"image-keyboard-response",596,444947,"0.0-4.194-2.194","zlvqk2brjx347l8",133,"86.csv","","null","resources/images/fishbone.png","null","",NA,NA,NA,NA,""
"image-keyboard-response",597,445284,"0.0-4.195-0.195","zlvqk2brjx347l8",133,"86.csv","","337","resources/trios/L4T4A2.jpg","39","restless",0.3,0.7,0.5,0.0744268334423933,"true"
"image-keyboard-response",598,445692,"0.0-4.195-1.195","zlvqk2brjx347l8",133,"86.csv","","null","resources/maskTrios/BBA2.jpg","null","",NA,NA,NA,NA,""
"image-keyboard-response",599,446905,"0.0-4.195-2.195","zlvqk2brjx347l8",133,"86.csv","","null","resources/images/coin2.png","null","",NA,NA,NA,NA,""
"image-keyboard-response",600,447084,"0.0-4.196-0.196","zlvqk2brjx347l8",133,"86.csv","","177","resources/trios/L4T4A2.jpg","39","restless",0.3,0.7,0.4,0.384996284391223,"true"
"image-keyboard-response",601,447499,"0.0-4.196-1.196","zlvqk2brjx347l8",133,"86.csv","","null","resources/maskTrios/BBA2.jpg","null","",NA,NA,NA,NA,""
"image-keyboard-response",602,448703,"0.0-4.196-2.196","zlvqk2brjx347l8",133,"86.csv","","null","resources/images/coin2.png","null","",NA,NA,NA,NA,""
"image-keyboard-response",603,448967,"0.0-4.197-0.197","zlvqk2brjx347l8",133,"86.csv","","263","resources/trios/L4T4A2.jpg","39","restless",0.3,0.7,0.4,0.128368111432487,"true"
"image-keyboard-response",604,449377,"0.0-4.197-1.197","zlvqk2brjx347l8",133,"86.csv","","null","resources/maskTrios/BBA2.jpg","null","",NA,NA,NA,NA,""
"image-keyboard-response",605,450577,"0.0-4.197-2.197","zlvqk2brjx347l8",133,"86.csv","","null","resources/images/coin2.png","null","",NA,NA,NA,NA,""
"image-keyboard-response",606,450812,"0.0-4.198-0.198","zlvqk2brjx347l8",133,"86.csv","","233","resources/trios/L4T4A2.jpg","39","restless",0.3,0.7,0.4,0.814450884014641,"false"
"image-keyboard-response",607,451216,"0.0-4.198-1.198","zlvqk2brjx347l8",133,"86.csv","","null","resources/maskTrios/BBA2.jpg","null","",NA,NA,NA,NA,""
"image-keyboard-response",608,452422,"0.0-4.198-2.198","zlvqk2brjx347l8",133,"86.csv","","null","resources/images/fishbone.png","null","",NA,NA,NA,NA,""
"image-keyboard-response",609,452589,"0.0-4.199-0.199","zlvqk2brjx347l8",133,"86.csv","","167","resources/trios/L4T4A2.jpg","38","restless",0.3,0.7,0.5,0.371130927006722,"true"
"image-keyboard-response",610,452998,"0.0-4.199-1.199","zlvqk2brjx347l8",133,"86.csv","","null","resources/maskTrios/BT4B.jpg","null","",NA,NA,NA,NA,""
"image-keyboard-response",611,454206,"0.0-4.199-2.199","zlvqk2brjx347l8",133,"86.csv","","null","resources/images/coin2.png","null","",NA,NA,NA,NA,""
"survey-text",612,541397,"0.0-5.0","zlvqk2brjx347l8",133,"86.csv","","87189","","","",NA,NA,NA,NA,""
