"trial_type","trial_index","time_elapsed","internal_node_id","subject","participantCode","walkNumber","success","rt","stimulus","key_press","test_part","leftProb","midProb","rightProb","generatedNum","correct"
"pavlovia",0,523,"0.0-0.0","cdmw6et56h7avv1",363,"181.csv","","","","","",NA,NA,NA,NA,""
"fullscreen",1,2894,"0.0-1.0","cdmw6et56h7avv1",363,"181.csv","true","","","","",NA,NA,NA,NA,""
"survey-html-form",2,8906,"0.0-2.0","cdmw6et56h7avv1",363,"181.csv","","6011.599999904633","","","",NA,NA,NA,NA,""
"image-keyboard-response",3,12131,"0.0-3.0-0.0","cdmw6et56h7avv1",363,"181.csv","","3223.5999999046326","resources/images/parrot_nobg.png","13","",NA,NA,NA,NA,""
"image-keyboard-response",4,15135,"0.0-3.0-1.0","cdmw6et56h7avv1",363,"181.csv","","null","resources/image_sets/111.png","null","",NA,NA,NA,NA,""
"image-keyboard-response",5,21121,"0.0-3.0-2.0","cdmw6et56h7avv1",363,"181.csv","","5985.299999952316","resources/image_sets/left_highlight.png","37","",NA,NA,NA,NA,""
"image-keyboard-response",6,35094,"0.0-3.0-3.0","cdmw6et56h7avv1",363,"181.csv","","13971.700000047684","resources/image_sets/mid_highlight.png","38","",NA,NA,NA,NA,""
"image-keyboard-response",7,36894,"0.0-3.0-4.0","cdmw6et56h7avv1",363,"181.csv","","1800.1000001430511","resources/image_sets/right_highlight.png","39","",NA,NA,NA,NA,""
"image-keyboard-response",8,38768,"0.0-3.0-5.0","cdmw6et56h7avv1",363,"181.csv","","1873.2000000476837","resources/image_sets/111.png","13","",NA,NA,NA,NA,""
"image-keyboard-response",9,40721,"0.0-3.0-6.0","cdmw6et56h7avv1",363,"181.csv","","1952.5","resources/images/coin2.png","13","",NA,NA,NA,NA,""
"image-keyboard-response",10,41988,"0.0-3.0-7.0","cdmw6et56h7avv1",363,"181.csv","","1266.5999999046326","resources/images/fishbone.png","13","",NA,NA,NA,NA,""
"html-keyboard-response",11,46721,"0.0-3.0-8.0","cdmw6et56h7avv1",363,"181.csv","","4732.799999952316","<p>You can track your coin total on the top right of your screen. </p><p>At the end of your journey you will be directed to a survey, so please click on the link before exiting the task</p><p>Press Enter to begin</p>","13","",NA,NA,NA,NA,""
"image-keyboard-response",12,51264,"0.0-4.0-0.0","cdmw6et56h7avv1",363,"181.csv","","4541.700000047684","resources/trios/L4T2A3.jpg","38","restless",0.3,0.7,0.9,0.971888952887146,"false"
"image-keyboard-response",13,51665,"0.0-4.0-1.0","cdmw6et56h7avv1",363,"181.csv","","null","resources/maskTrios/BT2B.jpg","null","",NA,NA,NA,NA,""
"image-keyboard-response",14,52870,"0.0-4.0-2.0","cdmw6et56h7avv1",363,"181.csv","","null","resources/images/fishbone.png","null","",NA,NA,NA,NA,""
"image-keyboard-response",15,54234,"0.0-4.1-0.1","cdmw6et56h7avv1",363,"181.csv","","1364","resources/trios/L4T2A3.jpg","37","restless",0.3,0.7,0.9,0.965140264617989,"false"
"image-keyboard-response",16,54648,"0.0-4.1-1.1","cdmw6et56h7avv1",363,"181.csv","","null","resources/maskTrios/L4BB.jpg","null","",NA,NA,NA,NA,""
"image-keyboard-response",17,55853,"0.0-4.1-2.1","cdmw6et56h7avv1",363,"181.csv","","null","resources/images/fishbone.png","null","",NA,NA,NA,NA,""
"image-keyboard-response",18,56163,"0.0-4.2-0.2","cdmw6et56h7avv1",363,"181.csv","","309.10000014305115","resources/trios/L4T2A3.jpg","39","restless",0.3,0.7,0.9,0.00488131602903885,"true"
"image-keyboard-response",19,56571,"0.0-4.2-1.2","cdmw6et56h7avv1",363,"181.csv","","null","resources/maskTrios/BBA3.jpg","null","",NA,NA,NA,NA,""
"image-keyboard-response",20,57776,"0.0-4.2-2.2","cdmw6et56h7avv1",363,"181.csv","","null","resources/images/coin2.png","null","",NA,NA,NA,NA,""
"image-keyboard-response",21,58523,"0.0-4.3-0.3","cdmw6et56h7avv1",363,"181.csv","","746.1000001430511","resources/trios/L4T2A3.jpg","39","restless",0.2,0.7,0.9,0.449544778957433,"true"
"image-keyboard-response",22,58931,"0.0-4.3-1.3","cdmw6et56h7avv1",363,"181.csv","","null","resources/maskTrios/BBA3.jpg","null","",NA,NA,NA,NA,""
"image-keyboard-response",23,60134,"0.0-4.3-2.3","cdmw6et56h7avv1",363,"181.csv","","null","resources/images/coin2.png","null","",NA,NA,NA,NA,""
"image-keyboard-response",24,60975,"0.0-4.4-0.4","cdmw6et56h7avv1",363,"181.csv","","840.6000001430511","resources/trios/L4T2A3.jpg","38","restless",0.2,0.7,0.9,0.38101491750506,"true"
"image-keyboard-response",25,61383,"0.0-4.4-1.4","cdmw6et56h7avv1",363,"181.csv","","null","resources/maskTrios/BT2B.jpg","null","",NA,NA,NA,NA,""
"image-keyboard-response",26,62587,"0.0-4.4-2.4","cdmw6et56h7avv1",363,"181.csv","","null","resources/images/coin2.png","null","",NA,NA,NA,NA,""
"image-keyboard-response",27,63497,"0.0-4.5-0.5","cdmw6et56h7avv1",363,"181.csv","","909.5999999046326","resources/trios/L4T2A3.jpg","37","restless",0.2,0.7,0.9,0.364014650250812,"false"
"image-keyboard-response",28,63901,"0.0-4.5-1.5","cdmw6et56h7avv1",363,"181.csv","","null","resources/maskTrios/L4BB.jpg","null","",NA,NA,NA,NA,""
"image-keyboard-response",29,65117,"0.0-4.5-2.5","cdmw6et56h7avv1",363,"181.csv","","null","resources/images/fishbone.png","null","",NA,NA,NA,NA,""
"image-keyboard-response",30,65203,"0.0-4.6-0.6","cdmw6et56h7avv1",363,"181.csv","","85.29999995231628","resources/trios/L4T2A3.jpg","37","restless",0.2,0.7,0.9,0.835753284050998,"false"
"image-keyboard-response",31,65619,"0.0-4.6-1.6","cdmw6et56h7avv1",363,"181.csv","","null","resources/maskTrios/L4BB.jpg","null","",NA,NA,NA,NA,""
"image-keyboard-response",32,66835,"0.0-4.6-2.6","cdmw6et56h7avv1",363,"181.csv","","null","resources/images/fishbone.png","null","",NA,NA,NA,NA,""
"image-keyboard-response",33,67367,"0.0-4.7-0.7","cdmw6et56h7avv1",363,"181.csv","","531","resources/trios/L4T2A3.jpg","38","restless",0.2,0.7,0.9,0.24779755022062,"true"
"image-keyboard-response",34,67769,"0.0-4.7-1.7","cdmw6et56h7avv1",363,"181.csv","","null","resources/maskTrios/BT2B.jpg","null","",NA,NA,NA,NA,""
"image-keyboard-response",35,68978,"0.0-4.7-2.7","cdmw6et56h7avv1",363,"181.csv","","null","resources/images/coin2.png","null","",NA,NA,NA,NA,""
"image-keyboard-response",36,69213,"0.0-4.8-0.8","cdmw6et56h7avv1",363,"181.csv","","234.20000004768372","resources/trios/L4T2A3.jpg","37","restless",0.2,0.7,0.9,0.0611546058038492,"true"
"image-keyboard-response",37,69619,"0.0-4.8-1.8","cdmw6et56h7avv1",363,"181.csv","","null","resources/maskTrios/L4BB.jpg","null","",NA,NA,NA,NA,""
"image-keyboard-response",38,70821,"0.0-4.8-2.8","cdmw6et56h7avv1",363,"181.csv","","null","resources/images/coin2.png","null","",NA,NA,NA,NA,""
"image-keyboard-response",39,70841,"0.0-4.9-0.9","cdmw6et56h7avv1",363,"181.csv","","18.899999856948853","resources/trios/L4T2A3.jpg","39","restless",0.3,0.6,0.9,0.0100325805772059,"true"
"image-keyboard-response",40,71244,"0.0-4.9-1.9","cdmw6et56h7avv1",363,"181.csv","","null","resources/maskTrios/BBA3.jpg","null","",NA,NA,NA,NA,""
"image-keyboard-response",41,72446,"0.0-4.9-2.9","cdmw6et56h7avv1",363,"181.csv","","null","resources/images/coin2.png","null","",NA,NA,NA,NA,""
"image-keyboard-response",42,73666,"0.0-4.10-0.10","cdmw6et56h7avv1",363,"181.csv","","1220.2000000476837","resources/trios/L4T2A3.jpg","37","restless",0.4,0.6,0.9,0.530424311192885,"false"
"image-keyboard-response",43,74069,"0.0-4.10-1.10","cdmw6et56h7avv1",363,"181.csv","","null","resources/maskTrios/L4BB.jpg","null","",NA,NA,NA,NA,""
"image-keyboard-response",44,75273,"0.0-4.10-2.10","cdmw6et56h7avv1",363,"181.csv","","null","resources/images/fishbone.png","null","",NA,NA,NA,NA,""
"image-keyboard-response",45,76167,"0.0-4.11-0.11","cdmw6et56h7avv1",363,"181.csv","","893.3999998569489","resources/trios/L4T2A3.jpg","39","restless",0.4,0.6,0.9,0.0355966872117524,"true"
"image-keyboard-response",46,76571,"0.0-4.11-1.11","cdmw6et56h7avv1",363,"181.csv","","null","resources/maskTrios/BBA3.jpg","null","",NA,NA,NA,NA,""
"image-keyboard-response",47,77776,"0.0-4.11-2.11","cdmw6et56h7avv1",363,"181.csv","","null","resources/images/coin2.png","null","",NA,NA,NA,NA,""
"image-keyboard-response",48,78534,"0.0-4.12-0.12","cdmw6et56h7avv1",363,"181.csv","","757.2000000476837","resources/trios/L4T2A3.jpg","38","restless",0.4,0.6,0.9,0.00583596716677115,"true"
"image-keyboard-response",49,78947,"0.0-4.12-1.12","cdmw6et56h7avv1",363,"181.csv","","null","resources/maskTrios/BT2B.jpg","null","",NA,NA,NA,NA,""
"image-keyboard-response",50,80150,"0.0-4.12-2.12","cdmw6et56h7avv1",363,"181.csv","","null","resources/images/coin2.png","null","",NA,NA,NA,NA,""
"image-keyboard-response",51,80399,"0.0-4.13-0.13","cdmw6et56h7avv1",363,"181.csv","","249.09999990463257","resources/trios/L4T2A3.jpg","38","restless",0.4,0.6,0.9,0.792607784576721,"false"
"image-keyboard-response",52,80809,"0.0-4.13-1.13","cdmw6et56h7avv1",363,"181.csv","","null","resources/maskTrios/BT2B.jpg","null","",NA,NA,NA,NA,""
"image-keyboard-response",53,82010,"0.0-4.13-2.13","cdmw6et56h7avv1",363,"181.csv","","null","resources/images/fishbone.png","null","",NA,NA,NA,NA,""
"image-keyboard-response",54,82209,"0.0-4.14-0.14","cdmw6et56h7avv1",363,"181.csv","","198.20000004768372","resources/trios/L4T2A3.jpg","37","restless",0.4,0.6,0.9,0.2533924769374,"true"
"image-keyboard-response",55,82619,"0.0-4.14-1.14","cdmw6et56h7avv1",363,"181.csv","","null","resources/maskTrios/L4BB.jpg","null","",NA,NA,NA,NA,""
"image-keyboard-response",56,83826,"0.0-4.14-2.14","cdmw6et56h7avv1",363,"181.csv","","null","resources/images/coin2.png","null","",NA,NA,NA,NA,""
"image-keyboard-response",57,84390,"0.0-4.15-0.15","cdmw6et56h7avv1",363,"181.csv","","563.8999998569489","resources/trios/L4T2A3.jpg","37","restless",0.4,0.6,0.9,0.544316630139696,"false"
"image-keyboard-response",58,84797,"0.0-4.15-1.15","cdmw6et56h7avv1",363,"181.csv","","null","resources/maskTrios/L4BB.jpg","null","",NA,NA,NA,NA,""
"image-keyboard-response",59,86007,"0.0-4.15-2.15","cdmw6et56h7avv1",363,"181.csv","","null","resources/images/fishbone.png","null","",NA,NA,NA,NA,""
"image-keyboard-response",60,86484,"0.0-4.16-0.16","cdmw6et56h7avv1",363,"181.csv","","476.09999990463257","resources/trios/L4T2A3.jpg","37","restless",0.4,0.6,0.9,0.944387641970294,"false"
"image-keyboard-response",61,86900,"0.0-4.16-1.16","cdmw6et56h7avv1",363,"181.csv","","null","resources/maskTrios/L4BB.jpg","null","",NA,NA,NA,NA,""
"image-keyboard-response",62,88103,"0.0-4.16-2.16","cdmw6et56h7avv1",363,"181.csv","","null","resources/images/fishbone.png","null","",NA,NA,NA,NA,""
"image-keyboard-response",63,88610,"0.0-4.17-0.17","cdmw6et56h7avv1",363,"181.csv","","506.19999980926514","resources/trios/L4T2A3.jpg","39","restless",0.4,0.6,0.9,0.535009605439087,"true"
"image-keyboard-response",64,89015,"0.0-4.17-1.17","cdmw6et56h7avv1",363,"181.csv","","null","resources/maskTrios/BBA3.jpg","null","",NA,NA,NA,NA,""
"image-keyboard-response",65,90224,"0.0-4.17-2.17","cdmw6et56h7avv1",363,"181.csv","","null","resources/images/coin2.png","null","",NA,NA,NA,NA,""
"image-keyboard-response",66,90445,"0.0-4.18-0.18","cdmw6et56h7avv1",363,"181.csv","","220.09999990463257","resources/trios/L4T2A3.jpg","39","restless",0.4,0.6,0.9,0.237564954924003,"true"
"image-keyboard-response",67,90848,"0.0-4.18-1.18","cdmw6et56h7avv1",363,"181.csv","","null","resources/maskTrios/BBA3.jpg","null","",NA,NA,NA,NA,""
"image-keyboard-response",68,92053,"0.0-4.18-2.18","cdmw6et56h7avv1",363,"181.csv","","null","resources/images/coin2.png","null","",NA,NA,NA,NA,""
"image-keyboard-response",69,92526,"0.0-4.19-0.19","cdmw6et56h7avv1",363,"181.csv","","472.5","resources/trios/L4T2A3.jpg","38","restless",0.4,0.6,0.9,0.680541147587151,"false"
"image-keyboard-response",70,92931,"0.0-4.19-1.19","cdmw6et56h7avv1",363,"181.csv","","null","resources/maskTrios/BT2B.jpg","null","",NA,NA,NA,NA,""
"image-keyboard-response",71,94136,"0.0-4.19-2.19","cdmw6et56h7avv1",363,"181.csv","","null","resources/images/fishbone.png","null","",NA,NA,NA,NA,""
"image-keyboard-response",72,94468,"0.0-4.20-0.20","cdmw6et56h7avv1",363,"181.csv","","331.7000000476837","resources/trios/L4T2A3.jpg","37","restless",0.5,0.6,0.9,0.442013112660708,"true"
"image-keyboard-response",73,94882,"0.0-4.20-1.20","cdmw6et56h7avv1",363,"181.csv","","null","resources/maskTrios/L4BB.jpg","null","",NA,NA,NA,NA,""
"image-keyboard-response",74,96084,"0.0-4.20-2.20","cdmw6et56h7avv1",363,"181.csv","","null","resources/images/coin2.png","null","",NA,NA,NA,NA,""
"image-keyboard-response",75,96627,"0.0-4.21-0.21","cdmw6et56h7avv1",363,"181.csv","","542.5","resources/trios/L4T2A3.jpg","38","restless",0.5,0.6,0.9,0.975426479703477,"false"
"image-keyboard-response",76,97041,"0.0-4.21-1.21","cdmw6et56h7avv1",363,"181.csv","","null","resources/maskTrios/BT2B.jpg","null","",NA,NA,NA,NA,""
"image-keyboard-response",77,98253,"0.0-4.21-2.21","cdmw6et56h7avv1",363,"181.csv","","null","resources/images/fishbone.png","null","",NA,NA,NA,NA,""
"image-keyboard-response",78,98740,"0.0-4.22-0.22","cdmw6et56h7avv1",363,"181.csv","","486.7999999523163","resources/trios/L4T2A3.jpg","39","restless",0.5,0.6,0.8,0.459289663321286,"true"
"image-keyboard-response",79,99144,"0.0-4.22-1.22","cdmw6et56h7avv1",363,"181.csv","","null","resources/maskTrios/BBA3.jpg","null","",NA,NA,NA,NA,""
"image-keyboard-response",80,100348,"0.0-4.22-2.22","cdmw6et56h7avv1",363,"181.csv","","null","resources/images/coin2.png","null","",NA,NA,NA,NA,""
"image-keyboard-response",81,101384,"0.0-4.23-0.23","cdmw6et56h7avv1",363,"181.csv","","1034.5","resources/trios/L4T2A3.jpg","37","restless",0.5,0.6,0.8,0.395857107729239,"true"
"image-keyboard-response",82,101787,"0.0-4.23-1.23","cdmw6et56h7avv1",363,"181.csv","","null","resources/maskTrios/L4BB.jpg","null","",NA,NA,NA,NA,""
"image-keyboard-response",83,102993,"0.0-4.23-2.23","cdmw6et56h7avv1",363,"181.csv","","null","resources/images/coin2.png","null","",NA,NA,NA,NA,""
"image-keyboard-response",84,103320,"0.0-4.24-0.24","cdmw6et56h7avv1",363,"181.csv","","325.60000014305115","resources/trios/L4T2A3.jpg","39","restless",0.5,0.6,0.7,0.0059190697350604,"true"
"image-keyboard-response",85,103728,"0.0-4.24-1.24","cdmw6et56h7avv1",363,"181.csv","","null","resources/maskTrios/BBA3.jpg","null","",NA,NA,NA,NA,""
"image-keyboard-response",86,104931,"0.0-4.24-2.24","cdmw6et56h7avv1",363,"181.csv","","null","resources/images/coin2.png","null","",NA,NA,NA,NA,""
"image-keyboard-response",87,106101,"0.0-4.25-0.25","cdmw6et56h7avv1",363,"181.csv","","1168.7999999523163","resources/trios/L4T2A3.jpg","38","restless",0.4,0.6,0.7,0.128735284469655,"true"
"image-keyboard-response",88,106507,"0.0-4.25-1.25","cdmw6et56h7avv1",363,"181.csv","","null","resources/maskTrios/BT2B.jpg","null","",NA,NA,NA,NA,""
"image-keyboard-response",89,107709,"0.0-4.25-2.25","cdmw6et56h7avv1",363,"181.csv","","null","resources/images/coin2.png","null","",NA,NA,NA,NA,""
"image-keyboard-response",90,108120,"0.0-4.26-0.26","cdmw6et56h7avv1",363,"181.csv","","409.90000009536743","resources/trios/L4T2A3.jpg","39","restless",0.4,0.6,0.7,0.754085443690263,"false"
"image-keyboard-response",91,108526,"0.0-4.26-1.26","cdmw6et56h7avv1",363,"181.csv","","null","resources/maskTrios/BBA3.jpg","null","",NA,NA,NA,NA,""
"image-keyboard-response",92,109727,"0.0-4.26-2.26","cdmw6et56h7avv1",363,"181.csv","","null","resources/images/fishbone.png","null","",NA,NA,NA,NA,""
"image-keyboard-response",93,110070,"0.0-4.27-0.27","cdmw6et56h7avv1",363,"181.csv","","342","resources/trios/L4T2A3.jpg","37","restless",0.4,0.6,0.7,0.25295725067277,"true"
"image-keyboard-response",94,110477,"0.0-4.27-1.27","cdmw6et56h7avv1",363,"181.csv","","null","resources/maskTrios/L4BB.jpg","null","",NA,NA,NA,NA,""
"image-keyboard-response",95,111681,"0.0-4.27-2.27","cdmw6et56h7avv1",363,"181.csv","","null","resources/images/coin2.png","null","",NA,NA,NA,NA,""
"image-keyboard-response",96,112728,"0.0-4.28-0.28","cdmw6et56h7avv1",363,"181.csv","","1045.7999999523163","resources/trios/L4T2A3.jpg","37","restless",0.4,0.6,0.7,0.324506697988553,"true"
"image-keyboard-response",97,113137,"0.0-4.28-1.28","cdmw6et56h7avv1",363,"181.csv","","null","resources/maskTrios/L4BB.jpg","null","",NA,NA,NA,NA,""
"image-keyboard-response",98,114352,"0.0-4.28-2.28","cdmw6et56h7avv1",363,"181.csv","","null","resources/images/coin2.png","null","",NA,NA,NA,NA,""
"image-keyboard-response",99,114662,"0.0-4.29-0.29","cdmw6et56h7avv1",363,"181.csv","","309.7999999523163","resources/trios/L4T2A3.jpg","38","restless",0.4,0.6,0.7,0.890009315832501,"false"
"image-keyboard-response",100,115071,"0.0-4.29-1.29","cdmw6et56h7avv1",363,"181.csv","","null","resources/maskTrios/BT2B.jpg","null","",NA,NA,NA,NA,""
"image-keyboard-response",101,116274,"0.0-4.29-2.29","cdmw6et56h7avv1",363,"181.csv","","null","resources/images/fishbone.png","null","",NA,NA,NA,NA,""
"image-keyboard-response",102,117027,"0.0-4.30-0.30","cdmw6et56h7avv1",363,"181.csv","","752.2999999523163","resources/trios/L4T2A3.jpg","39","restless",0.4,0.6,0.7,0.0404049081552926,"true"
"image-keyboard-response",103,117431,"0.0-4.30-1.30","cdmw6et56h7avv1",363,"181.csv","","null","resources/maskTrios/BBA3.jpg","null","",NA,NA,NA,NA,""
"image-keyboard-response",104,118639,"0.0-4.30-2.30","cdmw6et56h7avv1",363,"181.csv","","null","resources/images/coin2.png","null","",NA,NA,NA,NA,""
"image-keyboard-response",105,118896,"0.0-4.31-0.31","cdmw6et56h7avv1",363,"181.csv","","257.39999985694885","resources/trios/L4T2A3.jpg","38","restless",0.4,0.6,0.7,0.0531010055957901,"true"
"image-keyboard-response",106,119298,"0.0-4.31-1.31","cdmw6et56h7avv1",363,"181.csv","","null","resources/maskTrios/BT2B.jpg","null","",NA,NA,NA,NA,""
"image-keyboard-response",107,120502,"0.0-4.31-2.31","cdmw6et56h7avv1",363,"181.csv","","null","resources/images/coin2.png","null","",NA,NA,NA,NA,""
"image-keyboard-response",108,120752,"0.0-4.32-0.32","cdmw6et56h7avv1",363,"181.csv","","249.80000019073486","resources/trios/L4T2A3.jpg","37","restless",0.4,0.7,0.7,0.203657151718587,"true"
"image-keyboard-response",109,121160,"0.0-4.32-1.32","cdmw6et56h7avv1",363,"181.csv","","null","resources/maskTrios/L4BB.jpg","null","",NA,NA,NA,NA,""
"image-keyboard-response",110,122372,"0.0-4.32-2.32","cdmw6et56h7avv1",363,"181.csv","","null","resources/images/coin2.png","null","",NA,NA,NA,NA,""
"image-keyboard-response",111,123577,"0.0-4.33-0.33","cdmw6et56h7avv1",363,"181.csv","","1204","resources/trios/L4T2A3.jpg","39","restless",0.4,0.7,0.7,0.272283281317351,"true"
"image-keyboard-response",112,123993,"0.0-4.33-1.33","cdmw6et56h7avv1",363,"181.csv","","null","resources/maskTrios/BBA3.jpg","null","",NA,NA,NA,NA,""
"image-keyboard-response",113,125197,"0.0-4.33-2.33","cdmw6et56h7avv1",363,"181.csv","","null","resources/images/coin2.png","null","",NA,NA,NA,NA,""
"image-keyboard-response",114,125480,"0.0-4.34-0.34","cdmw6et56h7avv1",363,"181.csv","","282","resources/trios/L4T2A3.jpg","37","restless",0.4,0.7,0.7,0.826202602849117,"false"
"image-keyboard-response",115,125883,"0.0-4.34-1.34","cdmw6et56h7avv1",363,"181.csv","","null","resources/maskTrios/L4BB.jpg","null","",NA,NA,NA,NA,""
"image-keyboard-response",116,127084,"0.0-4.34-2.34","cdmw6et56h7avv1",363,"181.csv","","null","resources/images/fishbone.png","null","",NA,NA,NA,NA,""
"image-keyboard-response",117,127432,"0.0-4.35-0.35","cdmw6et56h7avv1",363,"181.csv","","347.10000014305115","resources/trios/L4T2A3.jpg","38","restless",0.4,0.7,0.7,0.212039990019391,"true"
"image-keyboard-response",118,127835,"0.0-4.35-1.35","cdmw6et56h7avv1",363,"181.csv","","null","resources/maskTrios/BT2B.jpg","null","",NA,NA,NA,NA,""
"image-keyboard-response",119,129042,"0.0-4.35-2.35","cdmw6et56h7avv1",363,"181.csv","","null","resources/images/coin2.png","null","",NA,NA,NA,NA,""
"image-keyboard-response",120,129110,"0.0-4.36-0.36","cdmw6et56h7avv1",363,"181.csv","","67.5","resources/trios/L4T2A3.jpg","37","restless",0.3,0.7,0.6,0.974586443640868,"false"
"image-keyboard-response",121,129524,"0.0-4.36-1.36","cdmw6et56h7avv1",363,"181.csv","","null","resources/maskTrios/L4BB.jpg","null","",NA,NA,NA,NA,""
"image-keyboard-response",122,130729,"0.0-4.36-2.36","cdmw6et56h7avv1",363,"181.csv","","null","resources/images/fishbone.png","null","",NA,NA,NA,NA,""
"image-keyboard-response",123,131093,"0.0-4.37-0.37","cdmw6et56h7avv1",363,"181.csv","","363.5","resources/trios/L4T2A3.jpg","37","restless",0.3,0.7,0.6,0.346592336270263,"false"
"image-keyboard-response",124,131509,"0.0-4.37-1.37","cdmw6et56h7avv1",363,"181.csv","","null","resources/maskTrios/L4BB.jpg","null","",NA,NA,NA,NA,""
"image-keyboard-response",125,132711,"0.0-4.37-2.37","cdmw6et56h7avv1",363,"181.csv","","null","resources/images/fishbone.png","null","",NA,NA,NA,NA,""
"image-keyboard-response",126,132990,"0.0-4.38-0.38","cdmw6et56h7avv1",363,"181.csv","","278.89999985694885","resources/trios/L4T2A3.jpg","39","restless",0.3,0.7,0.6,0.310651049310369,"true"
"image-keyboard-response",127,133401,"0.0-4.38-1.38","cdmw6et56h7avv1",363,"181.csv","","null","resources/maskTrios/BBA3.jpg","null","",NA,NA,NA,NA,""
"image-keyboard-response",128,134603,"0.0-4.38-2.38","cdmw6et56h7avv1",363,"181.csv","","null","resources/images/coin2.png","null","",NA,NA,NA,NA,""
"image-keyboard-response",129,134843,"0.0-4.39-0.39","cdmw6et56h7avv1",363,"181.csv","","239.40000009536743","resources/trios/L4T2A3.jpg","37","restless",0.3,0.7,0.6,0.785214178635238,"false"
"image-keyboard-response",130,135260,"0.0-4.39-1.39","cdmw6et56h7avv1",363,"181.csv","","null","resources/maskTrios/L4BB.jpg","null","",NA,NA,NA,NA,""
"image-keyboard-response",131,136462,"0.0-4.39-2.39","cdmw6et56h7avv1",363,"181.csv","","null","resources/images/fishbone.png","null","",NA,NA,NA,NA,""
"image-keyboard-response",132,136514,"0.0-4.40-0.40","cdmw6et56h7avv1",363,"181.csv","","51.40000009536743","resources/trios/L4T2A3.jpg","38","restless",0.3,0.7,0.5,0.726036481900741,"false"
"image-keyboard-response",133,136918,"0.0-4.40-1.40","cdmw6et56h7avv1",363,"181.csv","","null","resources/maskTrios/BT2B.jpg","null","",NA,NA,NA,NA,""
"image-keyboard-response",134,138125,"0.0-4.40-2.40","cdmw6et56h7avv1",363,"181.csv","","null","resources/images/fishbone.png","null","",NA,NA,NA,NA,""
"image-keyboard-response",135,138522,"0.0-4.41-0.41","cdmw6et56h7avv1",363,"181.csv","","395.89999985694885","resources/trios/L4T2A3.jpg","37","restless",0.3,0.7,0.5,0.142529189194613,"true"
"image-keyboard-response",136,138939,"0.0-4.41-1.41","cdmw6et56h7avv1",363,"181.csv","","null","resources/maskTrios/L4BB.jpg","null","",NA,NA,NA,NA,""
"image-keyboard-response",137,140143,"0.0-4.41-2.41","cdmw6et56h7avv1",363,"181.csv","","null","resources/images/coin2.png","null","",NA,NA,NA,NA,""
"image-keyboard-response",138,140421,"0.0-4.42-0.42","cdmw6et56h7avv1",363,"181.csv","","277.2000000476837","resources/trios/L4T2A3.jpg","38","restless",0.3,0.7,0.5,0.27486140654806,"true"
"image-keyboard-response",139,140831,"0.0-4.42-1.42","cdmw6et56h7avv1",363,"181.csv","","null","resources/maskTrios/BT2B.jpg","null","",NA,NA,NA,NA,""
"image-keyboard-response",140,142038,"0.0-4.42-2.42","cdmw6et56h7avv1",363,"181.csv","","null","resources/images/coin2.png","null","",NA,NA,NA,NA,""
"image-keyboard-response",141,142308,"0.0-4.43-0.43","cdmw6et56h7avv1",363,"181.csv","","268.69999980926514","resources/trios/L4T2A3.jpg","39","restless",0.4,0.7,0.5,0.879904621481732,"false"
"image-keyboard-response",142,142711,"0.0-4.43-1.43","cdmw6et56h7avv1",363,"181.csv","","null","resources/maskTrios/BBA3.jpg","null","",NA,NA,NA,NA,""
"image-keyboard-response",143,143918,"0.0-4.43-2.43","cdmw6et56h7avv1",363,"181.csv","","null","resources/images/fishbone.png","null","",NA,NA,NA,NA,""
"image-keyboard-response",144,144154,"0.0-4.44-0.44","cdmw6et56h7avv1",363,"181.csv","","235.70000004768372","resources/trios/L4T2A3.jpg","39","restless",0.4,0.7,0.5,0.136581696750556,"true"
"image-keyboard-response",145,144557,"0.0-4.44-1.44","cdmw6et56h7avv1",363,"181.csv","","null","resources/maskTrios/BBA3.jpg","null","",NA,NA,NA,NA,""
"image-keyboard-response",146,145760,"0.0-4.44-2.44","cdmw6et56h7avv1",363,"181.csv","","null","resources/images/coin2.png","null","",NA,NA,NA,NA,""
"image-keyboard-response",147,146201,"0.0-4.45-0.45","cdmw6et56h7avv1",363,"181.csv","","440.7000000476837","resources/trios/L4T2A3.jpg","37","restless",0.4,0.7,0.5,0.0681859551830042,"true"
"image-keyboard-response",148,146602,"0.0-4.45-1.45","cdmw6et56h7avv1",363,"181.csv","","null","resources/maskTrios/L4BB.jpg","null","",NA,NA,NA,NA,""
"image-keyboard-response",149,147806,"0.0-4.45-2.45","cdmw6et56h7avv1",363,"181.csv","","null","resources/images/coin2.png","null","",NA,NA,NA,NA,""
"image-keyboard-response",150,147927,"0.0-4.46-0.46","cdmw6et56h7avv1",363,"181.csv","","120.10000014305115","resources/trios/L4T2A3.jpg","38","restless",0.4,0.7,0.5,0.661268420610423,"true"
"image-keyboard-response",151,148337,"0.0-4.46-1.46","cdmw6et56h7avv1",363,"181.csv","","null","resources/maskTrios/BT2B.jpg","null","",NA,NA,NA,NA,""
"image-keyboard-response",152,149539,"0.0-4.46-2.46","cdmw6et56h7avv1",363,"181.csv","","null","resources/images/coin2.png","null","",NA,NA,NA,NA,""
"image-keyboard-response",153,149630,"0.0-4.47-0.47","cdmw6et56h7avv1",363,"181.csv","","89.89999985694885","resources/trios/L4T2A3.jpg","37","restless",0.4,0.7,0.5,0.0579479611047264,"true"
"image-keyboard-response",154,150040,"0.0-4.47-1.47","cdmw6et56h7avv1",363,"181.csv","","null","resources/maskTrios/L4BB.jpg","null","",NA,NA,NA,NA,""
"image-keyboard-response",155,151243,"0.0-4.47-2.47","cdmw6et56h7avv1",363,"181.csv","","null","resources/images/coin2.png","null","",NA,NA,NA,NA,""
"image-keyboard-response",156,151825,"0.0-4.48-0.48","cdmw6et56h7avv1",363,"181.csv","","581.0999999046326","resources/trios/L4T2A3.jpg","39","restless",0.4,0.7,0.5,0.996830576387654,"false"
"image-keyboard-response",157,152229,"0.0-4.48-1.48","cdmw6et56h7avv1",363,"181.csv","","null","resources/maskTrios/BBA3.jpg","null","",NA,NA,NA,NA,""
"image-keyboard-response",158,153431,"0.0-4.48-2.48","cdmw6et56h7avv1",363,"181.csv","","null","resources/images/fishbone.png","null","",NA,NA,NA,NA,""
"image-keyboard-response",159,154229,"0.0-4.49-0.49","cdmw6et56h7avv1",363,"181.csv","","797.7999999523163","resources/trios/L4T2A3.jpg","39","restless",0.4,0.7,0.5,0.363894232305124,"true"
"image-keyboard-response",160,154636,"0.0-4.49-1.49","cdmw6et56h7avv1",363,"181.csv","","null","resources/maskTrios/BBA3.jpg","null","",NA,NA,NA,NA,""
"image-keyboard-response",161,155853,"0.0-4.49-2.49","cdmw6et56h7avv1",363,"181.csv","","null","resources/images/coin2.png","null","",NA,NA,NA,NA,""
"image-keyboard-response",162,156021,"0.0-4.50-0.50","cdmw6et56h7avv1",363,"181.csv","","167.09999990463257","resources/trios/L4T2A3.jpg","38","restless",0.4,0.8,0.4,0.274020091955929,"true"
"image-keyboard-response",163,156432,"0.0-4.50-1.50","cdmw6et56h7avv1",363,"181.csv","","null","resources/maskTrios/BT2B.jpg","null","",NA,NA,NA,NA,""
"image-keyboard-response",164,157635,"0.0-4.50-2.50","cdmw6et56h7avv1",363,"181.csv","","null","resources/images/coin2.png","null","",NA,NA,NA,NA,""
"image-keyboard-response",165,158052,"0.0-4.51-0.51","cdmw6et56h7avv1",363,"181.csv","","416","resources/trios/L4T2A3.jpg","37","restless",0.4,0.8,0.4,0.3460395953305,"true"
"image-keyboard-response",166,158463,"0.0-4.51-1.51","cdmw6et56h7avv1",363,"181.csv","","null","resources/maskTrios/L4BB.jpg","null","",NA,NA,NA,NA,""
"image-keyboard-response",167,159666,"0.0-4.51-2.51","cdmw6et56h7avv1",363,"181.csv","","null","resources/images/coin2.png","null","",NA,NA,NA,NA,""
"image-keyboard-response",168,159927,"0.0-4.52-0.52","cdmw6et56h7avv1",363,"181.csv","","260.59999990463257","resources/trios/L4T2A3.jpg","37","restless",0.5,0.8,0.4,0.0176974435537329,"true"
"image-keyboard-response",169,160335,"0.0-4.52-1.52","cdmw6et56h7avv1",363,"181.csv","","null","resources/maskTrios/L4BB.jpg","null","",NA,NA,NA,NA,""
"image-keyboard-response",170,161544,"0.0-4.52-2.52","cdmw6et56h7avv1",363,"181.csv","","null","resources/images/coin2.png","null","",NA,NA,NA,NA,""
"image-keyboard-response",171,163388,"0.0-4.53-0.53","cdmw6et56h7avv1",363,"181.csv","","1843.0999999046326","resources/trios/L4T2A3.jpg","38","restless",0.5,0.8,0.4,0.0625829685043937,"true"
"image-keyboard-response",172,163798,"0.0-4.53-1.53","cdmw6et56h7avv1",363,"181.csv","","null","resources/maskTrios/BT2B.jpg","null","",NA,NA,NA,NA,""
"image-keyboard-response",173,165011,"0.0-4.53-2.53","cdmw6et56h7avv1",363,"181.csv","","null","resources/images/coin2.png","null","",NA,NA,NA,NA,""
"image-keyboard-response",174,165924,"0.0-4.54-0.54","cdmw6et56h7avv1",363,"181.csv","","912.6000001430511","resources/trios/L4T2A3.jpg","39","restless",0.5,0.7,0.4,0.926334762235899,"false"
"image-keyboard-response",175,166337,"0.0-4.54-1.54","cdmw6et56h7avv1",363,"181.csv","","null","resources/maskTrios/BBA3.jpg","null","",NA,NA,NA,NA,""
"image-keyboard-response",176,167539,"0.0-4.54-2.54","cdmw6et56h7avv1",363,"181.csv","","null","resources/images/fishbone.png","null","",NA,NA,NA,NA,""
"image-keyboard-response",177,168008,"0.0-4.55-0.55","cdmw6et56h7avv1",363,"181.csv","","468.2999999523163","resources/trios/L4T2A3.jpg","37","restless",0.5,0.7,0.4,0.373011164847244,"true"
"image-keyboard-response",178,168416,"0.0-4.55-1.55","cdmw6et56h7avv1",363,"181.csv","","null","resources/maskTrios/L4BB.jpg","null","",NA,NA,NA,NA,""
"image-keyboard-response",179,169632,"0.0-4.55-2.55","cdmw6et56h7avv1",363,"181.csv","","null","resources/images/coin2.png","null","",NA,NA,NA,NA,""
"image-keyboard-response",180,170163,"0.0-4.56-0.56","cdmw6et56h7avv1",363,"181.csv","","530.5","resources/trios/L4T2A3.jpg","37","restless",0.5,0.8,0.4,0.252339370649776,"true"
"image-keyboard-response",181,170572,"0.0-4.56-1.56","cdmw6et56h7avv1",363,"181.csv","","null","resources/maskTrios/L4BB.jpg","null","",NA,NA,NA,NA,""
"image-keyboard-response",182,171775,"0.0-4.56-2.56","cdmw6et56h7avv1",363,"181.csv","","null","resources/images/coin2.png","null","",NA,NA,NA,NA,""
"image-keyboard-response",183,172757,"0.0-4.57-0.57","cdmw6et56h7avv1",363,"181.csv","","981","resources/trios/L4T2A3.jpg","37","restless",0.5,0.8,0.4,0.322778050687497,"true"
"image-keyboard-response",184,173165,"0.0-4.57-1.57","cdmw6et56h7avv1",363,"181.csv","","null","resources/maskTrios/L4BB.jpg","null","",NA,NA,NA,NA,""
"image-keyboard-response",185,174368,"0.0-4.57-2.57","cdmw6et56h7avv1",363,"181.csv","","null","resources/images/coin2.png","null","",NA,NA,NA,NA,""
"image-keyboard-response",186,174663,"0.0-4.58-0.58","cdmw6et56h7avv1",363,"181.csv","","293.90000009536743","resources/trios/L4T2A3.jpg","38","restless",0.6,0.8,0.4,0.874863720484474,"false"
"image-keyboard-response",187,175072,"0.0-4.58-1.58","cdmw6et56h7avv1",363,"181.csv","","null","resources/maskTrios/BT2B.jpg","null","",NA,NA,NA,NA,""
"image-keyboard-response",188,176276,"0.0-4.58-2.58","cdmw6et56h7avv1",363,"181.csv","","null","resources/images/fishbone.png","null","",NA,NA,NA,NA,""
"image-keyboard-response",189,176492,"0.0-4.59-0.59","cdmw6et56h7avv1",363,"181.csv","","215.5","resources/trios/L4T2A3.jpg","37","restless",0.6,0.8,0.4,0.385691894999343,"true"
"image-keyboard-response",190,176900,"0.0-4.59-1.59","cdmw6et56h7avv1",363,"181.csv","","null","resources/maskTrios/L4BB.jpg","null","",NA,NA,NA,NA,""
"image-keyboard-response",191,178101,"0.0-4.59-2.59","cdmw6et56h7avv1",363,"181.csv","","null","resources/images/coin2.png","null","",NA,NA,NA,NA,""
"image-keyboard-response",192,178596,"0.0-4.60-0.60","cdmw6et56h7avv1",363,"181.csv","","493.59999990463257","resources/trios/L4T2A3.jpg","38","restless",0.6,0.8,0.4,0.705448071858307,"true"
"image-keyboard-response",193,179008,"0.0-4.60-1.60","cdmw6et56h7avv1",363,"181.csv","","null","resources/maskTrios/BT2B.jpg","null","",NA,NA,NA,NA,""
"image-keyboard-response",194,180212,"0.0-4.60-2.60","cdmw6et56h7avv1",363,"181.csv","","null","resources/images/coin2.png","null","",NA,NA,NA,NA,""
"image-keyboard-response",195,180310,"0.0-4.61-0.61","cdmw6et56h7avv1",363,"181.csv","","96.79999995231628","resources/trios/L4T2A3.jpg","39","restless",0.6,0.8,0.4,0.499441896554518,"false"
"image-keyboard-response",196,180725,"0.0-4.61-1.61","cdmw6et56h7avv1",363,"181.csv","","null","resources/maskTrios/BBA3.jpg","null","",NA,NA,NA,NA,""
"image-keyboard-response",197,181931,"0.0-4.61-2.61","cdmw6et56h7avv1",363,"181.csv","","null","resources/images/fishbone.png","null","",NA,NA,NA,NA,""
"image-keyboard-response",198,182638,"0.0-4.62-0.62","cdmw6et56h7avv1",363,"181.csv","","706.1000001430511","resources/trios/L4T2A3.jpg","38","restless",0.6,0.9,0.4,0.960007500806713,"false"
"image-keyboard-response",199,183043,"0.0-4.62-1.62","cdmw6et56h7avv1",363,"181.csv","","null","resources/maskTrios/BT2B.jpg","null","",NA,NA,NA,NA,""
"image-keyboard-response",200,184259,"0.0-4.62-2.62","cdmw6et56h7avv1",363,"181.csv","","null","resources/images/fishbone.png","null","",NA,NA,NA,NA,""
"image-keyboard-response",201,184268,"0.0-4.63-0.63","cdmw6et56h7avv1",363,"181.csv","","8.799999952316284","resources/trios/L4T2A3.jpg","39","restless",0.6,0.9,0.4,0.12698206255094,"true"
"image-keyboard-response",202,184680,"0.0-4.63-1.63","cdmw6et56h7avv1",363,"181.csv","","null","resources/maskTrios/BBA3.jpg","null","",NA,NA,NA,NA,""
"image-keyboard-response",203,185885,"0.0-4.63-2.63","cdmw6et56h7avv1",363,"181.csv","","null","resources/images/coin2.png","null","",NA,NA,NA,NA,""
"image-keyboard-response",204,186153,"0.0-4.64-0.64","cdmw6et56h7avv1",363,"181.csv","","267.39999985694885","resources/trios/L4T2A3.jpg","37","restless",0.6,0.9,0.3,0.77751756468896,"false"
"image-keyboard-response",205,186559,"0.0-4.64-1.64","cdmw6et56h7avv1",363,"181.csv","","null","resources/maskTrios/L4BB.jpg","null","",NA,NA,NA,NA,""
"image-keyboard-response",206,187775,"0.0-4.64-2.64","cdmw6et56h7avv1",363,"181.csv","","null","resources/images/fishbone.png","null","",NA,NA,NA,NA,""
"image-keyboard-response",207,211960,"0.0-4.65-0.65","cdmw6et56h7avv1",363,"181.csv","","24184.700000047684","resources/trios/L4T2A3.jpg","38","restless",0.6,0.9,0.3,0.456554762911328,"true"
"image-keyboard-response",208,212367,"0.0-4.65-1.65","cdmw6et56h7avv1",363,"181.csv","","null","resources/maskTrios/BT2B.jpg","null","",NA,NA,NA,NA,""
"image-keyboard-response",209,213573,"0.0-4.65-2.65","cdmw6et56h7avv1",363,"181.csv","","null","resources/images/coin2.png","null","",NA,NA,NA,NA,""
"image-keyboard-response",210,213914,"0.0-4.66-0.66","cdmw6et56h7avv1",363,"181.csv","","340.09999990463257","resources/trios/L4T2A3.jpg","39","restless",0.6,0.9,0.4,0.558172953406328,"false"
"image-keyboard-response",211,214325,"0.0-4.66-1.66","cdmw6et56h7avv1",363,"181.csv","","null","resources/maskTrios/BBA3.jpg","null","",NA,NA,NA,NA,""
"image-keyboard-response",212,215526,"0.0-4.66-2.66","cdmw6et56h7avv1",363,"181.csv","","null","resources/images/fishbone.png","null","",NA,NA,NA,NA,""
"image-keyboard-response",213,216144,"0.0-4.67-0.67","cdmw6et56h7avv1",363,"181.csv","","616.6000001430511","resources/trios/L4T2A3.jpg","37","restless",0.6,0.9,0.4,0.131304858164246,"true"
"image-keyboard-response",214,216559,"0.0-4.67-1.67","cdmw6et56h7avv1",363,"181.csv","","null","resources/maskTrios/L4BB.jpg","null","",NA,NA,NA,NA,""
"image-keyboard-response",215,217770,"0.0-4.67-2.67","cdmw6et56h7avv1",363,"181.csv","","null","resources/images/coin2.png","null","",NA,NA,NA,NA,""
"image-keyboard-response",216,218520,"0.0-4.68-0.68","cdmw6et56h7avv1",363,"181.csv","","749.2000000476837","resources/trios/L4T2A3.jpg","37","restless",0.6,0.9,0.4,0.654688800868647,"false"
"image-keyboard-response",217,218934,"0.0-4.68-1.68","cdmw6et56h7avv1",363,"181.csv","","null","resources/maskTrios/L4BB.jpg","null","",NA,NA,NA,NA,""
"image-keyboard-response",218,220141,"0.0-4.68-2.68","cdmw6et56h7avv1",363,"181.csv","","null","resources/images/fishbone.png","null","",NA,NA,NA,NA,""
"image-keyboard-response",219,220458,"0.0-4.69-0.69","cdmw6et56h7avv1",363,"181.csv","","316.7999999523163","resources/trios/L4T2A3.jpg","38","restless",0.6,0.9,0.5,0.605630346504693,"true"
"image-keyboard-response",220,220860,"0.0-4.69-1.69","cdmw6et56h7avv1",363,"181.csv","","null","resources/maskTrios/BT2B.jpg","null","",NA,NA,NA,NA,""
"image-keyboard-response",221,222068,"0.0-4.69-2.69","cdmw6et56h7avv1",363,"181.csv","","null","resources/images/coin2.png","null","",NA,NA,NA,NA,""
"image-keyboard-response",222,223153,"0.0-4.70-0.70","cdmw6et56h7avv1",363,"181.csv","","1084.2000000476837","resources/trios/L4T2A3.jpg","39","restless",0.6,0.9,0.5,0.0813612315998655,"true"
"image-keyboard-response",223,223564,"0.0-4.70-1.70","cdmw6et56h7avv1",363,"181.csv","","null","resources/maskTrios/BBA3.jpg","null","",NA,NA,NA,NA,""
"image-keyboard-response",224,224781,"0.0-4.70-2.70","cdmw6et56h7avv1",363,"181.csv","","null","resources/images/coin2.png","null","",NA,NA,NA,NA,""
"image-keyboard-response",225,224923,"0.0-4.71-0.71","cdmw6et56h7avv1",363,"181.csv","","141.80000019073486","resources/trios/L4T2A3.jpg","39","restless",0.6,0.8,0.5,0.34822442369181,"true"
"image-keyboard-response",226,225329,"0.0-4.71-1.71","cdmw6et56h7avv1",363,"181.csv","","null","resources/maskTrios/BBA3.jpg","null","",NA,NA,NA,NA,""
"image-keyboard-response",227,226541,"0.0-4.71-2.71","cdmw6et56h7avv1",363,"181.csv","","null","resources/images/coin2.png","null","",NA,NA,NA,NA,""
"image-keyboard-response",228,226900,"0.0-4.72-0.72","cdmw6et56h7avv1",363,"181.csv","","358.2000000476837","resources/trios/L4T2A3.jpg","38","restless",0.6,0.8,0.5,0.0549778953542857,"true"
"image-keyboard-response",229,227306,"0.0-4.72-1.72","cdmw6et56h7avv1",363,"181.csv","","null","resources/maskTrios/BT2B.jpg","null","",NA,NA,NA,NA,""
"image-keyboard-response",230,228512,"0.0-4.72-2.72","cdmw6et56h7avv1",363,"181.csv","","null","resources/images/coin2.png","null","",NA,NA,NA,NA,""
"image-keyboard-response",231,229185,"0.0-4.73-0.73","cdmw6et56h7avv1",363,"181.csv","","673.1000001430511","resources/trios/L4T2A3.jpg","37","restless",0.6,0.8,0.5,0.461604838304554,"true"
"image-keyboard-response",232,229590,"0.0-4.73-1.73","cdmw6et56h7avv1",363,"181.csv","","null","resources/maskTrios/L4BB.jpg","null","",NA,NA,NA,NA,""
"image-keyboard-response",233,230791,"0.0-4.73-2.73","cdmw6et56h7avv1",363,"181.csv","","null","resources/images/coin2.png","null","",NA,NA,NA,NA,""
"image-keyboard-response",234,231355,"0.0-4.74-0.74","cdmw6et56h7avv1",363,"181.csv","","563.6000001430511","resources/trios/L4T2A3.jpg","39","restless",0.6,0.8,0.5,0.125776273888371,"true"
"image-keyboard-response",235,231771,"0.0-4.74-1.74","cdmw6et56h7avv1",363,"181.csv","","null","resources/maskTrios/BBA3.jpg","null","",NA,NA,NA,NA,""
"image-keyboard-response",236,232974,"0.0-4.74-2.74","cdmw6et56h7avv1",363,"181.csv","","null","resources/images/coin2.png","null","",NA,NA,NA,NA,""
"image-keyboard-response",237,233387,"0.0-4.75-0.75","cdmw6et56h7avv1",363,"181.csv","","412.60000014305115","resources/trios/L4T2A3.jpg","38","restless",0.6,0.8,0.5,0.182267061789126,"true"
"image-keyboard-response",238,233790,"0.0-4.75-1.75","cdmw6et56h7avv1",363,"181.csv","","null","resources/maskTrios/BT2B.jpg","null","",NA,NA,NA,NA,""
"image-keyboard-response",239,234995,"0.0-4.75-2.75","cdmw6et56h7avv1",363,"181.csv","","null","resources/images/coin2.png","null","",NA,NA,NA,NA,""
"image-keyboard-response",240,235518,"0.0-4.76-0.76","cdmw6et56h7avv1",363,"181.csv","","522.2000000476837","resources/trios/L4T2A3.jpg","39","restless",0.6,0.8,0.5,0.514853009268191,"false"
"image-keyboard-response",241,235933,"0.0-4.76-1.76","cdmw6et56h7avv1",363,"181.csv","","null","resources/maskTrios/BBA3.jpg","null","",NA,NA,NA,NA,""
"image-keyboard-response",242,237137,"0.0-4.76-2.76","cdmw6et56h7avv1",363,"181.csv","","null","resources/images/fishbone.png","null","",NA,NA,NA,NA,""
"image-keyboard-response",243,238293,"0.0-4.77-0.77","cdmw6et56h7avv1",363,"181.csv","","1155.2999999523163","resources/trios/L4T2A3.jpg","37","restless",0.6,0.8,0.5,0.441994737710991,"true"
"image-keyboard-response",244,238707,"0.0-4.77-1.77","cdmw6et56h7avv1",363,"181.csv","","null","resources/maskTrios/L4BB.jpg","null","",NA,NA,NA,NA,""
"image-keyboard-response",245,239911,"0.0-4.77-2.77","cdmw6et56h7avv1",363,"181.csv","","null","resources/images/coin2.png","null","",NA,NA,NA,NA,""
"image-keyboard-response",246,240440,"0.0-4.78-0.78","cdmw6et56h7avv1",363,"181.csv","","527.3999998569489","resources/trios/L4T2A3.jpg","37","restless",0.6,0.8,0.5,0.0666210410977275,"true"
"image-keyboard-response",247,240848,"0.0-4.78-1.78","cdmw6et56h7avv1",363,"181.csv","","null","resources/maskTrios/L4BB.jpg","null","",NA,NA,NA,NA,""
"image-keyboard-response",248,242052,"0.0-4.78-2.78","cdmw6et56h7avv1",363,"181.csv","","null","resources/images/coin2.png","null","",NA,NA,NA,NA,""
"image-keyboard-response",249,242885,"0.0-4.79-0.79","cdmw6et56h7avv1",363,"181.csv","","831.9000000953674","resources/trios/L4T2A3.jpg","38","restless",0.6,0.8,0.5,0.149589212029545,"true"
"image-keyboard-response",250,243286,"0.0-4.79-1.79","cdmw6et56h7avv1",363,"181.csv","","null","resources/maskTrios/BT2B.jpg","null","",NA,NA,NA,NA,""
"image-keyboard-response",251,244489,"0.0-4.79-2.79","cdmw6et56h7avv1",363,"181.csv","","null","resources/images/coin2.png","null","",NA,NA,NA,NA,""
"image-keyboard-response",252,244858,"0.0-4.80-0.80","cdmw6et56h7avv1",363,"181.csv","","368.69999980926514","resources/trios/L4T2A3.jpg","39","restless",0.6,0.8,0.5,0.119710614738642,"true"
"image-keyboard-response",253,245270,"0.0-4.80-1.80","cdmw6et56h7avv1",363,"181.csv","","null","resources/maskTrios/BBA3.jpg","null","",NA,NA,NA,NA,""
"image-keyboard-response",254,246478,"0.0-4.80-2.80","cdmw6et56h7avv1",363,"181.csv","","null","resources/images/coin2.png","null","",NA,NA,NA,NA,""
"image-keyboard-response",255,247226,"0.0-4.81-0.81","cdmw6et56h7avv1",363,"181.csv","","746.6000001430511","resources/trios/L4T2A3.jpg","37","restless",0.6,0.8,0.5,0.368596485317579,"true"
"image-keyboard-response",256,247635,"0.0-4.81-1.81","cdmw6et56h7avv1",363,"181.csv","","null","resources/maskTrios/L4BB.jpg","null","",NA,NA,NA,NA,""
"image-keyboard-response",257,248838,"0.0-4.81-2.81","cdmw6et56h7avv1",363,"181.csv","","null","resources/images/coin2.png","null","",NA,NA,NA,NA,""
"image-keyboard-response",258,249133,"0.0-4.82-0.82","cdmw6et56h7avv1",363,"181.csv","","294.39999985694885","resources/trios/L4T2A3.jpg","39","restless",0.5,0.8,0.5,0.556151258837301,"false"
"image-keyboard-response",259,249542,"0.0-4.82-1.82","cdmw6et56h7avv1",363,"181.csv","","null","resources/maskTrios/BBA3.jpg","null","",NA,NA,NA,NA,""
"image-keyboard-response",260,250744,"0.0-4.82-2.82","cdmw6et56h7avv1",363,"181.csv","","null","resources/images/fishbone.png","null","",NA,NA,NA,NA,""
"image-keyboard-response",261,251096,"0.0-4.83-0.83","cdmw6et56h7avv1",363,"181.csv","","351.39999985694885","resources/trios/L4T2A3.jpg","38","restless",0.5,0.8,0.5,0.0864224258435209,"true"
"image-keyboard-response",262,251511,"0.0-4.83-1.83","cdmw6et56h7avv1",363,"181.csv","","null","resources/maskTrios/BT2B.jpg","null","",NA,NA,NA,NA,""
"image-keyboard-response",263,252714,"0.0-4.83-2.83","cdmw6et56h7avv1",363,"181.csv","","null","resources/images/coin2.png","null","",NA,NA,NA,NA,""
"image-keyboard-response",264,254021,"0.0-4.84-0.84","cdmw6et56h7avv1",363,"181.csv","","1306.2000000476837","resources/trios/L4T2A3.jpg","37","restless",0.5,0.7,0.5,0.954399132727887,"false"
"image-keyboard-response",265,254429,"0.0-4.84-1.84","cdmw6et56h7avv1",363,"181.csv","","null","resources/maskTrios/L4BB.jpg","null","",NA,NA,NA,NA,""
"image-keyboard-response",266,255646,"0.0-4.84-2.84","cdmw6et56h7avv1",363,"181.csv","","null","resources/images/fishbone.png","null","",NA,NA,NA,NA,""
"image-keyboard-response",267,255928,"0.0-4.85-0.85","cdmw6et56h7avv1",363,"181.csv","","281.90000009536743","resources/trios/L4T2A3.jpg","39","restless",0.5,0.7,0.5,0.208457071501117,"true"
"image-keyboard-response",268,256331,"0.0-4.85-1.85","cdmw6et56h7avv1",363,"181.csv","","null","resources/maskTrios/BBA3.jpg","null","",NA,NA,NA,NA,""
"image-keyboard-response",269,257539,"0.0-4.85-2.85","cdmw6et56h7avv1",363,"181.csv","","null","resources/images/coin2.png","null","",NA,NA,NA,NA,""
"image-keyboard-response",270,258163,"0.0-4.86-0.86","cdmw6et56h7avv1",363,"181.csv","","624","resources/trios/L4T2A3.jpg","38","restless",0.5,0.7,0.5,0.0647206154181137,"true"
"image-keyboard-response",271,258574,"0.0-4.86-1.86","cdmw6et56h7avv1",363,"181.csv","","null","resources/maskTrios/BT2B.jpg","null","",NA,NA,NA,NA,""
"image-keyboard-response",272,259782,"0.0-4.86-2.86","cdmw6et56h7avv1",363,"181.csv","","null","resources/images/coin2.png","null","",NA,NA,NA,NA,""
"image-keyboard-response",273,261505,"0.0-4.87-0.87","cdmw6et56h7avv1",363,"181.csv","","1722.7999999523163","resources/trios/L4T2A3.jpg","39","restless",0.5,0.7,0.5,0.705881937532526,"false"
"image-keyboard-response",274,261917,"0.0-4.87-1.87","cdmw6et56h7avv1",363,"181.csv","","null","resources/maskTrios/BBA3.jpg","null","",NA,NA,NA,NA,""
"image-keyboard-response",275,263121,"0.0-4.87-2.87","cdmw6et56h7avv1",363,"181.csv","","null","resources/images/fishbone.png","null","",NA,NA,NA,NA,""
"image-keyboard-response",276,263442,"0.0-4.88-0.88","cdmw6et56h7avv1",363,"181.csv","","320.39999985694885","resources/trios/L4T2A3.jpg","37","restless",0.5,0.7,0.5,0.0547061464633394,"true"
"image-keyboard-response",277,263854,"0.0-4.88-1.88","cdmw6et56h7avv1",363,"181.csv","","null","resources/maskTrios/L4BB.jpg","null","",NA,NA,NA,NA,""
"image-keyboard-response",278,265056,"0.0-4.88-2.88","cdmw6et56h7avv1",363,"181.csv","","null","resources/images/coin2.png","null","",NA,NA,NA,NA,""
"image-keyboard-response",279,265362,"0.0-4.89-0.89","cdmw6et56h7avv1",363,"181.csv","","305.40000009536743","resources/trios/L4T2A3.jpg","38","restless",0.5,0.7,0.5,0.226214439729196,"true"
"image-keyboard-response",280,265778,"0.0-4.89-1.89","cdmw6et56h7avv1",363,"181.csv","","null","resources/maskTrios/BT2B.jpg","null","",NA,NA,NA,NA,""
"image-keyboard-response",281,266986,"0.0-4.89-2.89","cdmw6et56h7avv1",363,"181.csv","","null","resources/images/coin2.png","null","",NA,NA,NA,NA,""
"image-keyboard-response",282,267254,"0.0-4.90-0.90","cdmw6et56h7avv1",363,"181.csv","","267.5","resources/trios/L4T2A3.jpg","37","restless",0.5,0.7,0.5,0.614338118727103,"false"
"image-keyboard-response",283,267670,"0.0-4.90-1.90","cdmw6et56h7avv1",363,"181.csv","","null","resources/maskTrios/L4BB.jpg","null","",NA,NA,NA,NA,""
"image-keyboard-response",284,268884,"0.0-4.90-2.90","cdmw6et56h7avv1",363,"181.csv","","null","resources/images/fishbone.png","null","",NA,NA,NA,NA,""
"image-keyboard-response",285,269169,"0.0-4.91-0.91","cdmw6et56h7avv1",363,"181.csv","","284.5","resources/trios/L4T2A3.jpg","39","restless",0.5,0.7,0.5,0.0573513837312967,"true"
"image-keyboard-response",286,269574,"0.0-4.91-1.91","cdmw6et56h7avv1",363,"181.csv","","null","resources/maskTrios/BBA3.jpg","null","",NA,NA,NA,NA,""
"image-keyboard-response",287,270776,"0.0-4.91-2.91","cdmw6et56h7avv1",363,"181.csv","","null","resources/images/coin2.png","null","",NA,NA,NA,NA,""
"image-keyboard-response",288,271687,"0.0-4.92-0.92","cdmw6et56h7avv1",363,"181.csv","","910.2999999523163","resources/trios/L4T2A3.jpg","38","restless",0.5,0.7,0.4,0.200510447498625,"true"
"image-keyboard-response",289,272095,"0.0-4.92-1.92","cdmw6et56h7avv1",363,"181.csv","","null","resources/maskTrios/BT2B.jpg","null","",NA,NA,NA,NA,""
"image-keyboard-response",290,273305,"0.0-4.92-2.92","cdmw6et56h7avv1",363,"181.csv","","null","resources/images/coin2.png","null","",NA,NA,NA,NA,""
"image-keyboard-response",291,274088,"0.0-4.93-0.93","cdmw6et56h7avv1",363,"181.csv","","782.5","resources/trios/L4T2A3.jpg","37","restless",0.5,0.7,0.4,0.359947656885135,"true"
"image-keyboard-response",292,274495,"0.0-4.93-1.93","cdmw6et56h7avv1",363,"181.csv","","null","resources/maskTrios/L4BB.jpg","null","",NA,NA,NA,NA,""
"image-keyboard-response",293,275698,"0.0-4.93-2.93","cdmw6et56h7avv1",363,"181.csv","","null","resources/images/coin2.png","null","",NA,NA,NA,NA,""
"image-keyboard-response",294,276193,"0.0-4.94-0.94","cdmw6et56h7avv1",363,"181.csv","","494.7999999523163","resources/trios/L4T2A3.jpg","38","restless",0.5,0.7,0.4,0.050777146304094,"true"
"image-keyboard-response",295,276605,"0.0-4.94-1.94","cdmw6et56h7avv1",363,"181.csv","","null","resources/maskTrios/BT2B.jpg","null","",NA,NA,NA,NA,""
"image-keyboard-response",296,277806,"0.0-4.94-2.94","cdmw6et56h7avv1",363,"181.csv","","null","resources/images/coin2.png","null","",NA,NA,NA,NA,""
"image-keyboard-response",297,278100,"0.0-4.95-0.95","cdmw6et56h7avv1",363,"181.csv","","292.5","resources/trios/L4T2A3.jpg","37","restless",0.5,0.7,0.4,0.981434186452984,"false"
"image-keyboard-response",298,278509,"0.0-4.95-1.95","cdmw6et56h7avv1",363,"181.csv","","null","resources/maskTrios/L4BB.jpg","null","",NA,NA,NA,NA,""
"image-keyboard-response",299,279711,"0.0-4.95-2.95","cdmw6et56h7avv1",363,"181.csv","","null","resources/images/fishbone.png","null","",NA,NA,NA,NA,""
"image-keyboard-response",300,279907,"0.0-4.96-0.96","cdmw6et56h7avv1",363,"181.csv","","195.29999995231628","resources/trios/L4T2A3.jpg","39","restless",0.5,0.7,0.4,0.500599741174625,"false"
"image-keyboard-response",301,280319,"0.0-4.96-1.96","cdmw6et56h7avv1",363,"181.csv","","null","resources/maskTrios/BBA3.jpg","null","",NA,NA,NA,NA,""
"image-keyboard-response",302,281535,"0.0-4.96-2.96","cdmw6et56h7avv1",363,"181.csv","","null","resources/images/fishbone.png","null","",NA,NA,NA,NA,""
"image-keyboard-response",303,281795,"0.0-4.97-0.97","cdmw6et56h7avv1",363,"181.csv","","259.2999999523163","resources/trios/L4T2A3.jpg","37","restless",0.5,0.7,0.4,0.93517174785031,"false"
"image-keyboard-response",304,282209,"0.0-4.97-1.97","cdmw6et56h7avv1",363,"181.csv","","null","resources/maskTrios/L4BB.jpg","null","",NA,NA,NA,NA,""
"image-keyboard-response",305,283413,"0.0-4.97-2.97","cdmw6et56h7avv1",363,"181.csv","","null","resources/images/fishbone.png","null","",NA,NA,NA,NA,""
"image-keyboard-response",306,283863,"0.0-4.98-0.98","cdmw6et56h7avv1",363,"181.csv","","448.5","resources/trios/L4T2A3.jpg","38","restless",0.5,0.7,0.4,0.915257353711441,"false"
"image-keyboard-response",307,284274,"0.0-4.98-1.98","cdmw6et56h7avv1",363,"181.csv","","null","resources/maskTrios/BT2B.jpg","null","",NA,NA,NA,NA,""
"image-keyboard-response",308,285479,"0.0-4.98-2.98","cdmw6et56h7avv1",363,"181.csv","","null","resources/images/fishbone.png","null","",NA,NA,NA,NA,""
"image-keyboard-response",309,285758,"0.0-4.99-0.99","cdmw6et56h7avv1",363,"181.csv","","278.40000009536743","resources/trios/L4T2A3.jpg","37","restless",0.5,0.7,0.4,0.909327886966311,"false"
"image-keyboard-response",310,286166,"0.0-4.99-1.99","cdmw6et56h7avv1",363,"181.csv","","null","resources/maskTrios/L4BB.jpg","null","",NA,NA,NA,NA,""
"image-keyboard-response",311,287376,"0.0-4.99-2.99","cdmw6et56h7avv1",363,"181.csv","","null","resources/images/fishbone.png","null","",NA,NA,NA,NA,""
"image-keyboard-response",312,288081,"0.0-4.100-0.100","cdmw6et56h7avv1",363,"181.csv","","704.6000001430511","resources/trios/L4T2A3.jpg","39","restless",0.5,0.7,0.4,0.29582860525593,"true"
"image-keyboard-response",313,288495,"0.0-4.100-1.100","cdmw6et56h7avv1",363,"181.csv","","null","resources/maskTrios/BBA3.jpg","null","",NA,NA,NA,NA,""
"image-keyboard-response",314,289710,"0.0-4.100-2.100","cdmw6et56h7avv1",363,"181.csv","","null","resources/images/coin2.png","null","",NA,NA,NA,NA,""
"image-keyboard-response",315,290579,"0.0-4.101-0.101","cdmw6et56h7avv1",363,"181.csv","","869.2000000476837","resources/trios/L4T2A3.jpg","38","restless",0.5,0.7,0.4,0.731007193585276,"false"
"image-keyboard-response",316,290989,"0.0-4.101-1.101","cdmw6et56h7avv1",363,"181.csv","","null","resources/maskTrios/BT2B.jpg","null","",NA,NA,NA,NA,""
"image-keyboard-response",317,292196,"0.0-4.101-2.101","cdmw6et56h7avv1",363,"181.csv","","null","resources/images/fishbone.png","null","",NA,NA,NA,NA,""
"image-keyboard-response",318,292480,"0.0-4.102-0.102","cdmw6et56h7avv1",363,"181.csv","","283.2999999523163","resources/trios/L4T2A3.jpg","37","restless",0.5,0.7,0.4,0.505654968523973,"false"
"image-keyboard-response",319,292886,"0.0-4.102-1.102","cdmw6et56h7avv1",363,"181.csv","","null","resources/maskTrios/L4BB.jpg","null","",NA,NA,NA,NA,""
"image-keyboard-response",320,294103,"0.0-4.102-2.102","cdmw6et56h7avv1",363,"181.csv","","null","resources/images/fishbone.png","null","",NA,NA,NA,NA,""
"image-keyboard-response",321,296352,"0.0-4.103-0.103","cdmw6et56h7avv1",363,"181.csv","","2248.7999999523163","resources/trios/L4T2A3.jpg","37","restless",0.5,0.7,0.3,0.991890662417733,"false"
"image-keyboard-response",322,296759,"0.0-4.103-1.103","cdmw6et56h7avv1",363,"181.csv","","null","resources/maskTrios/L4BB.jpg","null","",NA,NA,NA,NA,""
"image-keyboard-response",323,297961,"0.0-4.103-2.103","cdmw6et56h7avv1",363,"181.csv","","null","resources/images/fishbone.png","null","",NA,NA,NA,NA,""
"image-keyboard-response",324,299037,"0.0-4.104-0.104","cdmw6et56h7avv1",363,"181.csv","","1075.7000000476837","resources/trios/L4T2A3.jpg","39","restless",0.5,0.8,0.3,0.157210361674153,"true"
"image-keyboard-response",325,299443,"0.0-4.104-1.104","cdmw6et56h7avv1",363,"181.csv","","null","resources/maskTrios/BBA3.jpg","null","",NA,NA,NA,NA,""
"image-keyboard-response",326,300650,"0.0-4.104-2.104","cdmw6et56h7avv1",363,"181.csv","","null","resources/images/coin2.png","null","",NA,NA,NA,NA,""
"image-keyboard-response",327,300979,"0.0-4.105-0.105","cdmw6et56h7avv1",363,"181.csv","","328.2999999523163","resources/trios/L4T2A3.jpg","37","restless",0.5,0.8,0.4,0.198104198618233,"true"
"image-keyboard-response",328,301384,"0.0-4.105-1.105","cdmw6et56h7avv1",363,"181.csv","","null","resources/maskTrios/L4BB.jpg","null","",NA,NA,NA,NA,""
"image-keyboard-response",329,302590,"0.0-4.105-2.105","cdmw6et56h7avv1",363,"181.csv","","null","resources/images/coin2.png","null","",NA,NA,NA,NA,""
"image-keyboard-response",330,303023,"0.0-4.106-0.106","cdmw6et56h7avv1",363,"181.csv","","431.7999999523163","resources/trios/L4T2A3.jpg","38","restless",0.5,0.7,0.5,0.871999696729495,"false"
"image-keyboard-response",331,303428,"0.0-4.106-1.106","cdmw6et56h7avv1",363,"181.csv","","null","resources/maskTrios/BT2B.jpg","null","",NA,NA,NA,NA,""
"image-keyboard-response",332,304634,"0.0-4.106-2.106","cdmw6et56h7avv1",363,"181.csv","","null","resources/images/fishbone.png","null","",NA,NA,NA,NA,""
"image-keyboard-response",333,305061,"0.0-4.107-0.107","cdmw6et56h7avv1",363,"181.csv","","426.7000000476837","resources/trios/L4T2A3.jpg","38","restless",0.5,0.8,0.5,0.442371762704388,"true"
"image-keyboard-response",334,305462,"0.0-4.107-1.107","cdmw6et56h7avv1",363,"181.csv","","null","resources/maskTrios/BT2B.jpg","null","",NA,NA,NA,NA,""
"image-keyboard-response",335,306665,"0.0-4.107-2.107","cdmw6et56h7avv1",363,"181.csv","","null","resources/images/coin2.png","null","",NA,NA,NA,NA,""
"image-keyboard-response",336,306940,"0.0-4.108-0.108","cdmw6et56h7avv1",363,"181.csv","","274.2000000476837","resources/trios/L4T2A3.jpg","37","restless",0.5,0.8,0.5,0.320474670582724,"true"
"image-keyboard-response",337,307352,"0.0-4.108-1.108","cdmw6et56h7avv1",363,"181.csv","","null","resources/maskTrios/L4BB.jpg","null","",NA,NA,NA,NA,""
"image-keyboard-response",338,308555,"0.0-4.108-2.108","cdmw6et56h7avv1",363,"181.csv","","null","resources/images/coin2.png","null","",NA,NA,NA,NA,""
"image-keyboard-response",339,308786,"0.0-4.109-0.109","cdmw6et56h7avv1",363,"181.csv","","230.19999980926514","resources/trios/L4T2A3.jpg","39","restless",0.5,0.7,0.6,0.113199629133904,"true"
"image-keyboard-response",340,309197,"0.0-4.109-1.109","cdmw6et56h7avv1",363,"181.csv","","null","resources/maskTrios/BBA3.jpg","null","",NA,NA,NA,NA,""
"image-keyboard-response",341,310401,"0.0-4.109-2.109","cdmw6et56h7avv1",363,"181.csv","","null","resources/images/coin2.png","null","",NA,NA,NA,NA,""
"image-keyboard-response",342,311569,"0.0-4.110-0.110","cdmw6et56h7avv1",363,"181.csv","","1166.8999998569489","resources/trios/L4T2A3.jpg","38","restless",0.5,0.7,0.6,0.681458252979733,"true"
"image-keyboard-response",343,311979,"0.0-4.110-1.110","cdmw6et56h7avv1",363,"181.csv","","null","resources/maskTrios/BT2B.jpg","null","",NA,NA,NA,NA,""
"image-keyboard-response",344,313184,"0.0-4.110-2.110","cdmw6et56h7avv1",363,"181.csv","","null","resources/images/coin2.png","null","",NA,NA,NA,NA,""
"image-keyboard-response",345,313244,"0.0-4.111-0.111","cdmw6et56h7avv1",363,"181.csv","","58.700000047683716","resources/trios/L4T2A3.jpg","37","restless",0.5,0.7,0.6,0.767491555947173,"false"
"image-keyboard-response",346,313650,"0.0-4.111-1.111","cdmw6et56h7avv1",363,"181.csv","","null","resources/maskTrios/L4BB.jpg","null","",NA,NA,NA,NA,""
"image-keyboard-response",347,314855,"0.0-4.111-2.111","cdmw6et56h7avv1",363,"181.csv","","null","resources/images/fishbone.png","null","",NA,NA,NA,NA,""
"image-keyboard-response",348,315329,"0.0-4.112-0.112","cdmw6et56h7avv1",363,"181.csv","","473.09999990463257","resources/trios/L4T2A3.jpg","39","restless",0.5,0.7,0.6,0.685943810887869,"false"
"image-keyboard-response",349,315742,"0.0-4.112-1.112","cdmw6et56h7avv1",363,"181.csv","","null","resources/maskTrios/BBA3.jpg","null","",NA,NA,NA,NA,""
"image-keyboard-response",350,316947,"0.0-4.112-2.112","cdmw6et56h7avv1",363,"181.csv","","null","resources/images/fishbone.png","null","",NA,NA,NA,NA,""
"image-keyboard-response",351,317184,"0.0-4.113-0.113","cdmw6et56h7avv1",363,"181.csv","","236.79999995231628","resources/trios/L4T2A3.jpg","37","restless",0.5,0.7,0.5,0.0212416955412968,"true"
"image-keyboard-response",352,317588,"0.0-4.113-1.113","cdmw6et56h7avv1",363,"181.csv","","null","resources/maskTrios/L4BB.jpg","null","",NA,NA,NA,NA,""
"image-keyboard-response",353,318790,"0.0-4.113-2.113","cdmw6et56h7avv1",363,"181.csv","","null","resources/images/coin2.png","null","",NA,NA,NA,NA,""
"image-keyboard-response",354,319340,"0.0-4.114-0.114","cdmw6et56h7avv1",363,"181.csv","","548.5","resources/trios/L4T2A3.jpg","38","restless",0.5,0.7,0.5,0.810683997544807,"false"
"image-keyboard-response",355,319742,"0.0-4.114-1.114","cdmw6et56h7avv1",363,"181.csv","","null","resources/maskTrios/BT2B.jpg","null","",NA,NA,NA,NA,""
"image-keyboard-response",356,320946,"0.0-4.114-2.114","cdmw6et56h7avv1",363,"181.csv","","null","resources/images/fishbone.png","null","",NA,NA,NA,NA,""
"image-keyboard-response",357,321165,"0.0-4.115-0.115","cdmw6et56h7avv1",363,"181.csv","","218.40000009536743","resources/trios/L4T2A3.jpg","37","restless",0.4,0.7,0.5,0.0900485605596488,"true"
"image-keyboard-response",358,321572,"0.0-4.115-1.115","cdmw6et56h7avv1",363,"181.csv","","null","resources/maskTrios/L4BB.jpg","null","",NA,NA,NA,NA,""
"image-keyboard-response",359,322788,"0.0-4.115-2.115","cdmw6et56h7avv1",363,"181.csv","","null","resources/images/coin2.png","null","",NA,NA,NA,NA,""
"image-keyboard-response",360,322982,"0.0-4.116-0.116","cdmw6et56h7avv1",363,"181.csv","","192.89999985694885","resources/trios/L4T2A3.jpg","39","restless",0.4,0.7,0.5,0.49545994770346,"true"
"image-keyboard-response",361,323396,"0.0-4.116-1.116","cdmw6et56h7avv1",363,"181.csv","","null","resources/maskTrios/BBA3.jpg","null","",NA,NA,NA,NA,""
"image-keyboard-response",362,324599,"0.0-4.116-2.116","cdmw6et56h7avv1",363,"181.csv","","null","resources/images/coin2.png","null","",NA,NA,NA,NA,""
"image-keyboard-response",363,324876,"0.0-4.117-0.117","cdmw6et56h7avv1",363,"181.csv","","277.09999990463257","resources/trios/L4T2A3.jpg","38","restless",0.4,0.7,0.5,0.976702653257996,"false"
"image-keyboard-response",364,325285,"0.0-4.117-1.117","cdmw6et56h7avv1",363,"181.csv","","null","resources/maskTrios/BT2B.jpg","null","",NA,NA,NA,NA,""
"image-keyboard-response",365,326490,"0.0-4.117-2.117","cdmw6et56h7avv1",363,"181.csv","","null","resources/images/fishbone.png","null","",NA,NA,NA,NA,""
"image-keyboard-response",366,326688,"0.0-4.118-0.118","cdmw6et56h7avv1",363,"181.csv","","197.5","resources/trios/L4T2A3.jpg","38","restless",0.4,0.7,0.5,0.929871973890106,"false"
"image-keyboard-response",367,327100,"0.0-4.118-1.118","cdmw6et56h7avv1",363,"181.csv","","null","resources/maskTrios/BT2B.jpg","null","",NA,NA,NA,NA,""
"image-keyboard-response",368,328313,"0.0-4.118-2.118","cdmw6et56h7avv1",363,"181.csv","","null","resources/images/fishbone.png","null","",NA,NA,NA,NA,""
"image-keyboard-response",369,328996,"0.0-4.119-0.119","cdmw6et56h7avv1",363,"181.csv","","682.1999998092651","resources/trios/L4T2A3.jpg","38","restless",0.4,0.7,0.5,0.145974896219141,"true"
"image-keyboard-response",370,329401,"0.0-4.119-1.119","cdmw6et56h7avv1",363,"181.csv","","null","resources/maskTrios/BT2B.jpg","null","",NA,NA,NA,NA,""
"image-keyboard-response",371,330608,"0.0-4.119-2.119","cdmw6et56h7avv1",363,"181.csv","","null","resources/images/coin2.png","null","",NA,NA,NA,NA,""
"image-keyboard-response",372,330845,"0.0-4.120-0.120","cdmw6et56h7avv1",363,"181.csv","","236.39999985694885","resources/trios/L4T2A3.jpg","37","restless",0.4,0.7,0.5,0.159773979119239,"true"
"image-keyboard-response",373,331260,"0.0-4.120-1.120","cdmw6et56h7avv1",363,"181.csv","","null","resources/maskTrios/L4BB.jpg","null","",NA,NA,NA,NA,""
"image-keyboard-response",374,332462,"0.0-4.120-2.120","cdmw6et56h7avv1",363,"181.csv","","null","resources/images/coin2.png","null","",NA,NA,NA,NA,""
"image-keyboard-response",375,332571,"0.0-4.121-0.121","cdmw6et56h7avv1",363,"181.csv","","107.90000009536743","resources/trios/L4T2A3.jpg","38","restless",0.4,0.6,0.5,0.619418289906165,"false"
"image-keyboard-response",376,332979,"0.0-4.121-1.121","cdmw6et56h7avv1",363,"181.csv","","null","resources/maskTrios/BT2B.jpg","null","",NA,NA,NA,NA,""
"image-keyboard-response",377,334193,"0.0-4.121-2.121","cdmw6et56h7avv1",363,"181.csv","","null","resources/images/fishbone.png","null","",NA,NA,NA,NA,""
"image-keyboard-response",378,334249,"0.0-4.122-0.122","cdmw6et56h7avv1",363,"181.csv","","56","resources/trios/L4T2A3.jpg","39","restless",0.4,0.6,0.5,0.0705488640397622,"true"
"image-keyboard-response",379,334660,"0.0-4.122-1.122","cdmw6et56h7avv1",363,"181.csv","","null","resources/maskTrios/BBA3.jpg","null","",NA,NA,NA,NA,""
"image-keyboard-response",380,335862,"0.0-4.122-2.122","cdmw6et56h7avv1",363,"181.csv","","null","resources/images/coin2.png","null","",NA,NA,NA,NA,""
"image-keyboard-response",381,336053,"0.0-4.123-0.123","cdmw6et56h7avv1",363,"181.csv","","190.5","resources/trios/L4T2A3.jpg","38","restless",0.4,0.6,0.5,0.307305494802906,"true"
"image-keyboard-response",382,336455,"0.0-4.123-1.123","cdmw6et56h7avv1",363,"181.csv","","null","resources/maskTrios/BT2B.jpg","null","",NA,NA,NA,NA,""
"image-keyboard-response",383,337660,"0.0-4.123-2.123","cdmw6et56h7avv1",363,"181.csv","","null","resources/images/coin2.png","null","",NA,NA,NA,NA,""
"image-keyboard-response",384,337680,"0.0-4.124-0.124","cdmw6et56h7avv1",363,"181.csv","","19.299999952316284","resources/trios/L4T2A3.jpg","37","restless",0.4,0.6,0.5,0.832039481662456,"false"
"image-keyboard-response",385,338083,"0.0-4.124-1.124","cdmw6et56h7avv1",363,"181.csv","","null","resources/maskTrios/L4BB.jpg","null","",NA,NA,NA,NA,""
"image-keyboard-response",386,339284,"0.0-4.124-2.124","cdmw6et56h7avv1",363,"181.csv","","null","resources/images/fishbone.png","null","",NA,NA,NA,NA,""
"image-keyboard-response",387,339458,"0.0-4.125-0.125","cdmw6et56h7avv1",363,"181.csv","","172.79999995231628","resources/trios/L4T2A3.jpg","39","restless",0.4,0.6,0.5,0.860807626868847,"false"
"image-keyboard-response",388,339865,"0.0-4.125-1.125","cdmw6et56h7avv1",363,"181.csv","","null","resources/maskTrios/BBA3.jpg","null","",NA,NA,NA,NA,""
"image-keyboard-response",389,341068,"0.0-4.125-2.125","cdmw6et56h7avv1",363,"181.csv","","null","resources/images/fishbone.png","null","",NA,NA,NA,NA,""
"image-keyboard-response",390,341642,"0.0-4.126-0.126","cdmw6et56h7avv1",363,"181.csv","","573.2999999523163","resources/trios/L4T2A3.jpg","38","restless",0.4,0.6,0.5,0.936433175469587,"false"
"image-keyboard-response",391,342052,"0.0-4.126-1.126","cdmw6et56h7avv1",363,"181.csv","","null","resources/maskTrios/BT2B.jpg","null","",NA,NA,NA,NA,""
"image-keyboard-response",392,343258,"0.0-4.126-2.126","cdmw6et56h7avv1",363,"181.csv","","null","resources/images/fishbone.png","null","",NA,NA,NA,NA,""
"image-keyboard-response",393,343780,"0.0-4.127-0.127","cdmw6et56h7avv1",363,"181.csv","","520.7000000476837","resources/trios/L4T2A3.jpg","39","restless",0.5,0.6,0.5,0.716005985864128,"false"
"image-keyboard-response",394,344182,"0.0-4.127-1.127","cdmw6et56h7avv1",363,"181.csv","","null","resources/maskTrios/BBA3.jpg","null","",NA,NA,NA,NA,""
"image-keyboard-response",395,345385,"0.0-4.127-2.127","cdmw6et56h7avv1",363,"181.csv","","null","resources/images/fishbone.png","null","",NA,NA,NA,NA,""
"image-keyboard-response",396,345625,"0.0-4.128-0.128","cdmw6et56h7avv1",363,"181.csv","","239.80000019073486","resources/trios/L4T2A3.jpg","37","restless",0.5,0.6,0.5,0.245125676418705,"true"
"image-keyboard-response",397,346029,"0.0-4.128-1.128","cdmw6et56h7avv1",363,"181.csv","","null","resources/maskTrios/L4BB.jpg","null","",NA,NA,NA,NA,""
"image-keyboard-response",398,347239,"0.0-4.128-2.128","cdmw6et56h7avv1",363,"181.csv","","null","resources/images/coin2.png","null","",NA,NA,NA,NA,""
"image-keyboard-response",399,347282,"0.0-4.129-0.129","cdmw6et56h7avv1",363,"181.csv","","42.09999990463257","resources/trios/L4T2A3.jpg","38","restless",0.5,0.6,0.5,0.817293494739928,"false"
"image-keyboard-response",400,347691,"0.0-4.129-1.129","cdmw6et56h7avv1",363,"181.csv","","null","resources/maskTrios/BT2B.jpg","null","",NA,NA,NA,NA,""
"image-keyboard-response",401,348906,"0.0-4.129-2.129","cdmw6et56h7avv1",363,"181.csv","","null","resources/images/fishbone.png","null","",NA,NA,NA,NA,""
"image-keyboard-response",402,348923,"0.0-4.130-0.130","cdmw6et56h7avv1",363,"181.csv","","16","resources/trios/L4T2A3.jpg","37","restless",0.6,0.6,0.5,0.191718524977941,"true"
"image-keyboard-response",403,349329,"0.0-4.130-1.130","cdmw6et56h7avv1",363,"181.csv","","null","resources/maskTrios/L4BB.jpg","null","",NA,NA,NA,NA,""
"image-keyboard-response",404,350535,"0.0-4.130-2.130","cdmw6et56h7avv1",363,"181.csv","","null","resources/images/coin2.png","null","",NA,NA,NA,NA,""
"image-keyboard-response",405,350745,"0.0-4.131-0.131","cdmw6et56h7avv1",363,"181.csv","","209.80000019073486","resources/trios/L4T2A3.jpg","39","restless",0.6,0.6,0.5,0.290619953663291,"true"
"image-keyboard-response",406,351148,"0.0-4.131-1.131","cdmw6et56h7avv1",363,"181.csv","","null","resources/maskTrios/BBA3.jpg","null","",NA,NA,NA,NA,""
"image-keyboard-response",407,352359,"0.0-4.131-2.131","cdmw6et56h7avv1",363,"181.csv","","null","resources/images/coin2.png","null","",NA,NA,NA,NA,""
"image-keyboard-response",408,352621,"0.0-4.132-0.132","cdmw6et56h7avv1",363,"181.csv","","262","resources/trios/L4T2A3.jpg","37","restless",0.6,0.6,0.5,0.20652448713795,"true"
"image-keyboard-response",409,353031,"0.0-4.132-1.132","cdmw6et56h7avv1",363,"181.csv","","null","resources/maskTrios/L4BB.jpg","null","",NA,NA,NA,NA,""
"image-keyboard-response",410,354244,"0.0-4.132-2.132","cdmw6et56h7avv1",363,"181.csv","","null","resources/images/coin2.png","null","",NA,NA,NA,NA,""
"image-keyboard-response",411,354680,"0.0-4.133-0.133","cdmw6et56h7avv1",363,"181.csv","","435.2000000476837","resources/trios/L4T2A3.jpg","38","restless",0.6,0.6,0.5,0.0504147987434842,"true"
"image-keyboard-response",412,355087,"0.0-4.133-1.133","cdmw6et56h7avv1",363,"181.csv","","null","resources/maskTrios/BT2B.jpg","null","",NA,NA,NA,NA,""
"image-keyboard-response",413,356304,"0.0-4.133-2.133","cdmw6et56h7avv1",363,"181.csv","","null","resources/images/coin2.png","null","",NA,NA,NA,NA,""
"image-keyboard-response",414,357393,"0.0-4.134-0.134","cdmw6et56h7avv1",363,"181.csv","","1089.2000000476837","resources/trios/L4T2A3.jpg","37","restless",0.6,0.6,0.5,0.153194117047655,"true"
"image-keyboard-response",415,357807,"0.0-4.134-1.134","cdmw6et56h7avv1",363,"181.csv","","null","resources/maskTrios/L4BB.jpg","null","",NA,NA,NA,NA,""
"image-keyboard-response",416,359023,"0.0-4.134-2.134","cdmw6et56h7avv1",363,"181.csv","","null","resources/images/coin2.png","null","",NA,NA,NA,NA,""
"image-keyboard-response",417,359354,"0.0-4.135-0.135","cdmw6et56h7avv1",363,"181.csv","","330.2000000476837","resources/trios/L4T2A3.jpg","39","restless",0.6,0.6,0.4,0.596171919467871,"false"
"image-keyboard-response",418,359762,"0.0-4.135-1.135","cdmw6et56h7avv1",363,"181.csv","","null","resources/maskTrios/BBA3.jpg","null","",NA,NA,NA,NA,""
"image-keyboard-response",419,360974,"0.0-4.135-2.135","cdmw6et56h7avv1",363,"181.csv","","null","resources/images/fishbone.png","null","",NA,NA,NA,NA,""
"image-keyboard-response",420,361350,"0.0-4.136-0.136","cdmw6et56h7avv1",363,"181.csv","","375.2999999523163","resources/trios/L4T2A3.jpg","38","restless",0.6,0.6,0.4,0.4982817091797,"true"
"image-keyboard-response",421,361760,"0.0-4.136-1.136","cdmw6et56h7avv1",363,"181.csv","","null","resources/maskTrios/BT2B.jpg","null","",NA,NA,NA,NA,""
"image-keyboard-response",422,362963,"0.0-4.136-2.136","cdmw6et56h7avv1",363,"181.csv","","null","resources/images/coin2.png","null","",NA,NA,NA,NA,""
"image-keyboard-response",423,363219,"0.0-4.137-0.137","cdmw6et56h7avv1",363,"181.csv","","254.79999995231628","resources/trios/L4T2A3.jpg","37","restless",0.6,0.6,0.4,0.657203503299789,"false"
"image-keyboard-response",424,363634,"0.0-4.137-1.137","cdmw6et56h7avv1",363,"181.csv","","null","resources/maskTrios/L4BB.jpg","null","",NA,NA,NA,NA,""
"image-keyboard-response",425,364838,"0.0-4.137-2.137","cdmw6et56h7avv1",363,"181.csv","","null","resources/images/fishbone.png","null","",NA,NA,NA,NA,""
"image-keyboard-response",426,365116,"0.0-4.138-0.138","cdmw6et56h7avv1",363,"181.csv","","277.5","resources/trios/L4T2A3.jpg","38","restless",0.6,0.6,0.4,0.296297909502393,"true"
"image-keyboard-response",427,365525,"0.0-4.138-1.138","cdmw6et56h7avv1",363,"181.csv","","null","resources/maskTrios/BT2B.jpg","null","",NA,NA,NA,NA,""
"image-keyboard-response",428,366742,"0.0-4.138-2.138","cdmw6et56h7avv1",363,"181.csv","","null","resources/images/coin2.png","null","",NA,NA,NA,NA,""
"image-keyboard-response",429,367595,"0.0-4.139-0.139","cdmw6et56h7avv1",363,"181.csv","","852.4000000953674","resources/trios/L4T2A3.jpg","39","restless",0.6,0.6,0.3,0.619146154478348,"false"
"image-keyboard-response",430,368009,"0.0-4.139-1.139","cdmw6et56h7avv1",363,"181.csv","","null","resources/maskTrios/BBA3.jpg","null","",NA,NA,NA,NA,""
"image-keyboard-response",431,369213,"0.0-4.139-2.139","cdmw6et56h7avv1",363,"181.csv","","null","resources/images/fishbone.png","null","",NA,NA,NA,NA,""
"image-keyboard-response",432,369253,"0.0-4.140-0.140","cdmw6et56h7avv1",363,"181.csv","","39.200000047683716","resources/trios/L4T2A3.jpg","38","restless",0.6,0.6,0.3,0.157146745110676,"true"
"image-keyboard-response",433,369667,"0.0-4.140-1.140","cdmw6et56h7avv1",363,"181.csv","","null","resources/maskTrios/BT2B.jpg","null","",NA,NA,NA,NA,""
"image-keyboard-response",434,370869,"0.0-4.140-2.140","cdmw6et56h7avv1",363,"181.csv","","null","resources/images/coin2.png","null","",NA,NA,NA,NA,""
"image-keyboard-response",435,370952,"0.0-4.141-0.141","cdmw6et56h7avv1",363,"181.csv","","82.70000004768372","resources/trios/L4T2A3.jpg","39","restless",0.6,0.6,0.3,0.851213402943996,"false"
"image-keyboard-response",436,371368,"0.0-4.141-1.141","cdmw6et56h7avv1",363,"181.csv","","null","resources/maskTrios/BBA3.jpg","null","",NA,NA,NA,NA,""
"image-keyboard-response",437,372571,"0.0-4.141-2.141","cdmw6et56h7avv1",363,"181.csv","","null","resources/images/fishbone.png","null","",NA,NA,NA,NA,""
"image-keyboard-response",438,372795,"0.0-4.142-0.142","cdmw6et56h7avv1",363,"181.csv","","223.20000004768372","resources/trios/L4T2A3.jpg","37","restless",0.6,0.6,0.3,0.225090951212762,"true"
"image-keyboard-response",439,373211,"0.0-4.142-1.142","cdmw6et56h7avv1",363,"181.csv","","null","resources/maskTrios/L4BB.jpg","null","",NA,NA,NA,NA,""
"image-keyboard-response",440,374417,"0.0-4.142-2.142","cdmw6et56h7avv1",363,"181.csv","","null","resources/images/coin2.png","null","",NA,NA,NA,NA,""
"image-keyboard-response",441,374700,"0.0-4.143-0.143","cdmw6et56h7avv1",363,"181.csv","","281.90000009536743","resources/trios/L4T2A3.jpg","38","restless",0.6,0.6,0.3,0.328583771685197,"true"
"image-keyboard-response",442,375102,"0.0-4.143-1.143","cdmw6et56h7avv1",363,"181.csv","","null","resources/maskTrios/BT2B.jpg","null","",NA,NA,NA,NA,""
"image-keyboard-response",443,376305,"0.0-4.143-2.143","cdmw6et56h7avv1",363,"181.csv","","null","resources/images/coin2.png","null","",NA,NA,NA,NA,""
"image-keyboard-response",444,376556,"0.0-4.144-0.144","cdmw6et56h7avv1",363,"181.csv","","251","resources/trios/L4T2A3.jpg","37","restless",0.6,0.6,0.3,0.924522665941558,"false"
"image-keyboard-response",445,376960,"0.0-4.144-1.144","cdmw6et56h7avv1",363,"181.csv","","null","resources/maskTrios/L4BB.jpg","null","",NA,NA,NA,NA,""
"image-keyboard-response",446,378164,"0.0-4.144-2.144","cdmw6et56h7avv1",363,"181.csv","","null","resources/images/fishbone.png","null","",NA,NA,NA,NA,""
"image-keyboard-response",447,378537,"0.0-4.145-0.145","cdmw6et56h7avv1",363,"181.csv","","372.5","resources/trios/L4T2A3.jpg","38","restless",0.6,0.6,0.3,0.113267850138606,"true"
"image-keyboard-response",448,378945,"0.0-4.145-1.145","cdmw6et56h7avv1",363,"181.csv","","null","resources/maskTrios/BT2B.jpg","null","",NA,NA,NA,NA,""
"image-keyboard-response",449,380149,"0.0-4.145-2.145","cdmw6et56h7avv1",363,"181.csv","","null","resources/images/coin2.png","null","",NA,NA,NA,NA,""
"image-keyboard-response",450,380292,"0.0-4.146-0.146","cdmw6et56h7avv1",363,"181.csv","","142","resources/trios/L4T2A3.jpg","37","restless",0.6,0.6,0.3,0.662687847693464,"false"
"image-keyboard-response",451,380697,"0.0-4.146-1.146","cdmw6et56h7avv1",363,"181.csv","","null","resources/maskTrios/L4BB.jpg","null","",NA,NA,NA,NA,""
"image-keyboard-response",452,381901,"0.0-4.146-2.146","cdmw6et56h7avv1",363,"181.csv","","null","resources/images/fishbone.png","null","",NA,NA,NA,NA,""
"image-keyboard-response",453,381974,"0.0-4.147-0.147","cdmw6et56h7avv1",363,"181.csv","","72.79999995231628","resources/trios/L4T2A3.jpg","39","restless",0.6,0.6,0.4,0.587661353011585,"false"
"image-keyboard-response",454,382387,"0.0-4.147-1.147","cdmw6et56h7avv1",363,"181.csv","","null","resources/maskTrios/BBA3.jpg","null","",NA,NA,NA,NA,""
"image-keyboard-response",455,383588,"0.0-4.147-2.147","cdmw6et56h7avv1",363,"181.csv","","null","resources/images/fishbone.png","null","",NA,NA,NA,NA,""
"image-keyboard-response",456,383871,"0.0-4.148-0.148","cdmw6et56h7avv1",363,"181.csv","","282","resources/trios/L4T2A3.jpg","37","restless",0.6,0.6,0.5,0.186331513735539,"true"
"image-keyboard-response",457,384275,"0.0-4.148-1.148","cdmw6et56h7avv1",363,"181.csv","","null","resources/maskTrios/L4BB.jpg","null","",NA,NA,NA,NA,""
"image-keyboard-response",458,385477,"0.0-4.148-2.148","cdmw6et56h7avv1",363,"181.csv","","null","resources/images/coin2.png","null","",NA,NA,NA,NA,""
"image-keyboard-response",459,385787,"0.0-4.149-0.149","cdmw6et56h7avv1",363,"181.csv","","309.5","resources/trios/L4T2A3.jpg","39","restless",0.6,0.6,0.5,0.15226373376593,"true"
"image-keyboard-response",460,386195,"0.0-4.149-1.149","cdmw6et56h7avv1",363,"181.csv","","null","resources/maskTrios/BBA3.jpg","null","",NA,NA,NA,NA,""
"image-keyboard-response",461,387399,"0.0-4.149-2.149","cdmw6et56h7avv1",363,"181.csv","","null","resources/images/coin2.png","null","",NA,NA,NA,NA,""
"image-keyboard-response",462,387655,"0.0-4.150-0.150","cdmw6et56h7avv1",363,"181.csv","","255.20000004768372","resources/trios/L4T2A3.jpg","38","restless",0.6,0.6,0.5,0.191854232522042,"true"
"image-keyboard-response",463,388071,"0.0-4.150-1.150","cdmw6et56h7avv1",363,"181.csv","","null","resources/maskTrios/BT2B.jpg","null","",NA,NA,NA,NA,""
"image-keyboard-response",464,389274,"0.0-4.150-2.150","cdmw6et56h7avv1",363,"181.csv","","null","resources/images/coin2.png","null","",NA,NA,NA,NA,""
"image-keyboard-response",465,389504,"0.0-4.151-0.151","cdmw6et56h7avv1",363,"181.csv","","229.70000004768372","resources/trios/L4T2A3.jpg","39","restless",0.6,0.6,0.5,0.841355043988214,"false"
"image-keyboard-response",466,389916,"0.0-4.151-1.151","cdmw6et56h7avv1",363,"181.csv","","null","resources/maskTrios/BBA3.jpg","null","",NA,NA,NA,NA,""
"image-keyboard-response",467,391118,"0.0-4.151-2.151","cdmw6et56h7avv1",363,"181.csv","","null","resources/images/fishbone.png","null","",NA,NA,NA,NA,""
"image-keyboard-response",468,391310,"0.0-4.152-0.152","cdmw6et56h7avv1",363,"181.csv","","191.59999990463257","resources/trios/L4T2A3.jpg","37","restless",0.6,0.6,0.5,0.603910388417038,"false"
"image-keyboard-response",469,391712,"0.0-4.152-1.152","cdmw6et56h7avv1",363,"181.csv","","null","resources/maskTrios/L4BB.jpg","null","",NA,NA,NA,NA,""
"image-keyboard-response",470,392915,"0.0-4.152-2.152","cdmw6et56h7avv1",363,"181.csv","","null","resources/images/fishbone.png","null","",NA,NA,NA,NA,""
"image-keyboard-response",471,393211,"0.0-4.153-0.153","cdmw6et56h7avv1",363,"181.csv","","295.7000000476837","resources/trios/L4T2A3.jpg","39","restless",0.6,0.6,0.5,0.862014577739604,"false"
"image-keyboard-response",472,393616,"0.0-4.153-1.153","cdmw6et56h7avv1",363,"181.csv","","null","resources/maskTrios/BBA3.jpg","null","",NA,NA,NA,NA,""
"image-keyboard-response",473,394821,"0.0-4.153-2.153","cdmw6et56h7avv1",363,"181.csv","","null","resources/images/fishbone.png","null","",NA,NA,NA,NA,""
"image-keyboard-response",474,395095,"0.0-4.154-0.154","cdmw6et56h7avv1",363,"181.csv","","272.80000019073486","resources/trios/L4T2A3.jpg","38","restless",0.6,0.6,0.5,0.981361600461087,"false"
"image-keyboard-response",475,395509,"0.0-4.154-1.154","cdmw6et56h7avv1",363,"181.csv","","null","resources/maskTrios/BT2B.jpg","null","",NA,NA,NA,NA,""
"image-keyboard-response",476,396712,"0.0-4.154-2.154","cdmw6et56h7avv1",363,"181.csv","","null","resources/images/fishbone.png","null","",NA,NA,NA,NA,""
"image-keyboard-response",477,396902,"0.0-4.155-0.155","cdmw6et56h7avv1",363,"181.csv","","189.79999995231628","resources/trios/L4T2A3.jpg","37","restless",0.6,0.6,0.5,0.322839239185883,"true"
"image-keyboard-response",478,397307,"0.0-4.155-1.155","cdmw6et56h7avv1",363,"181.csv","","null","resources/maskTrios/L4BB.jpg","null","",NA,NA,NA,NA,""
"image-keyboard-response",479,398511,"0.0-4.155-2.155","cdmw6et56h7avv1",363,"181.csv","","null","resources/images/coin2.png","null","",NA,NA,NA,NA,""
"image-keyboard-response",480,398817,"0.0-4.156-0.156","cdmw6et56h7avv1",363,"181.csv","","305.2999999523163","resources/trios/L4T2A3.jpg","39","restless",0.6,0.6,0.5,0.964987630543033,"false"
"image-keyboard-response",481,399228,"0.0-4.156-1.156","cdmw6et56h7avv1",363,"181.csv","","null","resources/maskTrios/BBA3.jpg","null","",NA,NA,NA,NA,""
"image-keyboard-response",482,400430,"0.0-4.156-2.156","cdmw6et56h7avv1",363,"181.csv","","null","resources/images/fishbone.png","null","",NA,NA,NA,NA,""
"image-keyboard-response",483,400723,"0.0-4.157-0.157","cdmw6et56h7avv1",363,"181.csv","","291.7999999523163","resources/trios/L4T2A3.jpg","37","restless",0.6,0.6,0.5,0.695802694875507,"false"
"image-keyboard-response",484,401134,"0.0-4.157-1.157","cdmw6et56h7avv1",363,"181.csv","","null","resources/maskTrios/L4BB.jpg","null","",NA,NA,NA,NA,""
"image-keyboard-response",485,402336,"0.0-4.157-2.157","cdmw6et56h7avv1",363,"181.csv","","null","resources/images/fishbone.png","null","",NA,NA,NA,NA,""
"image-keyboard-response",486,402692,"0.0-4.158-0.158","cdmw6et56h7avv1",363,"181.csv","","355.59999990463257","resources/trios/L4T2A3.jpg","39","restless",0.6,0.6,0.5,0.146881858205762,"true"
"image-keyboard-response",487,403100,"0.0-4.158-1.158","cdmw6et56h7avv1",363,"181.csv","","null","resources/maskTrios/BBA3.jpg","null","",NA,NA,NA,NA,""
"image-keyboard-response",488,404307,"0.0-4.158-2.158","cdmw6et56h7avv1",363,"181.csv","","null","resources/images/coin2.png","null","",NA,NA,NA,NA,""
"image-keyboard-response",489,404414,"0.0-4.159-0.159","cdmw6et56h7avv1",363,"181.csv","","106.20000004768372","resources/trios/L4T2A3.jpg","37","restless",0.7,0.6,0.6,0.963529824229762,"false"
"image-keyboard-response",490,404821,"0.0-4.159-1.159","cdmw6et56h7avv1",363,"181.csv","","null","resources/maskTrios/L4BB.jpg","null","",NA,NA,NA,NA,""
"image-keyboard-response",491,406025,"0.0-4.159-2.159","cdmw6et56h7avv1",363,"181.csv","","null","resources/images/fishbone.png","null","",NA,NA,NA,NA,""
"image-keyboard-response",492,406393,"0.0-4.160-0.160","cdmw6et56h7avv1",363,"181.csv","","366.59999990463257","resources/trios/L4T2A3.jpg","38","restless",0.7,0.6,0.6,0.178183621621896,"true"
"image-keyboard-response",493,406805,"0.0-4.160-1.160","cdmw6et56h7avv1",363,"181.csv","","null","resources/maskTrios/BT2B.jpg","null","",NA,NA,NA,NA,""
"image-keyboard-response",494,408009,"0.0-4.160-2.160","cdmw6et56h7avv1",363,"181.csv","","null","resources/images/coin2.png","null","",NA,NA,NA,NA,""
"image-keyboard-response",495,408232,"0.0-4.161-0.161","cdmw6et56h7avv1",363,"181.csv","","222.09999990463257","resources/trios/L4T2A3.jpg","37","restless",0.7,0.6,0.6,0.140717225264963,"true"
"image-keyboard-response",496,408637,"0.0-4.161-1.161","cdmw6et56h7avv1",363,"181.csv","","null","resources/maskTrios/L4BB.jpg","null","",NA,NA,NA,NA,""
"image-keyboard-response",497,409839,"0.0-4.161-2.161","cdmw6et56h7avv1",363,"181.csv","","null","resources/images/coin2.png","null","",NA,NA,NA,NA,""
"image-keyboard-response",498,410031,"0.0-4.162-0.162","cdmw6et56h7avv1",363,"181.csv","","191.19999980926514","resources/trios/L4T2A3.jpg","38","restless",0.7,0.6,0.6,0.975963549152869,"false"
"image-keyboard-response",499,410433,"0.0-4.162-1.162","cdmw6et56h7avv1",363,"181.csv","","null","resources/maskTrios/BT2B.jpg","null","",NA,NA,NA,NA,""
"image-keyboard-response",500,411636,"0.0-4.162-2.162","cdmw6et56h7avv1",363,"181.csv","","null","resources/images/fishbone.png","null","",NA,NA,NA,NA,""
"image-keyboard-response",501,411878,"0.0-4.163-0.163","cdmw6et56h7avv1",363,"181.csv","","241.29999995231628","resources/trios/L4T2A3.jpg","39","restless",0.7,0.6,0.6,0.436903819841767,"true"
"image-keyboard-response",502,412291,"0.0-4.163-1.163","cdmw6et56h7avv1",363,"181.csv","","null","resources/maskTrios/BBA3.jpg","null","",NA,NA,NA,NA,""
"image-keyboard-response",503,413495,"0.0-4.163-2.163","cdmw6et56h7avv1",363,"181.csv","","null","resources/images/coin2.png","null","",NA,NA,NA,NA,""
"image-keyboard-response",504,413741,"0.0-4.164-0.164","cdmw6et56h7avv1",363,"181.csv","","245.40000009536743","resources/trios/L4T2A3.jpg","38","restless",0.7,0.6,0.6,0.770279077297427,"false"
"image-keyboard-response",505,414150,"0.0-4.164-1.164","cdmw6et56h7avv1",363,"181.csv","","null","resources/maskTrios/BT2B.jpg","null","",NA,NA,NA,NA,""
"image-keyboard-response",506,415366,"0.0-4.164-2.164","cdmw6et56h7avv1",363,"181.csv","","null","resources/images/fishbone.png","null","",NA,NA,NA,NA,""
"image-keyboard-response",507,415523,"0.0-4.165-0.165","cdmw6et56h7avv1",363,"181.csv","","156.09999990463257","resources/trios/L4T2A3.jpg","39","restless",0.7,0.6,0.6,0.244328631650936,"true"
"image-keyboard-response",508,415926,"0.0-4.165-1.165","cdmw6et56h7avv1",363,"181.csv","","null","resources/maskTrios/BBA3.jpg","null","",NA,NA,NA,NA,""
"image-keyboard-response",509,417132,"0.0-4.165-2.165","cdmw6et56h7avv1",363,"181.csv","","null","resources/images/coin2.png","null","",NA,NA,NA,NA,""
"image-keyboard-response",510,417227,"0.0-4.166-0.166","cdmw6et56h7avv1",363,"181.csv","","94.5","resources/trios/L4T2A3.jpg","37","restless",0.7,0.6,0.6,0.471358918330636,"true"
"image-keyboard-response",511,417634,"0.0-4.166-1.166","cdmw6et56h7avv1",363,"181.csv","","null","resources/maskTrios/L4BB.jpg","null","",NA,NA,NA,NA,""
"image-keyboard-response",512,418836,"0.0-4.166-2.166","cdmw6et56h7avv1",363,"181.csv","","null","resources/images/coin2.png","null","",NA,NA,NA,NA,""
"image-keyboard-response",513,418940,"0.0-4.167-0.167","cdmw6et56h7avv1",363,"181.csv","","102.89999985694885","resources/trios/L4T2A3.jpg","39","restless",0.6,0.6,0.6,0.78361585873158,"false"
"image-keyboard-response",514,419350,"0.0-4.167-1.167","cdmw6et56h7avv1",363,"181.csv","","null","resources/maskTrios/BBA3.jpg","null","",NA,NA,NA,NA,""
"image-keyboard-response",515,420558,"0.0-4.167-2.167","cdmw6et56h7avv1",363,"181.csv","","null","resources/images/fishbone.png","null","",NA,NA,NA,NA,""
"image-keyboard-response",516,420616,"0.0-4.168-0.168","cdmw6et56h7avv1",363,"181.csv","","58.09999990463257","resources/trios/L4T2A3.jpg","37","restless",0.6,0.6,0.6,0.602823747505691,"false"
"image-keyboard-response",517,421026,"0.0-4.168-1.168","cdmw6et56h7avv1",363,"181.csv","","null","resources/maskTrios/L4BB.jpg","null","",NA,NA,NA,NA,""
"image-keyboard-response",518,422228,"0.0-4.168-2.168","cdmw6et56h7avv1",363,"181.csv","","null","resources/images/fishbone.png","null","",NA,NA,NA,NA,""
"image-keyboard-response",519,422266,"0.0-4.169-0.169","cdmw6et56h7avv1",363,"181.csv","","36.799999952316284","resources/trios/L4T2A3.jpg","38","restless",0.6,0.6,0.6,0.0105517455809212,"true"
"image-keyboard-response",520,422681,"0.0-4.169-1.169","cdmw6et56h7avv1",363,"181.csv","","null","resources/maskTrios/BT2B.jpg","null","",NA,NA,NA,NA,""
"image-keyboard-response",521,423897,"0.0-4.169-2.169","cdmw6et56h7avv1",363,"181.csv","","null","resources/images/coin2.png","null","",NA,NA,NA,NA,""
"image-keyboard-response",522,423985,"0.0-4.170-0.170","cdmw6et56h7avv1",363,"181.csv","","88.20000004768372","resources/trios/L4T2A3.jpg","37","restless",0.6,0.6,0.6,0.676017527799144,"false"
"image-keyboard-response",523,424395,"0.0-4.170-1.170","cdmw6et56h7avv1",363,"181.csv","","null","resources/maskTrios/L4BB.jpg","null","",NA,NA,NA,NA,""
"image-keyboard-response",524,425599,"0.0-4.170-2.170","cdmw6et56h7avv1",363,"181.csv","","null","resources/images/fishbone.png","null","",NA,NA,NA,NA,""
"image-keyboard-response",525,425764,"0.0-4.171-0.171","cdmw6et56h7avv1",363,"181.csv","","164.70000004768372","resources/trios/L4T2A3.jpg","39","restless",0.6,0.6,0.6,0.534736823161749,"true"
"image-keyboard-response",526,426180,"0.0-4.171-1.171","cdmw6et56h7avv1",363,"181.csv","","null","resources/maskTrios/BBA3.jpg","null","",NA,NA,NA,NA,""
"image-keyboard-response",527,427385,"0.0-4.171-2.171","cdmw6et56h7avv1",363,"181.csv","","null","resources/images/coin2.png","null","",NA,NA,NA,NA,""
"image-keyboard-response",528,428246,"0.0-4.172-0.172","cdmw6et56h7avv1",363,"181.csv","","859.7999999523163","resources/trios/L4T2A3.jpg","37","restless",0.6,0.6,0.6,0.51276227948162,"true"
"image-keyboard-response",529,428650,"0.0-4.172-1.172","cdmw6et56h7avv1",363,"181.csv","","null","resources/maskTrios/L4BB.jpg","null","",NA,NA,NA,NA,""
"image-keyboard-response",530,429853,"0.0-4.172-2.172","cdmw6et56h7avv1",363,"181.csv","","null","resources/images/coin2.png","null","",NA,NA,NA,NA,""
"image-keyboard-response",531,430266,"0.0-4.173-0.173","cdmw6et56h7avv1",363,"181.csv","","412.7999999523163","resources/trios/L4T2A3.jpg","39","restless",0.6,0.6,0.6,0.513035121516308,"true"
"image-keyboard-response",532,430667,"0.0-4.173-1.173","cdmw6et56h7avv1",363,"181.csv","","null","resources/maskTrios/BBA3.jpg","null","",NA,NA,NA,NA,""
"image-keyboard-response",533,431869,"0.0-4.173-2.173","cdmw6et56h7avv1",363,"181.csv","","null","resources/images/coin2.png","null","",NA,NA,NA,NA,""
"image-keyboard-response",534,432173,"0.0-4.174-0.174","cdmw6et56h7avv1",363,"181.csv","","303.2000000476837","resources/trios/L4T2A3.jpg","38","restless",0.6,0.6,0.6,0.892042117250354,"false"
"image-keyboard-response",535,432588,"0.0-4.174-1.174","cdmw6et56h7avv1",363,"181.csv","","null","resources/maskTrios/BT2B.jpg","null","",NA,NA,NA,NA,""
"image-keyboard-response",536,433790,"0.0-4.174-2.174","cdmw6et56h7avv1",363,"181.csv","","null","resources/images/fishbone.png","null","",NA,NA,NA,NA,""
"image-keyboard-response",537,434014,"0.0-4.175-0.175","cdmw6et56h7avv1",363,"181.csv","","222.89999985694885","resources/trios/L4T2A3.jpg","39","restless",0.6,0.5,0.6,0.590219861891138,"true"
"image-keyboard-response",538,434416,"0.0-4.175-1.175","cdmw6et56h7avv1",363,"181.csv","","null","resources/maskTrios/BBA3.jpg","null","",NA,NA,NA,NA,""
"image-keyboard-response",539,435619,"0.0-4.175-2.175","cdmw6et56h7avv1",363,"181.csv","","null","resources/images/coin2.png","null","",NA,NA,NA,NA,""
"image-keyboard-response",540,435900,"0.0-4.176-0.176","cdmw6et56h7avv1",363,"181.csv","","280.10000014305115","resources/trios/L4T2A3.jpg","37","restless",0.6,0.5,0.6,0.780197872515814,"false"
"image-keyboard-response",541,436307,"0.0-4.176-1.176","cdmw6et56h7avv1",363,"181.csv","","null","resources/maskTrios/L4BB.jpg","null","",NA,NA,NA,NA,""
"image-keyboard-response",542,437510,"0.0-4.176-2.176","cdmw6et56h7avv1",363,"181.csv","","null","resources/images/fishbone.png","null","",NA,NA,NA,NA,""
"image-keyboard-response",543,437794,"0.0-4.177-0.177","cdmw6et56h7avv1",363,"181.csv","","283.40000009536743","resources/trios/L4T2A3.jpg","39","restless",0.6,0.5,0.6,0.322704135447526,"true"
"image-keyboard-response",544,438195,"0.0-4.177-1.177","cdmw6et56h7avv1",363,"181.csv","","null","resources/maskTrios/BBA3.jpg","null","",NA,NA,NA,NA,""
"image-keyboard-response",545,439399,"0.0-4.177-2.177","cdmw6et56h7avv1",363,"181.csv","","null","resources/images/coin2.png","null","",NA,NA,NA,NA,""
"image-keyboard-response",546,439820,"0.0-4.178-0.178","cdmw6et56h7avv1",363,"181.csv","","419.89999985694885","resources/trios/L4T2A3.jpg","39","restless",0.6,0.5,0.6,0.113088718636421,"true"
"image-keyboard-response",547,440233,"0.0-4.178-1.178","cdmw6et56h7avv1",363,"181.csv","","null","resources/maskTrios/BBA3.jpg","null","",NA,NA,NA,NA,""
"image-keyboard-response",548,441434,"0.0-4.178-2.178","cdmw6et56h7avv1",363,"181.csv","","null","resources/images/coin2.png","null","",NA,NA,NA,NA,""
"image-keyboard-response",549,441899,"0.0-4.179-0.179","cdmw6et56h7avv1",363,"181.csv","","464.5","resources/trios/L4T2A3.jpg","39","restless",0.6,0.5,0.6,0.678499446800107,"false"
"image-keyboard-response",550,442306,"0.0-4.179-1.179","cdmw6et56h7avv1",363,"181.csv","","null","resources/maskTrios/BBA3.jpg","null","",NA,NA,NA,NA,""
"image-keyboard-response",551,443511,"0.0-4.179-2.179","cdmw6et56h7avv1",363,"181.csv","","null","resources/images/fishbone.png","null","",NA,NA,NA,NA,""
"image-keyboard-response",552,443794,"0.0-4.180-0.180","cdmw6et56h7avv1",363,"181.csv","","282.2000000476837","resources/trios/L4T2A3.jpg","38","restless",0.6,0.5,0.6,0.0990580051032717,"true"
"image-keyboard-response",553,444197,"0.0-4.180-1.180","cdmw6et56h7avv1",363,"181.csv","","null","resources/maskTrios/BT2B.jpg","null","",NA,NA,NA,NA,""
"image-keyboard-response",554,445399,"0.0-4.180-2.180","cdmw6et56h7avv1",363,"181.csv","","null","resources/images/coin2.png","null","",NA,NA,NA,NA,""
"image-keyboard-response",555,445726,"0.0-4.181-0.181","cdmw6et56h7avv1",363,"181.csv","","325.39999985694885","resources/trios/L4T2A3.jpg","37","restless",0.6,0.5,0.6,0.977617143202728,"false"
"image-keyboard-response",556,446136,"0.0-4.181-1.181","cdmw6et56h7avv1",363,"181.csv","","null","resources/maskTrios/L4BB.jpg","null","",NA,NA,NA,NA,""
"image-keyboard-response",557,447337,"0.0-4.181-2.181","cdmw6et56h7avv1",363,"181.csv","","null","resources/images/fishbone.png","null","",NA,NA,NA,NA,""
"image-keyboard-response",558,447516,"0.0-4.182-0.182","cdmw6et56h7avv1",363,"181.csv","","178.29999995231628","resources/trios/L4T2A3.jpg","39","restless",0.5,0.4,0.6,0.347454242548402,"true"
"image-keyboard-response",559,447929,"0.0-4.182-1.182","cdmw6et56h7avv1",363,"181.csv","","null","resources/maskTrios/BBA3.jpg","null","",NA,NA,NA,NA,""
"image-keyboard-response",560,449132,"0.0-4.182-2.182","cdmw6et56h7avv1",363,"181.csv","","null","resources/images/coin2.png","null","",NA,NA,NA,NA,""
"image-keyboard-response",561,450176,"0.0-4.183-0.183","cdmw6et56h7avv1",363,"181.csv","","1043.8999998569489","resources/trios/L4T2A3.jpg","37","restless",0.6,0.4,0.6,0.262738506724013,"true"
"image-keyboard-response",562,450585,"0.0-4.183-1.183","cdmw6et56h7avv1",363,"181.csv","","null","resources/maskTrios/L4BB.jpg","null","",NA,NA,NA,NA,""
"image-keyboard-response",563,451800,"0.0-4.183-2.183","cdmw6et56h7avv1",363,"181.csv","","null","resources/images/coin2.png","null","",NA,NA,NA,NA,""
"image-keyboard-response",564,452274,"0.0-4.184-0.184","cdmw6et56h7avv1",363,"181.csv","","473.30000019073486","resources/trios/L4T2A3.jpg","38","restless",0.6,0.4,0.6,0.396746823398372,"true"
"image-keyboard-response",565,452676,"0.0-4.184-1.184","cdmw6et56h7avv1",363,"181.csv","","null","resources/maskTrios/BT2B.jpg","null","",NA,NA,NA,NA,""
"image-keyboard-response",566,453879,"0.0-4.184-2.184","cdmw6et56h7avv1",363,"181.csv","","null","resources/images/coin2.png","null","",NA,NA,NA,NA,""
"image-keyboard-response",567,454328,"0.0-4.185-0.185","cdmw6et56h7avv1",363,"181.csv","","448.5","resources/trios/L4T2A3.jpg","37","restless",0.6,0.4,0.5,0.890694648140337,"false"
"image-keyboard-response",568,454744,"0.0-4.185-1.185","cdmw6et56h7avv1",363,"181.csv","","null","resources/maskTrios/L4BB.jpg","null","",NA,NA,NA,NA,""
"image-keyboard-response",569,455947,"0.0-4.185-2.185","cdmw6et56h7avv1",363,"181.csv","","null","resources/images/fishbone.png","null","",NA,NA,NA,NA,""
"image-keyboard-response",570,456354,"0.0-4.186-0.186","cdmw6et56h7avv1",363,"181.csv","","407","resources/trios/L4T2A3.jpg","39","restless",0.7,0.3,0.5,0.0591137048446899,"true"
"image-keyboard-response",571,456758,"0.0-4.186-1.186","cdmw6et56h7avv1",363,"181.csv","","null","resources/maskTrios/BBA3.jpg","null","",NA,NA,NA,NA,""
"image-keyboard-response",572,457974,"0.0-4.186-2.186","cdmw6et56h7avv1",363,"181.csv","","null","resources/images/coin2.png","null","",NA,NA,NA,NA,""
"image-keyboard-response",573,458386,"0.0-4.187-0.187","cdmw6et56h7avv1",363,"181.csv","","410.69999980926514","resources/trios/L4T2A3.jpg","38","restless",0.7,0.3,0.5,0.00483623876420247,"true"
"image-keyboard-response",574,458802,"0.0-4.187-1.187","cdmw6et56h7avv1",363,"181.csv","","null","resources/maskTrios/BT2B.jpg","null","",NA,NA,NA,NA,""
"image-keyboard-response",575,460004,"0.0-4.187-2.187","cdmw6et56h7avv1",363,"181.csv","","null","resources/images/coin2.png","null","",NA,NA,NA,NA,""
"image-keyboard-response",576,460382,"0.0-4.188-0.188","cdmw6et56h7avv1",363,"181.csv","","377.59999990463257","resources/trios/L4T2A3.jpg","39","restless",0.7,0.3,0.5,0.598258035509643,"false"
"image-keyboard-response",577,460787,"0.0-4.188-1.188","cdmw6et56h7avv1",363,"181.csv","","null","resources/maskTrios/BBA3.jpg","null","",NA,NA,NA,NA,""
"image-keyboard-response",578,461991,"0.0-4.188-2.188","cdmw6et56h7avv1",363,"181.csv","","null","resources/images/fishbone.png","null","",NA,NA,NA,NA,""
"image-keyboard-response",579,463020,"0.0-4.189-0.189","cdmw6et56h7avv1",363,"181.csv","","1028.4000000953674","resources/trios/L4T2A3.jpg","37","restless",0.7,0.3,0.5,0.945505386847766,"false"
"image-keyboard-response",580,463432,"0.0-4.189-1.189","cdmw6et56h7avv1",363,"181.csv","","null","resources/maskTrios/L4BB.jpg","null","",NA,NA,NA,NA,""
"image-keyboard-response",581,464634,"0.0-4.189-2.189","cdmw6et56h7avv1",363,"181.csv","","null","resources/images/fishbone.png","null","",NA,NA,NA,NA,""
"image-keyboard-response",582,464914,"0.0-4.190-0.190","cdmw6et56h7avv1",363,"181.csv","","279.59999990463257","resources/trios/L4T2A3.jpg","39","restless",0.7,0.3,0.5,0.769238728502801,"false"
"image-keyboard-response",583,465321,"0.0-4.190-1.190","cdmw6et56h7avv1",363,"181.csv","","null","resources/maskTrios/BBA3.jpg","null","",NA,NA,NA,NA,""
"image-keyboard-response",584,466535,"0.0-4.190-2.190","cdmw6et56h7avv1",363,"181.csv","","null","resources/images/fishbone.png","null","",NA,NA,NA,NA,""
"image-keyboard-response",585,466865,"0.0-4.191-0.191","cdmw6et56h7avv1",363,"181.csv","","329","resources/trios/L4T2A3.jpg","37","restless",0.7,0.3,0.5,0.262433273590295,"true"
"image-keyboard-response",586,467271,"0.0-4.191-1.191","cdmw6et56h7avv1",363,"181.csv","","null","resources/maskTrios/L4BB.jpg","null","",NA,NA,NA,NA,""
"image-keyboard-response",587,468477,"0.0-4.191-2.191","cdmw6et56h7avv1",363,"181.csv","","null","resources/images/coin2.png","null","",NA,NA,NA,NA,""
"image-keyboard-response",588,468701,"0.0-4.192-0.192","cdmw6et56h7avv1",363,"181.csv","","223.29999995231628","resources/trios/L4T2A3.jpg","38","restless",0.7,0.3,0.4,0.760521410453547,"false"
"image-keyboard-response",589,469104,"0.0-4.192-1.192","cdmw6et56h7avv1",363,"181.csv","","null","resources/maskTrios/BT2B.jpg","null","",NA,NA,NA,NA,""
"image-keyboard-response",590,470307,"0.0-4.192-2.192","cdmw6et56h7avv1",363,"181.csv","","null","resources/images/fishbone.png","null","",NA,NA,NA,NA,""
"image-keyboard-response",591,470577,"0.0-4.193-0.193","cdmw6et56h7avv1",363,"181.csv","","268.5","resources/trios/L4T2A3.jpg","39","restless",0.7,0.3,0.4,0.718390203315912,"false"
"image-keyboard-response",592,470979,"0.0-4.193-1.193","cdmw6et56h7avv1",363,"181.csv","","null","resources/maskTrios/BBA3.jpg","null","",NA,NA,NA,NA,""
"image-keyboard-response",593,472181,"0.0-4.193-2.193","cdmw6et56h7avv1",363,"181.csv","","null","resources/images/fishbone.png","null","",NA,NA,NA,NA,""
"image-keyboard-response",594,472237,"0.0-4.194-0.194","cdmw6et56h7avv1",363,"181.csv","","55.700000047683716","resources/trios/L4T2A3.jpg","37","restless",0.7,0.3,0.4,0.882121343657853,"false"
"image-keyboard-response",595,472650,"0.0-4.194-1.194","cdmw6et56h7avv1",363,"181.csv","","null","resources/maskTrios/L4BB.jpg","null","",NA,NA,NA,NA,""
"image-keyboard-response",596,473855,"0.0-4.194-2.194","cdmw6et56h7avv1",363,"181.csv","","null","resources/images/fishbone.png","null","",NA,NA,NA,NA,""
"image-keyboard-response",597,474103,"0.0-4.195-0.195","cdmw6et56h7avv1",363,"181.csv","","248","resources/trios/L4T2A3.jpg","38","restless",0.7,0.3,0.4,0.856245152672135,"false"
"image-keyboard-response",598,474511,"0.0-4.195-1.195","cdmw6et56h7avv1",363,"181.csv","","null","resources/maskTrios/BT2B.jpg","null","",NA,NA,NA,NA,""
"image-keyboard-response",599,475725,"0.0-4.195-2.195","cdmw6et56h7avv1",363,"181.csv","","null","resources/images/fishbone.png","null","",NA,NA,NA,NA,""
"image-keyboard-response",600,475922,"0.0-4.196-0.196","cdmw6et56h7avv1",363,"181.csv","","196.30000019073486","resources/trios/L4T2A3.jpg","37","restless",0.7,0.3,0.4,0.562633648585456,"true"
"image-keyboard-response",601,476338,"0.0-4.196-1.196","cdmw6et56h7avv1",363,"181.csv","","null","resources/maskTrios/L4BB.jpg","null","",NA,NA,NA,NA,""
"image-keyboard-response",602,477554,"0.0-4.196-2.196","cdmw6et56h7avv1",363,"181.csv","","null","resources/images/coin2.png","null","",NA,NA,NA,NA,""
"image-keyboard-response",603,477795,"0.0-4.197-0.197","cdmw6et56h7avv1",363,"181.csv","","239.79999995231628","resources/trios/L4T2A3.jpg","39","restless",0.7,0.3,0.4,0.730886950695122,"false"
"image-keyboard-response",604,478198,"0.0-4.197-1.197","cdmw6et56h7avv1",363,"181.csv","","null","resources/maskTrios/BBA3.jpg","null","",NA,NA,NA,NA,""
"image-keyboard-response",605,479401,"0.0-4.197-2.197","cdmw6et56h7avv1",363,"181.csv","","null","resources/images/fishbone.png","null","",NA,NA,NA,NA,""
"image-keyboard-response",606,479750,"0.0-4.198-0.198","cdmw6et56h7avv1",363,"181.csv","","348.30000019073486","resources/trios/L4T2A3.jpg","37","restless",0.7,0.3,0.4,0.826079606606654,"false"
"image-keyboard-response",607,480166,"0.0-4.198-1.198","cdmw6et56h7avv1",363,"181.csv","","null","resources/maskTrios/L4BB.jpg","null","",NA,NA,NA,NA,""
"image-keyboard-response",608,481370,"0.0-4.198-2.198","cdmw6et56h7avv1",363,"181.csv","","null","resources/images/fishbone.png","null","",NA,NA,NA,NA,""
