"trial_type","trial_index","time_elapsed","internal_node_id","subject","participantCode","walkNumber","success","rt","stimulus","key_press","test_part","leftProb","midProb","rightProb","generatedNum","correct"
"pavlovia",0,907,"0.0-0.0","c3k8ghaur9zoo2h",845,"188.csv","","","","","",NA,NA,NA,NA,""
"fullscreen",1,3552,"0.0-1.0","c3k8ghaur9zoo2h",845,"188.csv","true","","","","",NA,NA,NA,NA,""
"survey-html-form",2,10268,"0.0-2.0","c3k8ghaur9zoo2h",845,"188.csv","","6713.5","","","",NA,NA,NA,NA,""
"image-keyboard-response",3,20970,"0.0-3.0-0.0","c3k8ghaur9zoo2h",845,"188.csv","","10699.600000143051","resources/images/parrot_nobg.png","13","",NA,NA,NA,NA,""
"image-keyboard-response",4,23971,"0.0-3.0-1.0","c3k8ghaur9zoo2h",845,"188.csv","","null","resources/image_sets/111.png","null","",NA,NA,NA,NA,""
"image-keyboard-response",5,27845,"0.0-3.0-2.0","c3k8ghaur9zoo2h",845,"188.csv","","3871.600000143051","resources/image_sets/left_highlight.png","37","",NA,NA,NA,NA,""
"image-keyboard-response",6,29081,"0.0-3.0-3.0","c3k8ghaur9zoo2h",845,"188.csv","","1234.7999999523163","resources/image_sets/mid_highlight.png","38","",NA,NA,NA,NA,""
"image-keyboard-response",7,30247,"0.0-3.0-4.0","c3k8ghaur9zoo2h",845,"188.csv","","1165.0999999046326","resources/image_sets/right_highlight.png","39","",NA,NA,NA,NA,""
"image-keyboard-response",8,35190,"0.0-3.0-5.0","c3k8ghaur9zoo2h",845,"188.csv","","4941.200000047684","resources/image_sets/111.png","13","",NA,NA,NA,NA,""
"image-keyboard-response",9,37146,"0.0-3.0-6.0","c3k8ghaur9zoo2h",845,"188.csv","","1955.3999998569489","resources/images/coin2.png","13","",NA,NA,NA,NA,""
"image-keyboard-response",10,38190,"0.0-3.0-7.0","c3k8ghaur9zoo2h",845,"188.csv","","1043.5","resources/images/fishbone.png","13","",NA,NA,NA,NA,""
"html-keyboard-response",11,40146,"0.0-3.0-8.0","c3k8ghaur9zoo2h",845,"188.csv","","1955.3000001907349","<p>You can track your coin total on the top right of your screen. </p><p>At the end of your journey you will be directed to a survey, so please click on the link before exiting the task</p><p>Press Enter to begin</p>","13","",NA,NA,NA,NA,""
"image-keyboard-response",12,41308,"0.0-4.0-0.0","c3k8ghaur9zoo2h",845,"188.csv","","1161.7999999523163","resources/trios/L4T2A3.jpg","38","restless",0.9,0.7,0.3,0.823043916490036,"false"
"image-keyboard-response",13,41714,"0.0-4.0-1.0","c3k8ghaur9zoo2h",845,"188.csv","","null","resources/maskTrios/BT2B.jpg","null","",NA,NA,NA,NA,""
"image-keyboard-response",14,42921,"0.0-4.0-2.0","c3k8ghaur9zoo2h",845,"188.csv","","null","resources/images/fishbone.png","null","",NA,NA,NA,NA,""
"image-keyboard-response",15,43972,"0.0-4.1-0.1","c3k8ghaur9zoo2h",845,"188.csv","","1049.6000001430511","resources/trios/L4T2A3.jpg","37","restless",0.9,0.7,0.3,0.214020759201212,"true"
"image-keyboard-response",16,44376,"0.0-4.1-1.1","c3k8ghaur9zoo2h",845,"188.csv","","null","resources/maskTrios/L4BB.jpg","null","",NA,NA,NA,NA,""
"image-keyboard-response",17,45582,"0.0-4.1-2.1","c3k8ghaur9zoo2h",845,"188.csv","","null","resources/images/coin2.png","null","",NA,NA,NA,NA,""
"image-keyboard-response",18,46760,"0.0-4.2-0.2","c3k8ghaur9zoo2h",845,"188.csv","","1175.5","resources/trios/L4T2A3.jpg","39","restless",0.9,0.7,0.3,0.491739079778183,"false"
"image-keyboard-response",19,47174,"0.0-4.2-1.2","c3k8ghaur9zoo2h",845,"188.csv","","null","resources/maskTrios/BBA3.jpg","null","",NA,NA,NA,NA,""
"image-keyboard-response",20,48382,"0.0-4.2-2.2","c3k8ghaur9zoo2h",845,"188.csv","","null","resources/images/fishbone.png","null","",NA,NA,NA,NA,""
"image-keyboard-response",21,49028,"0.0-4.3-0.3","c3k8ghaur9zoo2h",845,"188.csv","","644.3999998569489","resources/trios/L4T2A3.jpg","38","restless",0.9,0.7,0.3,0.476505351737609,"true"
"image-keyboard-response",22,49444,"0.0-4.3-1.3","c3k8ghaur9zoo2h",845,"188.csv","","null","resources/maskTrios/BT2B.jpg","null","",NA,NA,NA,NA,""
"image-keyboard-response",23,50651,"0.0-4.3-2.3","c3k8ghaur9zoo2h",845,"188.csv","","null","resources/images/coin2.png","null","",NA,NA,NA,NA,""
"image-keyboard-response",24,50941,"0.0-4.4-0.4","c3k8ghaur9zoo2h",845,"188.csv","","288.09999990463257","resources/trios/L4T2A3.jpg","39","restless",0.9,0.7,0.3,0.299711213792247,"true"
"image-keyboard-response",25,51353,"0.0-4.4-1.4","c3k8ghaur9zoo2h",845,"188.csv","","null","resources/maskTrios/BBA3.jpg","null","",NA,NA,NA,NA,""
"image-keyboard-response",26,52572,"0.0-4.4-2.4","c3k8ghaur9zoo2h",845,"188.csv","","null","resources/images/coin2.png","null","",NA,NA,NA,NA,""
"image-keyboard-response",27,52828,"0.0-4.5-0.5","c3k8ghaur9zoo2h",845,"188.csv","","255.39999985694885","resources/trios/L4T2A3.jpg","37","restless",0.9,0.7,0.3,0.489198659519621,"true"
"image-keyboard-response",28,53234,"0.0-4.5-1.5","c3k8ghaur9zoo2h",845,"188.csv","","null","resources/maskTrios/L4BB.jpg","null","",NA,NA,NA,NA,""
"image-keyboard-response",29,54449,"0.0-4.5-2.5","c3k8ghaur9zoo2h",845,"188.csv","","null","resources/images/coin2.png","null","",NA,NA,NA,NA,""
"image-keyboard-response",30,54775,"0.0-4.6-0.6","c3k8ghaur9zoo2h",845,"188.csv","","324.09999990463257","resources/trios/L4T2A3.jpg","38","restless",0.9,0.7,0.2,0.982540826474032,"false"
"image-keyboard-response",31,55177,"0.0-4.6-1.6","c3k8ghaur9zoo2h",845,"188.csv","","null","resources/maskTrios/BT2B.jpg","null","",NA,NA,NA,NA,""
"image-keyboard-response",32,56385,"0.0-4.6-2.6","c3k8ghaur9zoo2h",845,"188.csv","","null","resources/images/fishbone.png","null","",NA,NA,NA,NA,""
"image-keyboard-response",33,56524,"0.0-4.7-0.7","c3k8ghaur9zoo2h",845,"188.csv","","138.10000014305115","resources/trios/L4T2A3.jpg","39","restless",0.9,0.7,0.2,0.692169357142439,"false"
"image-keyboard-response",34,56934,"0.0-4.7-1.7","c3k8ghaur9zoo2h",845,"188.csv","","null","resources/maskTrios/BBA3.jpg","null","",NA,NA,NA,NA,""
"image-keyboard-response",35,58145,"0.0-4.7-2.7","c3k8ghaur9zoo2h",845,"188.csv","","null","resources/images/fishbone.png","null","",NA,NA,NA,NA,""
"image-keyboard-response",36,58672,"0.0-4.8-0.8","c3k8ghaur9zoo2h",845,"188.csv","","526.2999999523163","resources/trios/L4T2A3.jpg","37","restless",0.9,0.7,0.2,0.442146432760509,"true"
"image-keyboard-response",37,59089,"0.0-4.8-1.8","c3k8ghaur9zoo2h",845,"188.csv","","null","resources/maskTrios/L4BB.jpg","null","",NA,NA,NA,NA,""
"image-keyboard-response",38,60298,"0.0-4.8-2.8","c3k8ghaur9zoo2h",845,"188.csv","","null","resources/images/coin2.png","null","",NA,NA,NA,NA,""
"image-keyboard-response",39,60869,"0.0-4.9-0.9","c3k8ghaur9zoo2h",845,"188.csv","","569.4000000953674","resources/trios/L4T2A3.jpg","37","restless",0.9,0.7,0.2,0.0646478513869952,"true"
"image-keyboard-response",40,61283,"0.0-4.9-1.9","c3k8ghaur9zoo2h",845,"188.csv","","null","resources/maskTrios/L4BB.jpg","null","",NA,NA,NA,NA,""
"image-keyboard-response",41,62500,"0.0-4.9-2.9","c3k8ghaur9zoo2h",845,"188.csv","","null","resources/images/coin2.png","null","",NA,NA,NA,NA,""
"image-keyboard-response",42,62840,"0.0-4.10-0.10","c3k8ghaur9zoo2h",845,"188.csv","","339.09999990463257","resources/trios/L4T2A3.jpg","37","restless",0.9,0.7,0.2,0.413172789741936,"true"
"image-keyboard-response",43,63254,"0.0-4.10-1.10","c3k8ghaur9zoo2h",845,"188.csv","","null","resources/maskTrios/L4BB.jpg","null","",NA,NA,NA,NA,""
"image-keyboard-response",44,64457,"0.0-4.10-2.10","c3k8ghaur9zoo2h",845,"188.csv","","null","resources/images/coin2.png","null","",NA,NA,NA,NA,""
"image-keyboard-response",45,64728,"0.0-4.11-0.11","c3k8ghaur9zoo2h",845,"188.csv","","269","resources/trios/L4T2A3.jpg","37","restless",0.9,0.7,0.2,0.417088284970863,"true"
"image-keyboard-response",46,65130,"0.0-4.11-1.11","c3k8ghaur9zoo2h",845,"188.csv","","null","resources/maskTrios/L4BB.jpg","null","",NA,NA,NA,NA,""
"image-keyboard-response",47,66342,"0.0-4.11-2.11","c3k8ghaur9zoo2h",845,"188.csv","","null","resources/images/coin2.png","null","",NA,NA,NA,NA,""
"image-keyboard-response",48,66781,"0.0-4.12-0.12","c3k8ghaur9zoo2h",845,"188.csv","","437.5","resources/trios/L4T2A3.jpg","37","restless",0.9,0.7,0.2,0.497691291370087,"true"
"image-keyboard-response",49,67185,"0.0-4.12-1.12","c3k8ghaur9zoo2h",845,"188.csv","","null","resources/maskTrios/L4BB.jpg","null","",NA,NA,NA,NA,""
"image-keyboard-response",50,68400,"0.0-4.12-2.12","c3k8ghaur9zoo2h",845,"188.csv","","null","resources/images/coin2.png","null","",NA,NA,NA,NA,""
"image-keyboard-response",51,68931,"0.0-4.13-0.13","c3k8ghaur9zoo2h",845,"188.csv","","529.2999999523163","resources/trios/L4T2A3.jpg","37","restless",0.9,0.7,0.3,0.0129811567688829,"true"
"image-keyboard-response",52,69348,"0.0-4.13-1.13","c3k8ghaur9zoo2h",845,"188.csv","","null","resources/maskTrios/L4BB.jpg","null","",NA,NA,NA,NA,""
"image-keyboard-response",53,70554,"0.0-4.13-2.13","c3k8ghaur9zoo2h",845,"188.csv","","null","resources/images/coin2.png","null","",NA,NA,NA,NA,""
"image-keyboard-response",54,70877,"0.0-4.14-0.14","c3k8ghaur9zoo2h",845,"188.csv","","321.09999990463257","resources/trios/L4T2A3.jpg","37","restless",0.9,0.8,0.3,0.61545931369988,"true"
"image-keyboard-response",55,71290,"0.0-4.14-1.14","c3k8ghaur9zoo2h",845,"188.csv","","null","resources/maskTrios/L4BB.jpg","null","",NA,NA,NA,NA,""
"image-keyboard-response",56,72499,"0.0-4.14-2.14","c3k8ghaur9zoo2h",845,"188.csv","","null","resources/images/coin2.png","null","",NA,NA,NA,NA,""
"image-keyboard-response",57,75082,"0.0-4.15-0.15","c3k8ghaur9zoo2h",845,"188.csv","","2580.5999999046326","resources/trios/L4T2A3.jpg","37","restless",0.9,0.8,0.3,0.975369136100918,"false"
"image-keyboard-response",58,75486,"0.0-4.15-1.15","c3k8ghaur9zoo2h",845,"188.csv","","null","resources/maskTrios/L4BB.jpg","null","",NA,NA,NA,NA,""
"image-keyboard-response",59,76689,"0.0-4.15-2.15","c3k8ghaur9zoo2h",845,"188.csv","","null","resources/images/fishbone.png","null","",NA,NA,NA,NA,""
"image-keyboard-response",60,77592,"0.0-4.16-0.16","c3k8ghaur9zoo2h",845,"188.csv","","902.2000000476837","resources/trios/L4T2A3.jpg","38","restless",0.9,0.8,0.4,0.563520612423942,"true"
"image-keyboard-response",61,78002,"0.0-4.16-1.16","c3k8ghaur9zoo2h",845,"188.csv","","null","resources/maskTrios/BT2B.jpg","null","",NA,NA,NA,NA,""
"image-keyboard-response",62,79204,"0.0-4.16-2.16","c3k8ghaur9zoo2h",845,"188.csv","","null","resources/images/coin2.png","null","",NA,NA,NA,NA,""
"image-keyboard-response",63,79476,"0.0-4.17-0.17","c3k8ghaur9zoo2h",845,"188.csv","","270.09999990463257","resources/trios/L4T2A3.jpg","38","restless",0.9,0.8,0.4,0.388976702580081,"true"
"image-keyboard-response",64,79892,"0.0-4.17-1.17","c3k8ghaur9zoo2h",845,"188.csv","","null","resources/maskTrios/BT2B.jpg","null","",NA,NA,NA,NA,""
"image-keyboard-response",65,81108,"0.0-4.17-2.17","c3k8ghaur9zoo2h",845,"188.csv","","null","resources/images/coin2.png","null","",NA,NA,NA,NA,""
"image-keyboard-response",66,81428,"0.0-4.18-0.18","c3k8ghaur9zoo2h",845,"188.csv","","318.10000014305115","resources/trios/L4T2A3.jpg","38","restless",0.9,0.8,0.4,0.673575939650224,"true"
"image-keyboard-response",67,81842,"0.0-4.18-1.18","c3k8ghaur9zoo2h",845,"188.csv","","null","resources/maskTrios/BT2B.jpg","null","",NA,NA,NA,NA,""
"image-keyboard-response",68,83052,"0.0-4.18-2.18","c3k8ghaur9zoo2h",845,"188.csv","","null","resources/images/coin2.png","null","",NA,NA,NA,NA,""
"image-keyboard-response",69,83745,"0.0-4.19-0.19","c3k8ghaur9zoo2h",845,"188.csv","","690.5999999046326","resources/trios/L4T2A3.jpg","38","restless",0.9,0.8,0.4,0.8734858371094,"false"
"image-keyboard-response",70,84149,"0.0-4.19-1.19","c3k8ghaur9zoo2h",845,"188.csv","","null","resources/maskTrios/BT2B.jpg","null","",NA,NA,NA,NA,""
"image-keyboard-response",71,85360,"0.0-4.19-2.19","c3k8ghaur9zoo2h",845,"188.csv","","null","resources/images/fishbone.png","null","",NA,NA,NA,NA,""
"image-keyboard-response",72,85737,"0.0-4.20-0.20","c3k8ghaur9zoo2h",845,"188.csv","","374.90000009536743","resources/trios/L4T2A3.jpg","39","restless",0.8,0.8,0.4,0.575747828526012,"false"
"image-keyboard-response",73,86143,"0.0-4.20-1.20","c3k8ghaur9zoo2h",845,"188.csv","","null","resources/maskTrios/BBA3.jpg","null","",NA,NA,NA,NA,""
"image-keyboard-response",74,87354,"0.0-4.20-2.20","c3k8ghaur9zoo2h",845,"188.csv","","null","resources/images/fishbone.png","null","",NA,NA,NA,NA,""
"image-keyboard-response",75,87604,"0.0-4.21-0.21","c3k8ghaur9zoo2h",845,"188.csv","","247.90000009536743","resources/trios/L4T2A3.jpg","37","restless",0.8,0.8,0.4,0.485336915949699,"true"
"image-keyboard-response",76,88012,"0.0-4.21-1.21","c3k8ghaur9zoo2h",845,"188.csv","","null","resources/maskTrios/L4BB.jpg","null","",NA,NA,NA,NA,""
"image-keyboard-response",77,89217,"0.0-4.21-2.21","c3k8ghaur9zoo2h",845,"188.csv","","null","resources/images/coin2.png","null","",NA,NA,NA,NA,""
"image-keyboard-response",78,89484,"0.0-4.22-0.22","c3k8ghaur9zoo2h",845,"188.csv","","265.59999990463257","resources/trios/L4T2A3.jpg","37","restless",0.8,0.8,0.4,0.341901156125854,"true"
"image-keyboard-response",79,89891,"0.0-4.22-1.22","c3k8ghaur9zoo2h",845,"188.csv","","null","resources/maskTrios/L4BB.jpg","null","",NA,NA,NA,NA,""
"image-keyboard-response",80,91094,"0.0-4.22-2.22","c3k8ghaur9zoo2h",845,"188.csv","","null","resources/images/coin2.png","null","",NA,NA,NA,NA,""
"image-keyboard-response",81,91375,"0.0-4.23-0.23","c3k8ghaur9zoo2h",845,"188.csv","","279.7000000476837","resources/trios/L4T2A3.jpg","37","restless",0.8,0.8,0.4,0.416767650208222,"true"
"image-keyboard-response",82,91781,"0.0-4.23-1.23","c3k8ghaur9zoo2h",845,"188.csv","","null","resources/maskTrios/L4BB.jpg","null","",NA,NA,NA,NA,""
"image-keyboard-response",83,92994,"0.0-4.23-2.23","c3k8ghaur9zoo2h",845,"188.csv","","null","resources/images/coin2.png","null","",NA,NA,NA,NA,""
"image-keyboard-response",84,93196,"0.0-4.24-0.24","c3k8ghaur9zoo2h",845,"188.csv","","200.5","resources/trios/L4T2A3.jpg","37","restless",0.8,0.8,0.4,0.441594038402672,"true"
"image-keyboard-response",85,93608,"0.0-4.24-1.24","c3k8ghaur9zoo2h",845,"188.csv","","null","resources/maskTrios/L4BB.jpg","null","",NA,NA,NA,NA,""
"image-keyboard-response",86,94815,"0.0-4.24-2.24","c3k8ghaur9zoo2h",845,"188.csv","","null","resources/images/coin2.png","null","",NA,NA,NA,NA,""
"image-keyboard-response",87,95172,"0.0-4.25-0.25","c3k8ghaur9zoo2h",845,"188.csv","","355.7000000476837","resources/trios/L4T2A3.jpg","37","restless",0.8,0.8,0.5,0.0287713750757026,"true"
"image-keyboard-response",88,95583,"0.0-4.25-1.25","c3k8ghaur9zoo2h",845,"188.csv","","null","resources/maskTrios/L4BB.jpg","null","",NA,NA,NA,NA,""
"image-keyboard-response",89,96797,"0.0-4.25-2.25","c3k8ghaur9zoo2h",845,"188.csv","","null","resources/images/coin2.png","null","",NA,NA,NA,NA,""
"image-keyboard-response",90,97005,"0.0-4.26-0.26","c3k8ghaur9zoo2h",845,"188.csv","","205.79999995231628","resources/trios/L4T2A3.jpg","37","restless",0.8,0.8,0.5,0.589464162793206,"true"
"image-keyboard-response",91,97409,"0.0-4.26-1.26","c3k8ghaur9zoo2h",845,"188.csv","","null","resources/maskTrios/L4BB.jpg","null","",NA,NA,NA,NA,""
"image-keyboard-response",92,98617,"0.0-4.26-2.26","c3k8ghaur9zoo2h",845,"188.csv","","null","resources/images/coin2.png","null","",NA,NA,NA,NA,""
"image-keyboard-response",93,98989,"0.0-4.27-0.27","c3k8ghaur9zoo2h",845,"188.csv","","370.5","resources/trios/L4T2A3.jpg","37","restless",0.8,0.9,0.5,0.163468169562273,"true"
"image-keyboard-response",94,99399,"0.0-4.27-1.27","c3k8ghaur9zoo2h",845,"188.csv","","null","resources/maskTrios/L4BB.jpg","null","",NA,NA,NA,NA,""
"image-keyboard-response",95,100607,"0.0-4.27-2.27","c3k8ghaur9zoo2h",845,"188.csv","","null","resources/images/coin2.png","null","",NA,NA,NA,NA,""
"image-keyboard-response",96,100821,"0.0-4.28-0.28","c3k8ghaur9zoo2h",845,"188.csv","","211.89999985694885","resources/trios/L4T2A3.jpg","37","restless",0.8,0.9,0.5,0.603343714540727,"true"
"image-keyboard-response",97,101234,"0.0-4.28-1.28","c3k8ghaur9zoo2h",845,"188.csv","","null","resources/maskTrios/L4BB.jpg","null","",NA,NA,NA,NA,""
"image-keyboard-response",98,102440,"0.0-4.28-2.28","c3k8ghaur9zoo2h",845,"188.csv","","null","resources/images/coin2.png","null","",NA,NA,NA,NA,""
"image-keyboard-response",99,102912,"0.0-4.29-0.29","c3k8ghaur9zoo2h",845,"188.csv","","471","resources/trios/L4T2A3.jpg","37","restless",0.8,0.9,0.5,0.0225067882424548,"true"
"image-keyboard-response",100,103316,"0.0-4.29-1.29","c3k8ghaur9zoo2h",845,"188.csv","","null","resources/maskTrios/L4BB.jpg","null","",NA,NA,NA,NA,""
"image-keyboard-response",101,104523,"0.0-4.29-2.29","c3k8ghaur9zoo2h",845,"188.csv","","null","resources/images/coin2.png","null","",NA,NA,NA,NA,""
"image-keyboard-response",102,104900,"0.0-4.30-0.30","c3k8ghaur9zoo2h",845,"188.csv","","375.7999999523163","resources/trios/L4T2A3.jpg","37","restless",0.8,0.9,0.5,0.633345265506206,"true"
"image-keyboard-response",103,105304,"0.0-4.30-1.30","c3k8ghaur9zoo2h",845,"188.csv","","null","resources/maskTrios/L4BB.jpg","null","",NA,NA,NA,NA,""
"image-keyboard-response",104,106509,"0.0-4.30-2.30","c3k8ghaur9zoo2h",845,"188.csv","","null","resources/images/coin2.png","null","",NA,NA,NA,NA,""
"image-keyboard-response",105,107000,"0.0-4.31-0.31","c3k8ghaur9zoo2h",845,"188.csv","","489.7000000476837","resources/trios/L4T2A3.jpg","37","restless",0.8,0.9,0.5,0.949117997823193,"false"
"image-keyboard-response",106,107416,"0.0-4.31-1.31","c3k8ghaur9zoo2h",845,"188.csv","","null","resources/maskTrios/L4BB.jpg","null","",NA,NA,NA,NA,""
"image-keyboard-response",107,108618,"0.0-4.31-2.31","c3k8ghaur9zoo2h",845,"188.csv","","null","resources/images/fishbone.png","null","",NA,NA,NA,NA,""
"image-keyboard-response",108,109036,"0.0-4.32-0.32","c3k8ghaur9zoo2h",845,"188.csv","","416.60000014305115","resources/trios/L4T2A3.jpg","38","restless",0.8,0.9,0.5,0.376411160818564,"true"
"image-keyboard-response",109,109448,"0.0-4.32-1.32","c3k8ghaur9zoo2h",845,"188.csv","","null","resources/maskTrios/BT2B.jpg","null","",NA,NA,NA,NA,""
"image-keyboard-response",110,110650,"0.0-4.32-2.32","c3k8ghaur9zoo2h",845,"188.csv","","null","resources/images/coin2.png","null","",NA,NA,NA,NA,""
"image-keyboard-response",111,111020,"0.0-4.33-0.33","c3k8ghaur9zoo2h",845,"188.csv","","367.69999980926514","resources/trios/L4T2A3.jpg","38","restless",0.8,0.8,0.6,0.518861882208253,"true"
"image-keyboard-response",112,111432,"0.0-4.33-1.33","c3k8ghaur9zoo2h",845,"188.csv","","null","resources/maskTrios/BT2B.jpg","null","",NA,NA,NA,NA,""
"image-keyboard-response",113,112639,"0.0-4.33-2.33","c3k8ghaur9zoo2h",845,"188.csv","","null","resources/images/coin2.png","null","",NA,NA,NA,NA,""
"image-keyboard-response",114,113128,"0.0-4.34-0.34","c3k8ghaur9zoo2h",845,"188.csv","","488.10000014305115","resources/trios/L4T2A3.jpg","38","restless",0.8,0.8,0.6,0.565310201150127,"true"
"image-keyboard-response",115,113543,"0.0-4.34-1.34","c3k8ghaur9zoo2h",845,"188.csv","","null","resources/maskTrios/BT2B.jpg","null","",NA,NA,NA,NA,""
"image-keyboard-response",116,114748,"0.0-4.34-2.34","c3k8ghaur9zoo2h",845,"188.csv","","null","resources/images/coin2.png","null","",NA,NA,NA,NA,""
"image-keyboard-response",117,115007,"0.0-4.35-0.35","c3k8ghaur9zoo2h",845,"188.csv","","258.09999990463257","resources/trios/L4T2A3.jpg","38","restless",0.8,0.8,0.6,0.77788677677231,"true"
"image-keyboard-response",118,115421,"0.0-4.35-1.35","c3k8ghaur9zoo2h",845,"188.csv","","null","resources/maskTrios/BT2B.jpg","null","",NA,NA,NA,NA,""
"image-keyboard-response",119,116632,"0.0-4.35-2.35","c3k8ghaur9zoo2h",845,"188.csv","","null","resources/images/coin2.png","null","",NA,NA,NA,NA,""
"image-keyboard-response",120,117200,"0.0-4.36-0.36","c3k8ghaur9zoo2h",845,"188.csv","","566.7000000476837","resources/trios/L4T2A3.jpg","38","restless",0.8,0.8,0.6,0.615163748056233,"true"
"image-keyboard-response",121,117603,"0.0-4.36-1.36","c3k8ghaur9zoo2h",845,"188.csv","","null","resources/maskTrios/BT2B.jpg","null","",NA,NA,NA,NA,""
"image-keyboard-response",122,118809,"0.0-4.36-2.36","c3k8ghaur9zoo2h",845,"188.csv","","null","resources/images/coin2.png","null","",NA,NA,NA,NA,""
"image-keyboard-response",123,374012,"0.0-4.37-0.37","c3k8ghaur9zoo2h",845,"188.csv","","255201.5","resources/trios/L4T2A3.jpg","38","restless",0.8,0.8,0.6,0.340885189098481,"true"
"image-keyboard-response",124,374425,"0.0-4.37-1.37","c3k8ghaur9zoo2h",845,"188.csv","","null","resources/maskTrios/BT2B.jpg","null","",NA,NA,NA,NA,""
"image-keyboard-response",125,375629,"0.0-4.37-2.37","c3k8ghaur9zoo2h",845,"188.csv","","null","resources/images/coin2.png","null","",NA,NA,NA,NA,""
"image-keyboard-response",126,376238,"0.0-4.38-0.38","c3k8ghaur9zoo2h",845,"188.csv","","607.7999999523163","resources/trios/L4T2A3.jpg","38","restless",0.8,0.7,0.6,0.784083010046879,"false"
"image-keyboard-response",127,376645,"0.0-4.38-1.38","c3k8ghaur9zoo2h",845,"188.csv","","null","resources/maskTrios/BT2B.jpg","null","",NA,NA,NA,NA,""
"image-keyboard-response",128,377849,"0.0-4.38-2.38","c3k8ghaur9zoo2h",845,"188.csv","","null","resources/images/fishbone.png","null","",NA,NA,NA,NA,""
"image-keyboard-response",129,378020,"0.0-4.39-0.39","c3k8ghaur9zoo2h",845,"188.csv","","170.20000004768372","resources/trios/L4T2A3.jpg","37","restless",0.8,0.7,0.6,0.974228414132895,"false"
"image-keyboard-response",130,378424,"0.0-4.39-1.39","c3k8ghaur9zoo2h",845,"188.csv","","null","resources/maskTrios/L4BB.jpg","null","",NA,NA,NA,NA,""
"image-keyboard-response",131,379632,"0.0-4.39-2.39","c3k8ghaur9zoo2h",845,"188.csv","","null","resources/images/fishbone.png","null","",NA,NA,NA,NA,""
"image-keyboard-response",132,379844,"0.0-4.40-0.40","c3k8ghaur9zoo2h",845,"188.csv","","210.60000014305115","resources/trios/L4T2A3.jpg","39","restless",0.8,0.7,0.6,0.0255645499630905,"true"
"image-keyboard-response",133,380258,"0.0-4.40-1.40","c3k8ghaur9zoo2h",845,"188.csv","","null","resources/maskTrios/BBA3.jpg","null","",NA,NA,NA,NA,""
"image-keyboard-response",134,381466,"0.0-4.40-2.40","c3k8ghaur9zoo2h",845,"188.csv","","null","resources/images/coin2.png","null","",NA,NA,NA,NA,""
"image-keyboard-response",135,381660,"0.0-4.41-0.41","c3k8ghaur9zoo2h",845,"188.csv","","191.80000019073486","resources/trios/L4T2A3.jpg","39","restless",0.8,0.7,0.6,0.160015194216978,"true"
"image-keyboard-response",136,382076,"0.0-4.41-1.41","c3k8ghaur9zoo2h",845,"188.csv","","null","resources/maskTrios/BBA3.jpg","null","",NA,NA,NA,NA,""
"image-keyboard-response",137,383284,"0.0-4.41-2.41","c3k8ghaur9zoo2h",845,"188.csv","","null","resources/images/coin2.png","null","",NA,NA,NA,NA,""
"image-keyboard-response",138,383532,"0.0-4.42-0.42","c3k8ghaur9zoo2h",845,"188.csv","","247.09999990463257","resources/trios/L4T2A3.jpg","39","restless",0.8,0.7,0.6,0.650490991670634,"false"
"image-keyboard-response",139,383941,"0.0-4.42-1.42","c3k8ghaur9zoo2h",845,"188.csv","","null","resources/maskTrios/BBA3.jpg","null","",NA,NA,NA,NA,""
"image-keyboard-response",140,385149,"0.0-4.42-2.42","c3k8ghaur9zoo2h",845,"188.csv","","null","resources/images/fishbone.png","null","",NA,NA,NA,NA,""
"image-keyboard-response",141,385317,"0.0-4.43-0.43","c3k8ghaur9zoo2h",845,"188.csv","","166.40000009536743","resources/trios/L4T2A3.jpg","38","restless",0.8,0.7,0.5,0.248265134369977,"true"
"image-keyboard-response",142,385727,"0.0-4.43-1.43","c3k8ghaur9zoo2h",845,"188.csv","","null","resources/maskTrios/BT2B.jpg","null","",NA,NA,NA,NA,""
"image-keyboard-response",143,386945,"0.0-4.43-2.43","c3k8ghaur9zoo2h",845,"188.csv","","null","resources/images/coin2.png","null","",NA,NA,NA,NA,""
"image-keyboard-response",144,387140,"0.0-4.44-0.44","c3k8ghaur9zoo2h",845,"188.csv","","194.20000004768372","resources/trios/L4T2A3.jpg","38","restless",0.8,0.7,0.5,0.0289303747400278,"true"
"image-keyboard-response",145,387553,"0.0-4.44-1.44","c3k8ghaur9zoo2h",845,"188.csv","","null","resources/maskTrios/BT2B.jpg","null","",NA,NA,NA,NA,""
"image-keyboard-response",146,388763,"0.0-4.44-2.44","c3k8ghaur9zoo2h",845,"188.csv","","null","resources/images/coin2.png","null","",NA,NA,NA,NA,""
"image-keyboard-response",147,388984,"0.0-4.45-0.45","c3k8ghaur9zoo2h",845,"188.csv","","220.30000019073486","resources/trios/L4T2A3.jpg","38","restless",0.8,0.7,0.5,0.936379148469319,"false"
"image-keyboard-response",148,389391,"0.0-4.45-1.45","c3k8ghaur9zoo2h",845,"188.csv","","null","resources/maskTrios/BT2B.jpg","null","",NA,NA,NA,NA,""
"image-keyboard-response",149,390596,"0.0-4.45-2.45","c3k8ghaur9zoo2h",845,"188.csv","","null","resources/images/fishbone.png","null","",NA,NA,NA,NA,""
"image-keyboard-response",150,390737,"0.0-4.46-0.46","c3k8ghaur9zoo2h",845,"188.csv","","138.90000009536743","resources/trios/L4T2A3.jpg","37","restless",0.8,0.7,0.5,0.693511006129902,"true"
"image-keyboard-response",151,391143,"0.0-4.46-1.46","c3k8ghaur9zoo2h",845,"188.csv","","null","resources/maskTrios/L4BB.jpg","null","",NA,NA,NA,NA,""
"image-keyboard-response",152,392354,"0.0-4.46-2.46","c3k8ghaur9zoo2h",845,"188.csv","","null","resources/images/coin2.png","null","",NA,NA,NA,NA,""
"image-keyboard-response",153,392899,"0.0-4.47-0.47","c3k8ghaur9zoo2h",845,"188.csv","","543.7000000476837","resources/trios/L4T2A3.jpg","37","restless",0.8,0.7,0.5,0.0816050338675967,"true"
"image-keyboard-response",154,393310,"0.0-4.47-1.47","c3k8ghaur9zoo2h",845,"188.csv","","null","resources/maskTrios/L4BB.jpg","null","",NA,NA,NA,NA,""
"image-keyboard-response",155,394513,"0.0-4.47-2.47","c3k8ghaur9zoo2h",845,"188.csv","","null","resources/images/coin2.png","null","",NA,NA,NA,NA,""
"image-keyboard-response",156,394724,"0.0-4.48-0.48","c3k8ghaur9zoo2h",845,"188.csv","","210","resources/trios/L4T2A3.jpg","37","restless",0.8,0.7,0.5,0.45432928957602,"true"
"image-keyboard-response",157,395131,"0.0-4.48-1.48","c3k8ghaur9zoo2h",845,"188.csv","","null","resources/maskTrios/L4BB.jpg","null","",NA,NA,NA,NA,""
"image-keyboard-response",158,396341,"0.0-4.48-2.48","c3k8ghaur9zoo2h",845,"188.csv","","null","resources/images/coin2.png","null","",NA,NA,NA,NA,""
"image-keyboard-response",159,396681,"0.0-4.49-0.49","c3k8ghaur9zoo2h",845,"188.csv","","337.90000009536743","resources/trios/L4T2A3.jpg","37","restless",0.8,0.7,0.5,0.112073778428011,"true"
"image-keyboard-response",160,397091,"0.0-4.49-1.49","c3k8ghaur9zoo2h",845,"188.csv","","null","resources/maskTrios/L4BB.jpg","null","",NA,NA,NA,NA,""
"image-keyboard-response",161,398293,"0.0-4.49-2.49","c3k8ghaur9zoo2h",845,"188.csv","","null","resources/images/coin2.png","null","",NA,NA,NA,NA,""
"image-keyboard-response",162,398368,"0.0-4.50-0.50","c3k8ghaur9zoo2h",845,"188.csv","","74","resources/trios/L4T2A3.jpg","37","restless",0.8,0.6,0.5,0.226898211531606,"true"
"image-keyboard-response",163,398777,"0.0-4.50-1.50","c3k8ghaur9zoo2h",845,"188.csv","","null","resources/maskTrios/L4BB.jpg","null","",NA,NA,NA,NA,""
"image-keyboard-response",164,399984,"0.0-4.50-2.50","c3k8ghaur9zoo2h",845,"188.csv","","null","resources/images/coin2.png","null","",NA,NA,NA,NA,""
"image-keyboard-response",165,399996,"0.0-4.51-0.51","c3k8ghaur9zoo2h",845,"188.csv","","9.699999809265137","resources/trios/L4T2A3.jpg","37","restless",0.8,0.6,0.6,0.356466499983174,"true"
"image-keyboard-response",166,400408,"0.0-4.51-1.51","c3k8ghaur9zoo2h",845,"188.csv","","null","resources/maskTrios/L4BB.jpg","null","",NA,NA,NA,NA,""
"image-keyboard-response",167,401612,"0.0-4.51-2.51","c3k8ghaur9zoo2h",845,"188.csv","","null","resources/images/coin2.png","null","",NA,NA,NA,NA,""
"image-keyboard-response",168,401792,"0.0-4.52-0.52","c3k8ghaur9zoo2h",845,"188.csv","","178.29999995231628","resources/trios/L4T2A3.jpg","37","restless",0.8,0.6,0.6,0.240993002003156,"true"
"image-keyboard-response",169,402205,"0.0-4.52-1.52","c3k8ghaur9zoo2h",845,"188.csv","","null","resources/maskTrios/L4BB.jpg","null","",NA,NA,NA,NA,""
"image-keyboard-response",170,403420,"0.0-4.52-2.52","c3k8ghaur9zoo2h",845,"188.csv","","null","resources/images/coin2.png","null","",NA,NA,NA,NA,""
"image-keyboard-response",171,403697,"0.0-4.53-0.53","c3k8ghaur9zoo2h",845,"188.csv","","274.7000000476837","resources/trios/L4T2A3.jpg","37","restless",0.8,0.6,0.5,0.172291133945945,"true"
"image-keyboard-response",172,404109,"0.0-4.53-1.53","c3k8ghaur9zoo2h",845,"188.csv","","null","resources/maskTrios/L4BB.jpg","null","",NA,NA,NA,NA,""
"image-keyboard-response",173,405319,"0.0-4.53-2.53","c3k8ghaur9zoo2h",845,"188.csv","","null","resources/images/coin2.png","null","",NA,NA,NA,NA,""
"image-keyboard-response",174,405536,"0.0-4.54-0.54","c3k8ghaur9zoo2h",845,"188.csv","","215.5","resources/trios/L4T2A3.jpg","37","restless",0.8,0.6,0.5,0.37702622422102,"true"
"image-keyboard-response",175,405948,"0.0-4.54-1.54","c3k8ghaur9zoo2h",845,"188.csv","","null","resources/maskTrios/L4BB.jpg","null","",NA,NA,NA,NA,""
"image-keyboard-response",176,407156,"0.0-4.54-2.54","c3k8ghaur9zoo2h",845,"188.csv","","null","resources/images/coin2.png","null","",NA,NA,NA,NA,""
"image-keyboard-response",177,407461,"0.0-4.55-0.55","c3k8ghaur9zoo2h",845,"188.csv","","303.7000000476837","resources/trios/L4T2A3.jpg","37","restless",0.8,0.6,0.5,0.479897191633903,"true"
"image-keyboard-response",178,407874,"0.0-4.55-1.55","c3k8ghaur9zoo2h",845,"188.csv","","null","resources/maskTrios/L4BB.jpg","null","",NA,NA,NA,NA,""
"image-keyboard-response",179,409078,"0.0-4.55-2.55","c3k8ghaur9zoo2h",845,"188.csv","","null","resources/images/coin2.png","null","",NA,NA,NA,NA,""
"image-keyboard-response",180,409316,"0.0-4.56-0.56","c3k8ghaur9zoo2h",845,"188.csv","","236.59999990463257","resources/trios/L4T2A3.jpg","37","restless",0.8,0.6,0.5,0.100426988135833,"true"
"image-keyboard-response",181,409719,"0.0-4.56-1.56","c3k8ghaur9zoo2h",845,"188.csv","","null","resources/maskTrios/L4BB.jpg","null","",NA,NA,NA,NA,""
"image-keyboard-response",182,410923,"0.0-4.56-2.56","c3k8ghaur9zoo2h",845,"188.csv","","null","resources/images/coin2.png","null","",NA,NA,NA,NA,""
"image-keyboard-response",183,412400,"0.0-4.57-0.57","c3k8ghaur9zoo2h",845,"188.csv","","1475.2000000476837","resources/trios/L4T2A3.jpg","37","restless",0.8,0.6,0.5,0.665341678558002,"true"
"image-keyboard-response",184,412815,"0.0-4.57-1.57","c3k8ghaur9zoo2h",845,"188.csv","","null","resources/maskTrios/L4BB.jpg","null","",NA,NA,NA,NA,""
"image-keyboard-response",185,414019,"0.0-4.57-2.57","c3k8ghaur9zoo2h",845,"188.csv","","null","resources/images/coin2.png","null","",NA,NA,NA,NA,""
"image-keyboard-response",186,414636,"0.0-4.58-0.58","c3k8ghaur9zoo2h",845,"188.csv","","615.7000000476837","resources/trios/L4T2A3.jpg","37","restless",0.8,0.6,0.5,0.410393074869119,"true"
"image-keyboard-response",187,415049,"0.0-4.58-1.58","c3k8ghaur9zoo2h",845,"188.csv","","null","resources/maskTrios/L4BB.jpg","null","",NA,NA,NA,NA,""
"image-keyboard-response",188,416252,"0.0-4.58-2.58","c3k8ghaur9zoo2h",845,"188.csv","","null","resources/images/coin2.png","null","",NA,NA,NA,NA,""
"image-keyboard-response",189,416441,"0.0-4.59-0.59","c3k8ghaur9zoo2h",845,"188.csv","","186.79999995231628","resources/trios/L4T2A3.jpg","37","restless",0.7,0.5,0.4,0.976525806901461,"false"
"image-keyboard-response",190,416857,"0.0-4.59-1.59","c3k8ghaur9zoo2h",845,"188.csv","","null","resources/maskTrios/L4BB.jpg","null","",NA,NA,NA,NA,""
"image-keyboard-response",191,418064,"0.0-4.59-2.59","c3k8ghaur9zoo2h",845,"188.csv","","null","resources/images/fishbone.png","null","",NA,NA,NA,NA,""
"image-keyboard-response",192,418280,"0.0-4.60-0.60","c3k8ghaur9zoo2h",845,"188.csv","","214.89999985694885","resources/trios/L4T2A3.jpg","38","restless",0.7,0.5,0.4,0.557428532190482,"false"
"image-keyboard-response",193,418690,"0.0-4.60-1.60","c3k8ghaur9zoo2h",845,"188.csv","","null","resources/maskTrios/BT2B.jpg","null","",NA,NA,NA,NA,""
"image-keyboard-response",194,419899,"0.0-4.60-2.60","c3k8ghaur9zoo2h",845,"188.csv","","null","resources/images/fishbone.png","null","",NA,NA,NA,NA,""
"image-keyboard-response",195,420288,"0.0-4.61-0.61","c3k8ghaur9zoo2h",845,"188.csv","","388.40000009536743","resources/trios/L4T2A3.jpg","39","restless",0.7,0.5,0.4,0.127730213801401,"true"
"image-keyboard-response",196,420698,"0.0-4.61-1.61","c3k8ghaur9zoo2h",845,"188.csv","","null","resources/maskTrios/BBA3.jpg","null","",NA,NA,NA,NA,""
"image-keyboard-response",197,421903,"0.0-4.61-2.61","c3k8ghaur9zoo2h",845,"188.csv","","null","resources/images/coin2.png","null","",NA,NA,NA,NA,""
"image-keyboard-response",198,422316,"0.0-4.62-0.62","c3k8ghaur9zoo2h",845,"188.csv","","411.09999990463257","resources/trios/L4T2A3.jpg","39","restless",0.7,0.5,0.4,0.246134158223806,"true"
"image-keyboard-response",199,422724,"0.0-4.62-1.62","c3k8ghaur9zoo2h",845,"188.csv","","null","resources/maskTrios/BBA3.jpg","null","",NA,NA,NA,NA,""
"image-keyboard-response",200,423935,"0.0-4.62-2.62","c3k8ghaur9zoo2h",845,"188.csv","","null","resources/images/coin2.png","null","",NA,NA,NA,NA,""
"image-keyboard-response",201,424312,"0.0-4.63-0.63","c3k8ghaur9zoo2h",845,"188.csv","","375.59999990463257","resources/trios/L4T2A3.jpg","39","restless",0.7,0.5,0.4,0.9846076061365,"false"
"image-keyboard-response",202,424716,"0.0-4.63-1.63","c3k8ghaur9zoo2h",845,"188.csv","","null","resources/maskTrios/BBA3.jpg","null","",NA,NA,NA,NA,""
"image-keyboard-response",203,425922,"0.0-4.63-2.63","c3k8ghaur9zoo2h",845,"188.csv","","null","resources/images/fishbone.png","null","",NA,NA,NA,NA,""
"image-keyboard-response",204,426051,"0.0-4.64-0.64","c3k8ghaur9zoo2h",845,"188.csv","","128.09999990463257","resources/trios/L4T2A3.jpg","37","restless",0.7,0.5,0.4,0.488224945142804,"true"
"image-keyboard-response",205,426455,"0.0-4.64-1.64","c3k8ghaur9zoo2h",845,"188.csv","","null","resources/maskTrios/L4BB.jpg","null","",NA,NA,NA,NA,""
"image-keyboard-response",206,427663,"0.0-4.64-2.64","c3k8ghaur9zoo2h",845,"188.csv","","null","resources/images/coin2.png","null","",NA,NA,NA,NA,""
"image-keyboard-response",207,427952,"0.0-4.65-0.65","c3k8ghaur9zoo2h",845,"188.csv","","286.39999985694885","resources/trios/L4T2A3.jpg","37","restless",0.7,0.5,0.5,0.707092490422231,"false"
"image-keyboard-response",208,428366,"0.0-4.65-1.65","c3k8ghaur9zoo2h",845,"188.csv","","null","resources/maskTrios/L4BB.jpg","null","",NA,NA,NA,NA,""
"image-keyboard-response",209,429573,"0.0-4.65-2.65","c3k8ghaur9zoo2h",845,"188.csv","","null","resources/images/fishbone.png","null","",NA,NA,NA,NA,""
"image-keyboard-response",210,429576,"0.0-4.66-0.66","c3k8ghaur9zoo2h",845,"188.csv","","1.5","resources/trios/L4T2A3.jpg","38","restless",0.7,0.4,0.5,0.530742206536711,"false"
"image-keyboard-response",211,429979,"0.0-4.66-1.66","c3k8ghaur9zoo2h",845,"188.csv","","null","resources/maskTrios/BT2B.jpg","null","",NA,NA,NA,NA,""
"image-keyboard-response",212,431187,"0.0-4.66-2.66","c3k8ghaur9zoo2h",845,"188.csv","","null","resources/images/fishbone.png","null","",NA,NA,NA,NA,""
"image-keyboard-response",213,431432,"0.0-4.67-0.67","c3k8ghaur9zoo2h",845,"188.csv","","244.20000004768372","resources/trios/L4T2A3.jpg","39","restless",0.6,0.5,0.6,0.0508016802566549,"true"
"image-keyboard-response",214,431837,"0.0-4.67-1.67","c3k8ghaur9zoo2h",845,"188.csv","","null","resources/maskTrios/BBA3.jpg","null","",NA,NA,NA,NA,""
"image-keyboard-response",215,433040,"0.0-4.67-2.67","c3k8ghaur9zoo2h",845,"188.csv","","null","resources/images/coin2.png","null","",NA,NA,NA,NA,""
"image-keyboard-response",216,433236,"0.0-4.68-0.68","c3k8ghaur9zoo2h",845,"188.csv","","192.59999990463257","resources/trios/L4T2A3.jpg","37","restless",0.6,0.5,0.6,0.879277469235518,"false"
"image-keyboard-response",217,433651,"0.0-4.68-1.68","c3k8ghaur9zoo2h",845,"188.csv","","null","resources/maskTrios/L4BB.jpg","null","",NA,NA,NA,NA,""
"image-keyboard-response",218,434857,"0.0-4.68-2.68","c3k8ghaur9zoo2h",845,"188.csv","","null","resources/images/fishbone.png","null","",NA,NA,NA,NA,""
"image-keyboard-response",219,435045,"0.0-4.69-0.69","c3k8ghaur9zoo2h",845,"188.csv","","187","resources/trios/L4T2A3.jpg","39","restless",0.5,0.5,0.6,0.462760930105226,"true"
"image-keyboard-response",220,435450,"0.0-4.69-1.69","c3k8ghaur9zoo2h",845,"188.csv","","null","resources/maskTrios/BBA3.jpg","null","",NA,NA,NA,NA,""
"image-keyboard-response",221,436654,"0.0-4.69-2.69","c3k8ghaur9zoo2h",845,"188.csv","","null","resources/images/coin2.png","null","",NA,NA,NA,NA,""
"image-keyboard-response",222,436760,"0.0-4.70-0.70","c3k8ghaur9zoo2h",845,"188.csv","","103.70000004768372","resources/trios/L4T2A3.jpg","39","restless",0.5,0.5,0.6,0.260113499472252,"true"
"image-keyboard-response",223,437168,"0.0-4.70-1.70","c3k8ghaur9zoo2h",845,"188.csv","","null","resources/maskTrios/BBA3.jpg","null","",NA,NA,NA,NA,""
"image-keyboard-response",224,438371,"0.0-4.70-2.70","c3k8ghaur9zoo2h",845,"188.csv","","null","resources/images/coin2.png","null","",NA,NA,NA,NA,""
"image-keyboard-response",225,438593,"0.0-4.71-0.71","c3k8ghaur9zoo2h",845,"188.csv","","220.5","resources/trios/L4T2A3.jpg","39","restless",0.5,0.5,0.6,0.268218908462917,"true"
"image-keyboard-response",226,438997,"0.0-4.71-1.71","c3k8ghaur9zoo2h",845,"188.csv","","null","resources/maskTrios/BBA3.jpg","null","",NA,NA,NA,NA,""
"image-keyboard-response",227,440206,"0.0-4.71-2.71","c3k8ghaur9zoo2h",845,"188.csv","","null","resources/images/coin2.png","null","",NA,NA,NA,NA,""
"image-keyboard-response",228,440348,"0.0-4.72-0.72","c3k8ghaur9zoo2h",845,"188.csv","","140.29999995231628","resources/trios/L4T2A3.jpg","39","restless",0.4,0.5,0.6,0.682429259744979,"false"
"image-keyboard-response",229,440755,"0.0-4.72-1.72","c3k8ghaur9zoo2h",845,"188.csv","","null","resources/maskTrios/BBA3.jpg","null","",NA,NA,NA,NA,""
"image-keyboard-response",230,441964,"0.0-4.72-2.72","c3k8ghaur9zoo2h",845,"188.csv","","null","resources/images/fishbone.png","null","",NA,NA,NA,NA,""
"image-keyboard-response",231,442272,"0.0-4.73-0.73","c3k8ghaur9zoo2h",845,"188.csv","","306.2000000476837","resources/trios/L4T2A3.jpg","37","restless",0.4,0.5,0.6,0.468885053046273,"false"
"image-keyboard-response",232,442683,"0.0-4.73-1.73","c3k8ghaur9zoo2h",845,"188.csv","","null","resources/maskTrios/L4BB.jpg","null","",NA,NA,NA,NA,""
"image-keyboard-response",233,443886,"0.0-4.73-2.73","c3k8ghaur9zoo2h",845,"188.csv","","null","resources/images/fishbone.png","null","",NA,NA,NA,NA,""
"image-keyboard-response",234,444152,"0.0-4.74-0.74","c3k8ghaur9zoo2h",845,"188.csv","","265","resources/trios/L4T2A3.jpg","38","restless",0.4,0.5,0.6,0.0672949091046557,"true"
"image-keyboard-response",235,444556,"0.0-4.74-1.74","c3k8ghaur9zoo2h",845,"188.csv","","null","resources/maskTrios/BT2B.jpg","null","",NA,NA,NA,NA,""
"image-keyboard-response",236,445763,"0.0-4.74-2.74","c3k8ghaur9zoo2h",845,"188.csv","","null","resources/images/coin2.png","null","",NA,NA,NA,NA,""
"image-keyboard-response",237,446045,"0.0-4.75-0.75","c3k8ghaur9zoo2h",845,"188.csv","","279.7000000476837","resources/trios/L4T2A3.jpg","38","restless",0.4,0.5,0.6,0.64648372280016,"false"
"image-keyboard-response",238,446456,"0.0-4.75-1.75","c3k8ghaur9zoo2h",845,"188.csv","","null","resources/maskTrios/BT2B.jpg","null","",NA,NA,NA,NA,""
"image-keyboard-response",239,447671,"0.0-4.75-2.75","c3k8ghaur9zoo2h",845,"188.csv","","null","resources/images/fishbone.png","null","",NA,NA,NA,NA,""
"image-keyboard-response",240,447780,"0.0-4.76-0.76","c3k8ghaur9zoo2h",845,"188.csv","","107.70000004768372","resources/trios/L4T2A3.jpg","39","restless",0.4,0.5,0.6,0.741923772855912,"false"
"image-keyboard-response",241,448187,"0.0-4.76-1.76","c3k8ghaur9zoo2h",845,"188.csv","","null","resources/maskTrios/BBA3.jpg","null","",NA,NA,NA,NA,""
"image-keyboard-response",242,449390,"0.0-4.76-2.76","c3k8ghaur9zoo2h",845,"188.csv","","null","resources/images/fishbone.png","null","",NA,NA,NA,NA,""
"image-keyboard-response",243,449692,"0.0-4.77-0.77","c3k8ghaur9zoo2h",845,"188.csv","","300.59999990463257","resources/trios/L4T2A3.jpg","37","restless",0.4,0.5,0.6,0.562031139879761,"false"
"image-keyboard-response",244,450108,"0.0-4.77-1.77","c3k8ghaur9zoo2h",845,"188.csv","","null","resources/maskTrios/L4BB.jpg","null","",NA,NA,NA,NA,""
"image-keyboard-response",245,451311,"0.0-4.77-2.77","c3k8ghaur9zoo2h",845,"188.csv","","null","resources/images/fishbone.png","null","",NA,NA,NA,NA,""
"image-keyboard-response",246,451881,"0.0-4.78-0.78","c3k8ghaur9zoo2h",845,"188.csv","","568.2000000476837","resources/trios/L4T2A3.jpg","38","restless",0.4,0.5,0.6,0.831298443225046,"false"
"image-keyboard-response",247,452287,"0.0-4.78-1.78","c3k8ghaur9zoo2h",845,"188.csv","","null","resources/maskTrios/BT2B.jpg","null","",NA,NA,NA,NA,""
"image-keyboard-response",248,453496,"0.0-4.78-2.78","c3k8ghaur9zoo2h",845,"188.csv","","null","resources/images/fishbone.png","null","",NA,NA,NA,NA,""
"image-keyboard-response",249,453888,"0.0-4.79-0.79","c3k8ghaur9zoo2h",845,"188.csv","","390.59999990463257","resources/trios/L4T2A3.jpg","39","restless",0.4,0.5,0.5,0.0574180291315294,"true"
"image-keyboard-response",250,454293,"0.0-4.79-1.79","c3k8ghaur9zoo2h",845,"188.csv","","null","resources/maskTrios/BBA3.jpg","null","",NA,NA,NA,NA,""
"image-keyboard-response",251,455500,"0.0-4.79-2.79","c3k8ghaur9zoo2h",845,"188.csv","","null","resources/images/coin2.png","null","",NA,NA,NA,NA,""
"image-keyboard-response",252,455764,"0.0-4.80-0.80","c3k8ghaur9zoo2h",845,"188.csv","","262","resources/trios/L4T2A3.jpg","39","restless",0.4,0.5,0.5,0.822598269785316,"false"
"image-keyboard-response",253,456174,"0.0-4.80-1.80","c3k8ghaur9zoo2h",845,"188.csv","","null","resources/maskTrios/BBA3.jpg","null","",NA,NA,NA,NA,""
"image-keyboard-response",254,457380,"0.0-4.80-2.80","c3k8ghaur9zoo2h",845,"188.csv","","null","resources/images/fishbone.png","null","",NA,NA,NA,NA,""
"image-keyboard-response",255,457584,"0.0-4.81-0.81","c3k8ghaur9zoo2h",845,"188.csv","","202.39999985694885","resources/trios/L4T2A3.jpg","37","restless",0.4,0.5,0.5,0.392680476966921,"true"
"image-keyboard-response",256,457993,"0.0-4.81-1.81","c3k8ghaur9zoo2h",845,"188.csv","","null","resources/maskTrios/L4BB.jpg","null","",NA,NA,NA,NA,""
"image-keyboard-response",257,459198,"0.0-4.81-2.81","c3k8ghaur9zoo2h",845,"188.csv","","null","resources/images/coin2.png","null","",NA,NA,NA,NA,""
"image-keyboard-response",258,459444,"0.0-4.82-0.82","c3k8ghaur9zoo2h",845,"188.csv","","244.70000004768372","resources/trios/L4T2A3.jpg","37","restless",0.4,0.5,0.5,0.431896424459739,"false"
"image-keyboard-response",259,459856,"0.0-4.82-1.82","c3k8ghaur9zoo2h",845,"188.csv","","null","resources/maskTrios/L4BB.jpg","null","",NA,NA,NA,NA,""
"image-keyboard-response",260,461066,"0.0-4.82-2.82","c3k8ghaur9zoo2h",845,"188.csv","","null","resources/images/fishbone.png","null","",NA,NA,NA,NA,""
"image-keyboard-response",261,461292,"0.0-4.83-0.83","c3k8ghaur9zoo2h",845,"188.csv","","225.20000004768372","resources/trios/L4T2A3.jpg","38","restless",0.4,0.5,0.5,0.558039928155551,"false"
"image-keyboard-response",262,461705,"0.0-4.83-1.83","c3k8ghaur9zoo2h",845,"188.csv","","null","resources/maskTrios/BT2B.jpg","null","",NA,NA,NA,NA,""
"image-keyboard-response",263,462915,"0.0-4.83-2.83","c3k8ghaur9zoo2h",845,"188.csv","","null","resources/images/fishbone.png","null","",NA,NA,NA,NA,""
"image-keyboard-response",264,463248,"0.0-4.84-0.84","c3k8ghaur9zoo2h",845,"188.csv","","331.7000000476837","resources/trios/L4T2A3.jpg","39","restless",0.4,0.5,0.5,0.614938683984112,"false"
"image-keyboard-response",265,463652,"0.0-4.84-1.84","c3k8ghaur9zoo2h",845,"188.csv","","null","resources/maskTrios/BBA3.jpg","null","",NA,NA,NA,NA,""
"image-keyboard-response",266,464854,"0.0-4.84-2.84","c3k8ghaur9zoo2h",845,"188.csv","","null","resources/images/fishbone.png","null","",NA,NA,NA,NA,""
"image-keyboard-response",267,464951,"0.0-4.85-0.85","c3k8ghaur9zoo2h",845,"188.csv","","94.90000009536743","resources/trios/L4T2A3.jpg","37","restless",0.4,0.6,0.5,0.454692448504871,"false"
"image-keyboard-response",268,465355,"0.0-4.85-1.85","c3k8ghaur9zoo2h",845,"188.csv","","null","resources/maskTrios/L4BB.jpg","null","",NA,NA,NA,NA,""
"image-keyboard-response",269,466566,"0.0-4.85-2.85","c3k8ghaur9zoo2h",845,"188.csv","","null","resources/images/fishbone.png","null","",NA,NA,NA,NA,""
"image-keyboard-response",270,466816,"0.0-4.86-0.86","c3k8ghaur9zoo2h",845,"188.csv","","248.5","resources/trios/L4T2A3.jpg","38","restless",0.4,0.6,0.6,0.524245914483427,"true"
"image-keyboard-response",271,467227,"0.0-4.86-1.86","c3k8ghaur9zoo2h",845,"188.csv","","null","resources/maskTrios/BT2B.jpg","null","",NA,NA,NA,NA,""
"image-keyboard-response",272,468430,"0.0-4.86-2.86","c3k8ghaur9zoo2h",845,"188.csv","","null","resources/images/coin2.png","null","",NA,NA,NA,NA,""
"image-keyboard-response",273,468824,"0.0-4.87-0.87","c3k8ghaur9zoo2h",845,"188.csv","","392.2000000476837","resources/trios/L4T2A3.jpg","38","restless",0.4,0.6,0.6,0.392720797888691,"true"
"image-keyboard-response",274,469231,"0.0-4.87-1.87","c3k8ghaur9zoo2h",845,"188.csv","","null","resources/maskTrios/BT2B.jpg","null","",NA,NA,NA,NA,""
"image-keyboard-response",275,470433,"0.0-4.87-2.87","c3k8ghaur9zoo2h",845,"188.csv","","null","resources/images/coin2.png","null","",NA,NA,NA,NA,""
"image-keyboard-response",276,470620,"0.0-4.88-0.88","c3k8ghaur9zoo2h",845,"188.csv","","185.80000019073486","resources/trios/L4T2A3.jpg","38","restless",0.4,0.6,0.6,0.425940996055556,"true"
"image-keyboard-response",277,471031,"0.0-4.88-1.88","c3k8ghaur9zoo2h",845,"188.csv","","null","resources/maskTrios/BT2B.jpg","null","",NA,NA,NA,NA,""
"image-keyboard-response",278,472239,"0.0-4.88-2.88","c3k8ghaur9zoo2h",845,"188.csv","","null","resources/images/coin2.png","null","",NA,NA,NA,NA,""
"image-keyboard-response",279,472512,"0.0-4.89-0.89","c3k8ghaur9zoo2h",845,"188.csv","","271.39999985694885","resources/trios/L4T2A3.jpg","38","restless",0.4,0.6,0.6,0.200998370728419,"true"
"image-keyboard-response",280,472914,"0.0-4.89-1.89","c3k8ghaur9zoo2h",845,"188.csv","","null","resources/maskTrios/BT2B.jpg","null","",NA,NA,NA,NA,""
"image-keyboard-response",281,474118,"0.0-4.89-2.89","c3k8ghaur9zoo2h",845,"188.csv","","null","resources/images/coin2.png","null","",NA,NA,NA,NA,""
"image-keyboard-response",282,474380,"0.0-4.90-0.90","c3k8ghaur9zoo2h",845,"188.csv","","260.40000009536743","resources/trios/L4T2A3.jpg","38","restless",0.4,0.7,0.6,0.806361000645791,"false"
"image-keyboard-response",283,474791,"0.0-4.90-1.90","c3k8ghaur9zoo2h",845,"188.csv","","null","resources/maskTrios/BT2B.jpg","null","",NA,NA,NA,NA,""
"image-keyboard-response",284,475997,"0.0-4.90-2.90","c3k8ghaur9zoo2h",845,"188.csv","","null","resources/images/fishbone.png","null","",NA,NA,NA,NA,""
"image-keyboard-response",285,476204,"0.0-4.91-0.91","c3k8ghaur9zoo2h",845,"188.csv","","205.29999995231628","resources/trios/L4T2A3.jpg","37","restless",0.4,0.7,0.6,0.00563597540592142,"true"
"image-keyboard-response",286,476607,"0.0-4.91-1.91","c3k8ghaur9zoo2h",845,"188.csv","","null","resources/maskTrios/L4BB.jpg","null","",NA,NA,NA,NA,""
"image-keyboard-response",287,477821,"0.0-4.91-2.91","c3k8ghaur9zoo2h",845,"188.csv","","null","resources/images/coin2.png","null","",NA,NA,NA,NA,""
"image-keyboard-response",288,478085,"0.0-4.92-0.92","c3k8ghaur9zoo2h",845,"188.csv","","263.09999990463257","resources/trios/L4T2A3.jpg","37","restless",0.4,0.7,0.6,0.160207756998577,"true"
"image-keyboard-response",289,478493,"0.0-4.92-1.92","c3k8ghaur9zoo2h",845,"188.csv","","null","resources/maskTrios/L4BB.jpg","null","",NA,NA,NA,NA,""
"image-keyboard-response",290,479699,"0.0-4.92-2.92","c3k8ghaur9zoo2h",845,"188.csv","","null","resources/images/coin2.png","null","",NA,NA,NA,NA,""
"image-keyboard-response",291,480072,"0.0-4.93-0.93","c3k8ghaur9zoo2h",845,"188.csv","","372.59999990463257","resources/trios/L4T2A3.jpg","37","restless",0.4,0.7,0.6,0.85398830379724,"false"
"image-keyboard-response",292,480482,"0.0-4.93-1.93","c3k8ghaur9zoo2h",845,"188.csv","","null","resources/maskTrios/L4BB.jpg","null","",NA,NA,NA,NA,""
"image-keyboard-response",293,481698,"0.0-4.93-2.93","c3k8ghaur9zoo2h",845,"188.csv","","null","resources/images/fishbone.png","null","",NA,NA,NA,NA,""
"image-keyboard-response",294,481972,"0.0-4.94-0.94","c3k8ghaur9zoo2h",845,"188.csv","","272","resources/trios/L4T2A3.jpg","39","restless",0.4,0.7,0.7,0.0848808906079006,"true"
"image-keyboard-response",295,482383,"0.0-4.94-1.94","c3k8ghaur9zoo2h",845,"188.csv","","null","resources/maskTrios/BBA3.jpg","null","",NA,NA,NA,NA,""
"image-keyboard-response",296,483591,"0.0-4.94-2.94","c3k8ghaur9zoo2h",845,"188.csv","","null","resources/images/coin2.png","null","",NA,NA,NA,NA,""
"image-keyboard-response",297,483762,"0.0-4.95-0.95","c3k8ghaur9zoo2h",845,"188.csv","","170.79999995231628","resources/trios/L4T2A3.jpg","39","restless",0.4,0.7,0.6,0.437833580842101,"true"
"image-keyboard-response",298,484165,"0.0-4.95-1.95","c3k8ghaur9zoo2h",845,"188.csv","","null","resources/maskTrios/BBA3.jpg","null","",NA,NA,NA,NA,""
"image-keyboard-response",299,485371,"0.0-4.95-2.95","c3k8ghaur9zoo2h",845,"188.csv","","null","resources/images/coin2.png","null","",NA,NA,NA,NA,""
"image-keyboard-response",300,486369,"0.0-4.96-0.96","c3k8ghaur9zoo2h",845,"188.csv","","998","resources/trios/L4T2A3.jpg","39","restless",0.3,0.7,0.6,0.472068758464698,"true"
"image-keyboard-response",301,486775,"0.0-4.96-1.96","c3k8ghaur9zoo2h",845,"188.csv","","null","resources/maskTrios/BBA3.jpg","null","",NA,NA,NA,NA,""
"image-keyboard-response",302,487979,"0.0-4.96-2.96","c3k8ghaur9zoo2h",845,"188.csv","","null","resources/images/coin2.png","null","",NA,NA,NA,NA,""
"image-keyboard-response",303,488241,"0.0-4.97-0.97","c3k8ghaur9zoo2h",845,"188.csv","","260.7000000476837","resources/trios/L4T2A3.jpg","39","restless",0.3,0.7,0.6,0.930205489906723,"false"
"image-keyboard-response",304,488647,"0.0-4.97-1.97","c3k8ghaur9zoo2h",845,"188.csv","","null","resources/maskTrios/BBA3.jpg","null","",NA,NA,NA,NA,""
"image-keyboard-response",305,489853,"0.0-4.97-2.97","c3k8ghaur9zoo2h",845,"188.csv","","null","resources/images/fishbone.png","null","",NA,NA,NA,NA,""
"image-keyboard-response",306,490521,"0.0-4.98-0.98","c3k8ghaur9zoo2h",845,"188.csv","","668.0999999046326","resources/trios/L4T2A3.jpg","37","restless",0.3,0.7,0.6,0.988106455947551,"false"
"image-keyboard-response",307,490929,"0.0-4.98-1.98","c3k8ghaur9zoo2h",845,"188.csv","","null","resources/maskTrios/L4BB.jpg","null","",NA,NA,NA,NA,""
"image-keyboard-response",308,492133,"0.0-4.98-2.98","c3k8ghaur9zoo2h",845,"188.csv","","null","resources/images/fishbone.png","null","",NA,NA,NA,NA,""
"image-keyboard-response",309,492506,"0.0-4.99-0.99","c3k8ghaur9zoo2h",845,"188.csv","","372.59999990463257","resources/trios/L4T2A3.jpg","38","restless",0.3,0.7,0.6,0.630780064596969,"true"
"image-keyboard-response",310,492909,"0.0-4.99-1.99","c3k8ghaur9zoo2h",845,"188.csv","","null","resources/maskTrios/BT2B.jpg","null","",NA,NA,NA,NA,""
"image-keyboard-response",311,494113,"0.0-4.99-2.99","c3k8ghaur9zoo2h",845,"188.csv","","null","resources/images/coin2.png","null","",NA,NA,NA,NA,""
"image-keyboard-response",312,494577,"0.0-4.100-0.100","c3k8ghaur9zoo2h",845,"188.csv","","463.09999990463257","resources/trios/L4T2A3.jpg","38","restless",0.3,0.7,0.6,0.124735877768498,"true"
"image-keyboard-response",313,494983,"0.0-4.100-1.100","c3k8ghaur9zoo2h",845,"188.csv","","null","resources/maskTrios/BT2B.jpg","null","",NA,NA,NA,NA,""
"image-keyboard-response",314,496190,"0.0-4.100-2.100","c3k8ghaur9zoo2h",845,"188.csv","","null","resources/images/coin2.png","null","",NA,NA,NA,NA,""
"image-keyboard-response",315,496676,"0.0-4.101-0.101","c3k8ghaur9zoo2h",845,"188.csv","","484.5","resources/trios/L4T2A3.jpg","38","restless",0.3,0.7,0.6,0.395291089540553,"true"
"image-keyboard-response",316,497082,"0.0-4.101-1.101","c3k8ghaur9zoo2h",845,"188.csv","","null","resources/maskTrios/BT2B.jpg","null","",NA,NA,NA,NA,""
"image-keyboard-response",317,498286,"0.0-4.101-2.101","c3k8ghaur9zoo2h",845,"188.csv","","null","resources/images/coin2.png","null","",NA,NA,NA,NA,""
"image-keyboard-response",318,498583,"0.0-4.102-0.102","c3k8ghaur9zoo2h",845,"188.csv","","295.5","resources/trios/L4T2A3.jpg","38","restless",0.3,0.7,0.6,0.232899410355378,"true"
"image-keyboard-response",319,498992,"0.0-4.102-1.102","c3k8ghaur9zoo2h",845,"188.csv","","null","resources/maskTrios/BT2B.jpg","null","",NA,NA,NA,NA,""
"image-keyboard-response",320,500201,"0.0-4.102-2.102","c3k8ghaur9zoo2h",845,"188.csv","","null","resources/images/coin2.png","null","",NA,NA,NA,NA,""
"image-keyboard-response",321,500659,"0.0-4.103-0.103","c3k8ghaur9zoo2h",845,"188.csv","","456.60000014305115","resources/trios/L4T2A3.jpg","38","restless",0.4,0.8,0.6,0.824886774343889,"false"
"image-keyboard-response",322,501063,"0.0-4.103-1.103","c3k8ghaur9zoo2h",845,"188.csv","","null","resources/maskTrios/BT2B.jpg","null","",NA,NA,NA,NA,""
"image-keyboard-response",323,502272,"0.0-4.103-2.103","c3k8ghaur9zoo2h",845,"188.csv","","null","resources/images/fishbone.png","null","",NA,NA,NA,NA,""
"image-keyboard-response",324,502748,"0.0-4.104-0.104","c3k8ghaur9zoo2h",845,"188.csv","","474.80000019073486","resources/trios/L4T2A3.jpg","39","restless",0.4,0.8,0.6,0.306402707332662,"true"
"image-keyboard-response",325,503163,"0.0-4.104-1.104","c3k8ghaur9zoo2h",845,"188.csv","","null","resources/maskTrios/BBA3.jpg","null","",NA,NA,NA,NA,""
"image-keyboard-response",326,504364,"0.0-4.104-2.104","c3k8ghaur9zoo2h",845,"188.csv","","null","resources/images/coin2.png","null","",NA,NA,NA,NA,""
"image-keyboard-response",327,504652,"0.0-4.105-0.105","c3k8ghaur9zoo2h",845,"188.csv","","286.80000019073486","resources/trios/L4T2A3.jpg","39","restless",0.4,0.9,0.6,0.0773922242209086,"true"
"image-keyboard-response",328,505066,"0.0-4.105-1.105","c3k8ghaur9zoo2h",845,"188.csv","","null","resources/maskTrios/BBA3.jpg","null","",NA,NA,NA,NA,""
"image-keyboard-response",329,506277,"0.0-4.105-2.105","c3k8ghaur9zoo2h",845,"188.csv","","null","resources/images/coin2.png","null","",NA,NA,NA,NA,""
"image-keyboard-response",330,506564,"0.0-4.106-0.106","c3k8ghaur9zoo2h",845,"188.csv","","286","resources/trios/L4T2A3.jpg","39","restless",0.4,0.9,0.6,0.266910457191821,"true"
"image-keyboard-response",331,506969,"0.0-4.106-1.106","c3k8ghaur9zoo2h",845,"188.csv","","null","resources/maskTrios/BBA3.jpg","null","",NA,NA,NA,NA,""
"image-keyboard-response",332,508173,"0.0-4.106-2.106","c3k8ghaur9zoo2h",845,"188.csv","","null","resources/images/coin2.png","null","",NA,NA,NA,NA,""
"image-keyboard-response",333,508500,"0.0-4.107-0.107","c3k8ghaur9zoo2h",845,"188.csv","","325.5","resources/trios/L4T2A3.jpg","39","restless",0.4,0.8,0.6,0.289974129540112,"true"
"image-keyboard-response",334,508910,"0.0-4.107-1.107","c3k8ghaur9zoo2h",845,"188.csv","","null","resources/maskTrios/BBA3.jpg","null","",NA,NA,NA,NA,""
"image-keyboard-response",335,510113,"0.0-4.107-2.107","c3k8ghaur9zoo2h",845,"188.csv","","null","resources/images/coin2.png","null","",NA,NA,NA,NA,""
"image-keyboard-response",336,510353,"0.0-4.108-0.108","c3k8ghaur9zoo2h",845,"188.csv","","238.90000009536743","resources/trios/L4T2A3.jpg","39","restless",0.4,0.8,0.6,0.929903319577665,"false"
"image-keyboard-response",337,510770,"0.0-4.108-1.108","c3k8ghaur9zoo2h",845,"188.csv","","null","resources/maskTrios/BBA3.jpg","null","",NA,NA,NA,NA,""
"image-keyboard-response",338,511973,"0.0-4.108-2.108","c3k8ghaur9zoo2h",845,"188.csv","","null","resources/images/fishbone.png","null","",NA,NA,NA,NA,""
"image-keyboard-response",339,512236,"0.0-4.109-0.109","c3k8ghaur9zoo2h",845,"188.csv","","261.7999999523163","resources/trios/L4T2A3.jpg","37","restless",0.4,0.8,0.6,0.654613552481152,"false"
"image-keyboard-response",340,512646,"0.0-4.109-1.109","c3k8ghaur9zoo2h",845,"188.csv","","null","resources/maskTrios/L4BB.jpg","null","",NA,NA,NA,NA,""
"image-keyboard-response",341,513863,"0.0-4.109-2.109","c3k8ghaur9zoo2h",845,"188.csv","","null","resources/images/fishbone.png","null","",NA,NA,NA,NA,""
"image-keyboard-response",342,514228,"0.0-4.110-0.110","c3k8ghaur9zoo2h",845,"188.csv","","363.39999985694885","resources/trios/L4T2A3.jpg","38","restless",0.4,0.8,0.6,0.0181869685407761,"true"
"image-keyboard-response",343,514645,"0.0-4.110-1.110","c3k8ghaur9zoo2h",845,"188.csv","","null","resources/maskTrios/BT2B.jpg","null","",NA,NA,NA,NA,""
"image-keyboard-response",344,515853,"0.0-4.110-2.110","c3k8ghaur9zoo2h",845,"188.csv","","null","resources/images/coin2.png","null","",NA,NA,NA,NA,""
"image-keyboard-response",345,523420,"0.0-4.111-0.111","c3k8ghaur9zoo2h",845,"188.csv","","7565","resources/trios/L4T2A3.jpg","37","restless",0.4,0.8,0.5,0.546758146843831,"false"
"image-keyboard-response",346,523838,"0.0-4.111-1.111","c3k8ghaur9zoo2h",845,"188.csv","","null","resources/maskTrios/L4BB.jpg","null","",NA,NA,NA,NA,""
"image-keyboard-response",347,525041,"0.0-4.111-2.111","c3k8ghaur9zoo2h",845,"188.csv","","null","resources/images/fishbone.png","null","",NA,NA,NA,NA,""
"image-keyboard-response",348,525240,"0.0-4.112-0.112","c3k8ghaur9zoo2h",845,"188.csv","","197","resources/trios/L4T2A3.jpg","38","restless",0.4,0.8,0.5,0.365672547919799,"true"
"image-keyboard-response",349,525654,"0.0-4.112-1.112","c3k8ghaur9zoo2h",845,"188.csv","","null","resources/maskTrios/BT2B.jpg","null","",NA,NA,NA,NA,""
"image-keyboard-response",350,526859,"0.0-4.112-2.112","c3k8ghaur9zoo2h",845,"188.csv","","null","resources/images/coin2.png","null","",NA,NA,NA,NA,""
"image-keyboard-response",351,527187,"0.0-4.113-0.113","c3k8ghaur9zoo2h",845,"188.csv","","325.7000000476837","resources/trios/L4T2A3.jpg","38","restless",0.4,0.8,0.5,0.827254449632935,"false"
"image-keyboard-response",352,527594,"0.0-4.113-1.113","c3k8ghaur9zoo2h",845,"188.csv","","null","resources/maskTrios/BT2B.jpg","null","",NA,NA,NA,NA,""
"image-keyboard-response",353,528811,"0.0-4.113-2.113","c3k8ghaur9zoo2h",845,"188.csv","","null","resources/images/fishbone.png","null","",NA,NA,NA,NA,""
"image-keyboard-response",354,528992,"0.0-4.114-0.114","c3k8ghaur9zoo2h",845,"188.csv","","179.40000009536743","resources/trios/L4T2A3.jpg","39","restless",0.4,0.8,0.5,0.068262560506154,"true"
"image-keyboard-response",355,529407,"0.0-4.114-1.114","c3k8ghaur9zoo2h",845,"188.csv","","null","resources/maskTrios/BBA3.jpg","null","",NA,NA,NA,NA,""
"image-keyboard-response",356,530613,"0.0-4.114-2.114","c3k8ghaur9zoo2h",845,"188.csv","","null","resources/images/coin2.png","null","",NA,NA,NA,NA,""
"image-keyboard-response",357,530789,"0.0-4.115-0.115","c3k8ghaur9zoo2h",845,"188.csv","","172.79999995231628","resources/trios/L4T2A3.jpg","39","restless",0.4,0.8,0.5,0.906218740228174,"false"
"image-keyboard-response",358,531195,"0.0-4.115-1.115","c3k8ghaur9zoo2h",845,"188.csv","","null","resources/maskTrios/BBA3.jpg","null","",NA,NA,NA,NA,""
"image-keyboard-response",359,532399,"0.0-4.115-2.115","c3k8ghaur9zoo2h",845,"188.csv","","null","resources/images/fishbone.png","null","",NA,NA,NA,NA,""
"image-keyboard-response",360,532692,"0.0-4.116-0.116","c3k8ghaur9zoo2h",845,"188.csv","","291.7999999523163","resources/trios/L4T2A3.jpg","37","restless",0.4,0.8,0.5,0.554886125017253,"false"
"image-keyboard-response",361,533105,"0.0-4.116-1.116","c3k8ghaur9zoo2h",845,"188.csv","","null","resources/maskTrios/L4BB.jpg","null","",NA,NA,NA,NA,""
"image-keyboard-response",362,534314,"0.0-4.116-2.116","c3k8ghaur9zoo2h",845,"188.csv","","null","resources/images/fishbone.png","null","",NA,NA,NA,NA,""
"image-keyboard-response",363,534600,"0.0-4.117-0.117","c3k8ghaur9zoo2h",845,"188.csv","","285.2000000476837","resources/trios/L4T2A3.jpg","38","restless",0.3,0.7,0.5,0.983136660683592,"false"
"image-keyboard-response",364,535018,"0.0-4.117-1.117","c3k8ghaur9zoo2h",845,"188.csv","","null","resources/maskTrios/BT2B.jpg","null","",NA,NA,NA,NA,""
"image-keyboard-response",365,536222,"0.0-4.117-2.117","c3k8ghaur9zoo2h",845,"188.csv","","null","resources/images/fishbone.png","null","",NA,NA,NA,NA,""
"image-keyboard-response",366,536611,"0.0-4.118-0.118","c3k8ghaur9zoo2h",845,"188.csv","","388.40000009536743","resources/trios/L4T2A3.jpg","39","restless",0.3,0.7,0.5,0.820489702058148,"false"
"image-keyboard-response",367,537019,"0.0-4.118-1.118","c3k8ghaur9zoo2h",845,"188.csv","","null","resources/maskTrios/BBA3.jpg","null","",NA,NA,NA,NA,""
"image-keyboard-response",368,538229,"0.0-4.118-2.118","c3k8ghaur9zoo2h",845,"188.csv","","null","resources/images/fishbone.png","null","",NA,NA,NA,NA,""
"image-keyboard-response",369,548352,"0.0-4.119-0.119","c3k8ghaur9zoo2h",845,"188.csv","","10121.5","resources/trios/L4T2A3.jpg","37","restless",0.3,0.7,0.5,0.170480565124131,"true"
"image-keyboard-response",370,548762,"0.0-4.119-1.119","c3k8ghaur9zoo2h",845,"188.csv","","null","resources/maskTrios/L4BB.jpg","null","",NA,NA,NA,NA,""
"image-keyboard-response",371,549978,"0.0-4.119-2.119","c3k8ghaur9zoo2h",845,"188.csv","","null","resources/images/coin2.png","null","",NA,NA,NA,NA,""
"image-keyboard-response",372,550268,"0.0-4.120-0.120","c3k8ghaur9zoo2h",845,"188.csv","","289","resources/trios/L4T2A3.jpg","37","restless",0.3,0.7,0.5,0.923940645201425,"false"
"image-keyboard-response",373,550682,"0.0-4.120-1.120","c3k8ghaur9zoo2h",845,"188.csv","","null","resources/maskTrios/L4BB.jpg","null","",NA,NA,NA,NA,""
"image-keyboard-response",374,551884,"0.0-4.120-2.120","c3k8ghaur9zoo2h",845,"188.csv","","null","resources/images/fishbone.png","null","",NA,NA,NA,NA,""
"image-keyboard-response",375,552031,"0.0-4.121-0.121","c3k8ghaur9zoo2h",845,"188.csv","","146","resources/trios/L4T2A3.jpg","38","restless",0.2,0.7,0.5,0.0756581856405367,"true"
"image-keyboard-response",376,552446,"0.0-4.121-1.121","c3k8ghaur9zoo2h",845,"188.csv","","null","resources/maskTrios/BT2B.jpg","null","",NA,NA,NA,NA,""
"image-keyboard-response",377,553657,"0.0-4.121-2.121","c3k8ghaur9zoo2h",845,"188.csv","","null","resources/images/coin2.png","null","",NA,NA,NA,NA,""
"image-keyboard-response",378,554088,"0.0-4.122-0.122","c3k8ghaur9zoo2h",845,"188.csv","","426.5","resources/trios/L4T2A3.jpg","38","restless",0.3,0.7,0.5,0.699827494621754,"true"
"image-keyboard-response",379,554500,"0.0-4.122-1.122","c3k8ghaur9zoo2h",845,"188.csv","","null","resources/maskTrios/BT2B.jpg","null","",NA,NA,NA,NA,""
"image-keyboard-response",380,555706,"0.0-4.122-2.122","c3k8ghaur9zoo2h",845,"188.csv","","null","resources/images/coin2.png","null","",NA,NA,NA,NA,""
"image-keyboard-response",381,556088,"0.0-4.123-0.123","c3k8ghaur9zoo2h",845,"188.csv","","380.30000019073486","resources/trios/L4T2A3.jpg","38","restless",0.3,0.7,0.5,0.834382038980411,"false"
"image-keyboard-response",382,556503,"0.0-4.123-1.123","c3k8ghaur9zoo2h",845,"188.csv","","null","resources/maskTrios/BT2B.jpg","null","",NA,NA,NA,NA,""
"image-keyboard-response",383,557708,"0.0-4.123-2.123","c3k8ghaur9zoo2h",845,"188.csv","","null","resources/images/fishbone.png","null","",NA,NA,NA,NA,""
"image-keyboard-response",384,557962,"0.0-4.124-0.124","c3k8ghaur9zoo2h",845,"188.csv","","252.90000009536743","resources/trios/L4T2A3.jpg","39","restless",0.3,0.7,0.5,0.211430411783669,"true"
"image-keyboard-response",385,558368,"0.0-4.124-1.124","c3k8ghaur9zoo2h",845,"188.csv","","null","resources/maskTrios/BBA3.jpg","null","",NA,NA,NA,NA,""
"image-keyboard-response",386,559575,"0.0-4.124-2.124","c3k8ghaur9zoo2h",845,"188.csv","","null","resources/images/coin2.png","null","",NA,NA,NA,NA,""
"image-keyboard-response",387,560044,"0.0-4.125-0.125","c3k8ghaur9zoo2h",845,"188.csv","","467.40000009536743","resources/trios/L4T2A3.jpg","39","restless",0.3,0.7,0.5,0.531760328440911,"false"
"image-keyboard-response",388,560450,"0.0-4.125-1.125","c3k8ghaur9zoo2h",845,"188.csv","","null","resources/maskTrios/BBA3.jpg","null","",NA,NA,NA,NA,""
"image-keyboard-response",389,561661,"0.0-4.125-2.125","c3k8ghaur9zoo2h",845,"188.csv","","null","resources/images/fishbone.png","null","",NA,NA,NA,NA,""
"image-keyboard-response",390,561944,"0.0-4.126-0.126","c3k8ghaur9zoo2h",845,"188.csv","","281.5","resources/trios/L4T2A3.jpg","37","restless",0.3,0.7,0.5,0.0988112328069997,"true"
"image-keyboard-response",391,562347,"0.0-4.126-1.126","c3k8ghaur9zoo2h",845,"188.csv","","null","resources/maskTrios/L4BB.jpg","null","",NA,NA,NA,NA,""
"image-keyboard-response",392,563557,"0.0-4.126-2.126","c3k8ghaur9zoo2h",845,"188.csv","","null","resources/images/coin2.png","null","",NA,NA,NA,NA,""
"image-keyboard-response",393,563988,"0.0-4.127-0.127","c3k8ghaur9zoo2h",845,"188.csv","","429.80000019073486","resources/trios/L4T2A3.jpg","37","restless",0.3,0.7,0.5,0.537983035363292,"false"
"image-keyboard-response",394,564403,"0.0-4.127-1.127","c3k8ghaur9zoo2h",845,"188.csv","","null","resources/maskTrios/L4BB.jpg","null","",NA,NA,NA,NA,""
"image-keyboard-response",395,565610,"0.0-4.127-2.127","c3k8ghaur9zoo2h",845,"188.csv","","null","resources/images/fishbone.png","null","",NA,NA,NA,NA,""
"image-keyboard-response",396,565808,"0.0-4.128-0.128","c3k8ghaur9zoo2h",845,"188.csv","","196.29999995231628","resources/trios/L4T2A3.jpg","38","restless",0.3,0.7,0.5,0.760312012929236,"false"
"image-keyboard-response",397,566222,"0.0-4.128-1.128","c3k8ghaur9zoo2h",845,"188.csv","","null","resources/maskTrios/BT2B.jpg","null","",NA,NA,NA,NA,""
"image-keyboard-response",398,567427,"0.0-4.128-2.128","c3k8ghaur9zoo2h",845,"188.csv","","null","resources/images/fishbone.png","null","",NA,NA,NA,NA,""
"image-keyboard-response",399,567476,"0.0-4.129-0.129","c3k8ghaur9zoo2h",845,"188.csv","","47.5","resources/trios/L4T2A3.jpg","39","restless",0.3,0.7,0.5,0.390146728750349,"true"
"image-keyboard-response",400,567880,"0.0-4.129-1.129","c3k8ghaur9zoo2h",845,"188.csv","","null","resources/maskTrios/BBA3.jpg","null","",NA,NA,NA,NA,""
"image-keyboard-response",401,569091,"0.0-4.129-2.129","c3k8ghaur9zoo2h",845,"188.csv","","null","resources/images/coin2.png","null","",NA,NA,NA,NA,""
"image-keyboard-response",402,569481,"0.0-4.130-0.130","c3k8ghaur9zoo2h",845,"188.csv","","388.40000009536743","resources/trios/L4T2A3.jpg","39","restless",0.3,0.7,0.5,0.400729991019741,"true"
"image-keyboard-response",403,569884,"0.0-4.130-1.130","c3k8ghaur9zoo2h",845,"188.csv","","null","resources/maskTrios/BBA3.jpg","null","",NA,NA,NA,NA,""
"image-keyboard-response",404,571087,"0.0-4.130-2.130","c3k8ghaur9zoo2h",845,"188.csv","","null","resources/images/coin2.png","null","",NA,NA,NA,NA,""
"image-keyboard-response",405,571284,"0.0-4.131-0.131","c3k8ghaur9zoo2h",845,"188.csv","","194.89999985694885","resources/trios/L4T2A3.jpg","39","restless",0.3,0.7,0.4,0.795465360432029,"false"
"image-keyboard-response",406,571696,"0.0-4.131-1.131","c3k8ghaur9zoo2h",845,"188.csv","","null","resources/maskTrios/BBA3.jpg","null","",NA,NA,NA,NA,""
"image-keyboard-response",407,572901,"0.0-4.131-2.131","c3k8ghaur9zoo2h",845,"188.csv","","null","resources/images/fishbone.png","null","",NA,NA,NA,NA,""
"image-keyboard-response",408,573456,"0.0-4.132-0.132","c3k8ghaur9zoo2h",845,"188.csv","","553.6000001430511","resources/trios/L4T2A3.jpg","39","restless",0.2,0.7,0.4,0.146154151716337,"true"
"image-keyboard-response",409,573873,"0.0-4.132-1.132","c3k8ghaur9zoo2h",845,"188.csv","","null","resources/maskTrios/BBA3.jpg","null","",NA,NA,NA,NA,""
"image-keyboard-response",410,575076,"0.0-4.132-2.132","c3k8ghaur9zoo2h",845,"188.csv","","null","resources/images/coin2.png","null","",NA,NA,NA,NA,""
"image-keyboard-response",411,575340,"0.0-4.133-0.133","c3k8ghaur9zoo2h",845,"188.csv","","261.7999999523163","resources/trios/L4T2A3.jpg","39","restless",0.2,0.7,0.4,0.391991485809199,"true"
"image-keyboard-response",412,575751,"0.0-4.133-1.133","c3k8ghaur9zoo2h",845,"188.csv","","null","resources/maskTrios/BBA3.jpg","null","",NA,NA,NA,NA,""
"image-keyboard-response",413,576957,"0.0-4.133-2.133","c3k8ghaur9zoo2h",845,"188.csv","","null","resources/images/coin2.png","null","",NA,NA,NA,NA,""
"image-keyboard-response",414,577304,"0.0-4.134-0.134","c3k8ghaur9zoo2h",845,"188.csv","","345.7999999523163","resources/trios/L4T2A3.jpg","39","restless",0.2,0.7,0.4,0.939166547658279,"false"
"image-keyboard-response",415,577710,"0.0-4.134-1.134","c3k8ghaur9zoo2h",845,"188.csv","","null","resources/maskTrios/BBA3.jpg","null","",NA,NA,NA,NA,""
"image-keyboard-response",416,578913,"0.0-4.134-2.134","c3k8ghaur9zoo2h",845,"188.csv","","null","resources/images/fishbone.png","null","",NA,NA,NA,NA,""
"image-keyboard-response",417,579036,"0.0-4.135-0.135","c3k8ghaur9zoo2h",845,"188.csv","","122","resources/trios/L4T2A3.jpg","38","restless",0.2,0.7,0.4,0.173349199028467,"true"
"image-keyboard-response",418,579444,"0.0-4.135-1.135","c3k8ghaur9zoo2h",845,"188.csv","","null","resources/maskTrios/BT2B.jpg","null","",NA,NA,NA,NA,""
"image-keyboard-response",419,580654,"0.0-4.135-2.135","c3k8ghaur9zoo2h",845,"188.csv","","null","resources/images/coin2.png","null","",NA,NA,NA,NA,""
"image-keyboard-response",420,580880,"0.0-4.136-0.136","c3k8ghaur9zoo2h",845,"188.csv","","224.70000004768372","resources/trios/L4T2A3.jpg","38","restless",0.2,0.7,0.4,0.938657202499519,"false"
"image-keyboard-response",421,581298,"0.0-4.136-1.136","c3k8ghaur9zoo2h",845,"188.csv","","null","resources/maskTrios/BT2B.jpg","null","",NA,NA,NA,NA,""
"image-keyboard-response",422,582504,"0.0-4.136-2.136","c3k8ghaur9zoo2h",845,"188.csv","","null","resources/images/fishbone.png","null","",NA,NA,NA,NA,""
"image-keyboard-response",423,582732,"0.0-4.137-0.137","c3k8ghaur9zoo2h",845,"188.csv","","226.5","resources/trios/L4T2A3.jpg","37","restless",0.2,0.7,0.4,0.0245774684502982,"true"
"image-keyboard-response",424,583143,"0.0-4.137-1.137","c3k8ghaur9zoo2h",845,"188.csv","","null","resources/maskTrios/L4BB.jpg","null","",NA,NA,NA,NA,""
"image-keyboard-response",425,584346,"0.0-4.137-2.137","c3k8ghaur9zoo2h",845,"188.csv","","null","resources/images/coin2.png","null","",NA,NA,NA,NA,""
"image-keyboard-response",426,585276,"0.0-4.138-0.138","c3k8ghaur9zoo2h",845,"188.csv","","928.8000001907349","resources/trios/L4T2A3.jpg","37","restless",0.2,0.7,0.4,0.531390731140178,"false"
"image-keyboard-response",427,585682,"0.0-4.138-1.138","c3k8ghaur9zoo2h",845,"188.csv","","null","resources/maskTrios/L4BB.jpg","null","",NA,NA,NA,NA,""
"image-keyboard-response",428,586886,"0.0-4.138-2.138","c3k8ghaur9zoo2h",845,"188.csv","","null","resources/images/fishbone.png","null","",NA,NA,NA,NA,""
"image-keyboard-response",429,587282,"0.0-4.139-0.139","c3k8ghaur9zoo2h",845,"188.csv","","394.40000009536743","resources/trios/L4T2A3.jpg","38","restless",0.2,0.7,0.4,0.10057474939547,"true"
"image-keyboard-response",430,587689,"0.0-4.139-1.139","c3k8ghaur9zoo2h",845,"188.csv","","null","resources/maskTrios/BT2B.jpg","null","",NA,NA,NA,NA,""
"image-keyboard-response",431,588895,"0.0-4.139-2.139","c3k8ghaur9zoo2h",845,"188.csv","","null","resources/images/coin2.png","null","",NA,NA,NA,NA,""
"image-keyboard-response",432,589156,"0.0-4.140-0.140","c3k8ghaur9zoo2h",845,"188.csv","","259.40000009536743","resources/trios/L4T2A3.jpg","38","restless",0.2,0.7,0.4,0.686749319180273,"true"
"image-keyboard-response",433,589567,"0.0-4.140-1.140","c3k8ghaur9zoo2h",845,"188.csv","","null","resources/maskTrios/BT2B.jpg","null","",NA,NA,NA,NA,""
"image-keyboard-response",434,590770,"0.0-4.140-2.140","c3k8ghaur9zoo2h",845,"188.csv","","null","resources/images/coin2.png","null","",NA,NA,NA,NA,""
"image-keyboard-response",435,591140,"0.0-4.141-0.141","c3k8ghaur9zoo2h",845,"188.csv","","368.2999999523163","resources/trios/L4T2A3.jpg","38","restless",0.2,0.7,0.4,0.472106672283179,"true"
"image-keyboard-response",436,591551,"0.0-4.141-1.141","c3k8ghaur9zoo2h",845,"188.csv","","null","resources/maskTrios/BT2B.jpg","null","",NA,NA,NA,NA,""
"image-keyboard-response",437,592755,"0.0-4.141-2.141","c3k8ghaur9zoo2h",845,"188.csv","","null","resources/images/coin2.png","null","",NA,NA,NA,NA,""
"image-keyboard-response",438,593320,"0.0-4.142-0.142","c3k8ghaur9zoo2h",845,"188.csv","","563.5","resources/trios/L4T2A3.jpg","38","restless",0.2,0.7,0.4,0.0700056482158915,"true"
"image-keyboard-response",439,593725,"0.0-4.142-1.142","c3k8ghaur9zoo2h",845,"188.csv","","null","resources/maskTrios/BT2B.jpg","null","",NA,NA,NA,NA,""
"image-keyboard-response",440,594928,"0.0-4.142-2.142","c3k8ghaur9zoo2h",845,"188.csv","","null","resources/images/coin2.png","null","",NA,NA,NA,NA,""
"image-keyboard-response",441,595308,"0.0-4.143-0.143","c3k8ghaur9zoo2h",845,"188.csv","","377.89999985694885","resources/trios/L4T2A3.jpg","38","restless",0.2,0.6,0.4,0.49541391609606,"true"
"image-keyboard-response",442,595723,"0.0-4.143-1.143","c3k8ghaur9zoo2h",845,"188.csv","","null","resources/maskTrios/BT2B.jpg","null","",NA,NA,NA,NA,""
"image-keyboard-response",443,596931,"0.0-4.143-2.143","c3k8ghaur9zoo2h",845,"188.csv","","null","resources/images/coin2.png","null","",NA,NA,NA,NA,""
"image-keyboard-response",444,597252,"0.0-4.144-0.144","c3k8ghaur9zoo2h",845,"188.csv","","319.7000000476837","resources/trios/L4T2A3.jpg","38","restless",0.2,0.6,0.4,0.26742538162163,"true"
"image-keyboard-response",445,597668,"0.0-4.144-1.144","c3k8ghaur9zoo2h",845,"188.csv","","null","resources/maskTrios/BT2B.jpg","null","",NA,NA,NA,NA,""
"image-keyboard-response",446,598876,"0.0-4.144-2.144","c3k8ghaur9zoo2h",845,"188.csv","","null","resources/images/coin2.png","null","",NA,NA,NA,NA,""
"image-keyboard-response",447,599092,"0.0-4.145-0.145","c3k8ghaur9zoo2h",845,"188.csv","","214.70000004768372","resources/trios/L4T2A3.jpg","38","restless",0.2,0.6,0.4,0.865624251452727,"false"
"image-keyboard-response",448,599498,"0.0-4.145-1.145","c3k8ghaur9zoo2h",845,"188.csv","","null","resources/maskTrios/BT2B.jpg","null","",NA,NA,NA,NA,""
"image-keyboard-response",449,600700,"0.0-4.145-2.145","c3k8ghaur9zoo2h",845,"188.csv","","null","resources/images/fishbone.png","null","",NA,NA,NA,NA,""
"image-keyboard-response",450,600948,"0.0-4.146-0.146","c3k8ghaur9zoo2h",845,"188.csv","","247.10000014305115","resources/trios/L4T2A3.jpg","39","restless",0.2,0.6,0.4,0.108406656895365,"true"
"image-keyboard-response",451,601354,"0.0-4.146-1.146","c3k8ghaur9zoo2h",845,"188.csv","","null","resources/maskTrios/BBA3.jpg","null","",NA,NA,NA,NA,""
"image-keyboard-response",452,602564,"0.0-4.146-2.146","c3k8ghaur9zoo2h",845,"188.csv","","null","resources/images/coin2.png","null","",NA,NA,NA,NA,""
"image-keyboard-response",453,602963,"0.0-4.147-0.147","c3k8ghaur9zoo2h",845,"188.csv","","397.90000009536743","resources/trios/L4T2A3.jpg","39","restless",0.2,0.6,0.4,0.539645566457107,"false"
"image-keyboard-response",454,603380,"0.0-4.147-1.147","c3k8ghaur9zoo2h",845,"188.csv","","null","resources/maskTrios/BBA3.jpg","null","",NA,NA,NA,NA,""
"image-keyboard-response",455,604596,"0.0-4.147-2.147","c3k8ghaur9zoo2h",845,"188.csv","","null","resources/images/fishbone.png","null","",NA,NA,NA,NA,""
"image-keyboard-response",456,604800,"0.0-4.148-0.148","c3k8ghaur9zoo2h",845,"188.csv","","201.89999985694885","resources/trios/L4T2A3.jpg","37","restless",0.1,0.5,0.5,0.383600148879749,"false"
"image-keyboard-response",457,605208,"0.0-4.148-1.148","c3k8ghaur9zoo2h",845,"188.csv","","null","resources/maskTrios/L4BB.jpg","null","",NA,NA,NA,NA,""
"image-keyboard-response",458,606416,"0.0-4.148-2.148","c3k8ghaur9zoo2h",845,"188.csv","","null","resources/images/fishbone.png","null","",NA,NA,NA,NA,""
"image-keyboard-response",459,606636,"0.0-4.149-0.149","c3k8ghaur9zoo2h",845,"188.csv","","218.69999980926514","resources/trios/L4T2A3.jpg","38","restless",0.1,0.5,0.5,0.858885630751869,"false"
"image-keyboard-response",460,607045,"0.0-4.149-1.149","c3k8ghaur9zoo2h",845,"188.csv","","null","resources/maskTrios/BT2B.jpg","null","",NA,NA,NA,NA,""
"image-keyboard-response",461,608257,"0.0-4.149-2.149","c3k8ghaur9zoo2h",845,"188.csv","","null","resources/images/fishbone.png","null","",NA,NA,NA,NA,""
"image-keyboard-response",462,608448,"0.0-4.150-0.150","c3k8ghaur9zoo2h",845,"188.csv","","189.90000009536743","resources/trios/L4T2A3.jpg","39","restless",0.1,0.5,0.6,0.511705421521666,"true"
"image-keyboard-response",463,608852,"0.0-4.150-1.150","c3k8ghaur9zoo2h",845,"188.csv","","null","resources/maskTrios/BBA3.jpg","null","",NA,NA,NA,NA,""
"image-keyboard-response",464,610055,"0.0-4.150-2.150","c3k8ghaur9zoo2h",845,"188.csv","","null","resources/images/coin2.png","null","",NA,NA,NA,NA,""
"image-keyboard-response",465,610592,"0.0-4.151-0.151","c3k8ghaur9zoo2h",845,"188.csv","","535.8999998569489","resources/trios/L4T2A3.jpg","39","restless",0.1,0.5,0.6,0.101387373368633,"true"
"image-keyboard-response",466,611009,"0.0-4.151-1.151","c3k8ghaur9zoo2h",845,"188.csv","","null","resources/maskTrios/BBA3.jpg","null","",NA,NA,NA,NA,""
"image-keyboard-response",467,612216,"0.0-4.151-2.151","c3k8ghaur9zoo2h",845,"188.csv","","null","resources/images/coin2.png","null","",NA,NA,NA,NA,""
"image-keyboard-response",468,612876,"0.0-4.152-0.152","c3k8ghaur9zoo2h",845,"188.csv","","658.6999998092651","resources/trios/L4T2A3.jpg","37","restless",0.1,0.5,0.6,0.0384435114435173,"true"
"image-keyboard-response",469,613294,"0.0-4.152-1.152","c3k8ghaur9zoo2h",845,"188.csv","","null","resources/maskTrios/L4BB.jpg","null","",NA,NA,NA,NA,""
"image-keyboard-response",470,614503,"0.0-4.152-2.152","c3k8ghaur9zoo2h",845,"188.csv","","null","resources/images/coin2.png","null","",NA,NA,NA,NA,""
"image-keyboard-response",471,614900,"0.0-4.153-0.153","c3k8ghaur9zoo2h",845,"188.csv","","395.40000009536743","resources/trios/L4T2A3.jpg","37","restless",0.1,0.6,0.6,0.812733993115527,"false"
"image-keyboard-response",472,615317,"0.0-4.153-1.153","c3k8ghaur9zoo2h",845,"188.csv","","null","resources/maskTrios/L4BB.jpg","null","",NA,NA,NA,NA,""
"image-keyboard-response",473,616524,"0.0-4.153-2.153","c3k8ghaur9zoo2h",845,"188.csv","","null","resources/images/fishbone.png","null","",NA,NA,NA,NA,""
"image-keyboard-response",474,617013,"0.0-4.154-0.154","c3k8ghaur9zoo2h",845,"188.csv","","487.2999999523163","resources/trios/L4T2A3.jpg","37","restless",0.1,0.6,0.6,0.339580145333889,"false"
"image-keyboard-response",475,617419,"0.0-4.154-1.154","c3k8ghaur9zoo2h",845,"188.csv","","null","resources/maskTrios/L4BB.jpg","null","",NA,NA,NA,NA,""
"image-keyboard-response",476,618631,"0.0-4.154-2.154","c3k8ghaur9zoo2h",845,"188.csv","","null","resources/images/fishbone.png","null","",NA,NA,NA,NA,""
"image-keyboard-response",477,619684,"0.0-4.155-0.155","c3k8ghaur9zoo2h",845,"188.csv","","1051.2999999523163","resources/trios/L4T2A3.jpg","37","restless",0.1,0.6,0.5,0.957627038094351,"false"
"image-keyboard-response",478,620087,"0.0-4.155-1.155","c3k8ghaur9zoo2h",845,"188.csv","","null","resources/maskTrios/L4BB.jpg","null","",NA,NA,NA,NA,""
"image-keyboard-response",479,621296,"0.0-4.155-2.155","c3k8ghaur9zoo2h",845,"188.csv","","null","resources/images/fishbone.png","null","",NA,NA,NA,NA,""
"image-keyboard-response",480,622092,"0.0-4.156-0.156","c3k8ghaur9zoo2h",845,"188.csv","","794.5","resources/trios/L4T2A3.jpg","38","restless",0.1,0.6,0.5,0.0397938907734292,"true"
"image-keyboard-response",481,622501,"0.0-4.156-1.156","c3k8ghaur9zoo2h",845,"188.csv","","null","resources/maskTrios/BT2B.jpg","null","",NA,NA,NA,NA,""
"image-keyboard-response",482,623711,"0.0-4.156-2.156","c3k8ghaur9zoo2h",845,"188.csv","","null","resources/images/coin2.png","null","",NA,NA,NA,NA,""
"image-keyboard-response",483,624220,"0.0-4.157-0.157","c3k8ghaur9zoo2h",845,"188.csv","","507.2000000476837","resources/trios/L4T2A3.jpg","38","restless",0.1,0.6,0.5,0.762019995571664,"false"
"image-keyboard-response",484,624623,"0.0-4.157-1.157","c3k8ghaur9zoo2h",845,"188.csv","","null","resources/maskTrios/BT2B.jpg","null","",NA,NA,NA,NA,""
"image-keyboard-response",485,625834,"0.0-4.157-2.157","c3k8ghaur9zoo2h",845,"188.csv","","null","resources/images/fishbone.png","null","",NA,NA,NA,NA,""
"image-keyboard-response",486,626192,"0.0-4.158-0.158","c3k8ghaur9zoo2h",845,"188.csv","","356.09999990463257","resources/trios/L4T2A3.jpg","39","restless",0.1,0.6,0.5,0.846673887024946,"false"
"image-keyboard-response",487,626602,"0.0-4.158-1.158","c3k8ghaur9zoo2h",845,"188.csv","","null","resources/maskTrios/BBA3.jpg","null","",NA,NA,NA,NA,""
"image-keyboard-response",488,627814,"0.0-4.158-2.158","c3k8ghaur9zoo2h",845,"188.csv","","null","resources/images/fishbone.png","null","",NA,NA,NA,NA,""
"image-keyboard-response",489,628032,"0.0-4.159-0.159","c3k8ghaur9zoo2h",845,"188.csv","","217.40000009536743","resources/trios/L4T2A3.jpg","37","restless",0.1,0.6,0.5,0.227670249904222,"false"
"image-keyboard-response",490,628437,"0.0-4.159-1.159","c3k8ghaur9zoo2h",845,"188.csv","","null","resources/maskTrios/L4BB.jpg","null","",NA,NA,NA,NA,""
"image-keyboard-response",491,629652,"0.0-4.159-2.159","c3k8ghaur9zoo2h",845,"188.csv","","null","resources/images/fishbone.png","null","",NA,NA,NA,NA,""
"image-keyboard-response",492,629872,"0.0-4.160-0.160","c3k8ghaur9zoo2h",845,"188.csv","","217.60000014305115","resources/trios/L4T2A3.jpg","38","restless",0.1,0.6,0.5,0.682996059749578,"false"
"image-keyboard-response",493,630282,"0.0-4.160-1.160","c3k8ghaur9zoo2h",845,"188.csv","","null","resources/maskTrios/BT2B.jpg","null","",NA,NA,NA,NA,""
"image-keyboard-response",494,631484,"0.0-4.160-2.160","c3k8ghaur9zoo2h",845,"188.csv","","null","resources/images/fishbone.png","null","",NA,NA,NA,NA,""
"image-keyboard-response",495,631844,"0.0-4.161-0.161","c3k8ghaur9zoo2h",845,"188.csv","","358.60000014305115","resources/trios/L4T2A3.jpg","39","restless",0.1,0.6,0.5,0.40066458909,"true"
"image-keyboard-response",496,632257,"0.0-4.161-1.161","c3k8ghaur9zoo2h",845,"188.csv","","null","resources/maskTrios/BBA3.jpg","null","",NA,NA,NA,NA,""
"image-keyboard-response",497,633460,"0.0-4.161-2.161","c3k8ghaur9zoo2h",845,"188.csv","","null","resources/images/coin2.png","null","",NA,NA,NA,NA,""
"image-keyboard-response",498,633704,"0.0-4.162-0.162","c3k8ghaur9zoo2h",845,"188.csv","","242.5","resources/trios/L4T2A3.jpg","39","restless",0.1,0.6,0.5,0.706054234843914,"false"
"image-keyboard-response",499,634118,"0.0-4.162-1.162","c3k8ghaur9zoo2h",845,"188.csv","","null","resources/maskTrios/BBA3.jpg","null","",NA,NA,NA,NA,""
"image-keyboard-response",500,635324,"0.0-4.162-2.162","c3k8ghaur9zoo2h",845,"188.csv","","null","resources/images/fishbone.png","null","",NA,NA,NA,NA,""
"image-keyboard-response",501,635546,"0.0-4.163-0.163","c3k8ghaur9zoo2h",845,"188.csv","","220.89999985694885","resources/trios/L4T2A3.jpg","37","restless",0.2,0.6,0.5,0.387647142994528,"false"
"image-keyboard-response",502,635949,"0.0-4.163-1.163","c3k8ghaur9zoo2h",845,"188.csv","","null","resources/maskTrios/L4BB.jpg","null","",NA,NA,NA,NA,""
"image-keyboard-response",503,637156,"0.0-4.163-2.163","c3k8ghaur9zoo2h",845,"188.csv","","null","resources/images/fishbone.png","null","",NA,NA,NA,NA,""
"image-keyboard-response",504,637456,"0.0-4.164-0.164","c3k8ghaur9zoo2h",845,"188.csv","","299","resources/trios/L4T2A3.jpg","38","restless",0.2,0.6,0.5,0.865731604163353,"false"
"image-keyboard-response",505,637860,"0.0-4.164-1.164","c3k8ghaur9zoo2h",845,"188.csv","","null","resources/maskTrios/BT2B.jpg","null","",NA,NA,NA,NA,""
"image-keyboard-response",506,639075,"0.0-4.164-2.164","c3k8ghaur9zoo2h",845,"188.csv","","null","resources/images/fishbone.png","null","",NA,NA,NA,NA,""
"image-keyboard-response",507,639116,"0.0-4.165-0.165","c3k8ghaur9zoo2h",845,"188.csv","","39.39999985694885","resources/trios/L4T2A3.jpg","39","restless",0.2,0.6,0.5,0.656053916564068,"false"
"image-keyboard-response",508,639529,"0.0-4.165-1.165","c3k8ghaur9zoo2h",845,"188.csv","","null","resources/maskTrios/BBA3.jpg","null","",NA,NA,NA,NA,""
"image-keyboard-response",509,640741,"0.0-4.165-2.165","c3k8ghaur9zoo2h",845,"188.csv","","null","resources/images/fishbone.png","null","",NA,NA,NA,NA,""
"image-keyboard-response",510,641204,"0.0-4.166-0.166","c3k8ghaur9zoo2h",845,"188.csv","","461","resources/trios/L4T2A3.jpg","37","restless",0.3,0.6,0.5,0.825507575105274,"false"
"image-keyboard-response",511,641618,"0.0-4.166-1.166","c3k8ghaur9zoo2h",845,"188.csv","","null","resources/maskTrios/L4BB.jpg","null","",NA,NA,NA,NA,""
"image-keyboard-response",512,642825,"0.0-4.166-2.166","c3k8ghaur9zoo2h",845,"188.csv","","null","resources/images/fishbone.png","null","",NA,NA,NA,NA,""
"image-keyboard-response",513,643383,"0.0-4.167-0.167","c3k8ghaur9zoo2h",845,"188.csv","","557","resources/trios/L4T2A3.jpg","38","restless",0.3,0.6,0.5,0.695896130849707,"false"
"image-keyboard-response",514,643798,"0.0-4.167-1.167","c3k8ghaur9zoo2h",845,"188.csv","","null","resources/maskTrios/BT2B.jpg","null","",NA,NA,NA,NA,""
"image-keyboard-response",515,645000,"0.0-4.167-2.167","c3k8ghaur9zoo2h",845,"188.csv","","null","resources/images/fishbone.png","null","",NA,NA,NA,NA,""
"image-keyboard-response",516,645164,"0.0-4.168-0.168","c3k8ghaur9zoo2h",845,"188.csv","","161.60000014305115","resources/trios/L4T2A3.jpg","39","restless",0.4,0.6,0.5,0.887560690853972,"false"
"image-keyboard-response",517,645579,"0.0-4.168-1.168","c3k8ghaur9zoo2h",845,"188.csv","","null","resources/maskTrios/BBA3.jpg","null","",NA,NA,NA,NA,""
"image-keyboard-response",518,646783,"0.0-4.168-2.168","c3k8ghaur9zoo2h",845,"188.csv","","null","resources/images/fishbone.png","null","",NA,NA,NA,NA,""
"image-keyboard-response",519,646812,"0.0-4.169-0.169","c3k8ghaur9zoo2h",845,"188.csv","","27.90000009536743","resources/trios/L4T2A3.jpg","39","restless",0.4,0.5,0.5,0.451554877180434,"true"
"image-keyboard-response",520,647222,"0.0-4.169-1.169","c3k8ghaur9zoo2h",845,"188.csv","","null","resources/maskTrios/BBA3.jpg","null","",NA,NA,NA,NA,""
"image-keyboard-response",521,648425,"0.0-4.169-2.169","c3k8ghaur9zoo2h",845,"188.csv","","null","resources/images/coin2.png","null","",NA,NA,NA,NA,""
"image-keyboard-response",522,648707,"0.0-4.170-0.170","c3k8ghaur9zoo2h",845,"188.csv","","280.90000009536743","resources/trios/L4T2A3.jpg","39","restless",0.4,0.5,0.5,0.208997249612562,"true"
"image-keyboard-response",523,649119,"0.0-4.170-1.170","c3k8ghaur9zoo2h",845,"188.csv","","null","resources/maskTrios/BBA3.jpg","null","",NA,NA,NA,NA,""
"image-keyboard-response",524,650326,"0.0-4.170-2.170","c3k8ghaur9zoo2h",845,"188.csv","","null","resources/images/coin2.png","null","",NA,NA,NA,NA,""
"image-keyboard-response",525,650544,"0.0-4.171-0.171","c3k8ghaur9zoo2h",845,"188.csv","","216.20000004768372","resources/trios/L4T2A3.jpg","39","restless",0.5,0.4,0.5,0.4561275156879,"true"
"image-keyboard-response",526,650952,"0.0-4.171-1.171","c3k8ghaur9zoo2h",845,"188.csv","","null","resources/maskTrios/BBA3.jpg","null","",NA,NA,NA,NA,""
"image-keyboard-response",527,652165,"0.0-4.171-2.171","c3k8ghaur9zoo2h",845,"188.csv","","null","resources/images/coin2.png","null","",NA,NA,NA,NA,""
"image-keyboard-response",528,652460,"0.0-4.172-0.172","c3k8ghaur9zoo2h",845,"188.csv","","294.2000000476837","resources/trios/L4T2A3.jpg","39","restless",0.5,0.4,0.5,0.0602845633077882,"true"
"image-keyboard-response",529,652870,"0.0-4.172-1.172","c3k8ghaur9zoo2h",845,"188.csv","","null","resources/maskTrios/BBA3.jpg","null","",NA,NA,NA,NA,""
"image-keyboard-response",530,654077,"0.0-4.172-2.172","c3k8ghaur9zoo2h",845,"188.csv","","null","resources/images/coin2.png","null","",NA,NA,NA,NA,""
"image-keyboard-response",531,654466,"0.0-4.173-0.173","c3k8ghaur9zoo2h",845,"188.csv","","387.90000009536743","resources/trios/L4T2A3.jpg","39","restless",0.5,0.4,0.5,0.791390416837441,"false"
"image-keyboard-response",532,654875,"0.0-4.173-1.173","c3k8ghaur9zoo2h",845,"188.csv","","null","resources/maskTrios/BBA3.jpg","null","",NA,NA,NA,NA,""
"image-keyboard-response",533,656082,"0.0-4.173-2.173","c3k8ghaur9zoo2h",845,"188.csv","","null","resources/images/fishbone.png","null","",NA,NA,NA,NA,""
"image-keyboard-response",534,656267,"0.0-4.174-0.174","c3k8ghaur9zoo2h",845,"188.csv","","184.10000014305115","resources/trios/L4T2A3.jpg","39","restless",0.5,0.4,0.5,0.060807703159073,"true"
"image-keyboard-response",535,656677,"0.0-4.174-1.174","c3k8ghaur9zoo2h",845,"188.csv","","null","resources/maskTrios/BBA3.jpg","null","",NA,NA,NA,NA,""
"image-keyboard-response",536,657884,"0.0-4.174-2.174","c3k8ghaur9zoo2h",845,"188.csv","","null","resources/images/coin2.png","null","",NA,NA,NA,NA,""
"image-keyboard-response",537,658080,"0.0-4.175-0.175","c3k8ghaur9zoo2h",845,"188.csv","","194.10000014305115","resources/trios/L4T2A3.jpg","39","restless",0.5,0.4,0.5,0.00574373574461795,"true"
"image-keyboard-response",538,658495,"0.0-4.175-1.175","c3k8ghaur9zoo2h",845,"188.csv","","null","resources/maskTrios/BBA3.jpg","null","",NA,NA,NA,NA,""
"image-keyboard-response",539,659705,"0.0-4.175-2.175","c3k8ghaur9zoo2h",845,"188.csv","","null","resources/images/coin2.png","null","",NA,NA,NA,NA,""
"image-keyboard-response",540,659908,"0.0-4.176-0.176","c3k8ghaur9zoo2h",845,"188.csv","","202","resources/trios/L4T2A3.jpg","39","restless",0.5,0.4,0.5,0.13831664002493,"true"
"image-keyboard-response",541,660321,"0.0-4.176-1.176","c3k8ghaur9zoo2h",845,"188.csv","","null","resources/maskTrios/BBA3.jpg","null","",NA,NA,NA,NA,""
"image-keyboard-response",542,661529,"0.0-4.176-2.176","c3k8ghaur9zoo2h",845,"188.csv","","null","resources/images/coin2.png","null","",NA,NA,NA,NA,""
"image-keyboard-response",543,661756,"0.0-4.177-0.177","c3k8ghaur9zoo2h",845,"188.csv","","225.59999990463257","resources/trios/L4T2A3.jpg","39","restless",0.5,0.4,0.4,0.26629106589293,"true"
"image-keyboard-response",544,662167,"0.0-4.177-1.177","c3k8ghaur9zoo2h",845,"188.csv","","null","resources/maskTrios/BBA3.jpg","null","",NA,NA,NA,NA,""
"image-keyboard-response",545,663385,"0.0-4.177-2.177","c3k8ghaur9zoo2h",845,"188.csv","","null","resources/images/coin2.png","null","",NA,NA,NA,NA,""
"image-keyboard-response",546,663676,"0.0-4.178-0.178","c3k8ghaur9zoo2h",845,"188.csv","","289.59999990463257","resources/trios/L4T2A3.jpg","39","restless",0.5,0.4,0.4,0.114986164400218,"true"
"image-keyboard-response",547,664079,"0.0-4.178-1.178","c3k8ghaur9zoo2h",845,"188.csv","","null","resources/maskTrios/BBA3.jpg","null","",NA,NA,NA,NA,""
"image-keyboard-response",548,665282,"0.0-4.178-2.178","c3k8ghaur9zoo2h",845,"188.csv","","null","resources/images/coin2.png","null","",NA,NA,NA,NA,""
"image-keyboard-response",549,665460,"0.0-4.179-0.179","c3k8ghaur9zoo2h",845,"188.csv","","176.79999995231628","resources/trios/L4T2A3.jpg","39","restless",0.5,0.4,0.4,0.725161510841845,"false"
"image-keyboard-response",550,665878,"0.0-4.179-1.179","c3k8ghaur9zoo2h",845,"188.csv","","null","resources/maskTrios/BBA3.jpg","null","",NA,NA,NA,NA,""
"image-keyboard-response",551,667089,"0.0-4.179-2.179","c3k8ghaur9zoo2h",845,"188.csv","","null","resources/images/fishbone.png","null","",NA,NA,NA,NA,""
"image-keyboard-response",552,667700,"0.0-4.180-0.180","c3k8ghaur9zoo2h",845,"188.csv","","609.2999999523163","resources/trios/L4T2A3.jpg","39","restless",0.5,0.3,0.4,0.845867936796105,"false"
"image-keyboard-response",553,668108,"0.0-4.180-1.180","c3k8ghaur9zoo2h",845,"188.csv","","null","resources/maskTrios/BBA3.jpg","null","",NA,NA,NA,NA,""
"image-keyboard-response",554,669326,"0.0-4.180-2.180","c3k8ghaur9zoo2h",845,"188.csv","","null","resources/images/fishbone.png","null","",NA,NA,NA,NA,""
"image-keyboard-response",555,669580,"0.0-4.181-0.181","c3k8ghaur9zoo2h",845,"188.csv","","252.5","resources/trios/L4T2A3.jpg","38","restless",0.5,0.3,0.4,0.196801199237249,"true"
"image-keyboard-response",556,669983,"0.0-4.181-1.181","c3k8ghaur9zoo2h",845,"188.csv","","null","resources/maskTrios/BT2B.jpg","null","",NA,NA,NA,NA,""
"image-keyboard-response",557,671193,"0.0-4.181-2.181","c3k8ghaur9zoo2h",845,"188.csv","","null","resources/images/coin2.png","null","",NA,NA,NA,NA,""
"image-keyboard-response",558,671488,"0.0-4.182-0.182","c3k8ghaur9zoo2h",845,"188.csv","","293.30000019073486","resources/trios/L4T2A3.jpg","38","restless",0.5,0.2,0.4,0.612600868610603,"false"
"image-keyboard-response",559,671898,"0.0-4.182-1.182","c3k8ghaur9zoo2h",845,"188.csv","","null","resources/maskTrios/BT2B.jpg","null","",NA,NA,NA,NA,""
"image-keyboard-response",560,673110,"0.0-4.182-2.182","c3k8ghaur9zoo2h",845,"188.csv","","null","resources/images/fishbone.png","null","",NA,NA,NA,NA,""
"image-keyboard-response",561,674611,"0.0-4.183-0.183","c3k8ghaur9zoo2h",845,"188.csv","","1499.1000001430511","resources/trios/L4T2A3.jpg","38","restless",0.5,0.2,0.5,0.747630514185377,"false"
"image-keyboard-response",562,675021,"0.0-4.183-1.183","c3k8ghaur9zoo2h",845,"188.csv","","null","resources/maskTrios/BT2B.jpg","null","",NA,NA,NA,NA,""
"image-keyboard-response",563,676224,"0.0-4.183-2.183","c3k8ghaur9zoo2h",845,"188.csv","","null","resources/images/fishbone.png","null","",NA,NA,NA,NA,""
"image-keyboard-response",564,676416,"0.0-4.184-0.184","c3k8ghaur9zoo2h",845,"188.csv","","190.09999990463257","resources/trios/L4T2A3.jpg","37","restless",0.5,0.2,0.5,0.277096854764991,"true"
"image-keyboard-response",565,676833,"0.0-4.184-1.184","c3k8ghaur9zoo2h",845,"188.csv","","null","resources/maskTrios/L4BB.jpg","null","",NA,NA,NA,NA,""
"image-keyboard-response",566,678036,"0.0-4.184-2.184","c3k8ghaur9zoo2h",845,"188.csv","","null","resources/images/coin2.png","null","",NA,NA,NA,NA,""
"image-keyboard-response",567,678852,"0.0-4.185-0.185","c3k8ghaur9zoo2h",845,"188.csv","","813.8999998569489","resources/trios/L4T2A3.jpg","37","restless",0.5,0.2,0.4,0.822422263369448,"false"
"image-keyboard-response",568,679254,"0.0-4.185-1.185","c3k8ghaur9zoo2h",845,"188.csv","","null","resources/maskTrios/L4BB.jpg","null","",NA,NA,NA,NA,""
"image-keyboard-response",569,680459,"0.0-4.185-2.185","c3k8ghaur9zoo2h",845,"188.csv","","null","resources/images/fishbone.png","null","",NA,NA,NA,NA,""
"image-keyboard-response",570,680791,"0.0-4.186-0.186","c3k8ghaur9zoo2h",845,"188.csv","","330.7999999523163","resources/trios/L4T2A3.jpg","37","restless",0.5,0.1,0.4,0.261209725601858,"true"
"image-keyboard-response",571,681196,"0.0-4.186-1.186","c3k8ghaur9zoo2h",845,"188.csv","","null","resources/maskTrios/L4BB.jpg","null","",NA,NA,NA,NA,""
"image-keyboard-response",572,682403,"0.0-4.186-2.186","c3k8ghaur9zoo2h",845,"188.csv","","null","resources/images/coin2.png","null","",NA,NA,NA,NA,""
"image-keyboard-response",573,682732,"0.0-4.187-0.187","c3k8ghaur9zoo2h",845,"188.csv","","327.39999985694885","resources/trios/L4T2A3.jpg","37","restless",0.5,0.1,0.4,0.991743949057129,"false"
"image-keyboard-response",574,683137,"0.0-4.187-1.187","c3k8ghaur9zoo2h",845,"188.csv","","null","resources/maskTrios/L4BB.jpg","null","",NA,NA,NA,NA,""
"image-keyboard-response",575,684343,"0.0-4.187-2.187","c3k8ghaur9zoo2h",845,"188.csv","","null","resources/images/fishbone.png","null","",NA,NA,NA,NA,""
"image-keyboard-response",576,684664,"0.0-4.188-0.188","c3k8ghaur9zoo2h",845,"188.csv","","319.19999980926514","resources/trios/L4T2A3.jpg","37","restless",0.5,0.1,0.3,0.617718953156087,"false"
"image-keyboard-response",577,685069,"0.0-4.188-1.188","c3k8ghaur9zoo2h",845,"188.csv","","null","resources/maskTrios/L4BB.jpg","null","",NA,NA,NA,NA,""
"image-keyboard-response",578,686276,"0.0-4.188-2.188","c3k8ghaur9zoo2h",845,"188.csv","","null","resources/images/fishbone.png","null","",NA,NA,NA,NA,""
"image-keyboard-response",579,686383,"0.0-4.189-0.189","c3k8ghaur9zoo2h",845,"188.csv","","105.39999985694885","resources/trios/L4T2A3.jpg","38","restless",0.5,0.1,0.4,0.589554517988374,"false"
"image-keyboard-response",580,686791,"0.0-4.189-1.189","c3k8ghaur9zoo2h",845,"188.csv","","null","resources/maskTrios/BT2B.jpg","null","",NA,NA,NA,NA,""
"image-keyboard-response",581,688000,"0.0-4.189-2.189","c3k8ghaur9zoo2h",845,"188.csv","","null","resources/images/fishbone.png","null","",NA,NA,NA,NA,""
"image-keyboard-response",582,688323,"0.0-4.190-0.190","c3k8ghaur9zoo2h",845,"188.csv","","321.40000009536743","resources/trios/L4T2A3.jpg","38","restless",0.5,0.1,0.4,0.146668461254419,"false"
"image-keyboard-response",583,688733,"0.0-4.190-1.190","c3k8ghaur9zoo2h",845,"188.csv","","null","resources/maskTrios/BT2B.jpg","null","",NA,NA,NA,NA,""
"image-keyboard-response",584,689937,"0.0-4.190-2.190","c3k8ghaur9zoo2h",845,"188.csv","","null","resources/images/fishbone.png","null","",NA,NA,NA,NA,""
"image-keyboard-response",585,690252,"0.0-4.191-0.191","c3k8ghaur9zoo2h",845,"188.csv","","313.7999999523163","resources/trios/L4T2A3.jpg","39","restless",0.5,0.1,0.4,0.963934158726233,"false"
"image-keyboard-response",586,690656,"0.0-4.191-1.191","c3k8ghaur9zoo2h",845,"188.csv","","null","resources/maskTrios/BBA3.jpg","null","",NA,NA,NA,NA,""
"image-keyboard-response",587,691871,"0.0-4.191-2.191","c3k8ghaur9zoo2h",845,"188.csv","","null","resources/images/fishbone.png","null","",NA,NA,NA,NA,""
"image-keyboard-response",588,692003,"0.0-4.192-0.192","c3k8ghaur9zoo2h",845,"188.csv","","130.70000004768372","resources/trios/L4T2A3.jpg","37","restless",0.5,0.1,0.4,0.665771984147777,"false"
"image-keyboard-response",589,692419,"0.0-4.192-1.192","c3k8ghaur9zoo2h",845,"188.csv","","null","resources/maskTrios/L4BB.jpg","null","",NA,NA,NA,NA,""
"image-keyboard-response",590,693626,"0.0-4.192-2.192","c3k8ghaur9zoo2h",845,"188.csv","","null","resources/images/fishbone.png","null","",NA,NA,NA,NA,""
"image-keyboard-response",591,693712,"0.0-4.193-0.193","c3k8ghaur9zoo2h",845,"188.csv","","84.39999985694885","resources/trios/L4T2A3.jpg","38","restless",0.5,0.2,0.4,0.399597363920486,"false"
"image-keyboard-response",592,694129,"0.0-4.193-1.193","c3k8ghaur9zoo2h",845,"188.csv","","null","resources/maskTrios/BT2B.jpg","null","",NA,NA,NA,NA,""
"image-keyboard-response",593,695330,"0.0-4.193-2.193","c3k8ghaur9zoo2h",845,"188.csv","","null","resources/images/fishbone.png","null","",NA,NA,NA,NA,""
"image-keyboard-response",594,695507,"0.0-4.194-0.194","c3k8ghaur9zoo2h",845,"188.csv","","175","resources/trios/L4T2A3.jpg","38","restless",0.5,0.2,0.4,0.514776711636074,"false"
"image-keyboard-response",595,695911,"0.0-4.194-1.194","c3k8ghaur9zoo2h",845,"188.csv","","null","resources/maskTrios/BT2B.jpg","null","",NA,NA,NA,NA,""
"image-keyboard-response",596,697117,"0.0-4.194-2.194","c3k8ghaur9zoo2h",845,"188.csv","","null","resources/images/fishbone.png","null","",NA,NA,NA,NA,""
"image-keyboard-response",597,697363,"0.0-4.195-0.195","c3k8ghaur9zoo2h",845,"188.csv","","244.79999995231628","resources/trios/L4T2A3.jpg","38","restless",0.5,0.2,0.4,0.988771530333004,"false"
"image-keyboard-response",598,697774,"0.0-4.195-1.195","c3k8ghaur9zoo2h",845,"188.csv","","null","resources/maskTrios/BT2B.jpg","null","",NA,NA,NA,NA,""
"image-keyboard-response",599,698985,"0.0-4.195-2.195","c3k8ghaur9zoo2h",845,"188.csv","","null","resources/images/fishbone.png","null","",NA,NA,NA,NA,""
"image-keyboard-response",600,699292,"0.0-4.196-0.196","c3k8ghaur9zoo2h",845,"188.csv","","305.5","resources/trios/L4T2A3.jpg","39","restless",0.5,0.2,0.4,0.564967100344357,"false"
"image-keyboard-response",601,699706,"0.0-4.196-1.196","c3k8ghaur9zoo2h",845,"188.csv","","null","resources/maskTrios/BBA3.jpg","null","",NA,NA,NA,NA,""
"image-keyboard-response",602,700912,"0.0-4.196-2.196","c3k8ghaur9zoo2h",845,"188.csv","","null","resources/images/fishbone.png","null","",NA,NA,NA,NA,""
"image-keyboard-response",603,701072,"0.0-4.197-0.197","c3k8ghaur9zoo2h",845,"188.csv","","158","resources/trios/L4T2A3.jpg","37","restless",0.5,0.2,0.4,0.504922408993203,"false"
"image-keyboard-response",604,701474,"0.0-4.197-1.197","c3k8ghaur9zoo2h",845,"188.csv","","null","resources/maskTrios/L4BB.jpg","null","",NA,NA,NA,NA,""
"image-keyboard-response",605,702679,"0.0-4.197-2.197","c3k8ghaur9zoo2h",845,"188.csv","","null","resources/images/fishbone.png","null","",NA,NA,NA,NA,""
"image-keyboard-response",606,702760,"0.0-4.198-0.198","c3k8ghaur9zoo2h",845,"188.csv","","79.20000004768372","resources/trios/L4T2A3.jpg","37","restless",0.5,0.2,0.4,0.588111633883713,"false"
"image-keyboard-response",607,703167,"0.0-4.198-1.198","c3k8ghaur9zoo2h",845,"188.csv","","null","resources/maskTrios/L4BB.jpg","null","",NA,NA,NA,NA,""
"image-keyboard-response",608,704370,"0.0-4.198-2.198","c3k8ghaur9zoo2h",845,"188.csv","","null","resources/images/fishbone.png","null","",NA,NA,NA,NA,""
