"trial_type","trial_index","time_elapsed","internal_node_id","subject","participantCode","walkNumber","success","rt","stimulus","key_press","test_part","leftProb","midProb","rightProb","generatedNum","correct"
"pavlovia",0,1368,"0.0-0.0","mt0azdm3j99j6xz",573,"192.csv","","","","","",NA,NA,NA,NA,""
"fullscreen",1,4459,"0.0-1.0","mt0azdm3j99j6xz",573,"192.csv","true","","","","",NA,NA,NA,NA,""
"survey-html-form",2,19988,"0.0-2.0","mt0azdm3j99j6xz",573,"192.csv","","15526","","","",NA,NA,NA,NA,""
"image-keyboard-response",3,34390,"0.0-3.0-0.0","mt0azdm3j99j6xz",573,"192.csv","","14400.5","resources/images/parrot_nobg.png","13","",NA,NA,NA,NA,""
"image-keyboard-response",4,37393,"0.0-3.0-1.0","mt0azdm3j99j6xz",573,"192.csv","","null","resources/image_sets/111.png","null","",NA,NA,NA,NA,""
"image-keyboard-response",5,43194,"0.0-3.0-2.0","mt0azdm3j99j6xz",573,"192.csv","","5800.699999928474","resources/image_sets/left_highlight.png","37","",NA,NA,NA,NA,""
"image-keyboard-response",6,44756,"0.0-3.0-3.0","mt0azdm3j99j6xz",573,"192.csv","","1561","resources/image_sets/mid_highlight.png","38","",NA,NA,NA,NA,""
"image-keyboard-response",7,45834,"0.0-3.0-4.0","mt0azdm3j99j6xz",573,"192.csv","","1077","resources/image_sets/right_highlight.png","39","",NA,NA,NA,NA,""
"image-keyboard-response",8,50066,"0.0-3.0-5.0","mt0azdm3j99j6xz",573,"192.csv","","4230.799999952316","resources/image_sets/111.png","13","",NA,NA,NA,NA,""
"image-keyboard-response",9,53450,"0.0-3.0-6.0","mt0azdm3j99j6xz",573,"192.csv","","3384.5","resources/images/coin2.png","13","",NA,NA,NA,NA,""
"image-keyboard-response",10,54991,"0.0-3.0-7.0","mt0azdm3j99j6xz",573,"192.csv","","1539.7000000476837","resources/images/fishbone.png","13","",NA,NA,NA,NA,""
"html-keyboard-response",11,60593,"0.0-3.0-8.0","mt0azdm3j99j6xz",573,"192.csv","","5602.200000047684","<p>You can track your coin total on the top right of your screen. </p><p>At the end of your journey you will be directed to a survey, so please click on the link before exiting the task</p><p>Press Enter to begin</p>","13","",NA,NA,NA,NA,""
"image-keyboard-response",12,62178,"0.0-4.0-0.0","mt0azdm3j99j6xz",573,"192.csv","","1584.2000000476837","resources/trios/L4T2A3.jpg","37","restless",0.9,0.7,0.3,0.287976656849172,"true"
"image-keyboard-response",13,62591,"0.0-4.0-1.0","mt0azdm3j99j6xz",573,"192.csv","","null","resources/maskTrios/L4BB.jpg","null","",NA,NA,NA,NA,""
"image-keyboard-response",14,63804,"0.0-4.0-2.0","mt0azdm3j99j6xz",573,"192.csv","","null","resources/images/coin2.png","null","",NA,NA,NA,NA,""
"image-keyboard-response",15,64979,"0.0-4.1-0.1","mt0azdm3j99j6xz",573,"192.csv","","1173.5","resources/trios/L4T2A3.jpg","39","restless",0.8,0.7,0.3,0.415349065526496,"false"
"image-keyboard-response",16,65389,"0.0-4.1-1.1","mt0azdm3j99j6xz",573,"192.csv","","null","resources/maskTrios/BBA3.jpg","null","",NA,NA,NA,NA,""
"image-keyboard-response",17,66606,"0.0-4.1-2.1","mt0azdm3j99j6xz",573,"192.csv","","null","resources/images/fishbone.png","null","",NA,NA,NA,NA,""
"image-keyboard-response",18,67284,"0.0-4.2-0.2","mt0azdm3j99j6xz",573,"192.csv","","677.3999999761581","resources/trios/L4T2A3.jpg","38","restless",0.8,0.7,0.3,0.235731623410539,"true"
"image-keyboard-response",19,67695,"0.0-4.2-1.2","mt0azdm3j99j6xz",573,"192.csv","","null","resources/maskTrios/BT2B.jpg","null","",NA,NA,NA,NA,""
"image-keyboard-response",20,68905,"0.0-4.2-2.2","mt0azdm3j99j6xz",573,"192.csv","","null","resources/images/coin2.png","null","",NA,NA,NA,NA,""
"image-keyboard-response",21,69746,"0.0-4.3-0.3","mt0azdm3j99j6xz",573,"192.csv","","839.8999999761581","resources/trios/L4T2A3.jpg","38","restless",0.8,0.7,0.3,0.358824474488133,"true"
"image-keyboard-response",22,70148,"0.0-4.3-1.3","mt0azdm3j99j6xz",573,"192.csv","","null","resources/maskTrios/BT2B.jpg","null","",NA,NA,NA,NA,""
"image-keyboard-response",23,71361,"0.0-4.3-2.3","mt0azdm3j99j6xz",573,"192.csv","","null","resources/images/coin2.png","null","",NA,NA,NA,NA,""
"image-keyboard-response",24,71885,"0.0-4.4-0.4","mt0azdm3j99j6xz",573,"192.csv","","523.6000000238419","resources/trios/L4T2A3.jpg","37","restless",0.8,0.7,0.2,0.685521023841976,"true"
"image-keyboard-response",25,72295,"0.0-4.4-1.4","mt0azdm3j99j6xz",573,"192.csv","","null","resources/maskTrios/L4BB.jpg","null","",NA,NA,NA,NA,""
"image-keyboard-response",26,73509,"0.0-4.4-2.4","mt0azdm3j99j6xz",573,"192.csv","","null","resources/images/coin2.png","null","",NA,NA,NA,NA,""
"image-keyboard-response",27,74236,"0.0-4.5-0.5","mt0azdm3j99j6xz",573,"192.csv","","725.8000000715256","resources/trios/L4T2A3.jpg","38","restless",0.8,0.7,0.2,0.19573008579067,"true"
"image-keyboard-response",28,74643,"0.0-4.5-1.5","mt0azdm3j99j6xz",573,"192.csv","","null","resources/maskTrios/BT2B.jpg","null","",NA,NA,NA,NA,""
"image-keyboard-response",29,75852,"0.0-4.5-2.5","mt0azdm3j99j6xz",573,"192.csv","","null","resources/images/coin2.png","null","",NA,NA,NA,NA,""
"image-keyboard-response",30,76155,"0.0-4.6-0.6","mt0azdm3j99j6xz",573,"192.csv","","301.5","resources/trios/L4T2A3.jpg","37","restless",0.8,0.7,0.2,0.761990394857188,"true"
"image-keyboard-response",31,76570,"0.0-4.6-1.6","mt0azdm3j99j6xz",573,"192.csv","","null","resources/maskTrios/L4BB.jpg","null","",NA,NA,NA,NA,""
"image-keyboard-response",32,77786,"0.0-4.6-2.6","mt0azdm3j99j6xz",573,"192.csv","","null","resources/images/coin2.png","null","",NA,NA,NA,NA,""
"image-keyboard-response",33,78222,"0.0-4.7-0.7","mt0azdm3j99j6xz",573,"192.csv","","434.2000000476837","resources/trios/L4T2A3.jpg","38","restless",0.8,0.7,0.2,0.384548602916826,"true"
"image-keyboard-response",34,78638,"0.0-4.7-1.7","mt0azdm3j99j6xz",573,"192.csv","","null","resources/maskTrios/BT2B.jpg","null","",NA,NA,NA,NA,""
"image-keyboard-response",35,79849,"0.0-4.7-2.7","mt0azdm3j99j6xz",573,"192.csv","","null","resources/images/coin2.png","null","",NA,NA,NA,NA,""
"image-keyboard-response",36,80381,"0.0-4.8-0.8","mt0azdm3j99j6xz",573,"192.csv","","531.9000000953674","resources/trios/L4T2A3.jpg","38","restless",0.8,0.7,0.2,0.587033677032738,"true"
"image-keyboard-response",37,80785,"0.0-4.8-1.8","mt0azdm3j99j6xz",573,"192.csv","","null","resources/maskTrios/BT2B.jpg","null","",NA,NA,NA,NA,""
"image-keyboard-response",38,81996,"0.0-4.8-2.8","mt0azdm3j99j6xz",573,"192.csv","","null","resources/images/coin2.png","null","",NA,NA,NA,NA,""
"image-keyboard-response",39,82439,"0.0-4.9-0.9","mt0azdm3j99j6xz",573,"192.csv","","442.10000002384186","resources/trios/L4T2A3.jpg","38","restless",0.8,0.6,0.2,0.942842944008099,"false"
"image-keyboard-response",40,82848,"0.0-4.9-1.9","mt0azdm3j99j6xz",573,"192.csv","","null","resources/maskTrios/BT2B.jpg","null","",NA,NA,NA,NA,""
"image-keyboard-response",41,84059,"0.0-4.9-2.9","mt0azdm3j99j6xz",573,"192.csv","","null","resources/images/fishbone.png","null","",NA,NA,NA,NA,""
"image-keyboard-response",42,84348,"0.0-4.10-0.10","mt0azdm3j99j6xz",573,"192.csv","","287.1999999284744","resources/trios/L4T2A3.jpg","37","restless",0.8,0.6,0.2,0.676639338862507,"true"
"image-keyboard-response",43,84758,"0.0-4.10-1.10","mt0azdm3j99j6xz",573,"192.csv","","null","resources/maskTrios/L4BB.jpg","null","",NA,NA,NA,NA,""
"image-keyboard-response",44,85969,"0.0-4.10-2.10","mt0azdm3j99j6xz",573,"192.csv","","null","resources/images/coin2.png","null","",NA,NA,NA,NA,""
"image-keyboard-response",45,86448,"0.0-4.11-0.11","mt0azdm3j99j6xz",573,"192.csv","","477.60000002384186","resources/trios/L4T2A3.jpg","37","restless",0.8,0.6,0.2,0.145321052031499,"true"
"image-keyboard-response",46,86859,"0.0-4.11-1.11","mt0azdm3j99j6xz",573,"192.csv","","null","resources/maskTrios/L4BB.jpg","null","",NA,NA,NA,NA,""
"image-keyboard-response",47,88074,"0.0-4.11-2.11","mt0azdm3j99j6xz",573,"192.csv","","null","resources/images/coin2.png","null","",NA,NA,NA,NA,""
"image-keyboard-response",48,88378,"0.0-4.12-0.12","mt0azdm3j99j6xz",573,"192.csv","","302.5","resources/trios/L4T2A3.jpg","37","restless",0.7,0.6,0.2,0.564087251087869,"true"
"image-keyboard-response",49,88789,"0.0-4.12-1.12","mt0azdm3j99j6xz",573,"192.csv","","null","resources/maskTrios/L4BB.jpg","null","",NA,NA,NA,NA,""
"image-keyboard-response",50,90004,"0.0-4.12-2.12","mt0azdm3j99j6xz",573,"192.csv","","null","resources/images/coin2.png","null","",NA,NA,NA,NA,""
"image-keyboard-response",51,90449,"0.0-4.13-0.13","mt0azdm3j99j6xz",573,"192.csv","","444.5","resources/trios/L4T2A3.jpg","37","restless",0.6,0.6,0.2,0.995663748064837,"false"
"image-keyboard-response",52,90860,"0.0-4.13-1.13","mt0azdm3j99j6xz",573,"192.csv","","null","resources/maskTrios/L4BB.jpg","null","",NA,NA,NA,NA,""
"image-keyboard-response",53,92073,"0.0-4.13-2.13","mt0azdm3j99j6xz",573,"192.csv","","null","resources/images/fishbone.png","null","",NA,NA,NA,NA,""
"image-keyboard-response",54,92375,"0.0-4.14-0.14","mt0azdm3j99j6xz",573,"192.csv","","300.6999999284744","resources/trios/L4T2A3.jpg","39","restless",0.6,0.6,0.2,0.729531604702494,"false"
"image-keyboard-response",55,92787,"0.0-4.14-1.14","mt0azdm3j99j6xz",573,"192.csv","","null","resources/maskTrios/BBA3.jpg","null","",NA,NA,NA,NA,""
"image-keyboard-response",56,94003,"0.0-4.14-2.14","mt0azdm3j99j6xz",573,"192.csv","","null","resources/images/fishbone.png","null","",NA,NA,NA,NA,""
"image-keyboard-response",57,94296,"0.0-4.15-0.15","mt0azdm3j99j6xz",573,"192.csv","","292.39999997615814","resources/trios/L4T2A3.jpg","38","restless",0.6,0.5,0.2,0.312933587933397,"true"
"image-keyboard-response",58,94704,"0.0-4.15-1.15","mt0azdm3j99j6xz",573,"192.csv","","null","resources/maskTrios/BT2B.jpg","null","",NA,NA,NA,NA,""
"image-keyboard-response",59,95918,"0.0-4.15-2.15","mt0azdm3j99j6xz",573,"192.csv","","null","resources/images/coin2.png","null","",NA,NA,NA,NA,""
"image-keyboard-response",60,96402,"0.0-4.16-0.16","mt0azdm3j99j6xz",573,"192.csv","","483.60000002384186","resources/trios/L4T2A3.jpg","38","restless",0.7,0.5,0.2,0.446897538687269,"true"
"image-keyboard-response",61,96804,"0.0-4.16-1.16","mt0azdm3j99j6xz",573,"192.csv","","null","resources/maskTrios/BT2B.jpg","null","",NA,NA,NA,NA,""
"image-keyboard-response",62,98008,"0.0-4.16-2.16","mt0azdm3j99j6xz",573,"192.csv","","null","resources/images/coin2.png","null","",NA,NA,NA,NA,""
"image-keyboard-response",63,98660,"0.0-4.17-0.17","mt0azdm3j99j6xz",573,"192.csv","","650.4000000953674","resources/trios/L4T2A3.jpg","38","restless",0.7,0.5,0.2,0.708225541721414,"false"
"image-keyboard-response",64,99066,"0.0-4.17-1.17","mt0azdm3j99j6xz",573,"192.csv","","null","resources/maskTrios/BT2B.jpg","null","",NA,NA,NA,NA,""
"image-keyboard-response",65,100279,"0.0-4.17-2.17","mt0azdm3j99j6xz",573,"192.csv","","null","resources/images/fishbone.png","null","",NA,NA,NA,NA,""
"image-keyboard-response",66,100591,"0.0-4.18-0.18","mt0azdm3j99j6xz",573,"192.csv","","310.60000002384186","resources/trios/L4T2A3.jpg","37","restless",0.7,0.5,0.2,0.556992167482052,"true"
"image-keyboard-response",67,101008,"0.0-4.18-1.18","mt0azdm3j99j6xz",573,"192.csv","","null","resources/maskTrios/L4BB.jpg","null","",NA,NA,NA,NA,""
"image-keyboard-response",68,102220,"0.0-4.18-2.18","mt0azdm3j99j6xz",573,"192.csv","","null","resources/images/coin2.png","null","",NA,NA,NA,NA,""
"image-keyboard-response",69,102581,"0.0-4.19-0.19","mt0azdm3j99j6xz",573,"192.csv","","360.3000000715256","resources/trios/L4T2A3.jpg","37","restless",0.7,0.5,0.2,0.149644987640718,"true"
"image-keyboard-response",70,102996,"0.0-4.19-1.19","mt0azdm3j99j6xz",573,"192.csv","","null","resources/maskTrios/L4BB.jpg","null","",NA,NA,NA,NA,""
"image-keyboard-response",71,104206,"0.0-4.19-2.19","mt0azdm3j99j6xz",573,"192.csv","","null","resources/images/coin2.png","null","",NA,NA,NA,NA,""
"image-keyboard-response",72,104507,"0.0-4.20-0.20","mt0azdm3j99j6xz",573,"192.csv","","299.89999997615814","resources/trios/L4T2A3.jpg","37","restless",0.7,0.5,0.2,0.21708456984704,"true"
"image-keyboard-response",73,104920,"0.0-4.20-1.20","mt0azdm3j99j6xz",573,"192.csv","","null","resources/maskTrios/L4BB.jpg","null","",NA,NA,NA,NA,""
"image-keyboard-response",74,106126,"0.0-4.20-2.20","mt0azdm3j99j6xz",573,"192.csv","","null","resources/images/coin2.png","null","",NA,NA,NA,NA,""
"image-keyboard-response",75,106559,"0.0-4.21-0.21","mt0azdm3j99j6xz",573,"192.csv","","432.10000002384186","resources/trios/L4T2A3.jpg","37","restless",0.7,0.5,0.2,0.528631743054135,"true"
"image-keyboard-response",76,106968,"0.0-4.21-1.21","mt0azdm3j99j6xz",573,"192.csv","","null","resources/maskTrios/L4BB.jpg","null","",NA,NA,NA,NA,""
"image-keyboard-response",77,108176,"0.0-4.21-2.21","mt0azdm3j99j6xz",573,"192.csv","","null","resources/images/coin2.png","null","",NA,NA,NA,NA,""
"image-keyboard-response",78,108458,"0.0-4.22-0.22","mt0azdm3j99j6xz",573,"192.csv","","281.10000002384186","resources/trios/L4T2A3.jpg","37","restless",0.7,0.5,0.2,0.3527026114032,"true"
"image-keyboard-response",79,108873,"0.0-4.22-1.22","mt0azdm3j99j6xz",573,"192.csv","","null","resources/maskTrios/L4BB.jpg","null","",NA,NA,NA,NA,""
"image-keyboard-response",80,110085,"0.0-4.22-2.22","mt0azdm3j99j6xz",573,"192.csv","","null","resources/images/coin2.png","null","",NA,NA,NA,NA,""
"image-keyboard-response",81,110476,"0.0-4.23-0.23","mt0azdm3j99j6xz",573,"192.csv","","389.1999999284744","resources/trios/L4T2A3.jpg","37","restless",0.7,0.5,0.2,0.469251712830907,"true"
"image-keyboard-response",82,110878,"0.0-4.23-1.23","mt0azdm3j99j6xz",573,"192.csv","","null","resources/maskTrios/L4BB.jpg","null","",NA,NA,NA,NA,""
"image-keyboard-response",83,112088,"0.0-4.23-2.23","mt0azdm3j99j6xz",573,"192.csv","","null","resources/images/coin2.png","null","",NA,NA,NA,NA,""
"image-keyboard-response",84,112436,"0.0-4.24-0.24","mt0azdm3j99j6xz",573,"192.csv","","347.2000000476837","resources/trios/L4T2A3.jpg","37","restless",0.7,0.5,0.2,0.803681273020012,"false"
"image-keyboard-response",85,112847,"0.0-4.24-1.24","mt0azdm3j99j6xz",573,"192.csv","","null","resources/maskTrios/L4BB.jpg","null","",NA,NA,NA,NA,""
"image-keyboard-response",86,114056,"0.0-4.24-2.24","mt0azdm3j99j6xz",573,"192.csv","","null","resources/images/fishbone.png","null","",NA,NA,NA,NA,""
"image-keyboard-response",87,114335,"0.0-4.25-0.25","mt0azdm3j99j6xz",573,"192.csv","","278.60000002384186","resources/trios/L4T2A3.jpg","38","restless",0.6,0.5,0.2,0.106682856776785,"true"
"image-keyboard-response",88,114738,"0.0-4.25-1.25","mt0azdm3j99j6xz",573,"192.csv","","null","resources/maskTrios/BT2B.jpg","null","",NA,NA,NA,NA,""
"image-keyboard-response",89,115952,"0.0-4.25-2.25","mt0azdm3j99j6xz",573,"192.csv","","null","resources/images/coin2.png","null","",NA,NA,NA,NA,""
"image-keyboard-response",90,116267,"0.0-4.26-0.26","mt0azdm3j99j6xz",573,"192.csv","","313.7999999523163","resources/trios/L4T2A3.jpg","38","restless",0.7,0.5,0.2,0.06830658289084,"true"
"image-keyboard-response",91,116670,"0.0-4.26-1.26","mt0azdm3j99j6xz",573,"192.csv","","null","resources/maskTrios/BT2B.jpg","null","",NA,NA,NA,NA,""
"image-keyboard-response",92,117878,"0.0-4.26-2.26","mt0azdm3j99j6xz",573,"192.csv","","null","resources/images/coin2.png","null","",NA,NA,NA,NA,""
"image-keyboard-response",93,118167,"0.0-4.27-0.27","mt0azdm3j99j6xz",573,"192.csv","","288","resources/trios/L4T2A3.jpg","38","restless",0.7,0.5,0.2,0.65942701785927,"false"
"image-keyboard-response",94,118579,"0.0-4.27-1.27","mt0azdm3j99j6xz",573,"192.csv","","null","resources/maskTrios/BT2B.jpg","null","",NA,NA,NA,NA,""
"image-keyboard-response",95,119791,"0.0-4.27-2.27","mt0azdm3j99j6xz",573,"192.csv","","null","resources/images/fishbone.png","null","",NA,NA,NA,NA,""
"image-keyboard-response",96,120068,"0.0-4.28-0.28","mt0azdm3j99j6xz",573,"192.csv","","276.39999997615814","resources/trios/L4T2A3.jpg","39","restless",0.7,0.5,0.2,0.810400857318413,"false"
"image-keyboard-response",97,120475,"0.0-4.28-1.28","mt0azdm3j99j6xz",573,"192.csv","","null","resources/maskTrios/BBA3.jpg","null","",NA,NA,NA,NA,""
"image-keyboard-response",98,121691,"0.0-4.28-2.28","mt0azdm3j99j6xz",573,"192.csv","","null","resources/images/fishbone.png","null","",NA,NA,NA,NA,""
"image-keyboard-response",99,121975,"0.0-4.29-0.29","mt0azdm3j99j6xz",573,"192.csv","","282.60000002384186","resources/trios/L4T2A3.jpg","37","restless",0.7,0.5,0.2,0.565299058788553,"true"
"image-keyboard-response",100,122385,"0.0-4.29-1.29","mt0azdm3j99j6xz",573,"192.csv","","null","resources/maskTrios/L4BB.jpg","null","",NA,NA,NA,NA,""
"image-keyboard-response",101,123597,"0.0-4.29-2.29","mt0azdm3j99j6xz",573,"192.csv","","null","resources/images/coin2.png","null","",NA,NA,NA,NA,""
"image-keyboard-response",102,123974,"0.0-4.30-0.30","mt0azdm3j99j6xz",573,"192.csv","","376","resources/trios/L4T2A3.jpg","37","restless",0.6,0.5,0.2,0.436284806280342,"true"
"image-keyboard-response",103,124387,"0.0-4.30-1.30","mt0azdm3j99j6xz",573,"192.csv","","null","resources/maskTrios/L4BB.jpg","null","",NA,NA,NA,NA,""
"image-keyboard-response",104,125590,"0.0-4.30-2.30","mt0azdm3j99j6xz",573,"192.csv","","null","resources/images/coin2.png","null","",NA,NA,NA,NA,""
"image-keyboard-response",105,125889,"0.0-4.31-0.31","mt0azdm3j99j6xz",573,"192.csv","","297.8000000715256","resources/trios/L4T2A3.jpg","37","restless",0.5,0.5,0.3,0.470110316696461,"true"
"image-keyboard-response",106,126303,"0.0-4.31-1.31","mt0azdm3j99j6xz",573,"192.csv","","null","resources/maskTrios/L4BB.jpg","null","",NA,NA,NA,NA,""
"image-keyboard-response",107,127506,"0.0-4.31-2.31","mt0azdm3j99j6xz",573,"192.csv","","null","resources/images/coin2.png","null","",NA,NA,NA,NA,""
"image-keyboard-response",108,127795,"0.0-4.32-0.32","mt0azdm3j99j6xz",573,"192.csv","","287.89999997615814","resources/trios/L4T2A3.jpg","37","restless",0.5,0.4,0.3,0.896682396396222,"false"
"image-keyboard-response",109,128208,"0.0-4.32-1.32","mt0azdm3j99j6xz",573,"192.csv","","null","resources/maskTrios/L4BB.jpg","null","",NA,NA,NA,NA,""
"image-keyboard-response",110,129409,"0.0-4.32-2.32","mt0azdm3j99j6xz",573,"192.csv","","null","resources/images/fishbone.png","null","",NA,NA,NA,NA,""
"image-keyboard-response",111,129682,"0.0-4.33-0.33","mt0azdm3j99j6xz",573,"192.csv","","271.90000009536743","resources/trios/L4T2A3.jpg","38","restless",0.5,0.4,0.3,0.0729138303778527,"true"
"image-keyboard-response",112,130096,"0.0-4.33-1.33","mt0azdm3j99j6xz",573,"192.csv","","null","resources/maskTrios/BT2B.jpg","null","",NA,NA,NA,NA,""
"image-keyboard-response",113,131308,"0.0-4.33-2.33","mt0azdm3j99j6xz",573,"192.csv","","null","resources/images/coin2.png","null","",NA,NA,NA,NA,""
"image-keyboard-response",114,131622,"0.0-4.34-0.34","mt0azdm3j99j6xz",573,"192.csv","","313.59999990463257","resources/trios/L4T2A3.jpg","38","restless",0.4,0.4,0.3,0.418842913835441,"false"
"image-keyboard-response",115,132039,"0.0-4.34-1.34","mt0azdm3j99j6xz",573,"192.csv","","null","resources/maskTrios/BT2B.jpg","null","",NA,NA,NA,NA,""
"image-keyboard-response",116,133248,"0.0-4.34-2.34","mt0azdm3j99j6xz",573,"192.csv","","null","resources/images/fishbone.png","null","",NA,NA,NA,NA,""
"image-keyboard-response",117,133415,"0.0-4.35-0.35","mt0azdm3j99j6xz",573,"192.csv","","166.69999992847443","resources/trios/L4T2A3.jpg","37","restless",0.4,0.4,0.3,0.604200854636496,"false"
"image-keyboard-response",118,133823,"0.0-4.35-1.35","mt0azdm3j99j6xz",573,"192.csv","","null","resources/maskTrios/L4BB.jpg","null","",NA,NA,NA,NA,""
"image-keyboard-response",119,135032,"0.0-4.35-2.35","mt0azdm3j99j6xz",573,"192.csv","","null","resources/images/fishbone.png","null","",NA,NA,NA,NA,""
"image-keyboard-response",120,135428,"0.0-4.36-0.36","mt0azdm3j99j6xz",573,"192.csv","","394.6999999284744","resources/trios/L4T2A3.jpg","39","restless",0.4,0.4,0.3,0.796300173464169,"false"
"image-keyboard-response",121,135838,"0.0-4.36-1.36","mt0azdm3j99j6xz",573,"192.csv","","null","resources/maskTrios/BBA3.jpg","null","",NA,NA,NA,NA,""
"image-keyboard-response",122,137053,"0.0-4.36-2.36","mt0azdm3j99j6xz",573,"192.csv","","null","resources/images/fishbone.png","null","",NA,NA,NA,NA,""
"image-keyboard-response",123,137306,"0.0-4.37-0.37","mt0azdm3j99j6xz",573,"192.csv","","252","resources/trios/L4T2A3.jpg","38","restless",0.4,0.4,0.2,0.664998342882138,"false"
"image-keyboard-response",124,137722,"0.0-4.37-1.37","mt0azdm3j99j6xz",573,"192.csv","","null","resources/maskTrios/BT2B.jpg","null","",NA,NA,NA,NA,""
"image-keyboard-response",125,138930,"0.0-4.37-2.37","mt0azdm3j99j6xz",573,"192.csv","","null","resources/images/fishbone.png","null","",NA,NA,NA,NA,""
"image-keyboard-response",126,139157,"0.0-4.38-0.38","mt0azdm3j99j6xz",573,"192.csv","","225.60000002384186","resources/trios/L4T2A3.jpg","38","restless",0.4,0.4,0.2,0.919826801018087,"false"
"image-keyboard-response",127,139568,"0.0-4.38-1.38","mt0azdm3j99j6xz",573,"192.csv","","null","resources/maskTrios/BT2B.jpg","null","",NA,NA,NA,NA,""
"image-keyboard-response",128,140773,"0.0-4.38-2.38","mt0azdm3j99j6xz",573,"192.csv","","null","resources/images/fishbone.png","null","",NA,NA,NA,NA,""
"image-keyboard-response",129,140990,"0.0-4.39-0.39","mt0azdm3j99j6xz",573,"192.csv","","215.5","resources/trios/L4T2A3.jpg","37","restless",0.4,0.4,0.2,0.738158655594908,"false"
"image-keyboard-response",130,141392,"0.0-4.39-1.39","mt0azdm3j99j6xz",573,"192.csv","","null","resources/maskTrios/L4BB.jpg","null","",NA,NA,NA,NA,""
"image-keyboard-response",131,142599,"0.0-4.39-2.39","mt0azdm3j99j6xz",573,"192.csv","","null","resources/images/fishbone.png","null","",NA,NA,NA,NA,""
"image-keyboard-response",132,143078,"0.0-4.40-0.40","mt0azdm3j99j6xz",573,"192.csv","","478.5","resources/trios/L4T2A3.jpg","39","restless",0.4,0.4,0.2,0.928476683722425,"false"
"image-keyboard-response",133,143481,"0.0-4.40-1.40","mt0azdm3j99j6xz",573,"192.csv","","null","resources/maskTrios/BBA3.jpg","null","",NA,NA,NA,NA,""
"image-keyboard-response",134,144690,"0.0-4.40-2.40","mt0azdm3j99j6xz",573,"192.csv","","null","resources/images/fishbone.png","null","",NA,NA,NA,NA,""
"image-keyboard-response",135,145154,"0.0-4.41-0.41","mt0azdm3j99j6xz",573,"192.csv","","463.10000002384186","resources/trios/L4T2A3.jpg","38","restless",0.4,0.4,0.2,0.944701521135684,"false"
"image-keyboard-response",136,145557,"0.0-4.41-1.41","mt0azdm3j99j6xz",573,"192.csv","","null","resources/maskTrios/BT2B.jpg","null","",NA,NA,NA,NA,""
"image-keyboard-response",137,146769,"0.0-4.41-2.41","mt0azdm3j99j6xz",573,"192.csv","","null","resources/images/fishbone.png","null","",NA,NA,NA,NA,""
"image-keyboard-response",138,147005,"0.0-4.42-0.42","mt0azdm3j99j6xz",573,"192.csv","","234.5","resources/trios/L4T2A3.jpg","38","restless",0.4,0.4,0.2,0.837133003789865,"false"
"image-keyboard-response",139,147409,"0.0-4.42-1.42","mt0azdm3j99j6xz",573,"192.csv","","null","resources/maskTrios/BT2B.jpg","null","",NA,NA,NA,NA,""
"image-keyboard-response",140,148622,"0.0-4.42-2.42","mt0azdm3j99j6xz",573,"192.csv","","null","resources/images/fishbone.png","null","",NA,NA,NA,NA,""
"image-keyboard-response",141,148955,"0.0-4.43-0.43","mt0azdm3j99j6xz",573,"192.csv","","332.5","resources/trios/L4T2A3.jpg","37","restless",0.4,0.4,0.2,0.429479354583648,"false"
"image-keyboard-response",142,149364,"0.0-4.43-1.43","mt0azdm3j99j6xz",573,"192.csv","","null","resources/maskTrios/L4BB.jpg","null","",NA,NA,NA,NA,""
"image-keyboard-response",143,150577,"0.0-4.43-2.43","mt0azdm3j99j6xz",573,"192.csv","","null","resources/images/fishbone.png","null","",NA,NA,NA,NA,""
"image-keyboard-response",144,150865,"0.0-4.44-0.44","mt0azdm3j99j6xz",573,"192.csv","","287.5","resources/trios/L4T2A3.jpg","37","restless",0.4,0.4,0.1,0.652556060037608,"false"
"image-keyboard-response",145,151278,"0.0-4.44-1.44","mt0azdm3j99j6xz",573,"192.csv","","null","resources/maskTrios/L4BB.jpg","null","",NA,NA,NA,NA,""
"image-keyboard-response",146,152485,"0.0-4.44-2.44","mt0azdm3j99j6xz",573,"192.csv","","null","resources/images/fishbone.png","null","",NA,NA,NA,NA,""
"image-keyboard-response",147,152831,"0.0-4.45-0.45","mt0azdm3j99j6xz",573,"192.csv","","344.5","resources/trios/L4T2A3.jpg","37","restless",0.4,0.4,0.2,0.967641258865029,"false"
"image-keyboard-response",148,153245,"0.0-4.45-1.45","mt0azdm3j99j6xz",573,"192.csv","","null","resources/maskTrios/L4BB.jpg","null","",NA,NA,NA,NA,""
"image-keyboard-response",149,154458,"0.0-4.45-2.45","mt0azdm3j99j6xz",573,"192.csv","","null","resources/images/fishbone.png","null","",NA,NA,NA,NA,""
"image-keyboard-response",150,154764,"0.0-4.46-0.46","mt0azdm3j99j6xz",573,"192.csv","","304.7999999523163","resources/trios/L4T2A3.jpg","38","restless",0.4,0.4,0.2,0.129005200152496,"true"
"image-keyboard-response",151,155176,"0.0-4.46-1.46","mt0azdm3j99j6xz",573,"192.csv","","null","resources/maskTrios/BT2B.jpg","null","",NA,NA,NA,NA,""
"image-keyboard-response",152,156390,"0.0-4.46-2.46","mt0azdm3j99j6xz",573,"192.csv","","null","resources/images/coin2.png","null","",NA,NA,NA,NA,""
"image-keyboard-response",153,156674,"0.0-4.47-0.47","mt0azdm3j99j6xz",573,"192.csv","","282.3000000715256","resources/trios/L4T2A3.jpg","38","restless",0.3,0.4,0.2,0.0245400081902398,"true"
"image-keyboard-response",154,157090,"0.0-4.47-1.47","mt0azdm3j99j6xz",573,"192.csv","","null","resources/maskTrios/BT2B.jpg","null","",NA,NA,NA,NA,""
"image-keyboard-response",155,158303,"0.0-4.47-2.47","mt0azdm3j99j6xz",573,"192.csv","","null","resources/images/coin2.png","null","",NA,NA,NA,NA,""
"image-keyboard-response",156,158591,"0.0-4.48-0.48","mt0azdm3j99j6xz",573,"192.csv","","286.8000000715256","resources/trios/L4T2A3.jpg","38","restless",0.3,0.5,0.2,0.535481166159228,"false"
"image-keyboard-response",157,159001,"0.0-4.48-1.48","mt0azdm3j99j6xz",573,"192.csv","","null","resources/maskTrios/BT2B.jpg","null","",NA,NA,NA,NA,""
"image-keyboard-response",158,160217,"0.0-4.48-2.48","mt0azdm3j99j6xz",573,"192.csv","","null","resources/images/fishbone.png","null","",NA,NA,NA,NA,""
"image-keyboard-response",159,160302,"0.0-4.49-0.49","mt0azdm3j99j6xz",573,"192.csv","","83.70000004768372","resources/trios/L4T2A3.jpg","37","restless",0.2,0.5,0.2,0.00703557477918837,"true"
"image-keyboard-response",160,160703,"0.0-4.49-1.49","mt0azdm3j99j6xz",573,"192.csv","","null","resources/maskTrios/L4BB.jpg","null","",NA,NA,NA,NA,""
"image-keyboard-response",161,161914,"0.0-4.49-2.49","mt0azdm3j99j6xz",573,"192.csv","","null","resources/images/coin2.png","null","",NA,NA,NA,NA,""
"image-keyboard-response",162,162231,"0.0-4.50-0.50","mt0azdm3j99j6xz",573,"192.csv","","315.90000009536743","resources/trios/L4T2A3.jpg","37","restless",0.2,0.5,0.2,0.565233354470147,"false"
"image-keyboard-response",163,162646,"0.0-4.50-1.50","mt0azdm3j99j6xz",573,"192.csv","","null","resources/maskTrios/L4BB.jpg","null","",NA,NA,NA,NA,""
"image-keyboard-response",164,163861,"0.0-4.50-2.50","mt0azdm3j99j6xz",573,"192.csv","","null","resources/images/fishbone.png","null","",NA,NA,NA,NA,""
"image-keyboard-response",165,164111,"0.0-4.51-0.51","mt0azdm3j99j6xz",573,"192.csv","","249.30000007152557","resources/trios/L4T2A3.jpg","37","restless",0.2,0.5,0.2,0.207018217557871,"false"
"image-keyboard-response",166,164514,"0.0-4.51-1.51","mt0azdm3j99j6xz",573,"192.csv","","null","resources/maskTrios/L4BB.jpg","null","",NA,NA,NA,NA,""
"image-keyboard-response",167,165729,"0.0-4.51-2.51","mt0azdm3j99j6xz",573,"192.csv","","null","resources/images/fishbone.png","null","",NA,NA,NA,NA,""
"image-keyboard-response",168,165890,"0.0-4.52-0.52","mt0azdm3j99j6xz",573,"192.csv","","160.10000002384186","resources/trios/L4T2A3.jpg","38","restless",0.2,0.5,0.2,0.227994365824536,"true"
"image-keyboard-response",169,166303,"0.0-4.52-1.52","mt0azdm3j99j6xz",573,"192.csv","","null","resources/maskTrios/BT2B.jpg","null","",NA,NA,NA,NA,""
"image-keyboard-response",170,167511,"0.0-4.52-2.52","mt0azdm3j99j6xz",573,"192.csv","","null","resources/images/coin2.png","null","",NA,NA,NA,NA,""
"image-keyboard-response",171,167797,"0.0-4.53-0.53","mt0azdm3j99j6xz",573,"192.csv","","285.5","resources/trios/L4T2A3.jpg","38","restless",0.2,0.5,0.2,0.361833411772391,"true"
"image-keyboard-response",172,168209,"0.0-4.53-1.53","mt0azdm3j99j6xz",573,"192.csv","","null","resources/maskTrios/BT2B.jpg","null","",NA,NA,NA,NA,""
"image-keyboard-response",173,169422,"0.0-4.53-2.53","mt0azdm3j99j6xz",573,"192.csv","","null","resources/images/coin2.png","null","",NA,NA,NA,NA,""
"image-keyboard-response",174,169674,"0.0-4.54-0.54","mt0azdm3j99j6xz",573,"192.csv","","250.70000004768372","resources/trios/L4T2A3.jpg","38","restless",0.2,0.5,0.2,0.0581874710272017,"true"
"image-keyboard-response",175,170077,"0.0-4.54-1.54","mt0azdm3j99j6xz",573,"192.csv","","null","resources/maskTrios/BT2B.jpg","null","",NA,NA,NA,NA,""
"image-keyboard-response",176,171285,"0.0-4.54-2.54","mt0azdm3j99j6xz",573,"192.csv","","null","resources/images/coin2.png","null","",NA,NA,NA,NA,""
"image-keyboard-response",177,171552,"0.0-4.55-0.55","mt0azdm3j99j6xz",573,"192.csv","","265.2999999523163","resources/trios/L4T2A3.jpg","38","restless",0.2,0.5,0.2,0.350278291165548,"true"
"image-keyboard-response",178,171959,"0.0-4.55-1.55","mt0azdm3j99j6xz",573,"192.csv","","null","resources/maskTrios/BT2B.jpg","null","",NA,NA,NA,NA,""
"image-keyboard-response",179,173172,"0.0-4.55-2.55","mt0azdm3j99j6xz",573,"192.csv","","null","resources/images/coin2.png","null","",NA,NA,NA,NA,""
"image-keyboard-response",180,173255,"0.0-4.56-0.56","mt0azdm3j99j6xz",573,"192.csv","","83.20000004768372","resources/trios/L4T2A3.jpg","38","restless",0.2,0.5,0.2,0.574975555161283,"false"
"image-keyboard-response",181,173669,"0.0-4.56-1.56","mt0azdm3j99j6xz",573,"192.csv","","null","resources/maskTrios/BT2B.jpg","null","",NA,NA,NA,NA,""
"image-keyboard-response",182,174878,"0.0-4.56-2.56","mt0azdm3j99j6xz",573,"192.csv","","null","resources/images/fishbone.png","null","",NA,NA,NA,NA,""
"image-keyboard-response",183,175155,"0.0-4.57-0.57","mt0azdm3j99j6xz",573,"192.csv","","275.5","resources/trios/L4T2A3.jpg","37","restless",0.2,0.5,0.2,0.858266327903477,"false"
"image-keyboard-response",184,175561,"0.0-4.57-1.57","mt0azdm3j99j6xz",573,"192.csv","","null","resources/maskTrios/L4BB.jpg","null","",NA,NA,NA,NA,""
"image-keyboard-response",185,176769,"0.0-4.57-2.57","mt0azdm3j99j6xz",573,"192.csv","","null","resources/images/fishbone.png","null","",NA,NA,NA,NA,""
"image-keyboard-response",186,176809,"0.0-4.58-0.58","mt0azdm3j99j6xz",573,"192.csv","","38.700000047683716","resources/trios/L4T2A3.jpg","39","restless",0.2,0.5,0.2,0.851990515805996,"false"
"image-keyboard-response",187,177218,"0.0-4.58-1.58","mt0azdm3j99j6xz",573,"192.csv","","null","resources/maskTrios/BBA3.jpg","null","",NA,NA,NA,NA,""
"image-keyboard-response",188,178431,"0.0-4.58-2.58","mt0azdm3j99j6xz",573,"192.csv","","null","resources/images/fishbone.png","null","",NA,NA,NA,NA,""
"image-keyboard-response",189,178757,"0.0-4.59-0.59","mt0azdm3j99j6xz",573,"192.csv","","325.2999999523163","resources/trios/L4T2A3.jpg","37","restless",0.2,0.5,0.2,0.839594799679171,"false"
"image-keyboard-response",190,179172,"0.0-4.59-1.59","mt0azdm3j99j6xz",573,"192.csv","","null","resources/maskTrios/L4BB.jpg","null","",NA,NA,NA,NA,""
"image-keyboard-response",191,180383,"0.0-4.59-2.59","mt0azdm3j99j6xz",573,"192.csv","","null","resources/images/fishbone.png","null","",NA,NA,NA,NA,""
"image-keyboard-response",192,180648,"0.0-4.60-0.60","mt0azdm3j99j6xz",573,"192.csv","","264.5","resources/trios/L4T2A3.jpg","38","restless",0.2,0.5,0.2,0.0075398738295378,"true"
"image-keyboard-response",193,181052,"0.0-4.60-1.60","mt0azdm3j99j6xz",573,"192.csv","","null","resources/maskTrios/BT2B.jpg","null","",NA,NA,NA,NA,""
"image-keyboard-response",194,182261,"0.0-4.60-2.60","mt0azdm3j99j6xz",573,"192.csv","","null","resources/images/coin2.png","null","",NA,NA,NA,NA,""
"image-keyboard-response",195,182525,"0.0-4.61-0.61","mt0azdm3j99j6xz",573,"192.csv","","262.5","resources/trios/L4T2A3.jpg","38","restless",0.2,0.5,0.2,0.23142833163988,"true"
"image-keyboard-response",196,182927,"0.0-4.61-1.61","mt0azdm3j99j6xz",573,"192.csv","","null","resources/maskTrios/BT2B.jpg","null","",NA,NA,NA,NA,""
"image-keyboard-response",197,184140,"0.0-4.61-2.61","mt0azdm3j99j6xz",573,"192.csv","","null","resources/images/coin2.png","null","",NA,NA,NA,NA,""
"image-keyboard-response",198,184409,"0.0-4.62-0.62","mt0azdm3j99j6xz",573,"192.csv","","267.7999999523163","resources/trios/L4T2A3.jpg","38","restless",0.2,0.5,0.2,0.496394403036068,"true"
"image-keyboard-response",199,184824,"0.0-4.62-1.62","mt0azdm3j99j6xz",573,"192.csv","","null","resources/maskTrios/BT2B.jpg","null","",NA,NA,NA,NA,""
"image-keyboard-response",200,186038,"0.0-4.62-2.62","mt0azdm3j99j6xz",573,"192.csv","","null","resources/images/coin2.png","null","",NA,NA,NA,NA,""
"image-keyboard-response",201,186321,"0.0-4.63-0.63","mt0azdm3j99j6xz",573,"192.csv","","282.2999999523163","resources/trios/L4T2A3.jpg","38","restless",0.2,0.5,0.2,0.0176588439864638,"true"
"image-keyboard-response",202,186738,"0.0-4.63-1.63","mt0azdm3j99j6xz",573,"192.csv","","null","resources/maskTrios/BT2B.jpg","null","",NA,NA,NA,NA,""
"image-keyboard-response",203,187946,"0.0-4.63-2.63","mt0azdm3j99j6xz",573,"192.csv","","null","resources/images/coin2.png","null","",NA,NA,NA,NA,""
"image-keyboard-response",204,188210,"0.0-4.64-0.64","mt0azdm3j99j6xz",573,"192.csv","","262.7999999523163","resources/trios/L4T2A3.jpg","38","restless",0.2,0.5,0.2,0.561872185165192,"false"
"image-keyboard-response",205,188616,"0.0-4.64-1.64","mt0azdm3j99j6xz",573,"192.csv","","null","resources/maskTrios/BT2B.jpg","null","",NA,NA,NA,NA,""
"image-keyboard-response",206,189830,"0.0-4.64-2.64","mt0azdm3j99j6xz",573,"192.csv","","null","resources/images/fishbone.png","null","",NA,NA,NA,NA,""
"image-keyboard-response",207,190131,"0.0-4.65-0.65","mt0azdm3j99j6xz",573,"192.csv","","300.10000002384186","resources/trios/L4T2A3.jpg","37","restless",0.2,0.5,0.2,0.194407943213706,"true"
"image-keyboard-response",208,190534,"0.0-4.65-1.65","mt0azdm3j99j6xz",573,"192.csv","","null","resources/maskTrios/L4BB.jpg","null","",NA,NA,NA,NA,""
"image-keyboard-response",209,191749,"0.0-4.65-2.65","mt0azdm3j99j6xz",573,"192.csv","","null","resources/images/coin2.png","null","",NA,NA,NA,NA,""
"image-keyboard-response",210,192013,"0.0-4.66-0.66","mt0azdm3j99j6xz",573,"192.csv","","262.5","resources/trios/L4T2A3.jpg","37","restless",0.2,0.5,0.2,0.631168403866653,"false"
"image-keyboard-response",211,192421,"0.0-4.66-1.66","mt0azdm3j99j6xz",573,"192.csv","","null","resources/maskTrios/L4BB.jpg","null","",NA,NA,NA,NA,""
"image-keyboard-response",212,193633,"0.0-4.66-2.66","mt0azdm3j99j6xz",573,"192.csv","","null","resources/images/fishbone.png","null","",NA,NA,NA,NA,""
"image-keyboard-response",213,193955,"0.0-4.67-0.67","mt0azdm3j99j6xz",573,"192.csv","","321.39999997615814","resources/trios/L4T2A3.jpg","38","restless",0.2,0.5,0.2,0.0566408597429868,"true"
"image-keyboard-response",214,194364,"0.0-4.67-1.67","mt0azdm3j99j6xz",573,"192.csv","","null","resources/maskTrios/BT2B.jpg","null","",NA,NA,NA,NA,""
"image-keyboard-response",215,195575,"0.0-4.67-2.67","mt0azdm3j99j6xz",573,"192.csv","","null","resources/images/coin2.png","null","",NA,NA,NA,NA,""
"image-keyboard-response",216,195826,"0.0-4.68-0.68","mt0azdm3j99j6xz",573,"192.csv","","250.29999995231628","resources/trios/L4T2A3.jpg","38","restless",0.3,0.5,0.2,0.513230924685324,"false"
"image-keyboard-response",217,196242,"0.0-4.68-1.68","mt0azdm3j99j6xz",573,"192.csv","","null","resources/maskTrios/BT2B.jpg","null","",NA,NA,NA,NA,""
"image-keyboard-response",218,197451,"0.0-4.68-2.68","mt0azdm3j99j6xz",573,"192.csv","","null","resources/images/fishbone.png","null","",NA,NA,NA,NA,""
"image-keyboard-response",219,197731,"0.0-4.69-0.69","mt0azdm3j99j6xz",573,"192.csv","","279.5","resources/trios/L4T2A3.jpg","37","restless",0.3,0.5,0.2,0.612494321247196,"false"
"image-keyboard-response",220,198148,"0.0-4.69-1.69","mt0azdm3j99j6xz",573,"192.csv","","null","resources/maskTrios/L4BB.jpg","null","",NA,NA,NA,NA,""
"image-keyboard-response",221,199362,"0.0-4.69-2.69","mt0azdm3j99j6xz",573,"192.csv","","null","resources/images/fishbone.png","null","",NA,NA,NA,NA,""
"image-keyboard-response",222,199611,"0.0-4.70-0.70","mt0azdm3j99j6xz",573,"192.csv","","247.70000004768372","resources/trios/L4T2A3.jpg","39","restless",0.3,0.5,0.2,0.378917379609149,"false"
"image-keyboard-response",223,200016,"0.0-4.70-1.70","mt0azdm3j99j6xz",573,"192.csv","","null","resources/maskTrios/BBA3.jpg","null","",NA,NA,NA,NA,""
"image-keyboard-response",224,201232,"0.0-4.70-2.70","mt0azdm3j99j6xz",573,"192.csv","","null","resources/images/fishbone.png","null","",NA,NA,NA,NA,""
"image-keyboard-response",225,201478,"0.0-4.71-0.71","mt0azdm3j99j6xz",573,"192.csv","","245.30000007152557","resources/trios/L4T2A3.jpg","38","restless",0.4,0.5,0.2,0.213615858352367,"true"
"image-keyboard-response",226,201883,"0.0-4.71-1.71","mt0azdm3j99j6xz",573,"192.csv","","null","resources/maskTrios/BT2B.jpg","null","",NA,NA,NA,NA,""
"image-keyboard-response",227,203096,"0.0-4.71-2.71","mt0azdm3j99j6xz",573,"192.csv","","null","resources/images/coin2.png","null","",NA,NA,NA,NA,""
"image-keyboard-response",228,203353,"0.0-4.72-0.72","mt0azdm3j99j6xz",573,"192.csv","","256","resources/trios/L4T2A3.jpg","38","restless",0.4,0.5,0.2,0.41081174200437,"true"
"image-keyboard-response",229,203765,"0.0-4.72-1.72","mt0azdm3j99j6xz",573,"192.csv","","null","resources/maskTrios/BT2B.jpg","null","",NA,NA,NA,NA,""
"image-keyboard-response",230,204980,"0.0-4.72-2.72","mt0azdm3j99j6xz",573,"192.csv","","null","resources/images/coin2.png","null","",NA,NA,NA,NA,""
"image-keyboard-response",231,205205,"0.0-4.73-0.73","mt0azdm3j99j6xz",573,"192.csv","","223.60000002384186","resources/trios/L4T2A3.jpg","38","restless",0.4,0.5,0.2,0.768201591504942,"false"
"image-keyboard-response",232,205618,"0.0-4.73-1.73","mt0azdm3j99j6xz",573,"192.csv","","null","resources/maskTrios/BT2B.jpg","null","",NA,NA,NA,NA,""
"image-keyboard-response",233,206831,"0.0-4.73-2.73","mt0azdm3j99j6xz",573,"192.csv","","null","resources/images/fishbone.png","null","",NA,NA,NA,NA,""
"image-keyboard-response",234,207060,"0.0-4.74-0.74","mt0azdm3j99j6xz",573,"192.csv","","228.10000002384186","resources/trios/L4T2A3.jpg","39","restless",0.4,0.5,0.1,0.50557309820407,"false"
"image-keyboard-response",235,207466,"0.0-4.74-1.74","mt0azdm3j99j6xz",573,"192.csv","","null","resources/maskTrios/BBA3.jpg","null","",NA,NA,NA,NA,""
"image-keyboard-response",236,208680,"0.0-4.74-2.74","mt0azdm3j99j6xz",573,"192.csv","","null","resources/images/fishbone.png","null","",NA,NA,NA,NA,""
"image-keyboard-response",237,208985,"0.0-4.75-0.75","mt0azdm3j99j6xz",573,"192.csv","","303.89999997615814","resources/trios/L4T2A3.jpg","38","restless",0.4,0.5,0.1,0.357744749472033,"true"
"image-keyboard-response",238,209396,"0.0-4.75-1.75","mt0azdm3j99j6xz",573,"192.csv","","null","resources/maskTrios/BT2B.jpg","null","",NA,NA,NA,NA,""
"image-keyboard-response",239,210608,"0.0-4.75-2.75","mt0azdm3j99j6xz",573,"192.csv","","null","resources/images/coin2.png","null","",NA,NA,NA,NA,""
"image-keyboard-response",240,210910,"0.0-4.76-0.76","mt0azdm3j99j6xz",573,"192.csv","","301","resources/trios/L4T2A3.jpg","38","restless",0.3,0.5,0.1,0.231778292100901,"true"
"image-keyboard-response",241,211321,"0.0-4.76-1.76","mt0azdm3j99j6xz",573,"192.csv","","null","resources/maskTrios/BT2B.jpg","null","",NA,NA,NA,NA,""
"image-keyboard-response",242,212530,"0.0-4.76-2.76","mt0azdm3j99j6xz",573,"192.csv","","null","resources/images/coin2.png","null","",NA,NA,NA,NA,""
"image-keyboard-response",243,212830,"0.0-4.77-0.77","mt0azdm3j99j6xz",573,"192.csv","","299.5","resources/trios/L4T2A3.jpg","38","restless",0.3,0.5,0.1,0.141107366093267,"true"
"image-keyboard-response",244,213244,"0.0-4.77-1.77","mt0azdm3j99j6xz",573,"192.csv","","null","resources/maskTrios/BT2B.jpg","null","",NA,NA,NA,NA,""
"image-keyboard-response",245,214460,"0.0-4.77-2.77","mt0azdm3j99j6xz",573,"192.csv","","null","resources/images/coin2.png","null","",NA,NA,NA,NA,""
"image-keyboard-response",246,214715,"0.0-4.78-0.78","mt0azdm3j99j6xz",573,"192.csv","","253.60000002384186","resources/trios/L4T2A3.jpg","38","restless",0.3,0.5,0.1,0.451996773539798,"true"
"image-keyboard-response",247,215124,"0.0-4.78-1.78","mt0azdm3j99j6xz",573,"192.csv","","null","resources/maskTrios/BT2B.jpg","null","",NA,NA,NA,NA,""
"image-keyboard-response",248,216340,"0.0-4.78-2.78","mt0azdm3j99j6xz",573,"192.csv","","null","resources/images/coin2.png","null","",NA,NA,NA,NA,""
"image-keyboard-response",249,216603,"0.0-4.79-0.79","mt0azdm3j99j6xz",573,"192.csv","","262.7000000476837","resources/trios/L4T2A3.jpg","38","restless",0.3,0.5,0.1,0.980114608276702,"false"
"image-keyboard-response",250,217014,"0.0-4.79-1.79","mt0azdm3j99j6xz",573,"192.csv","","null","resources/maskTrios/BT2B.jpg","null","",NA,NA,NA,NA,""
"image-keyboard-response",251,218228,"0.0-4.79-2.79","mt0azdm3j99j6xz",573,"192.csv","","null","resources/images/fishbone.png","null","",NA,NA,NA,NA,""
"image-keyboard-response",252,218519,"0.0-4.80-0.80","mt0azdm3j99j6xz",573,"192.csv","","289.60000002384186","resources/trios/L4T2A3.jpg","37","restless",0.3,0.5,0.1,0.623550854217941,"false"
"image-keyboard-response",253,218933,"0.0-4.80-1.80","mt0azdm3j99j6xz",573,"192.csv","","null","resources/maskTrios/L4BB.jpg","null","",NA,NA,NA,NA,""
"image-keyboard-response",254,220143,"0.0-4.80-2.80","mt0azdm3j99j6xz",573,"192.csv","","null","resources/images/fishbone.png","null","",NA,NA,NA,NA,""
"image-keyboard-response",255,220409,"0.0-4.81-0.81","mt0azdm3j99j6xz",573,"192.csv","","265.7000000476837","resources/trios/L4T2A3.jpg","39","restless",0.3,0.5,0.1,0.924262755784356,"false"
"image-keyboard-response",256,220810,"0.0-4.81-1.81","mt0azdm3j99j6xz",573,"192.csv","","null","resources/maskTrios/BBA3.jpg","null","",NA,NA,NA,NA,""
"image-keyboard-response",257,222025,"0.0-4.81-2.81","mt0azdm3j99j6xz",573,"192.csv","","null","resources/images/fishbone.png","null","",NA,NA,NA,NA,""
"image-keyboard-response",258,222294,"0.0-4.82-0.82","mt0azdm3j99j6xz",573,"192.csv","","267.7000000476837","resources/trios/L4T2A3.jpg","38","restless",0.3,0.5,0.1,0.807393641368628,"false"
"image-keyboard-response",259,222709,"0.0-4.82-1.82","mt0azdm3j99j6xz",573,"192.csv","","null","resources/maskTrios/BT2B.jpg","null","",NA,NA,NA,NA,""
"image-keyboard-response",260,223923,"0.0-4.82-2.82","mt0azdm3j99j6xz",573,"192.csv","","null","resources/images/fishbone.png","null","",NA,NA,NA,NA,""
"image-keyboard-response",261,224174,"0.0-4.83-0.83","mt0azdm3j99j6xz",573,"192.csv","","249.60000002384186","resources/trios/L4T2A3.jpg","38","restless",0.3,0.5,0.2,0.486602142147087,"true"
"image-keyboard-response",262,224579,"0.0-4.83-1.83","mt0azdm3j99j6xz",573,"192.csv","","null","resources/maskTrios/BT2B.jpg","null","",NA,NA,NA,NA,""
"image-keyboard-response",263,225793,"0.0-4.83-2.83","mt0azdm3j99j6xz",573,"192.csv","","null","resources/images/coin2.png","null","",NA,NA,NA,NA,""
"image-keyboard-response",264,225964,"0.0-4.84-0.84","mt0azdm3j99j6xz",573,"192.csv","","169.79999995231628","resources/trios/L4T2A3.jpg","38","restless",0.2,0.6,0.2,0.373980574065236,"true"
"image-keyboard-response",265,226367,"0.0-4.84-1.84","mt0azdm3j99j6xz",573,"192.csv","","null","resources/maskTrios/BT2B.jpg","null","",NA,NA,NA,NA,""
"image-keyboard-response",266,227578,"0.0-4.84-2.84","mt0azdm3j99j6xz",573,"192.csv","","null","resources/images/coin2.png","null","",NA,NA,NA,NA,""
"image-keyboard-response",267,227762,"0.0-4.85-0.85","mt0azdm3j99j6xz",573,"192.csv","","183.20000004768372","resources/trios/L4T2A3.jpg","38","restless",0.2,0.6,0.2,0.596461119683113,"true"
"image-keyboard-response",268,228167,"0.0-4.85-1.85","mt0azdm3j99j6xz",573,"192.csv","","null","resources/maskTrios/BT2B.jpg","null","",NA,NA,NA,NA,""
"image-keyboard-response",269,229375,"0.0-4.85-2.85","mt0azdm3j99j6xz",573,"192.csv","","null","resources/images/coin2.png","null","",NA,NA,NA,NA,""
"image-keyboard-response",270,229550,"0.0-4.86-0.86","mt0azdm3j99j6xz",573,"192.csv","","174.10000002384186","resources/trios/L4T2A3.jpg","38","restless",0.2,0.6,0.2,0.280396146632961,"true"
"image-keyboard-response",271,229965,"0.0-4.86-1.86","mt0azdm3j99j6xz",573,"192.csv","","null","resources/maskTrios/BT2B.jpg","null","",NA,NA,NA,NA,""
"image-keyboard-response",272,231180,"0.0-4.86-2.86","mt0azdm3j99j6xz",573,"192.csv","","null","resources/images/coin2.png","null","",NA,NA,NA,NA,""
"image-keyboard-response",273,231371,"0.0-4.87-0.87","mt0azdm3j99j6xz",573,"192.csv","","189.80000007152557","resources/trios/L4T2A3.jpg","38","restless",0.2,0.6,0.3,0.338083054116449,"true"
"image-keyboard-response",274,231788,"0.0-4.87-1.87","mt0azdm3j99j6xz",573,"192.csv","","null","resources/maskTrios/BT2B.jpg","null","",NA,NA,NA,NA,""
"image-keyboard-response",275,233001,"0.0-4.87-2.87","mt0azdm3j99j6xz",573,"192.csv","","null","resources/images/coin2.png","null","",NA,NA,NA,NA,""
"image-keyboard-response",276,233054,"0.0-4.88-0.88","mt0azdm3j99j6xz",573,"192.csv","","52.5","resources/trios/L4T2A3.jpg","38","restless",0.2,0.6,0.3,0.778356875358732,"false"
"image-keyboard-response",277,233466,"0.0-4.88-1.88","mt0azdm3j99j6xz",573,"192.csv","","null","resources/maskTrios/BT2B.jpg","null","",NA,NA,NA,NA,""
"image-keyboard-response",278,234682,"0.0-4.88-2.88","mt0azdm3j99j6xz",573,"192.csv","","null","resources/images/fishbone.png","null","",NA,NA,NA,NA,""
"image-keyboard-response",279,234945,"0.0-4.89-0.89","mt0azdm3j99j6xz",573,"192.csv","","262.2000000476837","resources/trios/L4T2A3.jpg","37","restless",0.2,0.6,0.3,0.169637595940623,"true"
"image-keyboard-response",280,235357,"0.0-4.89-1.89","mt0azdm3j99j6xz",573,"192.csv","","null","resources/maskTrios/L4BB.jpg","null","",NA,NA,NA,NA,""
"image-keyboard-response",281,236572,"0.0-4.89-2.89","mt0azdm3j99j6xz",573,"192.csv","","null","resources/images/coin2.png","null","",NA,NA,NA,NA,""
"image-keyboard-response",282,236834,"0.0-4.90-0.90","mt0azdm3j99j6xz",573,"192.csv","","260.5","resources/trios/L4T2A3.jpg","37","restless",0.3,0.6,0.3,0.824631465035343,"false"
"image-keyboard-response",283,237239,"0.0-4.90-1.90","mt0azdm3j99j6xz",573,"192.csv","","null","resources/maskTrios/L4BB.jpg","null","",NA,NA,NA,NA,""
"image-keyboard-response",284,238454,"0.0-4.90-2.90","mt0azdm3j99j6xz",573,"192.csv","","null","resources/images/fishbone.png","null","",NA,NA,NA,NA,""
"image-keyboard-response",285,238700,"0.0-4.91-0.91","mt0azdm3j99j6xz",573,"192.csv","","244.79999995231628","resources/trios/L4T2A3.jpg","38","restless",0.4,0.6,0.3,0.145747038980591,"true"
"image-keyboard-response",286,239109,"0.0-4.91-1.91","mt0azdm3j99j6xz",573,"192.csv","","null","resources/maskTrios/BT2B.jpg","null","",NA,NA,NA,NA,""
"image-keyboard-response",287,240317,"0.0-4.91-2.91","mt0azdm3j99j6xz",573,"192.csv","","null","resources/images/coin2.png","null","",NA,NA,NA,NA,""
"image-keyboard-response",288,240544,"0.0-4.92-0.92","mt0azdm3j99j6xz",573,"192.csv","","226.40000009536743","resources/trios/L4T2A3.jpg","38","restless",0.4,0.6,0.3,0.94524308821739,"false"
"image-keyboard-response",289,240955,"0.0-4.92-1.92","mt0azdm3j99j6xz",573,"192.csv","","null","resources/maskTrios/BT2B.jpg","null","",NA,NA,NA,NA,""
"image-keyboard-response",290,242157,"0.0-4.92-2.92","mt0azdm3j99j6xz",573,"192.csv","","null","resources/images/fishbone.png","null","",NA,NA,NA,NA,""
"image-keyboard-response",291,242385,"0.0-4.93-0.93","mt0azdm3j99j6xz",573,"192.csv","","226.19999992847443","resources/trios/L4T2A3.jpg","39","restless",0.4,0.6,0.3,0.383625914456952,"false"
"image-keyboard-response",292,242791,"0.0-4.93-1.93","mt0azdm3j99j6xz",573,"192.csv","","null","resources/maskTrios/BBA3.jpg","null","",NA,NA,NA,NA,""
"image-keyboard-response",293,244003,"0.0-4.93-2.93","mt0azdm3j99j6xz",573,"192.csv","","null","resources/images/fishbone.png","null","",NA,NA,NA,NA,""
"image-keyboard-response",294,244031,"0.0-4.94-0.94","mt0azdm3j99j6xz",573,"192.csv","","26.5","resources/trios/L4T2A3.jpg","37","restless",0.4,0.6,0.3,0.0231283079342031,"true"
"image-keyboard-response",295,244437,"0.0-4.94-1.94","mt0azdm3j99j6xz",573,"192.csv","","null","resources/maskTrios/L4BB.jpg","null","",NA,NA,NA,NA,""
"image-keyboard-response",296,245652,"0.0-4.94-2.94","mt0azdm3j99j6xz",573,"192.csv","","null","resources/images/coin2.png","null","",NA,NA,NA,NA,""
"image-keyboard-response",297,245776,"0.0-4.95-0.95","mt0azdm3j99j6xz",573,"192.csv","","122.60000002384186","resources/trios/L4T2A3.jpg","37","restless",0.4,0.5,0.3,0.347789480424466,"true"
"image-keyboard-response",298,246178,"0.0-4.95-1.95","mt0azdm3j99j6xz",573,"192.csv","","null","resources/maskTrios/L4BB.jpg","null","",NA,NA,NA,NA,""
"image-keyboard-response",299,247391,"0.0-4.95-2.95","mt0azdm3j99j6xz",573,"192.csv","","null","resources/images/coin2.png","null","",NA,NA,NA,NA,""
"image-keyboard-response",300,247685,"0.0-4.96-0.96","mt0azdm3j99j6xz",573,"192.csv","","292.89999997615814","resources/trios/L4T2A3.jpg","37","restless",0.4,0.5,0.3,0.892930171100513,"false"
"image-keyboard-response",301,248089,"0.0-4.96-1.96","mt0azdm3j99j6xz",573,"192.csv","","null","resources/maskTrios/L4BB.jpg","null","",NA,NA,NA,NA,""
"image-keyboard-response",302,249301,"0.0-4.96-2.96","mt0azdm3j99j6xz",573,"192.csv","","null","resources/images/fishbone.png","null","",NA,NA,NA,NA,""
"image-keyboard-response",303,249597,"0.0-4.97-0.97","mt0azdm3j99j6xz",573,"192.csv","","295.10000002384186","resources/trios/L4T2A3.jpg","38","restless",0.4,0.5,0.3,0.506152461934585,"false"
"image-keyboard-response",304,250003,"0.0-4.97-1.97","mt0azdm3j99j6xz",573,"192.csv","","null","resources/maskTrios/BT2B.jpg","null","",NA,NA,NA,NA,""
"image-keyboard-response",305,251214,"0.0-4.97-2.97","mt0azdm3j99j6xz",573,"192.csv","","null","resources/images/fishbone.png","null","",NA,NA,NA,NA,""
"image-keyboard-response",306,251254,"0.0-4.98-0.98","mt0azdm3j99j6xz",573,"192.csv","","38.60000002384186","resources/trios/L4T2A3.jpg","38","restless",0.4,0.5,0.3,0.459841050332578,"true"
"image-keyboard-response",307,251667,"0.0-4.98-1.98","mt0azdm3j99j6xz",573,"192.csv","","null","resources/maskTrios/BT2B.jpg","null","",NA,NA,NA,NA,""
"image-keyboard-response",308,252882,"0.0-4.98-2.98","mt0azdm3j99j6xz",573,"192.csv","","null","resources/images/coin2.png","null","",NA,NA,NA,NA,""
"image-keyboard-response",309,253175,"0.0-4.99-0.99","mt0azdm3j99j6xz",573,"192.csv","","291.39999997615814","resources/trios/L4T2A3.jpg","38","restless",0.4,0.5,0.3,0.29415228074527,"true"
"image-keyboard-response",310,253586,"0.0-4.99-1.99","mt0azdm3j99j6xz",573,"192.csv","","null","resources/maskTrios/BT2B.jpg","null","",NA,NA,NA,NA,""
"image-keyboard-response",311,254803,"0.0-4.99-2.99","mt0azdm3j99j6xz",573,"192.csv","","null","resources/images/coin2.png","null","",NA,NA,NA,NA,""
"image-keyboard-response",312,255066,"0.0-4.100-0.100","mt0azdm3j99j6xz",573,"192.csv","","262.10000002384186","resources/trios/L4T2A3.jpg","38","restless",0.4,0.5,0.3,0.97974275391743,"false"
"image-keyboard-response",313,255469,"0.0-4.100-1.100","mt0azdm3j99j6xz",573,"192.csv","","null","resources/maskTrios/BT2B.jpg","null","",NA,NA,NA,NA,""
"image-keyboard-response",314,256680,"0.0-4.100-2.100","mt0azdm3j99j6xz",573,"192.csv","","null","resources/images/fishbone.png","null","",NA,NA,NA,NA,""
"image-keyboard-response",315,256929,"0.0-4.101-0.101","mt0azdm3j99j6xz",573,"192.csv","","248.69999992847443","resources/trios/L4T2A3.jpg","37","restless",0.4,0.5,0.3,0.719865562036416,"false"
"image-keyboard-response",316,257346,"0.0-4.101-1.101","mt0azdm3j99j6xz",573,"192.csv","","null","resources/maskTrios/L4BB.jpg","null","",NA,NA,NA,NA,""
"image-keyboard-response",317,258553,"0.0-4.101-2.101","mt0azdm3j99j6xz",573,"192.csv","","null","resources/images/fishbone.png","null","",NA,NA,NA,NA,""
"image-keyboard-response",318,258572,"0.0-4.102-0.102","mt0azdm3j99j6xz",573,"192.csv","","18.199999928474426","resources/trios/L4T2A3.jpg","37","restless",0.4,0.5,0.3,0.501041837690787,"false"
"image-keyboard-response",319,258987,"0.0-4.102-1.102","mt0azdm3j99j6xz",573,"192.csv","","null","resources/maskTrios/L4BB.jpg","null","",NA,NA,NA,NA,""
"image-keyboard-response",320,260198,"0.0-4.102-2.102","mt0azdm3j99j6xz",573,"192.csv","","null","resources/images/fishbone.png","null","",NA,NA,NA,NA,""
"image-keyboard-response",321,260518,"0.0-4.103-0.103","mt0azdm3j99j6xz",573,"192.csv","","318.2000000476837","resources/trios/L4T2A3.jpg","38","restless",0.4,0.5,0.3,0.803719916192945,"false"
"image-keyboard-response",322,260928,"0.0-4.103-1.103","mt0azdm3j99j6xz",573,"192.csv","","null","resources/maskTrios/BT2B.jpg","null","",NA,NA,NA,NA,""
"image-keyboard-response",323,262137,"0.0-4.103-2.103","mt0azdm3j99j6xz",573,"192.csv","","null","resources/images/fishbone.png","null","",NA,NA,NA,NA,""
"image-keyboard-response",324,262279,"0.0-4.104-0.104","mt0azdm3j99j6xz",573,"192.csv","","140.39999997615814","resources/trios/L4T2A3.jpg","37","restless",0.4,0.5,0.3,0.128343892828534,"true"
"image-keyboard-response",325,262682,"0.0-4.104-1.104","mt0azdm3j99j6xz",573,"192.csv","","null","resources/maskTrios/L4BB.jpg","null","",NA,NA,NA,NA,""
"image-keyboard-response",326,263888,"0.0-4.104-2.104","mt0azdm3j99j6xz",573,"192.csv","","null","resources/images/coin2.png","null","",NA,NA,NA,NA,""
"image-keyboard-response",327,264183,"0.0-4.105-0.105","mt0azdm3j99j6xz",573,"192.csv","","293.5","resources/trios/L4T2A3.jpg","37","restless",0.4,0.5,0.3,0.270350017163603,"true"
"image-keyboard-response",328,264586,"0.0-4.105-1.105","mt0azdm3j99j6xz",573,"192.csv","","null","resources/maskTrios/L4BB.jpg","null","",NA,NA,NA,NA,""
"image-keyboard-response",329,265797,"0.0-4.105-2.105","mt0azdm3j99j6xz",573,"192.csv","","null","resources/images/coin2.png","null","",NA,NA,NA,NA,""
"image-keyboard-response",330,266082,"0.0-4.106-0.106","mt0azdm3j99j6xz",573,"192.csv","","283.89999997615814","resources/trios/L4T2A3.jpg","37","restless",0.4,0.6,0.4,0.671053858721224,"false"
"image-keyboard-response",331,266496,"0.0-4.106-1.106","mt0azdm3j99j6xz",573,"192.csv","","null","resources/maskTrios/L4BB.jpg","null","",NA,NA,NA,NA,""
"image-keyboard-response",332,267705,"0.0-4.106-2.106","mt0azdm3j99j6xz",573,"192.csv","","null","resources/images/fishbone.png","null","",NA,NA,NA,NA,""
"image-keyboard-response",333,267903,"0.0-4.107-0.107","mt0azdm3j99j6xz",573,"192.csv","","196.5","resources/trios/L4T2A3.jpg","38","restless",0.4,0.6,0.4,0.923192666707436,"false"
"image-keyboard-response",334,268311,"0.0-4.107-1.107","mt0azdm3j99j6xz",573,"192.csv","","null","resources/maskTrios/BT2B.jpg","null","",NA,NA,NA,NA,""
"image-keyboard-response",335,269525,"0.0-4.107-2.107","mt0azdm3j99j6xz",573,"192.csv","","null","resources/images/fishbone.png","null","",NA,NA,NA,NA,""
"image-keyboard-response",336,269772,"0.0-4.108-0.108","mt0azdm3j99j6xz",573,"192.csv","","245.39999997615814","resources/trios/L4T2A3.jpg","38","restless",0.4,0.6,0.4,0.1165682037483,"true"
"image-keyboard-response",337,270179,"0.0-4.108-1.108","mt0azdm3j99j6xz",573,"192.csv","","null","resources/maskTrios/BT2B.jpg","null","",NA,NA,NA,NA,""
"image-keyboard-response",338,271388,"0.0-4.108-2.108","mt0azdm3j99j6xz",573,"192.csv","","null","resources/images/coin2.png","null","",NA,NA,NA,NA,""
"image-keyboard-response",339,271674,"0.0-4.109-0.109","mt0azdm3j99j6xz",573,"192.csv","","284.5","resources/trios/L4T2A3.jpg","38","restless",0.4,0.6,0.4,0.887422123889112,"false"
"image-keyboard-response",340,272082,"0.0-4.109-1.109","mt0azdm3j99j6xz",573,"192.csv","","null","resources/maskTrios/BT2B.jpg","null","",NA,NA,NA,NA,""
"image-keyboard-response",341,273288,"0.0-4.109-2.109","mt0azdm3j99j6xz",573,"192.csv","","null","resources/images/fishbone.png","null","",NA,NA,NA,NA,""
"image-keyboard-response",342,273559,"0.0-4.110-0.110","mt0azdm3j99j6xz",573,"192.csv","","269.60000002384186","resources/trios/L4T2A3.jpg","37","restless",0.4,0.6,0.4,0.798106461732997,"false"
"image-keyboard-response",343,273969,"0.0-4.110-1.110","mt0azdm3j99j6xz",573,"192.csv","","null","resources/maskTrios/L4BB.jpg","null","",NA,NA,NA,NA,""
"image-keyboard-response",344,275185,"0.0-4.110-2.110","mt0azdm3j99j6xz",573,"192.csv","","null","resources/images/fishbone.png","null","",NA,NA,NA,NA,""
"image-keyboard-response",345,275216,"0.0-4.111-0.111","mt0azdm3j99j6xz",573,"192.csv","","30.200000047683716","resources/trios/L4T2A3.jpg","38","restless",0.4,0.6,0.4,0.836501013907597,"false"
"image-keyboard-response",346,275620,"0.0-4.111-1.111","mt0azdm3j99j6xz",573,"192.csv","","null","resources/maskTrios/BT2B.jpg","null","",NA,NA,NA,NA,""
"image-keyboard-response",347,276832,"0.0-4.111-2.111","mt0azdm3j99j6xz",573,"192.csv","","null","resources/images/fishbone.png","null","",NA,NA,NA,NA,""
"image-keyboard-response",348,277297,"0.0-4.112-0.112","mt0azdm3j99j6xz",573,"192.csv","","464.8000000715256","resources/trios/L4T2A3.jpg","38","restless",0.4,0.6,0.4,0.866021921849812,"false"
"image-keyboard-response",349,277702,"0.0-4.112-1.112","mt0azdm3j99j6xz",573,"192.csv","","null","resources/maskTrios/BT2B.jpg","null","",NA,NA,NA,NA,""
"image-keyboard-response",350,278915,"0.0-4.112-2.112","mt0azdm3j99j6xz",573,"192.csv","","null","resources/images/fishbone.png","null","",NA,NA,NA,NA,""
"image-keyboard-response",351,279340,"0.0-4.113-0.113","mt0azdm3j99j6xz",573,"192.csv","","423.60000002384186","resources/trios/L4T2A3.jpg","38","restless",0.4,0.6,0.4,0.949709078633164,"false"
"image-keyboard-response",352,279756,"0.0-4.113-1.113","mt0azdm3j99j6xz",573,"192.csv","","null","resources/maskTrios/BT2B.jpg","null","",NA,NA,NA,NA,""
"image-keyboard-response",353,280971,"0.0-4.113-2.113","mt0azdm3j99j6xz",573,"192.csv","","null","resources/images/fishbone.png","null","",NA,NA,NA,NA,""
"image-keyboard-response",354,281205,"0.0-4.114-0.114","mt0azdm3j99j6xz",573,"192.csv","","233.20000004768372","resources/trios/L4T2A3.jpg","39","restless",0.4,0.6,0.4,0.408635786267499,"false"
"image-keyboard-response",355,281621,"0.0-4.114-1.114","mt0azdm3j99j6xz",573,"192.csv","","null","resources/maskTrios/BBA3.jpg","null","",NA,NA,NA,NA,""
"image-keyboard-response",356,282837,"0.0-4.114-2.114","mt0azdm3j99j6xz",573,"192.csv","","null","resources/images/fishbone.png","null","",NA,NA,NA,NA,""
"image-keyboard-response",357,282960,"0.0-4.115-0.115","mt0azdm3j99j6xz",573,"192.csv","","121.60000002384186","resources/trios/L4T2A3.jpg","37","restless",0.3,0.6,0.4,0.319488410469332,"false"
"image-keyboard-response",358,283365,"0.0-4.115-1.115","mt0azdm3j99j6xz",573,"192.csv","","null","resources/maskTrios/L4BB.jpg","null","",NA,NA,NA,NA,""
"image-keyboard-response",359,284581,"0.0-4.115-2.115","mt0azdm3j99j6xz",573,"192.csv","","null","resources/images/fishbone.png","null","",NA,NA,NA,NA,""
"image-keyboard-response",360,284819,"0.0-4.116-0.116","mt0azdm3j99j6xz",573,"192.csv","","236.89999997615814","resources/trios/L4T2A3.jpg","38","restless",0.4,0.6,0.4,0.35914758210656,"true"
"image-keyboard-response",361,285232,"0.0-4.116-1.116","mt0azdm3j99j6xz",573,"192.csv","","null","resources/maskTrios/BT2B.jpg","null","",NA,NA,NA,NA,""
"image-keyboard-response",362,286442,"0.0-4.116-2.116","mt0azdm3j99j6xz",573,"192.csv","","null","resources/images/coin2.png","null","",NA,NA,NA,NA,""
"image-keyboard-response",363,286566,"0.0-4.117-0.117","mt0azdm3j99j6xz",573,"192.csv","","123.09999990463257","resources/trios/L4T2A3.jpg","38","restless",0.4,0.6,0.4,0.22751147707289,"true"
"image-keyboard-response",364,286970,"0.0-4.117-1.117","mt0azdm3j99j6xz",573,"192.csv","","null","resources/maskTrios/BT2B.jpg","null","",NA,NA,NA,NA,""
"image-keyboard-response",365,288181,"0.0-4.117-2.117","mt0azdm3j99j6xz",573,"192.csv","","null","resources/images/coin2.png","null","",NA,NA,NA,NA,""
"image-keyboard-response",366,288408,"0.0-4.118-0.118","mt0azdm3j99j6xz",573,"192.csv","","226.20000004768372","resources/trios/L4T2A3.jpg","38","restless",0.4,0.6,0.4,0.966200491750391,"false"
"image-keyboard-response",367,288817,"0.0-4.118-1.118","mt0azdm3j99j6xz",573,"192.csv","","null","resources/maskTrios/BT2B.jpg","null","",NA,NA,NA,NA,""
"image-keyboard-response",368,290033,"0.0-4.118-2.118","mt0azdm3j99j6xz",573,"192.csv","","null","resources/images/fishbone.png","null","",NA,NA,NA,NA,""
"image-keyboard-response",369,290267,"0.0-4.119-0.119","mt0azdm3j99j6xz",573,"192.csv","","232.79999995231628","resources/trios/L4T2A3.jpg","37","restless",0.4,0.7,0.4,0.501241674236817,"false"
"image-keyboard-response",370,290670,"0.0-4.119-1.119","mt0azdm3j99j6xz",573,"192.csv","","null","resources/maskTrios/L4BB.jpg","null","",NA,NA,NA,NA,""
"image-keyboard-response",371,291880,"0.0-4.119-2.119","mt0azdm3j99j6xz",573,"192.csv","","null","resources/images/fishbone.png","null","",NA,NA,NA,NA,""
"image-keyboard-response",372,292470,"0.0-4.120-0.120","mt0azdm3j99j6xz",573,"192.csv","","588.2000000476837","resources/trios/L4T2A3.jpg","39","restless",0.4,0.8,0.4,0.773480709556818,"false"
"image-keyboard-response",373,292874,"0.0-4.120-1.120","mt0azdm3j99j6xz",573,"192.csv","","null","resources/maskTrios/BBA3.jpg","null","",NA,NA,NA,NA,""
"image-keyboard-response",374,294088,"0.0-4.120-2.120","mt0azdm3j99j6xz",573,"192.csv","","null","resources/images/fishbone.png","null","",NA,NA,NA,NA,""
"image-keyboard-response",375,294409,"0.0-4.121-0.121","mt0azdm3j99j6xz",573,"192.csv","","319.7999999523163","resources/trios/L4T2A3.jpg","38","restless",0.4,0.8,0.4,0.811654828435586,"false"
"image-keyboard-response",376,294817,"0.0-4.121-1.121","mt0azdm3j99j6xz",573,"192.csv","","null","resources/maskTrios/BT2B.jpg","null","",NA,NA,NA,NA,""
"image-keyboard-response",377,296030,"0.0-4.121-2.121","mt0azdm3j99j6xz",573,"192.csv","","null","resources/images/fishbone.png","null","",NA,NA,NA,NA,""
"image-keyboard-response",378,296089,"0.0-4.122-0.122","mt0azdm3j99j6xz",573,"192.csv","","57.800000071525574","resources/trios/L4T2A3.jpg","37","restless",0.4,0.8,0.4,0.724530441607144,"false"
"image-keyboard-response",379,296494,"0.0-4.122-1.122","mt0azdm3j99j6xz",573,"192.csv","","null","resources/maskTrios/L4BB.jpg","null","",NA,NA,NA,NA,""
"image-keyboard-response",380,297706,"0.0-4.122-2.122","mt0azdm3j99j6xz",573,"192.csv","","null","resources/images/fishbone.png","null","",NA,NA,NA,NA,""
"image-keyboard-response",381,297964,"0.0-4.123-0.123","mt0azdm3j99j6xz",573,"192.csv","","256.5","resources/trios/L4T2A3.jpg","37","restless",0.4,0.8,0.4,0.083163384943638,"true"
"image-keyboard-response",382,298377,"0.0-4.123-1.123","mt0azdm3j99j6xz",573,"192.csv","","null","resources/maskTrios/L4BB.jpg","null","",NA,NA,NA,NA,""
"image-keyboard-response",383,299582,"0.0-4.123-2.123","mt0azdm3j99j6xz",573,"192.csv","","null","resources/images/coin2.png","null","",NA,NA,NA,NA,""
"image-keyboard-response",384,299855,"0.0-4.124-0.124","mt0azdm3j99j6xz",573,"192.csv","","272.09999990463257","resources/trios/L4T2A3.jpg","37","restless",0.4,0.8,0.5,0.980361460509976,"false"
"image-keyboard-response",385,300265,"0.0-4.124-1.124","mt0azdm3j99j6xz",573,"192.csv","","null","resources/maskTrios/L4BB.jpg","null","",NA,NA,NA,NA,""
"image-keyboard-response",386,301473,"0.0-4.124-2.124","mt0azdm3j99j6xz",573,"192.csv","","null","resources/images/fishbone.png","null","",NA,NA,NA,NA,""
"image-keyboard-response",387,301705,"0.0-4.125-0.125","mt0azdm3j99j6xz",573,"192.csv","","229.79999995231628","resources/trios/L4T2A3.jpg","37","restless",0.4,0.8,0.5,0.583590592615544,"false"
"image-keyboard-response",388,302114,"0.0-4.125-1.125","mt0azdm3j99j6xz",573,"192.csv","","null","resources/maskTrios/L4BB.jpg","null","",NA,NA,NA,NA,""
"image-keyboard-response",389,303328,"0.0-4.125-2.125","mt0azdm3j99j6xz",573,"192.csv","","null","resources/images/fishbone.png","null","",NA,NA,NA,NA,""
"image-keyboard-response",390,303544,"0.0-4.126-0.126","mt0azdm3j99j6xz",573,"192.csv","","215.79999995231628","resources/trios/L4T2A3.jpg","38","restless",0.4,0.7,0.5,0.211521990612479,"true"
"image-keyboard-response",391,303954,"0.0-4.126-1.126","mt0azdm3j99j6xz",573,"192.csv","","null","resources/maskTrios/BT2B.jpg","null","",NA,NA,NA,NA,""
"image-keyboard-response",392,305162,"0.0-4.126-2.126","mt0azdm3j99j6xz",573,"192.csv","","null","resources/images/coin2.png","null","",NA,NA,NA,NA,""
"image-keyboard-response",393,305213,"0.0-4.127-0.127","mt0azdm3j99j6xz",573,"192.csv","","49.60000002384186","resources/trios/L4T2A3.jpg","38","restless",0.5,0.7,0.5,0.994691991159848,"false"
"image-keyboard-response",394,305627,"0.0-4.127-1.127","mt0azdm3j99j6xz",573,"192.csv","","null","resources/maskTrios/BT2B.jpg","null","",NA,NA,NA,NA,""
"image-keyboard-response",395,306842,"0.0-4.127-2.127","mt0azdm3j99j6xz",573,"192.csv","","null","resources/images/fishbone.png","null","",NA,NA,NA,NA,""
"image-keyboard-response",396,307158,"0.0-4.128-0.128","mt0azdm3j99j6xz",573,"192.csv","","315.39999997615814","resources/trios/L4T2A3.jpg","37","restless",0.5,0.6,0.5,0.219981079277536,"true"
"image-keyboard-response",397,307572,"0.0-4.128-1.128","mt0azdm3j99j6xz",573,"192.csv","","null","resources/maskTrios/L4BB.jpg","null","",NA,NA,NA,NA,""
"image-keyboard-response",398,308779,"0.0-4.128-2.128","mt0azdm3j99j6xz",573,"192.csv","","null","resources/images/coin2.png","null","",NA,NA,NA,NA,""
"image-keyboard-response",399,309029,"0.0-4.129-0.129","mt0azdm3j99j6xz",573,"192.csv","","249.70000004768372","resources/trios/L4T2A3.jpg","37","restless",0.5,0.6,0.5,0.216784928386815,"true"
"image-keyboard-response",400,309445,"0.0-4.129-1.129","mt0azdm3j99j6xz",573,"192.csv","","null","resources/maskTrios/L4BB.jpg","null","",NA,NA,NA,NA,""
"image-keyboard-response",401,310654,"0.0-4.129-2.129","mt0azdm3j99j6xz",573,"192.csv","","null","resources/images/coin2.png","null","",NA,NA,NA,NA,""
"image-keyboard-response",402,310909,"0.0-4.130-0.130","mt0azdm3j99j6xz",573,"192.csv","","253.59999990463257","resources/trios/L4T2A3.jpg","37","restless",0.5,0.6,0.4,0.582800152171799,"false"
"image-keyboard-response",403,311325,"0.0-4.130-1.130","mt0azdm3j99j6xz",573,"192.csv","","null","resources/maskTrios/L4BB.jpg","null","",NA,NA,NA,NA,""
"image-keyboard-response",404,312538,"0.0-4.130-2.130","mt0azdm3j99j6xz",573,"192.csv","","null","resources/images/fishbone.png","null","",NA,NA,NA,NA,""
"image-keyboard-response",405,312834,"0.0-4.131-0.131","mt0azdm3j99j6xz",573,"192.csv","","295.09999990463257","resources/trios/L4T2A3.jpg","39","restless",0.5,0.6,0.4,0.238032052429655,"true"
"image-keyboard-response",406,313238,"0.0-4.131-1.131","mt0azdm3j99j6xz",573,"192.csv","","null","resources/maskTrios/BBA3.jpg","null","",NA,NA,NA,NA,""
"image-keyboard-response",407,314449,"0.0-4.131-2.131","mt0azdm3j99j6xz",573,"192.csv","","null","resources/images/coin2.png","null","",NA,NA,NA,NA,""
"image-keyboard-response",408,314650,"0.0-4.132-0.132","mt0azdm3j99j6xz",573,"192.csv","","199.10000002384186","resources/trios/L4T2A3.jpg","39","restless",0.5,0.6,0.4,0.378841615943219,"true"
"image-keyboard-response",409,315056,"0.0-4.132-1.132","mt0azdm3j99j6xz",573,"192.csv","","null","resources/maskTrios/BBA3.jpg","null","",NA,NA,NA,NA,""
"image-keyboard-response",410,316269,"0.0-4.132-2.132","mt0azdm3j99j6xz",573,"192.csv","","null","resources/images/coin2.png","null","",NA,NA,NA,NA,""
"image-keyboard-response",411,316279,"0.0-4.133-0.133","mt0azdm3j99j6xz",573,"192.csv","","8.700000047683716","resources/trios/L4T2A3.jpg","39","restless",0.5,0.6,0.5,0.656963318992024,"false"
"image-keyboard-response",412,316686,"0.0-4.133-1.133","mt0azdm3j99j6xz",573,"192.csv","","null","resources/maskTrios/BBA3.jpg","null","",NA,NA,NA,NA,""
"image-keyboard-response",413,317895,"0.0-4.133-2.133","mt0azdm3j99j6xz",573,"192.csv","","null","resources/images/fishbone.png","null","",NA,NA,NA,NA,""
"image-keyboard-response",414,318183,"0.0-4.134-0.134","mt0azdm3j99j6xz",573,"192.csv","","286.7999999523163","resources/trios/L4T2A3.jpg","38","restless",0.5,0.6,0.5,0.465213059386543,"true"
"image-keyboard-response",415,318598,"0.0-4.134-1.134","mt0azdm3j99j6xz",573,"192.csv","","null","resources/maskTrios/BT2B.jpg","null","",NA,NA,NA,NA,""
"image-keyboard-response",416,319813,"0.0-4.134-2.134","mt0azdm3j99j6xz",573,"192.csv","","null","resources/images/coin2.png","null","",NA,NA,NA,NA,""
"image-keyboard-response",417,320123,"0.0-4.135-0.135","mt0azdm3j99j6xz",573,"192.csv","","308.60000002384186","resources/trios/L4T2A3.jpg","38","restless",0.5,0.6,0.5,0.681541490415021,"false"
"image-keyboard-response",418,320529,"0.0-4.135-1.135","mt0azdm3j99j6xz",573,"192.csv","","null","resources/maskTrios/BT2B.jpg","null","",NA,NA,NA,NA,""
"image-keyboard-response",419,321740,"0.0-4.135-2.135","mt0azdm3j99j6xz",573,"192.csv","","null","resources/images/fishbone.png","null","",NA,NA,NA,NA,""
"image-keyboard-response",420,322018,"0.0-4.136-0.136","mt0azdm3j99j6xz",573,"192.csv","","277.60000002384186","resources/trios/L4T2A3.jpg","37","restless",0.5,0.6,0.5,0.503331091756495,"false"
"image-keyboard-response",421,322423,"0.0-4.136-1.136","mt0azdm3j99j6xz",573,"192.csv","","null","resources/maskTrios/L4BB.jpg","null","",NA,NA,NA,NA,""
"image-keyboard-response",422,323639,"0.0-4.136-2.136","mt0azdm3j99j6xz",573,"192.csv","","null","resources/images/fishbone.png","null","",NA,NA,NA,NA,""
"image-keyboard-response",423,323868,"0.0-4.137-0.137","mt0azdm3j99j6xz",573,"192.csv","","228","resources/trios/L4T2A3.jpg","39","restless",0.5,0.6,0.5,0.539251114058647,"false"
"image-keyboard-response",424,324276,"0.0-4.137-1.137","mt0azdm3j99j6xz",573,"192.csv","","null","resources/maskTrios/BBA3.jpg","null","",NA,NA,NA,NA,""
"image-keyboard-response",425,325492,"0.0-4.137-2.137","mt0azdm3j99j6xz",573,"192.csv","","null","resources/images/fishbone.png","null","",NA,NA,NA,NA,""
"image-keyboard-response",426,325734,"0.0-4.138-0.138","mt0azdm3j99j6xz",573,"192.csv","","241","resources/trios/L4T2A3.jpg","38","restless",0.5,0.6,0.5,0.289045256465376,"true"
"image-keyboard-response",427,326145,"0.0-4.138-1.138","mt0azdm3j99j6xz",573,"192.csv","","null","resources/maskTrios/BT2B.jpg","null","",NA,NA,NA,NA,""
"image-keyboard-response",428,327361,"0.0-4.138-2.138","mt0azdm3j99j6xz",573,"192.csv","","null","resources/images/coin2.png","null","",NA,NA,NA,NA,""
"image-keyboard-response",429,327386,"0.0-4.139-0.139","mt0azdm3j99j6xz",573,"192.csv","","25.100000023841858","resources/trios/L4T2A3.jpg","38","restless",0.5,0.6,0.5,0.809546481361665,"false"
"image-keyboard-response",430,327796,"0.0-4.139-1.139","mt0azdm3j99j6xz",573,"192.csv","","null","resources/maskTrios/BT2B.jpg","null","",NA,NA,NA,NA,""
"image-keyboard-response",431,329008,"0.0-4.139-2.139","mt0azdm3j99j6xz",573,"192.csv","","null","resources/images/fishbone.png","null","",NA,NA,NA,NA,""
"image-keyboard-response",432,329247,"0.0-4.140-0.140","mt0azdm3j99j6xz",573,"192.csv","","237.70000004768372","resources/trios/L4T2A3.jpg","37","restless",0.5,0.6,0.6,0.151088845138077,"true"
"image-keyboard-response",433,329662,"0.0-4.140-1.140","mt0azdm3j99j6xz",573,"192.csv","","null","resources/maskTrios/L4BB.jpg","null","",NA,NA,NA,NA,""
"image-keyboard-response",434,330878,"0.0-4.140-2.140","mt0azdm3j99j6xz",573,"192.csv","","null","resources/images/coin2.png","null","",NA,NA,NA,NA,""
"image-keyboard-response",435,331238,"0.0-4.141-0.141","mt0azdm3j99j6xz",573,"192.csv","","359","resources/trios/L4T2A3.jpg","37","restless",0.5,0.5,0.7,0.551784530283401,"false"
"image-keyboard-response",436,331655,"0.0-4.141-1.141","mt0azdm3j99j6xz",573,"192.csv","","null","resources/maskTrios/L4BB.jpg","null","",NA,NA,NA,NA,""
"image-keyboard-response",437,332867,"0.0-4.141-2.141","mt0azdm3j99j6xz",573,"192.csv","","null","resources/images/fishbone.png","null","",NA,NA,NA,NA,""
"image-keyboard-response",438,332913,"0.0-4.142-0.142","mt0azdm3j99j6xz",573,"192.csv","","44.39999997615814","resources/trios/L4T2A3.jpg","38","restless",0.5,0.5,0.7,0.789399868383792,"false"
"image-keyboard-response",439,333316,"0.0-4.142-1.142","mt0azdm3j99j6xz",573,"192.csv","","null","resources/maskTrios/BT2B.jpg","null","",NA,NA,NA,NA,""
"image-keyboard-response",440,334526,"0.0-4.142-2.142","mt0azdm3j99j6xz",573,"192.csv","","null","resources/images/fishbone.png","null","",NA,NA,NA,NA,""
"image-keyboard-response",441,335020,"0.0-4.143-0.143","mt0azdm3j99j6xz",573,"192.csv","","491.89999997615814","resources/trios/L4T2A3.jpg","39","restless",0.5,0.5,0.8,0.197392404389688,"true"
"image-keyboard-response",442,335426,"0.0-4.143-1.143","mt0azdm3j99j6xz",573,"192.csv","","null","resources/maskTrios/BBA3.jpg","null","",NA,NA,NA,NA,""
"image-keyboard-response",443,336639,"0.0-4.143-2.143","mt0azdm3j99j6xz",573,"192.csv","","null","resources/images/coin2.png","null","",NA,NA,NA,NA,""
"image-keyboard-response",444,336922,"0.0-4.144-0.144","mt0azdm3j99j6xz",573,"192.csv","","282.1999999284744","resources/trios/L4T2A3.jpg","39","restless",0.4,0.5,0.8,0.60954092908814,"true"
"image-keyboard-response",445,337338,"0.0-4.144-1.144","mt0azdm3j99j6xz",573,"192.csv","","null","resources/maskTrios/BBA3.jpg","null","",NA,NA,NA,NA,""
"image-keyboard-response",446,338553,"0.0-4.144-2.144","mt0azdm3j99j6xz",573,"192.csv","","null","resources/images/coin2.png","null","",NA,NA,NA,NA,""
"image-keyboard-response",447,338878,"0.0-4.145-0.145","mt0azdm3j99j6xz",573,"192.csv","","324.2000000476837","resources/trios/L4T2A3.jpg","39","restless",0.4,0.4,0.8,0.318114450272755,"true"
"image-keyboard-response",448,339283,"0.0-4.145-1.145","mt0azdm3j99j6xz",573,"192.csv","","null","resources/maskTrios/BBA3.jpg","null","",NA,NA,NA,NA,""
"image-keyboard-response",449,340497,"0.0-4.145-2.145","mt0azdm3j99j6xz",573,"192.csv","","null","resources/images/coin2.png","null","",NA,NA,NA,NA,""
"image-keyboard-response",450,340816,"0.0-4.146-0.146","mt0azdm3j99j6xz",573,"192.csv","","318.7000000476837","resources/trios/L4T2A3.jpg","39","restless",0.4,0.3,0.7,0.32251762943244,"true"
"image-keyboard-response",451,341226,"0.0-4.146-1.146","mt0azdm3j99j6xz",573,"192.csv","","null","resources/maskTrios/BBA3.jpg","null","",NA,NA,NA,NA,""
"image-keyboard-response",452,342439,"0.0-4.146-2.146","mt0azdm3j99j6xz",573,"192.csv","","null","resources/images/coin2.png","null","",NA,NA,NA,NA,""
"image-keyboard-response",453,342792,"0.0-4.147-0.147","mt0azdm3j99j6xz",573,"192.csv","","352.89999997615814","resources/trios/L4T2A3.jpg","39","restless",0.4,0.3,0.7,0.630485921456842,"true"
"image-keyboard-response",454,343202,"0.0-4.147-1.147","mt0azdm3j99j6xz",573,"192.csv","","null","resources/maskTrios/BBA3.jpg","null","",NA,NA,NA,NA,""
"image-keyboard-response",455,344409,"0.0-4.147-2.147","mt0azdm3j99j6xz",573,"192.csv","","null","resources/images/coin2.png","null","",NA,NA,NA,NA,""
"image-keyboard-response",456,344566,"0.0-4.148-0.148","mt0azdm3j99j6xz",573,"192.csv","","155.79999995231628","resources/trios/L4T2A3.jpg","39","restless",0.4,0.3,0.7,0.866108816235253,"false"
"image-keyboard-response",457,344971,"0.0-4.148-1.148","mt0azdm3j99j6xz",573,"192.csv","","null","resources/maskTrios/BBA3.jpg","null","",NA,NA,NA,NA,""
"image-keyboard-response",458,346173,"0.0-4.148-2.148","mt0azdm3j99j6xz",573,"192.csv","","null","resources/images/fishbone.png","null","",NA,NA,NA,NA,""
"image-keyboard-response",459,346485,"0.0-4.149-0.149","mt0azdm3j99j6xz",573,"192.csv","","311.39999997615814","resources/trios/L4T2A3.jpg","38","restless",0.3,0.3,0.7,0.71606516943726,"false"
"image-keyboard-response",460,346894,"0.0-4.149-1.149","mt0azdm3j99j6xz",573,"192.csv","","null","resources/maskTrios/BT2B.jpg","null","",NA,NA,NA,NA,""
"image-keyboard-response",461,348109,"0.0-4.149-2.149","mt0azdm3j99j6xz",573,"192.csv","","null","resources/images/fishbone.png","null","",NA,NA,NA,NA,""
"image-keyboard-response",462,348370,"0.0-4.150-0.150","mt0azdm3j99j6xz",573,"192.csv","","259.7000000476837","resources/trios/L4T2A3.jpg","37","restless",0.3,0.3,0.7,0.309369798020461,"false"
"image-keyboard-response",463,348776,"0.0-4.150-1.150","mt0azdm3j99j6xz",573,"192.csv","","null","resources/maskTrios/L4BB.jpg","null","",NA,NA,NA,NA,""
"image-keyboard-response",464,349990,"0.0-4.150-2.150","mt0azdm3j99j6xz",573,"192.csv","","null","resources/images/fishbone.png","null","",NA,NA,NA,NA,""
"image-keyboard-response",465,350222,"0.0-4.151-0.151","mt0azdm3j99j6xz",573,"192.csv","","231.10000002384186","resources/trios/L4T2A3.jpg","38","restless",0.3,0.3,0.7,0.986644172802129,"false"
"image-keyboard-response",466,350630,"0.0-4.151-1.151","mt0azdm3j99j6xz",573,"192.csv","","null","resources/maskTrios/BT2B.jpg","null","",NA,NA,NA,NA,""
"image-keyboard-response",467,351840,"0.0-4.151-2.151","mt0azdm3j99j6xz",573,"192.csv","","null","resources/images/fishbone.png","null","",NA,NA,NA,NA,""
"image-keyboard-response",468,352232,"0.0-4.152-0.152","mt0azdm3j99j6xz",573,"192.csv","","390.89999997615814","resources/trios/L4T2A3.jpg","39","restless",0.3,0.3,0.7,0.548278746604574,"true"
"image-keyboard-response",469,352634,"0.0-4.152-1.152","mt0azdm3j99j6xz",573,"192.csv","","null","resources/maskTrios/BBA3.jpg","null","",NA,NA,NA,NA,""
"image-keyboard-response",470,353844,"0.0-4.152-2.152","mt0azdm3j99j6xz",573,"192.csv","","null","resources/images/coin2.png","null","",NA,NA,NA,NA,""
"image-keyboard-response",471,354128,"0.0-4.153-0.153","mt0azdm3j99j6xz",573,"192.csv","","282.59999990463257","resources/trios/L4T2A3.jpg","39","restless",0.3,0.3,0.7,0.692519646014736,"true"
"image-keyboard-response",472,354545,"0.0-4.153-1.153","mt0azdm3j99j6xz",573,"192.csv","","null","resources/maskTrios/BBA3.jpg","null","",NA,NA,NA,NA,""
"image-keyboard-response",473,355757,"0.0-4.153-2.153","mt0azdm3j99j6xz",573,"192.csv","","null","resources/images/coin2.png","null","",NA,NA,NA,NA,""
"image-keyboard-response",474,356265,"0.0-4.154-0.154","mt0azdm3j99j6xz",573,"192.csv","","506.39999997615814","resources/trios/L4T2A3.jpg","39","restless",0.4,0.3,0.7,0.233649058099431,"true"
"image-keyboard-response",475,356679,"0.0-4.154-1.154","mt0azdm3j99j6xz",573,"192.csv","","null","resources/maskTrios/BBA3.jpg","null","",NA,NA,NA,NA,""
"image-keyboard-response",476,357890,"0.0-4.154-2.154","mt0azdm3j99j6xz",573,"192.csv","","null","resources/images/coin2.png","null","",NA,NA,NA,NA,""
"image-keyboard-response",477,358358,"0.0-4.155-0.155","mt0azdm3j99j6xz",573,"192.csv","","466.5","resources/trios/L4T2A3.jpg","39","restless",0.4,0.2,0.7,0.114981117661221,"true"
"image-keyboard-response",478,358765,"0.0-4.155-1.155","mt0azdm3j99j6xz",573,"192.csv","","null","resources/maskTrios/BBA3.jpg","null","",NA,NA,NA,NA,""
"image-keyboard-response",479,359967,"0.0-4.155-2.155","mt0azdm3j99j6xz",573,"192.csv","","null","resources/images/coin2.png","null","",NA,NA,NA,NA,""
"image-keyboard-response",480,360610,"0.0-4.156-0.156","mt0azdm3j99j6xz",573,"192.csv","","641.2000000476837","resources/trios/L4T2A3.jpg","39","restless",0.4,0.2,0.6,0.42424864774499,"true"
"image-keyboard-response",481,361022,"0.0-4.156-1.156","mt0azdm3j99j6xz",573,"192.csv","","null","resources/maskTrios/BBA3.jpg","null","",NA,NA,NA,NA,""
"image-keyboard-response",482,362233,"0.0-4.156-2.156","mt0azdm3j99j6xz",573,"192.csv","","null","resources/images/coin2.png","null","",NA,NA,NA,NA,""
"image-keyboard-response",483,362353,"0.0-4.157-0.157","mt0azdm3j99j6xz",573,"192.csv","","118.39999997615814","resources/trios/L4T2A3.jpg","39","restless",0.4,0.2,0.6,0.758801606525476,"false"
"image-keyboard-response",484,362760,"0.0-4.157-1.157","mt0azdm3j99j6xz",573,"192.csv","","null","resources/maskTrios/BBA3.jpg","null","",NA,NA,NA,NA,""
"image-keyboard-response",485,363972,"0.0-4.157-2.157","mt0azdm3j99j6xz",573,"192.csv","","null","resources/images/fishbone.png","null","",NA,NA,NA,NA,""
"image-keyboard-response",486,363986,"0.0-4.158-0.158","mt0azdm3j99j6xz",573,"192.csv","","12.199999928474426","resources/trios/L4T2A3.jpg","38","restless",0.4,0.1,0.6,0.0303842089838144,"true"
"image-keyboard-response",487,364390,"0.0-4.158-1.158","mt0azdm3j99j6xz",573,"192.csv","","null","resources/maskTrios/BT2B.jpg","null","",NA,NA,NA,NA,""
"image-keyboard-response",488,365598,"0.0-4.158-2.158","mt0azdm3j99j6xz",573,"192.csv","","null","resources/images/coin2.png","null","",NA,NA,NA,NA,""
"image-keyboard-response",489,365737,"0.0-4.159-0.159","mt0azdm3j99j6xz",573,"192.csv","","138.09999990463257","resources/trios/L4T2A3.jpg","38","restless",0.4,0.1,0.6,0.147912892394358,"false"
"image-keyboard-response",490,366143,"0.0-4.159-1.159","mt0azdm3j99j6xz",573,"192.csv","","null","resources/maskTrios/BT2B.jpg","null","",NA,NA,NA,NA,""
"image-keyboard-response",491,367351,"0.0-4.159-2.159","mt0azdm3j99j6xz",573,"192.csv","","null","resources/images/fishbone.png","null","",NA,NA,NA,NA,""
"image-keyboard-response",492,367395,"0.0-4.160-0.160","mt0azdm3j99j6xz",573,"192.csv","","42","resources/trios/L4T2A3.jpg","37","restless",0.4,0.1,0.6,0.975270032730753,"false"
"image-keyboard-response",493,367802,"0.0-4.160-1.160","mt0azdm3j99j6xz",573,"192.csv","","null","resources/maskTrios/L4BB.jpg","null","",NA,NA,NA,NA,""
"image-keyboard-response",494,369015,"0.0-4.160-2.160","mt0azdm3j99j6xz",573,"192.csv","","null","resources/images/fishbone.png","null","",NA,NA,NA,NA,""
"image-keyboard-response",495,369271,"0.0-4.161-0.161","mt0azdm3j99j6xz",573,"192.csv","","254.69999992847443","resources/trios/L4T2A3.jpg","39","restless",0.4,0.1,0.6,0.0789271227989397,"true"
"image-keyboard-response",496,369685,"0.0-4.161-1.161","mt0azdm3j99j6xz",573,"192.csv","","null","resources/maskTrios/BBA3.jpg","null","",NA,NA,NA,NA,""
"image-keyboard-response",497,370901,"0.0-4.161-2.161","mt0azdm3j99j6xz",573,"192.csv","","null","resources/images/coin2.png","null","",NA,NA,NA,NA,""
"image-keyboard-response",498,371081,"0.0-4.162-0.162","mt0azdm3j99j6xz",573,"192.csv","","179.19999992847443","resources/trios/L4T2A3.jpg","39","restless",0.4,0.2,0.7,0.615435208465366,"true"
"image-keyboard-response",499,371485,"0.0-4.162-1.162","mt0azdm3j99j6xz",573,"192.csv","","null","resources/maskTrios/BBA3.jpg","null","",NA,NA,NA,NA,""
"image-keyboard-response",500,372698,"0.0-4.162-2.162","mt0azdm3j99j6xz",573,"192.csv","","null","resources/images/coin2.png","null","",NA,NA,NA,NA,""
"image-keyboard-response",501,372737,"0.0-4.163-0.163","mt0azdm3j99j6xz",573,"192.csv","","38.5","resources/trios/L4T2A3.jpg","39","restless",0.4,0.2,0.7,0.881751819304617,"false"
"image-keyboard-response",502,373152,"0.0-4.163-1.163","mt0azdm3j99j6xz",573,"192.csv","","null","resources/maskTrios/BBA3.jpg","null","",NA,NA,NA,NA,""
"image-keyboard-response",503,374361,"0.0-4.163-2.163","mt0azdm3j99j6xz",573,"192.csv","","null","resources/images/fishbone.png","null","",NA,NA,NA,NA,""
"image-keyboard-response",504,374668,"0.0-4.164-0.164","mt0azdm3j99j6xz",573,"192.csv","","305.40000009536743","resources/trios/L4T2A3.jpg","38","restless",0.4,0.2,0.7,0.287282027316867,"false"
"image-keyboard-response",505,375079,"0.0-4.164-1.164","mt0azdm3j99j6xz",573,"192.csv","","null","resources/maskTrios/BT2B.jpg","null","",NA,NA,NA,NA,""
"image-keyboard-response",506,376288,"0.0-4.164-2.164","mt0azdm3j99j6xz",573,"192.csv","","null","resources/images/fishbone.png","null","",NA,NA,NA,NA,""
"image-keyboard-response",507,376534,"0.0-4.165-0.165","mt0azdm3j99j6xz",573,"192.csv","","244.60000002384186","resources/trios/L4T2A3.jpg","37","restless",0.4,0.2,0.7,0.980802205106412,"false"
"image-keyboard-response",508,376941,"0.0-4.165-1.165","mt0azdm3j99j6xz",573,"192.csv","","null","resources/maskTrios/L4BB.jpg","null","",NA,NA,NA,NA,""
"image-keyboard-response",509,378155,"0.0-4.165-2.165","mt0azdm3j99j6xz",573,"192.csv","","null","resources/images/fishbone.png","null","",NA,NA,NA,NA,""
"image-keyboard-response",510,378807,"0.0-4.166-0.166","mt0azdm3j99j6xz",573,"192.csv","","650.5","resources/trios/L4T2A3.jpg","39","restless",0.4,0.2,0.6,0.685809951563326,"false"
"image-keyboard-response",511,379211,"0.0-4.166-1.166","mt0azdm3j99j6xz",573,"192.csv","","null","resources/maskTrios/BBA3.jpg","null","",NA,NA,NA,NA,""
"image-keyboard-response",512,380427,"0.0-4.166-2.166","mt0azdm3j99j6xz",573,"192.csv","","null","resources/images/fishbone.png","null","",NA,NA,NA,NA,""
"image-keyboard-response",513,380706,"0.0-4.167-0.167","mt0azdm3j99j6xz",573,"192.csv","","278.10000002384186","resources/trios/L4T2A3.jpg","38","restless",0.4,0.2,0.6,0.52800271518544,"false"
"image-keyboard-response",514,381111,"0.0-4.167-1.167","mt0azdm3j99j6xz",573,"192.csv","","null","resources/maskTrios/BT2B.jpg","null","",NA,NA,NA,NA,""
"image-keyboard-response",515,382320,"0.0-4.167-2.167","mt0azdm3j99j6xz",573,"192.csv","","null","resources/images/fishbone.png","null","",NA,NA,NA,NA,""
"image-keyboard-response",516,382541,"0.0-4.168-0.168","mt0azdm3j99j6xz",573,"192.csv","","218.89999997615814","resources/trios/L4T2A3.jpg","38","restless",0.4,0.2,0.6,0.674936044023622,"false"
"image-keyboard-response",517,382954,"0.0-4.168-1.168","mt0azdm3j99j6xz",573,"192.csv","","null","resources/maskTrios/BT2B.jpg","null","",NA,NA,NA,NA,""
"image-keyboard-response",518,384166,"0.0-4.168-2.168","mt0azdm3j99j6xz",573,"192.csv","","null","resources/images/fishbone.png","null","",NA,NA,NA,NA,""
"image-keyboard-response",519,384422,"0.0-4.169-0.169","mt0azdm3j99j6xz",573,"192.csv","","255.10000002384186","resources/trios/L4T2A3.jpg","37","restless",0.4,0.2,0.6,0.797251920008116,"false"
"image-keyboard-response",520,384832,"0.0-4.169-1.169","mt0azdm3j99j6xz",573,"192.csv","","null","resources/maskTrios/L4BB.jpg","null","",NA,NA,NA,NA,""
"image-keyboard-response",521,386039,"0.0-4.169-2.169","mt0azdm3j99j6xz",573,"192.csv","","null","resources/images/fishbone.png","null","",NA,NA,NA,NA,""
"image-keyboard-response",522,386291,"0.0-4.170-0.170","mt0azdm3j99j6xz",573,"192.csv","","250.60000002384186","resources/trios/L4T2A3.jpg","39","restless",0.4,0.2,0.6,0.313695613647,"true"
"image-keyboard-response",523,386697,"0.0-4.170-1.170","mt0azdm3j99j6xz",573,"192.csv","","null","resources/maskTrios/BBA3.jpg","null","",NA,NA,NA,NA,""
"image-keyboard-response",524,387910,"0.0-4.170-2.170","mt0azdm3j99j6xz",573,"192.csv","","null","resources/images/coin2.png","null","",NA,NA,NA,NA,""
"image-keyboard-response",525,388345,"0.0-4.171-0.171","mt0azdm3j99j6xz",573,"192.csv","","433.6999999284744","resources/trios/L4T2A3.jpg","39","restless",0.5,0.2,0.6,0.333117641292794,"true"
"image-keyboard-response",526,388747,"0.0-4.171-1.171","mt0azdm3j99j6xz",573,"192.csv","","null","resources/maskTrios/BBA3.jpg","null","",NA,NA,NA,NA,""
"image-keyboard-response",527,389958,"0.0-4.171-2.171","mt0azdm3j99j6xz",573,"192.csv","","null","resources/images/coin2.png","null","",NA,NA,NA,NA,""
"image-keyboard-response",528,390077,"0.0-4.172-0.172","mt0azdm3j99j6xz",573,"192.csv","","118.70000004768372","resources/trios/L4T2A3.jpg","39","restless",0.5,0.3,0.6,0.63427632353258,"false"
"image-keyboard-response",529,390491,"0.0-4.172-1.172","mt0azdm3j99j6xz",573,"192.csv","","null","resources/maskTrios/BBA3.jpg","null","",NA,NA,NA,NA,""
"image-keyboard-response",530,391703,"0.0-4.172-2.172","mt0azdm3j99j6xz",573,"192.csv","","null","resources/images/fishbone.png","null","",NA,NA,NA,NA,""
"image-keyboard-response",531,392004,"0.0-4.173-0.173","mt0azdm3j99j6xz",573,"192.csv","","299.6999999284744","resources/trios/L4T2A3.jpg","38","restless",0.5,0.3,0.6,0.331899328010953,"false"
"image-keyboard-response",532,392420,"0.0-4.173-1.173","mt0azdm3j99j6xz",573,"192.csv","","null","resources/maskTrios/BT2B.jpg","null","",NA,NA,NA,NA,""
"image-keyboard-response",533,393630,"0.0-4.173-2.173","mt0azdm3j99j6xz",573,"192.csv","","null","resources/images/fishbone.png","null","",NA,NA,NA,NA,""
"image-keyboard-response",534,393835,"0.0-4.174-0.174","mt0azdm3j99j6xz",573,"192.csv","","203.60000002384186","resources/trios/L4T2A3.jpg","38","restless",0.5,0.4,0.6,0.0684824782683795,"true"
"image-keyboard-response",535,394252,"0.0-4.174-1.174","mt0azdm3j99j6xz",573,"192.csv","","null","resources/maskTrios/BT2B.jpg","null","",NA,NA,NA,NA,""
"image-keyboard-response",536,395468,"0.0-4.174-2.174","mt0azdm3j99j6xz",573,"192.csv","","null","resources/images/coin2.png","null","",NA,NA,NA,NA,""
"image-keyboard-response",537,395566,"0.0-4.175-0.175","mt0azdm3j99j6xz",573,"192.csv","","97","resources/trios/L4T2A3.jpg","38","restless",0.5,0.4,0.6,0.606662396448599,"false"
"image-keyboard-response",538,395982,"0.0-4.175-1.175","mt0azdm3j99j6xz",573,"192.csv","","null","resources/maskTrios/BT2B.jpg","null","",NA,NA,NA,NA,""
"image-keyboard-response",539,397192,"0.0-4.175-2.175","mt0azdm3j99j6xz",573,"192.csv","","null","resources/images/fishbone.png","null","",NA,NA,NA,NA,""
"image-keyboard-response",540,397239,"0.0-4.176-0.176","mt0azdm3j99j6xz",573,"192.csv","","45.700000047683716","resources/trios/L4T2A3.jpg","37","restless",0.6,0.4,0.6,0.936428705904246,"false"
"image-keyboard-response",541,397642,"0.0-4.176-1.176","mt0azdm3j99j6xz",573,"192.csv","","null","resources/maskTrios/L4BB.jpg","null","",NA,NA,NA,NA,""
"image-keyboard-response",542,398855,"0.0-4.176-2.176","mt0azdm3j99j6xz",573,"192.csv","","null","resources/images/fishbone.png","null","",NA,NA,NA,NA,""
"image-keyboard-response",543,399145,"0.0-4.177-0.177","mt0azdm3j99j6xz",573,"192.csv","","288.89999997615814","resources/trios/L4T2A3.jpg","37","restless",0.6,0.4,0.6,0.29690434955597,"true"
"image-keyboard-response",544,399557,"0.0-4.177-1.177","mt0azdm3j99j6xz",573,"192.csv","","null","resources/maskTrios/L4BB.jpg","null","",NA,NA,NA,NA,""
"image-keyboard-response",545,400770,"0.0-4.177-2.177","mt0azdm3j99j6xz",573,"192.csv","","null","resources/images/coin2.png","null","",NA,NA,NA,NA,""
"image-keyboard-response",546,401127,"0.0-4.178-0.178","mt0azdm3j99j6xz",573,"192.csv","","355.89999997615814","resources/trios/L4T2A3.jpg","37","restless",0.6,0.4,0.6,0.205280532766571,"true"
"image-keyboard-response",547,401534,"0.0-4.178-1.178","mt0azdm3j99j6xz",573,"192.csv","","null","resources/maskTrios/L4BB.jpg","null","",NA,NA,NA,NA,""
"image-keyboard-response",548,402747,"0.0-4.178-2.178","mt0azdm3j99j6xz",573,"192.csv","","null","resources/images/coin2.png","null","",NA,NA,NA,NA,""
"image-keyboard-response",549,402942,"0.0-4.179-0.179","mt0azdm3j99j6xz",573,"192.csv","","193.40000009536743","resources/trios/L4T2A3.jpg","37","restless",0.6,0.4,0.6,0.478652659289608,"true"
"image-keyboard-response",550,403354,"0.0-4.179-1.179","mt0azdm3j99j6xz",573,"192.csv","","null","resources/maskTrios/L4BB.jpg","null","",NA,NA,NA,NA,""
"image-keyboard-response",551,404567,"0.0-4.179-2.179","mt0azdm3j99j6xz",573,"192.csv","","null","resources/images/coin2.png","null","",NA,NA,NA,NA,""
"image-keyboard-response",552,404589,"0.0-4.180-0.180","mt0azdm3j99j6xz",573,"192.csv","","20.899999976158142","resources/trios/L4T2A3.jpg","37","restless",0.6,0.4,0.6,0.917252275031769,"false"
"image-keyboard-response",553,405002,"0.0-4.180-1.180","mt0azdm3j99j6xz",573,"192.csv","","null","resources/maskTrios/L4BB.jpg","null","",NA,NA,NA,NA,""
"image-keyboard-response",554,406212,"0.0-4.180-2.180","mt0azdm3j99j6xz",573,"192.csv","","null","resources/images/fishbone.png","null","",NA,NA,NA,NA,""
"image-keyboard-response",555,406506,"0.0-4.181-0.181","mt0azdm3j99j6xz",573,"192.csv","","293.2000000476837","resources/trios/L4T2A3.jpg","39","restless",0.6,0.4,0.6,0.913091309413636,"false"
"image-keyboard-response",556,406911,"0.0-4.181-1.181","mt0azdm3j99j6xz",573,"192.csv","","null","resources/maskTrios/BBA3.jpg","null","",NA,NA,NA,NA,""
"image-keyboard-response",557,408121,"0.0-4.181-2.181","mt0azdm3j99j6xz",573,"192.csv","","null","resources/images/fishbone.png","null","",NA,NA,NA,NA,""
"image-keyboard-response",558,408258,"0.0-4.182-0.182","mt0azdm3j99j6xz",573,"192.csv","","135.70000004768372","resources/trios/L4T2A3.jpg","38","restless",0.6,0.4,0.6,0.17170015415274,"true"
"image-keyboard-response",559,408665,"0.0-4.182-1.182","mt0azdm3j99j6xz",573,"192.csv","","null","resources/maskTrios/BT2B.jpg","null","",NA,NA,NA,NA,""
"image-keyboard-response",560,409874,"0.0-4.182-2.182","mt0azdm3j99j6xz",573,"192.csv","","null","resources/images/coin2.png","null","",NA,NA,NA,NA,""
"image-keyboard-response",561,410169,"0.0-4.183-0.183","mt0azdm3j99j6xz",573,"192.csv","","293.7999999523163","resources/trios/L4T2A3.jpg","38","restless",0.6,0.4,0.6,0.477892498587731,"false"
"image-keyboard-response",562,410574,"0.0-4.183-1.183","mt0azdm3j99j6xz",573,"192.csv","","null","resources/maskTrios/BT2B.jpg","null","",NA,NA,NA,NA,""
"image-keyboard-response",563,411786,"0.0-4.183-2.183","mt0azdm3j99j6xz",573,"192.csv","","null","resources/images/fishbone.png","null","",NA,NA,NA,NA,""
"image-keyboard-response",564,412082,"0.0-4.184-0.184","mt0azdm3j99j6xz",573,"192.csv","","295","resources/trios/L4T2A3.jpg","37","restless",0.7,0.4,0.6,0.889935692526586,"false"
"image-keyboard-response",565,412484,"0.0-4.184-1.184","mt0azdm3j99j6xz",573,"192.csv","","null","resources/maskTrios/L4BB.jpg","null","",NA,NA,NA,NA,""
"image-keyboard-response",566,413688,"0.0-4.184-2.184","mt0azdm3j99j6xz",573,"192.csv","","null","resources/images/fishbone.png","null","",NA,NA,NA,NA,""
"image-keyboard-response",567,413955,"0.0-4.185-0.185","mt0azdm3j99j6xz",573,"192.csv","","265.6999999284744","resources/trios/L4T2A3.jpg","39","restless",0.7,0.4,0.6,0.41508215228154,"true"
"image-keyboard-response",568,414371,"0.0-4.185-1.185","mt0azdm3j99j6xz",573,"192.csv","","null","resources/maskTrios/BBA3.jpg","null","",NA,NA,NA,NA,""
"image-keyboard-response",569,415587,"0.0-4.185-2.185","mt0azdm3j99j6xz",573,"192.csv","","null","resources/images/coin2.png","null","",NA,NA,NA,NA,""
"image-keyboard-response",570,415738,"0.0-4.186-0.186","mt0azdm3j99j6xz",573,"192.csv","","150.19999992847443","resources/trios/L4T2A3.jpg","39","restless",0.7,0.4,0.6,0.152679322664217,"true"
"image-keyboard-response",571,416148,"0.0-4.186-1.186","mt0azdm3j99j6xz",573,"192.csv","","null","resources/maskTrios/BBA3.jpg","null","",NA,NA,NA,NA,""
"image-keyboard-response",572,417360,"0.0-4.186-2.186","mt0azdm3j99j6xz",573,"192.csv","","null","resources/images/coin2.png","null","",NA,NA,NA,NA,""
"image-keyboard-response",573,417686,"0.0-4.187-0.187","mt0azdm3j99j6xz",573,"192.csv","","325.2000000476837","resources/trios/L4T2A3.jpg","39","restless",0.7,0.4,0.6,0.640701202084789,"false"
"image-keyboard-response",574,418091,"0.0-4.187-1.187","mt0azdm3j99j6xz",573,"192.csv","","null","resources/maskTrios/BBA3.jpg","null","",NA,NA,NA,NA,""
"image-keyboard-response",575,419307,"0.0-4.187-2.187","mt0azdm3j99j6xz",573,"192.csv","","null","resources/images/fishbone.png","null","",NA,NA,NA,NA,""
"image-keyboard-response",576,419398,"0.0-4.188-0.188","mt0azdm3j99j6xz",573,"192.csv","","90.39999997615814","resources/trios/L4T2A3.jpg","38","restless",0.7,0.4,0.7,0.358243674160351,"true"
"image-keyboard-response",577,419802,"0.0-4.188-1.188","mt0azdm3j99j6xz",573,"192.csv","","null","resources/maskTrios/BT2B.jpg","null","",NA,NA,NA,NA,""
"image-keyboard-response",578,421008,"0.0-4.188-2.188","mt0azdm3j99j6xz",573,"192.csv","","null","resources/images/coin2.png","null","",NA,NA,NA,NA,""
"image-keyboard-response",579,421017,"0.0-4.189-0.189","mt0azdm3j99j6xz",573,"192.csv","","8.899999976158142","resources/trios/L4T2A3.jpg","38","restless",0.7,0.4,0.7,0.226672303490531,"true"
"image-keyboard-response",580,421426,"0.0-4.189-1.189","mt0azdm3j99j6xz",573,"192.csv","","null","resources/maskTrios/BT2B.jpg","null","",NA,NA,NA,NA,""
"image-keyboard-response",581,422641,"0.0-4.189-2.189","mt0azdm3j99j6xz",573,"192.csv","","null","resources/images/coin2.png","null","",NA,NA,NA,NA,""
"image-keyboard-response",582,422942,"0.0-4.190-0.190","mt0azdm3j99j6xz",573,"192.csv","","300.40000009536743","resources/trios/L4T2A3.jpg","38","restless",0.7,0.4,0.7,0.490914658559875,"false"
"image-keyboard-response",583,423349,"0.0-4.190-1.190","mt0azdm3j99j6xz",573,"192.csv","","null","resources/maskTrios/BT2B.jpg","null","",NA,NA,NA,NA,""
"image-keyboard-response",584,424557,"0.0-4.190-2.190","mt0azdm3j99j6xz",573,"192.csv","","null","resources/images/fishbone.png","null","",NA,NA,NA,NA,""
"image-keyboard-response",585,424993,"0.0-4.191-0.191","mt0azdm3j99j6xz",573,"192.csv","","435.39999997615814","resources/trios/L4T2A3.jpg","37","restless",0.7,0.4,0.7,0.291668762749809,"true"
"image-keyboard-response",586,425399,"0.0-4.191-1.191","mt0azdm3j99j6xz",573,"192.csv","","null","resources/maskTrios/L4BB.jpg","null","",NA,NA,NA,NA,""
"image-keyboard-response",587,426604,"0.0-4.191-2.191","mt0azdm3j99j6xz",573,"192.csv","","null","resources/images/coin2.png","null","",NA,NA,NA,NA,""
"image-keyboard-response",588,426919,"0.0-4.192-0.192","mt0azdm3j99j6xz",573,"192.csv","","313.60000002384186","resources/trios/L4T2A3.jpg","37","restless",0.6,0.4,0.6,0.63320791126837,"false"
"image-keyboard-response",589,427332,"0.0-4.192-1.192","mt0azdm3j99j6xz",573,"192.csv","","null","resources/maskTrios/L4BB.jpg","null","",NA,NA,NA,NA,""
"image-keyboard-response",590,428538,"0.0-4.192-2.192","mt0azdm3j99j6xz",573,"192.csv","","null","resources/images/fishbone.png","null","",NA,NA,NA,NA,""
"image-keyboard-response",591,428600,"0.0-4.193-0.193","mt0azdm3j99j6xz",573,"192.csv","","60.300000071525574","resources/trios/L4T2A3.jpg","39","restless",0.6,0.4,0.6,0.601464126899135,"false"
"image-keyboard-response",592,429006,"0.0-4.193-1.193","mt0azdm3j99j6xz",573,"192.csv","","null","resources/maskTrios/BBA3.jpg","null","",NA,NA,NA,NA,""
"image-keyboard-response",593,430217,"0.0-4.193-2.193","mt0azdm3j99j6xz",573,"192.csv","","null","resources/images/fishbone.png","null","",NA,NA,NA,NA,""
"image-keyboard-response",594,430393,"0.0-4.194-0.194","mt0azdm3j99j6xz",573,"192.csv","","174.30000007152557","resources/trios/L4T2A3.jpg","38","restless",0.6,0.5,0.6,0.993315893325342,"false"
"image-keyboard-response",595,430807,"0.0-4.194-1.194","mt0azdm3j99j6xz",573,"192.csv","","null","resources/maskTrios/BT2B.jpg","null","",NA,NA,NA,NA,""
"image-keyboard-response",596,432017,"0.0-4.194-2.194","mt0azdm3j99j6xz",573,"192.csv","","null","resources/images/fishbone.png","null","",NA,NA,NA,NA,""
"image-keyboard-response",597,432019,"0.0-4.195-0.195","mt0azdm3j99j6xz",573,"192.csv","","1.1999999284744263","resources/trios/L4T2A3.jpg","37","restless",0.6,0.5,0.6,0.638790445917102,"false"
"image-keyboard-response",598,432435,"0.0-4.195-1.195","mt0azdm3j99j6xz",573,"192.csv","","null","resources/maskTrios/L4BB.jpg","null","",NA,NA,NA,NA,""
"image-keyboard-response",599,433651,"0.0-4.195-2.195","mt0azdm3j99j6xz",573,"192.csv","","null","resources/images/fishbone.png","null","",NA,NA,NA,NA,""
"image-keyboard-response",600,433947,"0.0-4.196-0.196","mt0azdm3j99j6xz",573,"192.csv","","294.1999999284744","resources/trios/L4T2A3.jpg","38","restless",0.6,0.5,0.6,0.0752353627106765,"true"
"image-keyboard-response",601,434353,"0.0-4.196-1.196","mt0azdm3j99j6xz",573,"192.csv","","null","resources/maskTrios/BT2B.jpg","null","",NA,NA,NA,NA,""
"image-keyboard-response",602,435561,"0.0-4.196-2.196","mt0azdm3j99j6xz",573,"192.csv","","null","resources/images/coin2.png","null","",NA,NA,NA,NA,""
"image-keyboard-response",603,435828,"0.0-4.197-0.197","mt0azdm3j99j6xz",573,"192.csv","","265.2000000476837","resources/trios/L4T2A3.jpg","38","restless",0.6,0.5,0.6,0.081638132121425,"true"
"image-keyboard-response",604,436230,"0.0-4.197-1.197","mt0azdm3j99j6xz",573,"192.csv","","null","resources/maskTrios/BT2B.jpg","null","",NA,NA,NA,NA,""
"image-keyboard-response",605,437441,"0.0-4.197-2.197","mt0azdm3j99j6xz",573,"192.csv","","null","resources/images/coin2.png","null","",NA,NA,NA,NA,""
"image-keyboard-response",606,437546,"0.0-4.198-0.198","mt0azdm3j99j6xz",573,"192.csv","","103.5","resources/trios/L4T2A3.jpg","38","restless",0.6,0.5,0.6,0.455719586983591,"true"
"image-keyboard-response",607,437957,"0.0-4.198-1.198","mt0azdm3j99j6xz",573,"192.csv","","null","resources/maskTrios/BT2B.jpg","null","",NA,NA,NA,NA,""
"image-keyboard-response",608,439159,"0.0-4.198-2.198","mt0azdm3j99j6xz",573,"192.csv","","null","resources/images/coin2.png","null","",NA,NA,NA,NA,""
