"trial_type","trial_index","time_elapsed","internal_node_id","subject","participantCode","walkNumber","success","rt","stimulus","key_press","test_part","leftProb","midProb","rightProb","generatedNum","correct"
"pavlovia",0,2076,"0.0-0.0","br0odq5aalqrfrd",71,"155.csv","","","","","",NA,NA,NA,NA,""
"fullscreen",1,9263,"0.0-1.0","br0odq5aalqrfrd",71,"155.csv","true","","","","",NA,NA,NA,NA,""
"survey-html-form",2,50484,"0.0-2.0","br0odq5aalqrfrd",71,"155.csv","","41218.200000047684","","","",NA,NA,NA,NA,""
"image-keyboard-response",3,61661,"0.0-3.0-0.0","br0odq5aalqrfrd",71,"155.csv","","11172.200000047684","resources/images/parrot_nobg.png","13","",NA,NA,NA,NA,""
"image-keyboard-response",4,64665,"0.0-3.0-1.0","br0odq5aalqrfrd",71,"155.csv","","null","resources/image_sets/111.png","null","",NA,NA,NA,NA,""
"image-keyboard-response",5,70476,"0.0-3.0-2.0","br0odq5aalqrfrd",71,"155.csv","","5809.800000071526","resources/image_sets/left_highlight.png","37","",NA,NA,NA,NA,""
"image-keyboard-response",6,76060,"0.0-3.0-3.0","br0odq5aalqrfrd",71,"155.csv","","5582.299999952316","resources/image_sets/mid_highlight.png","38","",NA,NA,NA,NA,""
"image-keyboard-response",7,81734,"0.0-3.0-4.0","br0odq5aalqrfrd",71,"155.csv","","5672.700000047684","resources/image_sets/right_highlight.png","39","",NA,NA,NA,NA,""
"image-keyboard-response",8,87299,"0.0-3.0-5.0","br0odq5aalqrfrd",71,"155.csv","","5564.899999976158","resources/image_sets/111.png","13","",NA,NA,NA,NA,""
"image-keyboard-response",9,88948,"0.0-3.0-6.0","br0odq5aalqrfrd",71,"155.csv","","1647.8999999761581","resources/images/coin2.png","13","",NA,NA,NA,NA,""
"image-keyboard-response",10,91462,"0.0-3.0-7.0","br0odq5aalqrfrd",71,"155.csv","","2513.3000000715256","resources/images/fishbone.png","13","",NA,NA,NA,NA,""
"html-keyboard-response",11,95941,"0.0-3.0-8.0","br0odq5aalqrfrd",71,"155.csv","","4477.800000071526","<p>You can track your coin total on the top right of your screen. </p><p>At the end of your journey you will be directed to a survey, so please click on the link before exiting the task</p><p>Press Enter to begin</p>","13","",NA,NA,NA,NA,""
"image-keyboard-response",12,113400,"0.0-4.0-0.0","br0odq5aalqrfrd",71,"155.csv","","17457.299999952316","resources/trios/L4T4A3.jpg","38","restless",0.9,0.7,0.3,0.0383163188154443,"true"
"image-keyboard-response",13,113804,"0.0-4.0-1.0","br0odq5aalqrfrd",71,"155.csv","","null","resources/maskTrios/BT4B.jpg","null","",NA,NA,NA,NA,""
"image-keyboard-response",14,115017,"0.0-4.0-2.0","br0odq5aalqrfrd",71,"155.csv","","null","resources/images/coin2.png","null","",NA,NA,NA,NA,""
"image-keyboard-response",15,120696,"0.0-4.1-0.1","br0odq5aalqrfrd",71,"155.csv","","5676.799999952316","resources/trios/L4T4A3.jpg","38","restless",0.9,0.7,0.3,0.182480608206131,"true"
"image-keyboard-response",16,121106,"0.0-4.1-1.1","br0odq5aalqrfrd",71,"155.csv","","null","resources/maskTrios/BT4B.jpg","null","",NA,NA,NA,NA,""
"image-keyboard-response",17,122326,"0.0-4.1-2.1","br0odq5aalqrfrd",71,"155.csv","","null","resources/images/coin2.png","null","",NA,NA,NA,NA,""
"image-keyboard-response",18,123083,"0.0-4.2-0.2","br0odq5aalqrfrd",71,"155.csv","","756","resources/trios/L4T4A3.jpg","38","restless",0.9,0.7,0.2,0.0999935493496942,"true"
"image-keyboard-response",19,123487,"0.0-4.2-1.2","br0odq5aalqrfrd",71,"155.csv","","null","resources/maskTrios/BT4B.jpg","null","",NA,NA,NA,NA,""
"image-keyboard-response",20,124697,"0.0-4.2-2.2","br0odq5aalqrfrd",71,"155.csv","","null","resources/images/coin2.png","null","",NA,NA,NA,NA,""
"image-keyboard-response",21,126559,"0.0-4.3-0.3","br0odq5aalqrfrd",71,"155.csv","","1860.6999999284744","resources/trios/L4T4A3.jpg","38","restless",0.9,0.8,0.2,0.326823765968211,"true"
"image-keyboard-response",22,126966,"0.0-4.3-1.3","br0odq5aalqrfrd",71,"155.csv","","null","resources/maskTrios/BT4B.jpg","null","",NA,NA,NA,NA,""
"image-keyboard-response",23,128181,"0.0-4.3-2.3","br0odq5aalqrfrd",71,"155.csv","","null","resources/images/coin2.png","null","",NA,NA,NA,NA,""
"image-keyboard-response",24,129188,"0.0-4.4-0.4","br0odq5aalqrfrd",71,"155.csv","","1005.8000000715256","resources/trios/L4T4A3.jpg","39","restless",0.9,0.8,0.2,0.710126578242483,"false"
"image-keyboard-response",25,129597,"0.0-4.4-1.4","br0odq5aalqrfrd",71,"155.csv","","null","resources/maskTrios/BBA3.jpg","null","",NA,NA,NA,NA,""
"image-keyboard-response",26,130807,"0.0-4.4-2.4","br0odq5aalqrfrd",71,"155.csv","","null","resources/images/fishbone.png","null","",NA,NA,NA,NA,""
"image-keyboard-response",27,131473,"0.0-4.5-0.5","br0odq5aalqrfrd",71,"155.csv","","664.6000000238419","resources/trios/L4T4A3.jpg","37","restless",0.9,0.8,0.2,0.722181351892692,"true"
"image-keyboard-response",28,131876,"0.0-4.5-1.5","br0odq5aalqrfrd",71,"155.csv","","null","resources/maskTrios/L4BB.jpg","null","",NA,NA,NA,NA,""
"image-keyboard-response",29,133087,"0.0-4.5-2.5","br0odq5aalqrfrd",71,"155.csv","","null","resources/images/coin2.png","null","",NA,NA,NA,NA,""
"image-keyboard-response",30,135018,"0.0-4.6-0.6","br0odq5aalqrfrd",71,"155.csv","","1929.8000000715256","resources/trios/L4T4A3.jpg","37","restless",0.9,0.8,0.2,0.171622969378372,"true"
"image-keyboard-response",31,135425,"0.0-4.6-1.6","br0odq5aalqrfrd",71,"155.csv","","null","resources/maskTrios/L4BB.jpg","null","",NA,NA,NA,NA,""
"image-keyboard-response",32,136637,"0.0-4.6-2.6","br0odq5aalqrfrd",71,"155.csv","","null","resources/images/coin2.png","null","",NA,NA,NA,NA,""
"image-keyboard-response",33,138306,"0.0-4.7-0.7","br0odq5aalqrfrd",71,"155.csv","","1667","resources/trios/L4T4A3.jpg","38","restless",0.9,0.8,0.2,0.744714033545048,"true"
"image-keyboard-response",34,138717,"0.0-4.7-1.7","br0odq5aalqrfrd",71,"155.csv","","null","resources/maskTrios/BT4B.jpg","null","",NA,NA,NA,NA,""
"image-keyboard-response",35,139927,"0.0-4.7-2.7","br0odq5aalqrfrd",71,"155.csv","","null","resources/images/coin2.png","null","",NA,NA,NA,NA,""
"image-keyboard-response",36,141856,"0.0-4.8-0.8","br0odq5aalqrfrd",71,"155.csv","","1928.3999999761581","resources/trios/L4T4A3.jpg","37","restless",0.9,0.8,0.2,0.102362165122811,"true"
"image-keyboard-response",37,142267,"0.0-4.8-1.8","br0odq5aalqrfrd",71,"155.csv","","null","resources/maskTrios/L4BB.jpg","null","",NA,NA,NA,NA,""
"image-keyboard-response",38,143482,"0.0-4.8-2.8","br0odq5aalqrfrd",71,"155.csv","","null","resources/images/coin2.png","null","",NA,NA,NA,NA,""
"image-keyboard-response",39,144164,"0.0-4.9-0.9","br0odq5aalqrfrd",71,"155.csv","","679.7000000476837","resources/trios/L4T4A3.jpg","37","restless",0.9,0.8,0.2,0.549424552215377,"true"
"image-keyboard-response",40,144565,"0.0-4.9-1.9","br0odq5aalqrfrd",71,"155.csv","","null","resources/maskTrios/L4BB.jpg","null","",NA,NA,NA,NA,""
"image-keyboard-response",41,145782,"0.0-4.9-2.9","br0odq5aalqrfrd",71,"155.csv","","null","resources/images/coin2.png","null","",NA,NA,NA,NA,""
"image-keyboard-response",42,146374,"0.0-4.10-0.10","br0odq5aalqrfrd",71,"155.csv","","590.4000000953674","resources/trios/L4T4A3.jpg","37","restless",0.9,0.8,0.2,0.197880900666199,"true"
"image-keyboard-response",43,146776,"0.0-4.10-1.10","br0odq5aalqrfrd",71,"155.csv","","null","resources/maskTrios/L4BB.jpg","null","",NA,NA,NA,NA,""
"image-keyboard-response",44,148017,"0.0-4.10-2.10","br0odq5aalqrfrd",71,"155.csv","","null","resources/images/coin2.png","null","",NA,NA,NA,NA,""
"image-keyboard-response",45,148407,"0.0-4.11-0.11","br0odq5aalqrfrd",71,"155.csv","","388.10000002384186","resources/trios/L4T4A3.jpg","37","restless",0.9,0.8,0.2,0.945091960856214,"false"
"image-keyboard-response",46,148811,"0.0-4.11-1.11","br0odq5aalqrfrd",71,"155.csv","","null","resources/maskTrios/L4BB.jpg","null","",NA,NA,NA,NA,""
"image-keyboard-response",47,150017,"0.0-4.11-2.11","br0odq5aalqrfrd",71,"155.csv","","null","resources/images/fishbone.png","null","",NA,NA,NA,NA,""
"image-keyboard-response",48,151732,"0.0-4.12-0.12","br0odq5aalqrfrd",71,"155.csv","","1713.3999999761581","resources/trios/L4T4A3.jpg","38","restless",0.9,0.8,0.2,0.0919386270571982,"true"
"image-keyboard-response",49,152136,"0.0-4.12-1.12","br0odq5aalqrfrd",71,"155.csv","","null","resources/maskTrios/BT4B.jpg","null","",NA,NA,NA,NA,""
"image-keyboard-response",50,153347,"0.0-4.12-2.12","br0odq5aalqrfrd",71,"155.csv","","null","resources/images/coin2.png","null","",NA,NA,NA,NA,""
"image-keyboard-response",51,153701,"0.0-4.13-0.13","br0odq5aalqrfrd",71,"155.csv","","352.39999997615814","resources/trios/L4T4A3.jpg","38","restless",0.9,0.8,0.1,0.338265180260916,"true"
"image-keyboard-response",52,154106,"0.0-4.13-1.13","br0odq5aalqrfrd",71,"155.csv","","null","resources/maskTrios/BT4B.jpg","null","",NA,NA,NA,NA,""
"image-keyboard-response",53,155317,"0.0-4.13-2.13","br0odq5aalqrfrd",71,"155.csv","","null","resources/images/coin2.png","null","",NA,NA,NA,NA,""
"image-keyboard-response",54,155667,"0.0-4.14-0.14","br0odq5aalqrfrd",71,"155.csv","","348.60000002384186","resources/trios/L4T4A3.jpg","38","restless",0.9,0.8,0.2,0.213197789602226,"true"
"image-keyboard-response",55,156083,"0.0-4.14-1.14","br0odq5aalqrfrd",71,"155.csv","","null","resources/maskTrios/BT4B.jpg","null","",NA,NA,NA,NA,""
"image-keyboard-response",56,157286,"0.0-4.14-2.14","br0odq5aalqrfrd",71,"155.csv","","null","resources/images/coin2.png","null","",NA,NA,NA,NA,""
"image-keyboard-response",57,157695,"0.0-4.15-0.15","br0odq5aalqrfrd",71,"155.csv","","407.90000009536743","resources/trios/L4T4A3.jpg","38","restless",0.9,0.8,0.2,0.219366895130296,"true"
"image-keyboard-response",58,158106,"0.0-4.15-1.15","br0odq5aalqrfrd",71,"155.csv","","null","resources/maskTrios/BT4B.jpg","null","",NA,NA,NA,NA,""
"image-keyboard-response",59,159317,"0.0-4.15-2.15","br0odq5aalqrfrd",71,"155.csv","","null","resources/images/coin2.png","null","",NA,NA,NA,NA,""
"image-keyboard-response",60,159674,"0.0-4.16-0.16","br0odq5aalqrfrd",71,"155.csv","","355.59999990463257","resources/trios/L4T4A3.jpg","38","restless",0.9,0.8,0.2,0.0870651957423918,"true"
"image-keyboard-response",61,160077,"0.0-4.16-1.16","br0odq5aalqrfrd",71,"155.csv","","null","resources/maskTrios/BT4B.jpg","null","",NA,NA,NA,NA,""
"image-keyboard-response",62,161283,"0.0-4.16-2.16","br0odq5aalqrfrd",71,"155.csv","","null","resources/images/coin2.png","null","",NA,NA,NA,NA,""
"image-keyboard-response",63,161701,"0.0-4.17-0.17","br0odq5aalqrfrd",71,"155.csv","","417.39999997615814","resources/trios/L4T4A3.jpg","38","restless",0.9,0.7,0.2,0.670878479646352,"true"
"image-keyboard-response",64,162107,"0.0-4.17-1.17","br0odq5aalqrfrd",71,"155.csv","","null","resources/maskTrios/BT4B.jpg","null","",NA,NA,NA,NA,""
"image-keyboard-response",65,163311,"0.0-4.17-2.17","br0odq5aalqrfrd",71,"155.csv","","null","resources/images/coin2.png","null","",NA,NA,NA,NA,""
"image-keyboard-response",66,163694,"0.0-4.18-0.18","br0odq5aalqrfrd",71,"155.csv","","382.10000002384186","resources/trios/L4T4A3.jpg","38","restless",0.9,0.7,0.2,0.532099226672645,"true"
"image-keyboard-response",67,164097,"0.0-4.18-1.18","br0odq5aalqrfrd",71,"155.csv","","null","resources/maskTrios/BT4B.jpg","null","",NA,NA,NA,NA,""
"image-keyboard-response",68,165317,"0.0-4.18-2.18","br0odq5aalqrfrd",71,"155.csv","","null","resources/images/coin2.png","null","",NA,NA,NA,NA,""
"image-keyboard-response",69,165697,"0.0-4.19-0.19","br0odq5aalqrfrd",71,"155.csv","","378.1999999284744","resources/trios/L4T4A3.jpg","38","restless",0.9,0.7,0.2,0.453400810053328,"true"
"image-keyboard-response",70,166102,"0.0-4.19-1.19","br0odq5aalqrfrd",71,"155.csv","","null","resources/maskTrios/BT4B.jpg","null","",NA,NA,NA,NA,""
"image-keyboard-response",71,167307,"0.0-4.19-2.19","br0odq5aalqrfrd",71,"155.csv","","null","resources/images/coin2.png","null","",NA,NA,NA,NA,""
"image-keyboard-response",72,167675,"0.0-4.20-0.20","br0odq5aalqrfrd",71,"155.csv","","366.1999999284744","resources/trios/L4T4A3.jpg","38","restless",0.9,0.7,0.2,0.463089609509375,"true"
"image-keyboard-response",73,168077,"0.0-4.20-1.20","br0odq5aalqrfrd",71,"155.csv","","null","resources/maskTrios/BT4B.jpg","null","",NA,NA,NA,NA,""
"image-keyboard-response",74,169287,"0.0-4.20-2.20","br0odq5aalqrfrd",71,"155.csv","","null","resources/images/coin2.png","null","",NA,NA,NA,NA,""
"image-keyboard-response",75,169664,"0.0-4.21-0.21","br0odq5aalqrfrd",71,"155.csv","","375.7999999523163","resources/trios/L4T4A3.jpg","38","restless",0.9,0.7,0.2,0.0369400294817879,"true"
"image-keyboard-response",76,170077,"0.0-4.21-1.21","br0odq5aalqrfrd",71,"155.csv","","null","resources/maskTrios/BT4B.jpg","null","",NA,NA,NA,NA,""
"image-keyboard-response",77,171287,"0.0-4.21-2.21","br0odq5aalqrfrd",71,"155.csv","","null","resources/images/coin2.png","null","",NA,NA,NA,NA,""
"image-keyboard-response",78,171555,"0.0-4.22-0.22","br0odq5aalqrfrd",71,"155.csv","","266.39999997615814","resources/trios/L4T4A3.jpg","38","restless",0.9,0.7,0.2,0.961101099886763,"false"
"image-keyboard-response",79,171957,"0.0-4.22-1.22","br0odq5aalqrfrd",71,"155.csv","","null","resources/maskTrios/BT4B.jpg","null","",NA,NA,NA,NA,""
"image-keyboard-response",80,173167,"0.0-4.22-2.22","br0odq5aalqrfrd",71,"155.csv","","null","resources/images/fishbone.png","null","",NA,NA,NA,NA,""
"image-keyboard-response",81,173636,"0.0-4.23-0.23","br0odq5aalqrfrd",71,"155.csv","","467.2999999523163","resources/trios/L4T4A3.jpg","39","restless",0.8,0.7,0.2,0.417912525351137,"false"
"image-keyboard-response",82,174037,"0.0-4.23-1.23","br0odq5aalqrfrd",71,"155.csv","","null","resources/maskTrios/BBA3.jpg","null","",NA,NA,NA,NA,""
"image-keyboard-response",83,175248,"0.0-4.23-2.23","br0odq5aalqrfrd",71,"155.csv","","null","resources/images/fishbone.png","null","",NA,NA,NA,NA,""
"image-keyboard-response",84,176651,"0.0-4.24-0.24","br0odq5aalqrfrd",71,"155.csv","","1402.5","resources/trios/L4T4A3.jpg","37","restless",0.8,0.7,0.2,0.789296757967386,"true"
"image-keyboard-response",85,177057,"0.0-4.24-1.24","br0odq5aalqrfrd",71,"155.csv","","null","resources/maskTrios/L4BB.jpg","null","",NA,NA,NA,NA,""
"image-keyboard-response",86,178268,"0.0-4.24-2.24","br0odq5aalqrfrd",71,"155.csv","","null","resources/images/coin2.png","null","",NA,NA,NA,NA,""
"image-keyboard-response",87,178644,"0.0-4.25-0.25","br0odq5aalqrfrd",71,"155.csv","","374.90000009536743","resources/trios/L4T4A3.jpg","37","restless",0.8,0.7,0.2,0.547295186521493,"true"
"image-keyboard-response",88,179058,"0.0-4.25-1.25","br0odq5aalqrfrd",71,"155.csv","","null","resources/maskTrios/L4BB.jpg","null","",NA,NA,NA,NA,""
"image-keyboard-response",89,180268,"0.0-4.25-2.25","br0odq5aalqrfrd",71,"155.csv","","null","resources/images/coin2.png","null","",NA,NA,NA,NA,""
"image-keyboard-response",90,180915,"0.0-4.26-0.26","br0odq5aalqrfrd",71,"155.csv","","645.5","resources/trios/L4T4A3.jpg","38","restless",0.8,0.7,0.3,0.52480709870734,"true"
"image-keyboard-response",91,181318,"0.0-4.26-1.26","br0odq5aalqrfrd",71,"155.csv","","null","resources/maskTrios/BT4B.jpg","null","",NA,NA,NA,NA,""
"image-keyboard-response",92,182537,"0.0-4.26-2.26","br0odq5aalqrfrd",71,"155.csv","","null","resources/images/coin2.png","null","",NA,NA,NA,NA,""
"image-keyboard-response",93,182844,"0.0-4.27-0.27","br0odq5aalqrfrd",71,"155.csv","","305.60000002384186","resources/trios/L4T4A3.jpg","39","restless",0.8,0.7,0.3,0.837065430013134,"false"
"image-keyboard-response",94,183247,"0.0-4.27-1.27","br0odq5aalqrfrd",71,"155.csv","","null","resources/maskTrios/BBA3.jpg","null","",NA,NA,NA,NA,""
"image-keyboard-response",95,184458,"0.0-4.27-2.27","br0odq5aalqrfrd",71,"155.csv","","null","resources/images/fishbone.png","null","",NA,NA,NA,NA,""
"image-keyboard-response",96,184819,"0.0-4.28-0.28","br0odq5aalqrfrd",71,"155.csv","","359.6999999284744","resources/trios/L4T4A3.jpg","37","restless",0.8,0.7,0.4,0.813989990127608,"false"
"image-keyboard-response",97,185227,"0.0-4.28-1.28","br0odq5aalqrfrd",71,"155.csv","","null","resources/maskTrios/L4BB.jpg","null","",NA,NA,NA,NA,""
"image-keyboard-response",98,186437,"0.0-4.28-2.28","br0odq5aalqrfrd",71,"155.csv","","null","resources/images/fishbone.png","null","",NA,NA,NA,NA,""
"image-keyboard-response",99,186791,"0.0-4.29-0.29","br0odq5aalqrfrd",71,"155.csv","","352.5","resources/trios/L4T4A3.jpg","38","restless",0.8,0.7,0.4,0.707950502928566,"false"
"image-keyboard-response",100,187198,"0.0-4.29-1.29","br0odq5aalqrfrd",71,"155.csv","","null","resources/maskTrios/BT4B.jpg","null","",NA,NA,NA,NA,""
"image-keyboard-response",101,188417,"0.0-4.29-2.29","br0odq5aalqrfrd",71,"155.csv","","null","resources/images/fishbone.png","null","",NA,NA,NA,NA,""
"image-keyboard-response",102,189251,"0.0-4.30-0.30","br0odq5aalqrfrd",71,"155.csv","","833.2000000476837","resources/trios/L4T4A3.jpg","37","restless",0.8,0.7,0.5,0.92952826179823,"false"
"image-keyboard-response",103,189657,"0.0-4.30-1.30","br0odq5aalqrfrd",71,"155.csv","","null","resources/maskTrios/L4BB.jpg","null","",NA,NA,NA,NA,""
"image-keyboard-response",104,190867,"0.0-4.30-2.30","br0odq5aalqrfrd",71,"155.csv","","null","resources/images/fishbone.png","null","",NA,NA,NA,NA,""
"image-keyboard-response",105,191291,"0.0-4.31-0.31","br0odq5aalqrfrd",71,"155.csv","","422.39999997615814","resources/trios/L4T4A3.jpg","39","restless",0.8,0.6,0.5,0.0692235388435209,"true"
"image-keyboard-response",106,191697,"0.0-4.31-1.31","br0odq5aalqrfrd",71,"155.csv","","null","resources/maskTrios/BBA3.jpg","null","",NA,NA,NA,NA,""
"image-keyboard-response",107,192908,"0.0-4.31-2.31","br0odq5aalqrfrd",71,"155.csv","","null","resources/images/coin2.png","null","",NA,NA,NA,NA,""
"image-keyboard-response",108,193322,"0.0-4.32-0.32","br0odq5aalqrfrd",71,"155.csv","","412.2999999523163","resources/trios/L4T4A3.jpg","39","restless",0.8,0.6,0.5,0.928988569340619,"false"
"image-keyboard-response",109,193728,"0.0-4.32-1.32","br0odq5aalqrfrd",71,"155.csv","","null","resources/maskTrios/BBA3.jpg","null","",NA,NA,NA,NA,""
"image-keyboard-response",110,194957,"0.0-4.32-2.32","br0odq5aalqrfrd",71,"155.csv","","null","resources/images/fishbone.png","null","",NA,NA,NA,NA,""
"image-keyboard-response",111,195283,"0.0-4.33-0.33","br0odq5aalqrfrd",71,"155.csv","","324.89999997615814","resources/trios/L4T4A3.jpg","38","restless",0.8,0.6,0.5,0.748757678523774,"false"
"image-keyboard-response",112,195688,"0.0-4.33-1.33","br0odq5aalqrfrd",71,"155.csv","","null","resources/maskTrios/BT4B.jpg","null","",NA,NA,NA,NA,""
"image-keyboard-response",113,196897,"0.0-4.33-2.33","br0odq5aalqrfrd",71,"155.csv","","null","resources/images/fishbone.png","null","",NA,NA,NA,NA,""
"image-keyboard-response",114,197782,"0.0-4.34-0.34","br0odq5aalqrfrd",71,"155.csv","","883.3999999761581","resources/trios/L4T4A3.jpg","39","restless",0.8,0.6,0.5,0.944190185271098,"false"
"image-keyboard-response",115,198188,"0.0-4.34-1.34","br0odq5aalqrfrd",71,"155.csv","","null","resources/maskTrios/BBA3.jpg","null","",NA,NA,NA,NA,""
"image-keyboard-response",116,199398,"0.0-4.34-2.34","br0odq5aalqrfrd",71,"155.csv","","null","resources/images/fishbone.png","null","",NA,NA,NA,NA,""
"image-keyboard-response",117,200111,"0.0-4.35-0.35","br0odq5aalqrfrd",71,"155.csv","","711.3999999761581","resources/trios/L4T4A3.jpg","37","restless",0.8,0.6,0.5,0.345431542616443,"true"
"image-keyboard-response",118,200538,"0.0-4.35-1.35","br0odq5aalqrfrd",71,"155.csv","","null","resources/maskTrios/L4BB.jpg","null","",NA,NA,NA,NA,""
"image-keyboard-response",119,201768,"0.0-4.35-2.35","br0odq5aalqrfrd",71,"155.csv","","null","resources/images/coin2.png","null","",NA,NA,NA,NA,""
"image-keyboard-response",120,202564,"0.0-4.36-0.36","br0odq5aalqrfrd",71,"155.csv","","795.2999999523163","resources/trios/L4T4A3.jpg","37","restless",0.8,0.6,0.5,0.659595105954269,"true"
"image-keyboard-response",121,202968,"0.0-4.36-1.36","br0odq5aalqrfrd",71,"155.csv","","null","resources/maskTrios/L4BB.jpg","null","",NA,NA,NA,NA,""
"image-keyboard-response",122,204187,"0.0-4.36-2.36","br0odq5aalqrfrd",71,"155.csv","","null","resources/images/coin2.png","null","",NA,NA,NA,NA,""
"image-keyboard-response",123,204661,"0.0-4.37-0.37","br0odq5aalqrfrd",71,"155.csv","","472.2999999523163","resources/trios/L4T4A3.jpg","37","restless",0.8,0.6,0.5,0.761055614329595,"true"
"image-keyboard-response",124,205067,"0.0-4.37-1.37","br0odq5aalqrfrd",71,"155.csv","","null","resources/maskTrios/L4BB.jpg","null","",NA,NA,NA,NA,""
"image-keyboard-response",125,206277,"0.0-4.37-2.37","br0odq5aalqrfrd",71,"155.csv","","null","resources/images/coin2.png","null","",NA,NA,NA,NA,""
"image-keyboard-response",126,206747,"0.0-4.38-0.38","br0odq5aalqrfrd",71,"155.csv","","469","resources/trios/L4T4A3.jpg","37","restless",0.8,0.6,0.5,0.454413441370131,"true"
"image-keyboard-response",127,207158,"0.0-4.38-1.38","br0odq5aalqrfrd",71,"155.csv","","null","resources/maskTrios/L4BB.jpg","null","",NA,NA,NA,NA,""
"image-keyboard-response",128,208368,"0.0-4.38-2.38","br0odq5aalqrfrd",71,"155.csv","","null","resources/images/coin2.png","null","",NA,NA,NA,NA,""
"image-keyboard-response",129,208715,"0.0-4.39-0.39","br0odq5aalqrfrd",71,"155.csv","","345.60000002384186","resources/trios/L4T4A3.jpg","37","restless",0.7,0.6,0.5,0.702075175793952,"false"
"image-keyboard-response",130,209118,"0.0-4.39-1.39","br0odq5aalqrfrd",71,"155.csv","","null","resources/maskTrios/L4BB.jpg","null","",NA,NA,NA,NA,""
"image-keyboard-response",131,210327,"0.0-4.39-2.39","br0odq5aalqrfrd",71,"155.csv","","null","resources/images/fishbone.png","null","",NA,NA,NA,NA,""
"image-keyboard-response",132,212484,"0.0-4.40-0.40","br0odq5aalqrfrd",71,"155.csv","","2155.5","resources/trios/L4T4A3.jpg","37","restless",0.7,0.6,0.5,0.893760323989954,"false"
"image-keyboard-response",133,212886,"0.0-4.40-1.40","br0odq5aalqrfrd",71,"155.csv","","null","resources/maskTrios/L4BB.jpg","null","",NA,NA,NA,NA,""
"image-keyboard-response",134,214098,"0.0-4.40-2.40","br0odq5aalqrfrd",71,"155.csv","","null","resources/images/fishbone.png","null","",NA,NA,NA,NA,""
"image-keyboard-response",135,214483,"0.0-4.41-0.41","br0odq5aalqrfrd",71,"155.csv","","383.2999999523163","resources/trios/L4T4A3.jpg","38","restless",0.7,0.6,0.5,0.736883192556042,"false"
"image-keyboard-response",136,214899,"0.0-4.41-1.41","br0odq5aalqrfrd",71,"155.csv","","null","resources/maskTrios/BT4B.jpg","null","",NA,NA,NA,NA,""
"image-keyboard-response",137,216108,"0.0-4.41-2.41","br0odq5aalqrfrd",71,"155.csv","","null","resources/images/fishbone.png","null","",NA,NA,NA,NA,""
"image-keyboard-response",138,216581,"0.0-4.42-0.42","br0odq5aalqrfrd",71,"155.csv","","466.60000002384186","resources/trios/L4T4A3.jpg","37","restless",0.7,0.6,0.5,0.327477527880717,"true"
"image-keyboard-response",139,216988,"0.0-4.42-1.42","br0odq5aalqrfrd",71,"155.csv","","null","resources/maskTrios/L4BB.jpg","null","",NA,NA,NA,NA,""
"image-keyboard-response",140,218198,"0.0-4.42-2.42","br0odq5aalqrfrd",71,"155.csv","","null","resources/images/coin2.png","null","",NA,NA,NA,NA,""
"image-keyboard-response",141,218761,"0.0-4.43-0.43","br0odq5aalqrfrd",71,"155.csv","","561.5","resources/trios/L4T4A3.jpg","37","restless",0.7,0.6,0.6,0.816356704438923,"false"
"image-keyboard-response",142,219167,"0.0-4.43-1.43","br0odq5aalqrfrd",71,"155.csv","","null","resources/maskTrios/L4BB.jpg","null","",NA,NA,NA,NA,""
"image-keyboard-response",143,220395,"0.0-4.43-2.43","br0odq5aalqrfrd",71,"155.csv","","null","resources/images/fishbone.png","null","",NA,NA,NA,NA,""
"image-keyboard-response",144,220838,"0.0-4.44-0.44","br0odq5aalqrfrd",71,"155.csv","","441","resources/trios/L4T4A3.jpg","39","restless",0.7,0.6,0.7,0.240859995228185,"true"
"image-keyboard-response",145,221257,"0.0-4.44-1.44","br0odq5aalqrfrd",71,"155.csv","","null","resources/maskTrios/BBA3.jpg","null","",NA,NA,NA,NA,""
"image-keyboard-response",146,222468,"0.0-4.44-2.44","br0odq5aalqrfrd",71,"155.csv","","null","resources/images/coin2.png","null","",NA,NA,NA,NA,""
"image-keyboard-response",147,222861,"0.0-4.45-0.45","br0odq5aalqrfrd",71,"155.csv","","392.5","resources/trios/L4T4A3.jpg","39","restless",0.7,0.6,0.7,0.918628621264779,"false"
"image-keyboard-response",148,223267,"0.0-4.45-1.45","br0odq5aalqrfrd",71,"155.csv","","null","resources/maskTrios/BBA3.jpg","null","",NA,NA,NA,NA,""
"image-keyboard-response",149,224468,"0.0-4.45-2.45","br0odq5aalqrfrd",71,"155.csv","","null","resources/images/fishbone.png","null","",NA,NA,NA,NA,""
"image-keyboard-response",150,225294,"0.0-4.46-0.46","br0odq5aalqrfrd",71,"155.csv","","824.5","resources/trios/L4T4A3.jpg","37","restless",0.6,0.6,0.7,0.645782891109782,"false"
"image-keyboard-response",151,225697,"0.0-4.46-1.46","br0odq5aalqrfrd",71,"155.csv","","null","resources/maskTrios/L4BB.jpg","null","",NA,NA,NA,NA,""
"image-keyboard-response",152,226917,"0.0-4.46-2.46","br0odq5aalqrfrd",71,"155.csv","","null","resources/images/fishbone.png","null","",NA,NA,NA,NA,""
"image-keyboard-response",153,227199,"0.0-4.47-0.47","br0odq5aalqrfrd",71,"155.csv","","281","resources/trios/L4T4A3.jpg","38","restless",0.6,0.6,0.7,0.763001087420335,"false"
"image-keyboard-response",154,227608,"0.0-4.47-1.47","br0odq5aalqrfrd",71,"155.csv","","null","resources/maskTrios/BT4B.jpg","null","",NA,NA,NA,NA,""
"image-keyboard-response",155,228813,"0.0-4.47-2.47","br0odq5aalqrfrd",71,"155.csv","","null","resources/images/fishbone.png","null","",NA,NA,NA,NA,""
"image-keyboard-response",156,229499,"0.0-4.48-0.48","br0odq5aalqrfrd",71,"155.csv","","684.7000000476837","resources/trios/L4T4A3.jpg","38","restless",0.6,0.6,0.7,0.958374121013303,"false"
"image-keyboard-response",157,229905,"0.0-4.48-1.48","br0odq5aalqrfrd",71,"155.csv","","null","resources/maskTrios/BT4B.jpg","null","",NA,NA,NA,NA,""
"image-keyboard-response",158,231108,"0.0-4.48-2.48","br0odq5aalqrfrd",71,"155.csv","","null","resources/images/fishbone.png","null","",NA,NA,NA,NA,""
"image-keyboard-response",159,231625,"0.0-4.49-0.49","br0odq5aalqrfrd",71,"155.csv","","516.1999999284744","resources/trios/L4T4A3.jpg","37","restless",0.6,0.6,0.7,0.561442303968456,"true"
"image-keyboard-response",160,232027,"0.0-4.49-1.49","br0odq5aalqrfrd",71,"155.csv","","null","resources/maskTrios/L4BB.jpg","null","",NA,NA,NA,NA,""
"image-keyboard-response",161,233238,"0.0-4.49-2.49","br0odq5aalqrfrd",71,"155.csv","","null","resources/images/coin2.png","null","",NA,NA,NA,NA,""
"image-keyboard-response",162,233912,"0.0-4.50-0.50","br0odq5aalqrfrd",71,"155.csv","","672.2999999523163","resources/trios/L4T4A3.jpg","37","restless",0.6,0.6,0.7,0.847546520200592,"false"
"image-keyboard-response",163,234318,"0.0-4.50-1.50","br0odq5aalqrfrd",71,"155.csv","","null","resources/maskTrios/L4BB.jpg","null","",NA,NA,NA,NA,""
"image-keyboard-response",164,235526,"0.0-4.50-2.50","br0odq5aalqrfrd",71,"155.csv","","null","resources/images/fishbone.png","null","",NA,NA,NA,NA,""
"image-keyboard-response",165,236255,"0.0-4.51-0.51","br0odq5aalqrfrd",71,"155.csv","","727.7000000476837","resources/trios/L4T4A3.jpg","39","restless",0.6,0.6,0.7,0.962550063393086,"false"
"image-keyboard-response",166,236659,"0.0-4.51-1.51","br0odq5aalqrfrd",71,"155.csv","","null","resources/maskTrios/BBA3.jpg","null","",NA,NA,NA,NA,""
"image-keyboard-response",167,237869,"0.0-4.51-2.51","br0odq5aalqrfrd",71,"155.csv","","null","resources/images/fishbone.png","null","",NA,NA,NA,NA,""
"image-keyboard-response",168,238415,"0.0-4.52-0.52","br0odq5aalqrfrd",71,"155.csv","","544.8000000715256","resources/trios/L4T4A3.jpg","38","restless",0.7,0.6,0.7,0.348009411112109,"true"
"image-keyboard-response",169,238819,"0.0-4.52-1.52","br0odq5aalqrfrd",71,"155.csv","","null","resources/maskTrios/BT4B.jpg","null","",NA,NA,NA,NA,""
"image-keyboard-response",170,240048,"0.0-4.52-2.52","br0odq5aalqrfrd",71,"155.csv","","null","resources/images/coin2.png","null","",NA,NA,NA,NA,""
"image-keyboard-response",171,240999,"0.0-4.53-0.53","br0odq5aalqrfrd",71,"155.csv","","949.7999999523163","resources/trios/L4T4A3.jpg","37","restless",0.7,0.6,0.7,0.415323312593953,"true"
"image-keyboard-response",172,241408,"0.0-4.53-1.53","br0odq5aalqrfrd",71,"155.csv","","null","resources/maskTrios/L4BB.jpg","null","",NA,NA,NA,NA,""
"image-keyboard-response",173,242619,"0.0-4.53-2.53","br0odq5aalqrfrd",71,"155.csv","","null","resources/images/coin2.png","null","",NA,NA,NA,NA,""
"image-keyboard-response",174,242996,"0.0-4.54-0.54","br0odq5aalqrfrd",71,"155.csv","","375.8000000715256","resources/trios/L4T4A3.jpg","37","restless",0.7,0.6,0.7,0.903474657933296,"false"
"image-keyboard-response",175,243408,"0.0-4.54-1.54","br0odq5aalqrfrd",71,"155.csv","","null","resources/maskTrios/L4BB.jpg","null","",NA,NA,NA,NA,""
"image-keyboard-response",176,244628,"0.0-4.54-2.54","br0odq5aalqrfrd",71,"155.csv","","null","resources/images/fishbone.png","null","",NA,NA,NA,NA,""
"image-keyboard-response",177,245084,"0.0-4.55-0.55","br0odq5aalqrfrd",71,"155.csv","","453.8000000715256","resources/trios/L4T4A3.jpg","38","restless",0.7,0.6,0.6,0.5888771979115,"true"
"image-keyboard-response",178,245486,"0.0-4.55-1.55","br0odq5aalqrfrd",71,"155.csv","","null","resources/maskTrios/BT4B.jpg","null","",NA,NA,NA,NA,""
"image-keyboard-response",179,246706,"0.0-4.55-2.55","br0odq5aalqrfrd",71,"155.csv","","null","resources/images/coin2.png","null","",NA,NA,NA,NA,""
"image-keyboard-response",180,247058,"0.0-4.56-0.56","br0odq5aalqrfrd",71,"155.csv","","350.7000000476837","resources/trios/L4T4A3.jpg","38","restless",0.7,0.6,0.6,0.940625586604315,"false"
"image-keyboard-response",181,247468,"0.0-4.56-1.56","br0odq5aalqrfrd",71,"155.csv","","null","resources/maskTrios/BT4B.jpg","null","",NA,NA,NA,NA,""
"image-keyboard-response",182,248672,"0.0-4.56-2.56","br0odq5aalqrfrd",71,"155.csv","","null","resources/images/fishbone.png","null","",NA,NA,NA,NA,""
"image-keyboard-response",183,249181,"0.0-4.57-0.57","br0odq5aalqrfrd",71,"155.csv","","507.5","resources/trios/L4T4A3.jpg","37","restless",0.7,0.6,0.6,0.0177330160065192,"true"
"image-keyboard-response",184,249589,"0.0-4.57-1.57","br0odq5aalqrfrd",71,"155.csv","","null","resources/maskTrios/L4BB.jpg","null","",NA,NA,NA,NA,""
"image-keyboard-response",185,250791,"0.0-4.57-2.57","br0odq5aalqrfrd",71,"155.csv","","null","resources/images/coin2.png","null","",NA,NA,NA,NA,""
"image-keyboard-response",186,251170,"0.0-4.58-0.58","br0odq5aalqrfrd",71,"155.csv","","377.7999999523163","resources/trios/L4T4A3.jpg","37","restless",0.7,0.6,0.6,0.783415539685952,"false"
"image-keyboard-response",187,251576,"0.0-4.58-1.58","br0odq5aalqrfrd",71,"155.csv","","null","resources/maskTrios/L4BB.jpg","null","",NA,NA,NA,NA,""
"image-keyboard-response",188,252799,"0.0-4.58-2.58","br0odq5aalqrfrd",71,"155.csv","","null","resources/images/fishbone.png","null","",NA,NA,NA,NA,""
"image-keyboard-response",189,253426,"0.0-4.59-0.59","br0odq5aalqrfrd",71,"155.csv","","625.3999999761581","resources/trios/L4T4A3.jpg","39","restless",0.7,0.6,0.6,0.562931549209998,"true"
"image-keyboard-response",190,253829,"0.0-4.59-1.59","br0odq5aalqrfrd",71,"155.csv","","null","resources/maskTrios/BBA3.jpg","null","",NA,NA,NA,NA,""
"image-keyboard-response",191,255039,"0.0-4.59-2.59","br0odq5aalqrfrd",71,"155.csv","","null","resources/images/coin2.png","null","",NA,NA,NA,NA,""
"image-keyboard-response",192,256047,"0.0-4.60-0.60","br0odq5aalqrfrd",71,"155.csv","","1006.5","resources/trios/L4T4A3.jpg","39","restless",0.7,0.6,0.6,0.341801293396044,"true"
"image-keyboard-response",193,256459,"0.0-4.60-1.60","br0odq5aalqrfrd",71,"155.csv","","null","resources/maskTrios/BBA3.jpg","null","",NA,NA,NA,NA,""
"image-keyboard-response",194,257669,"0.0-4.60-2.60","br0odq5aalqrfrd",71,"155.csv","","null","resources/images/coin2.png","null","",NA,NA,NA,NA,""
"image-keyboard-response",195,258624,"0.0-4.61-0.61","br0odq5aalqrfrd",71,"155.csv","","953.7999999523163","resources/trios/L4T4A3.jpg","39","restless",0.7,0.6,0.6,0.311842347670007,"true"
"image-keyboard-response",196,259039,"0.0-4.61-1.61","br0odq5aalqrfrd",71,"155.csv","","null","resources/maskTrios/BBA3.jpg","null","",NA,NA,NA,NA,""
"image-keyboard-response",197,260249,"0.0-4.61-2.61","br0odq5aalqrfrd",71,"155.csv","","null","resources/images/coin2.png","null","",NA,NA,NA,NA,""
"image-keyboard-response",198,260772,"0.0-4.62-0.62","br0odq5aalqrfrd",71,"155.csv","","521","resources/trios/L4T4A3.jpg","39","restless",0.6,0.6,0.6,0.674978517374039,"false"
"image-keyboard-response",199,261176,"0.0-4.62-1.62","br0odq5aalqrfrd",71,"155.csv","","null","resources/maskTrios/BBA3.jpg","null","",NA,NA,NA,NA,""
"image-keyboard-response",200,262388,"0.0-4.62-2.62","br0odq5aalqrfrd",71,"155.csv","","null","resources/images/fishbone.png","null","",NA,NA,NA,NA,""
"image-keyboard-response",201,262901,"0.0-4.63-0.63","br0odq5aalqrfrd",71,"155.csv","","511.1999999284744","resources/trios/L4T4A3.jpg","38","restless",0.7,0.6,0.6,0.767595958942886,"false"
"image-keyboard-response",202,263309,"0.0-4.63-1.63","br0odq5aalqrfrd",71,"155.csv","","null","resources/maskTrios/BT4B.jpg","null","",NA,NA,NA,NA,""
"image-keyboard-response",203,264529,"0.0-4.63-2.63","br0odq5aalqrfrd",71,"155.csv","","null","resources/images/fishbone.png","null","",NA,NA,NA,NA,""
"image-keyboard-response",204,265814,"0.0-4.64-0.64","br0odq5aalqrfrd",71,"155.csv","","1284.4000000953674","resources/trios/L4T4A3.jpg","39","restless",0.7,0.6,0.6,0.707890371580346,"false"
"image-keyboard-response",205,266219,"0.0-4.64-1.64","br0odq5aalqrfrd",71,"155.csv","","null","resources/maskTrios/BBA3.jpg","null","",NA,NA,NA,NA,""
"image-keyboard-response",206,267428,"0.0-4.64-2.64","br0odq5aalqrfrd",71,"155.csv","","null","resources/images/fishbone.png","null","",NA,NA,NA,NA,""
"image-keyboard-response",207,267690,"0.0-4.65-0.65","br0odq5aalqrfrd",71,"155.csv","","259.7999999523163","resources/trios/L4T4A3.jpg","37","restless",0.7,0.6,0.6,0.0631868137667075,"true"
"image-keyboard-response",208,268098,"0.0-4.65-1.65","br0odq5aalqrfrd",71,"155.csv","","null","resources/maskTrios/L4BB.jpg","null","",NA,NA,NA,NA,""
"image-keyboard-response",209,269308,"0.0-4.65-2.65","br0odq5aalqrfrd",71,"155.csv","","null","resources/images/coin2.png","null","",NA,NA,NA,NA,""
"image-keyboard-response",210,269617,"0.0-4.66-0.66","br0odq5aalqrfrd",71,"155.csv","","307","resources/trios/L4T4A3.jpg","37","restless",0.7,0.6,0.6,0.858219405739156,"false"
"image-keyboard-response",211,270019,"0.0-4.66-1.66","br0odq5aalqrfrd",71,"155.csv","","null","resources/maskTrios/L4BB.jpg","null","",NA,NA,NA,NA,""
"image-keyboard-response",212,271249,"0.0-4.66-2.66","br0odq5aalqrfrd",71,"155.csv","","null","resources/images/fishbone.png","null","",NA,NA,NA,NA,""
"image-keyboard-response",213,271567,"0.0-4.67-0.67","br0odq5aalqrfrd",71,"155.csv","","317.2000000476837","resources/trios/L4T4A3.jpg","38","restless",0.7,0.6,0.6,0.695633702602587,"false"
"image-keyboard-response",214,271976,"0.0-4.67-1.67","br0odq5aalqrfrd",71,"155.csv","","null","resources/maskTrios/BT4B.jpg","null","",NA,NA,NA,NA,""
"image-keyboard-response",215,273188,"0.0-4.67-2.67","br0odq5aalqrfrd",71,"155.csv","","null","resources/images/fishbone.png","null","",NA,NA,NA,NA,""
"image-keyboard-response",216,273566,"0.0-4.68-0.68","br0odq5aalqrfrd",71,"155.csv","","376.10000002384186","resources/trios/L4T4A3.jpg","37","restless",0.8,0.5,0.5,0.330843109421237,"true"
"image-keyboard-response",217,273968,"0.0-4.68-1.68","br0odq5aalqrfrd",71,"155.csv","","null","resources/maskTrios/L4BB.jpg","null","",NA,NA,NA,NA,""
"image-keyboard-response",218,275177,"0.0-4.68-2.68","br0odq5aalqrfrd",71,"155.csv","","null","resources/images/coin2.png","null","",NA,NA,NA,NA,""
"image-keyboard-response",219,276156,"0.0-4.69-0.69","br0odq5aalqrfrd",71,"155.csv","","977.8999999761581","resources/trios/L4T4A3.jpg","37","restless",0.8,0.5,0.5,0.0107986698941789,"true"
"image-keyboard-response",220,276559,"0.0-4.69-1.69","br0odq5aalqrfrd",71,"155.csv","","null","resources/maskTrios/L4BB.jpg","null","",NA,NA,NA,NA,""
"image-keyboard-response",221,277788,"0.0-4.69-2.69","br0odq5aalqrfrd",71,"155.csv","","null","resources/images/coin2.png","null","",NA,NA,NA,NA,""
"image-keyboard-response",222,278382,"0.0-4.70-0.70","br0odq5aalqrfrd",71,"155.csv","","592.5","resources/trios/L4T4A3.jpg","37","restless",0.8,0.5,0.5,0.0120461744053861,"true"
"image-keyboard-response",223,278789,"0.0-4.70-1.70","br0odq5aalqrfrd",71,"155.csv","","null","resources/maskTrios/L4BB.jpg","null","",NA,NA,NA,NA,""
"image-keyboard-response",224,279999,"0.0-4.70-2.70","br0odq5aalqrfrd",71,"155.csv","","null","resources/images/coin2.png","null","",NA,NA,NA,NA,""
"image-keyboard-response",225,280713,"0.0-4.71-0.71","br0odq5aalqrfrd",71,"155.csv","","712.3999999761581","resources/trios/L4T4A3.jpg","37","restless",0.8,0.5,0.5,0.28711180147638,"true"
"image-keyboard-response",226,281118,"0.0-4.71-1.71","br0odq5aalqrfrd",71,"155.csv","","null","resources/maskTrios/L4BB.jpg","null","",NA,NA,NA,NA,""
"image-keyboard-response",227,282328,"0.0-4.71-2.71","br0odq5aalqrfrd",71,"155.csv","","null","resources/images/coin2.png","null","",NA,NA,NA,NA,""
"image-keyboard-response",228,282993,"0.0-4.72-0.72","br0odq5aalqrfrd",71,"155.csv","","663.3999999761581","resources/trios/L4T4A3.jpg","37","restless",0.8,0.5,0.5,0.410700142136615,"true"
"image-keyboard-response",229,283398,"0.0-4.72-1.72","br0odq5aalqrfrd",71,"155.csv","","null","resources/maskTrios/L4BB.jpg","null","",NA,NA,NA,NA,""
"image-keyboard-response",230,284628,"0.0-4.72-2.72","br0odq5aalqrfrd",71,"155.csv","","null","resources/images/coin2.png","null","",NA,NA,NA,NA,""
"image-keyboard-response",231,285070,"0.0-4.73-0.73","br0odq5aalqrfrd",71,"155.csv","","440.5","resources/trios/L4T4A3.jpg","37","restless",0.8,0.5,0.5,0.366249947426472,"true"
"image-keyboard-response",232,285479,"0.0-4.73-1.73","br0odq5aalqrfrd",71,"155.csv","","null","resources/maskTrios/L4BB.jpg","null","",NA,NA,NA,NA,""
"image-keyboard-response",233,286689,"0.0-4.73-2.73","br0odq5aalqrfrd",71,"155.csv","","null","resources/images/coin2.png","null","",NA,NA,NA,NA,""
"image-keyboard-response",234,287091,"0.0-4.74-0.74","br0odq5aalqrfrd",71,"155.csv","","400.8000000715256","resources/trios/L4T4A3.jpg","37","restless",0.8,0.5,0.5,0.0332844050665515,"true"
"image-keyboard-response",235,287509,"0.0-4.74-1.74","br0odq5aalqrfrd",71,"155.csv","","null","resources/maskTrios/L4BB.jpg","null","",NA,NA,NA,NA,""
"image-keyboard-response",236,288719,"0.0-4.74-2.74","br0odq5aalqrfrd",71,"155.csv","","null","resources/images/coin2.png","null","",NA,NA,NA,NA,""
"image-keyboard-response",237,289046,"0.0-4.75-0.75","br0odq5aalqrfrd",71,"155.csv","","325.60000002384186","resources/trios/L4T4A3.jpg","37","restless",0.8,0.5,0.5,0.329612569451211,"true"
"image-keyboard-response",238,289449,"0.0-4.75-1.75","br0odq5aalqrfrd",71,"155.csv","","null","resources/maskTrios/L4BB.jpg","null","",NA,NA,NA,NA,""
"image-keyboard-response",239,290659,"0.0-4.75-2.75","br0odq5aalqrfrd",71,"155.csv","","null","resources/images/coin2.png","null","",NA,NA,NA,NA,""
"image-keyboard-response",240,290990,"0.0-4.76-0.76","br0odq5aalqrfrd",71,"155.csv","","329.7999999523163","resources/trios/L4T4A3.jpg","37","restless",0.8,0.5,0.5,0.949221938183069,"false"
"image-keyboard-response",241,291398,"0.0-4.76-1.76","br0odq5aalqrfrd",71,"155.csv","","null","resources/maskTrios/L4BB.jpg","null","",NA,NA,NA,NA,""
"image-keyboard-response",242,292604,"0.0-4.76-2.76","br0odq5aalqrfrd",71,"155.csv","","null","resources/images/fishbone.png","null","",NA,NA,NA,NA,""
"image-keyboard-response",243,293022,"0.0-4.77-0.77","br0odq5aalqrfrd",71,"155.csv","","416.7000000476837","resources/trios/L4T4A3.jpg","38","restless",0.8,0.5,0.5,0.594455559843121,"false"
"image-keyboard-response",244,293429,"0.0-4.77-1.77","br0odq5aalqrfrd",71,"155.csv","","null","resources/maskTrios/BT4B.jpg","null","",NA,NA,NA,NA,""
"image-keyboard-response",245,294649,"0.0-4.77-2.77","br0odq5aalqrfrd",71,"155.csv","","null","resources/images/fishbone.png","null","",NA,NA,NA,NA,""
"image-keyboard-response",246,295144,"0.0-4.78-0.78","br0odq5aalqrfrd",71,"155.csv","","494","resources/trios/L4T4A3.jpg","37","restless",0.8,0.5,0.5,0.249415276076918,"true"
"image-keyboard-response",247,295550,"0.0-4.78-1.78","br0odq5aalqrfrd",71,"155.csv","","null","resources/maskTrios/L4BB.jpg","null","",NA,NA,NA,NA,""
"image-keyboard-response",248,296780,"0.0-4.78-2.78","br0odq5aalqrfrd",71,"155.csv","","null","resources/images/coin2.png","null","",NA,NA,NA,NA,""
"image-keyboard-response",249,297097,"0.0-4.79-0.79","br0odq5aalqrfrd",71,"155.csv","","315.1999999284744","resources/trios/L4T4A3.jpg","37","restless",0.8,0.5,0.5,0.363888745928894,"true"
"image-keyboard-response",250,297500,"0.0-4.79-1.79","br0odq5aalqrfrd",71,"155.csv","","null","resources/maskTrios/L4BB.jpg","null","",NA,NA,NA,NA,""
"image-keyboard-response",251,298710,"0.0-4.79-2.79","br0odq5aalqrfrd",71,"155.csv","","null","resources/images/coin2.png","null","",NA,NA,NA,NA,""
"image-keyboard-response",252,299102,"0.0-4.80-0.80","br0odq5aalqrfrd",71,"155.csv","","390.90000009536743","resources/trios/L4T4A3.jpg","37","restless",0.8,0.5,0.5,0.055516029266111,"true"
"image-keyboard-response",253,299508,"0.0-4.80-1.80","br0odq5aalqrfrd",71,"155.csv","","null","resources/maskTrios/L4BB.jpg","null","",NA,NA,NA,NA,""
"image-keyboard-response",254,300710,"0.0-4.80-2.80","br0odq5aalqrfrd",71,"155.csv","","null","resources/images/coin2.png","null","",NA,NA,NA,NA,""
"image-keyboard-response",255,301079,"0.0-4.81-0.81","br0odq5aalqrfrd",71,"155.csv","","366.6999999284744","resources/trios/L4T4A3.jpg","37","restless",0.7,0.5,0.5,0.918387745768809,"false"
"image-keyboard-response",256,301490,"0.0-4.81-1.81","br0odq5aalqrfrd",71,"155.csv","","null","resources/maskTrios/L4BB.jpg","null","",NA,NA,NA,NA,""
"image-keyboard-response",257,302719,"0.0-4.81-2.81","br0odq5aalqrfrd",71,"155.csv","","null","resources/images/fishbone.png","null","",NA,NA,NA,NA,""
"image-keyboard-response",258,303112,"0.0-4.82-0.82","br0odq5aalqrfrd",71,"155.csv","","391.10000002384186","resources/trios/L4T4A3.jpg","38","restless",0.7,0.5,0.4,0.614643232112196,"false"
"image-keyboard-response",259,303520,"0.0-4.82-1.82","br0odq5aalqrfrd",71,"155.csv","","null","resources/maskTrios/BT4B.jpg","null","",NA,NA,NA,NA,""
"image-keyboard-response",260,304730,"0.0-4.82-2.82","br0odq5aalqrfrd",71,"155.csv","","null","resources/images/fishbone.png","null","",NA,NA,NA,NA,""
"image-keyboard-response",261,305073,"0.0-4.83-0.83","br0odq5aalqrfrd",71,"155.csv","","341.7000000476837","resources/trios/L4T4A3.jpg","37","restless",0.7,0.5,0.4,0.240761374061625,"true"
"image-keyboard-response",262,305490,"0.0-4.83-1.83","br0odq5aalqrfrd",71,"155.csv","","null","resources/maskTrios/L4BB.jpg","null","",NA,NA,NA,NA,""
"image-keyboard-response",263,306700,"0.0-4.83-2.83","br0odq5aalqrfrd",71,"155.csv","","null","resources/images/coin2.png","null","",NA,NA,NA,NA,""
"image-keyboard-response",264,307131,"0.0-4.84-0.84","br0odq5aalqrfrd",71,"155.csv","","429.2999999523163","resources/trios/L4T4A3.jpg","37","restless",0.7,0.4,0.4,0.93500139798738,"false"
"image-keyboard-response",265,307540,"0.0-4.84-1.84","br0odq5aalqrfrd",71,"155.csv","","null","resources/maskTrios/L4BB.jpg","null","",NA,NA,NA,NA,""
"image-keyboard-response",266,308750,"0.0-4.84-2.84","br0odq5aalqrfrd",71,"155.csv","","null","resources/images/fishbone.png","null","",NA,NA,NA,NA,""
"image-keyboard-response",267,309072,"0.0-4.85-0.85","br0odq5aalqrfrd",71,"155.csv","","320.2999999523163","resources/trios/L4T4A3.jpg","38","restless",0.7,0.4,0.4,0.430084359781798,"false"
"image-keyboard-response",268,309480,"0.0-4.85-1.85","br0odq5aalqrfrd",71,"155.csv","","null","resources/maskTrios/BT4B.jpg","null","",NA,NA,NA,NA,""
"image-keyboard-response",269,310690,"0.0-4.85-2.85","br0odq5aalqrfrd",71,"155.csv","","null","resources/images/fishbone.png","null","",NA,NA,NA,NA,""
"image-keyboard-response",270,311004,"0.0-4.86-0.86","br0odq5aalqrfrd",71,"155.csv","","311.59999990463257","resources/trios/L4T4A3.jpg","37","restless",0.7,0.3,0.4,0.0441055688355996,"true"
"image-keyboard-response",271,311410,"0.0-4.86-1.86","br0odq5aalqrfrd",71,"155.csv","","null","resources/maskTrios/L4BB.jpg","null","",NA,NA,NA,NA,""
"image-keyboard-response",272,312615,"0.0-4.86-2.86","br0odq5aalqrfrd",71,"155.csv","","null","resources/images/coin2.png","null","",NA,NA,NA,NA,""
"image-keyboard-response",273,312970,"0.0-4.87-0.87","br0odq5aalqrfrd",71,"155.csv","","353.10000002384186","resources/trios/L4T4A3.jpg","37","restless",0.7,0.2,0.4,0.990284953528939,"false"
"image-keyboard-response",274,313380,"0.0-4.87-1.87","br0odq5aalqrfrd",71,"155.csv","","null","resources/maskTrios/L4BB.jpg","null","",NA,NA,NA,NA,""
"image-keyboard-response",275,314601,"0.0-4.87-2.87","br0odq5aalqrfrd",71,"155.csv","","null","resources/images/fishbone.png","null","",NA,NA,NA,NA,""
"image-keyboard-response",276,314920,"0.0-4.88-0.88","br0odq5aalqrfrd",71,"155.csv","","318.39999997615814","resources/trios/L4T4A3.jpg","38","restless",0.7,0.2,0.4,0.328465692324746,"false"
"image-keyboard-response",277,315330,"0.0-4.88-1.88","br0odq5aalqrfrd",71,"155.csv","","null","resources/maskTrios/BT4B.jpg","null","",NA,NA,NA,NA,""
"image-keyboard-response",278,316545,"0.0-4.88-2.88","br0odq5aalqrfrd",71,"155.csv","","null","resources/images/fishbone.png","null","",NA,NA,NA,NA,""
"image-keyboard-response",279,317930,"0.0-4.89-0.89","br0odq5aalqrfrd",71,"155.csv","","1383.1999999284744","resources/trios/L4T4A3.jpg","39","restless",0.7,0.2,0.4,0.966782765294218,"false"
"image-keyboard-response",280,318340,"0.0-4.89-1.89","br0odq5aalqrfrd",71,"155.csv","","null","resources/maskTrios/BBA3.jpg","null","",NA,NA,NA,NA,""
"image-keyboard-response",281,319550,"0.0-4.89-2.89","br0odq5aalqrfrd",71,"155.csv","","null","resources/images/fishbone.png","null","",NA,NA,NA,NA,""
"image-keyboard-response",282,319843,"0.0-4.90-0.90","br0odq5aalqrfrd",71,"155.csv","","290.89999997615814","resources/trios/L4T4A3.jpg","37","restless",0.7,0.2,0.3,0.114023060687932,"true"
"image-keyboard-response",283,320250,"0.0-4.90-1.90","br0odq5aalqrfrd",71,"155.csv","","null","resources/maskTrios/L4BB.jpg","null","",NA,NA,NA,NA,""
"image-keyboard-response",284,321460,"0.0-4.90-2.90","br0odq5aalqrfrd",71,"155.csv","","null","resources/images/coin2.png","null","",NA,NA,NA,NA,""
"image-keyboard-response",285,322218,"0.0-4.91-0.91","br0odq5aalqrfrd",71,"155.csv","","756.6999999284744","resources/trios/L4T4A3.jpg","37","restless",0.7,0.2,0.3,0.335807357073688,"true"
"image-keyboard-response",286,322630,"0.0-4.91-1.91","br0odq5aalqrfrd",71,"155.csv","","null","resources/maskTrios/L4BB.jpg","null","",NA,NA,NA,NA,""
"image-keyboard-response",287,323840,"0.0-4.91-2.91","br0odq5aalqrfrd",71,"155.csv","","null","resources/images/coin2.png","null","",NA,NA,NA,NA,""
"image-keyboard-response",288,324298,"0.0-4.92-0.92","br0odq5aalqrfrd",71,"155.csv","","455.7999999523163","resources/trios/L4T4A3.jpg","37","restless",0.7,0.2,0.4,0.43425246722718,"true"
"image-keyboard-response",289,324700,"0.0-4.92-1.92","br0odq5aalqrfrd",71,"155.csv","","null","resources/maskTrios/L4BB.jpg","null","",NA,NA,NA,NA,""
"image-keyboard-response",290,325910,"0.0-4.92-2.92","br0odq5aalqrfrd",71,"155.csv","","null","resources/images/coin2.png","null","",NA,NA,NA,NA,""
"image-keyboard-response",291,326222,"0.0-4.93-0.93","br0odq5aalqrfrd",71,"155.csv","","310.39999997615814","resources/trios/L4T4A3.jpg","37","restless",0.7,0.2,0.4,0.553426962323345,"true"
"image-keyboard-response",292,326635,"0.0-4.93-1.93","br0odq5aalqrfrd",71,"155.csv","","null","resources/maskTrios/L4BB.jpg","null","",NA,NA,NA,NA,""
"image-keyboard-response",293,327840,"0.0-4.93-2.93","br0odq5aalqrfrd",71,"155.csv","","null","resources/images/coin2.png","null","",NA,NA,NA,NA,""
"image-keyboard-response",294,328226,"0.0-4.94-0.94","br0odq5aalqrfrd",71,"155.csv","","385","resources/trios/L4T4A3.jpg","37","restless",0.7,0.2,0.5,0.534429483121305,"true"
"image-keyboard-response",295,328629,"0.0-4.94-1.94","br0odq5aalqrfrd",71,"155.csv","","null","resources/maskTrios/L4BB.jpg","null","",NA,NA,NA,NA,""
"image-keyboard-response",296,329840,"0.0-4.94-2.94","br0odq5aalqrfrd",71,"155.csv","","null","resources/images/coin2.png","null","",NA,NA,NA,NA,""
"image-keyboard-response",297,330190,"0.0-4.95-0.95","br0odq5aalqrfrd",71,"155.csv","","348.7999999523163","resources/trios/L4T4A3.jpg","37","restless",0.6,0.2,0.5,0.152466180819608,"true"
"image-keyboard-response",298,330600,"0.0-4.95-1.95","br0odq5aalqrfrd",71,"155.csv","","null","resources/maskTrios/L4BB.jpg","null","",NA,NA,NA,NA,""
"image-keyboard-response",299,331830,"0.0-4.95-2.95","br0odq5aalqrfrd",71,"155.csv","","null","resources/images/coin2.png","null","",NA,NA,NA,NA,""
"image-keyboard-response",300,332143,"0.0-4.96-0.96","br0odq5aalqrfrd",71,"155.csv","","310.89999997615814","resources/trios/L4T4A3.jpg","37","restless",0.6,0.2,0.5,0.484554765192903,"true"
"image-keyboard-response",301,332550,"0.0-4.96-1.96","br0odq5aalqrfrd",71,"155.csv","","null","resources/maskTrios/L4BB.jpg","null","",NA,NA,NA,NA,""
"image-keyboard-response",302,333763,"0.0-4.96-2.96","br0odq5aalqrfrd",71,"155.csv","","null","resources/images/coin2.png","null","",NA,NA,NA,NA,""
"image-keyboard-response",303,334114,"0.0-4.97-0.97","br0odq5aalqrfrd",71,"155.csv","","349.1999999284744","resources/trios/L4T4A3.jpg","37","restless",0.6,0.2,0.5,0.276401207063241,"true"
"image-keyboard-response",304,334520,"0.0-4.97-1.97","br0odq5aalqrfrd",71,"155.csv","","null","resources/maskTrios/L4BB.jpg","null","",NA,NA,NA,NA,""
"image-keyboard-response",305,335728,"0.0-4.97-2.97","br0odq5aalqrfrd",71,"155.csv","","null","resources/images/coin2.png","null","",NA,NA,NA,NA,""
"image-keyboard-response",306,336010,"0.0-4.98-0.98","br0odq5aalqrfrd",71,"155.csv","","280.39999997615814","resources/trios/L4T4A3.jpg","37","restless",0.6,0.2,0.5,0.0894150163416585,"true"
"image-keyboard-response",307,336420,"0.0-4.98-1.98","br0odq5aalqrfrd",71,"155.csv","","null","resources/maskTrios/L4BB.jpg","null","",NA,NA,NA,NA,""
"image-keyboard-response",308,337641,"0.0-4.98-2.98","br0odq5aalqrfrd",71,"155.csv","","null","resources/images/coin2.png","null","",NA,NA,NA,NA,""
"image-keyboard-response",309,337945,"0.0-4.99-0.99","br0odq5aalqrfrd",71,"155.csv","","303.10000002384186","resources/trios/L4T4A3.jpg","37","restless",0.6,0.2,0.5,0.4220313627094,"true"
"image-keyboard-response",310,338350,"0.0-4.99-1.99","br0odq5aalqrfrd",71,"155.csv","","null","resources/maskTrios/L4BB.jpg","null","",NA,NA,NA,NA,""
"image-keyboard-response",311,339558,"0.0-4.99-2.99","br0odq5aalqrfrd",71,"155.csv","","null","resources/images/coin2.png","null","",NA,NA,NA,NA,""
"image-keyboard-response",312,339913,"0.0-4.100-0.100","br0odq5aalqrfrd",71,"155.csv","","353.39999997615814","resources/trios/L4T4A3.jpg","37","restless",0.6,0.2,0.5,0.733141395159185,"false"
"image-keyboard-response",313,340320,"0.0-4.100-1.100","br0odq5aalqrfrd",71,"155.csv","","null","resources/maskTrios/L4BB.jpg","null","",NA,NA,NA,NA,""
"image-keyboard-response",314,341530,"0.0-4.100-2.100","br0odq5aalqrfrd",71,"155.csv","","null","resources/images/fishbone.png","null","",NA,NA,NA,NA,""
"image-keyboard-response",315,341893,"0.0-4.101-0.101","br0odq5aalqrfrd",71,"155.csv","","361.7000000476837","resources/trios/L4T4A3.jpg","38","restless",0.6,0.2,0.5,0.36226755410231,"false"
"image-keyboard-response",316,342300,"0.0-4.101-1.101","br0odq5aalqrfrd",71,"155.csv","","null","resources/maskTrios/BT4B.jpg","null","",NA,NA,NA,NA,""
"image-keyboard-response",317,343520,"0.0-4.101-2.101","br0odq5aalqrfrd",71,"155.csv","","null","resources/images/fishbone.png","null","",NA,NA,NA,NA,""
"image-keyboard-response",318,343799,"0.0-4.102-0.102","br0odq5aalqrfrd",71,"155.csv","","277.90000009536743","resources/trios/L4T4A3.jpg","37","restless",0.6,0.2,0.5,0.431753435427261,"true"
"image-keyboard-response",319,344210,"0.0-4.102-1.102","br0odq5aalqrfrd",71,"155.csv","","null","resources/maskTrios/L4BB.jpg","null","",NA,NA,NA,NA,""
"image-keyboard-response",320,345420,"0.0-4.102-2.102","br0odq5aalqrfrd",71,"155.csv","","null","resources/images/coin2.png","null","",NA,NA,NA,NA,""
"image-keyboard-response",321,345839,"0.0-4.103-0.103","br0odq5aalqrfrd",71,"155.csv","","417.60000002384186","resources/trios/L4T4A3.jpg","37","restless",0.6,0.2,0.5,0.484153348100494,"true"
"image-keyboard-response",322,346250,"0.0-4.103-1.103","br0odq5aalqrfrd",71,"155.csv","","null","resources/maskTrios/L4BB.jpg","null","",NA,NA,NA,NA,""
"image-keyboard-response",323,347460,"0.0-4.103-2.103","br0odq5aalqrfrd",71,"155.csv","","null","resources/images/coin2.png","null","",NA,NA,NA,NA,""
"image-keyboard-response",324,347864,"0.0-4.104-0.104","br0odq5aalqrfrd",71,"155.csv","","402.89999997615814","resources/trios/L4T4A3.jpg","37","restless",0.6,0.2,0.5,0.0967018443022523,"true"
"image-keyboard-response",325,348270,"0.0-4.104-1.104","br0odq5aalqrfrd",71,"155.csv","","null","resources/maskTrios/L4BB.jpg","null","",NA,NA,NA,NA,""
"image-keyboard-response",326,349490,"0.0-4.104-2.104","br0odq5aalqrfrd",71,"155.csv","","null","resources/images/coin2.png","null","",NA,NA,NA,NA,""
"image-keyboard-response",327,349813,"0.0-4.105-0.105","br0odq5aalqrfrd",71,"155.csv","","322","resources/trios/L4T4A3.jpg","37","restless",0.6,0.2,0.5,0.729611374540389,"false"
"image-keyboard-response",328,350221,"0.0-4.105-1.105","br0odq5aalqrfrd",71,"155.csv","","null","resources/maskTrios/L4BB.jpg","null","",NA,NA,NA,NA,""
"image-keyboard-response",329,351431,"0.0-4.105-2.105","br0odq5aalqrfrd",71,"155.csv","","null","resources/images/fishbone.png","null","",NA,NA,NA,NA,""
"image-keyboard-response",330,351689,"0.0-4.106-0.106","br0odq5aalqrfrd",71,"155.csv","","257.2999999523163","resources/trios/L4T4A3.jpg","38","restless",0.6,0.1,0.5,0.923010065404297,"false"
"image-keyboard-response",331,352100,"0.0-4.106-1.106","br0odq5aalqrfrd",71,"155.csv","","null","resources/maskTrios/BT4B.jpg","null","",NA,NA,NA,NA,""
"image-keyboard-response",332,353310,"0.0-4.106-2.106","br0odq5aalqrfrd",71,"155.csv","","null","resources/images/fishbone.png","null","",NA,NA,NA,NA,""
"image-keyboard-response",333,353326,"0.0-4.107-0.107","br0odq5aalqrfrd",71,"155.csv","","14.099999904632568","resources/trios/L4T4A3.jpg","37","restless",0.6,0.1,0.5,0.888354607570181,"false"
"image-keyboard-response",334,353731,"0.0-4.107-1.107","br0odq5aalqrfrd",71,"155.csv","","null","resources/maskTrios/L4BB.jpg","null","",NA,NA,NA,NA,""
"image-keyboard-response",335,354950,"0.0-4.107-2.107","br0odq5aalqrfrd",71,"155.csv","","null","resources/images/fishbone.png","null","",NA,NA,NA,NA,""
"image-keyboard-response",336,355242,"0.0-4.108-0.108","br0odq5aalqrfrd",71,"155.csv","","289.89999997615814","resources/trios/L4T4A3.jpg","38","restless",0.6,0.2,0.5,0.140084968920716,"true"
"image-keyboard-response",337,355661,"0.0-4.108-1.108","br0odq5aalqrfrd",71,"155.csv","","null","resources/maskTrios/BT4B.jpg","null","",NA,NA,NA,NA,""
"image-keyboard-response",338,356871,"0.0-4.108-2.108","br0odq5aalqrfrd",71,"155.csv","","null","resources/images/coin2.png","null","",NA,NA,NA,NA,""
"image-keyboard-response",339,357208,"0.0-4.109-0.109","br0odq5aalqrfrd",71,"155.csv","","335.39999997615814","resources/trios/L4T4A3.jpg","38","restless",0.6,0.2,0.5,0.541975871426312,"false"
"image-keyboard-response",340,357611,"0.0-4.109-1.109","br0odq5aalqrfrd",71,"155.csv","","null","resources/maskTrios/BT4B.jpg","null","",NA,NA,NA,NA,""
"image-keyboard-response",341,358821,"0.0-4.109-2.109","br0odq5aalqrfrd",71,"155.csv","","null","resources/images/fishbone.png","null","",NA,NA,NA,NA,""
"image-keyboard-response",342,359849,"0.0-4.110-0.110","br0odq5aalqrfrd",71,"155.csv","","1026","resources/trios/L4T4A3.jpg","37","restless",0.7,0.3,0.5,0.910423899511872,"false"
"image-keyboard-response",343,360251,"0.0-4.110-1.110","br0odq5aalqrfrd",71,"155.csv","","null","resources/maskTrios/L4BB.jpg","null","",NA,NA,NA,NA,""
"image-keyboard-response",344,361471,"0.0-4.110-2.110","br0odq5aalqrfrd",71,"155.csv","","null","resources/images/fishbone.png","null","",NA,NA,NA,NA,""
"image-keyboard-response",345,361750,"0.0-4.111-0.111","br0odq5aalqrfrd",71,"155.csv","","277.60000002384186","resources/trios/L4T4A3.jpg","38","restless",0.7,0.3,0.5,0.391556128554979,"false"
"image-keyboard-response",346,362161,"0.0-4.111-1.111","br0odq5aalqrfrd",71,"155.csv","","null","resources/maskTrios/BT4B.jpg","null","",NA,NA,NA,NA,""
"image-keyboard-response",347,363371,"0.0-4.111-2.111","br0odq5aalqrfrd",71,"155.csv","","null","resources/images/fishbone.png","null","",NA,NA,NA,NA,""
"image-keyboard-response",348,363741,"0.0-4.112-0.112","br0odq5aalqrfrd",71,"155.csv","","368.90000009536743","resources/trios/L4T4A3.jpg","38","restless",0.7,0.3,0.5,0.209131618089406,"true"
"image-keyboard-response",349,364151,"0.0-4.112-1.112","br0odq5aalqrfrd",71,"155.csv","","null","resources/maskTrios/BT4B.jpg","null","",NA,NA,NA,NA,""
"image-keyboard-response",350,365361,"0.0-4.112-2.112","br0odq5aalqrfrd",71,"155.csv","","null","resources/images/coin2.png","null","",NA,NA,NA,NA,""
"image-keyboard-response",351,366181,"0.0-4.113-0.113","br0odq5aalqrfrd",71,"155.csv","","818.5","resources/trios/L4T4A3.jpg","38","restless",0.7,0.3,0.5,0.802485711303453,"false"
"image-keyboard-response",352,366592,"0.0-4.113-1.113","br0odq5aalqrfrd",71,"155.csv","","null","resources/maskTrios/BT4B.jpg","null","",NA,NA,NA,NA,""
"image-keyboard-response",353,367821,"0.0-4.113-2.113","br0odq5aalqrfrd",71,"155.csv","","null","resources/images/fishbone.png","null","",NA,NA,NA,NA,""
"image-keyboard-response",354,368920,"0.0-4.114-0.114","br0odq5aalqrfrd",71,"155.csv","","1097.3999999761581","resources/trios/L4T4A3.jpg","39","restless",0.7,0.3,0.4,0.577560942239818,"false"
"image-keyboard-response",355,369332,"0.0-4.114-1.114","br0odq5aalqrfrd",71,"155.csv","","null","resources/maskTrios/BBA3.jpg","null","",NA,NA,NA,NA,""
"image-keyboard-response",356,370551,"0.0-4.114-2.114","br0odq5aalqrfrd",71,"155.csv","","null","resources/images/fishbone.png","null","",NA,NA,NA,NA,""
"image-keyboard-response",357,370883,"0.0-4.115-0.115","br0odq5aalqrfrd",71,"155.csv","","330.5","resources/trios/L4T4A3.jpg","37","restless",0.7,0.3,0.4,0.88635258815548,"false"
"image-keyboard-response",358,371291,"0.0-4.115-1.115","br0odq5aalqrfrd",71,"155.csv","","null","resources/maskTrios/L4BB.jpg","null","",NA,NA,NA,NA,""
"image-keyboard-response",359,372501,"0.0-4.115-2.115","br0odq5aalqrfrd",71,"155.csv","","null","resources/images/fishbone.png","null","",NA,NA,NA,NA,""
"image-keyboard-response",360,373051,"0.0-4.116-0.116","br0odq5aalqrfrd",71,"155.csv","","547.6000000238419","resources/trios/L4T4A3.jpg","38","restless",0.7,0.3,0.4,0.940634100435537,"false"
"image-keyboard-response",361,373459,"0.0-4.116-1.116","br0odq5aalqrfrd",71,"155.csv","","null","resources/maskTrios/BT4B.jpg","null","",NA,NA,NA,NA,""
"image-keyboard-response",362,374690,"0.0-4.116-2.116","br0odq5aalqrfrd",71,"155.csv","","null","resources/images/fishbone.png","null","",NA,NA,NA,NA,""
"image-keyboard-response",363,375754,"0.0-4.117-0.117","br0odq5aalqrfrd",71,"155.csv","","1062.5","resources/trios/L4T4A3.jpg","39","restless",0.7,0.3,0.4,0.798911443078979,"false"
"image-keyboard-response",364,376159,"0.0-4.117-1.117","br0odq5aalqrfrd",71,"155.csv","","null","resources/maskTrios/BBA3.jpg","null","",NA,NA,NA,NA,""
"image-keyboard-response",365,377361,"0.0-4.117-2.117","br0odq5aalqrfrd",71,"155.csv","","null","resources/images/fishbone.png","null","",NA,NA,NA,NA,""
"image-keyboard-response",366,377890,"0.0-4.118-0.118","br0odq5aalqrfrd",71,"155.csv","","527.2999999523163","resources/trios/L4T4A3.jpg","38","restless",0.7,0.3,0.4,0.836580221915195,"false"
"image-keyboard-response",367,378301,"0.0-4.118-1.118","br0odq5aalqrfrd",71,"155.csv","","null","resources/maskTrios/BT4B.jpg","null","",NA,NA,NA,NA,""
"image-keyboard-response",368,379511,"0.0-4.118-2.118","br0odq5aalqrfrd",71,"155.csv","","null","resources/images/fishbone.png","null","",NA,NA,NA,NA,""
"image-keyboard-response",369,379807,"0.0-4.119-0.119","br0odq5aalqrfrd",71,"155.csv","","294.3000000715256","resources/trios/L4T4A3.jpg","37","restless",0.7,0.3,0.4,0.193846535565855,"true"
"image-keyboard-response",370,380211,"0.0-4.119-1.119","br0odq5aalqrfrd",71,"155.csv","","null","resources/maskTrios/L4BB.jpg","null","",NA,NA,NA,NA,""
"image-keyboard-response",371,381441,"0.0-4.119-2.119","br0odq5aalqrfrd",71,"155.csv","","null","resources/images/coin2.png","null","",NA,NA,NA,NA,""
"image-keyboard-response",372,381822,"0.0-4.120-0.120","br0odq5aalqrfrd",71,"155.csv","","379.5","resources/trios/L4T4A3.jpg","37","restless",0.7,0.3,0.4,0.335659490442511,"true"
"image-keyboard-response",373,382231,"0.0-4.120-1.120","br0odq5aalqrfrd",71,"155.csv","","null","resources/maskTrios/L4BB.jpg","null","",NA,NA,NA,NA,""
"image-keyboard-response",374,383441,"0.0-4.120-2.120","br0odq5aalqrfrd",71,"155.csv","","null","resources/images/coin2.png","null","",NA,NA,NA,NA,""
"image-keyboard-response",375,383969,"0.0-4.121-0.121","br0odq5aalqrfrd",71,"155.csv","","526.7000000476837","resources/trios/L4T4A3.jpg","37","restless",0.7,0.3,0.4,0.662165252288634,"true"
"image-keyboard-response",376,384381,"0.0-4.121-1.121","br0odq5aalqrfrd",71,"155.csv","","null","resources/maskTrios/L4BB.jpg","null","",NA,NA,NA,NA,""
"image-keyboard-response",377,385591,"0.0-4.121-2.121","br0odq5aalqrfrd",71,"155.csv","","null","resources/images/coin2.png","null","",NA,NA,NA,NA,""
"image-keyboard-response",378,385969,"0.0-4.122-0.122","br0odq5aalqrfrd",71,"155.csv","","376.60000002384186","resources/trios/L4T4A3.jpg","37","restless",0.7,0.2,0.4,0.496665652171145,"true"
"image-keyboard-response",379,386371,"0.0-4.122-1.122","br0odq5aalqrfrd",71,"155.csv","","null","resources/maskTrios/L4BB.jpg","null","",NA,NA,NA,NA,""
"image-keyboard-response",380,387591,"0.0-4.122-2.122","br0odq5aalqrfrd",71,"155.csv","","null","resources/images/coin2.png","null","",NA,NA,NA,NA,""
"image-keyboard-response",381,388011,"0.0-4.123-0.123","br0odq5aalqrfrd",71,"155.csv","","419.2000000476837","resources/trios/L4T4A3.jpg","37","restless",0.7,0.2,0.4,0.352308003594191,"true"
"image-keyboard-response",382,388421,"0.0-4.123-1.123","br0odq5aalqrfrd",71,"155.csv","","null","resources/maskTrios/L4BB.jpg","null","",NA,NA,NA,NA,""
"image-keyboard-response",383,389631,"0.0-4.123-2.123","br0odq5aalqrfrd",71,"155.csv","","null","resources/images/coin2.png","null","",NA,NA,NA,NA,""
"image-keyboard-response",384,389828,"0.0-4.124-0.124","br0odq5aalqrfrd",71,"155.csv","","195.19999992847443","resources/trios/L4T4A3.jpg","37","restless",0.7,0.2,0.4,0.928497572002896,"false"
"image-keyboard-response",385,390231,"0.0-4.124-1.124","br0odq5aalqrfrd",71,"155.csv","","null","resources/maskTrios/L4BB.jpg","null","",NA,NA,NA,NA,""
"image-keyboard-response",386,391441,"0.0-4.124-2.124","br0odq5aalqrfrd",71,"155.csv","","null","resources/images/fishbone.png","null","",NA,NA,NA,NA,""
"image-keyboard-response",387,391919,"0.0-4.125-0.125","br0odq5aalqrfrd",71,"155.csv","","476.39999997615814","resources/trios/L4T4A3.jpg","39","restless",0.7,0.2,0.4,0.847872636325983,"false"
"image-keyboard-response",388,392321,"0.0-4.125-1.125","br0odq5aalqrfrd",71,"155.csv","","null","resources/maskTrios/BBA3.jpg","null","",NA,NA,NA,NA,""
"image-keyboard-response",389,393531,"0.0-4.125-2.125","br0odq5aalqrfrd",71,"155.csv","","null","resources/images/fishbone.png","null","",NA,NA,NA,NA,""
"image-keyboard-response",390,393747,"0.0-4.126-0.126","br0odq5aalqrfrd",71,"155.csv","","214.5","resources/trios/L4T4A3.jpg","38","restless",0.7,0.2,0.4,0.389959905347448,"false"
"image-keyboard-response",391,394151,"0.0-4.126-1.126","br0odq5aalqrfrd",71,"155.csv","","null","resources/maskTrios/BT4B.jpg","null","",NA,NA,NA,NA,""
"image-keyboard-response",392,395361,"0.0-4.126-2.126","br0odq5aalqrfrd",71,"155.csv","","null","resources/images/fishbone.png","null","",NA,NA,NA,NA,""
"image-keyboard-response",393,395606,"0.0-4.127-0.127","br0odq5aalqrfrd",71,"155.csv","","243.70000004768372","resources/trios/L4T4A3.jpg","37","restless",0.7,0.2,0.4,0.0985918590188057,"true"
"image-keyboard-response",394,396011,"0.0-4.127-1.127","br0odq5aalqrfrd",71,"155.csv","","null","resources/maskTrios/L4BB.jpg","null","",NA,NA,NA,NA,""
"image-keyboard-response",395,397221,"0.0-4.127-2.127","br0odq5aalqrfrd",71,"155.csv","","null","resources/images/coin2.png","null","",NA,NA,NA,NA,""
"image-keyboard-response",396,397513,"0.0-4.128-0.128","br0odq5aalqrfrd",71,"155.csv","","290.89999997615814","resources/trios/L4T4A3.jpg","37","restless",0.7,0.2,0.4,0.584049895655961,"true"
"image-keyboard-response",397,397921,"0.0-4.128-1.128","br0odq5aalqrfrd",71,"155.csv","","null","resources/maskTrios/L4BB.jpg","null","",NA,NA,NA,NA,""
"image-keyboard-response",398,399145,"0.0-4.128-2.128","br0odq5aalqrfrd",71,"155.csv","","null","resources/images/coin2.png","null","",NA,NA,NA,NA,""
"image-keyboard-response",399,399628,"0.0-4.129-0.129","br0odq5aalqrfrd",71,"155.csv","","481.1999999284744","resources/trios/L4T4A3.jpg","37","restless",0.7,0.2,0.4,0.680859314069555,"true"
"image-keyboard-response",400,400034,"0.0-4.129-1.129","br0odq5aalqrfrd",71,"155.csv","","null","resources/maskTrios/L4BB.jpg","null","",NA,NA,NA,NA,""
"image-keyboard-response",401,401241,"0.0-4.129-2.129","br0odq5aalqrfrd",71,"155.csv","","null","resources/images/coin2.png","null","",NA,NA,NA,NA,""
"image-keyboard-response",402,401603,"0.0-4.130-0.130","br0odq5aalqrfrd",71,"155.csv","","360.7000000476837","resources/trios/L4T4A3.jpg","37","restless",0.7,0.2,0.4,0.259135789523743,"true"
"image-keyboard-response",403,402011,"0.0-4.130-1.130","br0odq5aalqrfrd",71,"155.csv","","null","resources/maskTrios/L4BB.jpg","null","",NA,NA,NA,NA,""
"image-keyboard-response",404,403221,"0.0-4.130-2.130","br0odq5aalqrfrd",71,"155.csv","","null","resources/images/coin2.png","null","",NA,NA,NA,NA,""
"image-keyboard-response",405,403660,"0.0-4.131-0.131","br0odq5aalqrfrd",71,"155.csv","","437.39999997615814","resources/trios/L4T4A3.jpg","37","restless",0.7,0.2,0.4,0.830201301820495,"false"
"image-keyboard-response",406,404071,"0.0-4.131-1.131","br0odq5aalqrfrd",71,"155.csv","","null","resources/maskTrios/L4BB.jpg","null","",NA,NA,NA,NA,""
"image-keyboard-response",407,405290,"0.0-4.131-2.131","br0odq5aalqrfrd",71,"155.csv","","null","resources/images/fishbone.png","null","",NA,NA,NA,NA,""
"image-keyboard-response",408,406366,"0.0-4.132-0.132","br0odq5aalqrfrd",71,"155.csv","","1074.3000000715256","resources/trios/L4T4A3.jpg","39","restless",0.7,0.2,0.5,0.2900565593615,"true"
"image-keyboard-response",409,406771,"0.0-4.132-1.132","br0odq5aalqrfrd",71,"155.csv","","null","resources/maskTrios/BBA3.jpg","null","",NA,NA,NA,NA,""
"image-keyboard-response",410,407981,"0.0-4.132-2.132","br0odq5aalqrfrd",71,"155.csv","","null","resources/images/coin2.png","null","",NA,NA,NA,NA,""
"image-keyboard-response",411,408508,"0.0-4.133-0.133","br0odq5aalqrfrd",71,"155.csv","","525.5","resources/trios/L4T4A3.jpg","39","restless",0.7,0.2,0.5,0.959737660082763,"false"
"image-keyboard-response",412,408910,"0.0-4.133-1.133","br0odq5aalqrfrd",71,"155.csv","","null","resources/maskTrios/BBA3.jpg","null","",NA,NA,NA,NA,""
"image-keyboard-response",413,410121,"0.0-4.133-2.133","br0odq5aalqrfrd",71,"155.csv","","null","resources/images/fishbone.png","null","",NA,NA,NA,NA,""
"image-keyboard-response",414,410464,"0.0-4.134-0.134","br0odq5aalqrfrd",71,"155.csv","","341.39999997615814","resources/trios/L4T4A3.jpg","38","restless",0.7,0.2,0.5,0.604478104275198,"false"
"image-keyboard-response",415,410868,"0.0-4.134-1.134","br0odq5aalqrfrd",71,"155.csv","","null","resources/maskTrios/BT4B.jpg","null","",NA,NA,NA,NA,""
"image-keyboard-response",416,412099,"0.0-4.134-2.134","br0odq5aalqrfrd",71,"155.csv","","null","resources/images/fishbone.png","null","",NA,NA,NA,NA,""
"image-keyboard-response",417,412984,"0.0-4.135-0.135","br0odq5aalqrfrd",71,"155.csv","","883.7000000476837","resources/trios/L4T4A3.jpg","39","restless",0.7,0.3,0.5,0.196554557717866,"true"
"image-keyboard-response",418,413391,"0.0-4.135-1.135","br0odq5aalqrfrd",71,"155.csv","","null","resources/maskTrios/BBA3.jpg","null","",NA,NA,NA,NA,""
"image-keyboard-response",419,414601,"0.0-4.135-2.135","br0odq5aalqrfrd",71,"155.csv","","null","resources/images/coin2.png","null","",NA,NA,NA,NA,""
"image-keyboard-response",420,414886,"0.0-4.136-0.136","br0odq5aalqrfrd",71,"155.csv","","283.7000000476837","resources/trios/L4T4A3.jpg","39","restless",0.7,0.3,0.5,0.726923625043298,"false"
"image-keyboard-response",421,415291,"0.0-4.136-1.136","br0odq5aalqrfrd",71,"155.csv","","null","resources/maskTrios/BBA3.jpg","null","",NA,NA,NA,NA,""
"image-keyboard-response",422,416502,"0.0-4.136-2.136","br0odq5aalqrfrd",71,"155.csv","","null","resources/images/fishbone.png","null","",NA,NA,NA,NA,""
"image-keyboard-response",423,416839,"0.0-4.137-0.137","br0odq5aalqrfrd",71,"155.csv","","335.10000002384186","resources/trios/L4T4A3.jpg","37","restless",0.7,0.3,0.5,0.770084946103257,"false"
"image-keyboard-response",424,417251,"0.0-4.137-1.137","br0odq5aalqrfrd",71,"155.csv","","null","resources/maskTrios/L4BB.jpg","null","",NA,NA,NA,NA,""
"image-keyboard-response",425,418462,"0.0-4.137-2.137","br0odq5aalqrfrd",71,"155.csv","","null","resources/images/fishbone.png","null","",NA,NA,NA,NA,""
"image-keyboard-response",426,418777,"0.0-4.138-0.138","br0odq5aalqrfrd",71,"155.csv","","313.40000009536743","resources/trios/L4T4A3.jpg","38","restless",0.7,0.3,0.5,0.200460061144572,"true"
"image-keyboard-response",427,419182,"0.0-4.138-1.138","br0odq5aalqrfrd",71,"155.csv","","null","resources/maskTrios/BT4B.jpg","null","",NA,NA,NA,NA,""
"image-keyboard-response",428,420391,"0.0-4.138-2.138","br0odq5aalqrfrd",71,"155.csv","","null","resources/images/coin2.png","null","",NA,NA,NA,NA,""
"image-keyboard-response",429,420582,"0.0-4.139-0.139","br0odq5aalqrfrd",71,"155.csv","","189.5","resources/trios/L4T4A3.jpg","38","restless",0.7,0.3,0.5,0.258202144777611,"true"
"image-keyboard-response",430,420991,"0.0-4.139-1.139","br0odq5aalqrfrd",71,"155.csv","","null","resources/maskTrios/BT4B.jpg","null","",NA,NA,NA,NA,""
"image-keyboard-response",431,422199,"0.0-4.139-2.139","br0odq5aalqrfrd",71,"155.csv","","null","resources/images/coin2.png","null","",NA,NA,NA,NA,""
"image-keyboard-response",432,423199,"0.0-4.140-0.140","br0odq5aalqrfrd",71,"155.csv","","999.1000000238419","resources/trios/L4T4A3.jpg","38","restless",0.7,0.3,0.5,0.581507054841538,"false"
"image-keyboard-response",433,423617,"0.0-4.140-1.140","br0odq5aalqrfrd",71,"155.csv","","null","resources/maskTrios/BT4B.jpg","null","",NA,NA,NA,NA,""
"image-keyboard-response",434,424852,"0.0-4.140-2.140","br0odq5aalqrfrd",71,"155.csv","","null","resources/images/fishbone.png","null","",NA,NA,NA,NA,""
"image-keyboard-response",435,426360,"0.0-4.141-0.141","br0odq5aalqrfrd",71,"155.csv","","1506.7999999523163","resources/trios/L4T4A3.jpg","37","restless",0.7,0.3,0.5,0.650853279258887,"true"
"image-keyboard-response",436,426767,"0.0-4.141-1.141","br0odq5aalqrfrd",71,"155.csv","","null","resources/maskTrios/L4BB.jpg","null","",NA,NA,NA,NA,""
"image-keyboard-response",437,427971,"0.0-4.141-2.141","br0odq5aalqrfrd",71,"155.csv","","null","resources/images/coin2.png","null","",NA,NA,NA,NA,""
"image-keyboard-response",438,428434,"0.0-4.142-0.142","br0odq5aalqrfrd",71,"155.csv","","460.5","resources/trios/L4T4A3.jpg","37","restless",0.7,0.3,0.5,0.638697990526621,"true"
"image-keyboard-response",439,428842,"0.0-4.142-1.142","br0odq5aalqrfrd",71,"155.csv","","null","resources/maskTrios/L4BB.jpg","null","",NA,NA,NA,NA,""
"image-keyboard-response",440,430051,"0.0-4.142-2.142","br0odq5aalqrfrd",71,"155.csv","","null","resources/images/coin2.png","null","",NA,NA,NA,NA,""
"image-keyboard-response",441,430443,"0.0-4.143-0.143","br0odq5aalqrfrd",71,"155.csv","","390.5","resources/trios/L4T4A3.jpg","37","restless",0.7,0.3,0.5,0.432903290390777,"true"
"image-keyboard-response",442,430852,"0.0-4.143-1.143","br0odq5aalqrfrd",71,"155.csv","","null","resources/maskTrios/L4BB.jpg","null","",NA,NA,NA,NA,""
"image-keyboard-response",443,432082,"0.0-4.143-2.143","br0odq5aalqrfrd",71,"155.csv","","null","resources/images/coin2.png","null","",NA,NA,NA,NA,""
"image-keyboard-response",444,432692,"0.0-4.144-0.144","br0odq5aalqrfrd",71,"155.csv","","608.8000000715256","resources/trios/L4T4A3.jpg","37","restless",0.7,0.3,0.5,0.611794918333498,"true"
"image-keyboard-response",445,433101,"0.0-4.144-1.144","br0odq5aalqrfrd",71,"155.csv","","null","resources/maskTrios/L4BB.jpg","null","",NA,NA,NA,NA,""
"image-keyboard-response",446,434311,"0.0-4.144-2.144","br0odq5aalqrfrd",71,"155.csv","","null","resources/images/coin2.png","null","",NA,NA,NA,NA,""
"image-keyboard-response",447,434676,"0.0-4.145-0.145","br0odq5aalqrfrd",71,"155.csv","","362.39999997615814","resources/trios/L4T4A3.jpg","37","restless",0.6,0.3,0.5,0.0808070519151638,"true"
"image-keyboard-response",448,435082,"0.0-4.145-1.145","br0odq5aalqrfrd",71,"155.csv","","null","resources/maskTrios/L4BB.jpg","null","",NA,NA,NA,NA,""
"image-keyboard-response",449,436292,"0.0-4.145-2.145","br0odq5aalqrfrd",71,"155.csv","","null","resources/images/coin2.png","null","",NA,NA,NA,NA,""
"image-keyboard-response",450,436492,"0.0-4.146-0.146","br0odq5aalqrfrd",71,"155.csv","","197.80000007152557","resources/trios/L4T4A3.jpg","37","restless",0.6,0.3,0.5,0.558035329393939,"true"
"image-keyboard-response",451,436902,"0.0-4.146-1.146","br0odq5aalqrfrd",71,"155.csv","","null","resources/maskTrios/L4BB.jpg","null","",NA,NA,NA,NA,""
"image-keyboard-response",452,438111,"0.0-4.146-2.146","br0odq5aalqrfrd",71,"155.csv","","null","resources/images/coin2.png","null","",NA,NA,NA,NA,""
"image-keyboard-response",453,438379,"0.0-4.147-0.147","br0odq5aalqrfrd",71,"155.csv","","266.2999999523163","resources/trios/L4T4A3.jpg","37","restless",0.6,0.3,0.5,0.828341594269935,"false"
"image-keyboard-response",454,438782,"0.0-4.147-1.147","br0odq5aalqrfrd",71,"155.csv","","null","resources/maskTrios/L4BB.jpg","null","",NA,NA,NA,NA,""
"image-keyboard-response",455,439991,"0.0-4.147-2.147","br0odq5aalqrfrd",71,"155.csv","","null","resources/images/fishbone.png","null","",NA,NA,NA,NA,""
"image-keyboard-response",456,440287,"0.0-4.148-0.148","br0odq5aalqrfrd",71,"155.csv","","295","resources/trios/L4T4A3.jpg","39","restless",0.5,0.3,0.5,0.863746981157354,"false"
"image-keyboard-response",457,440692,"0.0-4.148-1.148","br0odq5aalqrfrd",71,"155.csv","","null","resources/maskTrios/BBA3.jpg","null","",NA,NA,NA,NA,""
"image-keyboard-response",458,441911,"0.0-4.148-2.148","br0odq5aalqrfrd",71,"155.csv","","null","resources/images/fishbone.png","null","",NA,NA,NA,NA,""
"image-keyboard-response",459,443106,"0.0-4.149-0.149","br0odq5aalqrfrd",71,"155.csv","","1193.3000000715256","resources/trios/L4T4A3.jpg","39","restless",0.5,0.3,0.5,0.652090779642077,"false"
"image-keyboard-response",460,443522,"0.0-4.149-1.149","br0odq5aalqrfrd",71,"155.csv","","null","resources/maskTrios/BBA3.jpg","null","",NA,NA,NA,NA,""
"image-keyboard-response",461,444742,"0.0-4.149-2.149","br0odq5aalqrfrd",71,"155.csv","","null","resources/images/fishbone.png","null","",NA,NA,NA,NA,""
"image-keyboard-response",462,445428,"0.0-4.150-0.150","br0odq5aalqrfrd",71,"155.csv","","684.5","resources/trios/L4T4A3.jpg","37","restless",0.5,0.3,0.5,0.475158122035085,"true"
"image-keyboard-response",463,445832,"0.0-4.150-1.150","br0odq5aalqrfrd",71,"155.csv","","null","resources/maskTrios/L4BB.jpg","null","",NA,NA,NA,NA,""
"image-keyboard-response",464,447042,"0.0-4.150-2.150","br0odq5aalqrfrd",71,"155.csv","","null","resources/images/coin2.png","null","",NA,NA,NA,NA,""
"image-keyboard-response",465,447248,"0.0-4.151-0.151","br0odq5aalqrfrd",71,"155.csv","","205","resources/trios/L4T4A3.jpg","37","restless",0.5,0.3,0.5,0.435962949121877,"true"
"image-keyboard-response",466,447657,"0.0-4.151-1.151","br0odq5aalqrfrd",71,"155.csv","","null","resources/maskTrios/L4BB.jpg","null","",NA,NA,NA,NA,""
"image-keyboard-response",467,448872,"0.0-4.151-2.151","br0odq5aalqrfrd",71,"155.csv","","null","resources/images/coin2.png","null","",NA,NA,NA,NA,""
"image-keyboard-response",468,449199,"0.0-4.152-0.152","br0odq5aalqrfrd",71,"155.csv","","325.2999999523163","resources/trios/L4T4A3.jpg","37","restless",0.5,0.3,0.5,0.866515686748352,"false"
"image-keyboard-response",469,449601,"0.0-4.152-1.152","br0odq5aalqrfrd",71,"155.csv","","null","resources/maskTrios/L4BB.jpg","null","",NA,NA,NA,NA,""
"image-keyboard-response",470,450832,"0.0-4.152-2.152","br0odq5aalqrfrd",71,"155.csv","","null","resources/images/fishbone.png","null","",NA,NA,NA,NA,""
"image-keyboard-response",471,451091,"0.0-4.153-0.153","br0odq5aalqrfrd",71,"155.csv","","257.5","resources/trios/L4T4A3.jpg","38","restless",0.5,0.3,0.5,0.143617925832549,"true"
"image-keyboard-response",472,451502,"0.0-4.153-1.153","br0odq5aalqrfrd",71,"155.csv","","null","resources/maskTrios/BT4B.jpg","null","",NA,NA,NA,NA,""
"image-keyboard-response",473,452712,"0.0-4.153-2.153","br0odq5aalqrfrd",71,"155.csv","","null","resources/images/coin2.png","null","",NA,NA,NA,NA,""
"image-keyboard-response",474,453045,"0.0-4.154-0.154","br0odq5aalqrfrd",71,"155.csv","","332.2999999523163","resources/trios/L4T4A3.jpg","38","restless",0.5,0.4,0.5,0.577263197960805,"false"
"image-keyboard-response",475,453449,"0.0-4.154-1.154","br0odq5aalqrfrd",71,"155.csv","","null","resources/maskTrios/BT4B.jpg","null","",NA,NA,NA,NA,""
"image-keyboard-response",476,454651,"0.0-4.154-2.154","br0odq5aalqrfrd",71,"155.csv","","null","resources/images/fishbone.png","null","",NA,NA,NA,NA,""
"image-keyboard-response",477,455256,"0.0-4.155-0.155","br0odq5aalqrfrd",71,"155.csv","","603.7000000476837","resources/trios/L4T4A3.jpg","37","restless",0.5,0.4,0.4,0.508598724470072,"false"
"image-keyboard-response",478,455662,"0.0-4.155-1.155","br0odq5aalqrfrd",71,"155.csv","","null","resources/maskTrios/L4BB.jpg","null","",NA,NA,NA,NA,""
"image-keyboard-response",479,456892,"0.0-4.155-2.155","br0odq5aalqrfrd",71,"155.csv","","null","resources/images/fishbone.png","null","",NA,NA,NA,NA,""
"image-keyboard-response",480,457110,"0.0-4.156-0.156","br0odq5aalqrfrd",71,"155.csv","","216.10000002384186","resources/trios/L4T4A3.jpg","38","restless",0.5,0.4,0.4,0.466831608014654,"false"
"image-keyboard-response",481,457522,"0.0-4.156-1.156","br0odq5aalqrfrd",71,"155.csv","","null","resources/maskTrios/BT4B.jpg","null","",NA,NA,NA,NA,""
"image-keyboard-response",482,458742,"0.0-4.156-2.156","br0odq5aalqrfrd",71,"155.csv","","null","resources/images/fishbone.png","null","",NA,NA,NA,NA,""
"image-keyboard-response",483,459415,"0.0-4.157-0.157","br0odq5aalqrfrd",71,"155.csv","","671.5","resources/trios/L4T4A3.jpg","37","restless",0.4,0.4,0.4,0.0836159837156714,"true"
"image-keyboard-response",484,459821,"0.0-4.157-1.157","br0odq5aalqrfrd",71,"155.csv","","null","resources/maskTrios/L4BB.jpg","null","",NA,NA,NA,NA,""
"image-keyboard-response",485,461032,"0.0-4.157-2.157","br0odq5aalqrfrd",71,"155.csv","","null","resources/images/coin2.png","null","",NA,NA,NA,NA,""
"image-keyboard-response",486,461381,"0.0-4.158-0.158","br0odq5aalqrfrd",71,"155.csv","","348.60000002384186","resources/trios/L4T4A3.jpg","37","restless",0.4,0.4,0.4,0.588339664408372,"false"
"image-keyboard-response",487,461791,"0.0-4.158-1.158","br0odq5aalqrfrd",71,"155.csv","","null","resources/maskTrios/L4BB.jpg","null","",NA,NA,NA,NA,""
"image-keyboard-response",488,463022,"0.0-4.158-2.158","br0odq5aalqrfrd",71,"155.csv","","null","resources/images/fishbone.png","null","",NA,NA,NA,NA,""
"image-keyboard-response",489,463218,"0.0-4.159-0.159","br0odq5aalqrfrd",71,"155.csv","","195.20000004768372","resources/trios/L4T4A3.jpg","38","restless",0.4,0.4,0.4,0.0160272513423729,"true"
"image-keyboard-response",490,463622,"0.0-4.159-1.159","br0odq5aalqrfrd",71,"155.csv","","null","resources/maskTrios/BT4B.jpg","null","",NA,NA,NA,NA,""
"image-keyboard-response",491,464832,"0.0-4.159-2.159","br0odq5aalqrfrd",71,"155.csv","","null","resources/images/coin2.png","null","",NA,NA,NA,NA,""
"image-keyboard-response",492,465120,"0.0-4.160-0.160","br0odq5aalqrfrd",71,"155.csv","","286.6999999284744","resources/trios/L4T4A3.jpg","38","restless",0.4,0.4,0.4,0.0623571313946831,"true"
"image-keyboard-response",493,465522,"0.0-4.160-1.160","br0odq5aalqrfrd",71,"155.csv","","null","resources/maskTrios/BT4B.jpg","null","",NA,NA,NA,NA,""
"image-keyboard-response",494,466732,"0.0-4.160-2.160","br0odq5aalqrfrd",71,"155.csv","","null","resources/images/coin2.png","null","",NA,NA,NA,NA,""
"image-keyboard-response",495,467168,"0.0-4.161-0.161","br0odq5aalqrfrd",71,"155.csv","","434.7999999523163","resources/trios/L4T4A3.jpg","38","restless",0.4,0.4,0.4,0.299031666779353,"true"
"image-keyboard-response",496,467572,"0.0-4.161-1.161","br0odq5aalqrfrd",71,"155.csv","","null","resources/maskTrios/BT4B.jpg","null","",NA,NA,NA,NA,""
"image-keyboard-response",497,468802,"0.0-4.161-2.161","br0odq5aalqrfrd",71,"155.csv","","null","resources/images/coin2.png","null","",NA,NA,NA,NA,""
"image-keyboard-response",498,469068,"0.0-4.162-0.162","br0odq5aalqrfrd",71,"155.csv","","264.7999999523163","resources/trios/L4T4A3.jpg","38","restless",0.4,0.4,0.4,0.363719428448818,"true"
"image-keyboard-response",499,469472,"0.0-4.162-1.162","br0odq5aalqrfrd",71,"155.csv","","null","resources/maskTrios/BT4B.jpg","null","",NA,NA,NA,NA,""
"image-keyboard-response",500,470682,"0.0-4.162-2.162","br0odq5aalqrfrd",71,"155.csv","","null","resources/images/coin2.png","null","",NA,NA,NA,NA,""
"image-keyboard-response",501,471024,"0.0-4.163-0.163","br0odq5aalqrfrd",71,"155.csv","","340.89999997615814","resources/trios/L4T4A3.jpg","38","restless",0.4,0.4,0.4,0.558431960341209,"false"
"image-keyboard-response",502,471432,"0.0-4.163-1.163","br0odq5aalqrfrd",71,"155.csv","","null","resources/maskTrios/BT4B.jpg","null","",NA,NA,NA,NA,""
"image-keyboard-response",503,472640,"0.0-4.163-2.163","br0odq5aalqrfrd",71,"155.csv","","null","resources/images/fishbone.png","null","",NA,NA,NA,NA,""
"image-keyboard-response",504,472756,"0.0-4.164-0.164","br0odq5aalqrfrd",71,"155.csv","","115","resources/trios/L4T4A3.jpg","37","restless",0.4,0.4,0.4,0.934479183562252,"false"
"image-keyboard-response",505,473162,"0.0-4.164-1.164","br0odq5aalqrfrd",71,"155.csv","","null","resources/maskTrios/L4BB.jpg","null","",NA,NA,NA,NA,""
"image-keyboard-response",506,474382,"0.0-4.164-2.164","br0odq5aalqrfrd",71,"155.csv","","null","resources/images/fishbone.png","null","",NA,NA,NA,NA,""
"image-keyboard-response",507,474639,"0.0-4.165-0.165","br0odq5aalqrfrd",71,"155.csv","","255.79999995231628","resources/trios/L4T4A3.jpg","38","restless",0.4,0.5,0.4,0.458777280548208,"true"
"image-keyboard-response",508,475041,"0.0-4.165-1.165","br0odq5aalqrfrd",71,"155.csv","","null","resources/maskTrios/BT4B.jpg","null","",NA,NA,NA,NA,""
"image-keyboard-response",509,476250,"0.0-4.165-2.165","br0odq5aalqrfrd",71,"155.csv","","null","resources/images/coin2.png","null","",NA,NA,NA,NA,""
"image-keyboard-response",510,476437,"0.0-4.166-0.166","br0odq5aalqrfrd",71,"155.csv","","185.29999995231628","resources/trios/L4T4A3.jpg","38","restless",0.4,0.5,0.4,0.403440954466149,"true"
"image-keyboard-response",511,476843,"0.0-4.166-1.166","br0odq5aalqrfrd",71,"155.csv","","null","resources/maskTrios/BT4B.jpg","null","",NA,NA,NA,NA,""
"image-keyboard-response",512,478053,"0.0-4.166-2.166","br0odq5aalqrfrd",71,"155.csv","","null","resources/images/coin2.png","null","",NA,NA,NA,NA,""
"image-keyboard-response",513,479527,"0.0-4.167-0.167","br0odq5aalqrfrd",71,"155.csv","","1473.2000000476837","resources/trios/L4T4A3.jpg","37","restless",0.5,0.5,0.4,0.0876236684420673,"true"
"image-keyboard-response",514,479932,"0.0-4.167-1.167","br0odq5aalqrfrd",71,"155.csv","","null","resources/maskTrios/L4BB.jpg","null","",NA,NA,NA,NA,""
"image-keyboard-response",515,481138,"0.0-4.167-2.167","br0odq5aalqrfrd",71,"155.csv","","null","resources/images/coin2.png","null","",NA,NA,NA,NA,""
"image-keyboard-response",516,481436,"0.0-4.168-0.168","br0odq5aalqrfrd",71,"155.csv","","296.2999999523163","resources/trios/L4T4A3.jpg","37","restless",0.5,0.5,0.4,0.901901591328069,"false"
"image-keyboard-response",517,481842,"0.0-4.168-1.168","br0odq5aalqrfrd",71,"155.csv","","null","resources/maskTrios/L4BB.jpg","null","",NA,NA,NA,NA,""
"image-keyboard-response",518,483053,"0.0-4.168-2.168","br0odq5aalqrfrd",71,"155.csv","","null","resources/images/fishbone.png","null","",NA,NA,NA,NA,""
"image-keyboard-response",519,483154,"0.0-4.169-0.169","br0odq5aalqrfrd",71,"155.csv","","99.60000002384186","resources/trios/L4T4A3.jpg","38","restless",0.5,0.5,0.4,0.758562867542667,"false"
"image-keyboard-response",520,483562,"0.0-4.169-1.169","br0odq5aalqrfrd",71,"155.csv","","null","resources/maskTrios/BT4B.jpg","null","",NA,NA,NA,NA,""
"image-keyboard-response",521,484793,"0.0-4.169-2.169","br0odq5aalqrfrd",71,"155.csv","","null","resources/images/fishbone.png","null","",NA,NA,NA,NA,""
"image-keyboard-response",522,484899,"0.0-4.170-0.170","br0odq5aalqrfrd",71,"155.csv","","105.09999990463257","resources/trios/L4T4A3.jpg","37","restless",0.5,0.5,0.4,0.243936265884457,"true"
"image-keyboard-response",523,485302,"0.0-4.170-1.170","br0odq5aalqrfrd",71,"155.csv","","null","resources/maskTrios/L4BB.jpg","null","",NA,NA,NA,NA,""
"image-keyboard-response",524,486513,"0.0-4.170-2.170","br0odq5aalqrfrd",71,"155.csv","","null","resources/images/coin2.png","null","",NA,NA,NA,NA,""
"image-keyboard-response",525,486572,"0.0-4.171-0.171","br0odq5aalqrfrd",71,"155.csv","","57.700000047683716","resources/trios/L4T4A3.jpg","37","restless",0.5,0.5,0.4,0.689987006099605,"false"
"image-keyboard-response",526,486992,"0.0-4.171-1.171","br0odq5aalqrfrd",71,"155.csv","","null","resources/maskTrios/L4BB.jpg","null","",NA,NA,NA,NA,""
"image-keyboard-response",527,488202,"0.0-4.171-2.171","br0odq5aalqrfrd",71,"155.csv","","null","resources/images/fishbone.png","null","",NA,NA,NA,NA,""
"image-keyboard-response",528,488483,"0.0-4.172-0.172","br0odq5aalqrfrd",71,"155.csv","","278.7999999523163","resources/trios/L4T4A3.jpg","39","restless",0.5,0.5,0.4,0.843983175553382,"false"
"image-keyboard-response",529,488892,"0.0-4.172-1.172","br0odq5aalqrfrd",71,"155.csv","","null","resources/maskTrios/BBA3.jpg","null","",NA,NA,NA,NA,""
"image-keyboard-response",530,490101,"0.0-4.172-2.172","br0odq5aalqrfrd",71,"155.csv","","null","resources/images/fishbone.png","null","",NA,NA,NA,NA,""
"image-keyboard-response",531,490275,"0.0-4.173-0.173","br0odq5aalqrfrd",71,"155.csv","","172.80000007152557","resources/trios/L4T4A3.jpg","38","restless",0.5,0.5,0.4,0.44260094829378,"true"
"image-keyboard-response",532,490683,"0.0-4.173-1.173","br0odq5aalqrfrd",71,"155.csv","","null","resources/maskTrios/BT4B.jpg","null","",NA,NA,NA,NA,""
"image-keyboard-response",533,491892,"0.0-4.173-2.173","br0odq5aalqrfrd",71,"155.csv","","null","resources/images/coin2.png","null","",NA,NA,NA,NA,""
"image-keyboard-response",534,492204,"0.0-4.174-0.174","br0odq5aalqrfrd",71,"155.csv","","310.5","resources/trios/L4T4A3.jpg","38","restless",0.5,0.6,0.4,0.601976863401065,"false"
"image-keyboard-response",535,492613,"0.0-4.174-1.174","br0odq5aalqrfrd",71,"155.csv","","null","resources/maskTrios/BT4B.jpg","null","",NA,NA,NA,NA,""
"image-keyboard-response",536,493823,"0.0-4.174-2.174","br0odq5aalqrfrd",71,"155.csv","","null","resources/images/fishbone.png","null","",NA,NA,NA,NA,""
"image-keyboard-response",537,494033,"0.0-4.175-0.175","br0odq5aalqrfrd",71,"155.csv","","208.69999992847443","resources/trios/L4T4A3.jpg","39","restless",0.5,0.6,0.5,0.549234042957249,"false"
"image-keyboard-response",538,494442,"0.0-4.175-1.175","br0odq5aalqrfrd",71,"155.csv","","null","resources/maskTrios/BBA3.jpg","null","",NA,NA,NA,NA,""
"image-keyboard-response",539,495652,"0.0-4.175-2.175","br0odq5aalqrfrd",71,"155.csv","","null","resources/images/fishbone.png","null","",NA,NA,NA,NA,""
"image-keyboard-response",540,495864,"0.0-4.176-0.176","br0odq5aalqrfrd",71,"155.csv","","209.60000002384186","resources/trios/L4T4A3.jpg","37","restless",0.5,0.6,0.5,0.433304704089146,"true"
"image-keyboard-response",541,496272,"0.0-4.176-1.176","br0odq5aalqrfrd",71,"155.csv","","null","resources/maskTrios/L4BB.jpg","null","",NA,NA,NA,NA,""
"image-keyboard-response",542,497481,"0.0-4.176-2.176","br0odq5aalqrfrd",71,"155.csv","","null","resources/images/coin2.png","null","",NA,NA,NA,NA,""
"image-keyboard-response",543,497835,"0.0-4.177-0.177","br0odq5aalqrfrd",71,"155.csv","","352.2999999523163","resources/trios/L4T4A3.jpg","37","restless",0.5,0.6,0.5,0.551682773924722,"false"
"image-keyboard-response",544,498243,"0.0-4.177-1.177","br0odq5aalqrfrd",71,"155.csv","","null","resources/maskTrios/L4BB.jpg","null","",NA,NA,NA,NA,""
"image-keyboard-response",545,499448,"0.0-4.177-2.177","br0odq5aalqrfrd",71,"155.csv","","null","resources/images/fishbone.png","null","",NA,NA,NA,NA,""
"image-keyboard-response",546,499686,"0.0-4.178-0.178","br0odq5aalqrfrd",71,"155.csv","","236.90000009536743","resources/trios/L4T4A3.jpg","38","restless",0.5,0.6,0.5,0.977626536602838,"false"
"image-keyboard-response",547,500093,"0.0-4.178-1.178","br0odq5aalqrfrd",71,"155.csv","","null","resources/maskTrios/BT4B.jpg","null","",NA,NA,NA,NA,""
"image-keyboard-response",548,501322,"0.0-4.178-2.178","br0odq5aalqrfrd",71,"155.csv","","null","resources/images/fishbone.png","null","",NA,NA,NA,NA,""
"image-keyboard-response",549,501485,"0.0-4.179-0.179","br0odq5aalqrfrd",71,"155.csv","","161","resources/trios/L4T4A3.jpg","38","restless",0.5,0.6,0.5,0.0254746381313691,"true"
"image-keyboard-response",550,501893,"0.0-4.179-1.179","br0odq5aalqrfrd",71,"155.csv","","null","resources/maskTrios/BT4B.jpg","null","",NA,NA,NA,NA,""
"image-keyboard-response",551,503102,"0.0-4.179-2.179","br0odq5aalqrfrd",71,"155.csv","","null","resources/images/coin2.png","null","",NA,NA,NA,NA,""
"image-keyboard-response",552,503507,"0.0-4.180-0.180","br0odq5aalqrfrd",71,"155.csv","","403.39999997615814","resources/trios/L4T4A3.jpg","38","restless",0.5,0.6,0.5,0.783527471790298,"false"
"image-keyboard-response",553,503913,"0.0-4.180-1.180","br0odq5aalqrfrd",71,"155.csv","","null","resources/maskTrios/BT4B.jpg","null","",NA,NA,NA,NA,""
"image-keyboard-response",554,505123,"0.0-4.180-2.180","br0odq5aalqrfrd",71,"155.csv","","null","resources/images/fishbone.png","null","",NA,NA,NA,NA,""
"image-keyboard-response",555,506037,"0.0-4.181-0.181","br0odq5aalqrfrd",71,"155.csv","","911.6000000238419","resources/trios/L4T4A3.jpg","37","restless",0.5,0.6,0.5,0.297022345908504,"true"
"image-keyboard-response",556,506442,"0.0-4.181-1.181","br0odq5aalqrfrd",71,"155.csv","","null","resources/maskTrios/L4BB.jpg","null","",NA,NA,NA,NA,""
"image-keyboard-response",557,507652,"0.0-4.181-2.181","br0odq5aalqrfrd",71,"155.csv","","null","resources/images/coin2.png","null","",NA,NA,NA,NA,""
"image-keyboard-response",558,508368,"0.0-4.182-0.182","br0odq5aalqrfrd",71,"155.csv","","714.5","resources/trios/L4T4A3.jpg","37","restless",0.5,0.6,0.5,0.141483373174028,"true"
"image-keyboard-response",559,508773,"0.0-4.182-1.182","br0odq5aalqrfrd",71,"155.csv","","null","resources/maskTrios/L4BB.jpg","null","",NA,NA,NA,NA,""
"image-keyboard-response",560,509982,"0.0-4.182-2.182","br0odq5aalqrfrd",71,"155.csv","","null","resources/images/coin2.png","null","",NA,NA,NA,NA,""
"image-keyboard-response",561,510506,"0.0-4.183-0.183","br0odq5aalqrfrd",71,"155.csv","","521.7999999523163","resources/trios/L4T4A3.jpg","37","restless",0.5,0.7,0.5,0.431432593976051,"true"
"image-keyboard-response",562,510912,"0.0-4.183-1.183","br0odq5aalqrfrd",71,"155.csv","","null","resources/maskTrios/L4BB.jpg","null","",NA,NA,NA,NA,""
"image-keyboard-response",563,512133,"0.0-4.183-2.183","br0odq5aalqrfrd",71,"155.csv","","null","resources/images/coin2.png","null","",NA,NA,NA,NA,""
"image-keyboard-response",564,512476,"0.0-4.184-0.184","br0odq5aalqrfrd",71,"155.csv","","341.2999999523163","resources/trios/L4T4A3.jpg","37","restless",0.5,0.7,0.5,0.270744552405269,"true"
"image-keyboard-response",565,512883,"0.0-4.184-1.184","br0odq5aalqrfrd",71,"155.csv","","null","resources/maskTrios/L4BB.jpg","null","",NA,NA,NA,NA,""
"image-keyboard-response",566,514102,"0.0-4.184-2.184","br0odq5aalqrfrd",71,"155.csv","","null","resources/images/coin2.png","null","",NA,NA,NA,NA,""
"image-keyboard-response",567,514378,"0.0-4.185-0.185","br0odq5aalqrfrd",71,"155.csv","","274.5","resources/trios/L4T4A3.jpg","37","restless",0.6,0.7,0.5,0.496578786996562,"true"
"image-keyboard-response",568,514783,"0.0-4.185-1.185","br0odq5aalqrfrd",71,"155.csv","","null","resources/maskTrios/L4BB.jpg","null","",NA,NA,NA,NA,""
"image-keyboard-response",569,515992,"0.0-4.185-2.185","br0odq5aalqrfrd",71,"155.csv","","null","resources/images/coin2.png","null","",NA,NA,NA,NA,""
"image-keyboard-response",570,516491,"0.0-4.186-0.186","br0odq5aalqrfrd",71,"155.csv","","497","resources/trios/L4T4A3.jpg","37","restless",0.6,0.7,0.5,0.783635443467715,"false"
"image-keyboard-response",571,516893,"0.0-4.186-1.186","br0odq5aalqrfrd",71,"155.csv","","null","resources/maskTrios/L4BB.jpg","null","",NA,NA,NA,NA,""
"image-keyboard-response",572,518102,"0.0-4.186-2.186","br0odq5aalqrfrd",71,"155.csv","","null","resources/images/fishbone.png","null","",NA,NA,NA,NA,""
"image-keyboard-response",573,518293,"0.0-4.187-0.187","br0odq5aalqrfrd",71,"155.csv","","188.70000004768372","resources/trios/L4T4A3.jpg","39","restless",0.6,0.7,0.5,0.505024786953861,"false"
"image-keyboard-response",574,518703,"0.0-4.187-1.187","br0odq5aalqrfrd",71,"155.csv","","null","resources/maskTrios/BBA3.jpg","null","",NA,NA,NA,NA,""
"image-keyboard-response",575,519923,"0.0-4.187-2.187","br0odq5aalqrfrd",71,"155.csv","","null","resources/images/fishbone.png","null","",NA,NA,NA,NA,""
"image-keyboard-response",576,520332,"0.0-4.188-0.188","br0odq5aalqrfrd",71,"155.csv","","407.7999999523163","resources/trios/L4T4A3.jpg","38","restless",0.5,0.7,0.5,0.0357541247847524,"true"
"image-keyboard-response",577,520742,"0.0-4.188-1.188","br0odq5aalqrfrd",71,"155.csv","","null","resources/maskTrios/BT4B.jpg","null","",NA,NA,NA,NA,""
"image-keyboard-response",578,521952,"0.0-4.188-2.188","br0odq5aalqrfrd",71,"155.csv","","null","resources/images/coin2.png","null","",NA,NA,NA,NA,""
"image-keyboard-response",579,522478,"0.0-4.189-0.189","br0odq5aalqrfrd",71,"155.csv","","523.5","resources/trios/L4T4A3.jpg","38","restless",0.5,0.7,0.5,0.270712629021227,"true"
"image-keyboard-response",580,522882,"0.0-4.189-1.189","br0odq5aalqrfrd",71,"155.csv","","null","resources/maskTrios/BT4B.jpg","null","",NA,NA,NA,NA,""
"image-keyboard-response",581,524092,"0.0-4.189-2.189","br0odq5aalqrfrd",71,"155.csv","","null","resources/images/coin2.png","null","",NA,NA,NA,NA,""
"image-keyboard-response",582,525491,"0.0-4.190-0.190","br0odq5aalqrfrd",71,"155.csv","","1397.1000000238419","resources/trios/L4T4A3.jpg","38","restless",0.5,0.7,0.5,0.919709840229485,"false"
"image-keyboard-response",583,525898,"0.0-4.190-1.190","br0odq5aalqrfrd",71,"155.csv","","null","resources/maskTrios/BT4B.jpg","null","",NA,NA,NA,NA,""
"image-keyboard-response",584,527103,"0.0-4.190-2.190","br0odq5aalqrfrd",71,"155.csv","","null","resources/images/fishbone.png","null","",NA,NA,NA,NA,""
"image-keyboard-response",585,527456,"0.0-4.191-0.191","br0odq5aalqrfrd",71,"155.csv","","351.6999999284744","resources/trios/L4T4A3.jpg","39","restless",0.4,0.7,0.4,0.911996432382486,"false"
"image-keyboard-response",586,527863,"0.0-4.191-1.191","br0odq5aalqrfrd",71,"155.csv","","null","resources/maskTrios/BBA3.jpg","null","",NA,NA,NA,NA,""
"image-keyboard-response",587,529072,"0.0-4.191-2.191","br0odq5aalqrfrd",71,"155.csv","","null","resources/images/fishbone.png","null","",NA,NA,NA,NA,""
"image-keyboard-response",588,529646,"0.0-4.192-0.192","br0odq5aalqrfrd",71,"155.csv","","572.6000000238419","resources/trios/L4T4A3.jpg","37","restless",0.4,0.7,0.4,0.107156875207544,"true"
"image-keyboard-response",589,530053,"0.0-4.192-1.192","br0odq5aalqrfrd",71,"155.csv","","null","resources/maskTrios/L4BB.jpg","null","",NA,NA,NA,NA,""
"image-keyboard-response",590,531262,"0.0-4.192-2.192","br0odq5aalqrfrd",71,"155.csv","","null","resources/images/coin2.png","null","",NA,NA,NA,NA,""
"image-keyboard-response",591,532380,"0.0-4.193-0.193","br0odq5aalqrfrd",71,"155.csv","","1115.7999999523163","resources/trios/L4T4A3.jpg","37","restless",0.4,0.7,0.4,0.263122289664294,"true"
"image-keyboard-response",592,532793,"0.0-4.193-1.193","br0odq5aalqrfrd",71,"155.csv","","null","resources/maskTrios/L4BB.jpg","null","",NA,NA,NA,NA,""
"image-keyboard-response",593,534003,"0.0-4.193-2.193","br0odq5aalqrfrd",71,"155.csv","","null","resources/images/coin2.png","null","",NA,NA,NA,NA,""
"image-keyboard-response",594,534396,"0.0-4.194-0.194","br0odq5aalqrfrd",71,"155.csv","","391.89999997615814","resources/trios/L4T4A3.jpg","38","restless",0.4,0.7,0.4,0.302898746597083,"true"
"image-keyboard-response",595,534803,"0.0-4.194-1.194","br0odq5aalqrfrd",71,"155.csv","","null","resources/maskTrios/BT4B.jpg","null","",NA,NA,NA,NA,""
"image-keyboard-response",596,536012,"0.0-4.194-2.194","br0odq5aalqrfrd",71,"155.csv","","null","resources/images/coin2.png","null","",NA,NA,NA,NA,""
"image-keyboard-response",597,536388,"0.0-4.195-0.195","br0odq5aalqrfrd",71,"155.csv","","373.09999990463257","resources/trios/L4T4A3.jpg","38","restless",0.4,0.7,0.4,0.636823362561374,"true"
"image-keyboard-response",598,536792,"0.0-4.195-1.195","br0odq5aalqrfrd",71,"155.csv","","null","resources/maskTrios/BT4B.jpg","null","",NA,NA,NA,NA,""
"image-keyboard-response",599,538013,"0.0-4.195-2.195","br0odq5aalqrfrd",71,"155.csv","","null","resources/images/coin2.png","null","",NA,NA,NA,NA,""
"image-keyboard-response",600,538381,"0.0-4.196-0.196","br0odq5aalqrfrd",71,"155.csv","","366.7000000476837","resources/trios/L4T4A3.jpg","38","restless",0.4,0.7,0.4,0.0670016815891523,"true"
"image-keyboard-response",601,538794,"0.0-4.196-1.196","br0odq5aalqrfrd",71,"155.csv","","null","resources/maskTrios/BT4B.jpg","null","",NA,NA,NA,NA,""
"image-keyboard-response",602,540003,"0.0-4.196-2.196","br0odq5aalqrfrd",71,"155.csv","","null","resources/images/coin2.png","null","",NA,NA,NA,NA,""
"image-keyboard-response",603,540684,"0.0-4.197-0.197","br0odq5aalqrfrd",71,"155.csv","","678.5","resources/trios/L4T4A3.jpg","38","restless",0.4,0.7,0.5,0.136007921889021,"true"
"image-keyboard-response",604,541093,"0.0-4.197-1.197","br0odq5aalqrfrd",71,"155.csv","","null","resources/maskTrios/BT4B.jpg","null","",NA,NA,NA,NA,""
"image-keyboard-response",605,542304,"0.0-4.197-2.197","br0odq5aalqrfrd",71,"155.csv","","null","resources/images/coin2.png","null","",NA,NA,NA,NA,""
"image-keyboard-response",606,542786,"0.0-4.198-0.198","br0odq5aalqrfrd",71,"155.csv","","480.5","resources/trios/L4T4A3.jpg","37","restless",0.3,0.7,0.5,0.325851239399052,"false"
"image-keyboard-response",607,543194,"0.0-4.198-1.198","br0odq5aalqrfrd",71,"155.csv","","null","resources/maskTrios/L4BB.jpg","null","",NA,NA,NA,NA,""
"image-keyboard-response",608,544404,"0.0-4.198-2.198","br0odq5aalqrfrd",71,"155.csv","","null","resources/images/fishbone.png","null","",NA,NA,NA,NA,""
"image-keyboard-response",609,544508,"0.0-4.199-0.199","br0odq5aalqrfrd",71,"155.csv","","102.60000002384186","resources/trios/L4T4A3.jpg","38","restless",0.3,0.7,0.6,0.765894830218376,"false"
"image-keyboard-response",610,544914,"0.0-4.199-1.199","br0odq5aalqrfrd",71,"155.csv","","null","resources/maskTrios/BT4B.jpg","null","",NA,NA,NA,NA,""
"image-keyboard-response",611,546124,"0.0-4.199-2.199","br0odq5aalqrfrd",71,"155.csv","","null","resources/images/fishbone.png","null","",NA,NA,NA,NA,""
"survey-text",612,625688,"0.0-5.0","br0odq5aalqrfrd",71,"155.csv","","79559.39999997616","","","",NA,NA,NA,NA,""
