"trial_type","trial_index","time_elapsed","internal_node_id","subject","participantCode","walkNumber","success","rt","stimulus","key_press","test_part","leftProb","midProb","rightProb","generatedNum","correct"
"pavlovia",0,825,"0.0-0.0","4z6db74p8xzyshe",596,"81.csv","","","","","",NA,NA,NA,NA,""
"fullscreen",1,11477,"0.0-1.0","4z6db74p8xzyshe",596,"81.csv","true","","","","",NA,NA,NA,NA,""
"survey-html-form",2,248678,"0.0-2.0","4z6db74p8xzyshe",596,"81.csv","","237193.5","","","",NA,NA,NA,NA,""
"image-keyboard-response",3,263608,"0.0-3.0-0.0","4z6db74p8xzyshe",596,"81.csv","","14927.100000023842","resources/images/parrot_nobg.png","13","",NA,NA,NA,NA,""
"image-keyboard-response",4,266624,"0.0-3.0-1.0","4z6db74p8xzyshe",596,"81.csv","","null","resources/image_sets/111.png","null","",NA,NA,NA,NA,""
"image-keyboard-response",5,276120,"0.0-3.0-2.0","4z6db74p8xzyshe",596,"81.csv","","9494.5","resources/image_sets/left_highlight.png","37","",NA,NA,NA,NA,""
"image-keyboard-response",6,278941,"0.0-3.0-3.0","4z6db74p8xzyshe",596,"81.csv","","2819.5","resources/image_sets/mid_highlight.png","38","",NA,NA,NA,NA,""
"image-keyboard-response",7,280377,"0.0-3.0-4.0","4z6db74p8xzyshe",596,"81.csv","","1435.3999999761581","resources/image_sets/right_highlight.png","39","",NA,NA,NA,NA,""
"image-keyboard-response",8,282438,"0.0-3.0-5.0","4z6db74p8xzyshe",596,"81.csv","","2059.699999988079","resources/image_sets/111.png","13","",NA,NA,NA,NA,""
"image-keyboard-response",9,287071,"0.0-3.0-6.0","4z6db74p8xzyshe",596,"81.csv","","4630.299999952316","resources/images/coin2.png","13","",NA,NA,NA,NA,""
"image-keyboard-response",10,289609,"0.0-3.0-7.0","4z6db74p8xzyshe",596,"81.csv","","2537.099999964237","resources/images/fishbone.png","13","",NA,NA,NA,NA,""
"html-keyboard-response",11,295254,"0.0-3.0-8.0","4z6db74p8xzyshe",596,"81.csv","","5643.899999976158","<p>You can track your coin total on the top right of your screen. </p><p>At the end of your journey you will be directed to a survey, so please click on the link before exiting the task</p><p>Press Enter to begin</p>","13","",NA,NA,NA,NA,""
"image-keyboard-response",12,296635,"0.0-4.0-0.0","4z6db74p8xzyshe",596,"81.csv","","1379.300000011921","resources/trios/L4T2A2.jpg","37","restless",0.9,0.7,0.3,0.550628271005646,"true"
"image-keyboard-response",13,297048,"0.0-4.0-1.0","4z6db74p8xzyshe",596,"81.csv","","null","resources/maskTrios/L4BB.jpg","null","",NA,NA,NA,NA,""
"image-keyboard-response",14,298258,"0.0-4.0-2.0","4z6db74p8xzyshe",596,"81.csv","","null","resources/images/coin2.png","null","",NA,NA,NA,NA,""
"image-keyboard-response",15,301251,"0.0-4.1-0.1","4z6db74p8xzyshe",596,"81.csv","","2991.199999988079","resources/trios/L4T2A2.jpg","38","restless",0.9,0.7,0.3,0.376284126285008,"true"
"image-keyboard-response",16,301668,"0.0-4.1-1.1","4z6db74p8xzyshe",596,"81.csv","","null","resources/maskTrios/BT2B.jpg","null","",NA,NA,NA,NA,""
"image-keyboard-response",17,302879,"0.0-4.1-2.1","4z6db74p8xzyshe",596,"81.csv","","null","resources/images/coin2.png","null","",NA,NA,NA,NA,""
"image-keyboard-response",18,303214,"0.0-4.2-0.2","4z6db74p8xzyshe",596,"81.csv","","334.10000002384186","resources/trios/L4T2A2.jpg","39","restless",0.9,0.7,0.3,0.791179097219255,"false"
"image-keyboard-response",19,303632,"0.0-4.2-1.2","4z6db74p8xzyshe",596,"81.csv","","null","resources/maskTrios/BBA2.jpg","null","",NA,NA,NA,NA,""
"image-keyboard-response",20,304834,"0.0-4.2-2.2","4z6db74p8xzyshe",596,"81.csv","","null","resources/images/fishbone.png","null","",NA,NA,NA,NA,""
"image-keyboard-response",21,305547,"0.0-4.3-0.3","4z6db74p8xzyshe",596,"81.csv","","711","resources/trios/L4T2A2.jpg","37","restless",0.9,0.7,0.3,0.997522546884652,"false"
"image-keyboard-response",22,305955,"0.0-4.3-1.3","4z6db74p8xzyshe",596,"81.csv","","null","resources/maskTrios/L4BB.jpg","null","",NA,NA,NA,NA,""
"image-keyboard-response",23,307159,"0.0-4.3-2.3","4z6db74p8xzyshe",596,"81.csv","","null","resources/images/fishbone.png","null","",NA,NA,NA,NA,""
"image-keyboard-response",24,307627,"0.0-4.4-0.4","4z6db74p8xzyshe",596,"81.csv","","466","resources/trios/L4T2A2.jpg","38","restless",0.9,0.7,0.3,0.175829194635573,"true"
"image-keyboard-response",25,308035,"0.0-4.4-1.4","4z6db74p8xzyshe",596,"81.csv","","null","resources/maskTrios/BT2B.jpg","null","",NA,NA,NA,NA,""
"image-keyboard-response",26,309252,"0.0-4.4-2.4","4z6db74p8xzyshe",596,"81.csv","","null","resources/images/coin2.png","null","",NA,NA,NA,NA,""
"image-keyboard-response",27,310257,"0.0-4.5-0.5","4z6db74p8xzyshe",596,"81.csv","","1003.1999999880791","resources/trios/L4T2A2.jpg","38","restless",0.9,0.7,0.3,0.739618268555708,"false"
"image-keyboard-response",28,310662,"0.0-4.5-1.5","4z6db74p8xzyshe",596,"81.csv","","null","resources/maskTrios/BT2B.jpg","null","",NA,NA,NA,NA,""
"image-keyboard-response",29,311871,"0.0-4.5-2.5","4z6db74p8xzyshe",596,"81.csv","","null","resources/images/fishbone.png","null","",NA,NA,NA,NA,""
"image-keyboard-response",30,312863,"0.0-4.6-0.6","4z6db74p8xzyshe",596,"81.csv","","989.3000000119209","resources/trios/L4T2A2.jpg","39","restless",0.8,0.7,0.3,0.396806944122281,"false"
"image-keyboard-response",31,313275,"0.0-4.6-1.6","4z6db74p8xzyshe",596,"81.csv","","null","resources/maskTrios/BBA2.jpg","null","",NA,NA,NA,NA,""
"image-keyboard-response",32,314487,"0.0-4.6-2.6","4z6db74p8xzyshe",596,"81.csv","","null","resources/images/fishbone.png","null","",NA,NA,NA,NA,""
"image-keyboard-response",33,315117,"0.0-4.7-0.7","4z6db74p8xzyshe",596,"81.csv","","628.2000000476837","resources/trios/L4T2A2.jpg","38","restless",0.8,0.7,0.3,0.284174552581058,"true"
"image-keyboard-response",34,315524,"0.0-4.7-1.7","4z6db74p8xzyshe",596,"81.csv","","null","resources/maskTrios/BT2B.jpg","null","",NA,NA,NA,NA,""
"image-keyboard-response",35,316738,"0.0-4.7-2.7","4z6db74p8xzyshe",596,"81.csv","","null","resources/images/coin2.png","null","",NA,NA,NA,NA,""
"image-keyboard-response",36,317419,"0.0-4.8-0.8","4z6db74p8xzyshe",596,"81.csv","","679.6999999880791","resources/trios/L4T2A2.jpg","37","restless",0.8,0.7,0.3,0.697117009413951,"true"
"image-keyboard-response",37,317831,"0.0-4.8-1.8","4z6db74p8xzyshe",596,"81.csv","","null","resources/maskTrios/L4BB.jpg","null","",NA,NA,NA,NA,""
"image-keyboard-response",38,319034,"0.0-4.8-2.8","4z6db74p8xzyshe",596,"81.csv","","null","resources/images/coin2.png","null","",NA,NA,NA,NA,""
"image-keyboard-response",39,321990,"0.0-4.9-0.9","4z6db74p8xzyshe",596,"81.csv","","2953.900000035763","resources/trios/L4T2A2.jpg","39","restless",0.8,0.7,0.3,0.829709626760151,"false"
"image-keyboard-response",40,322392,"0.0-4.9-1.9","4z6db74p8xzyshe",596,"81.csv","","null","resources/maskTrios/BBA2.jpg","null","",NA,NA,NA,NA,""
"image-keyboard-response",41,323602,"0.0-4.9-2.9","4z6db74p8xzyshe",596,"81.csv","","null","resources/images/fishbone.png","null","",NA,NA,NA,NA,""
"image-keyboard-response",42,323989,"0.0-4.10-0.10","4z6db74p8xzyshe",596,"81.csv","","385.7999999523163","resources/trios/L4T2A2.jpg","38","restless",0.8,0.7,0.3,0.838568483702524,"false"
"image-keyboard-response",43,324405,"0.0-4.10-1.10","4z6db74p8xzyshe",596,"81.csv","","null","resources/maskTrios/BT2B.jpg","null","",NA,NA,NA,NA,""
"image-keyboard-response",44,325614,"0.0-4.10-2.10","4z6db74p8xzyshe",596,"81.csv","","null","resources/images/fishbone.png","null","",NA,NA,NA,NA,""
"image-keyboard-response",45,325906,"0.0-4.11-0.11","4z6db74p8xzyshe",596,"81.csv","","291.5","resources/trios/L4T2A2.jpg","37","restless",0.8,0.7,0.2,0.520165193905041,"true"
"image-keyboard-response",46,326314,"0.0-4.11-1.11","4z6db74p8xzyshe",596,"81.csv","","null","resources/maskTrios/L4BB.jpg","null","",NA,NA,NA,NA,""
"image-keyboard-response",47,327517,"0.0-4.11-2.11","4z6db74p8xzyshe",596,"81.csv","","null","resources/images/coin2.png","null","",NA,NA,NA,NA,""
"image-keyboard-response",48,328517,"0.0-4.12-0.12","4z6db74p8xzyshe",596,"81.csv","","997.5999999642372","resources/trios/L4T2A2.jpg","38","restless",0.8,0.7,0.2,0.320130839777413,"true"
"image-keyboard-response",49,328929,"0.0-4.12-1.12","4z6db74p8xzyshe",596,"81.csv","","null","resources/maskTrios/BT2B.jpg","null","",NA,NA,NA,NA,""
"image-keyboard-response",50,330137,"0.0-4.12-2.12","4z6db74p8xzyshe",596,"81.csv","","null","resources/images/coin2.png","null","",NA,NA,NA,NA,""
"image-keyboard-response",51,330420,"0.0-4.13-0.13","4z6db74p8xzyshe",596,"81.csv","","282","resources/trios/L4T2A2.jpg","37","restless",0.7,0.7,0.2,0.173981771639086,"true"
"image-keyboard-response",52,330833,"0.0-4.13-1.13","4z6db74p8xzyshe",596,"81.csv","","null","resources/maskTrios/L4BB.jpg","null","",NA,NA,NA,NA,""
"image-keyboard-response",53,332039,"0.0-4.13-2.13","4z6db74p8xzyshe",596,"81.csv","","null","resources/images/coin2.png","null","",NA,NA,NA,NA,""
"image-keyboard-response",54,334030,"0.0-4.14-0.14","4z6db74p8xzyshe",596,"81.csv","","1988.7999999523163","resources/trios/L4T2A2.jpg","39","restless",0.7,0.7,0.3,0.692072947278303,"false"
"image-keyboard-response",55,334441,"0.0-4.14-1.14","4z6db74p8xzyshe",596,"81.csv","","null","resources/maskTrios/BBA2.jpg","null","",NA,NA,NA,NA,""
"image-keyboard-response",56,335657,"0.0-4.14-2.14","4z6db74p8xzyshe",596,"81.csv","","null","resources/images/fishbone.png","null","",NA,NA,NA,NA,""
"image-keyboard-response",57,336264,"0.0-4.15-0.15","4z6db74p8xzyshe",596,"81.csv","","605.2000000476837","resources/trios/L4T2A2.jpg","38","restless",0.7,0.7,0.3,0.192791301057062,"true"
"image-keyboard-response",58,336665,"0.0-4.15-1.15","4z6db74p8xzyshe",596,"81.csv","","null","resources/maskTrios/BT2B.jpg","null","",NA,NA,NA,NA,""
"image-keyboard-response",59,337869,"0.0-4.15-2.15","4z6db74p8xzyshe",596,"81.csv","","null","resources/images/coin2.png","null","",NA,NA,NA,NA,""
"image-keyboard-response",60,338352,"0.0-4.16-0.16","4z6db74p8xzyshe",596,"81.csv","","481.2000000476837","resources/trios/L4T2A2.jpg","37","restless",0.7,0.7,0.4,0.738279727366697,"false"
"image-keyboard-response",61,338761,"0.0-4.16-1.16","4z6db74p8xzyshe",596,"81.csv","","null","resources/maskTrios/L4BB.jpg","null","",NA,NA,NA,NA,""
"image-keyboard-response",62,339963,"0.0-4.16-2.16","4z6db74p8xzyshe",596,"81.csv","","null","resources/images/fishbone.png","null","",NA,NA,NA,NA,""
"image-keyboard-response",63,340680,"0.0-4.17-0.17","4z6db74p8xzyshe",596,"81.csv","","715.1999999880791","resources/trios/L4T2A2.jpg","38","restless",0.7,0.7,0.4,0.715322090013533,"false"
"image-keyboard-response",64,341082,"0.0-4.17-1.17","4z6db74p8xzyshe",596,"81.csv","","null","resources/maskTrios/BT2B.jpg","null","",NA,NA,NA,NA,""
"image-keyboard-response",65,342290,"0.0-4.17-2.17","4z6db74p8xzyshe",596,"81.csv","","null","resources/images/fishbone.png","null","",NA,NA,NA,NA,""
"image-keyboard-response",66,343715,"0.0-4.18-0.18","4z6db74p8xzyshe",596,"81.csv","","1423.5999999642372","resources/trios/L4T2A2.jpg","37","restless",0.7,0.7,0.4,0.972283260338705,"false"
"image-keyboard-response",67,344126,"0.0-4.18-1.18","4z6db74p8xzyshe",596,"81.csv","","null","resources/maskTrios/L4BB.jpg","null","",NA,NA,NA,NA,""
"image-keyboard-response",68,345330,"0.0-4.18-2.18","4z6db74p8xzyshe",596,"81.csv","","null","resources/images/fishbone.png","null","",NA,NA,NA,NA,""
"image-keyboard-response",69,345712,"0.0-4.19-0.19","4z6db74p8xzyshe",596,"81.csv","","380.19999998807907","resources/trios/L4T2A2.jpg","38","restless",0.7,0.7,0.4,0.949995196167935,"false"
"image-keyboard-response",70,346118,"0.0-4.19-1.19","4z6db74p8xzyshe",596,"81.csv","","null","resources/maskTrios/BT2B.jpg","null","",NA,NA,NA,NA,""
"image-keyboard-response",71,347326,"0.0-4.19-2.19","4z6db74p8xzyshe",596,"81.csv","","null","resources/images/fishbone.png","null","",NA,NA,NA,NA,""
"image-keyboard-response",72,347592,"0.0-4.20-0.20","4z6db74p8xzyshe",596,"81.csv","","263.80000001192093","resources/trios/L4T2A2.jpg","39","restless",0.8,0.7,0.4,0.144814470354597,"true"
"image-keyboard-response",73,347997,"0.0-4.20-1.20","4z6db74p8xzyshe",596,"81.csv","","null","resources/maskTrios/BBA2.jpg","null","",NA,NA,NA,NA,""
"image-keyboard-response",74,349202,"0.0-4.20-2.20","4z6db74p8xzyshe",596,"81.csv","","null","resources/images/coin2.png","null","",NA,NA,NA,NA,""
"image-keyboard-response",75,349691,"0.0-4.21-0.21","4z6db74p8xzyshe",596,"81.csv","","487.4000000357628","resources/trios/L4T2A2.jpg","39","restless",0.8,0.6,0.4,0.146254784761487,"true"
"image-keyboard-response",76,350093,"0.0-4.21-1.21","4z6db74p8xzyshe",596,"81.csv","","null","resources/maskTrios/BBA2.jpg","null","",NA,NA,NA,NA,""
"image-keyboard-response",77,351300,"0.0-4.21-2.21","4z6db74p8xzyshe",596,"81.csv","","null","resources/images/coin2.png","null","",NA,NA,NA,NA,""
"image-keyboard-response",78,352140,"0.0-4.22-0.22","4z6db74p8xzyshe",596,"81.csv","","838.4000000357628","resources/trios/L4T2A2.jpg","39","restless",0.8,0.6,0.4,0.932792594253179,"false"
"image-keyboard-response",79,352551,"0.0-4.22-1.22","4z6db74p8xzyshe",596,"81.csv","","null","resources/maskTrios/BBA2.jpg","null","",NA,NA,NA,NA,""
"image-keyboard-response",80,353753,"0.0-4.22-2.22","4z6db74p8xzyshe",596,"81.csv","","null","resources/images/fishbone.png","null","",NA,NA,NA,NA,""
"image-keyboard-response",81,354110,"0.0-4.23-0.23","4z6db74p8xzyshe",596,"81.csv","","354.9000000357628","resources/trios/L4T2A2.jpg","37","restless",0.8,0.6,0.4,0.060253841098252,"true"
"image-keyboard-response",82,354525,"0.0-4.23-1.23","4z6db74p8xzyshe",596,"81.csv","","null","resources/maskTrios/L4BB.jpg","null","",NA,NA,NA,NA,""
"image-keyboard-response",83,355737,"0.0-4.23-2.23","4z6db74p8xzyshe",596,"81.csv","","null","resources/images/coin2.png","null","",NA,NA,NA,NA,""
"image-keyboard-response",84,356099,"0.0-4.24-0.24","4z6db74p8xzyshe",596,"81.csv","","360","resources/trios/L4T2A2.jpg","38","restless",0.7,0.6,0.4,0.98716540624491,"false"
"image-keyboard-response",85,356508,"0.0-4.24-1.24","4z6db74p8xzyshe",596,"81.csv","","null","resources/maskTrios/BT2B.jpg","null","",NA,NA,NA,NA,""
"image-keyboard-response",86,357721,"0.0-4.24-2.24","4z6db74p8xzyshe",596,"81.csv","","null","resources/images/fishbone.png","null","",NA,NA,NA,NA,""
"image-keyboard-response",87,358062,"0.0-4.25-0.25","4z6db74p8xzyshe",596,"81.csv","","339.4000000357628","resources/trios/L4T2A2.jpg","37","restless",0.7,0.6,0.4,0.274369751324439,"true"
"image-keyboard-response",88,358465,"0.0-4.25-1.25","4z6db74p8xzyshe",596,"81.csv","","null","resources/maskTrios/L4BB.jpg","null","",NA,NA,NA,NA,""
"image-keyboard-response",89,359676,"0.0-4.25-2.25","4z6db74p8xzyshe",596,"81.csv","","null","resources/images/coin2.png","null","",NA,NA,NA,NA,""
"image-keyboard-response",90,360035,"0.0-4.26-0.26","4z6db74p8xzyshe",596,"81.csv","","356.80000001192093","resources/trios/L4T2A2.jpg","37","restless",0.7,0.5,0.4,0.478165500979981,"true"
"image-keyboard-response",91,360438,"0.0-4.26-1.26","4z6db74p8xzyshe",596,"81.csv","","null","resources/maskTrios/L4BB.jpg","null","",NA,NA,NA,NA,""
"image-keyboard-response",92,361654,"0.0-4.26-2.26","4z6db74p8xzyshe",596,"81.csv","","null","resources/images/coin2.png","null","",NA,NA,NA,NA,""
"image-keyboard-response",93,361940,"0.0-4.27-0.27","4z6db74p8xzyshe",596,"81.csv","","284.5999999642372","resources/trios/L4T2A2.jpg","37","restless",0.7,0.5,0.4,0.449557319347356,"true"
"image-keyboard-response",94,362356,"0.0-4.27-1.27","4z6db74p8xzyshe",596,"81.csv","","null","resources/maskTrios/L4BB.jpg","null","",NA,NA,NA,NA,""
"image-keyboard-response",95,363561,"0.0-4.27-2.27","4z6db74p8xzyshe",596,"81.csv","","null","resources/images/coin2.png","null","",NA,NA,NA,NA,""
"image-keyboard-response",96,363847,"0.0-4.28-0.28","4z6db74p8xzyshe",596,"81.csv","","284.9000000357628","resources/trios/L4T2A2.jpg","37","restless",0.7,0.5,0.4,0.102593056441909,"true"
"image-keyboard-response",97,364264,"0.0-4.28-1.28","4z6db74p8xzyshe",596,"81.csv","","null","resources/maskTrios/L4BB.jpg","null","",NA,NA,NA,NA,""
"image-keyboard-response",98,365477,"0.0-4.28-2.28","4z6db74p8xzyshe",596,"81.csv","","null","resources/images/coin2.png","null","",NA,NA,NA,NA,""
"image-keyboard-response",99,365808,"0.0-4.29-0.29","4z6db74p8xzyshe",596,"81.csv","","330.10000002384186","resources/trios/L4T2A2.jpg","37","restless",0.7,0.5,0.4,0.125725315201875,"true"
"image-keyboard-response",100,366216,"0.0-4.29-1.29","4z6db74p8xzyshe",596,"81.csv","","null","resources/maskTrios/L4BB.jpg","null","",NA,NA,NA,NA,""
"image-keyboard-response",101,367421,"0.0-4.29-2.29","4z6db74p8xzyshe",596,"81.csv","","null","resources/images/coin2.png","null","",NA,NA,NA,NA,""
"image-keyboard-response",102,367705,"0.0-4.30-0.30","4z6db74p8xzyshe",596,"81.csv","","282.89999997615814","resources/trios/L4T2A2.jpg","37","restless",0.8,0.5,0.4,0.115072425159818,"true"
"image-keyboard-response",103,368118,"0.0-4.30-1.30","4z6db74p8xzyshe",596,"81.csv","","null","resources/maskTrios/L4BB.jpg","null","",NA,NA,NA,NA,""
"image-keyboard-response",104,369336,"0.0-4.30-2.30","4z6db74p8xzyshe",596,"81.csv","","null","resources/images/coin2.png","null","",NA,NA,NA,NA,""
"image-keyboard-response",105,369602,"0.0-4.31-0.31","4z6db74p8xzyshe",596,"81.csv","","264.69999998807907","resources/trios/L4T2A2.jpg","37","restless",0.8,0.5,0.4,0.220627476598231,"true"
"image-keyboard-response",106,370018,"0.0-4.31-1.31","4z6db74p8xzyshe",596,"81.csv","","null","resources/maskTrios/L4BB.jpg","null","",NA,NA,NA,NA,""
"image-keyboard-response",107,371229,"0.0-4.31-2.31","4z6db74p8xzyshe",596,"81.csv","","null","resources/images/coin2.png","null","",NA,NA,NA,NA,""
"image-keyboard-response",108,371421,"0.0-4.32-0.32","4z6db74p8xzyshe",596,"81.csv","","190.39999997615814","resources/trios/L4T2A2.jpg","37","restless",0.8,0.5,0.4,0.619702038753001,"true"
"image-keyboard-response",109,371828,"0.0-4.32-1.32","4z6db74p8xzyshe",596,"81.csv","","null","resources/maskTrios/L4BB.jpg","null","",NA,NA,NA,NA,""
"image-keyboard-response",110,373043,"0.0-4.32-2.32","4z6db74p8xzyshe",596,"81.csv","","null","resources/images/coin2.png","null","",NA,NA,NA,NA,""
"image-keyboard-response",111,373275,"0.0-4.33-0.33","4z6db74p8xzyshe",596,"81.csv","","229.9000000357628","resources/trios/L4T2A2.jpg","37","restless",0.8,0.5,0.4,0.401306898489621,"true"
"image-keyboard-response",112,373676,"0.0-4.33-1.33","4z6db74p8xzyshe",596,"81.csv","","null","resources/maskTrios/L4BB.jpg","null","",NA,NA,NA,NA,""
"image-keyboard-response",113,374888,"0.0-4.33-2.33","4z6db74p8xzyshe",596,"81.csv","","null","resources/images/coin2.png","null","",NA,NA,NA,NA,""
"image-keyboard-response",114,375270,"0.0-4.34-0.34","4z6db74p8xzyshe",596,"81.csv","","380.30000001192093","resources/trios/L4T2A2.jpg","37","restless",0.8,0.5,0.5,0.250872429127802,"true"
"image-keyboard-response",115,375676,"0.0-4.34-1.34","4z6db74p8xzyshe",596,"81.csv","","null","resources/maskTrios/L4BB.jpg","null","",NA,NA,NA,NA,""
"image-keyboard-response",116,376881,"0.0-4.34-2.34","4z6db74p8xzyshe",596,"81.csv","","null","resources/images/coin2.png","null","",NA,NA,NA,NA,""
"image-keyboard-response",117,377105,"0.0-4.35-0.35","4z6db74p8xzyshe",596,"81.csv","","222.69999998807907","resources/trios/L4T2A2.jpg","37","restless",0.7,0.5,0.5,0.30794191061103,"true"
"image-keyboard-response",118,377518,"0.0-4.35-1.35","4z6db74p8xzyshe",596,"81.csv","","null","resources/maskTrios/L4BB.jpg","null","",NA,NA,NA,NA,""
"image-keyboard-response",119,378721,"0.0-4.35-2.35","4z6db74p8xzyshe",596,"81.csv","","null","resources/images/coin2.png","null","",NA,NA,NA,NA,""
"image-keyboard-response",120,378949,"0.0-4.36-0.36","4z6db74p8xzyshe",596,"81.csv","","226.89999997615814","resources/trios/L4T2A2.jpg","37","restless",0.7,0.5,0.4,0.78753792600283,"false"
"image-keyboard-response",121,379358,"0.0-4.36-1.36","4z6db74p8xzyshe",596,"81.csv","","null","resources/maskTrios/L4BB.jpg","null","",NA,NA,NA,NA,""
"image-keyboard-response",122,380565,"0.0-4.36-2.36","4z6db74p8xzyshe",596,"81.csv","","null","resources/images/fishbone.png","null","",NA,NA,NA,NA,""
"image-keyboard-response",123,380971,"0.0-4.37-0.37","4z6db74p8xzyshe",596,"81.csv","","404.39999997615814","resources/trios/L4T2A2.jpg","39","restless",0.7,0.5,0.4,0.327564003841037,"true"
"image-keyboard-response",124,381374,"0.0-4.37-1.37","4z6db74p8xzyshe",596,"81.csv","","null","resources/maskTrios/BBA2.jpg","null","",NA,NA,NA,NA,""
"image-keyboard-response",125,382590,"0.0-4.37-2.37","4z6db74p8xzyshe",596,"81.csv","","null","resources/images/coin2.png","null","",NA,NA,NA,NA,""
"image-keyboard-response",126,382846,"0.0-4.38-0.38","4z6db74p8xzyshe",596,"81.csv","","254.4000000357628","resources/trios/L4T2A2.jpg","39","restless",0.8,0.5,0.4,0.0377136629372417,"true"
"image-keyboard-response",127,383249,"0.0-4.38-1.38","4z6db74p8xzyshe",596,"81.csv","","null","resources/maskTrios/BBA2.jpg","null","",NA,NA,NA,NA,""
"image-keyboard-response",128,384459,"0.0-4.38-2.38","4z6db74p8xzyshe",596,"81.csv","","null","resources/images/coin2.png","null","",NA,NA,NA,NA,""
"image-keyboard-response",129,384748,"0.0-4.39-0.39","4z6db74p8xzyshe",596,"81.csv","","287.19999998807907","resources/trios/L4T2A2.jpg","39","restless",0.8,0.5,0.4,0.810077436339659,"false"
"image-keyboard-response",130,385161,"0.0-4.39-1.39","4z6db74p8xzyshe",596,"81.csv","","null","resources/maskTrios/BBA2.jpg","null","",NA,NA,NA,NA,""
"image-keyboard-response",131,386367,"0.0-4.39-2.39","4z6db74p8xzyshe",596,"81.csv","","null","resources/images/fishbone.png","null","",NA,NA,NA,NA,""
"image-keyboard-response",132,386622,"0.0-4.40-0.40","4z6db74p8xzyshe",596,"81.csv","","253.5999999642372","resources/trios/L4T2A2.jpg","38","restless",0.8,0.5,0.4,0.653573254800477,"false"
"image-keyboard-response",133,387033,"0.0-4.40-1.40","4z6db74p8xzyshe",596,"81.csv","","null","resources/maskTrios/BT2B.jpg","null","",NA,NA,NA,NA,""
"image-keyboard-response",134,388237,"0.0-4.40-2.40","4z6db74p8xzyshe",596,"81.csv","","null","resources/images/fishbone.png","null","",NA,NA,NA,NA,""
"image-keyboard-response",135,388438,"0.0-4.41-0.41","4z6db74p8xzyshe",596,"81.csv","","199.5","resources/trios/L4T2A2.jpg","39","restless",0.8,0.5,0.4,0.989048129771797,"false"
"image-keyboard-response",136,388854,"0.0-4.41-1.41","4z6db74p8xzyshe",596,"81.csv","","null","resources/maskTrios/BBA2.jpg","null","",NA,NA,NA,NA,""
"image-keyboard-response",137,390056,"0.0-4.41-2.41","4z6db74p8xzyshe",596,"81.csv","","null","resources/images/fishbone.png","null","",NA,NA,NA,NA,""
"image-keyboard-response",138,390259,"0.0-4.42-0.42","4z6db74p8xzyshe",596,"81.csv","","201.80000001192093","resources/trios/L4T2A2.jpg","37","restless",0.8,0.5,0.4,0.965022546303913,"false"
"image-keyboard-response",139,390664,"0.0-4.42-1.42","4z6db74p8xzyshe",596,"81.csv","","null","resources/maskTrios/L4BB.jpg","null","",NA,NA,NA,NA,""
"image-keyboard-response",140,391878,"0.0-4.42-2.42","4z6db74p8xzyshe",596,"81.csv","","null","resources/images/fishbone.png","null","",NA,NA,NA,NA,""
"image-keyboard-response",141,392122,"0.0-4.43-0.43","4z6db74p8xzyshe",596,"81.csv","","242.10000002384186","resources/trios/L4T2A2.jpg","38","restless",0.8,0.4,0.4,0.921182964877239,"false"
"image-keyboard-response",142,392535,"0.0-4.43-1.43","4z6db74p8xzyshe",596,"81.csv","","null","resources/maskTrios/BT2B.jpg","null","",NA,NA,NA,NA,""
"image-keyboard-response",143,393749,"0.0-4.43-2.43","4z6db74p8xzyshe",596,"81.csv","","null","resources/images/fishbone.png","null","",NA,NA,NA,NA,""
"image-keyboard-response",144,393948,"0.0-4.44-0.44","4z6db74p8xzyshe",596,"81.csv","","197.89999997615814","resources/trios/L4T2A2.jpg","39","restless",0.8,0.5,0.4,0.570736806382951,"false"
"image-keyboard-response",145,394361,"0.0-4.44-1.44","4z6db74p8xzyshe",596,"81.csv","","null","resources/maskTrios/BBA2.jpg","null","",NA,NA,NA,NA,""
"image-keyboard-response",146,395563,"0.0-4.44-2.44","4z6db74p8xzyshe",596,"81.csv","","null","resources/images/fishbone.png","null","",NA,NA,NA,NA,""
"image-keyboard-response",147,395754,"0.0-4.45-0.45","4z6db74p8xzyshe",596,"81.csv","","189.30000001192093","resources/trios/L4T2A2.jpg","37","restless",0.8,0.5,0.4,0.625876722856974,"true"
"image-keyboard-response",148,396169,"0.0-4.45-1.45","4z6db74p8xzyshe",596,"81.csv","","null","resources/maskTrios/L4BB.jpg","null","",NA,NA,NA,NA,""
"image-keyboard-response",149,397374,"0.0-4.45-2.45","4z6db74p8xzyshe",596,"81.csv","","null","resources/images/coin2.png","null","",NA,NA,NA,NA,""
"image-keyboard-response",150,397714,"0.0-4.46-0.46","4z6db74p8xzyshe",596,"81.csv","","337.9000000357628","resources/trios/L4T2A2.jpg","37","restless",0.8,0.5,0.4,0.963422817345275,"false"
"image-keyboard-response",151,398117,"0.0-4.46-1.46","4z6db74p8xzyshe",596,"81.csv","","null","resources/maskTrios/L4BB.jpg","null","",NA,NA,NA,NA,""
"image-keyboard-response",152,399329,"0.0-4.46-2.46","4z6db74p8xzyshe",596,"81.csv","","null","resources/images/fishbone.png","null","",NA,NA,NA,NA,""
"image-keyboard-response",153,400085,"0.0-4.47-0.47","4z6db74p8xzyshe",596,"81.csv","","754.5","resources/trios/L4T2A2.jpg","39","restless",0.8,0.5,0.4,0.639393941061546,"false"
"image-keyboard-response",154,400494,"0.0-4.47-1.47","4z6db74p8xzyshe",596,"81.csv","","null","resources/maskTrios/BBA2.jpg","null","",NA,NA,NA,NA,""
"image-keyboard-response",155,401696,"0.0-4.47-2.47","4z6db74p8xzyshe",596,"81.csv","","null","resources/images/fishbone.png","null","",NA,NA,NA,NA,""
"image-keyboard-response",156,401975,"0.0-4.48-0.48","4z6db74p8xzyshe",596,"81.csv","","277.0999999642372","resources/trios/L4T2A2.jpg","38","restless",0.8,0.5,0.4,0.917319067683969,"false"
"image-keyboard-response",157,402381,"0.0-4.48-1.48","4z6db74p8xzyshe",596,"81.csv","","null","resources/maskTrios/BT2B.jpg","null","",NA,NA,NA,NA,""
"image-keyboard-response",158,403595,"0.0-4.48-2.48","4z6db74p8xzyshe",596,"81.csv","","null","resources/images/fishbone.png","null","",NA,NA,NA,NA,""
"image-keyboard-response",159,403786,"0.0-4.49-0.49","4z6db74p8xzyshe",596,"81.csv","","189.10000002384186","resources/trios/L4T2A2.jpg","37","restless",0.8,0.5,0.4,0.982263249416006,"false"
"image-keyboard-response",160,404197,"0.0-4.49-1.49","4z6db74p8xzyshe",596,"81.csv","","null","resources/maskTrios/L4BB.jpg","null","",NA,NA,NA,NA,""
"image-keyboard-response",161,405414,"0.0-4.49-2.49","4z6db74p8xzyshe",596,"81.csv","","null","resources/images/fishbone.png","null","",NA,NA,NA,NA,""
"image-keyboard-response",162,405700,"0.0-4.50-0.50","4z6db74p8xzyshe",596,"81.csv","","284.69999998807907","resources/trios/L4T2A2.jpg","39","restless",0.8,0.5,0.4,0.43823171400792,"false"
"image-keyboard-response",163,406103,"0.0-4.50-1.50","4z6db74p8xzyshe",596,"81.csv","","null","resources/maskTrios/BBA2.jpg","null","",NA,NA,NA,NA,""
"image-keyboard-response",164,407306,"0.0-4.50-2.50","4z6db74p8xzyshe",596,"81.csv","","null","resources/images/fishbone.png","null","",NA,NA,NA,NA,""
"image-keyboard-response",165,407538,"0.0-4.51-0.51","4z6db74p8xzyshe",596,"81.csv","","231","resources/trios/L4T2A2.jpg","38","restless",0.8,0.5,0.4,0.0734707229118092,"true"
"image-keyboard-response",166,407951,"0.0-4.51-1.51","4z6db74p8xzyshe",596,"81.csv","","null","resources/maskTrios/BT2B.jpg","null","",NA,NA,NA,NA,""
"image-keyboard-response",167,409168,"0.0-4.51-2.51","4z6db74p8xzyshe",596,"81.csv","","null","resources/images/coin2.png","null","",NA,NA,NA,NA,""
"image-keyboard-response",168,409434,"0.0-4.52-0.52","4z6db74p8xzyshe",596,"81.csv","","264.5","resources/trios/L4T2A2.jpg","38","restless",0.8,0.5,0.4,0.298355490704729,"true"
"image-keyboard-response",169,409848,"0.0-4.52-1.52","4z6db74p8xzyshe",596,"81.csv","","null","resources/maskTrios/BT2B.jpg","null","",NA,NA,NA,NA,""
"image-keyboard-response",170,411062,"0.0-4.52-2.52","4z6db74p8xzyshe",596,"81.csv","","null","resources/images/coin2.png","null","",NA,NA,NA,NA,""
"image-keyboard-response",171,411377,"0.0-4.53-0.53","4z6db74p8xzyshe",596,"81.csv","","314.2999999523163","resources/trios/L4T2A2.jpg","38","restless",0.8,0.5,0.4,0.0799484327644877,"true"
"image-keyboard-response",172,411794,"0.0-4.53-1.53","4z6db74p8xzyshe",596,"81.csv","","null","resources/maskTrios/BT2B.jpg","null","",NA,NA,NA,NA,""
"image-keyboard-response",173,413009,"0.0-4.53-2.53","4z6db74p8xzyshe",596,"81.csv","","null","resources/images/coin2.png","null","",NA,NA,NA,NA,""
"image-keyboard-response",174,413576,"0.0-4.54-0.54","4z6db74p8xzyshe",596,"81.csv","","565.6000000238419","resources/trios/L4T2A2.jpg","38","restless",0.8,0.5,0.4,0.871509349923994,"false"
"image-keyboard-response",175,413993,"0.0-4.54-1.54","4z6db74p8xzyshe",596,"81.csv","","null","resources/maskTrios/BT2B.jpg","null","",NA,NA,NA,NA,""
"image-keyboard-response",176,415200,"0.0-4.54-2.54","4z6db74p8xzyshe",596,"81.csv","","null","resources/images/fishbone.png","null","",NA,NA,NA,NA,""
"image-keyboard-response",177,415490,"0.0-4.55-0.55","4z6db74p8xzyshe",596,"81.csv","","289.10000002384186","resources/trios/L4T2A2.jpg","39","restless",0.8,0.5,0.4,0.381957286261969,"true"
"image-keyboard-response",178,415905,"0.0-4.55-1.55","4z6db74p8xzyshe",596,"81.csv","","null","resources/maskTrios/BBA2.jpg","null","",NA,NA,NA,NA,""
"image-keyboard-response",179,417112,"0.0-4.55-2.55","4z6db74p8xzyshe",596,"81.csv","","null","resources/images/coin2.png","null","",NA,NA,NA,NA,""
"image-keyboard-response",180,417476,"0.0-4.56-0.56","4z6db74p8xzyshe",596,"81.csv","","362.39999997615814","resources/trios/L4T2A2.jpg","39","restless",0.8,0.5,0.4,0.791068006129964,"false"
"image-keyboard-response",181,417882,"0.0-4.56-1.56","4z6db74p8xzyshe",596,"81.csv","","null","resources/maskTrios/BBA2.jpg","null","",NA,NA,NA,NA,""
"image-keyboard-response",182,419099,"0.0-4.56-2.56","4z6db74p8xzyshe",596,"81.csv","","null","resources/images/fishbone.png","null","",NA,NA,NA,NA,""
"image-keyboard-response",183,419321,"0.0-4.57-0.57","4z6db74p8xzyshe",596,"81.csv","","221.29999995231628","resources/trios/L4T2A2.jpg","39","restless",0.8,0.5,0.5,0.883772371450019,"false"
"image-keyboard-response",184,419729,"0.0-4.57-1.57","4z6db74p8xzyshe",596,"81.csv","","null","resources/maskTrios/BBA2.jpg","null","",NA,NA,NA,NA,""
"image-keyboard-response",185,420944,"0.0-4.57-2.57","4z6db74p8xzyshe",596,"81.csv","","null","resources/images/fishbone.png","null","",NA,NA,NA,NA,""
"image-keyboard-response",186,421162,"0.0-4.58-0.58","4z6db74p8xzyshe",596,"81.csv","","216.30000001192093","resources/trios/L4T2A2.jpg","39","restless",0.8,0.5,0.6,0.159309079305694,"true"
"image-keyboard-response",187,421564,"0.0-4.58-1.58","4z6db74p8xzyshe",596,"81.csv","","null","resources/maskTrios/BBA2.jpg","null","",NA,NA,NA,NA,""
"image-keyboard-response",188,422768,"0.0-4.58-2.58","4z6db74p8xzyshe",596,"81.csv","","null","resources/images/coin2.png","null","",NA,NA,NA,NA,""
"image-keyboard-response",189,423037,"0.0-4.59-0.59","4z6db74p8xzyshe",596,"81.csv","","267.19999998807907","resources/trios/L4T2A2.jpg","39","restless",0.8,0.6,0.6,0.604107487734241,"false"
"image-keyboard-response",190,423453,"0.0-4.59-1.59","4z6db74p8xzyshe",596,"81.csv","","null","resources/maskTrios/BBA2.jpg","null","",NA,NA,NA,NA,""
"image-keyboard-response",191,424656,"0.0-4.59-2.59","4z6db74p8xzyshe",596,"81.csv","","null","resources/images/fishbone.png","null","",NA,NA,NA,NA,""
"image-keyboard-response",192,424834,"0.0-4.60-0.60","4z6db74p8xzyshe",596,"81.csv","","176","resources/trios/L4T2A2.jpg","37","restless",0.8,0.5,0.6,0.768884867167806,"true"
"image-keyboard-response",193,425242,"0.0-4.60-1.60","4z6db74p8xzyshe",596,"81.csv","","null","resources/maskTrios/L4BB.jpg","null","",NA,NA,NA,NA,""
"image-keyboard-response",194,426447,"0.0-4.60-2.60","4z6db74p8xzyshe",596,"81.csv","","null","resources/images/coin2.png","null","",NA,NA,NA,NA,""
"image-keyboard-response",195,426646,"0.0-4.61-0.61","4z6db74p8xzyshe",596,"81.csv","","197.30000001192093","resources/trios/L4T2A2.jpg","37","restless",0.8,0.5,0.6,0.8997640147891,"false"
"image-keyboard-response",196,427049,"0.0-4.61-1.61","4z6db74p8xzyshe",596,"81.csv","","null","resources/maskTrios/L4BB.jpg","null","",NA,NA,NA,NA,""
"image-keyboard-response",197,428260,"0.0-4.61-2.61","4z6db74p8xzyshe",596,"81.csv","","null","resources/images/fishbone.png","null","",NA,NA,NA,NA,""
"image-keyboard-response",198,429045,"0.0-4.62-0.62","4z6db74p8xzyshe",596,"81.csv","","784.1999999880791","resources/trios/L4T2A2.jpg","38","restless",0.8,0.5,0.6,0.766176982982862,"false"
"image-keyboard-response",199,429457,"0.0-4.62-1.62","4z6db74p8xzyshe",596,"81.csv","","null","resources/maskTrios/BT2B.jpg","null","",NA,NA,NA,NA,""
"image-keyboard-response",200,430661,"0.0-4.62-2.62","4z6db74p8xzyshe",596,"81.csv","","null","resources/images/fishbone.png","null","",NA,NA,NA,NA,""
"image-keyboard-response",201,430929,"0.0-4.63-0.63","4z6db74p8xzyshe",596,"81.csv","","266.10000002384186","resources/trios/L4T2A2.jpg","38","restless",0.8,0.5,0.6,0.976732302778707,"false"
"image-keyboard-response",202,431340,"0.0-4.63-1.63","4z6db74p8xzyshe",596,"81.csv","","null","resources/maskTrios/BT2B.jpg","null","",NA,NA,NA,NA,""
"image-keyboard-response",203,432549,"0.0-4.63-2.63","4z6db74p8xzyshe",596,"81.csv","","null","resources/images/fishbone.png","null","",NA,NA,NA,NA,""
"image-keyboard-response",204,432714,"0.0-4.64-0.64","4z6db74p8xzyshe",596,"81.csv","","164.10000002384186","resources/trios/L4T2A2.jpg","38","restless",0.8,0.5,0.6,0.417479802572126,"true"
"image-keyboard-response",205,433117,"0.0-4.64-1.64","4z6db74p8xzyshe",596,"81.csv","","null","resources/maskTrios/BT2B.jpg","null","",NA,NA,NA,NA,""
"image-keyboard-response",206,434324,"0.0-4.64-2.64","4z6db74p8xzyshe",596,"81.csv","","null","resources/images/coin2.png","null","",NA,NA,NA,NA,""
"image-keyboard-response",207,434516,"0.0-4.65-0.65","4z6db74p8xzyshe",596,"81.csv","","190.30000001192093","resources/trios/L4T2A2.jpg","38","restless",0.8,0.5,0.6,0.308198437922159,"true"
"image-keyboard-response",208,434926,"0.0-4.65-1.65","4z6db74p8xzyshe",596,"81.csv","","null","resources/maskTrios/BT2B.jpg","null","",NA,NA,NA,NA,""
"image-keyboard-response",209,436128,"0.0-4.65-2.65","4z6db74p8xzyshe",596,"81.csv","","null","resources/images/coin2.png","null","",NA,NA,NA,NA,""
"image-keyboard-response",210,436370,"0.0-4.66-0.66","4z6db74p8xzyshe",596,"81.csv","","239.80000001192093","resources/trios/L4T2A2.jpg","38","restless",0.8,0.6,0.5,0.308359868572325,"true"
"image-keyboard-response",211,436785,"0.0-4.66-1.66","4z6db74p8xzyshe",596,"81.csv","","null","resources/maskTrios/BT2B.jpg","null","",NA,NA,NA,NA,""
"image-keyboard-response",212,437988,"0.0-4.66-2.66","4z6db74p8xzyshe",596,"81.csv","","null","resources/images/coin2.png","null","",NA,NA,NA,NA,""
"image-keyboard-response",213,438296,"0.0-4.67-0.67","4z6db74p8xzyshe",596,"81.csv","","306.60000002384186","resources/trios/L4T2A2.jpg","38","restless",0.8,0.6,0.5,0.921482886475214,"false"
"image-keyboard-response",214,438702,"0.0-4.67-1.67","4z6db74p8xzyshe",596,"81.csv","","null","resources/maskTrios/BT2B.jpg","null","",NA,NA,NA,NA,""
"image-keyboard-response",215,439908,"0.0-4.67-2.67","4z6db74p8xzyshe",596,"81.csv","","null","resources/images/fishbone.png","null","",NA,NA,NA,NA,""
"image-keyboard-response",216,440141,"0.0-4.68-0.68","4z6db74p8xzyshe",596,"81.csv","","230.9000000357628","resources/trios/L4T2A2.jpg","37","restless",0.8,0.6,0.5,0.209949553085408,"true"
"image-keyboard-response",217,440556,"0.0-4.68-1.68","4z6db74p8xzyshe",596,"81.csv","","null","resources/maskTrios/L4BB.jpg","null","",NA,NA,NA,NA,""
"image-keyboard-response",218,441769,"0.0-4.68-2.68","4z6db74p8xzyshe",596,"81.csv","","null","resources/images/coin2.png","null","",NA,NA,NA,NA,""
"image-keyboard-response",219,441959,"0.0-4.69-0.69","4z6db74p8xzyshe",596,"81.csv","","188.10000002384186","resources/trios/L4T2A2.jpg","37","restless",0.8,0.6,0.5,0.996052848825453,"false"
"image-keyboard-response",220,442363,"0.0-4.69-1.69","4z6db74p8xzyshe",596,"81.csv","","null","resources/maskTrios/L4BB.jpg","null","",NA,NA,NA,NA,""
"image-keyboard-response",221,443567,"0.0-4.69-2.69","4z6db74p8xzyshe",596,"81.csv","","null","resources/images/fishbone.png","null","",NA,NA,NA,NA,""
"image-keyboard-response",222,443835,"0.0-4.70-0.70","4z6db74p8xzyshe",596,"81.csv","","266.2000000476837","resources/trios/L4T2A2.jpg","39","restless",0.8,0.6,0.5,0.448722949862192,"true"
"image-keyboard-response",223,444238,"0.0-4.70-1.70","4z6db74p8xzyshe",596,"81.csv","","null","resources/maskTrios/BBA2.jpg","null","",NA,NA,NA,NA,""
"image-keyboard-response",224,445455,"0.0-4.70-2.70","4z6db74p8xzyshe",596,"81.csv","","null","resources/images/coin2.png","null","",NA,NA,NA,NA,""
"image-keyboard-response",225,445731,"0.0-4.71-0.71","4z6db74p8xzyshe",596,"81.csv","","274.10000002384186","resources/trios/L4T2A2.jpg","39","restless",0.8,0.6,0.4,0.0482133801613853,"true"
"image-keyboard-response",226,446134,"0.0-4.71-1.71","4z6db74p8xzyshe",596,"81.csv","","null","resources/maskTrios/BBA2.jpg","null","",NA,NA,NA,NA,""
"image-keyboard-response",227,447337,"0.0-4.71-2.71","4z6db74p8xzyshe",596,"81.csv","","null","resources/images/coin2.png","null","",NA,NA,NA,NA,""
"image-keyboard-response",228,447577,"0.0-4.72-0.72","4z6db74p8xzyshe",596,"81.csv","","238.5","resources/trios/L4T2A2.jpg","39","restless",0.7,0.6,0.4,0.807545153188965,"false"
"image-keyboard-response",229,447982,"0.0-4.72-1.72","4z6db74p8xzyshe",596,"81.csv","","null","resources/maskTrios/BBA2.jpg","null","",NA,NA,NA,NA,""
"image-keyboard-response",230,449195,"0.0-4.72-2.72","4z6db74p8xzyshe",596,"81.csv","","null","resources/images/fishbone.png","null","",NA,NA,NA,NA,""
"image-keyboard-response",231,449640,"0.0-4.73-0.73","4z6db74p8xzyshe",596,"81.csv","","444.0999999642372","resources/trios/L4T2A2.jpg","38","restless",0.7,0.5,0.4,0.769377869067839,"false"
"image-keyboard-response",232,450051,"0.0-4.73-1.73","4z6db74p8xzyshe",596,"81.csv","","null","resources/maskTrios/BT2B.jpg","null","",NA,NA,NA,NA,""
"image-keyboard-response",233,451258,"0.0-4.73-2.73","4z6db74p8xzyshe",596,"81.csv","","null","resources/images/fishbone.png","null","",NA,NA,NA,NA,""
"image-keyboard-response",234,451417,"0.0-4.74-0.74","4z6db74p8xzyshe",596,"81.csv","","157","resources/trios/L4T2A2.jpg","37","restless",0.7,0.5,0.4,0.301809450551132,"true"
"image-keyboard-response",235,451821,"0.0-4.74-1.74","4z6db74p8xzyshe",596,"81.csv","","null","resources/maskTrios/L4BB.jpg","null","",NA,NA,NA,NA,""
"image-keyboard-response",236,453025,"0.0-4.74-2.74","4z6db74p8xzyshe",596,"81.csv","","null","resources/images/coin2.png","null","",NA,NA,NA,NA,""
"image-keyboard-response",237,453265,"0.0-4.75-0.75","4z6db74p8xzyshe",596,"81.csv","","238.5999999642372","resources/trios/L4T2A2.jpg","37","restless",0.7,0.5,0.4,0.4392393827153,"true"
"image-keyboard-response",238,453683,"0.0-4.75-1.75","4z6db74p8xzyshe",596,"81.csv","","null","resources/maskTrios/L4BB.jpg","null","",NA,NA,NA,NA,""
"image-keyboard-response",239,454900,"0.0-4.75-2.75","4z6db74p8xzyshe",596,"81.csv","","null","resources/images/coin2.png","null","",NA,NA,NA,NA,""
"image-keyboard-response",240,454931,"0.0-4.76-0.76","4z6db74p8xzyshe",596,"81.csv","","28.899999976158142","resources/trios/L4T2A2.jpg","37","restless",0.7,0.5,0.4,0.48765633560144,"true"
"image-keyboard-response",241,455340,"0.0-4.76-1.76","4z6db74p8xzyshe",596,"81.csv","","null","resources/maskTrios/L4BB.jpg","null","",NA,NA,NA,NA,""
"image-keyboard-response",242,456550,"0.0-4.76-2.76","4z6db74p8xzyshe",596,"81.csv","","null","resources/images/coin2.png","null","",NA,NA,NA,NA,""
"image-keyboard-response",243,456882,"0.0-4.77-0.77","4z6db74p8xzyshe",596,"81.csv","","330.80000001192093","resources/trios/L4T2A2.jpg","39","restless",0.7,0.5,0.4,0.986393925536742,"false"
"image-keyboard-response",244,457285,"0.0-4.77-1.77","4z6db74p8xzyshe",596,"81.csv","","null","resources/maskTrios/BBA2.jpg","null","",NA,NA,NA,NA,""
"image-keyboard-response",245,458492,"0.0-4.77-2.77","4z6db74p8xzyshe",596,"81.csv","","null","resources/images/fishbone.png","null","",NA,NA,NA,NA,""
"image-keyboard-response",246,458840,"0.0-4.78-0.78","4z6db74p8xzyshe",596,"81.csv","","346","resources/trios/L4T2A2.jpg","38","restless",0.7,0.5,0.4,0.192122424875357,"true"
"image-keyboard-response",247,459253,"0.0-4.78-1.78","4z6db74p8xzyshe",596,"81.csv","","null","resources/maskTrios/BT2B.jpg","null","",NA,NA,NA,NA,""
"image-keyboard-response",248,460461,"0.0-4.78-2.78","4z6db74p8xzyshe",596,"81.csv","","null","resources/images/coin2.png","null","",NA,NA,NA,NA,""
"image-keyboard-response",249,460745,"0.0-4.79-0.79","4z6db74p8xzyshe",596,"81.csv","","281.60000002384186","resources/trios/L4T2A2.jpg","38","restless",0.7,0.5,0.4,0.368555601739615,"true"
"image-keyboard-response",250,461160,"0.0-4.79-1.79","4z6db74p8xzyshe",596,"81.csv","","null","resources/maskTrios/BT2B.jpg","null","",NA,NA,NA,NA,""
"image-keyboard-response",251,462366,"0.0-4.79-2.79","4z6db74p8xzyshe",596,"81.csv","","null","resources/images/coin2.png","null","",NA,NA,NA,NA,""
"image-keyboard-response",252,462602,"0.0-4.80-0.80","4z6db74p8xzyshe",596,"81.csv","","233.89999997615814","resources/trios/L4T2A2.jpg","38","restless",0.7,0.5,0.4,0.334203799801706,"true"
"image-keyboard-response",253,463011,"0.0-4.80-1.80","4z6db74p8xzyshe",596,"81.csv","","null","resources/maskTrios/BT2B.jpg","null","",NA,NA,NA,NA,""
"image-keyboard-response",254,464217,"0.0-4.80-2.80","4z6db74p8xzyshe",596,"81.csv","","null","resources/images/coin2.png","null","",NA,NA,NA,NA,""
"image-keyboard-response",255,464426,"0.0-4.81-0.81","4z6db74p8xzyshe",596,"81.csv","","206.60000002384186","resources/trios/L4T2A2.jpg","38","restless",0.6,0.5,0.4,0.196017245139637,"true"
"image-keyboard-response",256,464828,"0.0-4.81-1.81","4z6db74p8xzyshe",596,"81.csv","","null","resources/maskTrios/BT2B.jpg","null","",NA,NA,NA,NA,""
"image-keyboard-response",257,466030,"0.0-4.81-2.81","4z6db74p8xzyshe",596,"81.csv","","null","resources/images/coin2.png","null","",NA,NA,NA,NA,""
"image-keyboard-response",258,466243,"0.0-4.82-0.82","4z6db74p8xzyshe",596,"81.csv","","212.0999999642372","resources/trios/L4T2A2.jpg","38","restless",0.6,0.5,0.4,0.655404412216238,"false"
"image-keyboard-response",259,466657,"0.0-4.82-1.82","4z6db74p8xzyshe",596,"81.csv","","null","resources/maskTrios/BT2B.jpg","null","",NA,NA,NA,NA,""
"image-keyboard-response",260,467870,"0.0-4.82-2.82","4z6db74p8xzyshe",596,"81.csv","","null","resources/images/fishbone.png","null","",NA,NA,NA,NA,""
"image-keyboard-response",261,468078,"0.0-4.83-0.83","4z6db74p8xzyshe",596,"81.csv","","205.60000002384186","resources/trios/L4T2A2.jpg","37","restless",0.6,0.5,0.4,0.599784641186947,"true"
"image-keyboard-response",262,468489,"0.0-4.83-1.83","4z6db74p8xzyshe",596,"81.csv","","null","resources/maskTrios/L4BB.jpg","null","",NA,NA,NA,NA,""
"image-keyboard-response",263,469704,"0.0-4.83-2.83","4z6db74p8xzyshe",596,"81.csv","","null","resources/images/coin2.png","null","",NA,NA,NA,NA,""
"image-keyboard-response",264,469898,"0.0-4.84-0.84","4z6db74p8xzyshe",596,"81.csv","","191.89999997615814","resources/trios/L4T2A2.jpg","37","restless",0.7,0.5,0.4,0.348507001306719,"true"
"image-keyboard-response",265,470314,"0.0-4.84-1.84","4z6db74p8xzyshe",596,"81.csv","","null","resources/maskTrios/L4BB.jpg","null","",NA,NA,NA,NA,""
"image-keyboard-response",266,471516,"0.0-4.84-2.84","4z6db74p8xzyshe",596,"81.csv","","null","resources/images/coin2.png","null","",NA,NA,NA,NA,""
"image-keyboard-response",267,472082,"0.0-4.85-0.85","4z6db74p8xzyshe",596,"81.csv","","563.8000000119209","resources/trios/L4T2A2.jpg","37","restless",0.7,0.5,0.5,0.0264151693773942,"true"
"image-keyboard-response",268,472486,"0.0-4.85-1.85","4z6db74p8xzyshe",596,"81.csv","","null","resources/maskTrios/L4BB.jpg","null","",NA,NA,NA,NA,""
"image-keyboard-response",269,473688,"0.0-4.85-2.85","4z6db74p8xzyshe",596,"81.csv","","null","resources/images/coin2.png","null","",NA,NA,NA,NA,""
"image-keyboard-response",270,473898,"0.0-4.86-0.86","4z6db74p8xzyshe",596,"81.csv","","208.5","resources/trios/L4T2A2.jpg","37","restless",0.7,0.5,0.5,0.355044336786027,"true"
"image-keyboard-response",271,474315,"0.0-4.86-1.86","4z6db74p8xzyshe",596,"81.csv","","null","resources/maskTrios/L4BB.jpg","null","",NA,NA,NA,NA,""
"image-keyboard-response",272,475522,"0.0-4.86-2.86","4z6db74p8xzyshe",596,"81.csv","","null","resources/images/coin2.png","null","",NA,NA,NA,NA,""
"image-keyboard-response",273,475655,"0.0-4.87-0.87","4z6db74p8xzyshe",596,"81.csv","","131.39999997615814","resources/trios/L4T2A2.jpg","37","restless",0.7,0.5,0.5,0.0125849229624972,"true"
"image-keyboard-response",274,476062,"0.0-4.87-1.87","4z6db74p8xzyshe",596,"81.csv","","null","resources/maskTrios/L4BB.jpg","null","",NA,NA,NA,NA,""
"image-keyboard-response",275,477272,"0.0-4.87-2.87","4z6db74p8xzyshe",596,"81.csv","","null","resources/images/coin2.png","null","",NA,NA,NA,NA,""
"image-keyboard-response",276,477472,"0.0-4.88-0.88","4z6db74p8xzyshe",596,"81.csv","","198.60000002384186","resources/trios/L4T2A2.jpg","37","restless",0.7,0.5,0.5,0.963465610370704,"false"
"image-keyboard-response",277,477888,"0.0-4.88-1.88","4z6db74p8xzyshe",596,"81.csv","","null","resources/maskTrios/L4BB.jpg","null","",NA,NA,NA,NA,""
"image-keyboard-response",278,479105,"0.0-4.88-2.88","4z6db74p8xzyshe",596,"81.csv","","null","resources/images/fishbone.png","null","",NA,NA,NA,NA,""
"image-keyboard-response",279,479353,"0.0-4.89-0.89","4z6db74p8xzyshe",596,"81.csv","","246.39999997615814","resources/trios/L4T2A2.jpg","37","restless",0.8,0.5,0.5,0.133432253222155,"true"
"image-keyboard-response",280,479756,"0.0-4.89-1.89","4z6db74p8xzyshe",596,"81.csv","","null","resources/maskTrios/L4BB.jpg","null","",NA,NA,NA,NA,""
"image-keyboard-response",281,480973,"0.0-4.89-2.89","4z6db74p8xzyshe",596,"81.csv","","null","resources/images/coin2.png","null","",NA,NA,NA,NA,""
"image-keyboard-response",282,481193,"0.0-4.90-0.90","4z6db74p8xzyshe",596,"81.csv","","218.69999998807907","resources/trios/L4T2A2.jpg","37","restless",0.8,0.5,0.5,0.0210751632887514,"true"
"image-keyboard-response",283,481598,"0.0-4.90-1.90","4z6db74p8xzyshe",596,"81.csv","","null","resources/maskTrios/L4BB.jpg","null","",NA,NA,NA,NA,""
"image-keyboard-response",284,482814,"0.0-4.90-2.90","4z6db74p8xzyshe",596,"81.csv","","null","resources/images/coin2.png","null","",NA,NA,NA,NA,""
"image-keyboard-response",285,483083,"0.0-4.91-0.91","4z6db74p8xzyshe",596,"81.csv","","268.19999998807907","resources/trios/L4T2A2.jpg","37","restless",0.7,0.5,0.5,0.453352920420536,"true"
"image-keyboard-response",286,483488,"0.0-4.91-1.91","4z6db74p8xzyshe",596,"81.csv","","null","resources/maskTrios/L4BB.jpg","null","",NA,NA,NA,NA,""
"image-keyboard-response",287,484692,"0.0-4.91-2.91","4z6db74p8xzyshe",596,"81.csv","","null","resources/images/coin2.png","null","",NA,NA,NA,NA,""
"image-keyboard-response",288,484874,"0.0-4.92-0.92","4z6db74p8xzyshe",596,"81.csv","","180.80000001192093","resources/trios/L4T2A2.jpg","37","restless",0.7,0.4,0.5,0.4422461142059,"true"
"image-keyboard-response",289,485277,"0.0-4.92-1.92","4z6db74p8xzyshe",596,"81.csv","","null","resources/maskTrios/L4BB.jpg","null","",NA,NA,NA,NA,""
"image-keyboard-response",290,486492,"0.0-4.92-2.92","4z6db74p8xzyshe",596,"81.csv","","null","resources/images/coin2.png","null","",NA,NA,NA,NA,""
"image-keyboard-response",291,486802,"0.0-4.93-0.93","4z6db74p8xzyshe",596,"81.csv","","308.5","resources/trios/L4T2A2.jpg","37","restless",0.7,0.4,0.5,0.198545043374581,"true"
"image-keyboard-response",292,487212,"0.0-4.93-1.93","4z6db74p8xzyshe",596,"81.csv","","null","resources/maskTrios/L4BB.jpg","null","",NA,NA,NA,NA,""
"image-keyboard-response",293,488424,"0.0-4.93-2.93","4z6db74p8xzyshe",596,"81.csv","","null","resources/images/coin2.png","null","",NA,NA,NA,NA,""
"image-keyboard-response",294,489397,"0.0-4.94-0.94","4z6db74p8xzyshe",596,"81.csv","","971.5","resources/trios/L4T2A2.jpg","37","restless",0.7,0.4,0.4,0.83211609308009,"false"
"image-keyboard-response",295,489800,"0.0-4.94-1.94","4z6db74p8xzyshe",596,"81.csv","","null","resources/maskTrios/L4BB.jpg","null","",NA,NA,NA,NA,""
"image-keyboard-response",296,491015,"0.0-4.94-2.94","4z6db74p8xzyshe",596,"81.csv","","null","resources/images/fishbone.png","null","",NA,NA,NA,NA,""
"image-keyboard-response",297,491020,"0.0-4.95-0.95","4z6db74p8xzyshe",596,"81.csv","","2.799999952316284","resources/trios/L4T2A2.jpg","37","restless",0.7,0.4,0.4,0.60314177550026,"true"
"image-keyboard-response",298,491421,"0.0-4.95-1.95","4z6db74p8xzyshe",596,"81.csv","","null","resources/maskTrios/L4BB.jpg","null","",NA,NA,NA,NA,""
"image-keyboard-response",299,492631,"0.0-4.95-2.95","4z6db74p8xzyshe",596,"81.csv","","null","resources/images/coin2.png","null","",NA,NA,NA,NA,""
"image-keyboard-response",300,492828,"0.0-4.96-0.96","4z6db74p8xzyshe",596,"81.csv","","195.30000001192093","resources/trios/L4T2A2.jpg","37","restless",0.7,0.4,0.4,0.61227072998592,"true"
"image-keyboard-response",301,493234,"0.0-4.96-1.96","4z6db74p8xzyshe",596,"81.csv","","null","resources/maskTrios/L4BB.jpg","null","",NA,NA,NA,NA,""
"image-keyboard-response",302,494447,"0.0-4.96-2.96","4z6db74p8xzyshe",596,"81.csv","","null","resources/images/coin2.png","null","",NA,NA,NA,NA,""
"image-keyboard-response",303,494881,"0.0-4.97-0.97","4z6db74p8xzyshe",596,"81.csv","","431.69999998807907","resources/trios/L4T2A2.jpg","37","restless",0.7,0.4,0.4,0.339537743520594,"true"
"image-keyboard-response",304,495294,"0.0-4.97-1.97","4z6db74p8xzyshe",596,"81.csv","","null","resources/maskTrios/L4BB.jpg","null","",NA,NA,NA,NA,""
"image-keyboard-response",305,496496,"0.0-4.97-2.97","4z6db74p8xzyshe",596,"81.csv","","null","resources/images/coin2.png","null","",NA,NA,NA,NA,""
"image-keyboard-response",306,496792,"0.0-4.98-0.98","4z6db74p8xzyshe",596,"81.csv","","294.39999997615814","resources/trios/L4T2A2.jpg","37","restless",0.7,0.4,0.4,0.82717708821598,"false"
"image-keyboard-response",307,497207,"0.0-4.98-1.98","4z6db74p8xzyshe",596,"81.csv","","null","resources/maskTrios/L4BB.jpg","null","",NA,NA,NA,NA,""
"image-keyboard-response",308,498419,"0.0-4.98-2.98","4z6db74p8xzyshe",596,"81.csv","","null","resources/images/fishbone.png","null","",NA,NA,NA,NA,""
"image-keyboard-response",309,499008,"0.0-4.99-0.99","4z6db74p8xzyshe",596,"81.csv","","587.3999999761581","resources/trios/L4T2A2.jpg","37","restless",0.7,0.4,0.4,0.978148839347236,"false"
"image-keyboard-response",310,499412,"0.0-4.99-1.99","4z6db74p8xzyshe",596,"81.csv","","null","resources/maskTrios/L4BB.jpg","null","",NA,NA,NA,NA,""
"image-keyboard-response",311,500619,"0.0-4.99-2.99","4z6db74p8xzyshe",596,"81.csv","","null","resources/images/fishbone.png","null","",NA,NA,NA,NA,""
"image-keyboard-response",312,501331,"0.0-4.100-0.100","4z6db74p8xzyshe",596,"81.csv","","710.1999999880791","resources/trios/L4T2A2.jpg","38","restless",0.7,0.4,0.4,0.435964753631799,"false"
"image-keyboard-response",313,501739,"0.0-4.100-1.100","4z6db74p8xzyshe",596,"81.csv","","null","resources/maskTrios/BT2B.jpg","null","",NA,NA,NA,NA,""
"image-keyboard-response",314,502948,"0.0-4.100-2.100","4z6db74p8xzyshe",596,"81.csv","","null","resources/images/fishbone.png","null","",NA,NA,NA,NA,""
"image-keyboard-response",315,503287,"0.0-4.101-0.101","4z6db74p8xzyshe",596,"81.csv","","337.89999997615814","resources/trios/L4T2A2.jpg","38","restless",0.7,0.4,0.4,0.148133582369122,"true"
"image-keyboard-response",316,503701,"0.0-4.101-1.101","4z6db74p8xzyshe",596,"81.csv","","null","resources/maskTrios/BT2B.jpg","null","",NA,NA,NA,NA,""
"image-keyboard-response",317,504904,"0.0-4.101-2.101","4z6db74p8xzyshe",596,"81.csv","","null","resources/images/coin2.png","null","",NA,NA,NA,NA,""
"image-keyboard-response",318,505221,"0.0-4.102-0.102","4z6db74p8xzyshe",596,"81.csv","","315.19999998807907","resources/trios/L4T2A2.jpg","38","restless",0.7,0.4,0.4,0.931956538795119,"false"
"image-keyboard-response",319,505627,"0.0-4.102-1.102","4z6db74p8xzyshe",596,"81.csv","","null","resources/maskTrios/BT2B.jpg","null","",NA,NA,NA,NA,""
"image-keyboard-response",320,506830,"0.0-4.102-2.102","4z6db74p8xzyshe",596,"81.csv","","null","resources/images/fishbone.png","null","",NA,NA,NA,NA,""
"image-keyboard-response",321,507093,"0.0-4.103-0.103","4z6db74p8xzyshe",596,"81.csv","","261.5","resources/trios/L4T2A2.jpg","39","restless",0.6,0.4,0.4,0.204298158742407,"true"
"image-keyboard-response",322,507507,"0.0-4.103-1.103","4z6db74p8xzyshe",596,"81.csv","","null","resources/maskTrios/BBA2.jpg","null","",NA,NA,NA,NA,""
"image-keyboard-response",323,508719,"0.0-4.103-2.103","4z6db74p8xzyshe",596,"81.csv","","null","resources/images/coin2.png","null","",NA,NA,NA,NA,""
"image-keyboard-response",324,508979,"0.0-4.104-0.104","4z6db74p8xzyshe",596,"81.csv","","258.39999997615814","resources/trios/L4T2A2.jpg","39","restless",0.6,0.4,0.5,0.130951236346592,"true"
"image-keyboard-response",325,509381,"0.0-4.104-1.104","4z6db74p8xzyshe",596,"81.csv","","null","resources/maskTrios/BBA2.jpg","null","",NA,NA,NA,NA,""
"image-keyboard-response",326,510592,"0.0-4.104-2.104","4z6db74p8xzyshe",596,"81.csv","","null","resources/images/coin2.png","null","",NA,NA,NA,NA,""
"image-keyboard-response",327,510810,"0.0-4.105-0.105","4z6db74p8xzyshe",596,"81.csv","","216.19999998807907","resources/trios/L4T2A2.jpg","39","restless",0.6,0.4,0.5,0.795131876572733,"false"
"image-keyboard-response",328,511225,"0.0-4.105-1.105","4z6db74p8xzyshe",596,"81.csv","","null","resources/maskTrios/BBA2.jpg","null","",NA,NA,NA,NA,""
"image-keyboard-response",329,512428,"0.0-4.105-2.105","4z6db74p8xzyshe",596,"81.csv","","null","resources/images/fishbone.png","null","",NA,NA,NA,NA,""
"image-keyboard-response",330,512621,"0.0-4.106-0.106","4z6db74p8xzyshe",596,"81.csv","","190.70000004768372","resources/trios/L4T2A2.jpg","37","restless",0.5,0.4,0.6,0.71634284438836,"false"
"image-keyboard-response",331,513026,"0.0-4.106-1.106","4z6db74p8xzyshe",596,"81.csv","","null","resources/maskTrios/L4BB.jpg","null","",NA,NA,NA,NA,""
"image-keyboard-response",332,514227,"0.0-4.106-2.106","4z6db74p8xzyshe",596,"81.csv","","null","resources/images/fishbone.png","null","",NA,NA,NA,NA,""
"image-keyboard-response",333,514455,"0.0-4.107-0.107","4z6db74p8xzyshe",596,"81.csv","","225.80000001192093","resources/trios/L4T2A2.jpg","38","restless",0.5,0.4,0.6,0.197037357277487,"true"
"image-keyboard-response",334,514869,"0.0-4.107-1.107","4z6db74p8xzyshe",596,"81.csv","","null","resources/maskTrios/BT2B.jpg","null","",NA,NA,NA,NA,""
"image-keyboard-response",335,516075,"0.0-4.107-2.107","4z6db74p8xzyshe",596,"81.csv","","null","resources/images/coin2.png","null","",NA,NA,NA,NA,""
"image-keyboard-response",336,516316,"0.0-4.108-0.108","4z6db74p8xzyshe",596,"81.csv","","239.30000001192093","resources/trios/L4T2A2.jpg","38","restless",0.5,0.3,0.6,0.314997737357862,"false"
"image-keyboard-response",337,516727,"0.0-4.108-1.108","4z6db74p8xzyshe",596,"81.csv","","null","resources/maskTrios/BT2B.jpg","null","",NA,NA,NA,NA,""
"image-keyboard-response",338,517930,"0.0-4.108-2.108","4z6db74p8xzyshe",596,"81.csv","","null","resources/images/fishbone.png","null","",NA,NA,NA,NA,""
"image-keyboard-response",339,518231,"0.0-4.109-0.109","4z6db74p8xzyshe",596,"81.csv","","300.5","resources/trios/L4T2A2.jpg","39","restless",0.5,0.3,0.6,0.542997667634455,"true"
"image-keyboard-response",340,518635,"0.0-4.109-1.109","4z6db74p8xzyshe",596,"81.csv","","null","resources/maskTrios/BBA2.jpg","null","",NA,NA,NA,NA,""
"image-keyboard-response",341,519842,"0.0-4.109-2.109","4z6db74p8xzyshe",596,"81.csv","","null","resources/images/coin2.png","null","",NA,NA,NA,NA,""
"image-keyboard-response",342,520063,"0.0-4.110-0.110","4z6db74p8xzyshe",596,"81.csv","","219.5","resources/trios/L4T2A2.jpg","39","restless",0.5,0.3,0.6,0.908995191922922,"false"
"image-keyboard-response",343,520466,"0.0-4.110-1.110","4z6db74p8xzyshe",596,"81.csv","","null","resources/maskTrios/BBA2.jpg","null","",NA,NA,NA,NA,""
"image-keyboard-response",344,521673,"0.0-4.110-2.110","4z6db74p8xzyshe",596,"81.csv","","null","resources/images/fishbone.png","null","",NA,NA,NA,NA,""
"image-keyboard-response",345,521891,"0.0-4.111-0.111","4z6db74p8xzyshe",596,"81.csv","","216.29999995231628","resources/trios/L4T2A2.jpg","37","restless",0.5,0.3,0.6,0.313263955753707,"true"
"image-keyboard-response",346,522303,"0.0-4.111-1.111","4z6db74p8xzyshe",596,"81.csv","","null","resources/maskTrios/L4BB.jpg","null","",NA,NA,NA,NA,""
"image-keyboard-response",347,523509,"0.0-4.111-2.111","4z6db74p8xzyshe",596,"81.csv","","null","resources/images/coin2.png","null","",NA,NA,NA,NA,""
"image-keyboard-response",348,523807,"0.0-4.112-0.112","4z6db74p8xzyshe",596,"81.csv","","295.89999997615814","resources/trios/L4T2A2.jpg","38","restless",0.5,0.3,0.6,0.251328351332814,"true"
"image-keyboard-response",349,524218,"0.0-4.112-1.112","4z6db74p8xzyshe",596,"81.csv","","null","resources/maskTrios/BT2B.jpg","null","",NA,NA,NA,NA,""
"image-keyboard-response",350,525421,"0.0-4.112-2.112","4z6db74p8xzyshe",596,"81.csv","","null","resources/images/coin2.png","null","",NA,NA,NA,NA,""
"image-keyboard-response",351,525732,"0.0-4.113-0.113","4z6db74p8xzyshe",596,"81.csv","","309.5","resources/trios/L4T2A2.jpg","39","restless",0.5,0.3,0.6,0.934305653159784,"false"
"image-keyboard-response",352,526143,"0.0-4.113-1.113","4z6db74p8xzyshe",596,"81.csv","","null","resources/maskTrios/BBA2.jpg","null","",NA,NA,NA,NA,""
"image-keyboard-response",353,527348,"0.0-4.113-2.113","4z6db74p8xzyshe",596,"81.csv","","null","resources/images/fishbone.png","null","",NA,NA,NA,NA,""
"image-keyboard-response",354,527581,"0.0-4.114-0.114","4z6db74p8xzyshe",596,"81.csv","","230.5","resources/trios/L4T2A2.jpg","37","restless",0.5,0.3,0.6,0.394943292832499,"true"
"image-keyboard-response",355,527986,"0.0-4.114-1.114","4z6db74p8xzyshe",596,"81.csv","","null","resources/maskTrios/L4BB.jpg","null","",NA,NA,NA,NA,""
"image-keyboard-response",356,529193,"0.0-4.114-2.114","4z6db74p8xzyshe",596,"81.csv","","null","resources/images/coin2.png","null","",NA,NA,NA,NA,""
"image-keyboard-response",357,529438,"0.0-4.115-0.115","4z6db74p8xzyshe",596,"81.csv","","243.20000004768372","resources/trios/L4T2A2.jpg","37","restless",0.5,0.4,0.6,0.155028187365091,"true"
"image-keyboard-response",358,529842,"0.0-4.115-1.115","4z6db74p8xzyshe",596,"81.csv","","null","resources/maskTrios/L4BB.jpg","null","",NA,NA,NA,NA,""
"image-keyboard-response",359,531059,"0.0-4.115-2.115","4z6db74p8xzyshe",596,"81.csv","","null","resources/images/coin2.png","null","",NA,NA,NA,NA,""
"image-keyboard-response",360,531287,"0.0-4.116-0.116","4z6db74p8xzyshe",596,"81.csv","","225.9000000357628","resources/trios/L4T2A2.jpg","37","restless",0.5,0.5,0.6,0.13578673222437,"true"
"image-keyboard-response",361,531700,"0.0-4.116-1.116","4z6db74p8xzyshe",596,"81.csv","","null","resources/maskTrios/L4BB.jpg","null","",NA,NA,NA,NA,""
"image-keyboard-response",362,532911,"0.0-4.116-2.116","4z6db74p8xzyshe",596,"81.csv","","null","resources/images/coin2.png","null","",NA,NA,NA,NA,""
"image-keyboard-response",363,533122,"0.0-4.117-0.117","4z6db74p8xzyshe",596,"81.csv","","209","resources/trios/L4T2A2.jpg","37","restless",0.5,0.5,0.6,0.85771992013773,"false"
"image-keyboard-response",364,533531,"0.0-4.117-1.117","4z6db74p8xzyshe",596,"81.csv","","null","resources/maskTrios/L4BB.jpg","null","",NA,NA,NA,NA,""
"image-keyboard-response",365,534735,"0.0-4.117-2.117","4z6db74p8xzyshe",596,"81.csv","","null","resources/images/fishbone.png","null","",NA,NA,NA,NA,""
"image-keyboard-response",366,535212,"0.0-4.118-0.118","4z6db74p8xzyshe",596,"81.csv","","475.19999998807907","resources/trios/L4T2A2.jpg","38","restless",0.5,0.5,0.6,0.926157964112811,"false"
"image-keyboard-response",367,535622,"0.0-4.118-1.118","4z6db74p8xzyshe",596,"81.csv","","null","resources/maskTrios/BT2B.jpg","null","",NA,NA,NA,NA,""
"image-keyboard-response",368,536825,"0.0-4.118-2.118","4z6db74p8xzyshe",596,"81.csv","","null","resources/images/fishbone.png","null","",NA,NA,NA,NA,""
"image-keyboard-response",369,537225,"0.0-4.119-0.119","4z6db74p8xzyshe",596,"81.csv","","398.69999998807907","resources/trios/L4T2A2.jpg","37","restless",0.4,0.6,0.6,0.897271167294439,"false"
"image-keyboard-response",370,537637,"0.0-4.119-1.119","4z6db74p8xzyshe",596,"81.csv","","null","resources/maskTrios/L4BB.jpg","null","",NA,NA,NA,NA,""
"image-keyboard-response",371,538854,"0.0-4.119-2.119","4z6db74p8xzyshe",596,"81.csv","","null","resources/images/fishbone.png","null","",NA,NA,NA,NA,""
"image-keyboard-response",372,539182,"0.0-4.120-0.120","4z6db74p8xzyshe",596,"81.csv","","326.30000001192093","resources/trios/L4T2A2.jpg","39","restless",0.4,0.6,0.6,0.796855084086511,"false"
"image-keyboard-response",373,539592,"0.0-4.120-1.120","4z6db74p8xzyshe",596,"81.csv","","null","resources/maskTrios/BBA2.jpg","null","",NA,NA,NA,NA,""
"image-keyboard-response",374,540799,"0.0-4.120-2.120","4z6db74p8xzyshe",596,"81.csv","","null","resources/images/fishbone.png","null","",NA,NA,NA,NA,""
"image-keyboard-response",375,541030,"0.0-4.121-0.121","4z6db74p8xzyshe",596,"81.csv","","229.60000002384186","resources/trios/L4T2A2.jpg","38","restless",0.4,0.6,0.6,0.234701642081527,"true"
"image-keyboard-response",376,541444,"0.0-4.121-1.121","4z6db74p8xzyshe",596,"81.csv","","null","resources/maskTrios/BT2B.jpg","null","",NA,NA,NA,NA,""
"image-keyboard-response",377,542648,"0.0-4.121-2.121","4z6db74p8xzyshe",596,"81.csv","","null","resources/images/coin2.png","null","",NA,NA,NA,NA,""
"image-keyboard-response",378,542900,"0.0-4.122-0.122","4z6db74p8xzyshe",596,"81.csv","","249.9000000357628","resources/trios/L4T2A2.jpg","38","restless",0.4,0.6,0.6,0.255325500929465,"true"
"image-keyboard-response",379,543304,"0.0-4.122-1.122","4z6db74p8xzyshe",596,"81.csv","","null","resources/maskTrios/BT2B.jpg","null","",NA,NA,NA,NA,""
"image-keyboard-response",380,544517,"0.0-4.122-2.122","4z6db74p8xzyshe",596,"81.csv","","null","resources/images/coin2.png","null","",NA,NA,NA,NA,""
"image-keyboard-response",381,544787,"0.0-4.123-0.123","4z6db74p8xzyshe",596,"81.csv","","268.80000001192093","resources/trios/L4T2A2.jpg","38","restless",0.4,0.6,0.6,0.0230850951376882,"true"
"image-keyboard-response",382,545199,"0.0-4.123-1.123","4z6db74p8xzyshe",596,"81.csv","","null","resources/maskTrios/BT2B.jpg","null","",NA,NA,NA,NA,""
"image-keyboard-response",383,546416,"0.0-4.123-2.123","4z6db74p8xzyshe",596,"81.csv","","null","resources/images/coin2.png","null","",NA,NA,NA,NA,""
"image-keyboard-response",384,546729,"0.0-4.124-0.124","4z6db74p8xzyshe",596,"81.csv","","311.5","resources/trios/L4T2A2.jpg","38","restless",0.4,0.6,0.6,0.060696622033596,"true"
"image-keyboard-response",385,547136,"0.0-4.124-1.124","4z6db74p8xzyshe",596,"81.csv","","null","resources/maskTrios/BT2B.jpg","null","",NA,NA,NA,NA,""
"image-keyboard-response",386,548344,"0.0-4.124-2.124","4z6db74p8xzyshe",596,"81.csv","","null","resources/images/coin2.png","null","",NA,NA,NA,NA,""
"image-keyboard-response",387,548585,"0.0-4.125-0.125","4z6db74p8xzyshe",596,"81.csv","","239.30000001192093","resources/trios/L4T2A2.jpg","38","restless",0.4,0.6,0.6,0.191032121012896,"true"
"image-keyboard-response",388,548992,"0.0-4.125-1.125","4z6db74p8xzyshe",596,"81.csv","","null","resources/maskTrios/BT2B.jpg","null","",NA,NA,NA,NA,""
"image-keyboard-response",389,550204,"0.0-4.125-2.125","4z6db74p8xzyshe",596,"81.csv","","null","resources/images/coin2.png","null","",NA,NA,NA,NA,""
"image-keyboard-response",390,550407,"0.0-4.126-0.126","4z6db74p8xzyshe",596,"81.csv","","201.5","resources/trios/L4T2A2.jpg","38","restless",0.4,0.6,0.6,0.555889997745811,"true"
"image-keyboard-response",391,550819,"0.0-4.126-1.126","4z6db74p8xzyshe",596,"81.csv","","null","resources/maskTrios/BT2B.jpg","null","",NA,NA,NA,NA,""
"image-keyboard-response",392,552028,"0.0-4.126-2.126","4z6db74p8xzyshe",596,"81.csv","","null","resources/images/coin2.png","null","",NA,NA,NA,NA,""
"image-keyboard-response",393,552311,"0.0-4.127-0.127","4z6db74p8xzyshe",596,"81.csv","","281.0999999642372","resources/trios/L4T2A2.jpg","38","restless",0.4,0.6,0.6,0.999818555393574,"false"
"image-keyboard-response",394,552715,"0.0-4.127-1.127","4z6db74p8xzyshe",596,"81.csv","","null","resources/maskTrios/BT2B.jpg","null","",NA,NA,NA,NA,""
"image-keyboard-response",395,553927,"0.0-4.127-2.127","4z6db74p8xzyshe",596,"81.csv","","null","resources/images/fishbone.png","null","",NA,NA,NA,NA,""
"image-keyboard-response",396,554155,"0.0-4.128-0.128","4z6db74p8xzyshe",596,"81.csv","","226.29999995231628","resources/trios/L4T2A2.jpg","37","restless",0.4,0.6,0.7,0.253815434134943,"true"
"image-keyboard-response",397,554558,"0.0-4.128-1.128","4z6db74p8xzyshe",596,"81.csv","","null","resources/maskTrios/L4BB.jpg","null","",NA,NA,NA,NA,""
"image-keyboard-response",398,555768,"0.0-4.128-2.128","4z6db74p8xzyshe",596,"81.csv","","null","resources/images/coin2.png","null","",NA,NA,NA,NA,""
"image-keyboard-response",399,555971,"0.0-4.129-0.129","4z6db74p8xzyshe",596,"81.csv","","201","resources/trios/L4T2A2.jpg","37","restless",0.4,0.6,0.6,0.394055815095799,"true"
"image-keyboard-response",400,556385,"0.0-4.129-1.129","4z6db74p8xzyshe",596,"81.csv","","null","resources/maskTrios/L4BB.jpg","null","",NA,NA,NA,NA,""
"image-keyboard-response",401,557598,"0.0-4.129-2.129","4z6db74p8xzyshe",596,"81.csv","","null","resources/images/coin2.png","null","",NA,NA,NA,NA,""
"image-keyboard-response",402,557827,"0.0-4.130-0.130","4z6db74p8xzyshe",596,"81.csv","","227.69999998807907","resources/trios/L4T2A2.jpg","37","restless",0.4,0.6,0.6,0.883821390595774,"false"
"image-keyboard-response",403,558231,"0.0-4.130-1.130","4z6db74p8xzyshe",596,"81.csv","","null","resources/maskTrios/L4BB.jpg","null","",NA,NA,NA,NA,""
"image-keyboard-response",404,559436,"0.0-4.130-2.130","4z6db74p8xzyshe",596,"81.csv","","null","resources/images/fishbone.png","null","",NA,NA,NA,NA,""
"image-keyboard-response",405,559680,"0.0-4.131-0.131","4z6db74p8xzyshe",596,"81.csv","","243.10000002384186","resources/trios/L4T2A2.jpg","39","restless",0.4,0.7,0.6,0.939542810907861,"false"
"image-keyboard-response",406,560083,"0.0-4.131-1.131","4z6db74p8xzyshe",596,"81.csv","","null","resources/maskTrios/BBA2.jpg","null","",NA,NA,NA,NA,""
"image-keyboard-response",407,561285,"0.0-4.131-2.131","4z6db74p8xzyshe",596,"81.csv","","null","resources/images/fishbone.png","null","",NA,NA,NA,NA,""
"image-keyboard-response",408,561511,"0.0-4.132-0.132","4z6db74p8xzyshe",596,"81.csv","","224.30000001192093","resources/trios/L4T2A2.jpg","38","restless",0.4,0.7,0.6,0.415469167138884,"true"
"image-keyboard-response",409,561924,"0.0-4.132-1.132","4z6db74p8xzyshe",596,"81.csv","","null","resources/maskTrios/BT2B.jpg","null","",NA,NA,NA,NA,""
"image-keyboard-response",410,563129,"0.0-4.132-2.132","4z6db74p8xzyshe",596,"81.csv","","null","resources/images/coin2.png","null","",NA,NA,NA,NA,""
"image-keyboard-response",411,563365,"0.0-4.133-0.133","4z6db74p8xzyshe",596,"81.csv","","234.69999998807907","resources/trios/L4T2A2.jpg","38","restless",0.4,0.7,0.6,0.398773427428321,"true"
"image-keyboard-response",412,563776,"0.0-4.133-1.133","4z6db74p8xzyshe",596,"81.csv","","null","resources/maskTrios/BT2B.jpg","null","",NA,NA,NA,NA,""
"image-keyboard-response",413,564981,"0.0-4.133-2.133","4z6db74p8xzyshe",596,"81.csv","","null","resources/images/coin2.png","null","",NA,NA,NA,NA,""
"image-keyboard-response",414,565233,"0.0-4.134-0.134","4z6db74p8xzyshe",596,"81.csv","","250.70000004768372","resources/trios/L4T2A2.jpg","38","restless",0.4,0.7,0.6,0.211216892604133,"true"
"image-keyboard-response",415,565639,"0.0-4.134-1.134","4z6db74p8xzyshe",596,"81.csv","","null","resources/maskTrios/BT2B.jpg","null","",NA,NA,NA,NA,""
"image-keyboard-response",416,566847,"0.0-4.134-2.134","4z6db74p8xzyshe",596,"81.csv","","null","resources/images/coin2.png","null","",NA,NA,NA,NA,""
"image-keyboard-response",417,567097,"0.0-4.135-0.135","4z6db74p8xzyshe",596,"81.csv","","248.4000000357628","resources/trios/L4T2A2.jpg","38","restless",0.4,0.7,0.6,0.351700635479509,"true"
"image-keyboard-response",418,567510,"0.0-4.135-1.135","4z6db74p8xzyshe",596,"81.csv","","null","resources/maskTrios/BT2B.jpg","null","",NA,NA,NA,NA,""
"image-keyboard-response",419,568716,"0.0-4.135-2.135","4z6db74p8xzyshe",596,"81.csv","","null","resources/images/coin2.png","null","",NA,NA,NA,NA,""
"image-keyboard-response",420,568959,"0.0-4.136-0.136","4z6db74p8xzyshe",596,"81.csv","","241.10000002384186","resources/trios/L4T2A2.jpg","38","restless",0.4,0.7,0.6,0.19684234270093,"true"
"image-keyboard-response",421,569367,"0.0-4.136-1.136","4z6db74p8xzyshe",596,"81.csv","","null","resources/maskTrios/BT2B.jpg","null","",NA,NA,NA,NA,""
"image-keyboard-response",422,570573,"0.0-4.136-2.136","4z6db74p8xzyshe",596,"81.csv","","null","resources/images/coin2.png","null","",NA,NA,NA,NA,""
"image-keyboard-response",423,570797,"0.0-4.137-0.137","4z6db74p8xzyshe",596,"81.csv","","222.10000002384186","resources/trios/L4T2A2.jpg","38","restless",0.4,0.7,0.6,0.13071673754645,"true"
"image-keyboard-response",424,571205,"0.0-4.137-1.137","4z6db74p8xzyshe",596,"81.csv","","null","resources/maskTrios/BT2B.jpg","null","",NA,NA,NA,NA,""
"image-keyboard-response",425,572412,"0.0-4.137-2.137","4z6db74p8xzyshe",596,"81.csv","","null","resources/images/coin2.png","null","",NA,NA,NA,NA,""
"image-keyboard-response",426,572656,"0.0-4.138-0.138","4z6db74p8xzyshe",596,"81.csv","","241.5999999642372","resources/trios/L4T2A2.jpg","38","restless",0.4,0.8,0.6,0.948585800891597,"false"
"image-keyboard-response",427,573058,"0.0-4.138-1.138","4z6db74p8xzyshe",596,"81.csv","","null","resources/maskTrios/BT2B.jpg","null","",NA,NA,NA,NA,""
"image-keyboard-response",428,574270,"0.0-4.138-2.138","4z6db74p8xzyshe",596,"81.csv","","null","resources/images/fishbone.png","null","",NA,NA,NA,NA,""
"image-keyboard-response",429,574498,"0.0-4.139-0.139","4z6db74p8xzyshe",596,"81.csv","","226.60000002384186","resources/trios/L4T2A2.jpg","37","restless",0.4,0.8,0.5,0.375744803351011,"true"
"image-keyboard-response",430,574910,"0.0-4.139-1.139","4z6db74p8xzyshe",596,"81.csv","","null","resources/maskTrios/L4BB.jpg","null","",NA,NA,NA,NA,""
"image-keyboard-response",431,576125,"0.0-4.139-2.139","4z6db74p8xzyshe",596,"81.csv","","null","resources/images/coin2.png","null","",NA,NA,NA,NA,""
"image-keyboard-response",432,576326,"0.0-4.140-0.140","4z6db74p8xzyshe",596,"81.csv","","199.39999997615814","resources/trios/L4T2A2.jpg","37","restless",0.4,0.8,0.5,0.933096124761387,"false"
"image-keyboard-response",433,576734,"0.0-4.140-1.140","4z6db74p8xzyshe",596,"81.csv","","null","resources/maskTrios/L4BB.jpg","null","",NA,NA,NA,NA,""
"image-keyboard-response",434,577941,"0.0-4.140-2.140","4z6db74p8xzyshe",596,"81.csv","","null","resources/images/fishbone.png","null","",NA,NA,NA,NA,""
"image-keyboard-response",435,578393,"0.0-4.141-0.141","4z6db74p8xzyshe",596,"81.csv","","450.2000000476837","resources/trios/L4T2A2.jpg","39","restless",0.4,0.8,0.5,0.419261453055705,"true"
"image-keyboard-response",436,578805,"0.0-4.141-1.141","4z6db74p8xzyshe",596,"81.csv","","null","resources/maskTrios/BBA2.jpg","null","",NA,NA,NA,NA,""
"image-keyboard-response",437,580016,"0.0-4.141-2.141","4z6db74p8xzyshe",596,"81.csv","","null","resources/images/coin2.png","null","",NA,NA,NA,NA,""
"image-keyboard-response",438,580285,"0.0-4.142-0.142","4z6db74p8xzyshe",596,"81.csv","","266.80000001192093","resources/trios/L4T2A2.jpg","39","restless",0.4,0.8,0.5,0.0605820185258203,"true"
"image-keyboard-response",439,580696,"0.0-4.142-1.142","4z6db74p8xzyshe",596,"81.csv","","null","resources/maskTrios/BBA2.jpg","null","",NA,NA,NA,NA,""
"image-keyboard-response",440,581907,"0.0-4.142-2.142","4z6db74p8xzyshe",596,"81.csv","","null","resources/images/coin2.png","null","",NA,NA,NA,NA,""
"image-keyboard-response",441,581964,"0.0-4.143-0.143","4z6db74p8xzyshe",596,"81.csv","","54.89999997615814","resources/trios/L4T2A2.jpg","39","restless",0.4,0.8,0.5,0.102034823485429,"true"
"image-keyboard-response",442,582371,"0.0-4.143-1.143","4z6db74p8xzyshe",596,"81.csv","","null","resources/maskTrios/BBA2.jpg","null","",NA,NA,NA,NA,""
"image-keyboard-response",443,583573,"0.0-4.143-2.143","4z6db74p8xzyshe",596,"81.csv","","null","resources/images/coin2.png","null","",NA,NA,NA,NA,""
"image-keyboard-response",444,583767,"0.0-4.144-0.144","4z6db74p8xzyshe",596,"81.csv","","192.10000002384186","resources/trios/L4T2A2.jpg","39","restless",0.4,0.8,0.5,0.844738374171123,"false"
"image-keyboard-response",445,584169,"0.0-4.144-1.144","4z6db74p8xzyshe",596,"81.csv","","null","resources/maskTrios/BBA2.jpg","null","",NA,NA,NA,NA,""
"image-keyboard-response",446,585375,"0.0-4.144-2.144","4z6db74p8xzyshe",596,"81.csv","","null","resources/images/fishbone.png","null","",NA,NA,NA,NA,""
"image-keyboard-response",447,585837,"0.0-4.145-0.145","4z6db74p8xzyshe",596,"81.csv","","460.30000001192093","resources/trios/L4T2A2.jpg","38","restless",0.4,0.8,0.5,0.663860879952082,"true"
"image-keyboard-response",448,586248,"0.0-4.145-1.145","4z6db74p8xzyshe",596,"81.csv","","null","resources/maskTrios/BT2B.jpg","null","",NA,NA,NA,NA,""
"image-keyboard-response",449,587459,"0.0-4.145-2.145","4z6db74p8xzyshe",596,"81.csv","","null","resources/images/coin2.png","null","",NA,NA,NA,NA,""
"image-keyboard-response",450,587764,"0.0-4.146-0.146","4z6db74p8xzyshe",596,"81.csv","","304.10000002384186","resources/trios/L4T2A2.jpg","38","restless",0.4,0.7,0.5,0.60111192416567,"true"
"image-keyboard-response",451,588179,"0.0-4.146-1.146","4z6db74p8xzyshe",596,"81.csv","","null","resources/maskTrios/BT2B.jpg","null","",NA,NA,NA,NA,""
"image-keyboard-response",452,589394,"0.0-4.146-2.146","4z6db74p8xzyshe",596,"81.csv","","null","resources/images/coin2.png","null","",NA,NA,NA,NA,""
"image-keyboard-response",453,589573,"0.0-4.147-0.147","4z6db74p8xzyshe",596,"81.csv","","177.19999998807907","resources/trios/L4T2A2.jpg","38","restless",0.4,0.7,0.4,0.385649510536007,"true"
"image-keyboard-response",454,589989,"0.0-4.147-1.147","4z6db74p8xzyshe",596,"81.csv","","null","resources/maskTrios/BT2B.jpg","null","",NA,NA,NA,NA,""
"image-keyboard-response",455,591195,"0.0-4.147-2.147","4z6db74p8xzyshe",596,"81.csv","","null","resources/images/coin2.png","null","",NA,NA,NA,NA,""
"image-keyboard-response",456,591398,"0.0-4.148-0.148","4z6db74p8xzyshe",596,"81.csv","","201.60000002384186","resources/trios/L4T2A2.jpg","38","restless",0.4,0.7,0.4,0.403971661331657,"true"
"image-keyboard-response",457,591812,"0.0-4.148-1.148","4z6db74p8xzyshe",596,"81.csv","","null","resources/maskTrios/BT2B.jpg","null","",NA,NA,NA,NA,""
"image-keyboard-response",458,593021,"0.0-4.148-2.148","4z6db74p8xzyshe",596,"81.csv","","null","resources/images/coin2.png","null","",NA,NA,NA,NA,""
"image-keyboard-response",459,593169,"0.0-4.149-0.149","4z6db74p8xzyshe",596,"81.csv","","146.39999997615814","resources/trios/L4T2A2.jpg","38","restless",0.3,0.7,0.4,0.138606208801794,"true"
"image-keyboard-response",460,593583,"0.0-4.149-1.149","4z6db74p8xzyshe",596,"81.csv","","null","resources/maskTrios/BT2B.jpg","null","",NA,NA,NA,NA,""
"image-keyboard-response",461,594785,"0.0-4.149-2.149","4z6db74p8xzyshe",596,"81.csv","","null","resources/images/coin2.png","null","",NA,NA,NA,NA,""
"image-keyboard-response",462,594800,"0.0-4.150-0.150","4z6db74p8xzyshe",596,"81.csv","","13.600000023841858","resources/trios/L4T2A2.jpg","38","restless",0.3,0.7,0.4,0.581891225864708,"true"
"image-keyboard-response",463,595204,"0.0-4.150-1.150","4z6db74p8xzyshe",596,"81.csv","","null","resources/maskTrios/BT2B.jpg","null","",NA,NA,NA,NA,""
"image-keyboard-response",464,596421,"0.0-4.150-2.150","4z6db74p8xzyshe",596,"81.csv","","null","resources/images/coin2.png","null","",NA,NA,NA,NA,""
"image-keyboard-response",465,596947,"0.0-4.151-0.151","4z6db74p8xzyshe",596,"81.csv","","524.2999999523163","resources/trios/L4T2A2.jpg","38","restless",0.3,0.7,0.4,0.3992628689581,"true"
"image-keyboard-response",466,597353,"0.0-4.151-1.151","4z6db74p8xzyshe",596,"81.csv","","null","resources/maskTrios/BT2B.jpg","null","",NA,NA,NA,NA,""
"image-keyboard-response",467,598561,"0.0-4.151-2.151","4z6db74p8xzyshe",596,"81.csv","","null","resources/images/coin2.png","null","",NA,NA,NA,NA,""
"image-keyboard-response",468,599121,"0.0-4.152-0.152","4z6db74p8xzyshe",596,"81.csv","","557.9000000357628","resources/trios/L4T2A2.jpg","38","restless",0.3,0.7,0.4,0.490846264546665,"true"
"image-keyboard-response",469,599538,"0.0-4.152-1.152","4z6db74p8xzyshe",596,"81.csv","","null","resources/maskTrios/BT2B.jpg","null","",NA,NA,NA,NA,""
"image-keyboard-response",470,600742,"0.0-4.152-2.152","4z6db74p8xzyshe",596,"81.csv","","null","resources/images/coin2.png","null","",NA,NA,NA,NA,""
"image-keyboard-response",471,600816,"0.0-4.153-0.153","4z6db74p8xzyshe",596,"81.csv","","72.69999998807907","resources/trios/L4T2A2.jpg","38","restless",0.3,0.7,0.4,0.68383279118031,"true"
"image-keyboard-response",472,601218,"0.0-4.153-1.153","4z6db74p8xzyshe",596,"81.csv","","null","resources/maskTrios/BT2B.jpg","null","",NA,NA,NA,NA,""
"image-keyboard-response",473,602422,"0.0-4.153-2.153","4z6db74p8xzyshe",596,"81.csv","","null","resources/images/coin2.png","null","",NA,NA,NA,NA,""
"image-keyboard-response",474,602588,"0.0-4.154-0.154","4z6db74p8xzyshe",596,"81.csv","","163.60000002384186","resources/trios/L4T2A2.jpg","38","restless",0.3,0.7,0.4,0.274497766085334,"true"
"image-keyboard-response",475,602999,"0.0-4.154-1.154","4z6db74p8xzyshe",596,"81.csv","","null","resources/maskTrios/BT2B.jpg","null","",NA,NA,NA,NA,""
"image-keyboard-response",476,604216,"0.0-4.154-2.154","4z6db74p8xzyshe",596,"81.csv","","null","resources/images/coin2.png","null","",NA,NA,NA,NA,""
"image-keyboard-response",477,604651,"0.0-4.155-0.155","4z6db74p8xzyshe",596,"81.csv","","433.19999998807907","resources/trios/L4T2A2.jpg","38","restless",0.3,0.7,0.4,0.557102667333905,"true"
"image-keyboard-response",478,605053,"0.0-4.155-1.155","4z6db74p8xzyshe",596,"81.csv","","null","resources/maskTrios/BT2B.jpg","null","",NA,NA,NA,NA,""
"image-keyboard-response",479,606268,"0.0-4.155-2.155","4z6db74p8xzyshe",596,"81.csv","","null","resources/images/coin2.png","null","",NA,NA,NA,NA,""
"image-keyboard-response",480,606315,"0.0-4.156-0.156","4z6db74p8xzyshe",596,"81.csv","","45.69999998807907","resources/trios/L4T2A2.jpg","38","restless",0.3,0.7,0.4,0.708262953860126,"false"
"image-keyboard-response",481,606719,"0.0-4.156-1.156","4z6db74p8xzyshe",596,"81.csv","","null","resources/maskTrios/BT2B.jpg","null","",NA,NA,NA,NA,""
"image-keyboard-response",482,607932,"0.0-4.156-2.156","4z6db74p8xzyshe",596,"81.csv","","null","resources/images/fishbone.png","null","",NA,NA,NA,NA,""
"image-keyboard-response",483,608242,"0.0-4.157-0.157","4z6db74p8xzyshe",596,"81.csv","","308.19999998807907","resources/trios/L4T2A2.jpg","37","restless",0.3,0.7,0.4,0.288027397589282,"true"
"image-keyboard-response",484,608660,"0.0-4.157-1.157","4z6db74p8xzyshe",596,"81.csv","","null","resources/maskTrios/L4BB.jpg","null","",NA,NA,NA,NA,""
"image-keyboard-response",485,609862,"0.0-4.157-2.157","4z6db74p8xzyshe",596,"81.csv","","null","resources/images/coin2.png","null","",NA,NA,NA,NA,""
"image-keyboard-response",486,610070,"0.0-4.158-0.158","4z6db74p8xzyshe",596,"81.csv","","206.10000002384186","resources/trios/L4T2A2.jpg","37","restless",0.3,0.7,0.4,0.651969736436571,"false"
"image-keyboard-response",487,610475,"0.0-4.158-1.158","4z6db74p8xzyshe",596,"81.csv","","null","resources/maskTrios/L4BB.jpg","null","",NA,NA,NA,NA,""
"image-keyboard-response",488,611681,"0.0-4.158-2.158","4z6db74p8xzyshe",596,"81.csv","","null","resources/images/fishbone.png","null","",NA,NA,NA,NA,""
"image-keyboard-response",489,612092,"0.0-4.159-0.159","4z6db74p8xzyshe",596,"81.csv","","408.39999997615814","resources/trios/L4T2A2.jpg","39","restless",0.3,0.7,0.4,0.740220293399999,"false"
"image-keyboard-response",490,612508,"0.0-4.159-1.159","4z6db74p8xzyshe",596,"81.csv","","null","resources/maskTrios/BBA2.jpg","null","",NA,NA,NA,NA,""
"image-keyboard-response",491,613721,"0.0-4.159-2.159","4z6db74p8xzyshe",596,"81.csv","","null","resources/images/fishbone.png","null","",NA,NA,NA,NA,""
"image-keyboard-response",492,613929,"0.0-4.160-0.160","4z6db74p8xzyshe",596,"81.csv","","206.5","resources/trios/L4T2A2.jpg","38","restless",0.3,0.7,0.4,0.207683397639151,"true"
"image-keyboard-response",493,614337,"0.0-4.160-1.160","4z6db74p8xzyshe",596,"81.csv","","null","resources/maskTrios/BT2B.jpg","null","",NA,NA,NA,NA,""
"image-keyboard-response",494,615552,"0.0-4.160-2.160","4z6db74p8xzyshe",596,"81.csv","","null","resources/images/coin2.png","null","",NA,NA,NA,NA,""
"image-keyboard-response",495,615830,"0.0-4.161-0.161","4z6db74p8xzyshe",596,"81.csv","","276.2999999523163","resources/trios/L4T2A2.jpg","38","restless",0.3,0.7,0.5,0.74805296898146,"false"
"image-keyboard-response",496,616233,"0.0-4.161-1.161","4z6db74p8xzyshe",596,"81.csv","","null","resources/maskTrios/BT2B.jpg","null","",NA,NA,NA,NA,""
"image-keyboard-response",497,617443,"0.0-4.161-2.161","4z6db74p8xzyshe",596,"81.csv","","null","resources/images/fishbone.png","null","",NA,NA,NA,NA,""
"image-keyboard-response",498,617687,"0.0-4.162-0.162","4z6db74p8xzyshe",596,"81.csv","","242.10000002384186","resources/trios/L4T2A2.jpg","37","restless",0.3,0.7,0.5,0.990766179683453,"false"
"image-keyboard-response",499,618094,"0.0-4.162-1.162","4z6db74p8xzyshe",596,"81.csv","","null","resources/maskTrios/L4BB.jpg","null","",NA,NA,NA,NA,""
"image-keyboard-response",500,619308,"0.0-4.162-2.162","4z6db74p8xzyshe",596,"81.csv","","null","resources/images/fishbone.png","null","",NA,NA,NA,NA,""
"image-keyboard-response",501,619558,"0.0-4.163-0.163","4z6db74p8xzyshe",596,"81.csv","","248.5999999642372","resources/trios/L4T2A2.jpg","38","restless",0.3,0.7,0.5,0.466843654005906,"true"
"image-keyboard-response",502,619961,"0.0-4.163-1.163","4z6db74p8xzyshe",596,"81.csv","","null","resources/maskTrios/BT2B.jpg","null","",NA,NA,NA,NA,""
"image-keyboard-response",503,621177,"0.0-4.163-2.163","4z6db74p8xzyshe",596,"81.csv","","null","resources/images/coin2.png","null","",NA,NA,NA,NA,""
"image-keyboard-response",504,621472,"0.0-4.164-0.164","4z6db74p8xzyshe",596,"81.csv","","293.39999997615814","resources/trios/L4T2A2.jpg","38","restless",0.2,0.7,0.5,0.689239690447467,"true"
"image-keyboard-response",505,621881,"0.0-4.164-1.164","4z6db74p8xzyshe",596,"81.csv","","null","resources/maskTrios/BT2B.jpg","null","",NA,NA,NA,NA,""
"image-keyboard-response",506,623087,"0.0-4.164-2.164","4z6db74p8xzyshe",596,"81.csv","","null","resources/images/coin2.png","null","",NA,NA,NA,NA,""
"image-keyboard-response",507,623430,"0.0-4.165-0.165","4z6db74p8xzyshe",596,"81.csv","","341.30000001192093","resources/trios/L4T2A2.jpg","38","restless",0.2,0.7,0.5,0.694956351671029,"true"
"image-keyboard-response",508,623834,"0.0-4.165-1.165","4z6db74p8xzyshe",596,"81.csv","","null","resources/maskTrios/BT2B.jpg","null","",NA,NA,NA,NA,""
"image-keyboard-response",509,625046,"0.0-4.165-2.165","4z6db74p8xzyshe",596,"81.csv","","null","resources/images/coin2.png","null","",NA,NA,NA,NA,""
"image-keyboard-response",510,625513,"0.0-4.166-0.166","4z6db74p8xzyshe",596,"81.csv","","464.80000001192093","resources/trios/L4T2A2.jpg","38","restless",0.2,0.7,0.5,0.00240916928018153,"true"
"image-keyboard-response",511,625916,"0.0-4.166-1.166","4z6db74p8xzyshe",596,"81.csv","","null","resources/maskTrios/BT2B.jpg","null","",NA,NA,NA,NA,""
"image-keyboard-response",512,627118,"0.0-4.166-2.166","4z6db74p8xzyshe",596,"81.csv","","null","resources/images/coin2.png","null","",NA,NA,NA,NA,""
"image-keyboard-response",513,627299,"0.0-4.167-0.167","4z6db74p8xzyshe",596,"81.csv","","179.29999995231628","resources/trios/L4T2A2.jpg","38","restless",0.2,0.7,0.5,0.748222992052602,"false"
"image-keyboard-response",514,627711,"0.0-4.167-1.167","4z6db74p8xzyshe",596,"81.csv","","null","resources/maskTrios/BT2B.jpg","null","",NA,NA,NA,NA,""
"image-keyboard-response",515,628920,"0.0-4.167-2.167","4z6db74p8xzyshe",596,"81.csv","","null","resources/images/fishbone.png","null","",NA,NA,NA,NA,""
"image-keyboard-response",516,629318,"0.0-4.168-0.168","4z6db74p8xzyshe",596,"81.csv","","396.80000001192093","resources/trios/L4T2A2.jpg","38","restless",0.2,0.7,0.5,0.326846698728662,"true"
"image-keyboard-response",517,629735,"0.0-4.168-1.168","4z6db74p8xzyshe",596,"81.csv","","null","resources/maskTrios/BT2B.jpg","null","",NA,NA,NA,NA,""
"image-keyboard-response",518,630938,"0.0-4.168-2.168","4z6db74p8xzyshe",596,"81.csv","","null","resources/images/coin2.png","null","",NA,NA,NA,NA,""
"image-keyboard-response",519,631210,"0.0-4.169-0.169","4z6db74p8xzyshe",596,"81.csv","","270.80000001192093","resources/trios/L4T2A2.jpg","38","restless",0.2,0.7,0.5,0.352409679300106,"true"
"image-keyboard-response",520,631619,"0.0-4.169-1.169","4z6db74p8xzyshe",596,"81.csv","","null","resources/maskTrios/BT2B.jpg","null","",NA,NA,NA,NA,""
"image-keyboard-response",521,632835,"0.0-4.169-2.169","4z6db74p8xzyshe",596,"81.csv","","null","resources/images/coin2.png","null","",NA,NA,NA,NA,""
"image-keyboard-response",522,633081,"0.0-4.170-0.170","4z6db74p8xzyshe",596,"81.csv","","243.5","resources/trios/L4T2A2.jpg","38","restless",0.2,0.7,0.5,0.698780988285755,"true"
"image-keyboard-response",523,633495,"0.0-4.170-1.170","4z6db74p8xzyshe",596,"81.csv","","null","resources/maskTrios/BT2B.jpg","null","",NA,NA,NA,NA,""
"image-keyboard-response",524,634706,"0.0-4.170-2.170","4z6db74p8xzyshe",596,"81.csv","","null","resources/images/coin2.png","null","",NA,NA,NA,NA,""
"image-keyboard-response",525,634762,"0.0-4.171-0.171","4z6db74p8xzyshe",596,"81.csv","","53.39999997615814","resources/trios/L4T2A2.jpg","38","restless",0.2,0.7,0.5,0.284603650907969,"true"
"image-keyboard-response",526,635168,"0.0-4.171-1.171","4z6db74p8xzyshe",596,"81.csv","","null","resources/maskTrios/BT2B.jpg","null","",NA,NA,NA,NA,""
"image-keyboard-response",527,636385,"0.0-4.171-2.171","4z6db74p8xzyshe",596,"81.csv","","null","resources/images/coin2.png","null","",NA,NA,NA,NA,""
"image-keyboard-response",528,637394,"0.0-4.172-0.172","4z6db74p8xzyshe",596,"81.csv","","1006.8000000119209","resources/trios/L4T2A2.jpg","38","restless",0.1,0.7,0.5,0.304799346063544,"true"
"image-keyboard-response",529,637807,"0.0-4.172-1.172","4z6db74p8xzyshe",596,"81.csv","","null","resources/maskTrios/BT2B.jpg","null","",NA,NA,NA,NA,""
"image-keyboard-response",530,639017,"0.0-4.172-2.172","4z6db74p8xzyshe",596,"81.csv","","null","resources/images/coin2.png","null","",NA,NA,NA,NA,""
"image-keyboard-response",531,639338,"0.0-4.173-0.173","4z6db74p8xzyshe",596,"81.csv","","319.30000001192093","resources/trios/L4T2A2.jpg","38","restless",0.1,0.7,0.5,0.795663702846467,"false"
"image-keyboard-response",532,639754,"0.0-4.173-1.173","4z6db74p8xzyshe",596,"81.csv","","null","resources/maskTrios/BT2B.jpg","null","",NA,NA,NA,NA,""
"image-keyboard-response",533,640963,"0.0-4.173-2.173","4z6db74p8xzyshe",596,"81.csv","","null","resources/images/fishbone.png","null","",NA,NA,NA,NA,""
"image-keyboard-response",534,641193,"0.0-4.174-0.174","4z6db74p8xzyshe",596,"81.csv","","227.89999997615814","resources/trios/L4T2A2.jpg","37","restless",0.1,0.7,0.5,0.796169889299011,"false"
"image-keyboard-response",535,641604,"0.0-4.174-1.174","4z6db74p8xzyshe",596,"81.csv","","null","resources/maskTrios/L4BB.jpg","null","",NA,NA,NA,NA,""
"image-keyboard-response",536,642814,"0.0-4.174-2.174","4z6db74p8xzyshe",596,"81.csv","","null","resources/images/fishbone.png","null","",NA,NA,NA,NA,""
"image-keyboard-response",537,643165,"0.0-4.175-0.175","4z6db74p8xzyshe",596,"81.csv","","348.80000001192093","resources/trios/L4T2A2.jpg","38","restless",0.1,0.7,0.5,0.441747064482987,"true"
"image-keyboard-response",538,643567,"0.0-4.175-1.175","4z6db74p8xzyshe",596,"81.csv","","null","resources/maskTrios/BT2B.jpg","null","",NA,NA,NA,NA,""
"image-keyboard-response",539,644772,"0.0-4.175-2.175","4z6db74p8xzyshe",596,"81.csv","","null","resources/images/coin2.png","null","",NA,NA,NA,NA,""
"image-keyboard-response",540,645156,"0.0-4.176-0.176","4z6db74p8xzyshe",596,"81.csv","","382.39999997615814","resources/trios/L4T2A2.jpg","38","restless",0.1,0.7,0.5,0.167653790903396,"true"
"image-keyboard-response",541,645568,"0.0-4.176-1.176","4z6db74p8xzyshe",596,"81.csv","","null","resources/maskTrios/BT2B.jpg","null","",NA,NA,NA,NA,""
"image-keyboard-response",542,646771,"0.0-4.176-2.176","4z6db74p8xzyshe",596,"81.csv","","null","resources/images/coin2.png","null","",NA,NA,NA,NA,""
"image-keyboard-response",543,646968,"0.0-4.177-0.177","4z6db74p8xzyshe",596,"81.csv","","195.4000000357628","resources/trios/L4T2A2.jpg","38","restless",0.1,0.7,0.5,0.278311095686633,"true"
"image-keyboard-response",544,647382,"0.0-4.177-1.177","4z6db74p8xzyshe",596,"81.csv","","null","resources/maskTrios/BT2B.jpg","null","",NA,NA,NA,NA,""
"image-keyboard-response",545,648599,"0.0-4.177-2.177","4z6db74p8xzyshe",596,"81.csv","","null","resources/images/coin2.png","null","",NA,NA,NA,NA,""
"image-keyboard-response",546,648816,"0.0-4.178-0.178","4z6db74p8xzyshe",596,"81.csv","","215.0999999642372","resources/trios/L4T2A2.jpg","38","restless",0.1,0.7,0.5,0.43423664612834,"true"
"image-keyboard-response",547,649233,"0.0-4.178-1.178","4z6db74p8xzyshe",596,"81.csv","","null","resources/maskTrios/BT2B.jpg","null","",NA,NA,NA,NA,""
"image-keyboard-response",548,650443,"0.0-4.178-2.178","4z6db74p8xzyshe",596,"81.csv","","null","resources/images/coin2.png","null","",NA,NA,NA,NA,""
"image-keyboard-response",549,651486,"0.0-4.179-0.179","4z6db74p8xzyshe",596,"81.csv","","1041.699999988079","resources/trios/L4T2A2.jpg","38","restless",0.1,0.7,0.5,0.532618907393585,"true"
"image-keyboard-response",550,651899,"0.0-4.179-1.179","4z6db74p8xzyshe",596,"81.csv","","null","resources/maskTrios/BT2B.jpg","null","",NA,NA,NA,NA,""
"image-keyboard-response",551,653115,"0.0-4.179-2.179","4z6db74p8xzyshe",596,"81.csv","","null","resources/images/coin2.png","null","",NA,NA,NA,NA,""
"image-keyboard-response",552,653492,"0.0-4.180-0.180","4z6db74p8xzyshe",596,"81.csv","","375.19999998807907","resources/trios/L4T2A2.jpg","38","restless",0.1,0.6,0.5,0.635749966266796,"false"
"image-keyboard-response",553,653896,"0.0-4.180-1.180","4z6db74p8xzyshe",596,"81.csv","","null","resources/maskTrios/BT2B.jpg","null","",NA,NA,NA,NA,""
"image-keyboard-response",554,655100,"0.0-4.180-2.180","4z6db74p8xzyshe",596,"81.csv","","null","resources/images/fishbone.png","null","",NA,NA,NA,NA,""
"image-keyboard-response",555,655352,"0.0-4.181-0.181","4z6db74p8xzyshe",596,"81.csv","","250.30000001192093","resources/trios/L4T2A2.jpg","39","restless",0.1,0.6,0.6,0.718570978237699,"false"
"image-keyboard-response",556,655757,"0.0-4.181-1.181","4z6db74p8xzyshe",596,"81.csv","","null","resources/maskTrios/BBA2.jpg","null","",NA,NA,NA,NA,""
"image-keyboard-response",557,656968,"0.0-4.181-2.181","4z6db74p8xzyshe",596,"81.csv","","null","resources/images/fishbone.png","null","",NA,NA,NA,NA,""
"image-keyboard-response",558,657221,"0.0-4.182-0.182","4z6db74p8xzyshe",596,"81.csv","","251.69999998807907","resources/trios/L4T2A2.jpg","37","restless",0.1,0.6,0.5,0.590029279843305,"false"
"image-keyboard-response",559,657633,"0.0-4.182-1.182","4z6db74p8xzyshe",596,"81.csv","","null","resources/maskTrios/L4BB.jpg","null","",NA,NA,NA,NA,""
"image-keyboard-response",560,658849,"0.0-4.182-2.182","4z6db74p8xzyshe",596,"81.csv","","null","resources/images/fishbone.png","null","",NA,NA,NA,NA,""
"image-keyboard-response",561,659047,"0.0-4.183-0.183","4z6db74p8xzyshe",596,"81.csv","","196","resources/trios/L4T2A2.jpg","38","restless",0.1,0.6,0.5,0.391600597758203,"true"
"image-keyboard-response",562,659454,"0.0-4.183-1.183","4z6db74p8xzyshe",596,"81.csv","","null","resources/maskTrios/BT2B.jpg","null","",NA,NA,NA,NA,""
"image-keyboard-response",563,660669,"0.0-4.183-2.183","4z6db74p8xzyshe",596,"81.csv","","null","resources/images/coin2.png","null","",NA,NA,NA,NA,""
"image-keyboard-response",564,660923,"0.0-4.184-0.184","4z6db74p8xzyshe",596,"81.csv","","252.10000002384186","resources/trios/L4T2A2.jpg","38","restless",0.1,0.6,0.5,0.0354902450397896,"true"
"image-keyboard-response",565,661325,"0.0-4.184-1.184","4z6db74p8xzyshe",596,"81.csv","","null","resources/maskTrios/BT2B.jpg","null","",NA,NA,NA,NA,""
"image-keyboard-response",566,662527,"0.0-4.184-2.184","4z6db74p8xzyshe",596,"81.csv","","null","resources/images/coin2.png","null","",NA,NA,NA,NA,""
"image-keyboard-response",567,662778,"0.0-4.185-0.185","4z6db74p8xzyshe",596,"81.csv","","248.9000000357628","resources/trios/L4T2A2.jpg","38","restless",0.1,0.6,0.5,0.376062556227063,"true"
"image-keyboard-response",568,663196,"0.0-4.185-1.185","4z6db74p8xzyshe",596,"81.csv","","null","resources/maskTrios/BT2B.jpg","null","",NA,NA,NA,NA,""
"image-keyboard-response",569,664406,"0.0-4.185-2.185","4z6db74p8xzyshe",596,"81.csv","","null","resources/images/coin2.png","null","",NA,NA,NA,NA,""
"image-keyboard-response",570,664676,"0.0-4.186-0.186","4z6db74p8xzyshe",596,"81.csv","","267.60000002384186","resources/trios/L4T2A2.jpg","38","restless",0.1,0.7,0.5,0.90593672918981,"false"
"image-keyboard-response",571,665082,"0.0-4.186-1.186","4z6db74p8xzyshe",596,"81.csv","","null","resources/maskTrios/BT2B.jpg","null","",NA,NA,NA,NA,""
"image-keyboard-response",572,666295,"0.0-4.186-2.186","4z6db74p8xzyshe",596,"81.csv","","null","resources/images/fishbone.png","null","",NA,NA,NA,NA,""
"image-keyboard-response",573,666540,"0.0-4.187-0.187","4z6db74p8xzyshe",596,"81.csv","","243.9000000357628","resources/trios/L4T2A2.jpg","39","restless",0.1,0.7,0.5,0.263129299003718,"true"
"image-keyboard-response",574,666942,"0.0-4.187-1.187","4z6db74p8xzyshe",596,"81.csv","","null","resources/maskTrios/BBA2.jpg","null","",NA,NA,NA,NA,""
"image-keyboard-response",575,668153,"0.0-4.187-2.187","4z6db74p8xzyshe",596,"81.csv","","null","resources/images/coin2.png","null","",NA,NA,NA,NA,""
"image-keyboard-response",576,668433,"0.0-4.188-0.188","4z6db74p8xzyshe",596,"81.csv","","278.10000002384186","resources/trios/L4T2A2.jpg","39","restless",0.1,0.7,0.5,0.707200417626174,"false"
"image-keyboard-response",577,668845,"0.0-4.188-1.188","4z6db74p8xzyshe",596,"81.csv","","null","resources/maskTrios/BBA2.jpg","null","",NA,NA,NA,NA,""
"image-keyboard-response",578,670057,"0.0-4.188-2.188","4z6db74p8xzyshe",596,"81.csv","","null","resources/images/fishbone.png","null","",NA,NA,NA,NA,""
"image-keyboard-response",579,670337,"0.0-4.189-0.189","4z6db74p8xzyshe",596,"81.csv","","278.5","resources/trios/L4T2A2.jpg","37","restless",0.1,0.7,0.5,0.522270898553708,"false"
"image-keyboard-response",580,670750,"0.0-4.189-1.189","4z6db74p8xzyshe",596,"81.csv","","null","resources/maskTrios/L4BB.jpg","null","",NA,NA,NA,NA,""
"image-keyboard-response",581,671962,"0.0-4.189-2.189","4z6db74p8xzyshe",596,"81.csv","","null","resources/images/fishbone.png","null","",NA,NA,NA,NA,""
"image-keyboard-response",582,672191,"0.0-4.190-0.190","4z6db74p8xzyshe",596,"81.csv","","227","resources/trios/L4T2A2.jpg","38","restless",0.1,0.7,0.5,0.623314021386737,"true"
"image-keyboard-response",583,672605,"0.0-4.190-1.190","4z6db74p8xzyshe",596,"81.csv","","null","resources/maskTrios/BT2B.jpg","null","",NA,NA,NA,NA,""
"image-keyboard-response",584,673813,"0.0-4.190-2.190","4z6db74p8xzyshe",596,"81.csv","","null","resources/images/coin2.png","null","",NA,NA,NA,NA,""
"image-keyboard-response",585,674106,"0.0-4.191-0.191","4z6db74p8xzyshe",596,"81.csv","","291.7000000476837","resources/trios/L4T2A2.jpg","38","restless",0.1,0.7,0.5,0.619302211539011,"true"
"image-keyboard-response",586,674509,"0.0-4.191-1.191","4z6db74p8xzyshe",596,"81.csv","","null","resources/maskTrios/BT2B.jpg","null","",NA,NA,NA,NA,""
"image-keyboard-response",587,675722,"0.0-4.191-2.191","4z6db74p8xzyshe",596,"81.csv","","null","resources/images/coin2.png","null","",NA,NA,NA,NA,""
"image-keyboard-response",588,675965,"0.0-4.192-0.192","4z6db74p8xzyshe",596,"81.csv","","241","resources/trios/L4T2A2.jpg","38","restless",0.1,0.7,0.5,0.21687811030526,"true"
"image-keyboard-response",589,676379,"0.0-4.192-1.192","4z6db74p8xzyshe",596,"81.csv","","null","resources/maskTrios/BT2B.jpg","null","",NA,NA,NA,NA,""
"image-keyboard-response",590,677596,"0.0-4.192-2.192","4z6db74p8xzyshe",596,"81.csv","","null","resources/images/coin2.png","null","",NA,NA,NA,NA,""
"image-keyboard-response",591,677790,"0.0-4.193-0.193","4z6db74p8xzyshe",596,"81.csv","","192.10000002384186","resources/trios/L4T2A2.jpg","38","restless",0.1,0.7,0.5,0.190556788058589,"true"
"image-keyboard-response",592,678202,"0.0-4.193-1.193","4z6db74p8xzyshe",596,"81.csv","","null","resources/maskTrios/BT2B.jpg","null","",NA,NA,NA,NA,""
"image-keyboard-response",593,679410,"0.0-4.193-2.193","4z6db74p8xzyshe",596,"81.csv","","null","resources/images/coin2.png","null","",NA,NA,NA,NA,""
"image-keyboard-response",594,679513,"0.0-4.194-0.194","4z6db74p8xzyshe",596,"81.csv","","101.59999996423721","resources/trios/L4T2A2.jpg","38","restless",0.1,0.7,0.5,0.757780130157986,"false"
"image-keyboard-response",595,679919,"0.0-4.194-1.194","4z6db74p8xzyshe",596,"81.csv","","null","resources/maskTrios/BT2B.jpg","null","",NA,NA,NA,NA,""
"image-keyboard-response",596,681121,"0.0-4.194-2.194","4z6db74p8xzyshe",596,"81.csv","","null","resources/images/fishbone.png","null","",NA,NA,NA,NA,""
"image-keyboard-response",597,683142,"0.0-4.195-0.195","4z6db74p8xzyshe",596,"81.csv","","2018.9000000357628","resources/trios/L4T2A2.jpg","39","restless",0.1,0.7,0.5,0.134470552666818,"true"
"image-keyboard-response",598,683550,"0.0-4.195-1.195","4z6db74p8xzyshe",596,"81.csv","","null","resources/maskTrios/BBA2.jpg","null","",NA,NA,NA,NA,""
"image-keyboard-response",599,684756,"0.0-4.195-2.195","4z6db74p8xzyshe",596,"81.csv","","null","resources/images/coin2.png","null","",NA,NA,NA,NA,""
"image-keyboard-response",600,685058,"0.0-4.196-0.196","4z6db74p8xzyshe",596,"81.csv","","301","resources/trios/L4T2A2.jpg","39","restless",0.1,0.7,0.5,0.288042911743012,"true"
"image-keyboard-response",601,685470,"0.0-4.196-1.196","4z6db74p8xzyshe",596,"81.csv","","null","resources/maskTrios/BBA2.jpg","null","",NA,NA,NA,NA,""
"image-keyboard-response",602,686677,"0.0-4.196-2.196","4z6db74p8xzyshe",596,"81.csv","","null","resources/images/coin2.png","null","",NA,NA,NA,NA,""
"image-keyboard-response",603,687132,"0.0-4.197-0.197","4z6db74p8xzyshe",596,"81.csv","","453.5","resources/trios/L4T2A2.jpg","39","restless",0.1,0.7,0.5,0.813652388583169,"false"
"image-keyboard-response",604,687540,"0.0-4.197-1.197","4z6db74p8xzyshe",596,"81.csv","","null","resources/maskTrios/BBA2.jpg","null","",NA,NA,NA,NA,""
"image-keyboard-response",605,688757,"0.0-4.197-2.197","4z6db74p8xzyshe",596,"81.csv","","null","resources/images/fishbone.png","null","",NA,NA,NA,NA,""
"image-keyboard-response",606,689179,"0.0-4.198-0.198","4z6db74p8xzyshe",596,"81.csv","","420.5","resources/trios/L4T2A2.jpg","38","restless",0.2,0.7,0.5,0.0839404458798254,"true"
"image-keyboard-response",607,689583,"0.0-4.198-1.198","4z6db74p8xzyshe",596,"81.csv","","null","resources/maskTrios/BT2B.jpg","null","",NA,NA,NA,NA,""
"image-keyboard-response",608,690797,"0.0-4.198-2.198","4z6db74p8xzyshe",596,"81.csv","","null","resources/images/coin2.png","null","",NA,NA,NA,NA,""
"image-keyboard-response",609,691164,"0.0-4.199-0.199","4z6db74p8xzyshe",596,"81.csv","","365.80000001192093","resources/trios/L4T2A2.jpg","38","restless",0.2,0.7,0.6,0.0247588155728333,"true"
"image-keyboard-response",610,691567,"0.0-4.199-1.199","4z6db74p8xzyshe",596,"81.csv","","null","resources/maskTrios/BT2B.jpg","null","",NA,NA,NA,NA,""
"image-keyboard-response",611,692774,"0.0-4.199-2.199","4z6db74p8xzyshe",596,"81.csv","","null","resources/images/coin2.png","null","",NA,NA,NA,NA,""
