"trial_type","trial_index","time_elapsed","internal_node_id","subject","participantCode","walkNumber","success","rt","stimulus","key_press","test_part","leftProb","midProb","rightProb","generatedNum","correct"
"pavlovia",0,1116,"0.0-0.0","c1yeqa4qnalb7me",430,"81.csv","","","","","",NA,NA,NA,NA,""
"fullscreen",1,10546,"0.0-1.0","c1yeqa4qnalb7me",430,"81.csv","true","","","","",NA,NA,NA,NA,""
"survey-html-form",2,19041,"0.0-2.0","c1yeqa4qnalb7me",430,"81.csv","","8481","","","",NA,NA,NA,NA,""
"image-keyboard-response",3,51920,"0.0-3.0-0.0","c1yeqa4qnalb7me",430,"81.csv","","32878","resources/images/parrot_nobg.png","13","",NA,NA,NA,NA,""
"image-keyboard-response",4,55129,"0.0-3.0-1.0","c1yeqa4qnalb7me",430,"81.csv","","null","resources/image_sets/111.png","null","",NA,NA,NA,NA,""
"image-keyboard-response",5,58447,"0.0-3.0-2.0","c1yeqa4qnalb7me",430,"81.csv","","3318","resources/image_sets/left_highlight.png","37","",NA,NA,NA,NA,""
"image-keyboard-response",6,59929,"0.0-3.0-3.0","c1yeqa4qnalb7me",430,"81.csv","","1483","resources/image_sets/mid_highlight.png","38","",NA,NA,NA,NA,""
"image-keyboard-response",7,60867,"0.0-3.0-4.0","c1yeqa4qnalb7me",430,"81.csv","","937","resources/image_sets/right_highlight.png","39","",NA,NA,NA,NA,""
"image-keyboard-response",8,64327,"0.0-3.0-5.0","c1yeqa4qnalb7me",430,"81.csv","","3461","resources/image_sets/111.png","13","",NA,NA,NA,NA,""
"image-keyboard-response",9,67320,"0.0-3.0-6.0","c1yeqa4qnalb7me",430,"81.csv","","2993","resources/images/coin2.png","13","",NA,NA,NA,NA,""
"image-keyboard-response",10,68787,"0.0-3.0-7.0","c1yeqa4qnalb7me",430,"81.csv","","1465","resources/images/fishbone.png","13","",NA,NA,NA,NA,""
"html-keyboard-response",11,76816,"0.0-3.0-8.0","c1yeqa4qnalb7me",430,"81.csv","","8029","<p>You can track your coin total on the top right of your screen. </p><p>At the end of your journey you will be directed to a survey, so please click on the link before exiting the task</p><p>Press Enter to begin</p>","13","",NA,NA,NA,NA,""
"image-keyboard-response",12,79302,"0.0-4.0-0.0","c1yeqa4qnalb7me",430,"81.csv","","2485","resources/trios/L1T2A3.jpg","39","restless",0.9,0.7,0.3,0.0359017861879226,"true"
"image-keyboard-response",13,79703,"0.0-4.0-1.0","c1yeqa4qnalb7me",430,"81.csv","","null","resources/maskTrios/BBA3.jpg","null","",NA,NA,NA,NA,""
"image-keyboard-response",14,80904,"0.0-4.0-2.0","c1yeqa4qnalb7me",430,"81.csv","","null","resources/images/coin2.png","null","",NA,NA,NA,NA,""
"image-keyboard-response",15,82783,"0.0-4.1-0.1","c1yeqa4qnalb7me",430,"81.csv","","1878","resources/trios/L1T2A3.jpg","38","restless",0.9,0.7,0.3,0.200723134388671,"true"
"image-keyboard-response",16,83184,"0.0-4.1-1.1","c1yeqa4qnalb7me",430,"81.csv","","null","resources/maskTrios/BT2B.jpg","null","",NA,NA,NA,NA,""
"image-keyboard-response",17,84385,"0.0-4.1-2.1","c1yeqa4qnalb7me",430,"81.csv","","null","resources/images/coin2.png","null","",NA,NA,NA,NA,""
"image-keyboard-response",18,87554,"0.0-4.2-0.2","c1yeqa4qnalb7me",430,"81.csv","","3169","resources/trios/L1T2A3.jpg","38","restless",0.9,0.7,0.3,0.83326811048425,"false"
"image-keyboard-response",19,87954,"0.0-4.2-1.2","c1yeqa4qnalb7me",430,"81.csv","","null","resources/maskTrios/BT2B.jpg","null","",NA,NA,NA,NA,""
"image-keyboard-response",20,89155,"0.0-4.2-2.2","c1yeqa4qnalb7me",430,"81.csv","","null","resources/images/fishbone.png","null","",NA,NA,NA,NA,""
"image-keyboard-response",21,89931,"0.0-4.3-0.3","c1yeqa4qnalb7me",430,"81.csv","","775","resources/trios/L1T2A3.jpg","39","restless",0.9,0.7,0.3,0.0293874438003918,"true"
"image-keyboard-response",22,90332,"0.0-4.3-1.3","c1yeqa4qnalb7me",430,"81.csv","","null","resources/maskTrios/BBA3.jpg","null","",NA,NA,NA,NA,""
"image-keyboard-response",23,91532,"0.0-4.3-2.3","c1yeqa4qnalb7me",430,"81.csv","","null","resources/images/coin2.png","null","",NA,NA,NA,NA,""
"image-keyboard-response",24,92451,"0.0-4.4-0.4","c1yeqa4qnalb7me",430,"81.csv","","918","resources/trios/L1T2A3.jpg","38","restless",0.9,0.7,0.3,0.853142085820545,"false"
"image-keyboard-response",25,92853,"0.0-4.4-1.4","c1yeqa4qnalb7me",430,"81.csv","","null","resources/maskTrios/BT2B.jpg","null","",NA,NA,NA,NA,""
"image-keyboard-response",26,94055,"0.0-4.4-2.4","c1yeqa4qnalb7me",430,"81.csv","","null","resources/images/fishbone.png","null","",NA,NA,NA,NA,""
"image-keyboard-response",27,94624,"0.0-4.5-0.5","c1yeqa4qnalb7me",430,"81.csv","","569","resources/trios/L1T2A3.jpg","38","restless",0.9,0.7,0.3,0.899604962919413,"false"
"image-keyboard-response",28,95026,"0.0-4.5-1.5","c1yeqa4qnalb7me",430,"81.csv","","null","resources/maskTrios/BT2B.jpg","null","",NA,NA,NA,NA,""
"image-keyboard-response",29,96227,"0.0-4.5-2.5","c1yeqa4qnalb7me",430,"81.csv","","null","resources/images/fishbone.png","null","",NA,NA,NA,NA,""
"image-keyboard-response",30,96643,"0.0-4.6-0.6","c1yeqa4qnalb7me",430,"81.csv","","417","resources/trios/L1T2A3.jpg","38","restless",0.8,0.7,0.3,0.896433737672294,"false"
"image-keyboard-response",31,97043,"0.0-4.6-1.6","c1yeqa4qnalb7me",430,"81.csv","","null","resources/maskTrios/BT2B.jpg","null","",NA,NA,NA,NA,""
"image-keyboard-response",32,98243,"0.0-4.6-2.6","c1yeqa4qnalb7me",430,"81.csv","","null","resources/images/fishbone.png","null","",NA,NA,NA,NA,""
"image-keyboard-response",33,100925,"0.0-4.7-0.7","c1yeqa4qnalb7me",430,"81.csv","","2682","resources/trios/L1T2A3.jpg","37","restless",0.8,0.7,0.3,0.341118585233181,"true"
"image-keyboard-response",34,101325,"0.0-4.7-1.7","c1yeqa4qnalb7me",430,"81.csv","","null","resources/maskTrios/L1BB.jpg","null","",NA,NA,NA,NA,""
"image-keyboard-response",35,102525,"0.0-4.7-2.7","c1yeqa4qnalb7me",430,"81.csv","","null","resources/images/coin2.png","null","",NA,NA,NA,NA,""
"image-keyboard-response",36,103885,"0.0-4.8-0.8","c1yeqa4qnalb7me",430,"81.csv","","1359","resources/trios/L1T2A3.jpg","39","restless",0.8,0.7,0.3,0.727417523884127,"false"
"image-keyboard-response",37,104285,"0.0-4.8-1.8","c1yeqa4qnalb7me",430,"81.csv","","null","resources/maskTrios/BBA3.jpg","null","",NA,NA,NA,NA,""
"image-keyboard-response",38,105486,"0.0-4.8-2.8","c1yeqa4qnalb7me",430,"81.csv","","null","resources/images/fishbone.png","null","",NA,NA,NA,NA,""
"image-keyboard-response",39,105761,"0.0-4.9-0.9","c1yeqa4qnalb7me",430,"81.csv","","276","resources/trios/L1T2A3.jpg","38","restless",0.8,0.7,0.3,0.32288639781375,"true"
"image-keyboard-response",40,106162,"0.0-4.9-1.9","c1yeqa4qnalb7me",430,"81.csv","","null","resources/maskTrios/BT2B.jpg","null","",NA,NA,NA,NA,""
"image-keyboard-response",41,107363,"0.0-4.9-2.9","c1yeqa4qnalb7me",430,"81.csv","","null","resources/images/coin2.png","null","",NA,NA,NA,NA,""
"image-keyboard-response",42,108102,"0.0-4.10-0.10","c1yeqa4qnalb7me",430,"81.csv","","740","resources/trios/L1T2A3.jpg","39","restless",0.8,0.7,0.3,0.905260262431486,"false"
"image-keyboard-response",43,108504,"0.0-4.10-1.10","c1yeqa4qnalb7me",430,"81.csv","","null","resources/maskTrios/BBA3.jpg","null","",NA,NA,NA,NA,""
"image-keyboard-response",44,109703,"0.0-4.10-2.10","c1yeqa4qnalb7me",430,"81.csv","","null","resources/images/fishbone.png","null","",NA,NA,NA,NA,""
"image-keyboard-response",45,110428,"0.0-4.11-0.11","c1yeqa4qnalb7me",430,"81.csv","","724","resources/trios/L1T2A3.jpg","39","restless",0.8,0.7,0.2,0.851670343733068,"false"
"image-keyboard-response",46,110830,"0.0-4.11-1.11","c1yeqa4qnalb7me",430,"81.csv","","null","resources/maskTrios/BBA3.jpg","null","",NA,NA,NA,NA,""
"image-keyboard-response",47,112032,"0.0-4.11-2.11","c1yeqa4qnalb7me",430,"81.csv","","null","resources/images/fishbone.png","null","",NA,NA,NA,NA,""
"image-keyboard-response",48,112405,"0.0-4.12-0.12","c1yeqa4qnalb7me",430,"81.csv","","372","resources/trios/L1T2A3.jpg","37","restless",0.8,0.7,0.2,0.345740866028022,"true"
"image-keyboard-response",49,112805,"0.0-4.12-1.12","c1yeqa4qnalb7me",430,"81.csv","","null","resources/maskTrios/L1BB.jpg","null","",NA,NA,NA,NA,""
"image-keyboard-response",50,114007,"0.0-4.12-2.12","c1yeqa4qnalb7me",430,"81.csv","","null","resources/images/coin2.png","null","",NA,NA,NA,NA,""
"image-keyboard-response",51,114381,"0.0-4.13-0.13","c1yeqa4qnalb7me",430,"81.csv","","374","resources/trios/L1T2A3.jpg","38","restless",0.7,0.7,0.2,0.269298064823504,"true"
"image-keyboard-response",52,114782,"0.0-4.13-1.13","c1yeqa4qnalb7me",430,"81.csv","","null","resources/maskTrios/BT2B.jpg","null","",NA,NA,NA,NA,""
"image-keyboard-response",53,115982,"0.0-4.13-2.13","c1yeqa4qnalb7me",430,"81.csv","","null","resources/images/coin2.png","null","",NA,NA,NA,NA,""
"image-keyboard-response",54,116656,"0.0-4.14-0.14","c1yeqa4qnalb7me",430,"81.csv","","673","resources/trios/L1T2A3.jpg","39","restless",0.7,0.7,0.3,0.184057733272095,"true"
"image-keyboard-response",55,117058,"0.0-4.14-1.14","c1yeqa4qnalb7me",430,"81.csv","","null","resources/maskTrios/BBA3.jpg","null","",NA,NA,NA,NA,""
"image-keyboard-response",56,118258,"0.0-4.14-2.14","c1yeqa4qnalb7me",430,"81.csv","","null","resources/images/coin2.png","null","",NA,NA,NA,NA,""
"image-keyboard-response",57,118829,"0.0-4.15-0.15","c1yeqa4qnalb7me",430,"81.csv","","571","resources/trios/L1T2A3.jpg","37","restless",0.7,0.7,0.3,0.483170510913527,"true"
"image-keyboard-response",58,119230,"0.0-4.15-1.15","c1yeqa4qnalb7me",430,"81.csv","","null","resources/maskTrios/L1BB.jpg","null","",NA,NA,NA,NA,""
"image-keyboard-response",59,120431,"0.0-4.15-2.15","c1yeqa4qnalb7me",430,"81.csv","","null","resources/images/coin2.png","null","",NA,NA,NA,NA,""
"image-keyboard-response",60,120830,"0.0-4.16-0.16","c1yeqa4qnalb7me",430,"81.csv","","401","resources/trios/L1T2A3.jpg","37","restless",0.7,0.7,0.4,0.0122877383975178,"true"
"image-keyboard-response",61,121231,"0.0-4.16-1.16","c1yeqa4qnalb7me",430,"81.csv","","null","resources/maskTrios/L1BB.jpg","null","",NA,NA,NA,NA,""
"image-keyboard-response",62,122433,"0.0-4.16-2.16","c1yeqa4qnalb7me",430,"81.csv","","null","resources/images/coin2.png","null","",NA,NA,NA,NA,""
"image-keyboard-response",63,122849,"0.0-4.17-0.17","c1yeqa4qnalb7me",430,"81.csv","","416","resources/trios/L1T2A3.jpg","39","restless",0.7,0.7,0.4,0.51694727966967,"false"
"image-keyboard-response",64,123251,"0.0-4.17-1.17","c1yeqa4qnalb7me",430,"81.csv","","null","resources/maskTrios/BBA3.jpg","null","",NA,NA,NA,NA,""
"image-keyboard-response",65,124453,"0.0-4.17-2.17","c1yeqa4qnalb7me",430,"81.csv","","null","resources/images/fishbone.png","null","",NA,NA,NA,NA,""
"image-keyboard-response",66,124849,"0.0-4.18-0.18","c1yeqa4qnalb7me",430,"81.csv","","396","resources/trios/L1T2A3.jpg","38","restless",0.7,0.7,0.4,0.373794535700285,"true"
"image-keyboard-response",67,125249,"0.0-4.18-1.18","c1yeqa4qnalb7me",430,"81.csv","","null","resources/maskTrios/BT2B.jpg","null","",NA,NA,NA,NA,""
"image-keyboard-response",68,126450,"0.0-4.18-2.18","c1yeqa4qnalb7me",430,"81.csv","","null","resources/images/coin2.png","null","",NA,NA,NA,NA,""
"image-keyboard-response",69,126710,"0.0-4.19-0.19","c1yeqa4qnalb7me",430,"81.csv","","259","resources/trios/L1T2A3.jpg","38","restless",0.7,0.7,0.4,0.280259838007828,"true"
"image-keyboard-response",70,127111,"0.0-4.19-1.19","c1yeqa4qnalb7me",430,"81.csv","","null","resources/maskTrios/BT2B.jpg","null","",NA,NA,NA,NA,""
"image-keyboard-response",71,128312,"0.0-4.19-2.19","c1yeqa4qnalb7me",430,"81.csv","","null","resources/images/coin2.png","null","",NA,NA,NA,NA,""
"image-keyboard-response",72,128664,"0.0-4.20-0.20","c1yeqa4qnalb7me",430,"81.csv","","352","resources/trios/L1T2A3.jpg","37","restless",0.8,0.7,0.4,0.190737533412689,"true"
"image-keyboard-response",73,129065,"0.0-4.20-1.20","c1yeqa4qnalb7me",430,"81.csv","","null","resources/maskTrios/L1BB.jpg","null","",NA,NA,NA,NA,""
"image-keyboard-response",74,130311,"0.0-4.20-2.20","c1yeqa4qnalb7me",430,"81.csv","","null","resources/images/coin2.png","null","",NA,NA,NA,NA,""
"image-keyboard-response",75,130566,"0.0-4.21-0.21","c1yeqa4qnalb7me",430,"81.csv","","254","resources/trios/L1T2A3.jpg","39","restless",0.8,0.6,0.4,0.956656973065635,"false"
"image-keyboard-response",76,130968,"0.0-4.21-1.21","c1yeqa4qnalb7me",430,"81.csv","","null","resources/maskTrios/BBA3.jpg","null","",NA,NA,NA,NA,""
"image-keyboard-response",77,132314,"0.0-4.21-2.21","c1yeqa4qnalb7me",430,"81.csv","","null","resources/images/fishbone.png","null","",NA,NA,NA,NA,""
"image-keyboard-response",78,132454,"0.0-4.22-0.22","c1yeqa4qnalb7me",430,"81.csv","","138","resources/trios/L1T2A3.jpg","38","restless",0.8,0.6,0.4,0.466699830697944,"true"
"image-keyboard-response",79,132855,"0.0-4.22-1.22","c1yeqa4qnalb7me",430,"81.csv","","null","resources/maskTrios/BT2B.jpg","null","",NA,NA,NA,NA,""
"image-keyboard-response",80,134056,"0.0-4.22-2.22","c1yeqa4qnalb7me",430,"81.csv","","null","resources/images/coin2.png","null","",NA,NA,NA,NA,""
"image-keyboard-response",81,134628,"0.0-4.23-0.23","c1yeqa4qnalb7me",430,"81.csv","","572","resources/trios/L1T2A3.jpg","38","restless",0.8,0.6,0.4,0.645441961013608,"false"
"image-keyboard-response",82,135029,"0.0-4.23-1.23","c1yeqa4qnalb7me",430,"81.csv","","null","resources/maskTrios/BT2B.jpg","null","",NA,NA,NA,NA,""
"image-keyboard-response",83,136230,"0.0-4.23-2.23","c1yeqa4qnalb7me",430,"81.csv","","null","resources/images/fishbone.png","null","",NA,NA,NA,NA,""
"image-keyboard-response",84,136409,"0.0-4.24-0.24","c1yeqa4qnalb7me",430,"81.csv","","179","resources/trios/L1T2A3.jpg","39","restless",0.7,0.6,0.4,0.353272722957803,"true"
"image-keyboard-response",85,136809,"0.0-4.24-1.24","c1yeqa4qnalb7me",430,"81.csv","","null","resources/maskTrios/BBA3.jpg","null","",NA,NA,NA,NA,""
"image-keyboard-response",86,138011,"0.0-4.24-2.24","c1yeqa4qnalb7me",430,"81.csv","","null","resources/images/coin2.png","null","",NA,NA,NA,NA,""
"image-keyboard-response",87,138268,"0.0-4.25-0.25","c1yeqa4qnalb7me",430,"81.csv","","256","resources/trios/L1T2A3.jpg","39","restless",0.7,0.6,0.4,0.0815589327939542,"true"
"image-keyboard-response",88,138669,"0.0-4.25-1.25","c1yeqa4qnalb7me",430,"81.csv","","null","resources/maskTrios/BBA3.jpg","null","",NA,NA,NA,NA,""
"image-keyboard-response",89,139870,"0.0-4.25-2.25","c1yeqa4qnalb7me",430,"81.csv","","null","resources/images/coin2.png","null","",NA,NA,NA,NA,""
"image-keyboard-response",90,140114,"0.0-4.26-0.26","c1yeqa4qnalb7me",430,"81.csv","","245","resources/trios/L1T2A3.jpg","37","restless",0.7,0.5,0.4,0.271755565330368,"true"
"image-keyboard-response",91,140514,"0.0-4.26-1.26","c1yeqa4qnalb7me",430,"81.csv","","null","resources/maskTrios/L1BB.jpg","null","",NA,NA,NA,NA,""
"image-keyboard-response",92,141715,"0.0-4.26-2.26","c1yeqa4qnalb7me",430,"81.csv","","null","resources/images/coin2.png","null","",NA,NA,NA,NA,""
"image-keyboard-response",93,141994,"0.0-4.27-0.27","c1yeqa4qnalb7me",430,"81.csv","","280","resources/trios/L1T2A3.jpg","38","restless",0.7,0.5,0.4,0.689150095972589,"false"
"image-keyboard-response",94,142395,"0.0-4.27-1.27","c1yeqa4qnalb7me",430,"81.csv","","null","resources/maskTrios/BT2B.jpg","null","",NA,NA,NA,NA,""
"image-keyboard-response",95,143597,"0.0-4.27-2.27","c1yeqa4qnalb7me",430,"81.csv","","null","resources/images/fishbone.png","null","",NA,NA,NA,NA,""
"image-keyboard-response",96,144001,"0.0-4.28-0.28","c1yeqa4qnalb7me",430,"81.csv","","404","resources/trios/L1T2A3.jpg","38","restless",0.7,0.5,0.4,0.529645669303801,"false"
"image-keyboard-response",97,144402,"0.0-4.28-1.28","c1yeqa4qnalb7me",430,"81.csv","","null","resources/maskTrios/BT2B.jpg","null","",NA,NA,NA,NA,""
"image-keyboard-response",98,145604,"0.0-4.28-2.28","c1yeqa4qnalb7me",430,"81.csv","","null","resources/images/fishbone.png","null","",NA,NA,NA,NA,""
"image-keyboard-response",99,145844,"0.0-4.29-0.29","c1yeqa4qnalb7me",430,"81.csv","","239","resources/trios/L1T2A3.jpg","37","restless",0.7,0.5,0.4,0.40747934709852,"true"
"image-keyboard-response",100,146245,"0.0-4.29-1.29","c1yeqa4qnalb7me",430,"81.csv","","null","resources/maskTrios/L1BB.jpg","null","",NA,NA,NA,NA,""
"image-keyboard-response",101,147445,"0.0-4.29-2.29","c1yeqa4qnalb7me",430,"81.csv","","null","resources/images/coin2.png","null","",NA,NA,NA,NA,""
"image-keyboard-response",102,147704,"0.0-4.30-0.30","c1yeqa4qnalb7me",430,"81.csv","","258","resources/trios/L1T2A3.jpg","37","restless",0.8,0.5,0.4,0.828741875625426,"false"
"image-keyboard-response",103,148103,"0.0-4.30-1.30","c1yeqa4qnalb7me",430,"81.csv","","null","resources/maskTrios/L1BB.jpg","null","",NA,NA,NA,NA,""
"image-keyboard-response",104,149304,"0.0-4.30-2.30","c1yeqa4qnalb7me",430,"81.csv","","null","resources/images/fishbone.png","null","",NA,NA,NA,NA,""
"image-keyboard-response",105,149594,"0.0-4.31-0.31","c1yeqa4qnalb7me",430,"81.csv","","289","resources/trios/L1T2A3.jpg","39","restless",0.8,0.5,0.4,0.820483722322606,"false"
"image-keyboard-response",106,149995,"0.0-4.31-1.31","c1yeqa4qnalb7me",430,"81.csv","","null","resources/maskTrios/BBA3.jpg","null","",NA,NA,NA,NA,""
"image-keyboard-response",107,151306,"0.0-4.31-2.31","c1yeqa4qnalb7me",430,"81.csv","","null","resources/images/fishbone.png","null","",NA,NA,NA,NA,""
"image-keyboard-response",108,151541,"0.0-4.32-0.32","c1yeqa4qnalb7me",430,"81.csv","","235","resources/trios/L1T2A3.jpg","38","restless",0.8,0.5,0.4,0.905238132292965,"false"
"image-keyboard-response",109,151940,"0.0-4.32-1.32","c1yeqa4qnalb7me",430,"81.csv","","null","resources/maskTrios/BT2B.jpg","null","",NA,NA,NA,NA,""
"image-keyboard-response",110,153142,"0.0-4.32-2.32","c1yeqa4qnalb7me",430,"81.csv","","null","resources/images/fishbone.png","null","",NA,NA,NA,NA,""
"image-keyboard-response",111,153651,"0.0-4.33-0.33","c1yeqa4qnalb7me",430,"81.csv","","508","resources/trios/L1T2A3.jpg","38","restless",0.8,0.5,0.4,0.724821907977706,"false"
"image-keyboard-response",112,154050,"0.0-4.33-1.33","c1yeqa4qnalb7me",430,"81.csv","","null","resources/maskTrios/BT2B.jpg","null","",NA,NA,NA,NA,""
"image-keyboard-response",113,155251,"0.0-4.33-2.33","c1yeqa4qnalb7me",430,"81.csv","","null","resources/images/fishbone.png","null","",NA,NA,NA,NA,""
"image-keyboard-response",114,155446,"0.0-4.34-0.34","c1yeqa4qnalb7me",430,"81.csv","","195","resources/trios/L1T2A3.jpg","39","restless",0.8,0.5,0.5,0.474024305583089,"true"
"image-keyboard-response",115,155847,"0.0-4.34-1.34","c1yeqa4qnalb7me",430,"81.csv","","null","resources/maskTrios/BBA3.jpg","null","",NA,NA,NA,NA,""
"image-keyboard-response",116,157049,"0.0-4.34-2.34","c1yeqa4qnalb7me",430,"81.csv","","null","resources/images/coin2.png","null","",NA,NA,NA,NA,""
"image-keyboard-response",117,157377,"0.0-4.35-0.35","c1yeqa4qnalb7me",430,"81.csv","","327","resources/trios/L1T2A3.jpg","37","restless",0.7,0.5,0.5,0.351645757856116,"true"
"image-keyboard-response",118,157778,"0.0-4.35-1.35","c1yeqa4qnalb7me",430,"81.csv","","null","resources/maskTrios/L1BB.jpg","null","",NA,NA,NA,NA,""
"image-keyboard-response",119,158980,"0.0-4.35-2.35","c1yeqa4qnalb7me",430,"81.csv","","null","resources/images/coin2.png","null","",NA,NA,NA,NA,""
"image-keyboard-response",120,159242,"0.0-4.36-0.36","c1yeqa4qnalb7me",430,"81.csv","","263","resources/trios/L1T2A3.jpg","39","restless",0.7,0.5,0.4,0.819983229153128,"false"
"image-keyboard-response",121,159643,"0.0-4.36-1.36","c1yeqa4qnalb7me",430,"81.csv","","null","resources/maskTrios/BBA3.jpg","null","",NA,NA,NA,NA,""
"image-keyboard-response",122,160843,"0.0-4.36-2.36","c1yeqa4qnalb7me",430,"81.csv","","null","resources/images/fishbone.png","null","",NA,NA,NA,NA,""
"image-keyboard-response",123,161037,"0.0-4.37-0.37","c1yeqa4qnalb7me",430,"81.csv","","193","resources/trios/L1T2A3.jpg","38","restless",0.7,0.5,0.4,0.372749200553836,"true"
"image-keyboard-response",124,161440,"0.0-4.37-1.37","c1yeqa4qnalb7me",430,"81.csv","","null","resources/maskTrios/BT2B.jpg","null","",NA,NA,NA,NA,""
"image-keyboard-response",125,162778,"0.0-4.37-2.37","c1yeqa4qnalb7me",430,"81.csv","","null","resources/images/coin2.png","null","",NA,NA,NA,NA,""
"image-keyboard-response",126,163104,"0.0-4.38-0.38","c1yeqa4qnalb7me",430,"81.csv","","326","resources/trios/L1T2A3.jpg","38","restless",0.8,0.5,0.4,0.361669684172867,"true"
"image-keyboard-response",127,163505,"0.0-4.38-1.38","c1yeqa4qnalb7me",430,"81.csv","","null","resources/maskTrios/BT2B.jpg","null","",NA,NA,NA,NA,""
"image-keyboard-response",128,164706,"0.0-4.38-2.38","c1yeqa4qnalb7me",430,"81.csv","","null","resources/images/coin2.png","null","",NA,NA,NA,NA,""
"image-keyboard-response",129,165005,"0.0-4.39-0.39","c1yeqa4qnalb7me",430,"81.csv","","298","resources/trios/L1T2A3.jpg","37","restless",0.8,0.5,0.4,0.660418298147247,"true"
"image-keyboard-response",130,165405,"0.0-4.39-1.39","c1yeqa4qnalb7me",430,"81.csv","","null","resources/maskTrios/L1BB.jpg","null","",NA,NA,NA,NA,""
"image-keyboard-response",131,166606,"0.0-4.39-2.39","c1yeqa4qnalb7me",430,"81.csv","","null","resources/images/coin2.png","null","",NA,NA,NA,NA,""
"image-keyboard-response",132,167010,"0.0-4.40-0.40","c1yeqa4qnalb7me",430,"81.csv","","402","resources/trios/L1T2A3.jpg","37","restless",0.8,0.5,0.4,0.843305645992966,"false"
"image-keyboard-response",133,167411,"0.0-4.40-1.40","c1yeqa4qnalb7me",430,"81.csv","","null","resources/maskTrios/L1BB.jpg","null","",NA,NA,NA,NA,""
"image-keyboard-response",134,168612,"0.0-4.40-2.40","c1yeqa4qnalb7me",430,"81.csv","","null","resources/images/fishbone.png","null","",NA,NA,NA,NA,""
"image-keyboard-response",135,169225,"0.0-4.41-0.41","c1yeqa4qnalb7me",430,"81.csv","","611","resources/trios/L1T2A3.jpg","37","restless",0.8,0.5,0.4,0.44067592173076,"true"
"image-keyboard-response",136,169626,"0.0-4.41-1.41","c1yeqa4qnalb7me",430,"81.csv","","null","resources/maskTrios/L1BB.jpg","null","",NA,NA,NA,NA,""
"image-keyboard-response",137,170828,"0.0-4.41-2.41","c1yeqa4qnalb7me",430,"81.csv","","null","resources/images/coin2.png","null","",NA,NA,NA,NA,""
"image-keyboard-response",138,171360,"0.0-4.42-0.42","c1yeqa4qnalb7me",430,"81.csv","","531","resources/trios/L1T2A3.jpg","38","restless",0.8,0.5,0.4,0.168079255370528,"true"
"image-keyboard-response",139,171760,"0.0-4.42-1.42","c1yeqa4qnalb7me",430,"81.csv","","null","resources/maskTrios/BT2B.jpg","null","",NA,NA,NA,NA,""
"image-keyboard-response",140,172961,"0.0-4.42-2.42","c1yeqa4qnalb7me",430,"81.csv","","null","resources/images/coin2.png","null","",NA,NA,NA,NA,""
"image-keyboard-response",141,173218,"0.0-4.43-0.43","c1yeqa4qnalb7me",430,"81.csv","","257","resources/trios/L1T2A3.jpg","38","restless",0.8,0.4,0.4,0.258501234686933,"true"
"image-keyboard-response",142,173618,"0.0-4.43-1.43","c1yeqa4qnalb7me",430,"81.csv","","null","resources/maskTrios/BT2B.jpg","null","",NA,NA,NA,NA,""
"image-keyboard-response",143,174821,"0.0-4.43-2.43","c1yeqa4qnalb7me",430,"81.csv","","null","resources/images/coin2.png","null","",NA,NA,NA,NA,""
"image-keyboard-response",144,175099,"0.0-4.44-0.44","c1yeqa4qnalb7me",430,"81.csv","","278","resources/trios/L1T2A3.jpg","39","restless",0.8,0.5,0.4,0.952739852196962,"false"
"image-keyboard-response",145,175502,"0.0-4.44-1.44","c1yeqa4qnalb7me",430,"81.csv","","null","resources/maskTrios/BBA3.jpg","null","",NA,NA,NA,NA,""
"image-keyboard-response",146,176821,"0.0-4.44-2.44","c1yeqa4qnalb7me",430,"81.csv","","null","resources/images/fishbone.png","null","",NA,NA,NA,NA,""
"image-keyboard-response",147,177096,"0.0-4.45-0.45","c1yeqa4qnalb7me",430,"81.csv","","275","resources/trios/L1T2A3.jpg","39","restless",0.8,0.5,0.4,0.23716019586181,"true"
"image-keyboard-response",148,177497,"0.0-4.45-1.45","c1yeqa4qnalb7me",430,"81.csv","","null","resources/maskTrios/BBA3.jpg","null","",NA,NA,NA,NA,""
"image-keyboard-response",149,178830,"0.0-4.45-2.45","c1yeqa4qnalb7me",430,"81.csv","","null","resources/images/coin2.png","null","",NA,NA,NA,NA,""
"image-keyboard-response",150,179072,"0.0-4.46-0.46","c1yeqa4qnalb7me",430,"81.csv","","241","resources/trios/L1T2A3.jpg","37","restless",0.8,0.5,0.4,0.663498701017342,"true"
"image-keyboard-response",151,179471,"0.0-4.46-1.46","c1yeqa4qnalb7me",430,"81.csv","","null","resources/maskTrios/L1BB.jpg","null","",NA,NA,NA,NA,""
"image-keyboard-response",152,180672,"0.0-4.46-2.46","c1yeqa4qnalb7me",430,"81.csv","","null","resources/images/coin2.png","null","",NA,NA,NA,NA,""
"image-keyboard-response",153,181006,"0.0-4.47-0.47","c1yeqa4qnalb7me",430,"81.csv","","333","resources/trios/L1T2A3.jpg","37","restless",0.8,0.5,0.4,0.220963932359178,"true"
"image-keyboard-response",154,181405,"0.0-4.47-1.47","c1yeqa4qnalb7me",430,"81.csv","","null","resources/maskTrios/L1BB.jpg","null","",NA,NA,NA,NA,""
"image-keyboard-response",155,182608,"0.0-4.47-2.47","c1yeqa4qnalb7me",430,"81.csv","","null","resources/images/coin2.png","null","",NA,NA,NA,NA,""
"image-keyboard-response",156,182909,"0.0-4.48-0.48","c1yeqa4qnalb7me",430,"81.csv","","301","resources/trios/L1T2A3.jpg","37","restless",0.8,0.5,0.4,0.567755287131145,"true"
"image-keyboard-response",157,183310,"0.0-4.48-1.48","c1yeqa4qnalb7me",430,"81.csv","","null","resources/maskTrios/L1BB.jpg","null","",NA,NA,NA,NA,""
"image-keyboard-response",158,184513,"0.0-4.48-2.48","c1yeqa4qnalb7me",430,"81.csv","","null","resources/images/coin2.png","null","",NA,NA,NA,NA,""
"image-keyboard-response",159,185398,"0.0-4.49-0.49","c1yeqa4qnalb7me",430,"81.csv","","885","resources/trios/L1T2A3.jpg","37","restless",0.8,0.5,0.4,0.314152983004775,"true"
"image-keyboard-response",160,185800,"0.0-4.49-1.49","c1yeqa4qnalb7me",430,"81.csv","","null","resources/maskTrios/L1BB.jpg","null","",NA,NA,NA,NA,""
"image-keyboard-response",161,187002,"0.0-4.49-2.49","c1yeqa4qnalb7me",430,"81.csv","","null","resources/images/coin2.png","null","",NA,NA,NA,NA,""
"image-keyboard-response",162,188012,"0.0-4.50-0.50","c1yeqa4qnalb7me",430,"81.csv","","1010","resources/trios/L1T2A3.jpg","37","restless",0.8,0.5,0.4,0.727667934152399,"true"
"image-keyboard-response",163,188413,"0.0-4.50-1.50","c1yeqa4qnalb7me",430,"81.csv","","null","resources/maskTrios/L1BB.jpg","null","",NA,NA,NA,NA,""
"image-keyboard-response",164,189614,"0.0-4.50-2.50","c1yeqa4qnalb7me",430,"81.csv","","null","resources/images/coin2.png","null","",NA,NA,NA,NA,""
"image-keyboard-response",165,190330,"0.0-4.51-0.51","c1yeqa4qnalb7me",430,"81.csv","","715","resources/trios/L1T2A3.jpg","39","restless",0.8,0.5,0.4,0.88935482078414,"false"
"image-keyboard-response",166,190730,"0.0-4.51-1.51","c1yeqa4qnalb7me",430,"81.csv","","null","resources/maskTrios/BBA3.jpg","null","",NA,NA,NA,NA,""
"image-keyboard-response",167,191932,"0.0-4.51-2.51","c1yeqa4qnalb7me",430,"81.csv","","null","resources/images/fishbone.png","null","",NA,NA,NA,NA,""
"image-keyboard-response",168,192192,"0.0-4.52-0.52","c1yeqa4qnalb7me",430,"81.csv","","261","resources/trios/L1T2A3.jpg","38","restless",0.8,0.5,0.4,0.224733024351181,"true"
"image-keyboard-response",169,192594,"0.0-4.52-1.52","c1yeqa4qnalb7me",430,"81.csv","","null","resources/maskTrios/BT2B.jpg","null","",NA,NA,NA,NA,""
"image-keyboard-response",170,193795,"0.0-4.52-2.52","c1yeqa4qnalb7me",430,"81.csv","","null","resources/images/coin2.png","null","",NA,NA,NA,NA,""
"image-keyboard-response",171,194058,"0.0-4.53-0.53","c1yeqa4qnalb7me",430,"81.csv","","263","resources/trios/L1T2A3.jpg","38","restless",0.8,0.5,0.4,0.597004062824347,"false"
"image-keyboard-response",172,194458,"0.0-4.53-1.53","c1yeqa4qnalb7me",430,"81.csv","","null","resources/maskTrios/BT2B.jpg","null","",NA,NA,NA,NA,""
"image-keyboard-response",173,195660,"0.0-4.53-2.53","c1yeqa4qnalb7me",430,"81.csv","","null","resources/images/fishbone.png","null","",NA,NA,NA,NA,""
"image-keyboard-response",174,196053,"0.0-4.54-0.54","c1yeqa4qnalb7me",430,"81.csv","","394","resources/trios/L1T2A3.jpg","38","restless",0.8,0.5,0.4,0.0579022578480369,"true"
"image-keyboard-response",175,196455,"0.0-4.54-1.54","c1yeqa4qnalb7me",430,"81.csv","","null","resources/maskTrios/BT2B.jpg","null","",NA,NA,NA,NA,""
"image-keyboard-response",176,197660,"0.0-4.54-2.54","c1yeqa4qnalb7me",430,"81.csv","","null","resources/images/coin2.png","null","",NA,NA,NA,NA,""
"image-keyboard-response",177,197934,"0.0-4.55-0.55","c1yeqa4qnalb7me",430,"81.csv","","274","resources/trios/L1T2A3.jpg","38","restless",0.8,0.5,0.4,0.455083321334373,"true"
"image-keyboard-response",178,198336,"0.0-4.55-1.55","c1yeqa4qnalb7me",430,"81.csv","","null","resources/maskTrios/BT2B.jpg","null","",NA,NA,NA,NA,""
"image-keyboard-response",179,199664,"0.0-4.55-2.55","c1yeqa4qnalb7me",430,"81.csv","","null","resources/images/coin2.png","null","",NA,NA,NA,NA,""
"image-keyboard-response",180,199889,"0.0-4.56-0.56","c1yeqa4qnalb7me",430,"81.csv","","224","resources/trios/L1T2A3.jpg","37","restless",0.8,0.5,0.4,0.463917066329113,"true"
"image-keyboard-response",181,200290,"0.0-4.56-1.56","c1yeqa4qnalb7me",430,"81.csv","","null","resources/maskTrios/L1BB.jpg","null","",NA,NA,NA,NA,""
"image-keyboard-response",182,201490,"0.0-4.56-2.56","c1yeqa4qnalb7me",430,"81.csv","","null","resources/images/coin2.png","null","",NA,NA,NA,NA,""
"image-keyboard-response",183,201772,"0.0-4.57-0.57","c1yeqa4qnalb7me",430,"81.csv","","283","resources/trios/L1T2A3.jpg","39","restless",0.8,0.5,0.5,0.211186592979017,"true"
"image-keyboard-response",184,202174,"0.0-4.57-1.57","c1yeqa4qnalb7me",430,"81.csv","","null","resources/maskTrios/BBA3.jpg","null","",NA,NA,NA,NA,""
"image-keyboard-response",185,203375,"0.0-4.57-2.57","c1yeqa4qnalb7me",430,"81.csv","","null","resources/images/coin2.png","null","",NA,NA,NA,NA,""
"image-keyboard-response",186,203593,"0.0-4.58-0.58","c1yeqa4qnalb7me",430,"81.csv","","217","resources/trios/L1T2A3.jpg","38","restless",0.8,0.5,0.6,0.453126877716188,"true"
"image-keyboard-response",187,203994,"0.0-4.58-1.58","c1yeqa4qnalb7me",430,"81.csv","","null","resources/maskTrios/BT2B.jpg","null","",NA,NA,NA,NA,""
"image-keyboard-response",188,205194,"0.0-4.58-2.58","c1yeqa4qnalb7me",430,"81.csv","","null","resources/images/coin2.png","null","",NA,NA,NA,NA,""
"image-keyboard-response",189,205391,"0.0-4.59-0.59","c1yeqa4qnalb7me",430,"81.csv","","197","resources/trios/L1T2A3.jpg","38","restless",0.8,0.6,0.6,0.373823505901202,"true"
"image-keyboard-response",190,205792,"0.0-4.59-1.59","c1yeqa4qnalb7me",430,"81.csv","","null","resources/maskTrios/BT2B.jpg","null","",NA,NA,NA,NA,""
"image-keyboard-response",191,206994,"0.0-4.59-2.59","c1yeqa4qnalb7me",430,"81.csv","","null","resources/images/coin2.png","null","",NA,NA,NA,NA,""
"image-keyboard-response",192,207232,"0.0-4.60-0.60","c1yeqa4qnalb7me",430,"81.csv","","238","resources/trios/L1T2A3.jpg","38","restless",0.8,0.5,0.6,0.43261298880109,"true"
"image-keyboard-response",193,207633,"0.0-4.60-1.60","c1yeqa4qnalb7me",430,"81.csv","","null","resources/maskTrios/BT2B.jpg","null","",NA,NA,NA,NA,""
"image-keyboard-response",194,208834,"0.0-4.60-2.60","c1yeqa4qnalb7me",430,"81.csv","","null","resources/images/coin2.png","null","",NA,NA,NA,NA,""
"image-keyboard-response",195,209089,"0.0-4.61-0.61","c1yeqa4qnalb7me",430,"81.csv","","256","resources/trios/L1T2A3.jpg","38","restless",0.8,0.5,0.6,0.468530993485229,"true"
"image-keyboard-response",196,209490,"0.0-4.61-1.61","c1yeqa4qnalb7me",430,"81.csv","","null","resources/maskTrios/BT2B.jpg","null","",NA,NA,NA,NA,""
"image-keyboard-response",197,210691,"0.0-4.61-2.61","c1yeqa4qnalb7me",430,"81.csv","","null","resources/images/coin2.png","null","",NA,NA,NA,NA,""
"image-keyboard-response",198,210958,"0.0-4.62-0.62","c1yeqa4qnalb7me",430,"81.csv","","266","resources/trios/L1T2A3.jpg","39","restless",0.8,0.5,0.6,0.630113721844363,"false"
"image-keyboard-response",199,211361,"0.0-4.62-1.62","c1yeqa4qnalb7me",430,"81.csv","","null","resources/maskTrios/BBA3.jpg","null","",NA,NA,NA,NA,""
"image-keyboard-response",200,212563,"0.0-4.62-2.62","c1yeqa4qnalb7me",430,"81.csv","","null","resources/images/fishbone.png","null","",NA,NA,NA,NA,""
"image-keyboard-response",201,212823,"0.0-4.63-0.63","c1yeqa4qnalb7me",430,"81.csv","","261","resources/trios/L1T2A3.jpg","39","restless",0.8,0.5,0.6,0.841895689522887,"false"
"image-keyboard-response",202,213224,"0.0-4.63-1.63","c1yeqa4qnalb7me",430,"81.csv","","null","resources/maskTrios/BBA3.jpg","null","",NA,NA,NA,NA,""
"image-keyboard-response",203,214424,"0.0-4.63-2.63","c1yeqa4qnalb7me",430,"81.csv","","null","resources/images/fishbone.png","null","",NA,NA,NA,NA,""
"image-keyboard-response",204,214680,"0.0-4.64-0.64","c1yeqa4qnalb7me",430,"81.csv","","257","resources/trios/L1T2A3.jpg","37","restless",0.8,0.5,0.6,0.380310012272151,"true"
"image-keyboard-response",205,215081,"0.0-4.64-1.64","c1yeqa4qnalb7me",430,"81.csv","","null","resources/maskTrios/L1BB.jpg","null","",NA,NA,NA,NA,""
"image-keyboard-response",206,216423,"0.0-4.64-2.64","c1yeqa4qnalb7me",430,"81.csv","","null","resources/images/coin2.png","null","",NA,NA,NA,NA,""
"image-keyboard-response",207,216522,"0.0-4.65-0.65","c1yeqa4qnalb7me",430,"81.csv","","99","resources/trios/L1T2A3.jpg","38","restless",0.8,0.5,0.6,0.860600124645195,"false"
"image-keyboard-response",208,216923,"0.0-4.65-1.65","c1yeqa4qnalb7me",430,"81.csv","","null","resources/maskTrios/BT2B.jpg","null","",NA,NA,NA,NA,""
"image-keyboard-response",209,218124,"0.0-4.65-2.65","c1yeqa4qnalb7me",430,"81.csv","","null","resources/images/fishbone.png","null","",NA,NA,NA,NA,""
"image-keyboard-response",210,218319,"0.0-4.66-0.66","c1yeqa4qnalb7me",430,"81.csv","","195","resources/trios/L1T2A3.jpg","38","restless",0.8,0.6,0.5,0.803815978162851,"false"
"image-keyboard-response",211,218722,"0.0-4.66-1.66","c1yeqa4qnalb7me",430,"81.csv","","null","resources/maskTrios/BT2B.jpg","null","",NA,NA,NA,NA,""
"image-keyboard-response",212,219923,"0.0-4.66-2.66","c1yeqa4qnalb7me",430,"81.csv","","null","resources/images/fishbone.png","null","",NA,NA,NA,NA,""
"image-keyboard-response",213,220389,"0.0-4.67-0.67","c1yeqa4qnalb7me",430,"81.csv","","467","resources/trios/L1T2A3.jpg","39","restless",0.8,0.6,0.5,1.44772691172967e-05,"true"
"image-keyboard-response",214,220791,"0.0-4.67-1.67","c1yeqa4qnalb7me",430,"81.csv","","null","resources/maskTrios/BBA3.jpg","null","",NA,NA,NA,NA,""
"image-keyboard-response",215,221993,"0.0-4.67-2.67","c1yeqa4qnalb7me",430,"81.csv","","null","resources/images/coin2.png","null","",NA,NA,NA,NA,""
"image-keyboard-response",216,222232,"0.0-4.68-0.68","c1yeqa4qnalb7me",430,"81.csv","","238","resources/trios/L1T2A3.jpg","37","restless",0.8,0.6,0.5,0.344207719319318,"true"
"image-keyboard-response",217,222632,"0.0-4.68-1.68","c1yeqa4qnalb7me",430,"81.csv","","null","resources/maskTrios/L1BB.jpg","null","",NA,NA,NA,NA,""
"image-keyboard-response",218,223835,"0.0-4.68-2.68","c1yeqa4qnalb7me",430,"81.csv","","null","resources/images/coin2.png","null","",NA,NA,NA,NA,""
"image-keyboard-response",219,224032,"0.0-4.69-0.69","c1yeqa4qnalb7me",430,"81.csv","","197","resources/trios/L1T2A3.jpg","37","restless",0.8,0.6,0.5,0.413499879244943,"true"
"image-keyboard-response",220,224433,"0.0-4.69-1.69","c1yeqa4qnalb7me",430,"81.csv","","null","resources/maskTrios/L1BB.jpg","null","",NA,NA,NA,NA,""
"image-keyboard-response",221,225634,"0.0-4.69-2.69","c1yeqa4qnalb7me",430,"81.csv","","null","resources/images/coin2.png","null","",NA,NA,NA,NA,""
"image-keyboard-response",222,225825,"0.0-4.70-0.70","c1yeqa4qnalb7me",430,"81.csv","","190","resources/trios/L1T2A3.jpg","39","restless",0.8,0.6,0.5,0.0921232648116367,"true"
"image-keyboard-response",223,226226,"0.0-4.70-1.70","c1yeqa4qnalb7me",430,"81.csv","","null","resources/maskTrios/BBA3.jpg","null","",NA,NA,NA,NA,""
"image-keyboard-response",224,227426,"0.0-4.70-2.70","c1yeqa4qnalb7me",430,"81.csv","","null","resources/images/coin2.png","null","",NA,NA,NA,NA,""
"image-keyboard-response",225,227638,"0.0-4.71-0.71","c1yeqa4qnalb7me",430,"81.csv","","211","resources/trios/L1T2A3.jpg","37","restless",0.8,0.6,0.4,0.849845189414982,"false"
"image-keyboard-response",226,228039,"0.0-4.71-1.71","c1yeqa4qnalb7me",430,"81.csv","","null","resources/maskTrios/L1BB.jpg","null","",NA,NA,NA,NA,""
"image-keyboard-response",227,229241,"0.0-4.71-2.71","c1yeqa4qnalb7me",430,"81.csv","","null","resources/images/fishbone.png","null","",NA,NA,NA,NA,""
"image-keyboard-response",228,229417,"0.0-4.72-0.72","c1yeqa4qnalb7me",430,"81.csv","","177","resources/trios/L1T2A3.jpg","38","restless",0.7,0.6,0.4,0.032147650611934,"true"
"image-keyboard-response",229,229817,"0.0-4.72-1.72","c1yeqa4qnalb7me",430,"81.csv","","null","resources/maskTrios/BT2B.jpg","null","",NA,NA,NA,NA,""
"image-keyboard-response",230,231018,"0.0-4.72-2.72","c1yeqa4qnalb7me",430,"81.csv","","null","resources/images/coin2.png","null","",NA,NA,NA,NA,""
"image-keyboard-response",231,231615,"0.0-4.73-0.73","c1yeqa4qnalb7me",430,"81.csv","","597","resources/trios/L1T2A3.jpg","38","restless",0.7,0.5,0.4,0.893256921420533,"false"
"image-keyboard-response",232,232016,"0.0-4.73-1.73","c1yeqa4qnalb7me",430,"81.csv","","null","resources/maskTrios/BT2B.jpg","null","",NA,NA,NA,NA,""
"image-keyboard-response",233,233216,"0.0-4.73-2.73","c1yeqa4qnalb7me",430,"81.csv","","null","resources/images/fishbone.png","null","",NA,NA,NA,NA,""
"image-keyboard-response",234,233455,"0.0-4.74-0.74","c1yeqa4qnalb7me",430,"81.csv","","240","resources/trios/L1T2A3.jpg","39","restless",0.7,0.5,0.4,0.753305907984278,"false"
"image-keyboard-response",235,233855,"0.0-4.74-1.74","c1yeqa4qnalb7me",430,"81.csv","","null","resources/maskTrios/BBA3.jpg","null","",NA,NA,NA,NA,""
"image-keyboard-response",236,235057,"0.0-4.74-2.74","c1yeqa4qnalb7me",430,"81.csv","","null","resources/images/fishbone.png","null","",NA,NA,NA,NA,""
"image-keyboard-response",237,235145,"0.0-4.75-0.75","c1yeqa4qnalb7me",430,"81.csv","","88","resources/trios/L1T2A3.jpg","39","restless",0.7,0.5,0.4,0.309012961195135,"true"
"image-keyboard-response",238,235546,"0.0-4.75-1.75","c1yeqa4qnalb7me",430,"81.csv","","null","resources/maskTrios/BBA3.jpg","null","",NA,NA,NA,NA,""
"image-keyboard-response",239,236747,"0.0-4.75-2.75","c1yeqa4qnalb7me",430,"81.csv","","null","resources/images/coin2.png","null","",NA,NA,NA,NA,""
"image-keyboard-response",240,236983,"0.0-4.76-0.76","c1yeqa4qnalb7me",430,"81.csv","","234","resources/trios/L1T2A3.jpg","39","restless",0.7,0.5,0.4,0.551662371953286,"false"
"image-keyboard-response",241,237383,"0.0-4.76-1.76","c1yeqa4qnalb7me",430,"81.csv","","null","resources/maskTrios/BBA3.jpg","null","",NA,NA,NA,NA,""
"image-keyboard-response",242,238586,"0.0-4.76-2.76","c1yeqa4qnalb7me",430,"81.csv","","null","resources/images/fishbone.png","null","",NA,NA,NA,NA,""
"image-keyboard-response",243,238648,"0.0-4.77-0.77","c1yeqa4qnalb7me",430,"81.csv","","63","resources/trios/L1T2A3.jpg","38","restless",0.7,0.5,0.4,0.860682654041231,"false"
"image-keyboard-response",244,239050,"0.0-4.77-1.77","c1yeqa4qnalb7me",430,"81.csv","","null","resources/maskTrios/BT2B.jpg","null","",NA,NA,NA,NA,""
"image-keyboard-response",245,240251,"0.0-4.77-2.77","c1yeqa4qnalb7me",430,"81.csv","","null","resources/images/fishbone.png","null","",NA,NA,NA,NA,""
"image-keyboard-response",246,240310,"0.0-4.78-0.78","c1yeqa4qnalb7me",430,"81.csv","","59","resources/trios/L1T2A3.jpg","38","restless",0.7,0.5,0.4,0.874243752494393,"false"
"image-keyboard-response",247,240712,"0.0-4.78-1.78","c1yeqa4qnalb7me",430,"81.csv","","null","resources/maskTrios/BT2B.jpg","null","",NA,NA,NA,NA,""
"image-keyboard-response",248,241913,"0.0-4.78-2.78","c1yeqa4qnalb7me",430,"81.csv","","null","resources/images/fishbone.png","null","",NA,NA,NA,NA,""
"image-keyboard-response",249,242286,"0.0-4.79-0.79","c1yeqa4qnalb7me",430,"81.csv","","373","resources/trios/L1T2A3.jpg","38","restless",0.7,0.5,0.4,0.580260590267445,"false"
"image-keyboard-response",250,242687,"0.0-4.79-1.79","c1yeqa4qnalb7me",430,"81.csv","","null","resources/maskTrios/BT2B.jpg","null","",NA,NA,NA,NA,""
"image-keyboard-response",251,243889,"0.0-4.79-2.79","c1yeqa4qnalb7me",430,"81.csv","","null","resources/images/fishbone.png","null","",NA,NA,NA,NA,""
"image-keyboard-response",252,244438,"0.0-4.80-0.80","c1yeqa4qnalb7me",430,"81.csv","","550","resources/trios/L1T2A3.jpg","38","restless",0.7,0.5,0.4,0.82644884235969,"false"
"image-keyboard-response",253,244840,"0.0-4.80-1.80","c1yeqa4qnalb7me",430,"81.csv","","null","resources/maskTrios/BT2B.jpg","null","",NA,NA,NA,NA,""
"image-keyboard-response",254,246040,"0.0-4.80-2.80","c1yeqa4qnalb7me",430,"81.csv","","null","resources/images/fishbone.png","null","",NA,NA,NA,NA,""
"image-keyboard-response",255,246251,"0.0-4.81-0.81","c1yeqa4qnalb7me",430,"81.csv","","211","resources/trios/L1T2A3.jpg","37","restless",0.6,0.5,0.4,0.467721372697116,"true"
"image-keyboard-response",256,246653,"0.0-4.81-1.81","c1yeqa4qnalb7me",430,"81.csv","","null","resources/maskTrios/L1BB.jpg","null","",NA,NA,NA,NA,""
"image-keyboard-response",257,247854,"0.0-4.81-2.81","c1yeqa4qnalb7me",430,"81.csv","","null","resources/images/coin2.png","null","",NA,NA,NA,NA,""
"image-keyboard-response",258,248144,"0.0-4.82-0.82","c1yeqa4qnalb7me",430,"81.csv","","290","resources/trios/L1T2A3.jpg","37","restless",0.6,0.5,0.4,0.0796964963411302,"true"
"image-keyboard-response",259,248544,"0.0-4.82-1.82","c1yeqa4qnalb7me",430,"81.csv","","null","resources/maskTrios/L1BB.jpg","null","",NA,NA,NA,NA,""
"image-keyboard-response",260,249747,"0.0-4.82-2.82","c1yeqa4qnalb7me",430,"81.csv","","null","resources/images/coin2.png","null","",NA,NA,NA,NA,""
"image-keyboard-response",261,250179,"0.0-4.83-0.83","c1yeqa4qnalb7me",430,"81.csv","","431","resources/trios/L1T2A3.jpg","38","restless",0.6,0.5,0.4,0.361133744417832,"true"
"image-keyboard-response",262,250579,"0.0-4.83-1.83","c1yeqa4qnalb7me",430,"81.csv","","null","resources/maskTrios/BT2B.jpg","null","",NA,NA,NA,NA,""
"image-keyboard-response",263,251781,"0.0-4.83-2.83","c1yeqa4qnalb7me",430,"81.csv","","null","resources/images/coin2.png","null","",NA,NA,NA,NA,""
"image-keyboard-response",264,252090,"0.0-4.84-0.84","c1yeqa4qnalb7me",430,"81.csv","","309","resources/trios/L1T2A3.jpg","39","restless",0.7,0.5,0.4,0.949593881989704,"false"
"image-keyboard-response",265,252491,"0.0-4.84-1.84","c1yeqa4qnalb7me",430,"81.csv","","null","resources/maskTrios/BBA3.jpg","null","",NA,NA,NA,NA,""
"image-keyboard-response",266,253692,"0.0-4.84-2.84","c1yeqa4qnalb7me",430,"81.csv","","null","resources/images/fishbone.png","null","",NA,NA,NA,NA,""
"image-keyboard-response",267,253906,"0.0-4.85-0.85","c1yeqa4qnalb7me",430,"81.csv","","213","resources/trios/L1T2A3.jpg","38","restless",0.7,0.5,0.5,0.600378886054313,"false"
"image-keyboard-response",268,254305,"0.0-4.85-1.85","c1yeqa4qnalb7me",430,"81.csv","","null","resources/maskTrios/BT2B.jpg","null","",NA,NA,NA,NA,""
"image-keyboard-response",269,255547,"0.0-4.85-2.85","c1yeqa4qnalb7me",430,"81.csv","","null","resources/images/fishbone.png","null","",NA,NA,NA,NA,""
"image-keyboard-response",270,255752,"0.0-4.86-0.86","c1yeqa4qnalb7me",430,"81.csv","","207","resources/trios/L1T2A3.jpg","37","restless",0.7,0.5,0.5,0.939042175360585,"false"
"image-keyboard-response",271,256153,"0.0-4.86-1.86","c1yeqa4qnalb7me",430,"81.csv","","null","resources/maskTrios/L1BB.jpg","null","",NA,NA,NA,NA,""
"image-keyboard-response",272,257356,"0.0-4.86-2.86","c1yeqa4qnalb7me",430,"81.csv","","null","resources/images/fishbone.png","null","",NA,NA,NA,NA,""
"image-keyboard-response",273,257483,"0.0-4.87-0.87","c1yeqa4qnalb7me",430,"81.csv","","127","resources/trios/L1T2A3.jpg","37","restless",0.7,0.5,0.5,0.0642968861578972,"true"
"image-keyboard-response",274,257886,"0.0-4.87-1.87","c1yeqa4qnalb7me",430,"81.csv","","null","resources/maskTrios/L1BB.jpg","null","",NA,NA,NA,NA,""
"image-keyboard-response",275,259086,"0.0-4.87-2.87","c1yeqa4qnalb7me",430,"81.csv","","null","resources/images/coin2.png","null","",NA,NA,NA,NA,""
"image-keyboard-response",276,259278,"0.0-4.88-0.88","c1yeqa4qnalb7me",430,"81.csv","","192","resources/trios/L1T2A3.jpg","37","restless",0.7,0.5,0.5,0.507824410793532,"true"
"image-keyboard-response",277,259680,"0.0-4.88-1.88","c1yeqa4qnalb7me",430,"81.csv","","null","resources/maskTrios/L1BB.jpg","null","",NA,NA,NA,NA,""
"image-keyboard-response",278,260881,"0.0-4.88-2.88","c1yeqa4qnalb7me",430,"81.csv","","null","resources/images/coin2.png","null","",NA,NA,NA,NA,""
"image-keyboard-response",279,261075,"0.0-4.89-0.89","c1yeqa4qnalb7me",430,"81.csv","","194","resources/trios/L1T2A3.jpg","37","restless",0.8,0.5,0.5,0.524643617363996,"true"
"image-keyboard-response",280,261477,"0.0-4.89-1.89","c1yeqa4qnalb7me",430,"81.csv","","null","resources/maskTrios/L1BB.jpg","null","",NA,NA,NA,NA,""
"image-keyboard-response",281,262678,"0.0-4.89-2.89","c1yeqa4qnalb7me",430,"81.csv","","null","resources/images/coin2.png","null","",NA,NA,NA,NA,""
"image-keyboard-response",282,262890,"0.0-4.90-0.90","c1yeqa4qnalb7me",430,"81.csv","","212","resources/trios/L1T2A3.jpg","37","restless",0.8,0.5,0.5,0.474213302426448,"true"
"image-keyboard-response",283,263293,"0.0-4.90-1.90","c1yeqa4qnalb7me",430,"81.csv","","null","resources/maskTrios/L1BB.jpg","null","",NA,NA,NA,NA,""
"image-keyboard-response",284,264494,"0.0-4.90-2.90","c1yeqa4qnalb7me",430,"81.csv","","null","resources/images/coin2.png","null","",NA,NA,NA,NA,""
"image-keyboard-response",285,264714,"0.0-4.91-0.91","c1yeqa4qnalb7me",430,"81.csv","","220","resources/trios/L1T2A3.jpg","37","restless",0.7,0.5,0.5,0.599755638975053,"true"
"image-keyboard-response",286,265115,"0.0-4.91-1.91","c1yeqa4qnalb7me",430,"81.csv","","null","resources/maskTrios/L1BB.jpg","null","",NA,NA,NA,NA,""
"image-keyboard-response",287,266316,"0.0-4.91-2.91","c1yeqa4qnalb7me",430,"81.csv","","null","resources/images/coin2.png","null","",NA,NA,NA,NA,""
"image-keyboard-response",288,266550,"0.0-4.92-0.92","c1yeqa4qnalb7me",430,"81.csv","","234","resources/trios/L1T2A3.jpg","37","restless",0.7,0.4,0.5,0.367587459798698,"true"
"image-keyboard-response",289,266952,"0.0-4.92-1.92","c1yeqa4qnalb7me",430,"81.csv","","null","resources/maskTrios/L1BB.jpg","null","",NA,NA,NA,NA,""
"image-keyboard-response",290,268152,"0.0-4.92-2.92","c1yeqa4qnalb7me",430,"81.csv","","null","resources/images/coin2.png","null","",NA,NA,NA,NA,""
"image-keyboard-response",291,268393,"0.0-4.93-0.93","c1yeqa4qnalb7me",430,"81.csv","","240","resources/trios/L1T2A3.jpg","37","restless",0.7,0.4,0.5,0.653998380619935,"true"
"image-keyboard-response",292,268794,"0.0-4.93-1.93","c1yeqa4qnalb7me",430,"81.csv","","null","resources/maskTrios/L1BB.jpg","null","",NA,NA,NA,NA,""
"image-keyboard-response",293,269996,"0.0-4.93-2.93","c1yeqa4qnalb7me",430,"81.csv","","null","resources/images/coin2.png","null","",NA,NA,NA,NA,""
"image-keyboard-response",294,270240,"0.0-4.94-0.94","c1yeqa4qnalb7me",430,"81.csv","","244","resources/trios/L1T2A3.jpg","37","restless",0.7,0.4,0.4,0.131757546752187,"true"
"image-keyboard-response",295,270640,"0.0-4.94-1.94","c1yeqa4qnalb7me",430,"81.csv","","null","resources/maskTrios/L1BB.jpg","null","",NA,NA,NA,NA,""
"image-keyboard-response",296,271841,"0.0-4.94-2.94","c1yeqa4qnalb7me",430,"81.csv","","null","resources/images/coin2.png","null","",NA,NA,NA,NA,""
"image-keyboard-response",297,272103,"0.0-4.95-0.95","c1yeqa4qnalb7me",430,"81.csv","","261","resources/trios/L1T2A3.jpg","37","restless",0.7,0.4,0.4,0.785614928836608,"false"
"image-keyboard-response",298,272504,"0.0-4.95-1.95","c1yeqa4qnalb7me",430,"81.csv","","null","resources/maskTrios/L1BB.jpg","null","",NA,NA,NA,NA,""
"image-keyboard-response",299,273704,"0.0-4.95-2.95","c1yeqa4qnalb7me",430,"81.csv","","null","resources/images/fishbone.png","null","",NA,NA,NA,NA,""
"image-keyboard-response",300,274386,"0.0-4.96-0.96","c1yeqa4qnalb7me",430,"81.csv","","682","resources/trios/L1T2A3.jpg","37","restless",0.7,0.4,0.4,0.0291699144210456,"true"
"image-keyboard-response",301,274788,"0.0-4.96-1.96","c1yeqa4qnalb7me",430,"81.csv","","null","resources/maskTrios/L1BB.jpg","null","",NA,NA,NA,NA,""
"image-keyboard-response",302,275988,"0.0-4.96-2.96","c1yeqa4qnalb7me",430,"81.csv","","null","resources/images/coin2.png","null","",NA,NA,NA,NA,""
"image-keyboard-response",303,276229,"0.0-4.97-0.97","c1yeqa4qnalb7me",430,"81.csv","","240","resources/trios/L1T2A3.jpg","37","restless",0.7,0.4,0.4,0.114153101816279,"true"
"image-keyboard-response",304,276629,"0.0-4.97-1.97","c1yeqa4qnalb7me",430,"81.csv","","null","resources/maskTrios/L1BB.jpg","null","",NA,NA,NA,NA,""
"image-keyboard-response",305,277830,"0.0-4.97-2.97","c1yeqa4qnalb7me",430,"81.csv","","null","resources/images/coin2.png","null","",NA,NA,NA,NA,""
"image-keyboard-response",306,278071,"0.0-4.98-0.98","c1yeqa4qnalb7me",430,"81.csv","","240","resources/trios/L1T2A3.jpg","37","restless",0.7,0.4,0.4,0.490982475712693,"true"
"image-keyboard-response",307,278472,"0.0-4.98-1.98","c1yeqa4qnalb7me",430,"81.csv","","null","resources/maskTrios/L1BB.jpg","null","",NA,NA,NA,NA,""
"image-keyboard-response",308,279674,"0.0-4.98-2.98","c1yeqa4qnalb7me",430,"81.csv","","null","resources/images/coin2.png","null","",NA,NA,NA,NA,""
"image-keyboard-response",309,279932,"0.0-4.99-0.99","c1yeqa4qnalb7me",430,"81.csv","","258","resources/trios/L1T2A3.jpg","37","restless",0.7,0.4,0.4,0.502532533309798,"true"
"image-keyboard-response",310,280333,"0.0-4.99-1.99","c1yeqa4qnalb7me",430,"81.csv","","null","resources/maskTrios/L1BB.jpg","null","",NA,NA,NA,NA,""
"image-keyboard-response",311,281533,"0.0-4.99-2.99","c1yeqa4qnalb7me",430,"81.csv","","null","resources/images/coin2.png","null","",NA,NA,NA,NA,""
"image-keyboard-response",312,281726,"0.0-4.100-0.100","c1yeqa4qnalb7me",430,"81.csv","","191","resources/trios/L1T2A3.jpg","37","restless",0.7,0.4,0.4,0.63586630997805,"true"
"image-keyboard-response",313,282128,"0.0-4.100-1.100","c1yeqa4qnalb7me",430,"81.csv","","null","resources/maskTrios/L1BB.jpg","null","",NA,NA,NA,NA,""
"image-keyboard-response",314,283330,"0.0-4.100-2.100","c1yeqa4qnalb7me",430,"81.csv","","null","resources/images/coin2.png","null","",NA,NA,NA,NA,""
"image-keyboard-response",315,283554,"0.0-4.101-0.101","c1yeqa4qnalb7me",430,"81.csv","","224","resources/trios/L1T2A3.jpg","37","restless",0.7,0.4,0.4,0.486571979296177,"true"
"image-keyboard-response",316,283955,"0.0-4.101-1.101","c1yeqa4qnalb7me",430,"81.csv","","null","resources/maskTrios/L1BB.jpg","null","",NA,NA,NA,NA,""
"image-keyboard-response",317,285157,"0.0-4.101-2.101","c1yeqa4qnalb7me",430,"81.csv","","null","resources/images/coin2.png","null","",NA,NA,NA,NA,""
"image-keyboard-response",318,285346,"0.0-4.102-0.102","c1yeqa4qnalb7me",430,"81.csv","","190","resources/trios/L1T2A3.jpg","37","restless",0.7,0.4,0.4,0.296693246194939,"true"
"image-keyboard-response",319,285747,"0.0-4.102-1.102","c1yeqa4qnalb7me",430,"81.csv","","null","resources/maskTrios/L1BB.jpg","null","",NA,NA,NA,NA,""
"image-keyboard-response",320,286947,"0.0-4.102-2.102","c1yeqa4qnalb7me",430,"81.csv","","null","resources/images/coin2.png","null","",NA,NA,NA,NA,""
"image-keyboard-response",321,287149,"0.0-4.103-0.103","c1yeqa4qnalb7me",430,"81.csv","","202","resources/trios/L1T2A3.jpg","37","restless",0.6,0.4,0.4,0.876188671485367,"false"
"image-keyboard-response",322,287550,"0.0-4.103-1.103","c1yeqa4qnalb7me",430,"81.csv","","null","resources/maskTrios/L1BB.jpg","null","",NA,NA,NA,NA,""
"image-keyboard-response",323,288751,"0.0-4.103-2.103","c1yeqa4qnalb7me",430,"81.csv","","null","resources/images/fishbone.png","null","",NA,NA,NA,NA,""
"image-keyboard-response",324,288896,"0.0-4.104-0.104","c1yeqa4qnalb7me",430,"81.csv","","145","resources/trios/L1T2A3.jpg","37","restless",0.6,0.4,0.5,0.421874088218674,"true"
"image-keyboard-response",325,289298,"0.0-4.104-1.104","c1yeqa4qnalb7me",430,"81.csv","","null","resources/maskTrios/L1BB.jpg","null","",NA,NA,NA,NA,""
"image-keyboard-response",326,290498,"0.0-4.104-2.104","c1yeqa4qnalb7me",430,"81.csv","","null","resources/images/coin2.png","null","",NA,NA,NA,NA,""
"image-keyboard-response",327,290588,"0.0-4.105-0.105","c1yeqa4qnalb7me",430,"81.csv","","90","resources/trios/L1T2A3.jpg","37","restless",0.6,0.4,0.5,0.442072265165139,"true"
"image-keyboard-response",328,290989,"0.0-4.105-1.105","c1yeqa4qnalb7me",430,"81.csv","","null","resources/maskTrios/L1BB.jpg","null","",NA,NA,NA,NA,""
"image-keyboard-response",329,292190,"0.0-4.105-2.105","c1yeqa4qnalb7me",430,"81.csv","","null","resources/images/coin2.png","null","",NA,NA,NA,NA,""
"image-keyboard-response",330,292331,"0.0-4.106-0.106","c1yeqa4qnalb7me",430,"81.csv","","141","resources/trios/L1T2A3.jpg","37","restless",0.5,0.4,0.6,0.194099906609682,"true"
"image-keyboard-response",331,292731,"0.0-4.106-1.106","c1yeqa4qnalb7me",430,"81.csv","","null","resources/maskTrios/L1BB.jpg","null","",NA,NA,NA,NA,""
"image-keyboard-response",332,293932,"0.0-4.106-2.106","c1yeqa4qnalb7me",430,"81.csv","","null","resources/images/coin2.png","null","",NA,NA,NA,NA,""
"image-keyboard-response",333,294112,"0.0-4.107-0.107","c1yeqa4qnalb7me",430,"81.csv","","179","resources/trios/L1T2A3.jpg","37","restless",0.5,0.4,0.6,0.008782882563795,"true"
"image-keyboard-response",334,294513,"0.0-4.107-1.107","c1yeqa4qnalb7me",430,"81.csv","","null","resources/maskTrios/L1BB.jpg","null","",NA,NA,NA,NA,""
"image-keyboard-response",335,295713,"0.0-4.107-2.107","c1yeqa4qnalb7me",430,"81.csv","","null","resources/images/coin2.png","null","",NA,NA,NA,NA,""
"image-keyboard-response",336,295887,"0.0-4.108-0.108","c1yeqa4qnalb7me",430,"81.csv","","173","resources/trios/L1T2A3.jpg","37","restless",0.5,0.3,0.6,0.109723665687909,"true"
"image-keyboard-response",337,296287,"0.0-4.108-1.108","c1yeqa4qnalb7me",430,"81.csv","","null","resources/maskTrios/L1BB.jpg","null","",NA,NA,NA,NA,""
"image-keyboard-response",338,297489,"0.0-4.108-2.108","c1yeqa4qnalb7me",430,"81.csv","","null","resources/images/coin2.png","null","",NA,NA,NA,NA,""
"image-keyboard-response",339,297597,"0.0-4.109-0.109","c1yeqa4qnalb7me",430,"81.csv","","108","resources/trios/L1T2A3.jpg","37","restless",0.5,0.3,0.6,0.433691133169803,"true"
"image-keyboard-response",340,297998,"0.0-4.109-1.109","c1yeqa4qnalb7me",430,"81.csv","","null","resources/maskTrios/L1BB.jpg","null","",NA,NA,NA,NA,""
"image-keyboard-response",341,299199,"0.0-4.109-2.109","c1yeqa4qnalb7me",430,"81.csv","","null","resources/images/coin2.png","null","",NA,NA,NA,NA,""
"image-keyboard-response",342,299406,"0.0-4.110-0.110","c1yeqa4qnalb7me",430,"81.csv","","208","resources/trios/L1T2A3.jpg","37","restless",0.5,0.3,0.6,0.393107097911699,"true"
"image-keyboard-response",343,299806,"0.0-4.110-1.110","c1yeqa4qnalb7me",430,"81.csv","","null","resources/maskTrios/L1BB.jpg","null","",NA,NA,NA,NA,""
"image-keyboard-response",344,301008,"0.0-4.110-2.110","c1yeqa4qnalb7me",430,"81.csv","","null","resources/images/coin2.png","null","",NA,NA,NA,NA,""
"image-keyboard-response",345,301058,"0.0-4.111-0.111","c1yeqa4qnalb7me",430,"81.csv","","49","resources/trios/L1T2A3.jpg","37","restless",0.5,0.3,0.6,0.551259044866325,"false"
"image-keyboard-response",346,301458,"0.0-4.111-1.111","c1yeqa4qnalb7me",430,"81.csv","","null","resources/maskTrios/L1BB.jpg","null","",NA,NA,NA,NA,""
"image-keyboard-response",347,302659,"0.0-4.111-2.111","c1yeqa4qnalb7me",430,"81.csv","","null","resources/images/fishbone.png","null","",NA,NA,NA,NA,""
"image-keyboard-response",348,302872,"0.0-4.112-0.112","c1yeqa4qnalb7me",430,"81.csv","","213","resources/trios/L1T2A3.jpg","37","restless",0.5,0.3,0.6,0.504589253691418,"false"
"image-keyboard-response",349,303273,"0.0-4.112-1.112","c1yeqa4qnalb7me",430,"81.csv","","null","resources/maskTrios/L1BB.jpg","null","",NA,NA,NA,NA,""
"image-keyboard-response",350,304473,"0.0-4.112-2.112","c1yeqa4qnalb7me",430,"81.csv","","null","resources/images/fishbone.png","null","",NA,NA,NA,NA,""
"image-keyboard-response",351,304564,"0.0-4.113-0.113","c1yeqa4qnalb7me",430,"81.csv","","91","resources/trios/L1T2A3.jpg","37","restless",0.5,0.3,0.6,0.233083411870624,"true"
"image-keyboard-response",352,304964,"0.0-4.113-1.113","c1yeqa4qnalb7me",430,"81.csv","","null","resources/maskTrios/L1BB.jpg","null","",NA,NA,NA,NA,""
"image-keyboard-response",353,306166,"0.0-4.113-2.113","c1yeqa4qnalb7me",430,"81.csv","","null","resources/images/coin2.png","null","",NA,NA,NA,NA,""
"image-keyboard-response",354,306439,"0.0-4.114-0.114","c1yeqa4qnalb7me",430,"81.csv","","274","resources/trios/L1T2A3.jpg","37","restless",0.5,0.3,0.6,0.293526894096258,"true"
"image-keyboard-response",355,306842,"0.0-4.114-1.114","c1yeqa4qnalb7me",430,"81.csv","","null","resources/maskTrios/L1BB.jpg","null","",NA,NA,NA,NA,""
"image-keyboard-response",356,308042,"0.0-4.114-2.114","c1yeqa4qnalb7me",430,"81.csv","","null","resources/images/coin2.png","null","",NA,NA,NA,NA,""
"image-keyboard-response",357,308307,"0.0-4.115-0.115","c1yeqa4qnalb7me",430,"81.csv","","265","resources/trios/L1T2A3.jpg","37","restless",0.5,0.4,0.6,0.370991611280225,"true"
"image-keyboard-response",358,308709,"0.0-4.115-1.115","c1yeqa4qnalb7me",430,"81.csv","","null","resources/maskTrios/L1BB.jpg","null","",NA,NA,NA,NA,""
"image-keyboard-response",359,309909,"0.0-4.115-2.115","c1yeqa4qnalb7me",430,"81.csv","","null","resources/images/coin2.png","null","",NA,NA,NA,NA,""
"image-keyboard-response",360,310194,"0.0-4.116-0.116","c1yeqa4qnalb7me",430,"81.csv","","286","resources/trios/L1T2A3.jpg","37","restless",0.5,0.5,0.6,0.168865565296519,"true"
"image-keyboard-response",361,310595,"0.0-4.116-1.116","c1yeqa4qnalb7me",430,"81.csv","","null","resources/maskTrios/L1BB.jpg","null","",NA,NA,NA,NA,""
"image-keyboard-response",362,311795,"0.0-4.116-2.116","c1yeqa4qnalb7me",430,"81.csv","","null","resources/images/coin2.png","null","",NA,NA,NA,NA,""
"image-keyboard-response",363,312040,"0.0-4.117-0.117","c1yeqa4qnalb7me",430,"81.csv","","245","resources/trios/L1T2A3.jpg","37","restless",0.5,0.5,0.6,0.158186326433683,"true"
"image-keyboard-response",364,312442,"0.0-4.117-1.117","c1yeqa4qnalb7me",430,"81.csv","","null","resources/maskTrios/L1BB.jpg","null","",NA,NA,NA,NA,""
"image-keyboard-response",365,313641,"0.0-4.117-2.117","c1yeqa4qnalb7me",430,"81.csv","","null","resources/images/coin2.png","null","",NA,NA,NA,NA,""
"image-keyboard-response",366,313848,"0.0-4.118-0.118","c1yeqa4qnalb7me",430,"81.csv","","206","resources/trios/L1T2A3.jpg","37","restless",0.5,0.5,0.6,0.179494978617657,"true"
"image-keyboard-response",367,314249,"0.0-4.118-1.118","c1yeqa4qnalb7me",430,"81.csv","","null","resources/maskTrios/L1BB.jpg","null","",NA,NA,NA,NA,""
"image-keyboard-response",368,315450,"0.0-4.118-2.118","c1yeqa4qnalb7me",430,"81.csv","","null","resources/images/coin2.png","null","",NA,NA,NA,NA,""
"image-keyboard-response",369,315698,"0.0-4.119-0.119","c1yeqa4qnalb7me",430,"81.csv","","248","resources/trios/L1T2A3.jpg","37","restless",0.4,0.6,0.6,0.240638693705189,"true"
"image-keyboard-response",370,316099,"0.0-4.119-1.119","c1yeqa4qnalb7me",430,"81.csv","","null","resources/maskTrios/L1BB.jpg","null","",NA,NA,NA,NA,""
"image-keyboard-response",371,317300,"0.0-4.119-2.119","c1yeqa4qnalb7me",430,"81.csv","","null","resources/images/coin2.png","null","",NA,NA,NA,NA,""
"image-keyboard-response",372,317557,"0.0-4.120-0.120","c1yeqa4qnalb7me",430,"81.csv","","257","resources/trios/L1T2A3.jpg","37","restless",0.4,0.6,0.6,0.16934607729766,"true"
"image-keyboard-response",373,317958,"0.0-4.120-1.120","c1yeqa4qnalb7me",430,"81.csv","","null","resources/maskTrios/L1BB.jpg","null","",NA,NA,NA,NA,""
"image-keyboard-response",374,319159,"0.0-4.120-2.120","c1yeqa4qnalb7me",430,"81.csv","","null","resources/images/coin2.png","null","",NA,NA,NA,NA,""
"image-keyboard-response",375,319417,"0.0-4.121-0.121","c1yeqa4qnalb7me",430,"81.csv","","258","resources/trios/L1T2A3.jpg","37","restless",0.4,0.6,0.6,0.894216984013607,"false"
"image-keyboard-response",376,319818,"0.0-4.121-1.121","c1yeqa4qnalb7me",430,"81.csv","","null","resources/maskTrios/L1BB.jpg","null","",NA,NA,NA,NA,""
"image-keyboard-response",377,321160,"0.0-4.121-2.121","c1yeqa4qnalb7me",430,"81.csv","","null","resources/images/fishbone.png","null","",NA,NA,NA,NA,""
"image-keyboard-response",378,321328,"0.0-4.122-0.122","c1yeqa4qnalb7me",430,"81.csv","","168","resources/trios/L1T2A3.jpg","38","restless",0.4,0.6,0.6,0.970911121977001,"false"
"image-keyboard-response",379,321729,"0.0-4.122-1.122","c1yeqa4qnalb7me",430,"81.csv","","null","resources/maskTrios/BT2B.jpg","null","",NA,NA,NA,NA,""
"image-keyboard-response",380,322930,"0.0-4.122-2.122","c1yeqa4qnalb7me",430,"81.csv","","null","resources/images/fishbone.png","null","",NA,NA,NA,NA,""
"image-keyboard-response",381,323129,"0.0-4.123-0.123","c1yeqa4qnalb7me",430,"81.csv","","198","resources/trios/L1T2A3.jpg","38","restless",0.4,0.6,0.6,0.595173922961586,"true"
"image-keyboard-response",382,323528,"0.0-4.123-1.123","c1yeqa4qnalb7me",430,"81.csv","","null","resources/maskTrios/BT2B.jpg","null","",NA,NA,NA,NA,""
"image-keyboard-response",383,324730,"0.0-4.123-2.123","c1yeqa4qnalb7me",430,"81.csv","","null","resources/images/coin2.png","null","",NA,NA,NA,NA,""
"image-keyboard-response",384,325012,"0.0-4.124-0.124","c1yeqa4qnalb7me",430,"81.csv","","282","resources/trios/L1T2A3.jpg","38","restless",0.4,0.6,0.6,0.995072531654919,"false"
"image-keyboard-response",385,325413,"0.0-4.124-1.124","c1yeqa4qnalb7me",430,"81.csv","","null","resources/maskTrios/BT2B.jpg","null","",NA,NA,NA,NA,""
"image-keyboard-response",386,326615,"0.0-4.124-2.124","c1yeqa4qnalb7me",430,"81.csv","","null","resources/images/fishbone.png","null","",NA,NA,NA,NA,""
"image-keyboard-response",387,326874,"0.0-4.125-0.125","c1yeqa4qnalb7me",430,"81.csv","","259","resources/trios/L1T2A3.jpg","38","restless",0.4,0.6,0.6,0.536602824837746,"true"
"image-keyboard-response",388,327276,"0.0-4.125-1.125","c1yeqa4qnalb7me",430,"81.csv","","null","resources/maskTrios/BT2B.jpg","null","",NA,NA,NA,NA,""
"image-keyboard-response",389,328476,"0.0-4.125-2.125","c1yeqa4qnalb7me",430,"81.csv","","null","resources/images/coin2.png","null","",NA,NA,NA,NA,""
"image-keyboard-response",390,328671,"0.0-4.126-0.126","c1yeqa4qnalb7me",430,"81.csv","","194","resources/trios/L1T2A3.jpg","39","restless",0.4,0.6,0.6,0.0924307772365408,"true"
"image-keyboard-response",391,329070,"0.0-4.126-1.126","c1yeqa4qnalb7me",430,"81.csv","","null","resources/maskTrios/BBA3.jpg","null","",NA,NA,NA,NA,""
"image-keyboard-response",392,330272,"0.0-4.126-2.126","c1yeqa4qnalb7me",430,"81.csv","","null","resources/images/coin2.png","null","",NA,NA,NA,NA,""
"image-keyboard-response",393,330558,"0.0-4.127-0.127","c1yeqa4qnalb7me",430,"81.csv","","286","resources/trios/L1T2A3.jpg","39","restless",0.4,0.6,0.6,0.467301041176843,"true"
"image-keyboard-response",394,330958,"0.0-4.127-1.127","c1yeqa4qnalb7me",430,"81.csv","","null","resources/maskTrios/BBA3.jpg","null","",NA,NA,NA,NA,""
"image-keyboard-response",395,332277,"0.0-4.127-2.127","c1yeqa4qnalb7me",430,"81.csv","","null","resources/images/coin2.png","null","",NA,NA,NA,NA,""
"image-keyboard-response",396,332504,"0.0-4.128-0.128","c1yeqa4qnalb7me",430,"81.csv","","226","resources/trios/L1T2A3.jpg","37","restless",0.4,0.6,0.7,0.091205460607194,"true"
"image-keyboard-response",397,332905,"0.0-4.128-1.128","c1yeqa4qnalb7me",430,"81.csv","","null","resources/maskTrios/L1BB.jpg","null","",NA,NA,NA,NA,""
"image-keyboard-response",398,334106,"0.0-4.128-2.128","c1yeqa4qnalb7me",430,"81.csv","","null","resources/images/coin2.png","null","",NA,NA,NA,NA,""
"image-keyboard-response",399,334377,"0.0-4.129-0.129","c1yeqa4qnalb7me",430,"81.csv","","270","resources/trios/L1T2A3.jpg","38","restless",0.4,0.6,0.6,0.233027442334441,"true"
"image-keyboard-response",400,334778,"0.0-4.129-1.129","c1yeqa4qnalb7me",430,"81.csv","","null","resources/maskTrios/BT2B.jpg","null","",NA,NA,NA,NA,""
"image-keyboard-response",401,335978,"0.0-4.129-2.129","c1yeqa4qnalb7me",430,"81.csv","","null","resources/images/coin2.png","null","",NA,NA,NA,NA,""
"image-keyboard-response",402,336325,"0.0-4.130-0.130","c1yeqa4qnalb7me",430,"81.csv","","347","resources/trios/L1T2A3.jpg","38","restless",0.4,0.6,0.6,0.274816883660331,"true"
"image-keyboard-response",403,336726,"0.0-4.130-1.130","c1yeqa4qnalb7me",430,"81.csv","","null","resources/maskTrios/BT2B.jpg","null","",NA,NA,NA,NA,""
"image-keyboard-response",404,337929,"0.0-4.130-2.130","c1yeqa4qnalb7me",430,"81.csv","","null","resources/images/coin2.png","null","",NA,NA,NA,NA,""
"image-keyboard-response",405,338209,"0.0-4.131-0.131","c1yeqa4qnalb7me",430,"81.csv","","280","resources/trios/L1T2A3.jpg","37","restless",0.4,0.7,0.6,0.390922424831333,"true"
"image-keyboard-response",406,338610,"0.0-4.131-1.131","c1yeqa4qnalb7me",430,"81.csv","","null","resources/maskTrios/L1BB.jpg","null","",NA,NA,NA,NA,""
"image-keyboard-response",407,339810,"0.0-4.131-2.131","c1yeqa4qnalb7me",430,"81.csv","","null","resources/images/coin2.png","null","",NA,NA,NA,NA,""
"image-keyboard-response",408,340029,"0.0-4.132-0.132","c1yeqa4qnalb7me",430,"81.csv","","219","resources/trios/L1T2A3.jpg","37","restless",0.4,0.7,0.6,0.161415175822139,"true"
"image-keyboard-response",409,340431,"0.0-4.132-1.132","c1yeqa4qnalb7me",430,"81.csv","","null","resources/maskTrios/L1BB.jpg","null","",NA,NA,NA,NA,""
"image-keyboard-response",410,341631,"0.0-4.132-2.132","c1yeqa4qnalb7me",430,"81.csv","","null","resources/images/coin2.png","null","",NA,NA,NA,NA,""
"image-keyboard-response",411,341870,"0.0-4.133-0.133","c1yeqa4qnalb7me",430,"81.csv","","239","resources/trios/L1T2A3.jpg","38","restless",0.4,0.7,0.6,0.431415680343655,"true"
"image-keyboard-response",412,342278,"0.0-4.133-1.133","c1yeqa4qnalb7me",430,"81.csv","","null","resources/maskTrios/BT2B.jpg","null","",NA,NA,NA,NA,""
"image-keyboard-response",413,343480,"0.0-4.133-2.133","c1yeqa4qnalb7me",430,"81.csv","","null","resources/images/coin2.png","null","",NA,NA,NA,NA,""
"image-keyboard-response",414,343756,"0.0-4.134-0.134","c1yeqa4qnalb7me",430,"81.csv","","277","resources/trios/L1T2A3.jpg","39","restless",0.4,0.7,0.6,0.127712711852571,"true"
"image-keyboard-response",415,344157,"0.0-4.134-1.134","c1yeqa4qnalb7me",430,"81.csv","","null","resources/maskTrios/BBA3.jpg","null","",NA,NA,NA,NA,""
"image-keyboard-response",416,345358,"0.0-4.134-2.134","c1yeqa4qnalb7me",430,"81.csv","","null","resources/images/coin2.png","null","",NA,NA,NA,NA,""
"image-keyboard-response",417,345554,"0.0-4.135-0.135","c1yeqa4qnalb7me",430,"81.csv","","197","resources/trios/L1T2A3.jpg","38","restless",0.4,0.7,0.6,0.20938002172063,"true"
"image-keyboard-response",418,345955,"0.0-4.135-1.135","c1yeqa4qnalb7me",430,"81.csv","","null","resources/maskTrios/BT2B.jpg","null","",NA,NA,NA,NA,""
"image-keyboard-response",419,347239,"0.0-4.135-2.135","c1yeqa4qnalb7me",430,"81.csv","","null","resources/images/coin2.png","null","",NA,NA,NA,NA,""
"image-keyboard-response",420,347590,"0.0-4.136-0.136","c1yeqa4qnalb7me",430,"81.csv","","350","resources/trios/L1T2A3.jpg","38","restless",0.4,0.7,0.6,0.965046842689425,"false"
"image-keyboard-response",421,347991,"0.0-4.136-1.136","c1yeqa4qnalb7me",430,"81.csv","","null","resources/maskTrios/BT2B.jpg","null","",NA,NA,NA,NA,""
"image-keyboard-response",422,349238,"0.0-4.136-2.136","c1yeqa4qnalb7me",430,"81.csv","","null","resources/images/fishbone.png","null","",NA,NA,NA,NA,""
"image-keyboard-response",423,349480,"0.0-4.137-0.137","c1yeqa4qnalb7me",430,"81.csv","","242","resources/trios/L1T2A3.jpg","38","restless",0.4,0.7,0.6,0.10580586904921,"true"
"image-keyboard-response",424,349882,"0.0-4.137-1.137","c1yeqa4qnalb7me",430,"81.csv","","null","resources/maskTrios/BT2B.jpg","null","",NA,NA,NA,NA,""
"image-keyboard-response",425,351082,"0.0-4.137-2.137","c1yeqa4qnalb7me",430,"81.csv","","null","resources/images/coin2.png","null","",NA,NA,NA,NA,""
"image-keyboard-response",426,351323,"0.0-4.138-0.138","c1yeqa4qnalb7me",430,"81.csv","","239","resources/trios/L1T2A3.jpg","39","restless",0.4,0.8,0.6,0.0213599592671293,"true"
"image-keyboard-response",427,351723,"0.0-4.138-1.138","c1yeqa4qnalb7me",430,"81.csv","","null","resources/maskTrios/BBA3.jpg","null","",NA,NA,NA,NA,""
"image-keyboard-response",428,352925,"0.0-4.138-2.138","c1yeqa4qnalb7me",430,"81.csv","","null","resources/images/coin2.png","null","",NA,NA,NA,NA,""
"image-keyboard-response",429,353141,"0.0-4.139-0.139","c1yeqa4qnalb7me",430,"81.csv","","216","resources/trios/L1T2A3.jpg","39","restless",0.4,0.8,0.5,0.464309507432208,"true"
"image-keyboard-response",430,353542,"0.0-4.139-1.139","c1yeqa4qnalb7me",430,"81.csv","","null","resources/maskTrios/BBA3.jpg","null","",NA,NA,NA,NA,""
"image-keyboard-response",431,354744,"0.0-4.139-2.139","c1yeqa4qnalb7me",430,"81.csv","","null","resources/images/coin2.png","null","",NA,NA,NA,NA,""
"image-keyboard-response",432,354981,"0.0-4.140-0.140","c1yeqa4qnalb7me",430,"81.csv","","237","resources/trios/L1T2A3.jpg","39","restless",0.4,0.8,0.5,0.946838530502091,"false"
"image-keyboard-response",433,355382,"0.0-4.140-1.140","c1yeqa4qnalb7me",430,"81.csv","","null","resources/maskTrios/BBA3.jpg","null","",NA,NA,NA,NA,""
"image-keyboard-response",434,356583,"0.0-4.140-2.140","c1yeqa4qnalb7me",430,"81.csv","","null","resources/images/fishbone.png","null","",NA,NA,NA,NA,""
"image-keyboard-response",435,356774,"0.0-4.141-0.141","c1yeqa4qnalb7me",430,"81.csv","","190","resources/trios/L1T2A3.jpg","38","restless",0.4,0.8,0.5,0.372318919216249,"true"
"image-keyboard-response",436,357175,"0.0-4.141-1.141","c1yeqa4qnalb7me",430,"81.csv","","null","resources/maskTrios/BT2B.jpg","null","",NA,NA,NA,NA,""
"image-keyboard-response",437,358376,"0.0-4.141-2.141","c1yeqa4qnalb7me",430,"81.csv","","null","resources/images/coin2.png","null","",NA,NA,NA,NA,""
"image-keyboard-response",438,358599,"0.0-4.142-0.142","c1yeqa4qnalb7me",430,"81.csv","","223","resources/trios/L1T2A3.jpg","38","restless",0.4,0.8,0.5,0.422727005348846,"true"
"image-keyboard-response",439,359000,"0.0-4.142-1.142","c1yeqa4qnalb7me",430,"81.csv","","null","resources/maskTrios/BT2B.jpg","null","",NA,NA,NA,NA,""
"image-keyboard-response",440,360200,"0.0-4.142-2.142","c1yeqa4qnalb7me",430,"81.csv","","null","resources/images/coin2.png","null","",NA,NA,NA,NA,""
"image-keyboard-response",441,360438,"0.0-4.143-0.143","c1yeqa4qnalb7me",430,"81.csv","","237","resources/trios/L1T2A3.jpg","38","restless",0.4,0.8,0.5,0.605004869510063,"true"
"image-keyboard-response",442,360839,"0.0-4.143-1.143","c1yeqa4qnalb7me",430,"81.csv","","null","resources/maskTrios/BT2B.jpg","null","",NA,NA,NA,NA,""
"image-keyboard-response",443,362038,"0.0-4.143-2.143","c1yeqa4qnalb7me",430,"81.csv","","null","resources/images/coin2.png","null","",NA,NA,NA,NA,""
"image-keyboard-response",444,362235,"0.0-4.144-0.144","c1yeqa4qnalb7me",430,"81.csv","","197","resources/trios/L1T2A3.jpg","38","restless",0.4,0.8,0.5,0.900172678205905,"false"
"image-keyboard-response",445,362636,"0.0-4.144-1.144","c1yeqa4qnalb7me",430,"81.csv","","null","resources/maskTrios/BT2B.jpg","null","",NA,NA,NA,NA,""
"image-keyboard-response",446,363838,"0.0-4.144-2.144","c1yeqa4qnalb7me",430,"81.csv","","null","resources/images/fishbone.png","null","",NA,NA,NA,NA,""
"image-keyboard-response",447,364038,"0.0-4.145-0.145","c1yeqa4qnalb7me",430,"81.csv","","201","resources/trios/L1T2A3.jpg","38","restless",0.4,0.8,0.5,0.248314906381889,"true"
"image-keyboard-response",448,364440,"0.0-4.145-1.145","c1yeqa4qnalb7me",430,"81.csv","","null","resources/maskTrios/BT2B.jpg","null","",NA,NA,NA,NA,""
"image-keyboard-response",449,365640,"0.0-4.145-2.145","c1yeqa4qnalb7me",430,"81.csv","","null","resources/images/coin2.png","null","",NA,NA,NA,NA,""
"image-keyboard-response",450,365896,"0.0-4.146-0.146","c1yeqa4qnalb7me",430,"81.csv","","255","resources/trios/L1T2A3.jpg","37","restless",0.4,0.7,0.5,0.436531306682841,"false"
"image-keyboard-response",451,366297,"0.0-4.146-1.146","c1yeqa4qnalb7me",430,"81.csv","","null","resources/maskTrios/L1BB.jpg","null","",NA,NA,NA,NA,""
"image-keyboard-response",452,367638,"0.0-4.146-2.146","c1yeqa4qnalb7me",430,"81.csv","","null","resources/images/fishbone.png","null","",NA,NA,NA,NA,""
"image-keyboard-response",453,367672,"0.0-4.147-0.147","c1yeqa4qnalb7me",430,"81.csv","","34","resources/trios/L1T2A3.jpg","38","restless",0.4,0.7,0.4,0.510651046369855,"true"
"image-keyboard-response",454,368073,"0.0-4.147-1.147","c1yeqa4qnalb7me",430,"81.csv","","null","resources/maskTrios/BT2B.jpg","null","",NA,NA,NA,NA,""
"image-keyboard-response",455,369275,"0.0-4.147-2.147","c1yeqa4qnalb7me",430,"81.csv","","null","resources/images/coin2.png","null","",NA,NA,NA,NA,""
"image-keyboard-response",456,369490,"0.0-4.148-0.148","c1yeqa4qnalb7me",430,"81.csv","","214","resources/trios/L1T2A3.jpg","38","restless",0.4,0.7,0.4,0.934150028151348,"false"
"image-keyboard-response",457,369912,"0.0-4.148-1.148","c1yeqa4qnalb7me",430,"81.csv","","null","resources/maskTrios/BT2B.jpg","null","",NA,NA,NA,NA,""
"image-keyboard-response",458,371113,"0.0-4.148-2.148","c1yeqa4qnalb7me",430,"81.csv","","null","resources/images/fishbone.png","null","",NA,NA,NA,NA,""
"image-keyboard-response",459,371237,"0.0-4.149-0.149","c1yeqa4qnalb7me",430,"81.csv","","124","resources/trios/L1T2A3.jpg","38","restless",0.3,0.7,0.4,0.539534654584765,"true"
"image-keyboard-response",460,371640,"0.0-4.149-1.149","c1yeqa4qnalb7me",430,"81.csv","","null","resources/maskTrios/BT2B.jpg","null","",NA,NA,NA,NA,""
"image-keyboard-response",461,372841,"0.0-4.149-2.149","c1yeqa4qnalb7me",430,"81.csv","","null","resources/images/coin2.png","null","",NA,NA,NA,NA,""
"image-keyboard-response",462,373127,"0.0-4.150-0.150","c1yeqa4qnalb7me",430,"81.csv","","286","resources/trios/L1T2A3.jpg","38","restless",0.3,0.7,0.4,0.0878106126195984,"true"
"image-keyboard-response",463,373527,"0.0-4.150-1.150","c1yeqa4qnalb7me",430,"81.csv","","null","resources/maskTrios/BT2B.jpg","null","",NA,NA,NA,NA,""
"image-keyboard-response",464,374842,"0.0-4.150-2.150","c1yeqa4qnalb7me",430,"81.csv","","null","resources/images/coin2.png","null","",NA,NA,NA,NA,""
"image-keyboard-response",465,375128,"0.0-4.151-0.151","c1yeqa4qnalb7me",430,"81.csv","","286","resources/trios/L1T2A3.jpg","38","restless",0.3,0.7,0.4,0.635965620843979,"true"
"image-keyboard-response",466,375529,"0.0-4.151-1.151","c1yeqa4qnalb7me",430,"81.csv","","null","resources/maskTrios/BT2B.jpg","null","",NA,NA,NA,NA,""
"image-keyboard-response",467,376844,"0.0-4.151-2.151","c1yeqa4qnalb7me",430,"81.csv","","null","resources/images/coin2.png","null","",NA,NA,NA,NA,""
"image-keyboard-response",468,377098,"0.0-4.152-0.152","c1yeqa4qnalb7me",430,"81.csv","","255","resources/trios/L1T2A3.jpg","38","restless",0.3,0.7,0.4,0.307399458926671,"true"
"image-keyboard-response",469,377500,"0.0-4.152-1.152","c1yeqa4qnalb7me",430,"81.csv","","null","resources/maskTrios/BT2B.jpg","null","",NA,NA,NA,NA,""
"image-keyboard-response",470,378849,"0.0-4.152-2.152","c1yeqa4qnalb7me",430,"81.csv","","null","resources/images/coin2.png","null","",NA,NA,NA,NA,""
"image-keyboard-response",471,379097,"0.0-4.153-0.153","c1yeqa4qnalb7me",430,"81.csv","","248","resources/trios/L1T2A3.jpg","38","restless",0.3,0.7,0.4,0.812886308094281,"false"
"image-keyboard-response",472,379497,"0.0-4.153-1.153","c1yeqa4qnalb7me",430,"81.csv","","null","resources/maskTrios/BT2B.jpg","null","",NA,NA,NA,NA,""
"image-keyboard-response",473,380698,"0.0-4.153-2.153","c1yeqa4qnalb7me",430,"81.csv","","null","resources/images/fishbone.png","null","",NA,NA,NA,NA,""
"image-keyboard-response",474,380913,"0.0-4.154-0.154","c1yeqa4qnalb7me",430,"81.csv","","215","resources/trios/L1T2A3.jpg","38","restless",0.3,0.7,0.4,0.284062520041153,"true"
"image-keyboard-response",475,381314,"0.0-4.154-1.154","c1yeqa4qnalb7me",430,"81.csv","","null","resources/maskTrios/BT2B.jpg","null","",NA,NA,NA,NA,""
"image-keyboard-response",476,382517,"0.0-4.154-2.154","c1yeqa4qnalb7me",430,"81.csv","","null","resources/images/coin2.png","null","",NA,NA,NA,NA,""
"image-keyboard-response",477,382727,"0.0-4.155-0.155","c1yeqa4qnalb7me",430,"81.csv","","210","resources/trios/L1T2A3.jpg","38","restless",0.3,0.7,0.4,0.669402848358869,"true"
"image-keyboard-response",478,383128,"0.0-4.155-1.155","c1yeqa4qnalb7me",430,"81.csv","","null","resources/maskTrios/BT2B.jpg","null","",NA,NA,NA,NA,""
"image-keyboard-response",479,384329,"0.0-4.155-2.155","c1yeqa4qnalb7me",430,"81.csv","","null","resources/images/coin2.png","null","",NA,NA,NA,NA,""
"image-keyboard-response",480,384524,"0.0-4.156-0.156","c1yeqa4qnalb7me",430,"81.csv","","194","resources/trios/L1T2A3.jpg","38","restless",0.3,0.7,0.4,0.371077864905311,"true"
"image-keyboard-response",481,384925,"0.0-4.156-1.156","c1yeqa4qnalb7me",430,"81.csv","","null","resources/maskTrios/BT2B.jpg","null","",NA,NA,NA,NA,""
"image-keyboard-response",482,386126,"0.0-4.156-2.156","c1yeqa4qnalb7me",430,"81.csv","","null","resources/images/coin2.png","null","",NA,NA,NA,NA,""
"image-keyboard-response",483,386305,"0.0-4.157-0.157","c1yeqa4qnalb7me",430,"81.csv","","179","resources/trios/L1T2A3.jpg","38","restless",0.3,0.7,0.4,0.285557284300369,"true"
"image-keyboard-response",484,386706,"0.0-4.157-1.157","c1yeqa4qnalb7me",430,"81.csv","","null","resources/maskTrios/BT2B.jpg","null","",NA,NA,NA,NA,""
"image-keyboard-response",485,387946,"0.0-4.157-2.157","c1yeqa4qnalb7me",430,"81.csv","","null","resources/images/coin2.png","null","",NA,NA,NA,NA,""
"image-keyboard-response",486,388450,"0.0-4.158-0.158","c1yeqa4qnalb7me",430,"81.csv","","504","resources/trios/L1T2A3.jpg","38","restless",0.3,0.7,0.4,0.791115388486526,"false"
"image-keyboard-response",487,388852,"0.0-4.158-1.158","c1yeqa4qnalb7me",430,"81.csv","","null","resources/maskTrios/BT2B.jpg","null","",NA,NA,NA,NA,""
"image-keyboard-response",488,390051,"0.0-4.158-2.158","c1yeqa4qnalb7me",430,"81.csv","","null","resources/images/fishbone.png","null","",NA,NA,NA,NA,""
"image-keyboard-response",489,390274,"0.0-4.159-0.159","c1yeqa4qnalb7me",430,"81.csv","","222","resources/trios/L1T2A3.jpg","38","restless",0.3,0.7,0.4,0.243997776824944,"true"
"image-keyboard-response",490,390674,"0.0-4.159-1.159","c1yeqa4qnalb7me",430,"81.csv","","null","resources/maskTrios/BT2B.jpg","null","",NA,NA,NA,NA,""
"image-keyboard-response",491,391875,"0.0-4.159-2.159","c1yeqa4qnalb7me",430,"81.csv","","null","resources/images/coin2.png","null","",NA,NA,NA,NA,""
"image-keyboard-response",492,392115,"0.0-4.160-0.160","c1yeqa4qnalb7me",430,"81.csv","","240","resources/trios/L1T2A3.jpg","38","restless",0.3,0.7,0.4,0.880695482270339,"false"
"image-keyboard-response",493,392516,"0.0-4.160-1.160","c1yeqa4qnalb7me",430,"81.csv","","null","resources/maskTrios/BT2B.jpg","null","",NA,NA,NA,NA,""
"image-keyboard-response",494,393715,"0.0-4.160-2.160","c1yeqa4qnalb7me",430,"81.csv","","null","resources/images/fishbone.png","null","",NA,NA,NA,NA,""
"image-keyboard-response",495,393933,"0.0-4.161-0.161","c1yeqa4qnalb7me",430,"81.csv","","217","resources/trios/L1T2A3.jpg","38","restless",0.3,0.7,0.5,0.859717453143789,"false"
"image-keyboard-response",496,394334,"0.0-4.161-1.161","c1yeqa4qnalb7me",430,"81.csv","","null","resources/maskTrios/BT2B.jpg","null","",NA,NA,NA,NA,""
"image-keyboard-response",497,395536,"0.0-4.161-2.161","c1yeqa4qnalb7me",430,"81.csv","","null","resources/images/fishbone.png","null","",NA,NA,NA,NA,""
"image-keyboard-response",498,395779,"0.0-4.162-0.162","c1yeqa4qnalb7me",430,"81.csv","","242","resources/trios/L1T2A3.jpg","38","restless",0.3,0.7,0.5,0.862064159700386,"false"
"image-keyboard-response",499,396181,"0.0-4.162-1.162","c1yeqa4qnalb7me",430,"81.csv","","null","resources/maskTrios/BT2B.jpg","null","",NA,NA,NA,NA,""
"image-keyboard-response",500,397381,"0.0-4.162-2.162","c1yeqa4qnalb7me",430,"81.csv","","null","resources/images/fishbone.png","null","",NA,NA,NA,NA,""
"image-keyboard-response",501,397659,"0.0-4.163-0.163","c1yeqa4qnalb7me",430,"81.csv","","278","resources/trios/L1T2A3.jpg","38","restless",0.3,0.7,0.5,0.446529365563275,"true"
"image-keyboard-response",502,398060,"0.0-4.163-1.163","c1yeqa4qnalb7me",430,"81.csv","","null","resources/maskTrios/BT2B.jpg","null","",NA,NA,NA,NA,""
"image-keyboard-response",503,399262,"0.0-4.163-2.163","c1yeqa4qnalb7me",430,"81.csv","","null","resources/images/coin2.png","null","",NA,NA,NA,NA,""
"image-keyboard-response",504,399538,"0.0-4.164-0.164","c1yeqa4qnalb7me",430,"81.csv","","275","resources/trios/L1T2A3.jpg","38","restless",0.2,0.7,0.5,0.439467677366122,"true"
"image-keyboard-response",505,399940,"0.0-4.164-1.164","c1yeqa4qnalb7me",430,"81.csv","","null","resources/maskTrios/BT2B.jpg","null","",NA,NA,NA,NA,""
"image-keyboard-response",506,401143,"0.0-4.164-2.164","c1yeqa4qnalb7me",430,"81.csv","","null","resources/images/coin2.png","null","",NA,NA,NA,NA,""
"image-keyboard-response",507,401386,"0.0-4.165-0.165","c1yeqa4qnalb7me",430,"81.csv","","245","resources/trios/L1T2A3.jpg","38","restless",0.2,0.7,0.5,0.667345202691052,"true"
"image-keyboard-response",508,401787,"0.0-4.165-1.165","c1yeqa4qnalb7me",430,"81.csv","","null","resources/maskTrios/BT2B.jpg","null","",NA,NA,NA,NA,""
"image-keyboard-response",509,402988,"0.0-4.165-2.165","c1yeqa4qnalb7me",430,"81.csv","","null","resources/images/coin2.png","null","",NA,NA,NA,NA,""
"image-keyboard-response",510,403270,"0.0-4.166-0.166","c1yeqa4qnalb7me",430,"81.csv","","281","resources/trios/L1T2A3.jpg","38","restless",0.2,0.7,0.5,0.0250704632106592,"true"
"image-keyboard-response",511,403716,"0.0-4.166-1.166","c1yeqa4qnalb7me",430,"81.csv","","null","resources/maskTrios/BT2B.jpg","null","",NA,NA,NA,NA,""
"image-keyboard-response",512,404916,"0.0-4.166-2.166","c1yeqa4qnalb7me",430,"81.csv","","null","resources/images/coin2.png","null","",NA,NA,NA,NA,""
"image-keyboard-response",513,405204,"0.0-4.167-0.167","c1yeqa4qnalb7me",430,"81.csv","","288","resources/trios/L1T2A3.jpg","38","restless",0.2,0.7,0.5,0.0477304613698745,"true"
"image-keyboard-response",514,405605,"0.0-4.167-1.167","c1yeqa4qnalb7me",430,"81.csv","","null","resources/maskTrios/BT2B.jpg","null","",NA,NA,NA,NA,""
"image-keyboard-response",515,406804,"0.0-4.167-2.167","c1yeqa4qnalb7me",430,"81.csv","","null","resources/images/coin2.png","null","",NA,NA,NA,NA,""
"image-keyboard-response",516,407036,"0.0-4.168-0.168","c1yeqa4qnalb7me",430,"81.csv","","232","resources/trios/L1T2A3.jpg","38","restless",0.2,0.7,0.5,0.11752698980878,"true"
"image-keyboard-response",517,407437,"0.0-4.168-1.168","c1yeqa4qnalb7me",430,"81.csv","","null","resources/maskTrios/BT2B.jpg","null","",NA,NA,NA,NA,""
"image-keyboard-response",518,408716,"0.0-4.168-2.168","c1yeqa4qnalb7me",430,"81.csv","","null","resources/images/coin2.png","null","",NA,NA,NA,NA,""
"image-keyboard-response",519,408930,"0.0-4.169-0.169","c1yeqa4qnalb7me",430,"81.csv","","213","resources/trios/L1T2A3.jpg","38","restless",0.2,0.7,0.5,0.973283885119569,"false"
"image-keyboard-response",520,409331,"0.0-4.169-1.169","c1yeqa4qnalb7me",430,"81.csv","","null","resources/maskTrios/BT2B.jpg","null","",NA,NA,NA,NA,""
"image-keyboard-response",521,410532,"0.0-4.169-2.169","c1yeqa4qnalb7me",430,"81.csv","","null","resources/images/fishbone.png","null","",NA,NA,NA,NA,""
"image-keyboard-response",522,410785,"0.0-4.170-0.170","c1yeqa4qnalb7me",430,"81.csv","","252","resources/trios/L1T2A3.jpg","38","restless",0.2,0.7,0.5,0.341346312904728,"true"
"image-keyboard-response",523,411184,"0.0-4.170-1.170","c1yeqa4qnalb7me",430,"81.csv","","null","resources/maskTrios/BT2B.jpg","null","",NA,NA,NA,NA,""
"image-keyboard-response",524,412532,"0.0-4.170-2.170","c1yeqa4qnalb7me",430,"81.csv","","null","resources/images/coin2.png","null","",NA,NA,NA,NA,""
"image-keyboard-response",525,412789,"0.0-4.171-0.171","c1yeqa4qnalb7me",430,"81.csv","","256","resources/trios/L1T2A3.jpg","38","restless",0.2,0.7,0.5,0.624407349758231,"true"
"image-keyboard-response",526,413188,"0.0-4.171-1.171","c1yeqa4qnalb7me",430,"81.csv","","null","resources/maskTrios/BT2B.jpg","null","",NA,NA,NA,NA,""
"image-keyboard-response",527,414538,"0.0-4.171-2.171","c1yeqa4qnalb7me",430,"81.csv","","null","resources/images/coin2.png","null","",NA,NA,NA,NA,""
"image-keyboard-response",528,414782,"0.0-4.172-0.172","c1yeqa4qnalb7me",430,"81.csv","","245","resources/trios/L1T2A3.jpg","38","restless",0.1,0.7,0.5,0.80079602041301,"false"
"image-keyboard-response",529,415184,"0.0-4.172-1.172","c1yeqa4qnalb7me",430,"81.csv","","null","resources/maskTrios/BT2B.jpg","null","",NA,NA,NA,NA,""
"image-keyboard-response",530,416384,"0.0-4.172-2.172","c1yeqa4qnalb7me",430,"81.csv","","null","resources/images/fishbone.png","null","",NA,NA,NA,NA,""
"image-keyboard-response",531,416668,"0.0-4.173-0.173","c1yeqa4qnalb7me",430,"81.csv","","284","resources/trios/L1T2A3.jpg","37","restless",0.1,0.7,0.5,0.32481261509982,"false"
"image-keyboard-response",532,417070,"0.0-4.173-1.173","c1yeqa4qnalb7me",430,"81.csv","","null","resources/maskTrios/L1BB.jpg","null","",NA,NA,NA,NA,""
"image-keyboard-response",533,418270,"0.0-4.173-2.173","c1yeqa4qnalb7me",430,"81.csv","","null","resources/images/fishbone.png","null","",NA,NA,NA,NA,""
"image-keyboard-response",534,418481,"0.0-4.174-0.174","c1yeqa4qnalb7me",430,"81.csv","","211","resources/trios/L1T2A3.jpg","37","restless",0.1,0.7,0.5,0.982325308597773,"false"
"image-keyboard-response",535,418881,"0.0-4.174-1.174","c1yeqa4qnalb7me",430,"81.csv","","null","resources/maskTrios/L1BB.jpg","null","",NA,NA,NA,NA,""
"image-keyboard-response",536,420202,"0.0-4.174-2.174","c1yeqa4qnalb7me",430,"81.csv","","null","resources/images/fishbone.png","null","",NA,NA,NA,NA,""
"image-keyboard-response",537,420303,"0.0-4.175-0.175","c1yeqa4qnalb7me",430,"81.csv","","101","resources/trios/L1T2A3.jpg","38","restless",0.1,0.7,0.5,0.209558932162248,"true"
"image-keyboard-response",538,420705,"0.0-4.175-1.175","c1yeqa4qnalb7me",430,"81.csv","","null","resources/maskTrios/BT2B.jpg","null","",NA,NA,NA,NA,""
"image-keyboard-response",539,421906,"0.0-4.175-2.175","c1yeqa4qnalb7me",430,"81.csv","","null","resources/images/coin2.png","null","",NA,NA,NA,NA,""
"image-keyboard-response",540,422168,"0.0-4.176-0.176","c1yeqa4qnalb7me",430,"81.csv","","263","resources/trios/L1T2A3.jpg","37","restless",0.1,0.7,0.5,0.182547576588005,"false"
"image-keyboard-response",541,422568,"0.0-4.176-1.176","c1yeqa4qnalb7me",430,"81.csv","","null","resources/maskTrios/L1BB.jpg","null","",NA,NA,NA,NA,""
"image-keyboard-response",542,423906,"0.0-4.176-2.176","c1yeqa4qnalb7me",430,"81.csv","","null","resources/images/fishbone.png","null","",NA,NA,NA,NA,""
"image-keyboard-response",543,424091,"0.0-4.177-0.177","c1yeqa4qnalb7me",430,"81.csv","","185","resources/trios/L1T2A3.jpg","37","restless",0.1,0.7,0.5,0.560672876175992,"false"
"image-keyboard-response",544,424492,"0.0-4.177-1.177","c1yeqa4qnalb7me",430,"81.csv","","null","resources/maskTrios/L1BB.jpg","null","",NA,NA,NA,NA,""
"image-keyboard-response",545,425695,"0.0-4.177-2.177","c1yeqa4qnalb7me",430,"81.csv","","null","resources/images/fishbone.png","null","",NA,NA,NA,NA,""
"image-keyboard-response",546,426027,"0.0-4.178-0.178","c1yeqa4qnalb7me",430,"81.csv","","333","resources/trios/L1T2A3.jpg","39","restless",0.1,0.7,0.5,0.593881348971504,"false"
"image-keyboard-response",547,426428,"0.0-4.178-1.178","c1yeqa4qnalb7me",430,"81.csv","","null","resources/maskTrios/BBA3.jpg","null","",NA,NA,NA,NA,""
"image-keyboard-response",548,427629,"0.0-4.178-2.178","c1yeqa4qnalb7me",430,"81.csv","","null","resources/images/fishbone.png","null","",NA,NA,NA,NA,""
"image-keyboard-response",549,427883,"0.0-4.179-0.179","c1yeqa4qnalb7me",430,"81.csv","","253","resources/trios/L1T2A3.jpg","38","restless",0.1,0.7,0.5,0.694617188264611,"true"
"image-keyboard-response",550,428285,"0.0-4.179-1.179","c1yeqa4qnalb7me",430,"81.csv","","null","resources/maskTrios/BT2B.jpg","null","",NA,NA,NA,NA,""
"image-keyboard-response",551,429487,"0.0-4.179-2.179","c1yeqa4qnalb7me",430,"81.csv","","null","resources/images/coin2.png","null","",NA,NA,NA,NA,""
"image-keyboard-response",552,429725,"0.0-4.180-0.180","c1yeqa4qnalb7me",430,"81.csv","","237","resources/trios/L1T2A3.jpg","38","restless",0.1,0.6,0.5,0.303527896888794,"true"
"image-keyboard-response",553,430126,"0.0-4.180-1.180","c1yeqa4qnalb7me",430,"81.csv","","null","resources/maskTrios/BT2B.jpg","null","",NA,NA,NA,NA,""
"image-keyboard-response",554,431326,"0.0-4.180-2.180","c1yeqa4qnalb7me",430,"81.csv","","null","resources/images/coin2.png","null","",NA,NA,NA,NA,""
"image-keyboard-response",555,431571,"0.0-4.181-0.181","c1yeqa4qnalb7me",430,"81.csv","","244","resources/trios/L1T2A3.jpg","38","restless",0.1,0.6,0.6,0.21123418552057,"true"
"image-keyboard-response",556,431971,"0.0-4.181-1.181","c1yeqa4qnalb7me",430,"81.csv","","null","resources/maskTrios/BT2B.jpg","null","",NA,NA,NA,NA,""
"image-keyboard-response",557,433173,"0.0-4.181-2.181","c1yeqa4qnalb7me",430,"81.csv","","null","resources/images/coin2.png","null","",NA,NA,NA,NA,""
"image-keyboard-response",558,433455,"0.0-4.182-0.182","c1yeqa4qnalb7me",430,"81.csv","","282","resources/trios/L1T2A3.jpg","38","restless",0.1,0.6,0.5,0.795304931950023,"false"
"image-keyboard-response",559,433856,"0.0-4.182-1.182","c1yeqa4qnalb7me",430,"81.csv","","null","resources/maskTrios/BT2B.jpg","null","",NA,NA,NA,NA,""
"image-keyboard-response",560,435173,"0.0-4.182-2.182","c1yeqa4qnalb7me",430,"81.csv","","null","resources/images/fishbone.png","null","",NA,NA,NA,NA,""
"image-keyboard-response",561,435342,"0.0-4.183-0.183","c1yeqa4qnalb7me",430,"81.csv","","167","resources/trios/L1T2A3.jpg","38","restless",0.1,0.6,0.5,0.0461160789468282,"true"
"image-keyboard-response",562,435742,"0.0-4.183-1.183","c1yeqa4qnalb7me",430,"81.csv","","null","resources/maskTrios/BT2B.jpg","null","",NA,NA,NA,NA,""
"image-keyboard-response",563,436942,"0.0-4.183-2.183","c1yeqa4qnalb7me",430,"81.csv","","null","resources/images/coin2.png","null","",NA,NA,NA,NA,""
"image-keyboard-response",564,437182,"0.0-4.184-0.184","c1yeqa4qnalb7me",430,"81.csv","","240","resources/trios/L1T2A3.jpg","38","restless",0.1,0.6,0.5,0.367639773905186,"true"
"image-keyboard-response",565,437582,"0.0-4.184-1.184","c1yeqa4qnalb7me",430,"81.csv","","null","resources/maskTrios/BT2B.jpg","null","",NA,NA,NA,NA,""
"image-keyboard-response",566,438909,"0.0-4.184-2.184","c1yeqa4qnalb7me",430,"81.csv","","null","resources/images/coin2.png","null","",NA,NA,NA,NA,""
"image-keyboard-response",567,439096,"0.0-4.185-0.185","c1yeqa4qnalb7me",430,"81.csv","","187","resources/trios/L1T2A3.jpg","38","restless",0.1,0.6,0.5,0.143256318089554,"true"
"image-keyboard-response",568,439496,"0.0-4.185-1.185","c1yeqa4qnalb7me",430,"81.csv","","null","resources/maskTrios/BT2B.jpg","null","",NA,NA,NA,NA,""
"image-keyboard-response",569,440697,"0.0-4.185-2.185","c1yeqa4qnalb7me",430,"81.csv","","null","resources/images/coin2.png","null","",NA,NA,NA,NA,""
"image-keyboard-response",570,440915,"0.0-4.186-0.186","c1yeqa4qnalb7me",430,"81.csv","","217","resources/trios/L1T2A3.jpg","38","restless",0.1,0.7,0.5,0.865745349589454,"false"
"image-keyboard-response",571,441315,"0.0-4.186-1.186","c1yeqa4qnalb7me",430,"81.csv","","null","resources/maskTrios/BT2B.jpg","null","",NA,NA,NA,NA,""
"image-keyboard-response",572,442515,"0.0-4.186-2.186","c1yeqa4qnalb7me",430,"81.csv","","null","resources/images/fishbone.png","null","",NA,NA,NA,NA,""
"image-keyboard-response",573,442700,"0.0-4.187-0.187","c1yeqa4qnalb7me",430,"81.csv","","185","resources/trios/L1T2A3.jpg","38","restless",0.1,0.7,0.5,0.882340933934071,"false"
"image-keyboard-response",574,443102,"0.0-4.187-1.187","c1yeqa4qnalb7me",430,"81.csv","","null","resources/maskTrios/BT2B.jpg","null","",NA,NA,NA,NA,""
"image-keyboard-response",575,444303,"0.0-4.187-2.187","c1yeqa4qnalb7me",430,"81.csv","","null","resources/images/fishbone.png","null","",NA,NA,NA,NA,""
"image-keyboard-response",576,444592,"0.0-4.188-0.188","c1yeqa4qnalb7me",430,"81.csv","","290","resources/trios/L1T2A3.jpg","38","restless",0.1,0.7,0.5,0.138043831641977,"true"
"image-keyboard-response",577,444993,"0.0-4.188-1.188","c1yeqa4qnalb7me",430,"81.csv","","null","resources/maskTrios/BT2B.jpg","null","",NA,NA,NA,NA,""
"image-keyboard-response",578,446304,"0.0-4.188-2.188","c1yeqa4qnalb7me",430,"81.csv","","null","resources/images/coin2.png","null","",NA,NA,NA,NA,""
"image-keyboard-response",579,446593,"0.0-4.189-0.189","c1yeqa4qnalb7me",430,"81.csv","","289","resources/trios/L1T2A3.jpg","38","restless",0.1,0.7,0.5,0.904520586287313,"false"
"image-keyboard-response",580,446994,"0.0-4.189-1.189","c1yeqa4qnalb7me",430,"81.csv","","null","resources/maskTrios/BT2B.jpg","null","",NA,NA,NA,NA,""
"image-keyboard-response",581,448307,"0.0-4.189-2.189","c1yeqa4qnalb7me",430,"81.csv","","null","resources/images/fishbone.png","null","",NA,NA,NA,NA,""
"image-keyboard-response",582,448984,"0.0-4.190-0.190","c1yeqa4qnalb7me",430,"81.csv","","678","resources/trios/L1T2A3.jpg","38","restless",0.1,0.7,0.5,0.250746530078391,"true"
"image-keyboard-response",583,449385,"0.0-4.190-1.190","c1yeqa4qnalb7me",430,"81.csv","","null","resources/maskTrios/BT2B.jpg","null","",NA,NA,NA,NA,""
"image-keyboard-response",584,450586,"0.0-4.190-2.190","c1yeqa4qnalb7me",430,"81.csv","","null","resources/images/coin2.png","null","",NA,NA,NA,NA,""
"image-keyboard-response",585,450713,"0.0-4.191-0.191","c1yeqa4qnalb7me",430,"81.csv","","127","resources/trios/L1T2A3.jpg","38","restless",0.1,0.7,0.5,0.0915946947023933,"true"
"image-keyboard-response",586,451114,"0.0-4.191-1.191","c1yeqa4qnalb7me",430,"81.csv","","null","resources/maskTrios/BT2B.jpg","null","",NA,NA,NA,NA,""
"image-keyboard-response",587,452314,"0.0-4.191-2.191","c1yeqa4qnalb7me",430,"81.csv","","null","resources/images/coin2.png","null","",NA,NA,NA,NA,""
"image-keyboard-response",588,452804,"0.0-4.192-0.192","c1yeqa4qnalb7me",430,"81.csv","","488","resources/trios/L1T2A3.jpg","38","restless",0.1,0.7,0.5,0.421943402777196,"true"
"image-keyboard-response",589,453206,"0.0-4.192-1.192","c1yeqa4qnalb7me",430,"81.csv","","null","resources/maskTrios/BT2B.jpg","null","",NA,NA,NA,NA,""
"image-keyboard-response",590,454406,"0.0-4.192-2.192","c1yeqa4qnalb7me",430,"81.csv","","null","resources/images/coin2.png","null","",NA,NA,NA,NA,""
"image-keyboard-response",591,454684,"0.0-4.193-0.193","c1yeqa4qnalb7me",430,"81.csv","","278","resources/trios/L1T2A3.jpg","38","restless",0.1,0.7,0.5,0.740046842873554,"false"
"image-keyboard-response",592,455086,"0.0-4.193-1.193","c1yeqa4qnalb7me",430,"81.csv","","null","resources/maskTrios/BT2B.jpg","null","",NA,NA,NA,NA,""
"image-keyboard-response",593,456287,"0.0-4.193-2.193","c1yeqa4qnalb7me",430,"81.csv","","null","resources/images/fishbone.png","null","",NA,NA,NA,NA,""
"image-keyboard-response",594,456521,"0.0-4.194-0.194","c1yeqa4qnalb7me",430,"81.csv","","234","resources/trios/L1T2A3.jpg","38","restless",0.1,0.7,0.5,0.517485761780675,"true"
"image-keyboard-response",595,456922,"0.0-4.194-1.194","c1yeqa4qnalb7me",430,"81.csv","","null","resources/maskTrios/BT2B.jpg","null","",NA,NA,NA,NA,""
"image-keyboard-response",596,458123,"0.0-4.194-2.194","c1yeqa4qnalb7me",430,"81.csv","","null","resources/images/coin2.png","null","",NA,NA,NA,NA,""
"image-keyboard-response",597,458584,"0.0-4.195-0.195","c1yeqa4qnalb7me",430,"81.csv","","460","resources/trios/L1T2A3.jpg","38","restless",0.1,0.7,0.5,0.512083971910746,"true"
"image-keyboard-response",598,458985,"0.0-4.195-1.195","c1yeqa4qnalb7me",430,"81.csv","","null","resources/maskTrios/BT2B.jpg","null","",NA,NA,NA,NA,""
"image-keyboard-response",599,460186,"0.0-4.195-2.195","c1yeqa4qnalb7me",430,"81.csv","","null","resources/images/coin2.png","null","",NA,NA,NA,NA,""
"image-keyboard-response",600,460475,"0.0-4.196-0.196","c1yeqa4qnalb7me",430,"81.csv","","287","resources/trios/L1T2A3.jpg","38","restless",0.1,0.7,0.5,0.634735025357332,"true"
"image-keyboard-response",601,460876,"0.0-4.196-1.196","c1yeqa4qnalb7me",430,"81.csv","","null","resources/maskTrios/BT2B.jpg","null","",NA,NA,NA,NA,""
"image-keyboard-response",602,462079,"0.0-4.196-2.196","c1yeqa4qnalb7me",430,"81.csv","","null","resources/images/coin2.png","null","",NA,NA,NA,NA,""
"image-keyboard-response",603,462475,"0.0-4.197-0.197","c1yeqa4qnalb7me",430,"81.csv","","395","resources/trios/L1T2A3.jpg","38","restless",0.1,0.7,0.5,0.922980841282956,"false"
"image-keyboard-response",604,462875,"0.0-4.197-1.197","c1yeqa4qnalb7me",430,"81.csv","","null","resources/maskTrios/BT2B.jpg","null","",NA,NA,NA,NA,""
"image-keyboard-response",605,464076,"0.0-4.197-2.197","c1yeqa4qnalb7me",430,"81.csv","","null","resources/images/fishbone.png","null","",NA,NA,NA,NA,""
"image-keyboard-response",606,464507,"0.0-4.198-0.198","c1yeqa4qnalb7me",430,"81.csv","","430","resources/trios/L1T2A3.jpg","38","restless",0.2,0.7,0.5,0.877289326374032,"false"
"image-keyboard-response",607,464908,"0.0-4.198-1.198","c1yeqa4qnalb7me",430,"81.csv","","null","resources/maskTrios/BT2B.jpg","null","",NA,NA,NA,NA,""
"image-keyboard-response",608,466110,"0.0-4.198-2.198","c1yeqa4qnalb7me",430,"81.csv","","null","resources/images/fishbone.png","null","",NA,NA,NA,NA,""
"image-keyboard-response",609,466531,"0.0-4.199-0.199","c1yeqa4qnalb7me",430,"81.csv","","421","resources/trios/L1T2A3.jpg","38","restless",0.2,0.7,0.6,0.437172412182865,"true"
"image-keyboard-response",610,466931,"0.0-4.199-1.199","c1yeqa4qnalb7me",430,"81.csv","","null","resources/maskTrios/BT2B.jpg","null","",NA,NA,NA,NA,""
"image-keyboard-response",611,468132,"0.0-4.199-2.199","c1yeqa4qnalb7me",430,"81.csv","","null","resources/images/coin2.png","null","",NA,NA,NA,NA,""
"survey-text",612,587983,"0.0-5.0","c1yeqa4qnalb7me",430,"81.csv","","119850","","","",NA,NA,NA,NA,""
