"trial_type","trial_index","time_elapsed","internal_node_id","subject","participantCode","walkNumber","success","rt","stimulus","key_press","test_part","leftProb","midProb","rightProb","generatedNum","correct"
"pavlovia",0,854,"0.0-0.0","v9z3dbpao12hedw",212,"111.csv","","","","","",NA,NA,NA,NA,""
"fullscreen",1,3696,"0.0-1.0","v9z3dbpao12hedw",212,"111.csv","true","","","","",NA,NA,NA,NA,""
"survey-html-form",2,17213,"0.0-2.0","v9z3dbpao12hedw",212,"111.csv","","13507","","","",NA,NA,NA,NA,""
"image-keyboard-response",3,31752,"0.0-3.0-0.0","v9z3dbpao12hedw",212,"111.csv","","14537.799999952316","resources/images/parrot_nobg.png","13","",NA,NA,NA,NA,""
"image-keyboard-response",4,34755,"0.0-3.0-1.0","v9z3dbpao12hedw",212,"111.csv","","null","resources/image_sets/111.png","null","",NA,NA,NA,NA,""
"image-keyboard-response",5,43560,"0.0-3.0-2.0","v9z3dbpao12hedw",212,"111.csv","","8803.299999952316","resources/image_sets/left_highlight.png","37","",NA,NA,NA,NA,""
"image-keyboard-response",6,46024,"0.0-3.0-3.0","v9z3dbpao12hedw",212,"111.csv","","2462.7000000476837","resources/image_sets/mid_highlight.png","38","",NA,NA,NA,NA,""
"image-keyboard-response",7,47978,"0.0-3.0-4.0","v9z3dbpao12hedw",212,"111.csv","","1953.5999999046326","resources/image_sets/right_highlight.png","39","",NA,NA,NA,NA,""
"image-keyboard-response",8,53748,"0.0-3.0-5.0","v9z3dbpao12hedw",212,"111.csv","","5768.5","resources/image_sets/111.png","13","",NA,NA,NA,NA,""
"image-keyboard-response",9,56320,"0.0-3.0-6.0","v9z3dbpao12hedw",212,"111.csv","","2570.5","resources/images/coin2.png","13","",NA,NA,NA,NA,""
"image-keyboard-response",10,57707,"0.0-3.0-7.0","v9z3dbpao12hedw",212,"111.csv","","1386","resources/images/fishbone.png","13","",NA,NA,NA,NA,""
"html-keyboard-response",11,63139,"0.0-3.0-8.0","v9z3dbpao12hedw",212,"111.csv","","5431","<p>You can track your coin total on the top right of your screen. </p><p>At the end of your journey you will be directed to a survey, so please click on the link before exiting the task</p><p>Press Enter to begin</p>","13","",NA,NA,NA,NA,""
"image-keyboard-response",12,64320,"0.0-4.0-0.0","v9z3dbpao12hedw",212,"111.csv","","1179","resources/trios/L1T4A2.jpg","37","restless",0.9,0.3,0.7,0.196599463193264,"true"
"image-keyboard-response",13,64725,"0.0-4.0-1.0","v9z3dbpao12hedw",212,"111.csv","","null","resources/maskTrios/L1BB.jpg","null","",NA,NA,NA,NA,""
"image-keyboard-response",14,65929,"0.0-4.0-2.0","v9z3dbpao12hedw",212,"111.csv","","null","resources/images/coin2.png","null","",NA,NA,NA,NA,""
"image-keyboard-response",15,66618,"0.0-4.1-0.1","v9z3dbpao12hedw",212,"111.csv","","687.3999998569489","resources/trios/L1T4A2.jpg","38","restless",0.9,0.4,0.7,0.688545948017777,"false"
"image-keyboard-response",16,67020,"0.0-4.1-1.1","v9z3dbpao12hedw",212,"111.csv","","null","resources/maskTrios/BT4B.jpg","null","",NA,NA,NA,NA,""
"image-keyboard-response",17,68223,"0.0-4.1-2.1","v9z3dbpao12hedw",212,"111.csv","","null","resources/images/fishbone.png","null","",NA,NA,NA,NA,""
"image-keyboard-response",18,68721,"0.0-4.2-0.2","v9z3dbpao12hedw",212,"111.csv","","496.39999985694885","resources/trios/L1T4A2.jpg","39","restless",0.9,0.4,0.7,0.540632514322604,"true"
"image-keyboard-response",19,69125,"0.0-4.2-1.2","v9z3dbpao12hedw",212,"111.csv","","null","resources/maskTrios/BBA2.jpg","null","",NA,NA,NA,NA,""
"image-keyboard-response",20,70328,"0.0-4.2-2.2","v9z3dbpao12hedw",212,"111.csv","","null","resources/images/coin2.png","null","",NA,NA,NA,NA,""
"image-keyboard-response",21,70629,"0.0-4.3-0.3","v9z3dbpao12hedw",212,"111.csv","","299.7000000476837","resources/trios/L1T4A2.jpg","38","restless",0.9,0.4,0.7,0.168991060616393,"true"
"image-keyboard-response",22,71032,"0.0-4.3-1.3","v9z3dbpao12hedw",212,"111.csv","","null","resources/maskTrios/BT4B.jpg","null","",NA,NA,NA,NA,""
"image-keyboard-response",23,72234,"0.0-4.3-2.3","v9z3dbpao12hedw",212,"111.csv","","null","resources/images/coin2.png","null","",NA,NA,NA,NA,""
"image-keyboard-response",24,72689,"0.0-4.4-0.4","v9z3dbpao12hedw",212,"111.csv","","452.2999999523163","resources/trios/L1T4A2.jpg","37","restless",0.9,0.4,0.7,0.177416685576022,"true"
"image-keyboard-response",25,73092,"0.0-4.4-1.4","v9z3dbpao12hedw",212,"111.csv","","null","resources/maskTrios/L1BB.jpg","null","",NA,NA,NA,NA,""
"image-keyboard-response",26,74296,"0.0-4.4-2.4","v9z3dbpao12hedw",212,"111.csv","","null","resources/images/coin2.png","null","",NA,NA,NA,NA,""
"image-keyboard-response",27,74868,"0.0-4.5-0.5","v9z3dbpao12hedw",212,"111.csv","","569.9000000953674","resources/trios/L1T4A2.jpg","39","restless",0.9,0.4,0.7,0.566455371689312,"true"
"image-keyboard-response",28,75271,"0.0-4.5-1.5","v9z3dbpao12hedw",212,"111.csv","","null","resources/maskTrios/BBA2.jpg","null","",NA,NA,NA,NA,""
"image-keyboard-response",29,76475,"0.0-4.5-2.5","v9z3dbpao12hedw",212,"111.csv","","null","resources/images/coin2.png","null","",NA,NA,NA,NA,""
"image-keyboard-response",30,77473,"0.0-4.6-0.6","v9z3dbpao12hedw",212,"111.csv","","996.4000000953674","resources/trios/L1T4A2.jpg","38","restless",0.9,0.4,0.7,0.106968479576826,"true"
"image-keyboard-response",31,77877,"0.0-4.6-1.6","v9z3dbpao12hedw",212,"111.csv","","null","resources/maskTrios/BT4B.jpg","null","",NA,NA,NA,NA,""
"image-keyboard-response",32,79079,"0.0-4.6-2.6","v9z3dbpao12hedw",212,"111.csv","","null","resources/images/coin2.png","null","",NA,NA,NA,NA,""
"image-keyboard-response",33,79385,"0.0-4.7-0.7","v9z3dbpao12hedw",212,"111.csv","","304.7000000476837","resources/trios/L1T4A2.jpg","37","restless",0.8,0.4,0.7,0.725791518364021,"true"
"image-keyboard-response",34,79788,"0.0-4.7-1.7","v9z3dbpao12hedw",212,"111.csv","","null","resources/maskTrios/L1BB.jpg","null","",NA,NA,NA,NA,""
"image-keyboard-response",35,80992,"0.0-4.7-2.7","v9z3dbpao12hedw",212,"111.csv","","null","resources/images/coin2.png","null","",NA,NA,NA,NA,""
"image-keyboard-response",36,81235,"0.0-4.8-0.8","v9z3dbpao12hedw",212,"111.csv","","242.79999995231628","resources/trios/L1T4A2.jpg","39","restless",0.8,0.4,0.7,0.325785238803667,"true"
"image-keyboard-response",37,81638,"0.0-4.8-1.8","v9z3dbpao12hedw",212,"111.csv","","null","resources/maskTrios/BBA2.jpg","null","",NA,NA,NA,NA,""
"image-keyboard-response",38,82842,"0.0-4.8-2.8","v9z3dbpao12hedw",212,"111.csv","","null","resources/images/coin2.png","null","",NA,NA,NA,NA,""
"image-keyboard-response",39,83152,"0.0-4.9-0.9","v9z3dbpao12hedw",212,"111.csv","","308","resources/trios/L1T4A2.jpg","38","restless",0.8,0.4,0.7,0.945330593179494,"false"
"image-keyboard-response",40,83555,"0.0-4.9-1.9","v9z3dbpao12hedw",212,"111.csv","","null","resources/maskTrios/BT4B.jpg","null","",NA,NA,NA,NA,""
"image-keyboard-response",41,84758,"0.0-4.9-2.9","v9z3dbpao12hedw",212,"111.csv","","null","resources/images/fishbone.png","null","",NA,NA,NA,NA,""
"image-keyboard-response",42,85396,"0.0-4.10-0.10","v9z3dbpao12hedw",212,"111.csv","","637","resources/trios/L1T4A2.jpg","39","restless",0.8,0.4,0.7,0.985615229113985,"false"
"image-keyboard-response",43,85800,"0.0-4.10-1.10","v9z3dbpao12hedw",212,"111.csv","","null","resources/maskTrios/BBA2.jpg","null","",NA,NA,NA,NA,""
"image-keyboard-response",44,87003,"0.0-4.10-2.10","v9z3dbpao12hedw",212,"111.csv","","null","resources/images/fishbone.png","null","",NA,NA,NA,NA,""
"image-keyboard-response",45,87361,"0.0-4.11-0.11","v9z3dbpao12hedw",212,"111.csv","","356.5","resources/trios/L1T4A2.jpg","37","restless",0.8,0.4,0.7,0.982045333272404,"false"
"image-keyboard-response",46,87764,"0.0-4.11-1.11","v9z3dbpao12hedw",212,"111.csv","","null","resources/maskTrios/L1BB.jpg","null","",NA,NA,NA,NA,""
"image-keyboard-response",47,88967,"0.0-4.11-2.11","v9z3dbpao12hedw",212,"111.csv","","null","resources/images/fishbone.png","null","",NA,NA,NA,NA,""
"image-keyboard-response",48,91089,"0.0-4.12-0.12","v9z3dbpao12hedw",212,"111.csv","","2120","resources/trios/L1T4A2.jpg","38","restless",0.7,0.4,0.7,0.105018778305463,"true"
"image-keyboard-response",49,91492,"0.0-4.12-1.12","v9z3dbpao12hedw",212,"111.csv","","null","resources/maskTrios/BT4B.jpg","null","",NA,NA,NA,NA,""
"image-keyboard-response",50,92696,"0.0-4.12-2.12","v9z3dbpao12hedw",212,"111.csv","","null","resources/images/coin2.png","null","",NA,NA,NA,NA,""
"image-keyboard-response",51,92806,"0.0-4.13-0.13","v9z3dbpao12hedw",212,"111.csv","","108.10000014305115","resources/trios/L1T4A2.jpg","37","restless",0.7,0.4,0.7,0.143426678245197,"true"
"image-keyboard-response",52,93209,"0.0-4.13-1.13","v9z3dbpao12hedw",212,"111.csv","","null","resources/maskTrios/L1BB.jpg","null","",NA,NA,NA,NA,""
"image-keyboard-response",53,94412,"0.0-4.13-2.13","v9z3dbpao12hedw",212,"111.csv","","null","resources/images/coin2.png","null","",NA,NA,NA,NA,""
"image-keyboard-response",54,94476,"0.0-4.14-0.14","v9z3dbpao12hedw",212,"111.csv","","61.60000014305115","resources/trios/L1T4A2.jpg","39","restless",0.7,0.4,0.7,0.0103617914572565,"true"
"image-keyboard-response",55,94880,"0.0-4.14-1.14","v9z3dbpao12hedw",212,"111.csv","","null","resources/maskTrios/BBA2.jpg","null","",NA,NA,NA,NA,""
"image-keyboard-response",56,96083,"0.0-4.14-2.14","v9z3dbpao12hedw",212,"111.csv","","null","resources/images/coin2.png","null","",NA,NA,NA,NA,""
"image-keyboard-response",57,96136,"0.0-4.15-0.15","v9z3dbpao12hedw",212,"111.csv","","51.700000047683716","resources/trios/L1T4A2.jpg","38","restless",0.7,0.4,0.7,0.887696543130597,"false"
"image-keyboard-response",58,96539,"0.0-4.15-1.15","v9z3dbpao12hedw",212,"111.csv","","null","resources/maskTrios/BT4B.jpg","null","",NA,NA,NA,NA,""
"image-keyboard-response",59,97742,"0.0-4.15-2.15","v9z3dbpao12hedw",212,"111.csv","","null","resources/images/fishbone.png","null","",NA,NA,NA,NA,""
"image-keyboard-response",60,98121,"0.0-4.16-0.16","v9z3dbpao12hedw",212,"111.csv","","377.19999980926514","resources/trios/L1T4A2.jpg","37","restless",0.7,0.4,0.7,0.0125500244732297,"true"
"image-keyboard-response",61,98525,"0.0-4.16-1.16","v9z3dbpao12hedw",212,"111.csv","","null","resources/maskTrios/L1BB.jpg","null","",NA,NA,NA,NA,""
"image-keyboard-response",62,99728,"0.0-4.16-2.16","v9z3dbpao12hedw",212,"111.csv","","null","resources/images/coin2.png","null","",NA,NA,NA,NA,""
"image-keyboard-response",63,99976,"0.0-4.17-0.17","v9z3dbpao12hedw",212,"111.csv","","246.59999990463257","resources/trios/L1T4A2.jpg","37","restless",0.7,0.4,0.7,0.0528785128550011,"true"
"image-keyboard-response",64,100379,"0.0-4.17-1.17","v9z3dbpao12hedw",212,"111.csv","","null","resources/maskTrios/L1BB.jpg","null","",NA,NA,NA,NA,""
"image-keyboard-response",65,101582,"0.0-4.17-2.17","v9z3dbpao12hedw",212,"111.csv","","null","resources/images/coin2.png","null","",NA,NA,NA,NA,""
"image-keyboard-response",66,101865,"0.0-4.18-0.18","v9z3dbpao12hedw",212,"111.csv","","280.7000000476837","resources/trios/L1T4A2.jpg","37","restless",0.7,0.4,0.7,0.459153287983987,"true"
"image-keyboard-response",67,102268,"0.0-4.18-1.18","v9z3dbpao12hedw",212,"111.csv","","null","resources/maskTrios/L1BB.jpg","null","",NA,NA,NA,NA,""
"image-keyboard-response",68,103471,"0.0-4.18-2.18","v9z3dbpao12hedw",212,"111.csv","","null","resources/images/coin2.png","null","",NA,NA,NA,NA,""
"image-keyboard-response",69,103560,"0.0-4.19-0.19","v9z3dbpao12hedw",212,"111.csv","","87.70000004768372","resources/trios/L1T4A2.jpg","37","restless",0.7,0.4,0.7,0.737866726274187,"false"
"image-keyboard-response",70,103964,"0.0-4.19-1.19","v9z3dbpao12hedw",212,"111.csv","","null","resources/maskTrios/L1BB.jpg","null","",NA,NA,NA,NA,""
"image-keyboard-response",71,105167,"0.0-4.19-2.19","v9z3dbpao12hedw",212,"111.csv","","null","resources/images/fishbone.png","null","",NA,NA,NA,NA,""
"image-keyboard-response",72,105335,"0.0-4.20-0.20","v9z3dbpao12hedw",212,"111.csv","","165.19999980926514","resources/trios/L1T4A2.jpg","38","restless",0.8,0.4,0.7,0.55690388836351,"false"
"image-keyboard-response",73,105738,"0.0-4.20-1.20","v9z3dbpao12hedw",212,"111.csv","","null","resources/maskTrios/BT4B.jpg","null","",NA,NA,NA,NA,""
"image-keyboard-response",74,106941,"0.0-4.20-2.20","v9z3dbpao12hedw",212,"111.csv","","null","resources/images/fishbone.png","null","",NA,NA,NA,NA,""
"image-keyboard-response",75,107348,"0.0-4.21-0.21","v9z3dbpao12hedw",212,"111.csv","","405","resources/trios/L1T4A2.jpg","39","restless",0.8,0.4,0.6,0.987662920808408,"false"
"image-keyboard-response",76,107751,"0.0-4.21-1.21","v9z3dbpao12hedw",212,"111.csv","","null","resources/maskTrios/BBA2.jpg","null","",NA,NA,NA,NA,""
"image-keyboard-response",77,108954,"0.0-4.21-2.21","v9z3dbpao12hedw",212,"111.csv","","null","resources/images/fishbone.png","null","",NA,NA,NA,NA,""
"image-keyboard-response",78,109458,"0.0-4.22-0.22","v9z3dbpao12hedw",212,"111.csv","","502.60000014305115","resources/trios/L1T4A2.jpg","39","restless",0.8,0.4,0.6,0.408989602370581,"true"
"image-keyboard-response",79,109862,"0.0-4.22-1.22","v9z3dbpao12hedw",212,"111.csv","","null","resources/maskTrios/BBA2.jpg","null","",NA,NA,NA,NA,""
"image-keyboard-response",80,111065,"0.0-4.22-2.22","v9z3dbpao12hedw",212,"111.csv","","null","resources/images/coin2.png","null","",NA,NA,NA,NA,""
"image-keyboard-response",81,111641,"0.0-4.23-0.23","v9z3dbpao12hedw",212,"111.csv","","573.4000000953674","resources/trios/L1T4A2.jpg","38","restless",0.8,0.4,0.6,0.00345416739492466,"true"
"image-keyboard-response",82,112044,"0.0-4.23-1.23","v9z3dbpao12hedw",212,"111.csv","","null","resources/maskTrios/BT4B.jpg","null","",NA,NA,NA,NA,""
"image-keyboard-response",83,113247,"0.0-4.23-2.23","v9z3dbpao12hedw",212,"111.csv","","null","resources/images/coin2.png","null","",NA,NA,NA,NA,""
"image-keyboard-response",84,113423,"0.0-4.24-0.24","v9z3dbpao12hedw",212,"111.csv","","174.40000009536743","resources/trios/L1T4A2.jpg","39","restless",0.7,0.4,0.6,0.390234077824938,"true"
"image-keyboard-response",85,113827,"0.0-4.24-1.24","v9z3dbpao12hedw",212,"111.csv","","null","resources/maskTrios/BBA2.jpg","null","",NA,NA,NA,NA,""
"image-keyboard-response",86,115030,"0.0-4.24-2.24","v9z3dbpao12hedw",212,"111.csv","","null","resources/images/coin2.png","null","",NA,NA,NA,NA,""
"image-keyboard-response",87,115382,"0.0-4.25-0.25","v9z3dbpao12hedw",212,"111.csv","","349.39999985694885","resources/trios/L1T4A2.jpg","38","restless",0.7,0.4,0.6,0.0630987813464277,"true"
"image-keyboard-response",88,115785,"0.0-4.25-1.25","v9z3dbpao12hedw",212,"111.csv","","null","resources/maskTrios/BT4B.jpg","null","",NA,NA,NA,NA,""
"image-keyboard-response",89,116989,"0.0-4.25-2.25","v9z3dbpao12hedw",212,"111.csv","","null","resources/images/coin2.png","null","",NA,NA,NA,NA,""
"image-keyboard-response",90,117335,"0.0-4.26-0.26","v9z3dbpao12hedw",212,"111.csv","","344.09999990463257","resources/trios/L1T4A2.jpg","37","restless",0.7,0.4,0.6,0.262126883589614,"true"
"image-keyboard-response",91,117738,"0.0-4.26-1.26","v9z3dbpao12hedw",212,"111.csv","","null","resources/maskTrios/L1BB.jpg","null","",NA,NA,NA,NA,""
"image-keyboard-response",92,118941,"0.0-4.26-2.26","v9z3dbpao12hedw",212,"111.csv","","null","resources/images/coin2.png","null","",NA,NA,NA,NA,""
"image-keyboard-response",93,119857,"0.0-4.27-0.27","v9z3dbpao12hedw",212,"111.csv","","914.1000001430511","resources/trios/L1T4A2.jpg","37","restless",0.7,0.4,0.6,0.194203767133467,"true"
"image-keyboard-response",94,120261,"0.0-4.27-1.27","v9z3dbpao12hedw",212,"111.csv","","null","resources/maskTrios/L1BB.jpg","null","",NA,NA,NA,NA,""
"image-keyboard-response",95,121463,"0.0-4.27-2.27","v9z3dbpao12hedw",212,"111.csv","","null","resources/images/coin2.png","null","",NA,NA,NA,NA,""
"image-keyboard-response",96,121839,"0.0-4.28-0.28","v9z3dbpao12hedw",212,"111.csv","","373.90000009536743","resources/trios/L1T4A2.jpg","38","restless",0.7,0.4,0.6,0.141300734655006,"true"
"image-keyboard-response",97,122243,"0.0-4.28-1.28","v9z3dbpao12hedw",212,"111.csv","","null","resources/maskTrios/BT4B.jpg","null","",NA,NA,NA,NA,""
"image-keyboard-response",98,123446,"0.0-4.28-2.28","v9z3dbpao12hedw",212,"111.csv","","null","resources/images/coin2.png","null","",NA,NA,NA,NA,""
"image-keyboard-response",99,123663,"0.0-4.29-0.29","v9z3dbpao12hedw",212,"111.csv","","214.29999995231628","resources/trios/L1T4A2.jpg","39","restless",0.6,0.4,0.6,0.321364280094512,"true"
"image-keyboard-response",100,124065,"0.0-4.29-1.29","v9z3dbpao12hedw",212,"111.csv","","null","resources/maskTrios/BBA2.jpg","null","",NA,NA,NA,NA,""
"image-keyboard-response",101,125269,"0.0-4.29-2.29","v9z3dbpao12hedw",212,"111.csv","","null","resources/images/coin2.png","null","",NA,NA,NA,NA,""
"image-keyboard-response",102,125550,"0.0-4.30-0.30","v9z3dbpao12hedw",212,"111.csv","","279.5","resources/trios/L1T4A2.jpg","37","restless",0.6,0.3,0.6,0.372667098946007,"true"
"image-keyboard-response",103,125954,"0.0-4.30-1.30","v9z3dbpao12hedw",212,"111.csv","","null","resources/maskTrios/L1BB.jpg","null","",NA,NA,NA,NA,""
"image-keyboard-response",104,127158,"0.0-4.30-2.30","v9z3dbpao12hedw",212,"111.csv","","null","resources/images/coin2.png","null","",NA,NA,NA,NA,""
"image-keyboard-response",105,127402,"0.0-4.31-0.31","v9z3dbpao12hedw",212,"111.csv","","242.20000004768372","resources/trios/L1T4A2.jpg","38","restless",0.6,0.3,0.6,0.0292092922080733,"true"
"image-keyboard-response",106,127805,"0.0-4.31-1.31","v9z3dbpao12hedw",212,"111.csv","","null","resources/maskTrios/BT4B.jpg","null","",NA,NA,NA,NA,""
"image-keyboard-response",107,129008,"0.0-4.31-2.31","v9z3dbpao12hedw",212,"111.csv","","null","resources/images/coin2.png","null","",NA,NA,NA,NA,""
"image-keyboard-response",108,129186,"0.0-4.32-0.32","v9z3dbpao12hedw",212,"111.csv","","175.60000014305115","resources/trios/L1T4A2.jpg","39","restless",0.6,0.3,0.6,0.689750248831912,"false"
"image-keyboard-response",109,129590,"0.0-4.32-1.32","v9z3dbpao12hedw",212,"111.csv","","null","resources/maskTrios/BBA2.jpg","null","",NA,NA,NA,NA,""
"image-keyboard-response",110,130792,"0.0-4.32-2.32","v9z3dbpao12hedw",212,"111.csv","","null","resources/images/fishbone.png","null","",NA,NA,NA,NA,""
"image-keyboard-response",111,131064,"0.0-4.33-0.33","v9z3dbpao12hedw",212,"111.csv","","269.2999999523163","resources/trios/L1T4A2.jpg","37","restless",0.6,0.3,0.6,0.329886400117907,"true"
"image-keyboard-response",112,131465,"0.0-4.33-1.33","v9z3dbpao12hedw",212,"111.csv","","null","resources/maskTrios/L1BB.jpg","null","",NA,NA,NA,NA,""
"image-keyboard-response",113,132667,"0.0-4.33-2.33","v9z3dbpao12hedw",212,"111.csv","","null","resources/images/coin2.png","null","",NA,NA,NA,NA,""
"image-keyboard-response",114,133011,"0.0-4.34-0.34","v9z3dbpao12hedw",212,"111.csv","","342.09999990463257","resources/trios/L1T4A2.jpg","38","restless",0.6,0.4,0.6,0.559145261040947,"false"
"image-keyboard-response",115,133414,"0.0-4.34-1.34","v9z3dbpao12hedw",212,"111.csv","","null","resources/maskTrios/BT4B.jpg","null","",NA,NA,NA,NA,""
"image-keyboard-response",116,134617,"0.0-4.34-2.34","v9z3dbpao12hedw",212,"111.csv","","null","resources/images/fishbone.png","null","",NA,NA,NA,NA,""
"image-keyboard-response",117,135006,"0.0-4.35-0.35","v9z3dbpao12hedw",212,"111.csv","","387.10000014305115","resources/trios/L1T4A2.jpg","39","restless",0.6,0.4,0.6,0.955018851958231,"false"
"image-keyboard-response",118,135408,"0.0-4.35-1.35","v9z3dbpao12hedw",212,"111.csv","","null","resources/maskTrios/BBA2.jpg","null","",NA,NA,NA,NA,""
"image-keyboard-response",119,136611,"0.0-4.35-2.35","v9z3dbpao12hedw",212,"111.csv","","null","resources/images/fishbone.png","null","",NA,NA,NA,NA,""
"image-keyboard-response",120,136964,"0.0-4.36-0.36","v9z3dbpao12hedw",212,"111.csv","","351.7000000476837","resources/trios/L1T4A2.jpg","37","restless",0.6,0.4,0.6,0.978965593625434,"false"
"image-keyboard-response",121,137367,"0.0-4.36-1.36","v9z3dbpao12hedw",212,"111.csv","","null","resources/maskTrios/L1BB.jpg","null","",NA,NA,NA,NA,""
"image-keyboard-response",122,138571,"0.0-4.36-2.36","v9z3dbpao12hedw",212,"111.csv","","null","resources/images/fishbone.png","null","",NA,NA,NA,NA,""
"image-keyboard-response",123,139385,"0.0-4.37-0.37","v9z3dbpao12hedw",212,"111.csv","","812.5","resources/trios/L1T4A2.jpg","38","restless",0.6,0.4,0.6,0.134830713897284,"true"
"image-keyboard-response",124,139788,"0.0-4.37-1.37","v9z3dbpao12hedw",212,"111.csv","","null","resources/maskTrios/BT4B.jpg","null","",NA,NA,NA,NA,""
"image-keyboard-response",125,140991,"0.0-4.37-2.37","v9z3dbpao12hedw",212,"111.csv","","null","resources/images/coin2.png","null","",NA,NA,NA,NA,""
"image-keyboard-response",126,143888,"0.0-4.38-0.38","v9z3dbpao12hedw",212,"111.csv","","2894.800000190735","resources/trios/L1T4A2.jpg","39","restless",0.6,0.4,0.6,0.0801011729958698,"true"
"image-keyboard-response",127,144291,"0.0-4.38-1.38","v9z3dbpao12hedw",212,"111.csv","","null","resources/maskTrios/BBA2.jpg","null","",NA,NA,NA,NA,""
"image-keyboard-response",128,145494,"0.0-4.38-2.38","v9z3dbpao12hedw",212,"111.csv","","null","resources/images/coin2.png","null","",NA,NA,NA,NA,""
"image-keyboard-response",129,145762,"0.0-4.39-0.39","v9z3dbpao12hedw",212,"111.csv","","265.7999999523163","resources/trios/L1T4A2.jpg","37","restless",0.6,0.4,0.6,0.19257755653513,"true"
"image-keyboard-response",130,146165,"0.0-4.39-1.39","v9z3dbpao12hedw",212,"111.csv","","null","resources/maskTrios/L1BB.jpg","null","",NA,NA,NA,NA,""
"image-keyboard-response",131,147368,"0.0-4.39-2.39","v9z3dbpao12hedw",212,"111.csv","","null","resources/images/coin2.png","null","",NA,NA,NA,NA,""
"image-keyboard-response",132,147608,"0.0-4.40-0.40","v9z3dbpao12hedw",212,"111.csv","","238.09999990463257","resources/trios/L1T4A2.jpg","38","restless",0.6,0.4,0.6,0.740959998728723,"false"
"image-keyboard-response",133,148012,"0.0-4.40-1.40","v9z3dbpao12hedw",212,"111.csv","","null","resources/maskTrios/BT4B.jpg","null","",NA,NA,NA,NA,""
"image-keyboard-response",134,149214,"0.0-4.40-2.40","v9z3dbpao12hedw",212,"111.csv","","null","resources/images/fishbone.png","null","",NA,NA,NA,NA,""
"image-keyboard-response",135,149538,"0.0-4.41-0.41","v9z3dbpao12hedw",212,"111.csv","","321.2000000476837","resources/trios/L1T4A2.jpg","39","restless",0.6,0.4,0.6,0.211219183710056,"true"
"image-keyboard-response",136,149940,"0.0-4.41-1.41","v9z3dbpao12hedw",212,"111.csv","","null","resources/maskTrios/BBA2.jpg","null","",NA,NA,NA,NA,""
"image-keyboard-response",137,151144,"0.0-4.41-2.41","v9z3dbpao12hedw",212,"111.csv","","null","resources/images/coin2.png","null","",NA,NA,NA,NA,""
"image-keyboard-response",138,151292,"0.0-4.42-0.42","v9z3dbpao12hedw",212,"111.csv","","146.39999985694885","resources/trios/L1T4A2.jpg","38","restless",0.6,0.4,0.6,0.85949627166908,"false"
"image-keyboard-response",139,151696,"0.0-4.42-1.42","v9z3dbpao12hedw",212,"111.csv","","null","resources/maskTrios/BT4B.jpg","null","",NA,NA,NA,NA,""
"image-keyboard-response",140,152899,"0.0-4.42-2.42","v9z3dbpao12hedw",212,"111.csv","","null","resources/images/fishbone.png","null","",NA,NA,NA,NA,""
"image-keyboard-response",141,152908,"0.0-4.43-0.43","v9z3dbpao12hedw",212,"111.csv","","7.199999809265137","resources/trios/L1T4A2.jpg","37","restless",0.6,0.4,0.6,0.410392242173097,"true"
"image-keyboard-response",142,153311,"0.0-4.43-1.43","v9z3dbpao12hedw",212,"111.csv","","null","resources/maskTrios/L1BB.jpg","null","",NA,NA,NA,NA,""
"image-keyboard-response",143,154514,"0.0-4.43-2.43","v9z3dbpao12hedw",212,"111.csv","","null","resources/images/coin2.png","null","",NA,NA,NA,NA,""
"image-keyboard-response",144,154794,"0.0-4.44-0.44","v9z3dbpao12hedw",212,"111.csv","","277.60000014305115","resources/trios/L1T4A2.jpg","39","restless",0.6,0.5,0.6,0.880167535604223,"false"
"image-keyboard-response",145,155197,"0.0-4.44-1.44","v9z3dbpao12hedw",212,"111.csv","","null","resources/maskTrios/BBA2.jpg","null","",NA,NA,NA,NA,""
"image-keyboard-response",146,156400,"0.0-4.44-2.44","v9z3dbpao12hedw",212,"111.csv","","null","resources/images/fishbone.png","null","",NA,NA,NA,NA,""
"image-keyboard-response",147,156545,"0.0-4.45-0.45","v9z3dbpao12hedw",212,"111.csv","","142.59999990463257","resources/trios/L1T4A2.jpg","37","restless",0.6,0.5,0.6,0.437190098648116,"true"
"image-keyboard-response",148,156948,"0.0-4.45-1.45","v9z3dbpao12hedw",212,"111.csv","","null","resources/maskTrios/L1BB.jpg","null","",NA,NA,NA,NA,""
"image-keyboard-response",149,158151,"0.0-4.45-2.45","v9z3dbpao12hedw",212,"111.csv","","null","resources/images/coin2.png","null","",NA,NA,NA,NA,""
"image-keyboard-response",150,158300,"0.0-4.46-0.46","v9z3dbpao12hedw",212,"111.csv","","147.09999990463257","resources/trios/L1T4A2.jpg","37","restless",0.6,0.5,0.6,0.107525163870445,"true"
"image-keyboard-response",151,158704,"0.0-4.46-1.46","v9z3dbpao12hedw",212,"111.csv","","null","resources/maskTrios/L1BB.jpg","null","",NA,NA,NA,NA,""
"image-keyboard-response",152,159908,"0.0-4.46-2.46","v9z3dbpao12hedw",212,"111.csv","","null","resources/images/coin2.png","null","",NA,NA,NA,NA,""
"image-keyboard-response",153,160176,"0.0-4.47-0.47","v9z3dbpao12hedw",212,"111.csv","","267.59999990463257","resources/trios/L1T4A2.jpg","37","restless",0.6,0.5,0.7,0.851529600634713,"false"
"image-keyboard-response",154,160580,"0.0-4.47-1.47","v9z3dbpao12hedw",212,"111.csv","","null","resources/maskTrios/L1BB.jpg","null","",NA,NA,NA,NA,""
"image-keyboard-response",155,161783,"0.0-4.47-2.47","v9z3dbpao12hedw",212,"111.csv","","null","resources/images/fishbone.png","null","",NA,NA,NA,NA,""
"image-keyboard-response",156,161807,"0.0-4.48-0.48","v9z3dbpao12hedw",212,"111.csv","","22.200000047683716","resources/trios/L1T4A2.jpg","38","restless",0.5,0.5,0.7,0.792521613177862,"false"
"image-keyboard-response",157,162210,"0.0-4.48-1.48","v9z3dbpao12hedw",212,"111.csv","","null","resources/maskTrios/BT4B.jpg","null","",NA,NA,NA,NA,""
"image-keyboard-response",158,163413,"0.0-4.48-2.48","v9z3dbpao12hedw",212,"111.csv","","null","resources/images/fishbone.png","null","",NA,NA,NA,NA,""
"image-keyboard-response",159,163931,"0.0-4.49-0.49","v9z3dbpao12hedw",212,"111.csv","","516.2999999523163","resources/trios/L1T4A2.jpg","39","restless",0.5,0.4,0.7,0.436060997828961,"true"
"image-keyboard-response",160,164334,"0.0-4.49-1.49","v9z3dbpao12hedw",212,"111.csv","","null","resources/maskTrios/BBA2.jpg","null","",NA,NA,NA,NA,""
"image-keyboard-response",161,165537,"0.0-4.49-2.49","v9z3dbpao12hedw",212,"111.csv","","null","resources/images/coin2.png","null","",NA,NA,NA,NA,""
"image-keyboard-response",162,166135,"0.0-4.50-0.50","v9z3dbpao12hedw",212,"111.csv","","595.7999999523163","resources/trios/L1T4A2.jpg","38","restless",0.5,0.4,0.7,0.616915225429024,"false"
"image-keyboard-response",163,166538,"0.0-4.50-1.50","v9z3dbpao12hedw",212,"111.csv","","null","resources/maskTrios/BT4B.jpg","null","",NA,NA,NA,NA,""
"image-keyboard-response",164,167742,"0.0-4.50-2.50","v9z3dbpao12hedw",212,"111.csv","","null","resources/images/fishbone.png","null","",NA,NA,NA,NA,""
"image-keyboard-response",165,167903,"0.0-4.51-0.51","v9z3dbpao12hedw",212,"111.csv","","158.90000009536743","resources/trios/L1T4A2.jpg","39","restless",0.5,0.4,0.8,0.784619116939451,"true"
"image-keyboard-response",166,168306,"0.0-4.51-1.51","v9z3dbpao12hedw",212,"111.csv","","null","resources/maskTrios/BBA2.jpg","null","",NA,NA,NA,NA,""
"image-keyboard-response",167,169510,"0.0-4.51-2.51","v9z3dbpao12hedw",212,"111.csv","","null","resources/images/coin2.png","null","",NA,NA,NA,NA,""
"image-keyboard-response",168,169675,"0.0-4.52-0.52","v9z3dbpao12hedw",212,"111.csv","","162.90000009536743","resources/trios/L1T4A2.jpg","37","restless",0.5,0.4,0.8,0.506125344718386,"false"
"image-keyboard-response",169,170078,"0.0-4.52-1.52","v9z3dbpao12hedw",212,"111.csv","","null","resources/maskTrios/L1BB.jpg","null","",NA,NA,NA,NA,""
"image-keyboard-response",170,171282,"0.0-4.52-2.52","v9z3dbpao12hedw",212,"111.csv","","null","resources/images/fishbone.png","null","",NA,NA,NA,NA,""
"image-keyboard-response",171,171517,"0.0-4.53-0.53","v9z3dbpao12hedw",212,"111.csv","","233.60000014305115","resources/trios/L1T4A2.jpg","39","restless",0.4,0.4,0.8,0.854524845133907,"false"
"image-keyboard-response",172,171920,"0.0-4.53-1.53","v9z3dbpao12hedw",212,"111.csv","","null","resources/maskTrios/BBA2.jpg","null","",NA,NA,NA,NA,""
"image-keyboard-response",173,173123,"0.0-4.53-2.53","v9z3dbpao12hedw",212,"111.csv","","null","resources/images/fishbone.png","null","",NA,NA,NA,NA,""
"image-keyboard-response",174,173667,"0.0-4.54-0.54","v9z3dbpao12hedw",212,"111.csv","","541.5","resources/trios/L1T4A2.jpg","38","restless",0.4,0.4,0.8,0.677318119919127,"false"
"image-keyboard-response",175,174070,"0.0-4.54-1.54","v9z3dbpao12hedw",212,"111.csv","","null","resources/maskTrios/BT4B.jpg","null","",NA,NA,NA,NA,""
"image-keyboard-response",176,175274,"0.0-4.54-2.54","v9z3dbpao12hedw",212,"111.csv","","null","resources/images/fishbone.png","null","",NA,NA,NA,NA,""
"image-keyboard-response",177,175543,"0.0-4.55-0.55","v9z3dbpao12hedw",212,"111.csv","","267.59999990463257","resources/trios/L1T4A2.jpg","37","restless",0.4,0.4,0.8,0.441650619151914,"false"
"image-keyboard-response",178,175945,"0.0-4.55-1.55","v9z3dbpao12hedw",212,"111.csv","","null","resources/maskTrios/L1BB.jpg","null","",NA,NA,NA,NA,""
"image-keyboard-response",179,177149,"0.0-4.55-2.55","v9z3dbpao12hedw",212,"111.csv","","null","resources/images/fishbone.png","null","",NA,NA,NA,NA,""
"image-keyboard-response",180,177273,"0.0-4.56-0.56","v9z3dbpao12hedw",212,"111.csv","","121.79999995231628","resources/trios/L1T4A2.jpg","39","restless",0.4,0.4,0.8,0.681998675595326,"true"
"image-keyboard-response",181,177676,"0.0-4.56-1.56","v9z3dbpao12hedw",212,"111.csv","","null","resources/maskTrios/BBA2.jpg","null","",NA,NA,NA,NA,""
"image-keyboard-response",182,178879,"0.0-4.56-2.56","v9z3dbpao12hedw",212,"111.csv","","null","resources/images/coin2.png","null","",NA,NA,NA,NA,""
"image-keyboard-response",183,179042,"0.0-4.57-0.57","v9z3dbpao12hedw",212,"111.csv","","160.5","resources/trios/L1T4A2.jpg","37","restless",0.4,0.4,0.8,0.358165512858818,"true"
"image-keyboard-response",184,179445,"0.0-4.57-1.57","v9z3dbpao12hedw",212,"111.csv","","null","resources/maskTrios/L1BB.jpg","null","",NA,NA,NA,NA,""
"image-keyboard-response",185,180647,"0.0-4.57-2.57","v9z3dbpao12hedw",212,"111.csv","","null","resources/images/coin2.png","null","",NA,NA,NA,NA,""
"image-keyboard-response",186,180838,"0.0-4.58-0.58","v9z3dbpao12hedw",212,"111.csv","","187.29999995231628","resources/trios/L1T4A2.jpg","39","restless",0.5,0.4,0.8,0.97748878352532,"false"
"image-keyboard-response",187,181241,"0.0-4.58-1.58","v9z3dbpao12hedw",212,"111.csv","","null","resources/maskTrios/BBA2.jpg","null","",NA,NA,NA,NA,""
"image-keyboard-response",188,182444,"0.0-4.58-2.58","v9z3dbpao12hedw",212,"111.csv","","null","resources/images/fishbone.png","null","",NA,NA,NA,NA,""
"image-keyboard-response",189,182770,"0.0-4.59-0.59","v9z3dbpao12hedw",212,"111.csv","","323.09999990463257","resources/trios/L1T4A2.jpg","37","restless",0.5,0.4,0.8,0.318143722885594,"true"
"image-keyboard-response",190,183173,"0.0-4.59-1.59","v9z3dbpao12hedw",212,"111.csv","","null","resources/maskTrios/L1BB.jpg","null","",NA,NA,NA,NA,""
"image-keyboard-response",191,184376,"0.0-4.59-2.59","v9z3dbpao12hedw",212,"111.csv","","null","resources/images/coin2.png","null","",NA,NA,NA,NA,""
"image-keyboard-response",192,184652,"0.0-4.60-0.60","v9z3dbpao12hedw",212,"111.csv","","273.90000009536743","resources/trios/L1T4A2.jpg","38","restless",0.5,0.4,0.8,0.600835395766732,"false"
"image-keyboard-response",193,185055,"0.0-4.60-1.60","v9z3dbpao12hedw",212,"111.csv","","null","resources/maskTrios/BT4B.jpg","null","",NA,NA,NA,NA,""
"image-keyboard-response",194,186257,"0.0-4.60-2.60","v9z3dbpao12hedw",212,"111.csv","","null","resources/images/fishbone.png","null","",NA,NA,NA,NA,""
"image-keyboard-response",195,187008,"0.0-4.61-0.61","v9z3dbpao12hedw",212,"111.csv","","748.5","resources/trios/L1T4A2.jpg","39","restless",0.5,0.4,0.8,0.656462316464341,"true"
"image-keyboard-response",196,187410,"0.0-4.61-1.61","v9z3dbpao12hedw",212,"111.csv","","null","resources/maskTrios/BBA2.jpg","null","",NA,NA,NA,NA,""
"image-keyboard-response",197,188614,"0.0-4.61-2.61","v9z3dbpao12hedw",212,"111.csv","","null","resources/images/coin2.png","null","",NA,NA,NA,NA,""
"image-keyboard-response",198,188926,"0.0-4.62-0.62","v9z3dbpao12hedw",212,"111.csv","","309.60000014305115","resources/trios/L1T4A2.jpg","37","restless",0.5,0.4,0.7,0.0236224315079019,"true"
"image-keyboard-response",199,189329,"0.0-4.62-1.62","v9z3dbpao12hedw",212,"111.csv","","null","resources/maskTrios/L1BB.jpg","null","",NA,NA,NA,NA,""
"image-keyboard-response",200,190533,"0.0-4.62-2.62","v9z3dbpao12hedw",212,"111.csv","","null","resources/images/coin2.png","null","",NA,NA,NA,NA,""
"image-keyboard-response",201,191014,"0.0-4.63-0.63","v9z3dbpao12hedw",212,"111.csv","","479.09999990463257","resources/trios/L1T4A2.jpg","39","restless",0.5,0.4,0.7,0.942707018093863,"false"
"image-keyboard-response",202,191417,"0.0-4.63-1.63","v9z3dbpao12hedw",212,"111.csv","","null","resources/maskTrios/BBA2.jpg","null","",NA,NA,NA,NA,""
"image-keyboard-response",203,192620,"0.0-4.63-2.63","v9z3dbpao12hedw",212,"111.csv","","null","resources/images/fishbone.png","null","",NA,NA,NA,NA,""
"image-keyboard-response",204,193069,"0.0-4.64-0.64","v9z3dbpao12hedw",212,"111.csv","","447.89999985694885","resources/trios/L1T4A2.jpg","38","restless",0.5,0.4,0.7,0.638254163562642,"false"
"image-keyboard-response",205,193472,"0.0-4.64-1.64","v9z3dbpao12hedw",212,"111.csv","","null","resources/maskTrios/BT4B.jpg","null","",NA,NA,NA,NA,""
"image-keyboard-response",206,194675,"0.0-4.64-2.64","v9z3dbpao12hedw",212,"111.csv","","null","resources/images/fishbone.png","null","",NA,NA,NA,NA,""
"image-keyboard-response",207,195310,"0.0-4.65-0.65","v9z3dbpao12hedw",212,"111.csv","","632.5","resources/trios/L1T4A2.jpg","37","restless",0.5,0.4,0.7,0.610823207845108,"false"
"image-keyboard-response",208,195712,"0.0-4.65-1.65","v9z3dbpao12hedw",212,"111.csv","","null","resources/maskTrios/L1BB.jpg","null","",NA,NA,NA,NA,""
"image-keyboard-response",209,196915,"0.0-4.65-2.65","v9z3dbpao12hedw",212,"111.csv","","null","resources/images/fishbone.png","null","",NA,NA,NA,NA,""
"image-keyboard-response",210,197129,"0.0-4.66-0.66","v9z3dbpao12hedw",212,"111.csv","","212","resources/trios/L1T4A2.jpg","37","restless",0.4,0.4,0.7,0.857556745034838,"false"
"image-keyboard-response",211,197533,"0.0-4.66-1.66","v9z3dbpao12hedw",212,"111.csv","","null","resources/maskTrios/L1BB.jpg","null","",NA,NA,NA,NA,""
"image-keyboard-response",212,198737,"0.0-4.66-2.66","v9z3dbpao12hedw",212,"111.csv","","null","resources/images/fishbone.png","null","",NA,NA,NA,NA,""
"image-keyboard-response",213,198981,"0.0-4.67-0.67","v9z3dbpao12hedw",212,"111.csv","","242","resources/trios/L1T4A2.jpg","37","restless",0.4,0.4,0.6,0.424431051413047,"false"
"image-keyboard-response",214,199384,"0.0-4.67-1.67","v9z3dbpao12hedw",212,"111.csv","","null","resources/maskTrios/L1BB.jpg","null","",NA,NA,NA,NA,""
"image-keyboard-response",215,200587,"0.0-4.67-2.67","v9z3dbpao12hedw",212,"111.csv","","null","resources/images/fishbone.png","null","",NA,NA,NA,NA,""
"image-keyboard-response",216,200776,"0.0-4.68-0.68","v9z3dbpao12hedw",212,"111.csv","","186","resources/trios/L1T4A2.jpg","38","restless",0.4,0.4,0.6,0.150811575140663,"true"
"image-keyboard-response",217,201178,"0.0-4.68-1.68","v9z3dbpao12hedw",212,"111.csv","","null","resources/maskTrios/BT4B.jpg","null","",NA,NA,NA,NA,""
"image-keyboard-response",218,202381,"0.0-4.68-2.68","v9z3dbpao12hedw",212,"111.csv","","null","resources/images/coin2.png","null","",NA,NA,NA,NA,""
"image-keyboard-response",219,204750,"0.0-4.69-0.69","v9z3dbpao12hedw",212,"111.csv","","2366.9000000953674","resources/trios/L1T4A2.jpg","38","restless",0.4,0.4,0.6,0.582832056427012,"false"
"image-keyboard-response",220,205153,"0.0-4.69-1.69","v9z3dbpao12hedw",212,"111.csv","","null","resources/maskTrios/BT4B.jpg","null","",NA,NA,NA,NA,""
"image-keyboard-response",221,206357,"0.0-4.69-2.69","v9z3dbpao12hedw",212,"111.csv","","null","resources/images/fishbone.png","null","",NA,NA,NA,NA,""
"image-keyboard-response",222,206658,"0.0-4.70-0.70","v9z3dbpao12hedw",212,"111.csv","","299.80000019073486","resources/trios/L1T4A2.jpg","39","restless",0.4,0.4,0.6,0.672142864235235,"false"
"image-keyboard-response",223,207061,"0.0-4.70-1.70","v9z3dbpao12hedw",212,"111.csv","","null","resources/maskTrios/BBA2.jpg","null","",NA,NA,NA,NA,""
"image-keyboard-response",224,208264,"0.0-4.70-2.70","v9z3dbpao12hedw",212,"111.csv","","null","resources/images/fishbone.png","null","",NA,NA,NA,NA,""
"image-keyboard-response",225,208617,"0.0-4.71-0.71","v9z3dbpao12hedw",212,"111.csv","","350.7999999523163","resources/trios/L1T4A2.jpg","37","restless",0.4,0.4,0.6,0.519130899773032,"false"
"image-keyboard-response",226,209021,"0.0-4.71-1.71","v9z3dbpao12hedw",212,"111.csv","","null","resources/maskTrios/L1BB.jpg","null","",NA,NA,NA,NA,""
"image-keyboard-response",227,210225,"0.0-4.71-2.71","v9z3dbpao12hedw",212,"111.csv","","null","resources/images/fishbone.png","null","",NA,NA,NA,NA,""
"image-keyboard-response",228,210601,"0.0-4.72-0.72","v9z3dbpao12hedw",212,"111.csv","","374.2999999523163","resources/trios/L1T4A2.jpg","38","restless",0.4,0.4,0.6,0.925457498284145,"false"
"image-keyboard-response",229,211005,"0.0-4.72-1.72","v9z3dbpao12hedw",212,"111.csv","","null","resources/maskTrios/BT4B.jpg","null","",NA,NA,NA,NA,""
"image-keyboard-response",230,212208,"0.0-4.72-2.72","v9z3dbpao12hedw",212,"111.csv","","null","resources/images/fishbone.png","null","",NA,NA,NA,NA,""
"image-keyboard-response",231,212445,"0.0-4.73-0.73","v9z3dbpao12hedw",212,"111.csv","","234.59999990463257","resources/trios/L1T4A2.jpg","39","restless",0.3,0.4,0.6,0.391441517036116,"true"
"image-keyboard-response",232,212847,"0.0-4.73-1.73","v9z3dbpao12hedw",212,"111.csv","","null","resources/maskTrios/BBA2.jpg","null","",NA,NA,NA,NA,""
"image-keyboard-response",233,214051,"0.0-4.73-2.73","v9z3dbpao12hedw",212,"111.csv","","null","resources/images/coin2.png","null","",NA,NA,NA,NA,""
"image-keyboard-response",234,214636,"0.0-4.74-0.74","v9z3dbpao12hedw",212,"111.csv","","583","resources/trios/L1T4A2.jpg","38","restless",0.3,0.4,0.6,0.10216782528935,"true"
"image-keyboard-response",235,215040,"0.0-4.74-1.74","v9z3dbpao12hedw",212,"111.csv","","null","resources/maskTrios/BT4B.jpg","null","",NA,NA,NA,NA,""
"image-keyboard-response",236,216243,"0.0-4.74-2.74","v9z3dbpao12hedw",212,"111.csv","","null","resources/images/coin2.png","null","",NA,NA,NA,NA,""
"image-keyboard-response",237,216609,"0.0-4.75-0.75","v9z3dbpao12hedw",212,"111.csv","","363.7999999523163","resources/trios/L1T4A2.jpg","39","restless",0.3,0.4,0.6,0.846468291824625,"false"
"image-keyboard-response",238,217012,"0.0-4.75-1.75","v9z3dbpao12hedw",212,"111.csv","","null","resources/maskTrios/BBA2.jpg","null","",NA,NA,NA,NA,""
"image-keyboard-response",239,218215,"0.0-4.75-2.75","v9z3dbpao12hedw",212,"111.csv","","null","resources/images/fishbone.png","null","",NA,NA,NA,NA,""
"image-keyboard-response",240,218735,"0.0-4.76-0.76","v9z3dbpao12hedw",212,"111.csv","","517.6999998092651","resources/trios/L1T4A2.jpg","37","restless",0.3,0.4,0.6,0.524908080501819,"false"
"image-keyboard-response",241,219139,"0.0-4.76-1.76","v9z3dbpao12hedw",212,"111.csv","","null","resources/maskTrios/L1BB.jpg","null","",NA,NA,NA,NA,""
"image-keyboard-response",242,220342,"0.0-4.76-2.76","v9z3dbpao12hedw",212,"111.csv","","null","resources/images/fishbone.png","null","",NA,NA,NA,NA,""
"image-keyboard-response",243,221509,"0.0-4.77-0.77","v9z3dbpao12hedw",212,"111.csv","","1164.1000001430511","resources/trios/L1T4A2.jpg","38","restless",0.3,0.4,0.6,0.623406609587068,"false"
"image-keyboard-response",244,221911,"0.0-4.77-1.77","v9z3dbpao12hedw",212,"111.csv","","null","resources/maskTrios/BT4B.jpg","null","",NA,NA,NA,NA,""
"image-keyboard-response",245,223114,"0.0-4.77-2.77","v9z3dbpao12hedw",212,"111.csv","","null","resources/images/fishbone.png","null","",NA,NA,NA,NA,""
"image-keyboard-response",246,223842,"0.0-4.78-0.78","v9z3dbpao12hedw",212,"111.csv","","726.2000000476837","resources/trios/L1T4A2.jpg","37","restless",0.3,0.4,0.6,0.768729973062297,"false"
"image-keyboard-response",247,224245,"0.0-4.78-1.78","v9z3dbpao12hedw",212,"111.csv","","null","resources/maskTrios/L1BB.jpg","null","",NA,NA,NA,NA,""
"image-keyboard-response",248,225448,"0.0-4.78-2.78","v9z3dbpao12hedw",212,"111.csv","","null","resources/images/fishbone.png","null","",NA,NA,NA,NA,""
"image-keyboard-response",249,225560,"0.0-4.79-0.79","v9z3dbpao12hedw",212,"111.csv","","109.89999985694885","resources/trios/L1T4A2.jpg","38","restless",0.4,0.4,0.5,0.50459543399926,"false"
"image-keyboard-response",250,225963,"0.0-4.79-1.79","v9z3dbpao12hedw",212,"111.csv","","null","resources/maskTrios/BT4B.jpg","null","",NA,NA,NA,NA,""
"image-keyboard-response",251,227166,"0.0-4.79-2.79","v9z3dbpao12hedw",212,"111.csv","","null","resources/images/fishbone.png","null","",NA,NA,NA,NA,""
"image-keyboard-response",252,227250,"0.0-4.80-0.80","v9z3dbpao12hedw",212,"111.csv","","82","resources/trios/L1T4A2.jpg","39","restless",0.4,0.4,0.5,0.833829969887656,"false"
"image-keyboard-response",253,227654,"0.0-4.80-1.80","v9z3dbpao12hedw",212,"111.csv","","null","resources/maskTrios/BBA2.jpg","null","",NA,NA,NA,NA,""
"image-keyboard-response",254,228858,"0.0-4.80-2.80","v9z3dbpao12hedw",212,"111.csv","","null","resources/images/fishbone.png","null","",NA,NA,NA,NA,""
"image-keyboard-response",255,229049,"0.0-4.81-0.81","v9z3dbpao12hedw",212,"111.csv","","189.10000014305115","resources/trios/L1T4A2.jpg","37","restless",0.4,0.5,0.5,0.25359129890256,"true"
"image-keyboard-response",256,229452,"0.0-4.81-1.81","v9z3dbpao12hedw",212,"111.csv","","null","resources/maskTrios/L1BB.jpg","null","",NA,NA,NA,NA,""
"image-keyboard-response",257,230655,"0.0-4.81-2.81","v9z3dbpao12hedw",212,"111.csv","","null","resources/images/coin2.png","null","",NA,NA,NA,NA,""
"image-keyboard-response",258,230763,"0.0-4.82-0.82","v9z3dbpao12hedw",212,"111.csv","","105.09999990463257","resources/trios/L1T4A2.jpg","37","restless",0.4,0.5,0.5,0.489636947944326,"false"
"image-keyboard-response",259,231166,"0.0-4.82-1.82","v9z3dbpao12hedw",212,"111.csv","","null","resources/maskTrios/L1BB.jpg","null","",NA,NA,NA,NA,""
"image-keyboard-response",260,232369,"0.0-4.82-2.82","v9z3dbpao12hedw",212,"111.csv","","null","resources/images/fishbone.png","null","",NA,NA,NA,NA,""
"image-keyboard-response",261,232606,"0.0-4.83-0.83","v9z3dbpao12hedw",212,"111.csv","","234.5","resources/trios/L1T4A2.jpg","38","restless",0.3,0.5,0.5,0.0468623011476064,"true"
"image-keyboard-response",262,233009,"0.0-4.83-1.83","v9z3dbpao12hedw",212,"111.csv","","null","resources/maskTrios/BT4B.jpg","null","",NA,NA,NA,NA,""
"image-keyboard-response",263,234212,"0.0-4.83-2.83","v9z3dbpao12hedw",212,"111.csv","","null","resources/images/coin2.png","null","",NA,NA,NA,NA,""
"image-keyboard-response",264,234537,"0.0-4.84-0.84","v9z3dbpao12hedw",212,"111.csv","","322.7999999523163","resources/trios/L1T4A2.jpg","39","restless",0.3,0.6,0.4,0.977860031313913,"false"
"image-keyboard-response",265,234940,"0.0-4.84-1.84","v9z3dbpao12hedw",212,"111.csv","","null","resources/maskTrios/BBA2.jpg","null","",NA,NA,NA,NA,""
"image-keyboard-response",266,236144,"0.0-4.84-2.84","v9z3dbpao12hedw",212,"111.csv","","null","resources/images/fishbone.png","null","",NA,NA,NA,NA,""
"image-keyboard-response",267,236220,"0.0-4.85-0.85","v9z3dbpao12hedw",212,"111.csv","","74.59999990463257","resources/trios/L1T4A2.jpg","38","restless",0.3,0.6,0.4,0.935475212033108,"false"
"image-keyboard-response",268,236624,"0.0-4.85-1.85","v9z3dbpao12hedw",212,"111.csv","","null","resources/maskTrios/BT4B.jpg","null","",NA,NA,NA,NA,""
"image-keyboard-response",269,237825,"0.0-4.85-2.85","v9z3dbpao12hedw",212,"111.csv","","null","resources/images/fishbone.png","null","",NA,NA,NA,NA,""
"image-keyboard-response",270,238173,"0.0-4.86-0.86","v9z3dbpao12hedw",212,"111.csv","","346","resources/trios/L1T4A2.jpg","38","restless",0.3,0.6,0.4,0.741748346527084,"false"
"image-keyboard-response",271,238576,"0.0-4.86-1.86","v9z3dbpao12hedw",212,"111.csv","","null","resources/maskTrios/BT4B.jpg","null","",NA,NA,NA,NA,""
"image-keyboard-response",272,239779,"0.0-4.86-2.86","v9z3dbpao12hedw",212,"111.csv","","null","resources/images/fishbone.png","null","",NA,NA,NA,NA,""
"image-keyboard-response",273,240320,"0.0-4.87-0.87","v9z3dbpao12hedw",212,"111.csv","","538.2000000476837","resources/trios/L1T4A2.jpg","39","restless",0.3,0.6,0.3,0.497676317144762,"false"
"image-keyboard-response",274,240723,"0.0-4.87-1.87","v9z3dbpao12hedw",212,"111.csv","","null","resources/maskTrios/BBA2.jpg","null","",NA,NA,NA,NA,""
"image-keyboard-response",275,241927,"0.0-4.87-2.87","v9z3dbpao12hedw",212,"111.csv","","null","resources/images/fishbone.png","null","",NA,NA,NA,NA,""
"image-keyboard-response",276,242480,"0.0-4.88-0.88","v9z3dbpao12hedw",212,"111.csv","","552.2000000476837","resources/trios/L1T4A2.jpg","37","restless",0.3,0.7,0.3,0.516947477373605,"false"
"image-keyboard-response",277,242883,"0.0-4.88-1.88","v9z3dbpao12hedw",212,"111.csv","","null","resources/maskTrios/L1BB.jpg","null","",NA,NA,NA,NA,""
"image-keyboard-response",278,244086,"0.0-4.88-2.88","v9z3dbpao12hedw",212,"111.csv","","null","resources/images/fishbone.png","null","",NA,NA,NA,NA,""
"image-keyboard-response",279,244480,"0.0-4.89-0.89","v9z3dbpao12hedw",212,"111.csv","","391.90000009536743","resources/trios/L1T4A2.jpg","38","restless",0.3,0.7,0.3,0.371015265596655,"true"
"image-keyboard-response",280,244883,"0.0-4.89-1.89","v9z3dbpao12hedw",212,"111.csv","","null","resources/maskTrios/BT4B.jpg","null","",NA,NA,NA,NA,""
"image-keyboard-response",281,246087,"0.0-4.89-2.89","v9z3dbpao12hedw",212,"111.csv","","null","resources/images/coin2.png","null","",NA,NA,NA,NA,""
"image-keyboard-response",282,246155,"0.0-4.90-0.90","v9z3dbpao12hedw",212,"111.csv","","65.89999985694885","resources/trios/L1T4A2.jpg","39","restless",0.3,0.7,0.3,0.465485760646582,"false"
"image-keyboard-response",283,246558,"0.0-4.90-1.90","v9z3dbpao12hedw",212,"111.csv","","null","resources/maskTrios/BBA2.jpg","null","",NA,NA,NA,NA,""
"image-keyboard-response",284,247761,"0.0-4.90-2.90","v9z3dbpao12hedw",212,"111.csv","","null","resources/images/fishbone.png","null","",NA,NA,NA,NA,""
"image-keyboard-response",285,248901,"0.0-4.91-0.91","v9z3dbpao12hedw",212,"111.csv","","1138.2000000476837","resources/trios/L1T4A2.jpg","37","restless",0.3,0.7,0.4,0.83059604771575,"false"
"image-keyboard-response",286,249304,"0.0-4.91-1.91","v9z3dbpao12hedw",212,"111.csv","","null","resources/maskTrios/L1BB.jpg","null","",NA,NA,NA,NA,""
"image-keyboard-response",287,250508,"0.0-4.91-2.91","v9z3dbpao12hedw",212,"111.csv","","null","resources/images/fishbone.png","null","",NA,NA,NA,NA,""
"image-keyboard-response",288,250944,"0.0-4.92-0.92","v9z3dbpao12hedw",212,"111.csv","","434.2000000476837","resources/trios/L1T4A2.jpg","38","restless",0.4,0.7,0.4,0.311477795217512,"true"
"image-keyboard-response",289,251348,"0.0-4.92-1.92","v9z3dbpao12hedw",212,"111.csv","","null","resources/maskTrios/BT4B.jpg","null","",NA,NA,NA,NA,""
"image-keyboard-response",290,252552,"0.0-4.92-2.92","v9z3dbpao12hedw",212,"111.csv","","null","resources/images/coin2.png","null","",NA,NA,NA,NA,""
"image-keyboard-response",291,252862,"0.0-4.93-0.93","v9z3dbpao12hedw",212,"111.csv","","307.7999999523163","resources/trios/L1T4A2.jpg","39","restless",0.4,0.7,0.3,0.270576241894379,"true"
"image-keyboard-response",292,253265,"0.0-4.93-1.93","v9z3dbpao12hedw",212,"111.csv","","null","resources/maskTrios/BBA2.jpg","null","",NA,NA,NA,NA,""
"image-keyboard-response",293,254469,"0.0-4.93-2.93","v9z3dbpao12hedw",212,"111.csv","","null","resources/images/coin2.png","null","",NA,NA,NA,NA,""
"image-keyboard-response",294,254772,"0.0-4.94-0.94","v9z3dbpao12hedw",212,"111.csv","","301.5","resources/trios/L1T4A2.jpg","38","restless",0.4,0.7,0.3,0.522363330952133,"true"
"image-keyboard-response",295,255176,"0.0-4.94-1.94","v9z3dbpao12hedw",212,"111.csv","","null","resources/maskTrios/BT4B.jpg","null","",NA,NA,NA,NA,""
"image-keyboard-response",296,256379,"0.0-4.94-2.94","v9z3dbpao12hedw",212,"111.csv","","null","resources/images/coin2.png","null","",NA,NA,NA,NA,""
"image-keyboard-response",297,256679,"0.0-4.95-0.95","v9z3dbpao12hedw",212,"111.csv","","297.89999985694885","resources/trios/L1T4A2.jpg","37","restless",0.4,0.7,0.3,0.692550837165167,"false"
"image-keyboard-response",298,257082,"0.0-4.95-1.95","v9z3dbpao12hedw",212,"111.csv","","null","resources/maskTrios/L1BB.jpg","null","",NA,NA,NA,NA,""
"image-keyboard-response",299,258286,"0.0-4.95-2.95","v9z3dbpao12hedw",212,"111.csv","","null","resources/images/fishbone.png","null","",NA,NA,NA,NA,""
"image-keyboard-response",300,259233,"0.0-4.96-0.96","v9z3dbpao12hedw",212,"111.csv","","945.1999998092651","resources/trios/L1T4A2.jpg","38","restless",0.4,0.7,0.2,0.278375529144619,"true"
"image-keyboard-response",301,259637,"0.0-4.96-1.96","v9z3dbpao12hedw",212,"111.csv","","null","resources/maskTrios/BT4B.jpg","null","",NA,NA,NA,NA,""
"image-keyboard-response",302,260841,"0.0-4.96-2.96","v9z3dbpao12hedw",212,"111.csv","","null","resources/images/coin2.png","null","",NA,NA,NA,NA,""
"image-keyboard-response",303,261299,"0.0-4.97-0.97","v9z3dbpao12hedw",212,"111.csv","","456.5","resources/trios/L1T4A2.jpg","39","restless",0.3,0.7,0.2,0.499767739136153,"false"
"image-keyboard-response",304,261703,"0.0-4.97-1.97","v9z3dbpao12hedw",212,"111.csv","","null","resources/maskTrios/BBA2.jpg","null","",NA,NA,NA,NA,""
"image-keyboard-response",305,262905,"0.0-4.97-2.97","v9z3dbpao12hedw",212,"111.csv","","null","resources/images/fishbone.png","null","",NA,NA,NA,NA,""
"image-keyboard-response",306,263010,"0.0-4.98-0.98","v9z3dbpao12hedw",212,"111.csv","","102.79999995231628","resources/trios/L1T4A2.jpg","38","restless",0.3,0.7,0.2,0.600417613510564,"true"
"image-keyboard-response",307,263414,"0.0-4.98-1.98","v9z3dbpao12hedw",212,"111.csv","","null","resources/maskTrios/BT4B.jpg","null","",NA,NA,NA,NA,""
"image-keyboard-response",308,264617,"0.0-4.98-2.98","v9z3dbpao12hedw",212,"111.csv","","null","resources/images/coin2.png","null","",NA,NA,NA,NA,""
"image-keyboard-response",309,264947,"0.0-4.99-0.99","v9z3dbpao12hedw",212,"111.csv","","328.10000014305115","resources/trios/L1T4A2.jpg","37","restless",0.3,0.7,0.2,0.934843832976454,"false"
"image-keyboard-response",310,265351,"0.0-4.99-1.99","v9z3dbpao12hedw",212,"111.csv","","null","resources/maskTrios/L1BB.jpg","null","",NA,NA,NA,NA,""
"image-keyboard-response",311,266555,"0.0-4.99-2.99","v9z3dbpao12hedw",212,"111.csv","","null","resources/images/fishbone.png","null","",NA,NA,NA,NA,""
"image-keyboard-response",312,266854,"0.0-4.100-0.100","v9z3dbpao12hedw",212,"111.csv","","297.2000000476837","resources/trios/L1T4A2.jpg","38","restless",0.3,0.7,0.2,0.599950442532058,"true"
"image-keyboard-response",313,267257,"0.0-4.100-1.100","v9z3dbpao12hedw",212,"111.csv","","null","resources/maskTrios/BT4B.jpg","null","",NA,NA,NA,NA,""
"image-keyboard-response",314,268461,"0.0-4.100-2.100","v9z3dbpao12hedw",212,"111.csv","","null","resources/images/coin2.png","null","",NA,NA,NA,NA,""
"image-keyboard-response",315,268917,"0.0-4.101-0.101","v9z3dbpao12hedw",212,"111.csv","","454.5","resources/trios/L1T4A2.jpg","38","restless",0.3,0.7,0.2,0.495056426095946,"true"
"image-keyboard-response",316,269321,"0.0-4.101-1.101","v9z3dbpao12hedw",212,"111.csv","","null","resources/maskTrios/BT4B.jpg","null","",NA,NA,NA,NA,""
"image-keyboard-response",317,270524,"0.0-4.101-2.101","v9z3dbpao12hedw",212,"111.csv","","null","resources/images/coin2.png","null","",NA,NA,NA,NA,""
"image-keyboard-response",318,270980,"0.0-4.102-0.102","v9z3dbpao12hedw",212,"111.csv","","454.40000009536743","resources/trios/L1T4A2.jpg","38","restless",0.3,0.7,0.2,0.137187665953921,"true"
"image-keyboard-response",319,271383,"0.0-4.102-1.102","v9z3dbpao12hedw",212,"111.csv","","null","resources/maskTrios/BT4B.jpg","null","",NA,NA,NA,NA,""
"image-keyboard-response",320,272586,"0.0-4.102-2.102","v9z3dbpao12hedw",212,"111.csv","","null","resources/images/coin2.png","null","",NA,NA,NA,NA,""
"image-keyboard-response",321,272808,"0.0-4.103-0.103","v9z3dbpao12hedw",212,"111.csv","","219.90000009536743","resources/trios/L1T4A2.jpg","38","restless",0.3,0.7,0.2,0.249749749413456,"true"
"image-keyboard-response",322,273211,"0.0-4.103-1.103","v9z3dbpao12hedw",212,"111.csv","","null","resources/maskTrios/BT4B.jpg","null","",NA,NA,NA,NA,""
"image-keyboard-response",323,274415,"0.0-4.103-2.103","v9z3dbpao12hedw",212,"111.csv","","null","resources/images/coin2.png","null","",NA,NA,NA,NA,""
"image-keyboard-response",324,274473,"0.0-4.104-0.104","v9z3dbpao12hedw",212,"111.csv","","55.90000009536743","resources/trios/L1T4A2.jpg","38","restless",0.3,0.7,0.2,0.789648770622235,"false"
"image-keyboard-response",325,274876,"0.0-4.104-1.104","v9z3dbpao12hedw",212,"111.csv","","null","resources/maskTrios/BT4B.jpg","null","",NA,NA,NA,NA,""
"image-keyboard-response",326,276079,"0.0-4.104-2.104","v9z3dbpao12hedw",212,"111.csv","","null","resources/images/fishbone.png","null","",NA,NA,NA,NA,""
"image-keyboard-response",327,276271,"0.0-4.105-0.105","v9z3dbpao12hedw",212,"111.csv","","190.19999980926514","resources/trios/L1T4A2.jpg","39","restless",0.3,0.7,0.2,0.228606079150841,"false"
"image-keyboard-response",328,276674,"0.0-4.105-1.105","v9z3dbpao12hedw",212,"111.csv","","null","resources/maskTrios/BBA2.jpg","null","",NA,NA,NA,NA,""
"image-keyboard-response",329,277877,"0.0-4.105-2.105","v9z3dbpao12hedw",212,"111.csv","","null","resources/images/fishbone.png","null","",NA,NA,NA,NA,""
"image-keyboard-response",330,277972,"0.0-4.106-0.106","v9z3dbpao12hedw",212,"111.csv","","93.09999990463257","resources/trios/L1T4A2.jpg","37","restless",0.3,0.7,0.2,0.735773851878287,"false"
"image-keyboard-response",331,278375,"0.0-4.106-1.106","v9z3dbpao12hedw",212,"111.csv","","null","resources/maskTrios/L1BB.jpg","null","",NA,NA,NA,NA,""
"image-keyboard-response",332,279578,"0.0-4.106-2.106","v9z3dbpao12hedw",212,"111.csv","","null","resources/images/fishbone.png","null","",NA,NA,NA,NA,""
"image-keyboard-response",333,279900,"0.0-4.107-0.107","v9z3dbpao12hedw",212,"111.csv","","320","resources/trios/L1T4A2.jpg","38","restless",0.3,0.7,0.2,0.480171019488061,"true"
"image-keyboard-response",334,280303,"0.0-4.107-1.107","v9z3dbpao12hedw",212,"111.csv","","null","resources/maskTrios/BT4B.jpg","null","",NA,NA,NA,NA,""
"image-keyboard-response",335,281506,"0.0-4.107-2.107","v9z3dbpao12hedw",212,"111.csv","","null","resources/images/coin2.png","null","",NA,NA,NA,NA,""
"image-keyboard-response",336,281662,"0.0-4.108-0.108","v9z3dbpao12hedw",212,"111.csv","","154.5","resources/trios/L1T4A2.jpg","38","restless",0.3,0.7,0.2,0.186484424339879,"true"
"image-keyboard-response",337,282065,"0.0-4.108-1.108","v9z3dbpao12hedw",212,"111.csv","","null","resources/maskTrios/BT4B.jpg","null","",NA,NA,NA,NA,""
"image-keyboard-response",338,283269,"0.0-4.108-2.108","v9z3dbpao12hedw",212,"111.csv","","null","resources/images/coin2.png","null","",NA,NA,NA,NA,""
"image-keyboard-response",339,283400,"0.0-4.109-0.109","v9z3dbpao12hedw",212,"111.csv","","129.19999980926514","resources/trios/L1T4A2.jpg","38","restless",0.3,0.7,0.2,0.838694723201383,"false"
"image-keyboard-response",340,283803,"0.0-4.109-1.109","v9z3dbpao12hedw",212,"111.csv","","null","resources/maskTrios/BT4B.jpg","null","",NA,NA,NA,NA,""
"image-keyboard-response",341,285007,"0.0-4.109-2.109","v9z3dbpao12hedw",212,"111.csv","","null","resources/images/fishbone.png","null","",NA,NA,NA,NA,""
"image-keyboard-response",342,285497,"0.0-4.110-0.110","v9z3dbpao12hedw",212,"111.csv","","488.5","resources/trios/L1T4A2.jpg","39","restless",0.3,0.7,0.2,0.964359346171222,"false"
"image-keyboard-response",343,285899,"0.0-4.110-1.110","v9z3dbpao12hedw",212,"111.csv","","null","resources/maskTrios/BBA2.jpg","null","",NA,NA,NA,NA,""
"image-keyboard-response",344,287101,"0.0-4.110-2.110","v9z3dbpao12hedw",212,"111.csv","","null","resources/images/fishbone.png","null","",NA,NA,NA,NA,""
"image-keyboard-response",345,287342,"0.0-4.111-0.111","v9z3dbpao12hedw",212,"111.csv","","240.5","resources/trios/L1T4A2.jpg","37","restless",0.3,0.7,0.2,0.900368467504579,"false"
"image-keyboard-response",346,287745,"0.0-4.111-1.111","v9z3dbpao12hedw",212,"111.csv","","null","resources/maskTrios/L1BB.jpg","null","",NA,NA,NA,NA,""
"image-keyboard-response",347,288948,"0.0-4.111-2.111","v9z3dbpao12hedw",212,"111.csv","","null","resources/images/fishbone.png","null","",NA,NA,NA,NA,""
"image-keyboard-response",348,289419,"0.0-4.112-0.112","v9z3dbpao12hedw",212,"111.csv","","469.7999999523163","resources/trios/L1T4A2.jpg","38","restless",0.4,0.7,0.2,0.673422277378343,"true"
"image-keyboard-response",349,289822,"0.0-4.112-1.112","v9z3dbpao12hedw",212,"111.csv","","null","resources/maskTrios/BT4B.jpg","null","",NA,NA,NA,NA,""
"image-keyboard-response",350,291025,"0.0-4.112-2.112","v9z3dbpao12hedw",212,"111.csv","","null","resources/images/coin2.png","null","",NA,NA,NA,NA,""
"image-keyboard-response",351,291443,"0.0-4.113-0.113","v9z3dbpao12hedw",212,"111.csv","","415.59999990463257","resources/trios/L1T4A2.jpg","38","restless",0.4,0.7,0.2,0.185038637147106,"true"
"image-keyboard-response",352,291846,"0.0-4.113-1.113","v9z3dbpao12hedw",212,"111.csv","","null","resources/maskTrios/BT4B.jpg","null","",NA,NA,NA,NA,""
"image-keyboard-response",353,293049,"0.0-4.113-2.113","v9z3dbpao12hedw",212,"111.csv","","null","resources/images/coin2.png","null","",NA,NA,NA,NA,""
"image-keyboard-response",354,293706,"0.0-4.114-0.114","v9z3dbpao12hedw",212,"111.csv","","655.2000000476837","resources/trios/L1T4A2.jpg","38","restless",0.4,0.7,0.2,0.338705940648172,"true"
"image-keyboard-response",355,294109,"0.0-4.114-1.114","v9z3dbpao12hedw",212,"111.csv","","null","resources/maskTrios/BT4B.jpg","null","",NA,NA,NA,NA,""
"image-keyboard-response",356,295312,"0.0-4.114-2.114","v9z3dbpao12hedw",212,"111.csv","","null","resources/images/coin2.png","null","",NA,NA,NA,NA,""
"image-keyboard-response",357,295813,"0.0-4.115-0.115","v9z3dbpao12hedw",212,"111.csv","","498.89999985694885","resources/trios/L1T4A2.jpg","38","restless",0.4,0.7,0.2,0.771850635692309,"false"
"image-keyboard-response",358,296217,"0.0-4.115-1.115","v9z3dbpao12hedw",212,"111.csv","","null","resources/maskTrios/BT4B.jpg","null","",NA,NA,NA,NA,""
"image-keyboard-response",359,297420,"0.0-4.115-2.115","v9z3dbpao12hedw",212,"111.csv","","null","resources/images/fishbone.png","null","",NA,NA,NA,NA,""
"image-keyboard-response",360,297794,"0.0-4.116-0.116","v9z3dbpao12hedw",212,"111.csv","","372.5","resources/trios/L1T4A2.jpg","38","restless",0.4,0.7,0.2,0.0272063932526643,"true"
"image-keyboard-response",361,298198,"0.0-4.116-1.116","v9z3dbpao12hedw",212,"111.csv","","null","resources/maskTrios/BT4B.jpg","null","",NA,NA,NA,NA,""
"image-keyboard-response",362,299401,"0.0-4.116-2.116","v9z3dbpao12hedw",212,"111.csv","","null","resources/images/coin2.png","null","",NA,NA,NA,NA,""
"image-keyboard-response",363,299700,"0.0-4.117-0.117","v9z3dbpao12hedw",212,"111.csv","","297.09999990463257","resources/trios/L1T4A2.jpg","38","restless",0.4,0.7,0.2,0.622179783062267,"true"
"image-keyboard-response",364,300103,"0.0-4.117-1.117","v9z3dbpao12hedw",212,"111.csv","","null","resources/maskTrios/BT4B.jpg","null","",NA,NA,NA,NA,""
"image-keyboard-response",365,301306,"0.0-4.117-2.117","v9z3dbpao12hedw",212,"111.csv","","null","resources/images/coin2.png","null","",NA,NA,NA,NA,""
"image-keyboard-response",366,301685,"0.0-4.118-0.118","v9z3dbpao12hedw",212,"111.csv","","377.5","resources/trios/L1T4A2.jpg","38","restless",0.4,0.7,0.2,0.965798899965117,"false"
"image-keyboard-response",367,302088,"0.0-4.118-1.118","v9z3dbpao12hedw",212,"111.csv","","null","resources/maskTrios/BT4B.jpg","null","",NA,NA,NA,NA,""
"image-keyboard-response",368,303291,"0.0-4.118-2.118","v9z3dbpao12hedw",212,"111.csv","","null","resources/images/fishbone.png","null","",NA,NA,NA,NA,""
"image-keyboard-response",369,303584,"0.0-4.119-0.119","v9z3dbpao12hedw",212,"111.csv","","291.40000009536743","resources/trios/L1T4A2.jpg","38","restless",0.4,0.7,0.2,0.575985505103749,"true"
"image-keyboard-response",370,303987,"0.0-4.119-1.119","v9z3dbpao12hedw",212,"111.csv","","null","resources/maskTrios/BT4B.jpg","null","",NA,NA,NA,NA,""
"image-keyboard-response",371,305189,"0.0-4.119-2.119","v9z3dbpao12hedw",212,"111.csv","","null","resources/images/coin2.png","null","",NA,NA,NA,NA,""
"image-keyboard-response",372,305469,"0.0-4.120-0.120","v9z3dbpao12hedw",212,"111.csv","","277.89999985694885","resources/trios/L1T4A2.jpg","38","restless",0.4,0.7,0.2,0.743087389031607,"false"
"image-keyboard-response",373,305872,"0.0-4.120-1.120","v9z3dbpao12hedw",212,"111.csv","","null","resources/maskTrios/BT4B.jpg","null","",NA,NA,NA,NA,""
"image-keyboard-response",374,307075,"0.0-4.120-2.120","v9z3dbpao12hedw",212,"111.csv","","null","resources/images/fishbone.png","null","",NA,NA,NA,NA,""
"image-keyboard-response",375,307157,"0.0-4.121-0.121","v9z3dbpao12hedw",212,"111.csv","","80.29999995231628","resources/trios/L1T4A2.jpg","39","restless",0.5,0.7,0.2,0.602667341524187,"false"
"image-keyboard-response",376,307560,"0.0-4.121-1.121","v9z3dbpao12hedw",212,"111.csv","","null","resources/maskTrios/BBA2.jpg","null","",NA,NA,NA,NA,""
"image-keyboard-response",377,308763,"0.0-4.121-2.121","v9z3dbpao12hedw",212,"111.csv","","null","resources/images/fishbone.png","null","",NA,NA,NA,NA,""
"image-keyboard-response",378,309070,"0.0-4.122-0.122","v9z3dbpao12hedw",212,"111.csv","","304.59999990463257","resources/trios/L1T4A2.jpg","37","restless",0.5,0.7,0.2,0.232464867798888,"true"
"image-keyboard-response",379,309473,"0.0-4.122-1.122","v9z3dbpao12hedw",212,"111.csv","","null","resources/maskTrios/L1BB.jpg","null","",NA,NA,NA,NA,""
"image-keyboard-response",380,310676,"0.0-4.122-2.122","v9z3dbpao12hedw",212,"111.csv","","null","resources/images/coin2.png","null","",NA,NA,NA,NA,""
"image-keyboard-response",381,310918,"0.0-4.123-0.123","v9z3dbpao12hedw",212,"111.csv","","239.30000019073486","resources/trios/L1T4A2.jpg","37","restless",0.5,0.7,0.2,0.406559316451376,"true"
"image-keyboard-response",382,311321,"0.0-4.123-1.123","v9z3dbpao12hedw",212,"111.csv","","null","resources/maskTrios/L1BB.jpg","null","",NA,NA,NA,NA,""
"image-keyboard-response",383,312525,"0.0-4.123-2.123","v9z3dbpao12hedw",212,"111.csv","","null","resources/images/coin2.png","null","",NA,NA,NA,NA,""
"image-keyboard-response",384,312907,"0.0-4.124-0.124","v9z3dbpao12hedw",212,"111.csv","","379.90000009536743","resources/trios/L1T4A2.jpg","37","restless",0.5,0.7,0.2,0.309915620527094,"true"
"image-keyboard-response",385,313309,"0.0-4.124-1.124","v9z3dbpao12hedw",212,"111.csv","","null","resources/maskTrios/L1BB.jpg","null","",NA,NA,NA,NA,""
"image-keyboard-response",386,314513,"0.0-4.124-2.124","v9z3dbpao12hedw",212,"111.csv","","null","resources/images/coin2.png","null","",NA,NA,NA,NA,""
"image-keyboard-response",387,314821,"0.0-4.125-0.125","v9z3dbpao12hedw",212,"111.csv","","305.5","resources/trios/L1T4A2.jpg","37","restless",0.5,0.7,0.2,0.458968092258747,"true"
"image-keyboard-response",388,315225,"0.0-4.125-1.125","v9z3dbpao12hedw",212,"111.csv","","null","resources/maskTrios/L1BB.jpg","null","",NA,NA,NA,NA,""
"image-keyboard-response",389,316429,"0.0-4.125-2.125","v9z3dbpao12hedw",212,"111.csv","","null","resources/images/coin2.png","null","",NA,NA,NA,NA,""
"image-keyboard-response",390,316661,"0.0-4.126-0.126","v9z3dbpao12hedw",212,"111.csv","","230.69999980926514","resources/trios/L1T4A2.jpg","37","restless",0.5,0.7,0.2,0.594464923024245,"false"
"image-keyboard-response",391,317065,"0.0-4.126-1.126","v9z3dbpao12hedw",212,"111.csv","","null","resources/maskTrios/L1BB.jpg","null","",NA,NA,NA,NA,""
"image-keyboard-response",392,318268,"0.0-4.126-2.126","v9z3dbpao12hedw",212,"111.csv","","null","resources/images/fishbone.png","null","",NA,NA,NA,NA,""
"image-keyboard-response",393,318762,"0.0-4.127-0.127","v9z3dbpao12hedw",212,"111.csv","","492.59999990463257","resources/trios/L1T4A2.jpg","38","restless",0.5,0.7,0.2,0.0695437434812958,"true"
"image-keyboard-response",394,319166,"0.0-4.127-1.127","v9z3dbpao12hedw",212,"111.csv","","null","resources/maskTrios/BT4B.jpg","null","",NA,NA,NA,NA,""
"image-keyboard-response",395,320368,"0.0-4.127-2.127","v9z3dbpao12hedw",212,"111.csv","","null","resources/images/coin2.png","null","",NA,NA,NA,NA,""
"image-keyboard-response",396,320763,"0.0-4.128-0.128","v9z3dbpao12hedw",212,"111.csv","","392.2000000476837","resources/trios/L1T4A2.jpg","38","restless",0.5,0.7,0.2,0.298599282052695,"true"
"image-keyboard-response",397,321166,"0.0-4.128-1.128","v9z3dbpao12hedw",212,"111.csv","","null","resources/maskTrios/BT4B.jpg","null","",NA,NA,NA,NA,""
"image-keyboard-response",398,322369,"0.0-4.128-2.128","v9z3dbpao12hedw",212,"111.csv","","null","resources/images/coin2.png","null","",NA,NA,NA,NA,""
"image-keyboard-response",399,322831,"0.0-4.129-0.129","v9z3dbpao12hedw",212,"111.csv","","460.7000000476837","resources/trios/L1T4A2.jpg","38","restless",0.5,0.7,0.2,0.30417925882164,"true"
"image-keyboard-response",400,323234,"0.0-4.129-1.129","v9z3dbpao12hedw",212,"111.csv","","null","resources/maskTrios/BT4B.jpg","null","",NA,NA,NA,NA,""
"image-keyboard-response",401,324438,"0.0-4.129-2.129","v9z3dbpao12hedw",212,"111.csv","","null","resources/images/coin2.png","null","",NA,NA,NA,NA,""
"image-keyboard-response",402,324777,"0.0-4.130-0.130","v9z3dbpao12hedw",212,"111.csv","","336.59999990463257","resources/trios/L1T4A2.jpg","38","restless",0.5,0.8,0.2,0.388856999412602,"true"
"image-keyboard-response",403,325180,"0.0-4.130-1.130","v9z3dbpao12hedw",212,"111.csv","","null","resources/maskTrios/BT4B.jpg","null","",NA,NA,NA,NA,""
"image-keyboard-response",404,326383,"0.0-4.130-2.130","v9z3dbpao12hedw",212,"111.csv","","null","resources/images/coin2.png","null","",NA,NA,NA,NA,""
"image-keyboard-response",405,326601,"0.0-4.131-0.131","v9z3dbpao12hedw",212,"111.csv","","215.89999985694885","resources/trios/L1T4A2.jpg","38","restless",0.5,0.8,0.2,0.431689496578333,"true"
"image-keyboard-response",406,327004,"0.0-4.131-1.131","v9z3dbpao12hedw",212,"111.csv","","null","resources/maskTrios/BT4B.jpg","null","",NA,NA,NA,NA,""
"image-keyboard-response",407,328208,"0.0-4.131-2.131","v9z3dbpao12hedw",212,"111.csv","","null","resources/images/coin2.png","null","",NA,NA,NA,NA,""
"image-keyboard-response",408,328448,"0.0-4.132-0.132","v9z3dbpao12hedw",212,"111.csv","","237.90000009536743","resources/trios/L1T4A2.jpg","38","restless",0.5,0.8,0.2,0.500368362671631,"true"
"image-keyboard-response",409,328850,"0.0-4.132-1.132","v9z3dbpao12hedw",212,"111.csv","","null","resources/maskTrios/BT4B.jpg","null","",NA,NA,NA,NA,""
"image-keyboard-response",410,330054,"0.0-4.132-2.132","v9z3dbpao12hedw",212,"111.csv","","null","resources/images/coin2.png","null","",NA,NA,NA,NA,""
"image-keyboard-response",411,330390,"0.0-4.133-0.133","v9z3dbpao12hedw",212,"111.csv","","333.09999990463257","resources/trios/L1T4A2.jpg","38","restless",0.5,0.8,0.2,0.108570176239433,"true"
"image-keyboard-response",412,330793,"0.0-4.133-1.133","v9z3dbpao12hedw",212,"111.csv","","null","resources/maskTrios/BT4B.jpg","null","",NA,NA,NA,NA,""
"image-keyboard-response",413,331997,"0.0-4.133-2.133","v9z3dbpao12hedw",212,"111.csv","","null","resources/images/coin2.png","null","",NA,NA,NA,NA,""
"image-keyboard-response",414,332472,"0.0-4.134-0.134","v9z3dbpao12hedw",212,"111.csv","","472.89999985694885","resources/trios/L1T4A2.jpg","38","restless",0.5,0.8,0.2,0.933422746534887,"false"
"image-keyboard-response",415,332876,"0.0-4.134-1.134","v9z3dbpao12hedw",212,"111.csv","","null","resources/maskTrios/BT4B.jpg","null","",NA,NA,NA,NA,""
"image-keyboard-response",416,334079,"0.0-4.134-2.134","v9z3dbpao12hedw",212,"111.csv","","null","resources/images/fishbone.png","null","",NA,NA,NA,NA,""
"image-keyboard-response",417,334777,"0.0-4.135-0.135","v9z3dbpao12hedw",212,"111.csv","","695.8999998569489","resources/trios/L1T4A2.jpg","39","restless",0.6,0.8,0.2,0.547028092737555,"false"
"image-keyboard-response",418,335181,"0.0-4.135-1.135","v9z3dbpao12hedw",212,"111.csv","","null","resources/maskTrios/BBA2.jpg","null","",NA,NA,NA,NA,""
"image-keyboard-response",419,336384,"0.0-4.135-2.135","v9z3dbpao12hedw",212,"111.csv","","null","resources/images/fishbone.png","null","",NA,NA,NA,NA,""
"image-keyboard-response",420,336984,"0.0-4.136-0.136","v9z3dbpao12hedw",212,"111.csv","","598.1000001430511","resources/trios/L1T4A2.jpg","37","restless",0.6,0.8,0.2,0.0812913306879828,"true"
"image-keyboard-response",421,337387,"0.0-4.136-1.136","v9z3dbpao12hedw",212,"111.csv","","null","resources/maskTrios/L1BB.jpg","null","",NA,NA,NA,NA,""
"image-keyboard-response",422,338591,"0.0-4.136-2.136","v9z3dbpao12hedw",212,"111.csv","","null","resources/images/coin2.png","null","",NA,NA,NA,NA,""
"image-keyboard-response",423,338685,"0.0-4.137-0.137","v9z3dbpao12hedw",212,"111.csv","","92.80000019073486","resources/trios/L1T4A2.jpg","37","restless",0.6,0.8,0.2,0.861456026874431,"false"
"image-keyboard-response",424,339088,"0.0-4.137-1.137","v9z3dbpao12hedw",212,"111.csv","","null","resources/maskTrios/L1BB.jpg","null","",NA,NA,NA,NA,""
"image-keyboard-response",425,340291,"0.0-4.137-2.137","v9z3dbpao12hedw",212,"111.csv","","null","resources/images/fishbone.png","null","",NA,NA,NA,NA,""
"image-keyboard-response",426,340555,"0.0-4.138-0.138","v9z3dbpao12hedw",212,"111.csv","","262.40000009536743","resources/trios/L1T4A2.jpg","38","restless",0.6,0.8,0.2,0.101502443159156,"true"
"image-keyboard-response",427,340959,"0.0-4.138-1.138","v9z3dbpao12hedw",212,"111.csv","","null","resources/maskTrios/BT4B.jpg","null","",NA,NA,NA,NA,""
"image-keyboard-response",428,342162,"0.0-4.138-2.138","v9z3dbpao12hedw",212,"111.csv","","null","resources/images/coin2.png","null","",NA,NA,NA,NA,""
"image-keyboard-response",429,342484,"0.0-4.139-0.139","v9z3dbpao12hedw",212,"111.csv","","319.19999980926514","resources/trios/L1T4A2.jpg","38","restless",0.6,0.8,0.2,0.0608090920918514,"true"
"image-keyboard-response",430,342887,"0.0-4.139-1.139","v9z3dbpao12hedw",212,"111.csv","","null","resources/maskTrios/BT4B.jpg","null","",NA,NA,NA,NA,""
"image-keyboard-response",431,344092,"0.0-4.139-2.139","v9z3dbpao12hedw",212,"111.csv","","null","resources/images/coin2.png","null","",NA,NA,NA,NA,""
"image-keyboard-response",432,344299,"0.0-4.140-0.140","v9z3dbpao12hedw",212,"111.csv","","205.60000014305115","resources/trios/L1T4A2.jpg","38","restless",0.6,0.8,0.2,0.0161773063622821,"true"
"image-keyboard-response",433,344702,"0.0-4.140-1.140","v9z3dbpao12hedw",212,"111.csv","","null","resources/maskTrios/BT4B.jpg","null","",NA,NA,NA,NA,""
"image-keyboard-response",434,345906,"0.0-4.140-2.140","v9z3dbpao12hedw",212,"111.csv","","null","resources/images/coin2.png","null","",NA,NA,NA,NA,""
"image-keyboard-response",435,346031,"0.0-4.141-0.141","v9z3dbpao12hedw",212,"111.csv","","123.29999995231628","resources/trios/L1T4A2.jpg","38","restless",0.6,0.8,0.2,0.0518972735553385,"true"
"image-keyboard-response",436,346434,"0.0-4.141-1.141","v9z3dbpao12hedw",212,"111.csv","","null","resources/maskTrios/BT4B.jpg","null","",NA,NA,NA,NA,""
"image-keyboard-response",437,347638,"0.0-4.141-2.141","v9z3dbpao12hedw",212,"111.csv","","null","resources/images/coin2.png","null","",NA,NA,NA,NA,""
"image-keyboard-response",438,347949,"0.0-4.142-0.142","v9z3dbpao12hedw",212,"111.csv","","309.2000000476837","resources/trios/L1T4A2.jpg","38","restless",0.6,0.8,0.2,0.0657246082079213,"true"
"image-keyboard-response",439,348353,"0.0-4.142-1.142","v9z3dbpao12hedw",212,"111.csv","","null","resources/maskTrios/BT4B.jpg","null","",NA,NA,NA,NA,""
"image-keyboard-response",440,349555,"0.0-4.142-2.142","v9z3dbpao12hedw",212,"111.csv","","null","resources/images/coin2.png","null","",NA,NA,NA,NA,""
"image-keyboard-response",441,349892,"0.0-4.143-0.143","v9z3dbpao12hedw",212,"111.csv","","335","resources/trios/L1T4A2.jpg","38","restless",0.6,0.8,0.2,0.27123728117298,"true"
"image-keyboard-response",442,350295,"0.0-4.143-1.143","v9z3dbpao12hedw",212,"111.csv","","null","resources/maskTrios/BT4B.jpg","null","",NA,NA,NA,NA,""
"image-keyboard-response",443,351499,"0.0-4.143-2.143","v9z3dbpao12hedw",212,"111.csv","","null","resources/images/coin2.png","null","",NA,NA,NA,NA,""
"image-keyboard-response",444,352017,"0.0-4.144-0.144","v9z3dbpao12hedw",212,"111.csv","","516.5","resources/trios/L1T4A2.jpg","38","restless",0.6,0.8,0.3,0.582602306849499,"true"
"image-keyboard-response",445,352419,"0.0-4.144-1.144","v9z3dbpao12hedw",212,"111.csv","","null","resources/maskTrios/BT4B.jpg","null","",NA,NA,NA,NA,""
"image-keyboard-response",446,353621,"0.0-4.144-2.144","v9z3dbpao12hedw",212,"111.csv","","null","resources/images/coin2.png","null","",NA,NA,NA,NA,""
"image-keyboard-response",447,354039,"0.0-4.145-0.145","v9z3dbpao12hedw",212,"111.csv","","415.5","resources/trios/L1T4A2.jpg","38","restless",0.6,0.8,0.3,0.0453373010966529,"true"
"image-keyboard-response",448,354442,"0.0-4.145-1.145","v9z3dbpao12hedw",212,"111.csv","","null","resources/maskTrios/BT4B.jpg","null","",NA,NA,NA,NA,""
"image-keyboard-response",449,355645,"0.0-4.145-2.145","v9z3dbpao12hedw",212,"111.csv","","null","resources/images/coin2.png","null","",NA,NA,NA,NA,""
"image-keyboard-response",450,355889,"0.0-4.146-0.146","v9z3dbpao12hedw",212,"111.csv","","242","resources/trios/L1T4A2.jpg","38","restless",0.5,0.8,0.3,0.784516814980372,"true"
"image-keyboard-response",451,356292,"0.0-4.146-1.146","v9z3dbpao12hedw",212,"111.csv","","null","resources/maskTrios/BT4B.jpg","null","",NA,NA,NA,NA,""
"image-keyboard-response",452,357496,"0.0-4.146-2.146","v9z3dbpao12hedw",212,"111.csv","","null","resources/images/coin2.png","null","",NA,NA,NA,NA,""
"image-keyboard-response",453,365846,"0.0-4.147-0.147","v9z3dbpao12hedw",212,"111.csv","","8347.599999904633","resources/trios/L1T4A2.jpg","39","restless",0.5,0.8,0.3,0.164853728131137,"true"
"image-keyboard-response",454,366249,"0.0-4.147-1.147","v9z3dbpao12hedw",212,"111.csv","","null","resources/maskTrios/BBA2.jpg","null","",NA,NA,NA,NA,""
"image-keyboard-response",455,367452,"0.0-4.147-2.147","v9z3dbpao12hedw",212,"111.csv","","null","resources/images/coin2.png","null","",NA,NA,NA,NA,""
"image-keyboard-response",456,367583,"0.0-4.148-0.148","v9z3dbpao12hedw",212,"111.csv","","128.5","resources/trios/L1T4A2.jpg","38","restless",0.5,0.8,0.3,0.737992969754268,"true"
"image-keyboard-response",457,367986,"0.0-4.148-1.148","v9z3dbpao12hedw",212,"111.csv","","null","resources/maskTrios/BT4B.jpg","null","",NA,NA,NA,NA,""
"image-keyboard-response",458,369190,"0.0-4.148-2.148","v9z3dbpao12hedw",212,"111.csv","","null","resources/images/coin2.png","null","",NA,NA,NA,NA,""
"image-keyboard-response",459,369562,"0.0-4.149-0.149","v9z3dbpao12hedw",212,"111.csv","","369.7000000476837","resources/trios/L1T4A2.jpg","38","restless",0.5,0.8,0.3,0.367101014849577,"true"
"image-keyboard-response",460,369966,"0.0-4.149-1.149","v9z3dbpao12hedw",212,"111.csv","","null","resources/maskTrios/BT4B.jpg","null","",NA,NA,NA,NA,""
"image-keyboard-response",461,371169,"0.0-4.149-2.149","v9z3dbpao12hedw",212,"111.csv","","null","resources/images/coin2.png","null","",NA,NA,NA,NA,""
"image-keyboard-response",462,371369,"0.0-4.150-0.150","v9z3dbpao12hedw",212,"111.csv","","197.80000019073486","resources/trios/L1T4A2.jpg","38","restless",0.5,0.8,0.3,0.285552949730551,"true"
"image-keyboard-response",463,371772,"0.0-4.150-1.150","v9z3dbpao12hedw",212,"111.csv","","null","resources/maskTrios/BT4B.jpg","null","",NA,NA,NA,NA,""
"image-keyboard-response",464,372976,"0.0-4.150-2.150","v9z3dbpao12hedw",212,"111.csv","","null","resources/images/coin2.png","null","",NA,NA,NA,NA,""
"image-keyboard-response",465,373496,"0.0-4.151-0.151","v9z3dbpao12hedw",212,"111.csv","","517.9000000953674","resources/trios/L1T4A2.jpg","38","restless",0.5,0.7,0.3,0.901731907191976,"false"
"image-keyboard-response",466,373899,"0.0-4.151-1.151","v9z3dbpao12hedw",212,"111.csv","","null","resources/maskTrios/BT4B.jpg","null","",NA,NA,NA,NA,""
"image-keyboard-response",467,375103,"0.0-4.151-2.151","v9z3dbpao12hedw",212,"111.csv","","null","resources/images/fishbone.png","null","",NA,NA,NA,NA,""
"image-keyboard-response",468,375629,"0.0-4.152-0.152","v9z3dbpao12hedw",212,"111.csv","","523.7000000476837","resources/trios/L1T4A2.jpg","37","restless",0.4,0.7,0.3,0.629544993761566,"false"
"image-keyboard-response",469,376032,"0.0-4.152-1.152","v9z3dbpao12hedw",212,"111.csv","","null","resources/maskTrios/L1BB.jpg","null","",NA,NA,NA,NA,""
"image-keyboard-response",470,377236,"0.0-4.152-2.152","v9z3dbpao12hedw",212,"111.csv","","null","resources/images/fishbone.png","null","",NA,NA,NA,NA,""
"image-keyboard-response",471,377501,"0.0-4.153-0.153","v9z3dbpao12hedw",212,"111.csv","","263.09999990463257","resources/trios/L1T4A2.jpg","39","restless",0.4,0.7,0.3,0.00883451398731494,"true"
"image-keyboard-response",472,377904,"0.0-4.153-1.153","v9z3dbpao12hedw",212,"111.csv","","null","resources/maskTrios/BBA2.jpg","null","",NA,NA,NA,NA,""
"image-keyboard-response",473,379108,"0.0-4.153-2.153","v9z3dbpao12hedw",212,"111.csv","","null","resources/images/coin2.png","null","",NA,NA,NA,NA,""
"image-keyboard-response",474,379339,"0.0-4.154-0.154","v9z3dbpao12hedw",212,"111.csv","","228.89999985694885","resources/trios/L1T4A2.jpg","39","restless",0.4,0.7,0.3,0.62252951704439,"false"
"image-keyboard-response",475,379742,"0.0-4.154-1.154","v9z3dbpao12hedw",212,"111.csv","","null","resources/maskTrios/BBA2.jpg","null","",NA,NA,NA,NA,""
"image-keyboard-response",476,380945,"0.0-4.154-2.154","v9z3dbpao12hedw",212,"111.csv","","null","resources/images/fishbone.png","null","",NA,NA,NA,NA,""
"image-keyboard-response",477,381174,"0.0-4.155-0.155","v9z3dbpao12hedw",212,"111.csv","","225.90000009536743","resources/trios/L1T4A2.jpg","38","restless",0.4,0.7,0.3,0.670230532921616,"true"
"image-keyboard-response",478,381577,"0.0-4.155-1.155","v9z3dbpao12hedw",212,"111.csv","","null","resources/maskTrios/BT4B.jpg","null","",NA,NA,NA,NA,""
"image-keyboard-response",479,382781,"0.0-4.155-2.155","v9z3dbpao12hedw",212,"111.csv","","null","resources/images/coin2.png","null","",NA,NA,NA,NA,""
"image-keyboard-response",480,382816,"0.0-4.156-0.156","v9z3dbpao12hedw",212,"111.csv","","33.09999990463257","resources/trios/L1T4A2.jpg","38","restless",0.4,0.6,0.3,0.284037740239865,"true"
"image-keyboard-response",481,383220,"0.0-4.156-1.156","v9z3dbpao12hedw",212,"111.csv","","null","resources/maskTrios/BT4B.jpg","null","",NA,NA,NA,NA,""
"image-keyboard-response",482,384424,"0.0-4.156-2.156","v9z3dbpao12hedw",212,"111.csv","","null","resources/images/coin2.png","null","",NA,NA,NA,NA,""
"image-keyboard-response",483,384682,"0.0-4.157-0.157","v9z3dbpao12hedw",212,"111.csv","","256.09999990463257","resources/trios/L1T4A2.jpg","38","restless",0.4,0.6,0.3,0.901583820494911,"false"
"image-keyboard-response",484,385086,"0.0-4.157-1.157","v9z3dbpao12hedw",212,"111.csv","","null","resources/maskTrios/BT4B.jpg","null","",NA,NA,NA,NA,""
"image-keyboard-response",485,386289,"0.0-4.157-2.157","v9z3dbpao12hedw",212,"111.csv","","null","resources/images/fishbone.png","null","",NA,NA,NA,NA,""
"image-keyboard-response",486,386434,"0.0-4.158-0.158","v9z3dbpao12hedw",212,"111.csv","","144.79999995231628","resources/trios/L1T4A2.jpg","38","restless",0.3,0.6,0.3,0.0263440135442266,"true"
"image-keyboard-response",487,386838,"0.0-4.158-1.158","v9z3dbpao12hedw",212,"111.csv","","null","resources/maskTrios/BT4B.jpg","null","",NA,NA,NA,NA,""
"image-keyboard-response",488,388040,"0.0-4.158-2.158","v9z3dbpao12hedw",212,"111.csv","","null","resources/images/coin2.png","null","",NA,NA,NA,NA,""
"image-keyboard-response",489,388620,"0.0-4.159-0.159","v9z3dbpao12hedw",212,"111.csv","","577.7000000476837","resources/trios/L1T4A2.jpg","38","restless",0.3,0.6,0.3,0.789702447795234,"false"
"image-keyboard-response",490,389023,"0.0-4.159-1.159","v9z3dbpao12hedw",212,"111.csv","","null","resources/maskTrios/BT4B.jpg","null","",NA,NA,NA,NA,""
"image-keyboard-response",491,390227,"0.0-4.159-2.159","v9z3dbpao12hedw",212,"111.csv","","null","resources/images/fishbone.png","null","",NA,NA,NA,NA,""
"image-keyboard-response",492,390385,"0.0-4.160-0.160","v9z3dbpao12hedw",212,"111.csv","","155.40000009536743","resources/trios/L1T4A2.jpg","38","restless",0.3,0.6,0.3,0.118854648946461,"true"
"image-keyboard-response",493,390788,"0.0-4.160-1.160","v9z3dbpao12hedw",212,"111.csv","","null","resources/maskTrios/BT4B.jpg","null","",NA,NA,NA,NA,""
"image-keyboard-response",494,391991,"0.0-4.160-2.160","v9z3dbpao12hedw",212,"111.csv","","null","resources/images/coin2.png","null","",NA,NA,NA,NA,""
"image-keyboard-response",495,392277,"0.0-4.161-0.161","v9z3dbpao12hedw",212,"111.csv","","283.60000014305115","resources/trios/L1T4A2.jpg","38","restless",0.3,0.6,0.3,0.601477144044123,"false"
"image-keyboard-response",496,392681,"0.0-4.161-1.161","v9z3dbpao12hedw",212,"111.csv","","null","resources/maskTrios/BT4B.jpg","null","",NA,NA,NA,NA,""
"image-keyboard-response",497,393885,"0.0-4.161-2.161","v9z3dbpao12hedw",212,"111.csv","","null","resources/images/fishbone.png","null","",NA,NA,NA,NA,""
"image-keyboard-response",498,394295,"0.0-4.162-0.162","v9z3dbpao12hedw",212,"111.csv","","407.39999985694885","resources/trios/L1T4A2.jpg","37","restless",0.3,0.6,0.3,0.417412754454793,"false"
"image-keyboard-response",499,394698,"0.0-4.162-1.162","v9z3dbpao12hedw",212,"111.csv","","null","resources/maskTrios/L1BB.jpg","null","",NA,NA,NA,NA,""
"image-keyboard-response",500,395901,"0.0-4.162-2.162","v9z3dbpao12hedw",212,"111.csv","","null","resources/images/fishbone.png","null","",NA,NA,NA,NA,""
"image-keyboard-response",501,396278,"0.0-4.163-0.163","v9z3dbpao12hedw",212,"111.csv","","374.89999985694885","resources/trios/L1T4A2.jpg","39","restless",0.3,0.6,0.3,0.320360013081175,"false"
"image-keyboard-response",502,396681,"0.0-4.163-1.163","v9z3dbpao12hedw",212,"111.csv","","null","resources/maskTrios/BBA2.jpg","null","",NA,NA,NA,NA,""
"image-keyboard-response",503,397885,"0.0-4.163-2.163","v9z3dbpao12hedw",212,"111.csv","","null","resources/images/fishbone.png","null","",NA,NA,NA,NA,""
"image-keyboard-response",504,398086,"0.0-4.164-0.164","v9z3dbpao12hedw",212,"111.csv","","199.10000014305115","resources/trios/L1T4A2.jpg","38","restless",0.3,0.6,0.3,0.160497578872677,"true"
"image-keyboard-response",505,398490,"0.0-4.164-1.164","v9z3dbpao12hedw",212,"111.csv","","null","resources/maskTrios/BT4B.jpg","null","",NA,NA,NA,NA,""
"image-keyboard-response",506,399695,"0.0-4.164-2.164","v9z3dbpao12hedw",212,"111.csv","","null","resources/images/coin2.png","null","",NA,NA,NA,NA,""
"image-keyboard-response",507,399806,"0.0-4.165-0.165","v9z3dbpao12hedw",212,"111.csv","","109","resources/trios/L1T4A2.jpg","38","restless",0.3,0.6,0.3,0.904862946578463,"false"
"image-keyboard-response",508,400209,"0.0-4.165-1.165","v9z3dbpao12hedw",212,"111.csv","","null","resources/maskTrios/BT4B.jpg","null","",NA,NA,NA,NA,""
"image-keyboard-response",509,401412,"0.0-4.165-2.165","v9z3dbpao12hedw",212,"111.csv","","null","resources/images/fishbone.png","null","",NA,NA,NA,NA,""
"image-keyboard-response",510,401740,"0.0-4.166-0.166","v9z3dbpao12hedw",212,"111.csv","","325.7999999523163","resources/trios/L1T4A2.jpg","37","restless",0.3,0.6,0.3,0.907349550082875,"false"
"image-keyboard-response",511,402144,"0.0-4.166-1.166","v9z3dbpao12hedw",212,"111.csv","","null","resources/maskTrios/L1BB.jpg","null","",NA,NA,NA,NA,""
"image-keyboard-response",512,403348,"0.0-4.166-2.166","v9z3dbpao12hedw",212,"111.csv","","null","resources/images/fishbone.png","null","",NA,NA,NA,NA,""
"image-keyboard-response",513,403704,"0.0-4.167-0.167","v9z3dbpao12hedw",212,"111.csv","","353.7999999523163","resources/trios/L1T4A2.jpg","39","restless",0.3,0.5,0.3,0.201913487204646,"true"
"image-keyboard-response",514,404107,"0.0-4.167-1.167","v9z3dbpao12hedw",212,"111.csv","","null","resources/maskTrios/BBA2.jpg","null","",NA,NA,NA,NA,""
"image-keyboard-response",515,405311,"0.0-4.167-2.167","v9z3dbpao12hedw",212,"111.csv","","null","resources/images/coin2.png","null","",NA,NA,NA,NA,""
"image-keyboard-response",516,405650,"0.0-4.168-0.168","v9z3dbpao12hedw",212,"111.csv","","337","resources/trios/L1T4A2.jpg","39","restless",0.3,0.4,0.3,0.491279583493974,"false"
"image-keyboard-response",517,406053,"0.0-4.168-1.168","v9z3dbpao12hedw",212,"111.csv","","null","resources/maskTrios/BBA2.jpg","null","",NA,NA,NA,NA,""
"image-keyboard-response",518,407256,"0.0-4.168-2.168","v9z3dbpao12hedw",212,"111.csv","","null","resources/images/fishbone.png","null","",NA,NA,NA,NA,""
"image-keyboard-response",519,407693,"0.0-4.169-0.169","v9z3dbpao12hedw",212,"111.csv","","434.2999999523163","resources/trios/L1T4A2.jpg","38","restless",0.3,0.4,0.3,0.120465767754971,"true"
"image-keyboard-response",520,408096,"0.0-4.169-1.169","v9z3dbpao12hedw",212,"111.csv","","null","resources/maskTrios/BT4B.jpg","null","",NA,NA,NA,NA,""
"image-keyboard-response",521,409299,"0.0-4.169-2.169","v9z3dbpao12hedw",212,"111.csv","","null","resources/images/coin2.png","null","",NA,NA,NA,NA,""
"image-keyboard-response",522,409542,"0.0-4.170-0.170","v9z3dbpao12hedw",212,"111.csv","","240.10000014305115","resources/trios/L1T4A2.jpg","38","restless",0.3,0.4,0.3,0.123316047827708,"true"
"image-keyboard-response",523,409945,"0.0-4.170-1.170","v9z3dbpao12hedw",212,"111.csv","","null","resources/maskTrios/BT4B.jpg","null","",NA,NA,NA,NA,""
"image-keyboard-response",524,411149,"0.0-4.170-2.170","v9z3dbpao12hedw",212,"111.csv","","null","resources/images/coin2.png","null","",NA,NA,NA,NA,""
"image-keyboard-response",525,411403,"0.0-4.171-0.171","v9z3dbpao12hedw",212,"111.csv","","251","resources/trios/L1T4A2.jpg","38","restless",0.3,0.4,0.3,0.780134609195388,"false"
"image-keyboard-response",526,411806,"0.0-4.171-1.171","v9z3dbpao12hedw",212,"111.csv","","null","resources/maskTrios/BT4B.jpg","null","",NA,NA,NA,NA,""
"image-keyboard-response",527,413009,"0.0-4.171-2.171","v9z3dbpao12hedw",212,"111.csv","","null","resources/images/fishbone.png","null","",NA,NA,NA,NA,""
"image-keyboard-response",528,414177,"0.0-4.172-0.172","v9z3dbpao12hedw",212,"111.csv","","1165.7000000476837","resources/trios/L1T4A2.jpg","37","restless",0.3,0.4,0.3,0.915827045919027,"false"
"image-keyboard-response",529,414580,"0.0-4.172-1.172","v9z3dbpao12hedw",212,"111.csv","","null","resources/maskTrios/L1BB.jpg","null","",NA,NA,NA,NA,""
"image-keyboard-response",530,415784,"0.0-4.172-2.172","v9z3dbpao12hedw",212,"111.csv","","null","resources/images/fishbone.png","null","",NA,NA,NA,NA,""
"image-keyboard-response",531,416143,"0.0-4.173-0.173","v9z3dbpao12hedw",212,"111.csv","","356.59999990463257","resources/trios/L1T4A2.jpg","39","restless",0.4,0.4,0.3,0.434641858163705,"false"
"image-keyboard-response",532,416547,"0.0-4.173-1.173","v9z3dbpao12hedw",212,"111.csv","","null","resources/maskTrios/BBA2.jpg","null","",NA,NA,NA,NA,""
"image-keyboard-response",533,417750,"0.0-4.173-2.173","v9z3dbpao12hedw",212,"111.csv","","null","resources/images/fishbone.png","null","",NA,NA,NA,NA,""
"image-keyboard-response",534,418009,"0.0-4.174-0.174","v9z3dbpao12hedw",212,"111.csv","","256.09999990463257","resources/trios/L1T4A2.jpg","38","restless",0.5,0.4,0.3,0.704221025469111,"false"
"image-keyboard-response",535,418413,"0.0-4.174-1.174","v9z3dbpao12hedw",212,"111.csv","","null","resources/maskTrios/BT4B.jpg","null","",NA,NA,NA,NA,""
"image-keyboard-response",536,419616,"0.0-4.174-2.174","v9z3dbpao12hedw",212,"111.csv","","null","resources/images/fishbone.png","null","",NA,NA,NA,NA,""
"image-keyboard-response",537,419856,"0.0-4.175-0.175","v9z3dbpao12hedw",212,"111.csv","","237.90000009536743","resources/trios/L1T4A2.jpg","38","restless",0.5,0.4,0.3,0.782879058249689,"false"
"image-keyboard-response",538,420259,"0.0-4.175-1.175","v9z3dbpao12hedw",212,"111.csv","","null","resources/maskTrios/BT4B.jpg","null","",NA,NA,NA,NA,""
"image-keyboard-response",539,421462,"0.0-4.175-2.175","v9z3dbpao12hedw",212,"111.csv","","null","resources/images/fishbone.png","null","",NA,NA,NA,NA,""
"image-keyboard-response",540,421719,"0.0-4.176-0.176","v9z3dbpao12hedw",212,"111.csv","","254.89999985694885","resources/trios/L1T4A2.jpg","39","restless",0.5,0.4,0.3,0.503967385382856,"false"
"image-keyboard-response",541,422122,"0.0-4.176-1.176","v9z3dbpao12hedw",212,"111.csv","","null","resources/maskTrios/BBA2.jpg","null","",NA,NA,NA,NA,""
"image-keyboard-response",542,423325,"0.0-4.176-2.176","v9z3dbpao12hedw",212,"111.csv","","null","resources/images/fishbone.png","null","",NA,NA,NA,NA,""
"image-keyboard-response",543,423584,"0.0-4.177-0.177","v9z3dbpao12hedw",212,"111.csv","","256","resources/trios/L1T4A2.jpg","38","restless",0.6,0.4,0.3,0.729963106047438,"false"
"image-keyboard-response",544,423987,"0.0-4.177-1.177","v9z3dbpao12hedw",212,"111.csv","","null","resources/maskTrios/BT4B.jpg","null","",NA,NA,NA,NA,""
"image-keyboard-response",545,425189,"0.0-4.177-2.177","v9z3dbpao12hedw",212,"111.csv","","null","resources/images/fishbone.png","null","",NA,NA,NA,NA,""
"image-keyboard-response",546,425863,"0.0-4.178-0.178","v9z3dbpao12hedw",212,"111.csv","","671.9000000953674","resources/trios/L1T4A2.jpg","37","restless",0.6,0.4,0.4,0.765926862454533,"false"
"image-keyboard-response",547,426266,"0.0-4.178-1.178","v9z3dbpao12hedw",212,"111.csv","","null","resources/maskTrios/L1BB.jpg","null","",NA,NA,NA,NA,""
"image-keyboard-response",548,427470,"0.0-4.178-2.178","v9z3dbpao12hedw",212,"111.csv","","null","resources/images/fishbone.png","null","",NA,NA,NA,NA,""
"image-keyboard-response",549,427703,"0.0-4.179-0.179","v9z3dbpao12hedw",212,"111.csv","","231.60000014305115","resources/trios/L1T4A2.jpg","38","restless",0.6,0.4,0.4,0.976910101637645,"false"
"image-keyboard-response",550,428106,"0.0-4.179-1.179","v9z3dbpao12hedw",212,"111.csv","","null","resources/maskTrios/BT4B.jpg","null","",NA,NA,NA,NA,""
"image-keyboard-response",551,429309,"0.0-4.179-2.179","v9z3dbpao12hedw",212,"111.csv","","null","resources/images/fishbone.png","null","",NA,NA,NA,NA,""
"image-keyboard-response",552,429764,"0.0-4.180-0.180","v9z3dbpao12hedw",212,"111.csv","","452.7000000476837","resources/trios/L1T4A2.jpg","39","restless",0.6,0.4,0.4,0.0155149100722392,"true"
"image-keyboard-response",553,430167,"0.0-4.180-1.180","v9z3dbpao12hedw",212,"111.csv","","null","resources/maskTrios/BBA2.jpg","null","",NA,NA,NA,NA,""
"image-keyboard-response",554,431370,"0.0-4.180-2.180","v9z3dbpao12hedw",212,"111.csv","","null","resources/images/coin2.png","null","",NA,NA,NA,NA,""
"image-keyboard-response",555,431671,"0.0-4.181-0.181","v9z3dbpao12hedw",212,"111.csv","","299","resources/trios/L1T4A2.jpg","39","restless",0.6,0.4,0.4,0.0546754519984782,"true"
"image-keyboard-response",556,432075,"0.0-4.181-1.181","v9z3dbpao12hedw",212,"111.csv","","null","resources/maskTrios/BBA2.jpg","null","",NA,NA,NA,NA,""
"image-keyboard-response",557,433278,"0.0-4.181-2.181","v9z3dbpao12hedw",212,"111.csv","","null","resources/images/coin2.png","null","",NA,NA,NA,NA,""
"image-keyboard-response",558,433406,"0.0-4.182-0.182","v9z3dbpao12hedw",212,"111.csv","","125.5","resources/trios/L1T4A2.jpg","39","restless",0.6,0.4,0.4,0.00831228671812867,"true"
"image-keyboard-response",559,433810,"0.0-4.182-1.182","v9z3dbpao12hedw",212,"111.csv","","null","resources/maskTrios/BBA2.jpg","null","",NA,NA,NA,NA,""
"image-keyboard-response",560,435014,"0.0-4.182-2.182","v9z3dbpao12hedw",212,"111.csv","","null","resources/images/coin2.png","null","",NA,NA,NA,NA,""
"image-keyboard-response",561,435102,"0.0-4.183-0.183","v9z3dbpao12hedw",212,"111.csv","","85.5","resources/trios/L1T4A2.jpg","39","restless",0.6,0.5,0.4,0.56152301695332,"false"
"image-keyboard-response",562,435505,"0.0-4.183-1.183","v9z3dbpao12hedw",212,"111.csv","","null","resources/maskTrios/BBA2.jpg","null","",NA,NA,NA,NA,""
"image-keyboard-response",563,436709,"0.0-4.183-2.183","v9z3dbpao12hedw",212,"111.csv","","null","resources/images/fishbone.png","null","",NA,NA,NA,NA,""
"image-keyboard-response",564,437087,"0.0-4.184-0.184","v9z3dbpao12hedw",212,"111.csv","","375.7999999523163","resources/trios/L1T4A2.jpg","38","restless",0.6,0.5,0.4,0.366060185580125,"true"
"image-keyboard-response",565,437491,"0.0-4.184-1.184","v9z3dbpao12hedw",212,"111.csv","","null","resources/maskTrios/BT4B.jpg","null","",NA,NA,NA,NA,""
"image-keyboard-response",566,438696,"0.0-4.184-2.184","v9z3dbpao12hedw",212,"111.csv","","null","resources/images/coin2.png","null","",NA,NA,NA,NA,""
"image-keyboard-response",567,439059,"0.0-4.185-0.185","v9z3dbpao12hedw",212,"111.csv","","360.39999985694885","resources/trios/L1T4A2.jpg","38","restless",0.6,0.5,0.4,0.964869318408931,"false"
"image-keyboard-response",568,439462,"0.0-4.185-1.185","v9z3dbpao12hedw",212,"111.csv","","null","resources/maskTrios/BT4B.jpg","null","",NA,NA,NA,NA,""
"image-keyboard-response",569,440665,"0.0-4.185-2.185","v9z3dbpao12hedw",212,"111.csv","","null","resources/images/fishbone.png","null","",NA,NA,NA,NA,""
"image-keyboard-response",570,440900,"0.0-4.186-0.186","v9z3dbpao12hedw",212,"111.csv","","232.89999985694885","resources/trios/L1T4A2.jpg","37","restless",0.7,0.5,0.4,0.877025848316441,"false"
"image-keyboard-response",571,441304,"0.0-4.186-1.186","v9z3dbpao12hedw",212,"111.csv","","null","resources/maskTrios/L1BB.jpg","null","",NA,NA,NA,NA,""
"image-keyboard-response",572,442508,"0.0-4.186-2.186","v9z3dbpao12hedw",212,"111.csv","","null","resources/images/fishbone.png","null","",NA,NA,NA,NA,""
"image-keyboard-response",573,443549,"0.0-4.187-0.187","v9z3dbpao12hedw",212,"111.csv","","1039","resources/trios/L1T4A2.jpg","39","restless",0.7,0.5,0.4,0.446117171189392,"false"
"image-keyboard-response",574,443952,"0.0-4.187-1.187","v9z3dbpao12hedw",212,"111.csv","","null","resources/maskTrios/BBA2.jpg","null","",NA,NA,NA,NA,""
"image-keyboard-response",575,445155,"0.0-4.187-2.187","v9z3dbpao12hedw",212,"111.csv","","null","resources/images/fishbone.png","null","",NA,NA,NA,NA,""
"image-keyboard-response",576,445636,"0.0-4.188-0.188","v9z3dbpao12hedw",212,"111.csv","","479","resources/trios/L1T4A2.jpg","37","restless",0.7,0.5,0.4,0.757888626208315,"false"
"image-keyboard-response",577,446039,"0.0-4.188-1.188","v9z3dbpao12hedw",212,"111.csv","","null","resources/maskTrios/L1BB.jpg","null","",NA,NA,NA,NA,""
"image-keyboard-response",578,447244,"0.0-4.188-2.188","v9z3dbpao12hedw",212,"111.csv","","null","resources/images/fishbone.png","null","",NA,NA,NA,NA,""
"image-keyboard-response",579,447962,"0.0-4.189-0.189","v9z3dbpao12hedw",212,"111.csv","","715.8999998569489","resources/trios/L1T4A2.jpg","38","restless",0.7,0.5,0.4,0.900792528036376,"false"
"image-keyboard-response",580,448365,"0.0-4.189-1.189","v9z3dbpao12hedw",212,"111.csv","","null","resources/maskTrios/BT4B.jpg","null","",NA,NA,NA,NA,""
"image-keyboard-response",581,449569,"0.0-4.189-2.189","v9z3dbpao12hedw",212,"111.csv","","null","resources/images/fishbone.png","null","",NA,NA,NA,NA,""
"image-keyboard-response",582,450267,"0.0-4.190-0.190","v9z3dbpao12hedw",212,"111.csv","","695.6999998092651","resources/trios/L1T4A2.jpg","39","restless",0.7,0.5,0.4,0.9054245802635,"false"
"image-keyboard-response",583,450671,"0.0-4.190-1.190","v9z3dbpao12hedw",212,"111.csv","","null","resources/maskTrios/BBA2.jpg","null","",NA,NA,NA,NA,""
"image-keyboard-response",584,451874,"0.0-4.190-2.190","v9z3dbpao12hedw",212,"111.csv","","null","resources/images/fishbone.png","null","",NA,NA,NA,NA,""
"image-keyboard-response",585,452585,"0.0-4.191-0.191","v9z3dbpao12hedw",212,"111.csv","","709","resources/trios/L1T4A2.jpg","37","restless",0.7,0.5,0.4,0.74619156502026,"false"
"image-keyboard-response",586,452989,"0.0-4.191-1.191","v9z3dbpao12hedw",212,"111.csv","","null","resources/maskTrios/L1BB.jpg","null","",NA,NA,NA,NA,""
"image-keyboard-response",587,454194,"0.0-4.191-2.191","v9z3dbpao12hedw",212,"111.csv","","null","resources/images/fishbone.png","null","",NA,NA,NA,NA,""
"image-keyboard-response",588,455105,"0.0-4.192-0.192","v9z3dbpao12hedw",212,"111.csv","","909.2000000476837","resources/trios/L1T4A2.jpg","38","restless",0.6,0.5,0.4,0.0552011907401395,"true"
"image-keyboard-response",589,455508,"0.0-4.192-1.192","v9z3dbpao12hedw",212,"111.csv","","null","resources/maskTrios/BT4B.jpg","null","",NA,NA,NA,NA,""
"image-keyboard-response",590,456712,"0.0-4.192-2.192","v9z3dbpao12hedw",212,"111.csv","","null","resources/images/coin2.png","null","",NA,NA,NA,NA,""
"image-keyboard-response",591,457462,"0.0-4.193-0.193","v9z3dbpao12hedw",212,"111.csv","","749.7999999523163","resources/trios/L1T4A2.jpg","38","restless",0.6,0.5,0.4,0.242456240577908,"true"
"image-keyboard-response",592,457866,"0.0-4.193-1.193","v9z3dbpao12hedw",212,"111.csv","","null","resources/maskTrios/BT4B.jpg","null","",NA,NA,NA,NA,""
"image-keyboard-response",593,459071,"0.0-4.193-2.193","v9z3dbpao12hedw",212,"111.csv","","null","resources/images/coin2.png","null","",NA,NA,NA,NA,""
"image-keyboard-response",594,459425,"0.0-4.194-0.194","v9z3dbpao12hedw",212,"111.csv","","352","resources/trios/L1T4A2.jpg","39","restless",0.6,0.5,0.4,0.281092405102278,"true"
"image-keyboard-response",595,459828,"0.0-4.194-1.194","v9z3dbpao12hedw",212,"111.csv","","null","resources/maskTrios/BBA2.jpg","null","",NA,NA,NA,NA,""
"image-keyboard-response",596,461032,"0.0-4.194-2.194","v9z3dbpao12hedw",212,"111.csv","","null","resources/images/coin2.png","null","",NA,NA,NA,NA,""
"image-keyboard-response",597,461516,"0.0-4.195-0.195","v9z3dbpao12hedw",212,"111.csv","","481.59999990463257","resources/trios/L1T4A2.jpg","38","restless",0.6,0.5,0.4,0.745150338797225,"false"
"image-keyboard-response",598,461919,"0.0-4.195-1.195","v9z3dbpao12hedw",212,"111.csv","","null","resources/maskTrios/BT4B.jpg","null","",NA,NA,NA,NA,""
"image-keyboard-response",599,463122,"0.0-4.195-2.195","v9z3dbpao12hedw",212,"111.csv","","null","resources/images/fishbone.png","null","",NA,NA,NA,NA,""
"image-keyboard-response",600,463649,"0.0-4.196-0.196","v9z3dbpao12hedw",212,"111.csv","","524.1000001430511","resources/trios/L1T4A2.jpg","37","restless",0.6,0.5,0.4,0.96269981983586,"false"
"image-keyboard-response",601,464053,"0.0-4.196-1.196","v9z3dbpao12hedw",212,"111.csv","","null","resources/maskTrios/L1BB.jpg","null","",NA,NA,NA,NA,""
"image-keyboard-response",602,465256,"0.0-4.196-2.196","v9z3dbpao12hedw",212,"111.csv","","null","resources/images/fishbone.png","null","",NA,NA,NA,NA,""
"image-keyboard-response",603,465562,"0.0-4.197-0.197","v9z3dbpao12hedw",212,"111.csv","","303.39999985694885","resources/trios/L1T4A2.jpg","38","restless",0.6,0.5,0.4,0.032017409551905,"true"
"image-keyboard-response",604,465965,"0.0-4.197-1.197","v9z3dbpao12hedw",212,"111.csv","","null","resources/maskTrios/BT4B.jpg","null","",NA,NA,NA,NA,""
"image-keyboard-response",605,467168,"0.0-4.197-2.197","v9z3dbpao12hedw",212,"111.csv","","null","resources/images/coin2.png","null","",NA,NA,NA,NA,""
"image-keyboard-response",606,467275,"0.0-4.198-0.198","v9z3dbpao12hedw",212,"111.csv","","103.80000019073486","resources/trios/L1T4A2.jpg","38","restless",0.6,0.5,0.4,0.997158276010436,"false"
"image-keyboard-response",607,467678,"0.0-4.198-1.198","v9z3dbpao12hedw",212,"111.csv","","null","resources/maskTrios/BT4B.jpg","null","",NA,NA,NA,NA,""
"image-keyboard-response",608,468881,"0.0-4.198-2.198","v9z3dbpao12hedw",212,"111.csv","","null","resources/images/fishbone.png","null","",NA,NA,NA,NA,""
