"trial_type","trial_index","time_elapsed","internal_node_id","subject","participantCode","walkNumber","success","rt","stimulus","key_press","test_part","leftProb","midProb","rightProb","generatedNum","correct"
"pavlovia",0,902,"0.0-0.0","ug1q10jjktnxgcd",323,"90.csv","","","","","",NA,NA,NA,NA,""
"fullscreen",1,71773,"0.0-1.0","ug1q10jjktnxgcd",323,"90.csv","true","","","","",NA,NA,NA,NA,""
"survey-html-form",2,88235,"0.0-2.0","ug1q10jjktnxgcd",323,"90.csv","","16460","","","",NA,NA,NA,NA,""
"image-keyboard-response",3,101405,"0.0-3.0-0.0","ug1q10jjktnxgcd",323,"90.csv","","13168.999999999985","resources/images/parrot_nobg.png","13","",NA,NA,NA,NA,""
"image-keyboard-response",4,104408,"0.0-3.0-1.0","ug1q10jjktnxgcd",323,"90.csv","","null","resources/image_sets/111.png","null","",NA,NA,NA,NA,""
"image-keyboard-response",5,109435,"0.0-3.0-2.0","ug1q10jjktnxgcd",323,"90.csv","","5025","resources/image_sets/left_highlight.png","37","",NA,NA,NA,NA,""
"image-keyboard-response",6,111466,"0.0-3.0-3.0","ug1q10jjktnxgcd",323,"90.csv","","2030","resources/image_sets/mid_highlight.png","38","",NA,NA,NA,NA,""
"image-keyboard-response",7,112771,"0.0-3.0-4.0","ug1q10jjktnxgcd",323,"90.csv","","1302.9999999999854","resources/image_sets/right_highlight.png","39","",NA,NA,NA,NA,""
"image-keyboard-response",8,114436,"0.0-3.0-5.0","ug1q10jjktnxgcd",323,"90.csv","","1664","resources/image_sets/111.png","13","",NA,NA,NA,NA,""
"image-keyboard-response",9,116354,"0.0-3.0-6.0","ug1q10jjktnxgcd",323,"90.csv","","1917","resources/images/coin2.png","13","",NA,NA,NA,NA,""
"image-keyboard-response",10,117564,"0.0-3.0-7.0","ug1q10jjktnxgcd",323,"90.csv","","1208","resources/images/fishbone.png","13","",NA,NA,NA,NA,""
"html-keyboard-response",11,121371,"0.0-3.0-8.0","ug1q10jjktnxgcd",323,"90.csv","","3802","<p>You can track your coin total on the top right of your screen. </p><p>At the end of your journey you will be directed to a survey, so please click on the link before exiting the task</p><p>Press Enter to begin</p>","13","",NA,NA,NA,NA,""
"image-keyboard-response",12,123397,"0.0-4.0-0.0","ug1q10jjktnxgcd",323,"90.csv","","2023","resources/trios/L1T4A3.jpg","38","restless",0.9,0.7,0.3,0.233349961238977,"true"
"image-keyboard-response",13,123799,"0.0-4.0-1.0","ug1q10jjktnxgcd",323,"90.csv","","null","resources/maskTrios/BT4B.jpg","null","",NA,NA,NA,NA,""
"image-keyboard-response",14,125004,"0.0-4.0-2.0","ug1q10jjktnxgcd",323,"90.csv","","null","resources/images/coin2.png","null","",NA,NA,NA,NA,""
"image-keyboard-response",15,125824,"0.0-4.1-0.1","ug1q10jjktnxgcd",323,"90.csv","","816","resources/trios/L1T4A3.jpg","39","restless",0.9,0.7,0.3,0.837336180335908,"false"
"image-keyboard-response",16,126227,"0.0-4.1-1.1","ug1q10jjktnxgcd",323,"90.csv","","null","resources/maskTrios/BBA3.jpg","null","",NA,NA,NA,NA,""
"image-keyboard-response",17,127431,"0.0-4.1-2.1","ug1q10jjktnxgcd",323,"90.csv","","null","resources/images/fishbone.png","null","",NA,NA,NA,NA,""
"image-keyboard-response",18,128256,"0.0-4.2-0.2","ug1q10jjktnxgcd",323,"90.csv","","823.9999999999854","resources/trios/L1T4A3.jpg","39","restless",0.9,0.7,0.3,0.414422430308137,"false"
"image-keyboard-response",19,128659,"0.0-4.2-1.2","ug1q10jjktnxgcd",323,"90.csv","","null","resources/maskTrios/BBA3.jpg","null","",NA,NA,NA,NA,""
"image-keyboard-response",20,129863,"0.0-4.2-2.2","ug1q10jjktnxgcd",323,"90.csv","","null","resources/images/fishbone.png","null","",NA,NA,NA,NA,""
"image-keyboard-response",21,130343,"0.0-4.3-0.3","ug1q10jjktnxgcd",323,"90.csv","","477","resources/trios/L1T4A3.jpg","37","restless",0.9,0.7,0.3,0.951298293060522,"false"
"image-keyboard-response",22,130746,"0.0-4.3-1.3","ug1q10jjktnxgcd",323,"90.csv","","null","resources/maskTrios/L1BB.jpg","null","",NA,NA,NA,NA,""
"image-keyboard-response",23,131949,"0.0-4.3-2.3","ug1q10jjktnxgcd",323,"90.csv","","null","resources/images/fishbone.png","null","",NA,NA,NA,NA,""
"image-keyboard-response",24,132292,"0.0-4.4-0.4","ug1q10jjktnxgcd",323,"90.csv","","341","resources/trios/L1T4A3.jpg","38","restless",0.9,0.7,0.3,0.837146990441866,"false"
"image-keyboard-response",25,132694,"0.0-4.4-1.4","ug1q10jjktnxgcd",323,"90.csv","","null","resources/maskTrios/BT4B.jpg","null","",NA,NA,NA,NA,""
"image-keyboard-response",26,133897,"0.0-4.4-2.4","ug1q10jjktnxgcd",323,"90.csv","","null","resources/images/fishbone.png","null","",NA,NA,NA,NA,""
"image-keyboard-response",27,134443,"0.0-4.5-0.5","ug1q10jjktnxgcd",323,"90.csv","","544","resources/trios/L1T4A3.jpg","39","restless",0.9,0.7,0.3,0.876600209012265,"false"
"image-keyboard-response",28,134845,"0.0-4.5-1.5","ug1q10jjktnxgcd",323,"90.csv","","null","resources/maskTrios/BBA3.jpg","null","",NA,NA,NA,NA,""
"image-keyboard-response",29,136047,"0.0-4.5-2.5","ug1q10jjktnxgcd",323,"90.csv","","null","resources/images/fishbone.png","null","",NA,NA,NA,NA,""
"image-keyboard-response",30,137079,"0.0-4.6-0.6","ug1q10jjktnxgcd",323,"90.csv","","1031","resources/trios/L1T4A3.jpg","39","restless",0.9,0.7,0.2,0.906401751578479,"false"
"image-keyboard-response",31,137481,"0.0-4.6-1.6","ug1q10jjktnxgcd",323,"90.csv","","null","resources/maskTrios/BBA3.jpg","null","",NA,NA,NA,NA,""
"image-keyboard-response",32,138684,"0.0-4.6-2.6","ug1q10jjktnxgcd",323,"90.csv","","null","resources/images/fishbone.png","null","",NA,NA,NA,NA,""
"image-keyboard-response",33,138948,"0.0-4.7-0.7","ug1q10jjktnxgcd",323,"90.csv","","262","resources/trios/L1T4A3.jpg","39","restless",0.9,0.7,0.2,0.67998351902591,"false"
"image-keyboard-response",34,139350,"0.0-4.7-1.7","ug1q10jjktnxgcd",323,"90.csv","","null","resources/maskTrios/BBA3.jpg","null","",NA,NA,NA,NA,""
"image-keyboard-response",35,140553,"0.0-4.7-2.7","ug1q10jjktnxgcd",323,"90.csv","","null","resources/images/fishbone.png","null","",NA,NA,NA,NA,""
"image-keyboard-response",36,140821,"0.0-4.8-0.8","ug1q10jjktnxgcd",323,"90.csv","","267","resources/trios/L1T4A3.jpg","39","restless",0.9,0.7,0.2,0.893743141909383,"false"
"image-keyboard-response",37,141223,"0.0-4.8-1.8","ug1q10jjktnxgcd",323,"90.csv","","null","resources/maskTrios/BBA3.jpg","null","",NA,NA,NA,NA,""
"image-keyboard-response",38,142425,"0.0-4.8-2.8","ug1q10jjktnxgcd",323,"90.csv","","null","resources/images/fishbone.png","null","",NA,NA,NA,NA,""
"image-keyboard-response",39,142721,"0.0-4.9-0.9","ug1q10jjktnxgcd",323,"90.csv","","293.9999999999709","resources/trios/L1T4A3.jpg","37","restless",0.9,0.7,0.1,0.21658605074817,"true"
"image-keyboard-response",40,143123,"0.0-4.9-1.9","ug1q10jjktnxgcd",323,"90.csv","","null","resources/maskTrios/L1BB.jpg","null","",NA,NA,NA,NA,""
"image-keyboard-response",41,144326,"0.0-4.9-2.9","ug1q10jjktnxgcd",323,"90.csv","","null","resources/images/coin2.png","null","",NA,NA,NA,NA,""
"image-keyboard-response",42,144689,"0.0-4.10-0.10","ug1q10jjktnxgcd",323,"90.csv","","361.0000000000291","resources/trios/L1T4A3.jpg","38","restless",0.9,0.7,0.1,0.399705007399471,"true"
"image-keyboard-response",43,145092,"0.0-4.10-1.10","ug1q10jjktnxgcd",323,"90.csv","","null","resources/maskTrios/BT4B.jpg","null","",NA,NA,NA,NA,""
"image-keyboard-response",44,146295,"0.0-4.10-2.10","ug1q10jjktnxgcd",323,"90.csv","","null","resources/images/coin2.png","null","",NA,NA,NA,NA,""
"image-keyboard-response",45,146624,"0.0-4.11-0.11","ug1q10jjktnxgcd",323,"90.csv","","326","resources/trios/L1T4A3.jpg","39","restless",0.9,0.7,0.1,0.724792866237399,"false"
"image-keyboard-response",46,147028,"0.0-4.11-1.11","ug1q10jjktnxgcd",323,"90.csv","","null","resources/maskTrios/BBA3.jpg","null","",NA,NA,NA,NA,""
"image-keyboard-response",47,148231,"0.0-4.11-2.11","ug1q10jjktnxgcd",323,"90.csv","","null","resources/images/fishbone.png","null","",NA,NA,NA,NA,""
"image-keyboard-response",48,148507,"0.0-4.12-0.12","ug1q10jjktnxgcd",323,"90.csv","","274","resources/trios/L1T4A3.jpg","37","restless",0.9,0.7,0.1,0.722434649882937,"true"
"image-keyboard-response",49,148909,"0.0-4.12-1.12","ug1q10jjktnxgcd",323,"90.csv","","null","resources/maskTrios/L1BB.jpg","null","",NA,NA,NA,NA,""
"image-keyboard-response",50,150116,"0.0-4.12-2.12","ug1q10jjktnxgcd",323,"90.csv","","null","resources/images/coin2.png","null","",NA,NA,NA,NA,""
"image-keyboard-response",51,150458,"0.0-4.13-0.13","ug1q10jjktnxgcd",323,"90.csv","","339","resources/trios/L1T4A3.jpg","38","restless",0.9,0.7,0.2,0.552994769381333,"true"
"image-keyboard-response",52,150860,"0.0-4.13-1.13","ug1q10jjktnxgcd",323,"90.csv","","null","resources/maskTrios/BT4B.jpg","null","",NA,NA,NA,NA,""
"image-keyboard-response",53,152064,"0.0-4.13-2.13","ug1q10jjktnxgcd",323,"90.csv","","null","resources/images/coin2.png","null","",NA,NA,NA,NA,""
"image-keyboard-response",54,152484,"0.0-4.14-0.14","ug1q10jjktnxgcd",323,"90.csv","","418","resources/trios/L1T4A3.jpg","39","restless",0.9,0.7,0.2,0.14706458235711,"true"
"image-keyboard-response",55,152886,"0.0-4.14-1.14","ug1q10jjktnxgcd",323,"90.csv","","null","resources/maskTrios/BBA3.jpg","null","",NA,NA,NA,NA,""
"image-keyboard-response",56,154090,"0.0-4.14-2.14","ug1q10jjktnxgcd",323,"90.csv","","null","resources/images/coin2.png","null","",NA,NA,NA,NA,""
"image-keyboard-response",57,154400,"0.0-4.15-0.15","ug1q10jjktnxgcd",323,"90.csv","","307","resources/trios/L1T4A3.jpg","37","restless",0.9,0.7,0.2,0.0019801556438116,"true"
"image-keyboard-response",58,154803,"0.0-4.15-1.15","ug1q10jjktnxgcd",323,"90.csv","","null","resources/maskTrios/L1BB.jpg","null","",NA,NA,NA,NA,""
"image-keyboard-response",59,156007,"0.0-4.15-2.15","ug1q10jjktnxgcd",323,"90.csv","","null","resources/images/coin2.png","null","",NA,NA,NA,NA,""
"image-keyboard-response",60,156319,"0.0-4.16-0.16","ug1q10jjktnxgcd",323,"90.csv","","310","resources/trios/L1T4A3.jpg","38","restless",0.9,0.8,0.2,0.825473682701409,"false"
"image-keyboard-response",61,156721,"0.0-4.16-1.16","ug1q10jjktnxgcd",323,"90.csv","","null","resources/maskTrios/BT4B.jpg","null","",NA,NA,NA,NA,""
"image-keyboard-response",62,157923,"0.0-4.16-2.16","ug1q10jjktnxgcd",323,"90.csv","","null","resources/images/fishbone.png","null","",NA,NA,NA,NA,""
"image-keyboard-response",63,158253,"0.0-4.17-0.17","ug1q10jjktnxgcd",323,"90.csv","","325","resources/trios/L1T4A3.jpg","37","restless",0.9,0.7,0.2,0.396409067130024,"true"
"image-keyboard-response",64,158656,"0.0-4.17-1.17","ug1q10jjktnxgcd",323,"90.csv","","null","resources/maskTrios/L1BB.jpg","null","",NA,NA,NA,NA,""
"image-keyboard-response",65,159860,"0.0-4.17-2.17","ug1q10jjktnxgcd",323,"90.csv","","null","resources/images/coin2.png","null","",NA,NA,NA,NA,""
"image-keyboard-response",66,160173,"0.0-4.18-0.18","ug1q10jjktnxgcd",323,"90.csv","","310","resources/trios/L1T4A3.jpg","39","restless",0.9,0.7,0.2,0.501150739585677,"false"
"image-keyboard-response",67,160576,"0.0-4.18-1.18","ug1q10jjktnxgcd",323,"90.csv","","null","resources/maskTrios/BBA3.jpg","null","",NA,NA,NA,NA,""
"image-keyboard-response",68,161779,"0.0-4.18-2.18","ug1q10jjktnxgcd",323,"90.csv","","null","resources/images/fishbone.png","null","",NA,NA,NA,NA,""
"image-keyboard-response",69,162064,"0.0-4.19-0.19","ug1q10jjktnxgcd",323,"90.csv","","282","resources/trios/L1T4A3.jpg","37","restless",0.8,0.7,0.2,0.660739357813057,"true"
"image-keyboard-response",70,162467,"0.0-4.19-1.19","ug1q10jjktnxgcd",323,"90.csv","","null","resources/maskTrios/L1BB.jpg","null","",NA,NA,NA,NA,""
"image-keyboard-response",71,163671,"0.0-4.19-2.19","ug1q10jjktnxgcd",323,"90.csv","","null","resources/images/coin2.png","null","",NA,NA,NA,NA,""
"image-keyboard-response",72,163947,"0.0-4.20-0.20","ug1q10jjktnxgcd",323,"90.csv","","274","resources/trios/L1T4A3.jpg","37","restless",0.8,0.7,0.2,0.293846595632934,"true"
"image-keyboard-response",73,164349,"0.0-4.20-1.20","ug1q10jjktnxgcd",323,"90.csv","","null","resources/maskTrios/L1BB.jpg","null","",NA,NA,NA,NA,""
"image-keyboard-response",74,165552,"0.0-4.20-2.20","ug1q10jjktnxgcd",323,"90.csv","","null","resources/images/coin2.png","null","",NA,NA,NA,NA,""
"image-keyboard-response",75,165839,"0.0-4.21-0.21","ug1q10jjktnxgcd",323,"90.csv","","285","resources/trios/L1T4A3.jpg","37","restless",0.8,0.7,0.2,0.982737028391083,"false"
"image-keyboard-response",76,166241,"0.0-4.21-1.21","ug1q10jjktnxgcd",323,"90.csv","","null","resources/maskTrios/L1BB.jpg","null","",NA,NA,NA,NA,""
"image-keyboard-response",77,167443,"0.0-4.21-2.21","ug1q10jjktnxgcd",323,"90.csv","","null","resources/images/fishbone.png","null","",NA,NA,NA,NA,""
"image-keyboard-response",78,167691,"0.0-4.22-0.22","ug1q10jjktnxgcd",323,"90.csv","","244.9999999999709","resources/trios/L1T4A3.jpg","38","restless",0.7,0.6,0.2,0.0678976383720167,"true"
"image-keyboard-response",79,168092,"0.0-4.22-1.22","ug1q10jjktnxgcd",323,"90.csv","","null","resources/maskTrios/BT4B.jpg","null","",NA,NA,NA,NA,""
"image-keyboard-response",80,169295,"0.0-4.22-2.22","ug1q10jjktnxgcd",323,"90.csv","","null","resources/images/coin2.png","null","",NA,NA,NA,NA,""
"image-keyboard-response",81,169708,"0.0-4.23-0.23","ug1q10jjktnxgcd",323,"90.csv","","411","resources/trios/L1T4A3.jpg","37","restless",0.7,0.6,0.2,0.581193169442027,"true"
"image-keyboard-response",82,170110,"0.0-4.23-1.23","ug1q10jjktnxgcd",323,"90.csv","","null","resources/maskTrios/L1BB.jpg","null","",NA,NA,NA,NA,""
"image-keyboard-response",83,171313,"0.0-4.23-2.23","ug1q10jjktnxgcd",323,"90.csv","","null","resources/images/coin2.png","null","",NA,NA,NA,NA,""
"image-keyboard-response",84,171636,"0.0-4.24-0.24","ug1q10jjktnxgcd",323,"90.csv","","321","resources/trios/L1T4A3.jpg","37","restless",0.7,0.6,0.2,0.501185116718382,"true"
"image-keyboard-response",85,172039,"0.0-4.24-1.24","ug1q10jjktnxgcd",323,"90.csv","","null","resources/maskTrios/L1BB.jpg","null","",NA,NA,NA,NA,""
"image-keyboard-response",86,173243,"0.0-4.24-2.24","ug1q10jjktnxgcd",323,"90.csv","","null","resources/images/coin2.png","null","",NA,NA,NA,NA,""
"image-keyboard-response",87,173867,"0.0-4.25-0.25","ug1q10jjktnxgcd",323,"90.csv","","622","resources/trios/L1T4A3.jpg","37","restless",0.7,0.6,0.2,0.201417220773086,"true"
"image-keyboard-response",88,174269,"0.0-4.25-1.25","ug1q10jjktnxgcd",323,"90.csv","","null","resources/maskTrios/L1BB.jpg","null","",NA,NA,NA,NA,""
"image-keyboard-response",89,175472,"0.0-4.25-2.25","ug1q10jjktnxgcd",323,"90.csv","","null","resources/images/coin2.png","null","",NA,NA,NA,NA,""
"image-keyboard-response",90,175762,"0.0-4.26-0.26","ug1q10jjktnxgcd",323,"90.csv","","288","resources/trios/L1T4A3.jpg","37","restless",0.7,0.6,0.2,0.873104323844978,"false"
"image-keyboard-response",91,176166,"0.0-4.26-1.26","ug1q10jjktnxgcd",323,"90.csv","","null","resources/maskTrios/L1BB.jpg","null","",NA,NA,NA,NA,""
"image-keyboard-response",92,177369,"0.0-4.26-2.26","ug1q10jjktnxgcd",323,"90.csv","","null","resources/images/fishbone.png","null","",NA,NA,NA,NA,""
"image-keyboard-response",93,177475,"0.0-4.27-0.27","ug1q10jjktnxgcd",323,"90.csv","","104","resources/trios/L1T4A3.jpg","39","restless",0.7,0.7,0.2,0.663486795138809,"false"
"image-keyboard-response",94,177878,"0.0-4.27-1.27","ug1q10jjktnxgcd",323,"90.csv","","null","resources/maskTrios/BBA3.jpg","null","",NA,NA,NA,NA,""
"image-keyboard-response",95,179081,"0.0-4.27-2.27","ug1q10jjktnxgcd",323,"90.csv","","null","resources/images/fishbone.png","null","",NA,NA,NA,NA,""
"image-keyboard-response",96,179336,"0.0-4.28-0.28","ug1q10jjktnxgcd",323,"90.csv","","253","resources/trios/L1T4A3.jpg","38","restless",0.7,0.7,0.2,0.226181302595355,"true"
"image-keyboard-response",97,179738,"0.0-4.28-1.28","ug1q10jjktnxgcd",323,"90.csv","","null","resources/maskTrios/BT4B.jpg","null","",NA,NA,NA,NA,""
"image-keyboard-response",98,180941,"0.0-4.28-2.28","ug1q10jjktnxgcd",323,"90.csv","","null","resources/images/coin2.png","null","",NA,NA,NA,NA,""
"image-keyboard-response",99,181589,"0.0-4.29-0.29","ug1q10jjktnxgcd",323,"90.csv","","646","resources/trios/L1T4A3.jpg","38","restless",0.7,0.7,0.2,0.246495832860662,"true"
"image-keyboard-response",100,181991,"0.0-4.29-1.29","ug1q10jjktnxgcd",323,"90.csv","","null","resources/maskTrios/BT4B.jpg","null","",NA,NA,NA,NA,""
"image-keyboard-response",101,183194,"0.0-4.29-2.29","ug1q10jjktnxgcd",323,"90.csv","","null","resources/images/coin2.png","null","",NA,NA,NA,NA,""
"image-keyboard-response",102,183783,"0.0-4.30-0.30","ug1q10jjktnxgcd",323,"90.csv","","587","resources/trios/L1T4A3.jpg","39","restless",0.7,0.7,0.2,0.99970320924308,"false"
"image-keyboard-response",103,184187,"0.0-4.30-1.30","ug1q10jjktnxgcd",323,"90.csv","","null","resources/maskTrios/BBA3.jpg","null","",NA,NA,NA,NA,""
"image-keyboard-response",104,185390,"0.0-4.30-2.30","ug1q10jjktnxgcd",323,"90.csv","","null","resources/images/fishbone.png","null","",NA,NA,NA,NA,""
"image-keyboard-response",105,185738,"0.0-4.31-0.31","ug1q10jjktnxgcd",323,"90.csv","","347","resources/trios/L1T4A3.jpg","38","restless",0.7,0.7,0.2,0.358678500126596,"true"
"image-keyboard-response",106,186140,"0.0-4.31-1.31","ug1q10jjktnxgcd",323,"90.csv","","null","resources/maskTrios/BT4B.jpg","null","",NA,NA,NA,NA,""
"image-keyboard-response",107,187344,"0.0-4.31-2.31","ug1q10jjktnxgcd",323,"90.csv","","null","resources/images/coin2.png","null","",NA,NA,NA,NA,""
"image-keyboard-response",108,187710,"0.0-4.32-0.32","ug1q10jjktnxgcd",323,"90.csv","","364","resources/trios/L1T4A3.jpg","37","restless",0.7,0.7,0.2,0.254993365073688,"true"
"image-keyboard-response",109,188113,"0.0-4.32-1.32","ug1q10jjktnxgcd",323,"90.csv","","null","resources/maskTrios/L1BB.jpg","null","",NA,NA,NA,NA,""
"image-keyboard-response",110,189316,"0.0-4.32-2.32","ug1q10jjktnxgcd",323,"90.csv","","null","resources/images/coin2.png","null","",NA,NA,NA,NA,""
"image-keyboard-response",111,189551,"0.0-4.33-0.33","ug1q10jjktnxgcd",323,"90.csv","","233","resources/trios/L1T4A3.jpg","39","restless",0.7,0.7,0.3,0.0747507231905462,"true"
"image-keyboard-response",112,189953,"0.0-4.33-1.33","ug1q10jjktnxgcd",323,"90.csv","","null","resources/maskTrios/BBA3.jpg","null","",NA,NA,NA,NA,""
"image-keyboard-response",113,191156,"0.0-4.33-2.33","ug1q10jjktnxgcd",323,"90.csv","","null","resources/images/coin2.png","null","",NA,NA,NA,NA,""
"image-keyboard-response",114,191524,"0.0-4.34-0.34","ug1q10jjktnxgcd",323,"90.csv","","366","resources/trios/L1T4A3.jpg","38","restless",0.6,0.7,0.3,0.644797413754245,"true"
"image-keyboard-response",115,191926,"0.0-4.34-1.34","ug1q10jjktnxgcd",323,"90.csv","","null","resources/maskTrios/BT4B.jpg","null","",NA,NA,NA,NA,""
"image-keyboard-response",116,193129,"0.0-4.34-2.34","ug1q10jjktnxgcd",323,"90.csv","","null","resources/images/coin2.png","null","",NA,NA,NA,NA,""
"image-keyboard-response",117,193426,"0.0-4.35-0.35","ug1q10jjktnxgcd",323,"90.csv","","295","resources/trios/L1T4A3.jpg","37","restless",0.7,0.7,0.3,0.0848542918789116,"true"
"image-keyboard-response",118,193830,"0.0-4.35-1.35","ug1q10jjktnxgcd",323,"90.csv","","null","resources/maskTrios/L1BB.jpg","null","",NA,NA,NA,NA,""
"image-keyboard-response",119,195033,"0.0-4.35-2.35","ug1q10jjktnxgcd",323,"90.csv","","null","resources/images/coin2.png","null","",NA,NA,NA,NA,""
"image-keyboard-response",120,195360,"0.0-4.36-0.36","ug1q10jjktnxgcd",323,"90.csv","","325","resources/trios/L1T4A3.jpg","39","restless",0.8,0.6,0.3,0.809952679361586,"false"
"image-keyboard-response",121,195763,"0.0-4.36-1.36","ug1q10jjktnxgcd",323,"90.csv","","null","resources/maskTrios/BBA3.jpg","null","",NA,NA,NA,NA,""
"image-keyboard-response",122,196966,"0.0-4.36-2.36","ug1q10jjktnxgcd",323,"90.csv","","null","resources/images/fishbone.png","null","",NA,NA,NA,NA,""
"image-keyboard-response",123,197272,"0.0-4.37-0.37","ug1q10jjktnxgcd",323,"90.csv","","302.0000000000291","resources/trios/L1T4A3.jpg","38","restless",0.8,0.6,0.3,0.30120143350921,"true"
"image-keyboard-response",124,197676,"0.0-4.37-1.37","ug1q10jjktnxgcd",323,"90.csv","","null","resources/maskTrios/BT4B.jpg","null","",NA,NA,NA,NA,""
"image-keyboard-response",125,198881,"0.0-4.37-2.37","ug1q10jjktnxgcd",323,"90.csv","","null","resources/images/coin2.png","null","",NA,NA,NA,NA,""
"image-keyboard-response",126,199146,"0.0-4.38-0.38","ug1q10jjktnxgcd",323,"90.csv","","261","resources/trios/L1T4A3.jpg","37","restless",0.8,0.6,0.3,0.498968229256711,"true"
"image-keyboard-response",127,199550,"0.0-4.38-1.38","ug1q10jjktnxgcd",323,"90.csv","","null","resources/maskTrios/L1BB.jpg","null","",NA,NA,NA,NA,""
"image-keyboard-response",128,200754,"0.0-4.38-2.38","ug1q10jjktnxgcd",323,"90.csv","","null","resources/images/coin2.png","null","",NA,NA,NA,NA,""
"image-keyboard-response",129,201170,"0.0-4.39-0.39","ug1q10jjktnxgcd",323,"90.csv","","414","resources/trios/L1T4A3.jpg","38","restless",0.8,0.6,0.3,0.537646772845831,"true"
"image-keyboard-response",130,201574,"0.0-4.39-1.39","ug1q10jjktnxgcd",323,"90.csv","","null","resources/maskTrios/BT4B.jpg","null","",NA,NA,NA,NA,""
"image-keyboard-response",131,202777,"0.0-4.39-2.39","ug1q10jjktnxgcd",323,"90.csv","","null","resources/images/coin2.png","null","",NA,NA,NA,NA,""
"image-keyboard-response",132,203265,"0.0-4.40-0.40","ug1q10jjktnxgcd",323,"90.csv","","485","resources/trios/L1T4A3.jpg","38","restless",0.8,0.6,0.3,0.3381022351937,"true"
"image-keyboard-response",133,203669,"0.0-4.40-1.40","ug1q10jjktnxgcd",323,"90.csv","","null","resources/maskTrios/BT4B.jpg","null","",NA,NA,NA,NA,""
"image-keyboard-response",134,204872,"0.0-4.40-2.40","ug1q10jjktnxgcd",323,"90.csv","","null","resources/images/coin2.png","null","",NA,NA,NA,NA,""
"image-keyboard-response",135,205480,"0.0-4.41-0.41","ug1q10jjktnxgcd",323,"90.csv","","605","resources/trios/L1T4A3.jpg","38","restless",0.8,0.6,0.3,0.484741204785953,"true"
"image-keyboard-response",136,205882,"0.0-4.41-1.41","ug1q10jjktnxgcd",323,"90.csv","","null","resources/maskTrios/BT4B.jpg","null","",NA,NA,NA,NA,""
"image-keyboard-response",137,207084,"0.0-4.41-2.41","ug1q10jjktnxgcd",323,"90.csv","","null","resources/images/coin2.png","null","",NA,NA,NA,NA,""
"image-keyboard-response",138,208081,"0.0-4.42-0.42","ug1q10jjktnxgcd",323,"90.csv","","994","resources/trios/L1T4A3.jpg","38","restless",0.7,0.6,0.3,0.197677429513878,"true"
"image-keyboard-response",139,208483,"0.0-4.42-1.42","ug1q10jjktnxgcd",323,"90.csv","","null","resources/maskTrios/BT4B.jpg","null","",NA,NA,NA,NA,""
"image-keyboard-response",140,209686,"0.0-4.42-2.42","ug1q10jjktnxgcd",323,"90.csv","","null","resources/images/coin2.png","null","",NA,NA,NA,NA,""
"image-keyboard-response",141,209964,"0.0-4.43-0.43","ug1q10jjktnxgcd",323,"90.csv","","274.9999999999709","resources/trios/L1T4A3.jpg","37","restless",0.7,0.6,0.3,0.0160903785164993,"true"
"image-keyboard-response",142,210368,"0.0-4.43-1.43","ug1q10jjktnxgcd",323,"90.csv","","null","resources/maskTrios/L1BB.jpg","null","",NA,NA,NA,NA,""
"image-keyboard-response",143,211571,"0.0-4.43-2.43","ug1q10jjktnxgcd",323,"90.csv","","null","resources/images/coin2.png","null","",NA,NA,NA,NA,""
"image-keyboard-response",144,211800,"0.0-4.44-0.44","ug1q10jjktnxgcd",323,"90.csv","","224","resources/trios/L1T4A3.jpg","39","restless",0.7,0.6,0.3,0.368002670768301,"false"
"image-keyboard-response",145,212202,"0.0-4.44-1.44","ug1q10jjktnxgcd",323,"90.csv","","null","resources/maskTrios/BBA3.jpg","null","",NA,NA,NA,NA,""
"image-keyboard-response",146,213404,"0.0-4.44-2.44","ug1q10jjktnxgcd",323,"90.csv","","null","resources/images/fishbone.png","null","",NA,NA,NA,NA,""
"image-keyboard-response",147,213658,"0.0-4.45-0.45","ug1q10jjktnxgcd",323,"90.csv","","251","resources/trios/L1T4A3.jpg","38","restless",0.8,0.6,0.3,0.156637456771532,"true"
"image-keyboard-response",148,214060,"0.0-4.45-1.45","ug1q10jjktnxgcd",323,"90.csv","","null","resources/maskTrios/BT4B.jpg","null","",NA,NA,NA,NA,""
"image-keyboard-response",149,215263,"0.0-4.45-2.45","ug1q10jjktnxgcd",323,"90.csv","","null","resources/images/coin2.png","null","",NA,NA,NA,NA,""
"image-keyboard-response",150,215475,"0.0-4.46-0.46","ug1q10jjktnxgcd",323,"90.csv","","209","resources/trios/L1T4A3.jpg","38","restless",0.8,0.6,0.3,0.363943429253715,"true"
"image-keyboard-response",151,215878,"0.0-4.46-1.46","ug1q10jjktnxgcd",323,"90.csv","","null","resources/maskTrios/BT4B.jpg","null","",NA,NA,NA,NA,""
"image-keyboard-response",152,217081,"0.0-4.46-2.46","ug1q10jjktnxgcd",323,"90.csv","","null","resources/images/coin2.png","null","",NA,NA,NA,NA,""
"image-keyboard-response",153,217319,"0.0-4.47-0.47","ug1q10jjktnxgcd",323,"90.csv","","236.0000000000291","resources/trios/L1T4A3.jpg","39","restless",0.8,0.6,0.3,0.748462224645956,"false"
"image-keyboard-response",154,217721,"0.0-4.47-1.47","ug1q10jjktnxgcd",323,"90.csv","","null","resources/maskTrios/BBA3.jpg","null","",NA,NA,NA,NA,""
"image-keyboard-response",155,218923,"0.0-4.47-2.47","ug1q10jjktnxgcd",323,"90.csv","","null","resources/images/fishbone.png","null","",NA,NA,NA,NA,""
"image-keyboard-response",156,219145,"0.0-4.48-0.48","ug1q10jjktnxgcd",323,"90.csv","","219","resources/trios/L1T4A3.jpg","39","restless",0.8,0.6,0.3,0.462130161958056,"false"
"image-keyboard-response",157,219547,"0.0-4.48-1.48","ug1q10jjktnxgcd",323,"90.csv","","null","resources/maskTrios/BBA3.jpg","null","",NA,NA,NA,NA,""
"image-keyboard-response",158,220749,"0.0-4.48-2.48","ug1q10jjktnxgcd",323,"90.csv","","null","resources/images/fishbone.png","null","",NA,NA,NA,NA,""
"image-keyboard-response",159,220934,"0.0-4.49-0.49","ug1q10jjktnxgcd",323,"90.csv","","182","resources/trios/L1T4A3.jpg","38","restless",0.8,0.6,0.3,0.0757503373050464,"true"
"image-keyboard-response",160,221337,"0.0-4.49-1.49","ug1q10jjktnxgcd",323,"90.csv","","null","resources/maskTrios/BT4B.jpg","null","",NA,NA,NA,NA,""
"image-keyboard-response",161,222539,"0.0-4.49-2.49","ug1q10jjktnxgcd",323,"90.csv","","null","resources/images/coin2.png","null","",NA,NA,NA,NA,""
"image-keyboard-response",162,222845,"0.0-4.50-0.50","ug1q10jjktnxgcd",323,"90.csv","","303","resources/trios/L1T4A3.jpg","37","restless",0.8,0.6,0.3,0.6976133939415,"true"
"image-keyboard-response",163,223247,"0.0-4.50-1.50","ug1q10jjktnxgcd",323,"90.csv","","null","resources/maskTrios/L1BB.jpg","null","",NA,NA,NA,NA,""
"image-keyboard-response",164,224450,"0.0-4.50-2.50","ug1q10jjktnxgcd",323,"90.csv","","null","resources/images/coin2.png","null","",NA,NA,NA,NA,""
"image-keyboard-response",165,224846,"0.0-4.51-0.51","ug1q10jjktnxgcd",323,"90.csv","","394","resources/trios/L1T4A3.jpg","38","restless",0.7,0.6,0.3,0.610871302805563,"false"
"image-keyboard-response",166,225248,"0.0-4.51-1.51","ug1q10jjktnxgcd",323,"90.csv","","null","resources/maskTrios/BT4B.jpg","null","",NA,NA,NA,NA,""
"image-keyboard-response",167,226451,"0.0-4.51-2.51","ug1q10jjktnxgcd",323,"90.csv","","null","resources/images/fishbone.png","null","",NA,NA,NA,NA,""
"image-keyboard-response",168,226630,"0.0-4.52-0.52","ug1q10jjktnxgcd",323,"90.csv","","174","resources/trios/L1T4A3.jpg","39","restless",0.7,0.6,0.3,0.0651476134280097,"true"
"image-keyboard-response",169,227033,"0.0-4.52-1.52","ug1q10jjktnxgcd",323,"90.csv","","null","resources/maskTrios/BBA3.jpg","null","",NA,NA,NA,NA,""
"image-keyboard-response",170,228236,"0.0-4.52-2.52","ug1q10jjktnxgcd",323,"90.csv","","null","resources/images/coin2.png","null","",NA,NA,NA,NA,""
"image-keyboard-response",171,228680,"0.0-4.53-0.53","ug1q10jjktnxgcd",323,"90.csv","","441","resources/trios/L1T4A3.jpg","37","restless",0.7,0.6,0.3,0.734327917628094,"false"
"image-keyboard-response",172,229083,"0.0-4.53-1.53","ug1q10jjktnxgcd",323,"90.csv","","null","resources/maskTrios/L1BB.jpg","null","",NA,NA,NA,NA,""
"image-keyboard-response",173,230286,"0.0-4.53-2.53","ug1q10jjktnxgcd",323,"90.csv","","null","resources/images/fishbone.png","null","",NA,NA,NA,NA,""
"image-keyboard-response",174,230559,"0.0-4.54-0.54","ug1q10jjktnxgcd",323,"90.csv","","270","resources/trios/L1T4A3.jpg","39","restless",0.7,0.6,0.3,0.700269276785352,"false"
"image-keyboard-response",175,230963,"0.0-4.54-1.54","ug1q10jjktnxgcd",323,"90.csv","","null","resources/maskTrios/BBA3.jpg","null","",NA,NA,NA,NA,""
"image-keyboard-response",176,232166,"0.0-4.54-2.54","ug1q10jjktnxgcd",323,"90.csv","","null","resources/images/fishbone.png","null","",NA,NA,NA,NA,""
"image-keyboard-response",177,232350,"0.0-4.55-0.55","ug1q10jjktnxgcd",323,"90.csv","","183","resources/trios/L1T4A3.jpg","38","restless",0.7,0.6,0.3,0.78388394839957,"false"
"image-keyboard-response",178,232753,"0.0-4.55-1.55","ug1q10jjktnxgcd",323,"90.csv","","null","resources/maskTrios/BT4B.jpg","null","",NA,NA,NA,NA,""
"image-keyboard-response",179,233957,"0.0-4.55-2.55","ug1q10jjktnxgcd",323,"90.csv","","null","resources/images/fishbone.png","null","",NA,NA,NA,NA,""
"image-keyboard-response",180,234014,"0.0-4.56-0.56","ug1q10jjktnxgcd",323,"90.csv","","56","resources/trios/L1T4A3.jpg","38","restless",0.7,0.6,0.3,0.781117539934314,"false"
"image-keyboard-response",181,234417,"0.0-4.56-1.56","ug1q10jjktnxgcd",323,"90.csv","","null","resources/maskTrios/BT4B.jpg","null","",NA,NA,NA,NA,""
"image-keyboard-response",182,235619,"0.0-4.56-2.56","ug1q10jjktnxgcd",323,"90.csv","","null","resources/images/fishbone.png","null","",NA,NA,NA,NA,""
"image-keyboard-response",183,235770,"0.0-4.57-0.57","ug1q10jjktnxgcd",323,"90.csv","","148","resources/trios/L1T4A3.jpg","38","restless",0.7,0.6,0.3,0.395579508898717,"true"
"image-keyboard-response",184,236173,"0.0-4.57-1.57","ug1q10jjktnxgcd",323,"90.csv","","null","resources/maskTrios/BT4B.jpg","null","",NA,NA,NA,NA,""
"image-keyboard-response",185,237377,"0.0-4.57-2.57","ug1q10jjktnxgcd",323,"90.csv","","null","resources/images/coin2.png","null","",NA,NA,NA,NA,""
"image-keyboard-response",186,237609,"0.0-4.58-0.58","ug1q10jjktnxgcd",323,"90.csv","","229.9999999999709","resources/trios/L1T4A3.jpg","39","restless",0.7,0.6,0.3,0.910989282445145,"false"
"image-keyboard-response",187,238012,"0.0-4.58-1.58","ug1q10jjktnxgcd",323,"90.csv","","null","resources/maskTrios/BBA3.jpg","null","",NA,NA,NA,NA,""
"image-keyboard-response",188,239214,"0.0-4.58-2.58","ug1q10jjktnxgcd",323,"90.csv","","null","resources/images/fishbone.png","null","",NA,NA,NA,NA,""
"image-keyboard-response",189,239520,"0.0-4.59-0.59","ug1q10jjktnxgcd",323,"90.csv","","303","resources/trios/L1T4A3.jpg","39","restless",0.6,0.6,0.4,0.421753159175573,"false"
"image-keyboard-response",190,239922,"0.0-4.59-1.59","ug1q10jjktnxgcd",323,"90.csv","","null","resources/maskTrios/BBA3.jpg","null","",NA,NA,NA,NA,""
"image-keyboard-response",191,241125,"0.0-4.59-2.59","ug1q10jjktnxgcd",323,"90.csv","","null","resources/images/fishbone.png","null","",NA,NA,NA,NA,""
"image-keyboard-response",192,241409,"0.0-4.60-0.60","ug1q10jjktnxgcd",323,"90.csv","","282.0000000000291","resources/trios/L1T4A3.jpg","37","restless",0.6,0.6,0.4,0.224108614165017,"true"
"image-keyboard-response",193,241811,"0.0-4.60-1.60","ug1q10jjktnxgcd",323,"90.csv","","null","resources/maskTrios/L1BB.jpg","null","",NA,NA,NA,NA,""
"image-keyboard-response",194,243018,"0.0-4.60-2.60","ug1q10jjktnxgcd",323,"90.csv","","null","resources/images/coin2.png","null","",NA,NA,NA,NA,""
"image-keyboard-response",195,243362,"0.0-4.61-0.61","ug1q10jjktnxgcd",323,"90.csv","","341.0000000000291","resources/trios/L1T4A3.jpg","38","restless",0.6,0.6,0.4,0.65025552115524,"false"
"image-keyboard-response",196,243764,"0.0-4.61-1.61","ug1q10jjktnxgcd",323,"90.csv","","null","resources/maskTrios/BT4B.jpg","null","",NA,NA,NA,NA,""
"image-keyboard-response",197,244966,"0.0-4.61-2.61","ug1q10jjktnxgcd",323,"90.csv","","null","resources/images/fishbone.png","null","",NA,NA,NA,NA,""
"image-keyboard-response",198,245032,"0.0-4.62-0.62","ug1q10jjktnxgcd",323,"90.csv","","63.999999999970896","resources/trios/L1T4A3.jpg","37","restless",0.5,0.6,0.4,0.796633224163241,"false"
"image-keyboard-response",199,245434,"0.0-4.62-1.62","ug1q10jjktnxgcd",323,"90.csv","","null","resources/maskTrios/L1BB.jpg","null","",NA,NA,NA,NA,""
"image-keyboard-response",200,246637,"0.0-4.62-2.62","ug1q10jjktnxgcd",323,"90.csv","","null","resources/images/fishbone.png","null","",NA,NA,NA,NA,""
"image-keyboard-response",201,246711,"0.0-4.63-0.63","ug1q10jjktnxgcd",323,"90.csv","","72","resources/trios/L1T4A3.jpg","37","restless",0.5,0.6,0.4,0.341499238344797,"true"
"image-keyboard-response",202,247114,"0.0-4.63-1.63","ug1q10jjktnxgcd",323,"90.csv","","null","resources/maskTrios/L1BB.jpg","null","",NA,NA,NA,NA,""
"image-keyboard-response",203,248317,"0.0-4.63-2.63","ug1q10jjktnxgcd",323,"90.csv","","null","resources/images/coin2.png","null","",NA,NA,NA,NA,""
"image-keyboard-response",204,248807,"0.0-4.64-0.64","ug1q10jjktnxgcd",323,"90.csv","","488","resources/trios/L1T4A3.jpg","37","restless",0.5,0.6,0.4,0.0408565785503219,"true"
"image-keyboard-response",205,249210,"0.0-4.64-1.64","ug1q10jjktnxgcd",323,"90.csv","","null","resources/maskTrios/L1BB.jpg","null","",NA,NA,NA,NA,""
"image-keyboard-response",206,250413,"0.0-4.64-2.64","ug1q10jjktnxgcd",323,"90.csv","","null","resources/images/coin2.png","null","",NA,NA,NA,NA,""
"image-keyboard-response",207,250798,"0.0-4.65-0.65","ug1q10jjktnxgcd",323,"90.csv","","383","resources/trios/L1T4A3.jpg","37","restless",0.5,0.6,0.4,0.0547181278403356,"true"
"image-keyboard-response",208,251202,"0.0-4.65-1.65","ug1q10jjktnxgcd",323,"90.csv","","null","resources/maskTrios/L1BB.jpg","null","",NA,NA,NA,NA,""
"image-keyboard-response",209,252405,"0.0-4.65-2.65","ug1q10jjktnxgcd",323,"90.csv","","null","resources/images/coin2.png","null","",NA,NA,NA,NA,""
"image-keyboard-response",210,252714,"0.0-4.66-0.66","ug1q10jjktnxgcd",323,"90.csv","","307","resources/trios/L1T4A3.jpg","37","restless",0.5,0.6,0.4,0.354468625599774,"true"
"image-keyboard-response",211,253117,"0.0-4.66-1.66","ug1q10jjktnxgcd",323,"90.csv","","null","resources/maskTrios/L1BB.jpg","null","",NA,NA,NA,NA,""
"image-keyboard-response",212,254321,"0.0-4.66-2.66","ug1q10jjktnxgcd",323,"90.csv","","null","resources/images/coin2.png","null","",NA,NA,NA,NA,""
"image-keyboard-response",213,254611,"0.0-4.67-0.67","ug1q10jjktnxgcd",323,"90.csv","","287.0000000000291","resources/trios/L1T4A3.jpg","37","restless",0.5,0.6,0.4,0.00650025359853301,"true"
"image-keyboard-response",214,255014,"0.0-4.67-1.67","ug1q10jjktnxgcd",323,"90.csv","","null","resources/maskTrios/L1BB.jpg","null","",NA,NA,NA,NA,""
"image-keyboard-response",215,256217,"0.0-4.67-2.67","ug1q10jjktnxgcd",323,"90.csv","","null","resources/images/coin2.png","null","",NA,NA,NA,NA,""
"image-keyboard-response",216,256625,"0.0-4.68-0.68","ug1q10jjktnxgcd",323,"90.csv","","403.0000000000291","resources/trios/L1T4A3.jpg","37","restless",0.5,0.6,0.4,0.651934168250954,"false"
"image-keyboard-response",217,257027,"0.0-4.68-1.68","ug1q10jjktnxgcd",323,"90.csv","","null","resources/maskTrios/L1BB.jpg","null","",NA,NA,NA,NA,""
"image-keyboard-response",218,258230,"0.0-4.68-2.68","ug1q10jjktnxgcd",323,"90.csv","","null","resources/images/fishbone.png","null","",NA,NA,NA,NA,""
"image-keyboard-response",219,258625,"0.0-4.69-0.69","ug1q10jjktnxgcd",323,"90.csv","","392.9999999999709","resources/trios/L1T4A3.jpg","38","restless",0.5,0.5,0.5,0.959146623374516,"false"
"image-keyboard-response",220,259027,"0.0-4.69-1.69","ug1q10jjktnxgcd",323,"90.csv","","null","resources/maskTrios/BT4B.jpg","null","",NA,NA,NA,NA,""
"image-keyboard-response",221,260229,"0.0-4.69-2.69","ug1q10jjktnxgcd",323,"90.csv","","null","resources/images/fishbone.png","null","",NA,NA,NA,NA,""
"image-keyboard-response",222,260452,"0.0-4.70-0.70","ug1q10jjktnxgcd",323,"90.csv","","220","resources/trios/L1T4A3.jpg","37","restless",0.4,0.5,0.5,0.796119399646606,"false"
"image-keyboard-response",223,260854,"0.0-4.70-1.70","ug1q10jjktnxgcd",323,"90.csv","","null","resources/maskTrios/L1BB.jpg","null","",NA,NA,NA,NA,""
"image-keyboard-response",224,262057,"0.0-4.70-2.70","ug1q10jjktnxgcd",323,"90.csv","","null","resources/images/fishbone.png","null","",NA,NA,NA,NA,""
"image-keyboard-response",225,262602,"0.0-4.71-0.71","ug1q10jjktnxgcd",323,"90.csv","","541.0000000000582","resources/trios/L1T4A3.jpg","39","restless",0.4,0.5,0.5,0.306400687941694,"true"
"image-keyboard-response",226,263004,"0.0-4.71-1.71","ug1q10jjktnxgcd",323,"90.csv","","null","resources/maskTrios/BBA3.jpg","null","",NA,NA,NA,NA,""
"image-keyboard-response",227,264207,"0.0-4.71-2.71","ug1q10jjktnxgcd",323,"90.csv","","null","resources/images/coin2.png","null","",NA,NA,NA,NA,""
"image-keyboard-response",228,264704,"0.0-4.72-0.72","ug1q10jjktnxgcd",323,"90.csv","","495","resources/trios/L1T4A3.jpg","37","restless",0.3,0.5,0.5,0.158724471077583,"true"
"image-keyboard-response",229,265107,"0.0-4.72-1.72","ug1q10jjktnxgcd",323,"90.csv","","null","resources/maskTrios/L1BB.jpg","null","",NA,NA,NA,NA,""
"image-keyboard-response",230,266311,"0.0-4.72-2.72","ug1q10jjktnxgcd",323,"90.csv","","null","resources/images/coin2.png","null","",NA,NA,NA,NA,""
"image-keyboard-response",231,267046,"0.0-4.73-0.73","ug1q10jjktnxgcd",323,"90.csv","","733","resources/trios/L1T4A3.jpg","37","restless",0.2,0.5,0.5,0.647578854841359,"false"
"image-keyboard-response",232,267448,"0.0-4.73-1.73","ug1q10jjktnxgcd",323,"90.csv","","null","resources/maskTrios/L1BB.jpg","null","",NA,NA,NA,NA,""
"image-keyboard-response",233,268650,"0.0-4.73-2.73","ug1q10jjktnxgcd",323,"90.csv","","null","resources/images/fishbone.png","null","",NA,NA,NA,NA,""
"image-keyboard-response",234,268947,"0.0-4.74-0.74","ug1q10jjktnxgcd",323,"90.csv","","295","resources/trios/L1T4A3.jpg","38","restless",0.2,0.6,0.5,0.272223547476638,"true"
"image-keyboard-response",235,269349,"0.0-4.74-1.74","ug1q10jjktnxgcd",323,"90.csv","","null","resources/maskTrios/BT4B.jpg","null","",NA,NA,NA,NA,""
"image-keyboard-response",236,270552,"0.0-4.74-2.74","ug1q10jjktnxgcd",323,"90.csv","","null","resources/images/coin2.png","null","",NA,NA,NA,NA,""
"image-keyboard-response",237,270897,"0.0-4.75-0.75","ug1q10jjktnxgcd",323,"90.csv","","342.9999999999418","resources/trios/L1T4A3.jpg","38","restless",0.2,0.6,0.5,0.60926505269788,"false"
"image-keyboard-response",238,271299,"0.0-4.75-1.75","ug1q10jjktnxgcd",323,"90.csv","","null","resources/maskTrios/BT4B.jpg","null","",NA,NA,NA,NA,""
"image-keyboard-response",239,272502,"0.0-4.75-2.75","ug1q10jjktnxgcd",323,"90.csv","","null","resources/images/fishbone.png","null","",NA,NA,NA,NA,""
"image-keyboard-response",240,272622,"0.0-4.76-0.76","ug1q10jjktnxgcd",323,"90.csv","","119","resources/trios/L1T4A3.jpg","39","restless",0.2,0.6,0.5,0.119005690681694,"true"
"image-keyboard-response",241,273024,"0.0-4.76-1.76","ug1q10jjktnxgcd",323,"90.csv","","null","resources/maskTrios/BBA3.jpg","null","",NA,NA,NA,NA,""
"image-keyboard-response",242,274226,"0.0-4.76-2.76","ug1q10jjktnxgcd",323,"90.csv","","null","resources/images/coin2.png","null","",NA,NA,NA,NA,""
"image-keyboard-response",243,274566,"0.0-4.77-0.77","ug1q10jjktnxgcd",323,"90.csv","","338.0000000000582","resources/trios/L1T4A3.jpg","39","restless",0.2,0.6,0.5,0.463912478328166,"true"
"image-keyboard-response",244,274968,"0.0-4.77-1.77","ug1q10jjktnxgcd",323,"90.csv","","null","resources/maskTrios/BBA3.jpg","null","",NA,NA,NA,NA,""
"image-keyboard-response",245,276173,"0.0-4.77-2.77","ug1q10jjktnxgcd",323,"90.csv","","null","resources/images/coin2.png","null","",NA,NA,NA,NA,""
"image-keyboard-response",246,276502,"0.0-4.78-0.78","ug1q10jjktnxgcd",323,"90.csv","","326","resources/trios/L1T4A3.jpg","39","restless",0.2,0.5,0.5,0.727396179275985,"false"
"image-keyboard-response",247,276906,"0.0-4.78-1.78","ug1q10jjktnxgcd",323,"90.csv","","null","resources/maskTrios/BBA3.jpg","null","",NA,NA,NA,NA,""
"image-keyboard-response",248,278109,"0.0-4.78-2.78","ug1q10jjktnxgcd",323,"90.csv","","null","resources/images/fishbone.png","null","",NA,NA,NA,NA,""
"image-keyboard-response",249,278359,"0.0-4.79-0.79","ug1q10jjktnxgcd",323,"90.csv","","248","resources/trios/L1T4A3.jpg","38","restless",0.2,0.5,0.5,0.997382065553312,"false"
"image-keyboard-response",250,278761,"0.0-4.79-1.79","ug1q10jjktnxgcd",323,"90.csv","","null","resources/maskTrios/BT4B.jpg","null","",NA,NA,NA,NA,""
"image-keyboard-response",251,279963,"0.0-4.79-2.79","ug1q10jjktnxgcd",323,"90.csv","","null","resources/images/fishbone.png","null","",NA,NA,NA,NA,""
"image-keyboard-response",252,280226,"0.0-4.80-0.80","ug1q10jjktnxgcd",323,"90.csv","","260","resources/trios/L1T4A3.jpg","37","restless",0.2,0.5,0.5,0.762262391563461,"false"
"image-keyboard-response",253,280628,"0.0-4.80-1.80","ug1q10jjktnxgcd",323,"90.csv","","null","resources/maskTrios/L1BB.jpg","null","",NA,NA,NA,NA,""
"image-keyboard-response",254,281831,"0.0-4.80-2.80","ug1q10jjktnxgcd",323,"90.csv","","null","resources/images/fishbone.png","null","",NA,NA,NA,NA,""
"image-keyboard-response",255,282092,"0.0-4.81-0.81","ug1q10jjktnxgcd",323,"90.csv","","260","resources/trios/L1T4A3.jpg","39","restless",0.2,0.5,0.5,0.976462045528758,"false"
"image-keyboard-response",256,282494,"0.0-4.81-1.81","ug1q10jjktnxgcd",323,"90.csv","","null","resources/maskTrios/BBA3.jpg","null","",NA,NA,NA,NA,""
"image-keyboard-response",257,283696,"0.0-4.81-2.81","ug1q10jjktnxgcd",323,"90.csv","","null","resources/images/fishbone.png","null","",NA,NA,NA,NA,""
"image-keyboard-response",258,284027,"0.0-4.82-0.82","ug1q10jjktnxgcd",323,"90.csv","","329","resources/trios/L1T4A3.jpg","39","restless",0.2,0.5,0.5,0.63899213089236,"false"
"image-keyboard-response",259,284429,"0.0-4.82-1.82","ug1q10jjktnxgcd",323,"90.csv","","null","resources/maskTrios/BBA3.jpg","null","",NA,NA,NA,NA,""
"image-keyboard-response",260,285631,"0.0-4.82-2.82","ug1q10jjktnxgcd",323,"90.csv","","null","resources/images/fishbone.png","null","",NA,NA,NA,NA,""
"image-keyboard-response",261,285860,"0.0-4.83-0.83","ug1q10jjktnxgcd",323,"90.csv","","228","resources/trios/L1T4A3.jpg","37","restless",0.2,0.5,0.5,0.858484465179734,"false"
"image-keyboard-response",262,286262,"0.0-4.83-1.83","ug1q10jjktnxgcd",323,"90.csv","","null","resources/maskTrios/L1BB.jpg","null","",NA,NA,NA,NA,""
"image-keyboard-response",263,287464,"0.0-4.83-2.83","ug1q10jjktnxgcd",323,"90.csv","","null","resources/images/fishbone.png","null","",NA,NA,NA,NA,""
"image-keyboard-response",264,287621,"0.0-4.84-0.84","ug1q10jjktnxgcd",323,"90.csv","","155","resources/trios/L1T4A3.jpg","38","restless",0.2,0.5,0.5,0.441557066835842,"true"
"image-keyboard-response",265,288023,"0.0-4.84-1.84","ug1q10jjktnxgcd",323,"90.csv","","null","resources/maskTrios/BT4B.jpg","null","",NA,NA,NA,NA,""
"image-keyboard-response",266,289229,"0.0-4.84-2.84","ug1q10jjktnxgcd",323,"90.csv","","null","resources/images/coin2.png","null","",NA,NA,NA,NA,""
"image-keyboard-response",267,289547,"0.0-4.85-0.85","ug1q10jjktnxgcd",323,"90.csv","","316","resources/trios/L1T4A3.jpg","38","restless",0.2,0.5,0.5,0.705094960205182,"false"
"image-keyboard-response",268,289949,"0.0-4.85-1.85","ug1q10jjktnxgcd",323,"90.csv","","null","resources/maskTrios/BT4B.jpg","null","",NA,NA,NA,NA,""
"image-keyboard-response",269,291153,"0.0-4.85-2.85","ug1q10jjktnxgcd",323,"90.csv","","null","resources/images/fishbone.png","null","",NA,NA,NA,NA,""
"image-keyboard-response",270,291391,"0.0-4.86-0.86","ug1q10jjktnxgcd",323,"90.csv","","235","resources/trios/L1T4A3.jpg","37","restless",0.2,0.5,0.5,0.189579281674049,"true"
"image-keyboard-response",271,291794,"0.0-4.86-1.86","ug1q10jjktnxgcd",323,"90.csv","","null","resources/maskTrios/L1BB.jpg","null","",NA,NA,NA,NA,""
"image-keyboard-response",272,292998,"0.0-4.86-2.86","ug1q10jjktnxgcd",323,"90.csv","","null","resources/images/coin2.png","null","",NA,NA,NA,NA,""
"image-keyboard-response",273,293355,"0.0-4.87-0.87","ug1q10jjktnxgcd",323,"90.csv","","353.9999999999418","resources/trios/L1T4A3.jpg","37","restless",0.2,0.5,0.5,0.999524747699664,"false"
"image-keyboard-response",274,293758,"0.0-4.87-1.87","ug1q10jjktnxgcd",323,"90.csv","","null","resources/maskTrios/L1BB.jpg","null","",NA,NA,NA,NA,""
"image-keyboard-response",275,294961,"0.0-4.87-2.87","ug1q10jjktnxgcd",323,"90.csv","","null","resources/images/fishbone.png","null","",NA,NA,NA,NA,""
"image-keyboard-response",276,295234,"0.0-4.88-0.88","ug1q10jjktnxgcd",323,"90.csv","","271","resources/trios/L1T4A3.jpg","37","restless",0.2,0.5,0.5,0.198339963406364,"true"
"image-keyboard-response",277,295636,"0.0-4.88-1.88","ug1q10jjktnxgcd",323,"90.csv","","null","resources/maskTrios/L1BB.jpg","null","",NA,NA,NA,NA,""
"image-keyboard-response",278,296840,"0.0-4.88-2.88","ug1q10jjktnxgcd",323,"90.csv","","null","resources/images/coin2.png","null","",NA,NA,NA,NA,""
"image-keyboard-response",279,297106,"0.0-4.89-0.89","ug1q10jjktnxgcd",323,"90.csv","","264","resources/trios/L1T4A3.jpg","37","restless",0.2,0.5,0.4,0.704932037306262,"false"
"image-keyboard-response",280,297509,"0.0-4.89-1.89","ug1q10jjktnxgcd",323,"90.csv","","null","resources/maskTrios/L1BB.jpg","null","",NA,NA,NA,NA,""
"image-keyboard-response",281,298712,"0.0-4.89-2.89","ug1q10jjktnxgcd",323,"90.csv","","null","resources/images/fishbone.png","null","",NA,NA,NA,NA,""
"image-keyboard-response",282,299009,"0.0-4.90-0.90","ug1q10jjktnxgcd",323,"90.csv","","294","resources/trios/L1T4A3.jpg","38","restless",0.2,0.5,0.4,0.321964578635747,"true"
"image-keyboard-response",283,299411,"0.0-4.90-1.90","ug1q10jjktnxgcd",323,"90.csv","","null","resources/maskTrios/BT4B.jpg","null","",NA,NA,NA,NA,""
"image-keyboard-response",284,300614,"0.0-4.90-2.90","ug1q10jjktnxgcd",323,"90.csv","","null","resources/images/coin2.png","null","",NA,NA,NA,NA,""
"image-keyboard-response",285,301193,"0.0-4.91-0.91","ug1q10jjktnxgcd",323,"90.csv","","577","resources/trios/L1T4A3.jpg","39","restless",0.2,0.5,0.4,0.363986838411364,"true"
"image-keyboard-response",286,301595,"0.0-4.91-1.91","ug1q10jjktnxgcd",323,"90.csv","","null","resources/maskTrios/BBA3.jpg","null","",NA,NA,NA,NA,""
"image-keyboard-response",287,302799,"0.0-4.91-2.91","ug1q10jjktnxgcd",323,"90.csv","","null","resources/images/coin2.png","null","",NA,NA,NA,NA,""
"image-keyboard-response",288,303142,"0.0-4.92-0.92","ug1q10jjktnxgcd",323,"90.csv","","341","resources/trios/L1T4A3.jpg","38","restless",0.2,0.5,0.4,0.565026230637743,"false"
"image-keyboard-response",289,303546,"0.0-4.92-1.92","ug1q10jjktnxgcd",323,"90.csv","","null","resources/maskTrios/BT4B.jpg","null","",NA,NA,NA,NA,""
"image-keyboard-response",290,304748,"0.0-4.92-2.92","ug1q10jjktnxgcd",323,"90.csv","","null","resources/images/fishbone.png","null","",NA,NA,NA,NA,""
"image-keyboard-response",291,304947,"0.0-4.93-0.93","ug1q10jjktnxgcd",323,"90.csv","","197","resources/trios/L1T4A3.jpg","39","restless",0.2,0.4,0.3,0.479867141683686,"false"
"image-keyboard-response",292,305350,"0.0-4.93-1.93","ug1q10jjktnxgcd",323,"90.csv","","null","resources/maskTrios/BBA3.jpg","null","",NA,NA,NA,NA,""
"image-keyboard-response",293,306553,"0.0-4.93-2.93","ug1q10jjktnxgcd",323,"90.csv","","null","resources/images/fishbone.png","null","",NA,NA,NA,NA,""
"image-keyboard-response",294,306753,"0.0-4.94-0.94","ug1q10jjktnxgcd",323,"90.csv","","198","resources/trios/L1T4A3.jpg","39","restless",0.2,0.4,0.3,0.0244132157254469,"true"
"image-keyboard-response",295,307155,"0.0-4.94-1.94","ug1q10jjktnxgcd",323,"90.csv","","null","resources/maskTrios/BBA3.jpg","null","",NA,NA,NA,NA,""
"image-keyboard-response",296,308358,"0.0-4.94-2.94","ug1q10jjktnxgcd",323,"90.csv","","null","resources/images/coin2.png","null","",NA,NA,NA,NA,""
"image-keyboard-response",297,309013,"0.0-4.95-0.95","ug1q10jjktnxgcd",323,"90.csv","","650.0000000000582","resources/trios/L1T4A3.jpg","38","restless",0.2,0.4,0.3,0.830782953326196,"false"
"image-keyboard-response",298,309415,"0.0-4.95-1.95","ug1q10jjktnxgcd",323,"90.csv","","null","resources/maskTrios/BT4B.jpg","null","",NA,NA,NA,NA,""
"image-keyboard-response",299,310618,"0.0-4.95-2.95","ug1q10jjktnxgcd",323,"90.csv","","null","resources/images/fishbone.png","null","",NA,NA,NA,NA,""
"image-keyboard-response",300,310938,"0.0-4.96-0.96","ug1q10jjktnxgcd",323,"90.csv","","317","resources/trios/L1T4A3.jpg","37","restless",0.2,0.4,0.3,0.791385173717649,"false"
"image-keyboard-response",301,311341,"0.0-4.96-1.96","ug1q10jjktnxgcd",323,"90.csv","","null","resources/maskTrios/L1BB.jpg","null","",NA,NA,NA,NA,""
"image-keyboard-response",302,312543,"0.0-4.96-2.96","ug1q10jjktnxgcd",323,"90.csv","","null","resources/images/fishbone.png","null","",NA,NA,NA,NA,""
"image-keyboard-response",303,312882,"0.0-4.97-0.97","ug1q10jjktnxgcd",323,"90.csv","","336","resources/trios/L1T4A3.jpg","39","restless",0.2,0.4,0.3,0.306798569774175,"false"
"image-keyboard-response",304,313284,"0.0-4.97-1.97","ug1q10jjktnxgcd",323,"90.csv","","null","resources/maskTrios/BBA3.jpg","null","",NA,NA,NA,NA,""
"image-keyboard-response",305,314486,"0.0-4.97-2.97","ug1q10jjktnxgcd",323,"90.csv","","null","resources/images/fishbone.png","null","",NA,NA,NA,NA,""
"image-keyboard-response",306,314706,"0.0-4.98-0.98","ug1q10jjktnxgcd",323,"90.csv","","216.9999999999418","resources/trios/L1T4A3.jpg","39","restless",0.2,0.4,0.3,0.76185377358421,"false"
"image-keyboard-response",307,315108,"0.0-4.98-1.98","ug1q10jjktnxgcd",323,"90.csv","","null","resources/maskTrios/BBA3.jpg","null","",NA,NA,NA,NA,""
"image-keyboard-response",308,316310,"0.0-4.98-2.98","ug1q10jjktnxgcd",323,"90.csv","","null","resources/images/fishbone.png","null","",NA,NA,NA,NA,""
"image-keyboard-response",309,316611,"0.0-4.99-0.99","ug1q10jjktnxgcd",323,"90.csv","","299","resources/trios/L1T4A3.jpg","38","restless",0.2,0.4,0.3,0.64414393309977,"false"
"image-keyboard-response",310,317014,"0.0-4.99-1.99","ug1q10jjktnxgcd",323,"90.csv","","null","resources/maskTrios/BT4B.jpg","null","",NA,NA,NA,NA,""
"image-keyboard-response",311,318216,"0.0-4.99-2.99","ug1q10jjktnxgcd",323,"90.csv","","null","resources/images/fishbone.png","null","",NA,NA,NA,NA,""
"image-keyboard-response",312,318477,"0.0-4.100-0.100","ug1q10jjktnxgcd",323,"90.csv","","260","resources/trios/L1T4A3.jpg","37","restless",0.2,0.4,0.4,0.620047020649848,"false"
"image-keyboard-response",313,318880,"0.0-4.100-1.100","ug1q10jjktnxgcd",323,"90.csv","","null","resources/maskTrios/L1BB.jpg","null","",NA,NA,NA,NA,""
"image-keyboard-response",314,320082,"0.0-4.100-2.100","ug1q10jjktnxgcd",323,"90.csv","","null","resources/images/fishbone.png","null","",NA,NA,NA,NA,""
"image-keyboard-response",315,320368,"0.0-4.101-0.101","ug1q10jjktnxgcd",323,"90.csv","","284","resources/trios/L1T4A3.jpg","37","restless",0.2,0.4,0.4,0.0737359138246578,"true"
"image-keyboard-response",316,320770,"0.0-4.101-1.101","ug1q10jjktnxgcd",323,"90.csv","","null","resources/maskTrios/L1BB.jpg","null","",NA,NA,NA,NA,""
"image-keyboard-response",317,321974,"0.0-4.101-2.101","ug1q10jjktnxgcd",323,"90.csv","","null","resources/images/coin2.png","null","",NA,NA,NA,NA,""
"image-keyboard-response",318,322251,"0.0-4.102-0.102","ug1q10jjktnxgcd",323,"90.csv","","274","resources/trios/L1T4A3.jpg","39","restless",0.2,0.4,0.4,0.108136126419987,"true"
"image-keyboard-response",319,322653,"0.0-4.102-1.102","ug1q10jjktnxgcd",323,"90.csv","","null","resources/maskTrios/BBA3.jpg","null","",NA,NA,NA,NA,""
"image-keyboard-response",320,323856,"0.0-4.102-2.102","ug1q10jjktnxgcd",323,"90.csv","","null","resources/images/coin2.png","null","",NA,NA,NA,NA,""
"image-keyboard-response",321,324146,"0.0-4.103-0.103","ug1q10jjktnxgcd",323,"90.csv","","288","resources/trios/L1T4A3.jpg","38","restless",0.2,0.4,0.4,0.0792242746133488,"true"
"image-keyboard-response",322,324549,"0.0-4.103-1.103","ug1q10jjktnxgcd",323,"90.csv","","null","resources/maskTrios/BT4B.jpg","null","",NA,NA,NA,NA,""
"image-keyboard-response",323,325753,"0.0-4.103-2.103","ug1q10jjktnxgcd",323,"90.csv","","null","resources/images/coin2.png","null","",NA,NA,NA,NA,""
"image-keyboard-response",324,326073,"0.0-4.104-0.104","ug1q10jjktnxgcd",323,"90.csv","","318","resources/trios/L1T4A3.jpg","37","restless",0.2,0.4,0.4,0.344492775591395,"false"
"image-keyboard-response",325,326476,"0.0-4.104-1.104","ug1q10jjktnxgcd",323,"90.csv","","null","resources/maskTrios/L1BB.jpg","null","",NA,NA,NA,NA,""
"image-keyboard-response",326,327679,"0.0-4.104-2.104","ug1q10jjktnxgcd",323,"90.csv","","null","resources/images/fishbone.png","null","",NA,NA,NA,NA,""
"image-keyboard-response",327,328138,"0.0-4.105-0.105","ug1q10jjktnxgcd",323,"90.csv","","452","resources/trios/L1T4A3.jpg","38","restless",0.2,0.4,0.4,0.930070081066173,"false"
"image-keyboard-response",328,328542,"0.0-4.105-1.105","ug1q10jjktnxgcd",323,"90.csv","","null","resources/maskTrios/BT4B.jpg","null","",NA,NA,NA,NA,""
"image-keyboard-response",329,329746,"0.0-4.105-2.105","ug1q10jjktnxgcd",323,"90.csv","","null","resources/images/fishbone.png","null","",NA,NA,NA,NA,""
"image-keyboard-response",330,329980,"0.0-4.106-0.106","ug1q10jjktnxgcd",323,"90.csv","","231","resources/trios/L1T4A3.jpg","37","restless",0.2,0.4,0.4,0.931174007439615,"false"
"image-keyboard-response",331,330382,"0.0-4.106-1.106","ug1q10jjktnxgcd",323,"90.csv","","null","resources/maskTrios/L1BB.jpg","null","",NA,NA,NA,NA,""
"image-keyboard-response",332,331585,"0.0-4.106-2.106","ug1q10jjktnxgcd",323,"90.csv","","null","resources/images/fishbone.png","null","",NA,NA,NA,NA,""
"image-keyboard-response",333,331788,"0.0-4.107-0.107","ug1q10jjktnxgcd",323,"90.csv","","200","resources/trios/L1T4A3.jpg","37","restless",0.2,0.4,0.4,0.149244452616607,"true"
"image-keyboard-response",334,332190,"0.0-4.107-1.107","ug1q10jjktnxgcd",323,"90.csv","","null","resources/maskTrios/L1BB.jpg","null","",NA,NA,NA,NA,""
"image-keyboard-response",335,333393,"0.0-4.107-2.107","ug1q10jjktnxgcd",323,"90.csv","","null","resources/images/coin2.png","null","",NA,NA,NA,NA,""
"image-keyboard-response",336,333756,"0.0-4.108-0.108","ug1q10jjktnxgcd",323,"90.csv","","360","resources/trios/L1T4A3.jpg","39","restless",0.2,0.5,0.4,0.048510500345553,"true"
"image-keyboard-response",337,334160,"0.0-4.108-1.108","ug1q10jjktnxgcd",323,"90.csv","","null","resources/maskTrios/BBA3.jpg","null","",NA,NA,NA,NA,""
"image-keyboard-response",338,335364,"0.0-4.108-2.108","ug1q10jjktnxgcd",323,"90.csv","","null","resources/images/coin2.png","null","",NA,NA,NA,NA,""
"image-keyboard-response",339,335740,"0.0-4.109-0.109","ug1q10jjktnxgcd",323,"90.csv","","372","resources/trios/L1T4A3.jpg","37","restless",0.2,0.5,0.4,0.702874724974886,"false"
"image-keyboard-response",340,336142,"0.0-4.109-1.109","ug1q10jjktnxgcd",323,"90.csv","","null","resources/maskTrios/L1BB.jpg","null","",NA,NA,NA,NA,""
"image-keyboard-response",341,337344,"0.0-4.109-2.109","ug1q10jjktnxgcd",323,"90.csv","","null","resources/images/fishbone.png","null","",NA,NA,NA,NA,""
"image-keyboard-response",342,337790,"0.0-4.110-0.110","ug1q10jjktnxgcd",323,"90.csv","","444","resources/trios/L1T4A3.jpg","39","restless",0.2,0.4,0.4,0.529461680273339,"false"
"image-keyboard-response",343,338192,"0.0-4.110-1.110","ug1q10jjktnxgcd",323,"90.csv","","null","resources/maskTrios/BBA3.jpg","null","",NA,NA,NA,NA,""
"image-keyboard-response",344,339394,"0.0-4.110-2.110","ug1q10jjktnxgcd",323,"90.csv","","null","resources/images/fishbone.png","null","",NA,NA,NA,NA,""
"image-keyboard-response",345,339640,"0.0-4.111-0.111","ug1q10jjktnxgcd",323,"90.csv","","244","resources/trios/L1T4A3.jpg","37","restless",0.3,0.4,0.4,0.588480288029995,"false"
"image-keyboard-response",346,340042,"0.0-4.111-1.111","ug1q10jjktnxgcd",323,"90.csv","","null","resources/maskTrios/L1BB.jpg","null","",NA,NA,NA,NA,""
"image-keyboard-response",347,341244,"0.0-4.111-2.111","ug1q10jjktnxgcd",323,"90.csv","","null","resources/images/fishbone.png","null","",NA,NA,NA,NA,""
"image-keyboard-response",348,341479,"0.0-4.112-0.112","ug1q10jjktnxgcd",323,"90.csv","","232","resources/trios/L1T4A3.jpg","38","restless",0.3,0.4,0.4,0.372739272228422,"true"
"image-keyboard-response",349,341883,"0.0-4.112-1.112","ug1q10jjktnxgcd",323,"90.csv","","null","resources/maskTrios/BT4B.jpg","null","",NA,NA,NA,NA,""
"image-keyboard-response",350,343087,"0.0-4.112-2.112","ug1q10jjktnxgcd",323,"90.csv","","null","resources/images/coin2.png","null","",NA,NA,NA,NA,""
"image-keyboard-response",351,343593,"0.0-4.113-0.113","ug1q10jjktnxgcd",323,"90.csv","","503.9999999999418","resources/trios/L1T4A3.jpg","38","restless",0.3,0.4,0.4,0.193277284554944,"true"
"image-keyboard-response",352,343996,"0.0-4.113-1.113","ug1q10jjktnxgcd",323,"90.csv","","null","resources/maskTrios/BT4B.jpg","null","",NA,NA,NA,NA,""
"image-keyboard-response",353,345199,"0.0-4.113-2.113","ug1q10jjktnxgcd",323,"90.csv","","null","resources/images/coin2.png","null","",NA,NA,NA,NA,""
"image-keyboard-response",354,345670,"0.0-4.114-0.114","ug1q10jjktnxgcd",323,"90.csv","","469","resources/trios/L1T4A3.jpg","38","restless",0.3,0.4,0.4,0.488408342823221,"false"
"image-keyboard-response",355,346071,"0.0-4.114-1.114","ug1q10jjktnxgcd",323,"90.csv","","null","resources/maskTrios/BT4B.jpg","null","",NA,NA,NA,NA,""
"image-keyboard-response",356,347274,"0.0-4.114-2.114","ug1q10jjktnxgcd",323,"90.csv","","null","resources/images/fishbone.png","null","",NA,NA,NA,NA,""
"image-keyboard-response",357,347497,"0.0-4.115-0.115","ug1q10jjktnxgcd",323,"90.csv","","222","resources/trios/L1T4A3.jpg","39","restless",0.3,0.4,0.5,0.362113967847899,"true"
"image-keyboard-response",358,347900,"0.0-4.115-1.115","ug1q10jjktnxgcd",323,"90.csv","","null","resources/maskTrios/BBA3.jpg","null","",NA,NA,NA,NA,""
"image-keyboard-response",359,349103,"0.0-4.115-2.115","ug1q10jjktnxgcd",323,"90.csv","","null","resources/images/coin2.png","null","",NA,NA,NA,NA,""
"image-keyboard-response",360,349596,"0.0-4.116-0.116","ug1q10jjktnxgcd",323,"90.csv","","490","resources/trios/L1T4A3.jpg","37","restless",0.3,0.4,0.5,0.56174230534882,"false"
"image-keyboard-response",361,349999,"0.0-4.116-1.116","ug1q10jjktnxgcd",323,"90.csv","","null","resources/maskTrios/L1BB.jpg","null","",NA,NA,NA,NA,""
"image-keyboard-response",362,351202,"0.0-4.116-2.116","ug1q10jjktnxgcd",323,"90.csv","","null","resources/images/fishbone.png","null","",NA,NA,NA,NA,""
"image-keyboard-response",363,352011,"0.0-4.117-0.117","ug1q10jjktnxgcd",323,"90.csv","","807","resources/trios/L1T4A3.jpg","39","restless",0.3,0.4,0.5,0.0459111343802522,"true"
"image-keyboard-response",364,352414,"0.0-4.117-1.117","ug1q10jjktnxgcd",323,"90.csv","","null","resources/maskTrios/BBA3.jpg","null","",NA,NA,NA,NA,""
"image-keyboard-response",365,353616,"0.0-4.117-2.117","ug1q10jjktnxgcd",323,"90.csv","","null","resources/images/coin2.png","null","",NA,NA,NA,NA,""
"image-keyboard-response",366,354147,"0.0-4.118-0.118","ug1q10jjktnxgcd",323,"90.csv","","527","resources/trios/L1T4A3.jpg","39","restless",0.3,0.4,0.5,0.547897372324698,"false"
"image-keyboard-response",367,354549,"0.0-4.118-1.118","ug1q10jjktnxgcd",323,"90.csv","","null","resources/maskTrios/BBA3.jpg","null","",NA,NA,NA,NA,""
"image-keyboard-response",368,355752,"0.0-4.118-2.118","ug1q10jjktnxgcd",323,"90.csv","","null","resources/images/fishbone.png","null","",NA,NA,NA,NA,""
"image-keyboard-response",369,355990,"0.0-4.119-0.119","ug1q10jjktnxgcd",323,"90.csv","","236","resources/trios/L1T4A3.jpg","38","restless",0.3,0.4,0.5,0.302164668139545,"true"
"image-keyboard-response",370,356392,"0.0-4.119-1.119","ug1q10jjktnxgcd",323,"90.csv","","null","resources/maskTrios/BT4B.jpg","null","",NA,NA,NA,NA,""
"image-keyboard-response",371,357595,"0.0-4.119-2.119","ug1q10jjktnxgcd",323,"90.csv","","null","resources/images/coin2.png","null","",NA,NA,NA,NA,""
"image-keyboard-response",372,358048,"0.0-4.120-0.120","ug1q10jjktnxgcd",323,"90.csv","","451.0000000000582","resources/trios/L1T4A3.jpg","37","restless",0.3,0.4,0.5,0.246179482705811,"true"
"image-keyboard-response",373,358450,"0.0-4.120-1.120","ug1q10jjktnxgcd",323,"90.csv","","null","resources/maskTrios/L1BB.jpg","null","",NA,NA,NA,NA,""
"image-keyboard-response",374,359653,"0.0-4.120-2.120","ug1q10jjktnxgcd",323,"90.csv","","null","resources/images/coin2.png","null","",NA,NA,NA,NA,""
"image-keyboard-response",375,360006,"0.0-4.121-0.121","ug1q10jjktnxgcd",323,"90.csv","","351","resources/trios/L1T4A3.jpg","39","restless",0.3,0.4,0.4,0.313946673239447,"true"
"image-keyboard-response",376,360409,"0.0-4.121-1.121","ug1q10jjktnxgcd",323,"90.csv","","null","resources/maskTrios/BBA3.jpg","null","",NA,NA,NA,NA,""
"image-keyboard-response",377,361613,"0.0-4.121-2.121","ug1q10jjktnxgcd",323,"90.csv","","null","resources/images/coin2.png","null","",NA,NA,NA,NA,""
"image-keyboard-response",378,361943,"0.0-4.122-0.122","ug1q10jjktnxgcd",323,"90.csv","","328","resources/trios/L1T4A3.jpg","38","restless",0.3,0.5,0.4,0.539556023424563,"false"
"image-keyboard-response",379,362345,"0.0-4.122-1.122","ug1q10jjktnxgcd",323,"90.csv","","null","resources/maskTrios/BT4B.jpg","null","",NA,NA,NA,NA,""
"image-keyboard-response",380,363549,"0.0-4.122-2.122","ug1q10jjktnxgcd",323,"90.csv","","null","resources/images/fishbone.png","null","",NA,NA,NA,NA,""
"image-keyboard-response",381,364355,"0.0-4.123-0.123","ug1q10jjktnxgcd",323,"90.csv","","802","resources/trios/L1T4A3.jpg","39","restless",0.3,0.6,0.4,0.692918556915726,"false"
"image-keyboard-response",382,364757,"0.0-4.123-1.123","ug1q10jjktnxgcd",323,"90.csv","","null","resources/maskTrios/BBA3.jpg","null","",NA,NA,NA,NA,""
"image-keyboard-response",383,365960,"0.0-4.123-2.123","ug1q10jjktnxgcd",323,"90.csv","","null","resources/images/fishbone.png","null","",NA,NA,NA,NA,""
"image-keyboard-response",384,366302,"0.0-4.124-0.124","ug1q10jjktnxgcd",323,"90.csv","","340","resources/trios/L1T4A3.jpg","39","restless",0.3,0.6,0.4,0.145037290765407,"true"
"image-keyboard-response",385,366704,"0.0-4.124-1.124","ug1q10jjktnxgcd",323,"90.csv","","null","resources/maskTrios/BBA3.jpg","null","",NA,NA,NA,NA,""
"image-keyboard-response",386,367907,"0.0-4.124-2.124","ug1q10jjktnxgcd",323,"90.csv","","null","resources/images/coin2.png","null","",NA,NA,NA,NA,""
"image-keyboard-response",387,368461,"0.0-4.125-0.125","ug1q10jjktnxgcd",323,"90.csv","","552","resources/trios/L1T4A3.jpg","37","restless",0.3,0.6,0.4,0.625815334811888,"false"
"image-keyboard-response",388,368863,"0.0-4.125-1.125","ug1q10jjktnxgcd",323,"90.csv","","null","resources/maskTrios/L1BB.jpg","null","",NA,NA,NA,NA,""
"image-keyboard-response",389,370066,"0.0-4.125-2.125","ug1q10jjktnxgcd",323,"90.csv","","null","resources/images/fishbone.png","null","",NA,NA,NA,NA,""
"image-keyboard-response",390,370320,"0.0-4.126-0.126","ug1q10jjktnxgcd",323,"90.csv","","253","resources/trios/L1T4A3.jpg","38","restless",0.3,0.6,0.5,0.434492084776884,"true"
"image-keyboard-response",391,370722,"0.0-4.126-1.126","ug1q10jjktnxgcd",323,"90.csv","","null","resources/maskTrios/BT4B.jpg","null","",NA,NA,NA,NA,""
"image-keyboard-response",392,371925,"0.0-4.126-2.126","ug1q10jjktnxgcd",323,"90.csv","","null","resources/images/coin2.png","null","",NA,NA,NA,NA,""
"image-keyboard-response",393,372179,"0.0-4.127-0.127","ug1q10jjktnxgcd",323,"90.csv","","251.0000000000582","resources/trios/L1T4A3.jpg","37","restless",0.3,0.6,0.5,0.728178804947154,"false"
"image-keyboard-response",394,372581,"0.0-4.127-1.127","ug1q10jjktnxgcd",323,"90.csv","","null","resources/maskTrios/L1BB.jpg","null","",NA,NA,NA,NA,""
"image-keyboard-response",395,373782,"0.0-4.127-2.127","ug1q10jjktnxgcd",323,"90.csv","","null","resources/images/fishbone.png","null","",NA,NA,NA,NA,""
"image-keyboard-response",396,374038,"0.0-4.128-0.128","ug1q10jjktnxgcd",323,"90.csv","","251.9999999999418","resources/trios/L1T4A3.jpg","39","restless",0.3,0.6,0.5,0.940134078798623,"false"
"image-keyboard-response",397,374440,"0.0-4.128-1.128","ug1q10jjktnxgcd",323,"90.csv","","null","resources/maskTrios/BBA3.jpg","null","",NA,NA,NA,NA,""
"image-keyboard-response",398,375642,"0.0-4.128-2.128","ug1q10jjktnxgcd",323,"90.csv","","null","resources/images/fishbone.png","null","",NA,NA,NA,NA,""
"image-keyboard-response",399,375896,"0.0-4.129-0.129","ug1q10jjktnxgcd",323,"90.csv","","253","resources/trios/L1T4A3.jpg","38","restless",0.4,0.7,0.5,0.99797079699706,"false"
"image-keyboard-response",400,376298,"0.0-4.129-1.129","ug1q10jjktnxgcd",323,"90.csv","","null","resources/maskTrios/BT4B.jpg","null","",NA,NA,NA,NA,""
"image-keyboard-response",401,377500,"0.0-4.129-2.129","ug1q10jjktnxgcd",323,"90.csv","","null","resources/images/fishbone.png","null","",NA,NA,NA,NA,""
"image-keyboard-response",402,377815,"0.0-4.130-0.130","ug1q10jjktnxgcd",323,"90.csv","","312","resources/trios/L1T4A3.jpg","37","restless",0.4,0.7,0.5,0.0116304784011293,"true"
"image-keyboard-response",403,378216,"0.0-4.130-1.130","ug1q10jjktnxgcd",323,"90.csv","","null","resources/maskTrios/L1BB.jpg","null","",NA,NA,NA,NA,""
"image-keyboard-response",404,379419,"0.0-4.130-2.130","ug1q10jjktnxgcd",323,"90.csv","","null","resources/images/coin2.png","null","",NA,NA,NA,NA,""
"image-keyboard-response",405,379773,"0.0-4.131-0.131","ug1q10jjktnxgcd",323,"90.csv","","348","resources/trios/L1T4A3.jpg","39","restless",0.4,0.6,0.5,0.749043101611384,"false"
"image-keyboard-response",406,380176,"0.0-4.131-1.131","ug1q10jjktnxgcd",323,"90.csv","","null","resources/maskTrios/BBA3.jpg","null","",NA,NA,NA,NA,""
"image-keyboard-response",407,381379,"0.0-4.131-2.131","ug1q10jjktnxgcd",323,"90.csv","","null","resources/images/fishbone.png","null","",NA,NA,NA,NA,""
"image-keyboard-response",408,381624,"0.0-4.132-0.132","ug1q10jjktnxgcd",323,"90.csv","","243","resources/trios/L1T4A3.jpg","38","restless",0.4,0.6,0.5,0.156667893922145,"true"
"image-keyboard-response",409,382026,"0.0-4.132-1.132","ug1q10jjktnxgcd",323,"90.csv","","null","resources/maskTrios/BT4B.jpg","null","",NA,NA,NA,NA,""
"image-keyboard-response",410,383229,"0.0-4.132-2.132","ug1q10jjktnxgcd",323,"90.csv","","null","resources/images/coin2.png","null","",NA,NA,NA,NA,""
"image-keyboard-response",411,384278,"0.0-4.133-0.133","ug1q10jjktnxgcd",323,"90.csv","","1047","resources/trios/L1T4A3.jpg","37","restless",0.4,0.6,0.5,0.648700636034858,"false"
"image-keyboard-response",412,384680,"0.0-4.133-1.133","ug1q10jjktnxgcd",323,"90.csv","","null","resources/maskTrios/L1BB.jpg","null","",NA,NA,NA,NA,""
"image-keyboard-response",413,385883,"0.0-4.133-2.133","ug1q10jjktnxgcd",323,"90.csv","","null","resources/images/fishbone.png","null","",NA,NA,NA,NA,""
"image-keyboard-response",414,386343,"0.0-4.134-0.134","ug1q10jjktnxgcd",323,"90.csv","","458","resources/trios/L1T4A3.jpg","39","restless",0.4,0.6,0.5,0.472403608787895,"true"
"image-keyboard-response",415,386745,"0.0-4.134-1.134","ug1q10jjktnxgcd",323,"90.csv","","null","resources/maskTrios/BBA3.jpg","null","",NA,NA,NA,NA,""
"image-keyboard-response",416,387948,"0.0-4.134-2.134","ug1q10jjktnxgcd",323,"90.csv","","null","resources/images/coin2.png","null","",NA,NA,NA,NA,""
"image-keyboard-response",417,388237,"0.0-4.135-0.135","ug1q10jjktnxgcd",323,"90.csv","","287","resources/trios/L1T4A3.jpg","38","restless",0.4,0.6,0.6,0.349814266564919,"true"
"image-keyboard-response",418,388638,"0.0-4.135-1.135","ug1q10jjktnxgcd",323,"90.csv","","null","resources/maskTrios/BT4B.jpg","null","",NA,NA,NA,NA,""
"image-keyboard-response",419,389841,"0.0-4.135-2.135","ug1q10jjktnxgcd",323,"90.csv","","null","resources/images/coin2.png","null","",NA,NA,NA,NA,""
"image-keyboard-response",420,390138,"0.0-4.136-0.136","ug1q10jjktnxgcd",323,"90.csv","","294.0000000000582","resources/trios/L1T4A3.jpg","39","restless",0.4,0.6,0.6,0.83950111524052,"false"
"image-keyboard-response",421,390541,"0.0-4.136-1.136","ug1q10jjktnxgcd",323,"90.csv","","null","resources/maskTrios/BBA3.jpg","null","",NA,NA,NA,NA,""
"image-keyboard-response",422,391743,"0.0-4.136-2.136","ug1q10jjktnxgcd",323,"90.csv","","null","resources/images/fishbone.png","null","",NA,NA,NA,NA,""
"image-keyboard-response",423,391996,"0.0-4.137-0.137","ug1q10jjktnxgcd",323,"90.csv","","250","resources/trios/L1T4A3.jpg","38","restless",0.4,0.6,0.6,0.67616852506497,"false"
"image-keyboard-response",424,392397,"0.0-4.137-1.137","ug1q10jjktnxgcd",323,"90.csv","","null","resources/maskTrios/BT4B.jpg","null","",NA,NA,NA,NA,""
"image-keyboard-response",425,393599,"0.0-4.137-2.137","ug1q10jjktnxgcd",323,"90.csv","","null","resources/images/fishbone.png","null","",NA,NA,NA,NA,""
"image-keyboard-response",426,393833,"0.0-4.138-0.138","ug1q10jjktnxgcd",323,"90.csv","","232","resources/trios/L1T4A3.jpg","39","restless",0.4,0.6,0.6,0.154015590556729,"true"
"image-keyboard-response",427,394235,"0.0-4.138-1.138","ug1q10jjktnxgcd",323,"90.csv","","null","resources/maskTrios/BBA3.jpg","null","",NA,NA,NA,NA,""
"image-keyboard-response",428,395441,"0.0-4.138-2.138","ug1q10jjktnxgcd",323,"90.csv","","null","resources/images/coin2.png","null","",NA,NA,NA,NA,""
"image-keyboard-response",429,395638,"0.0-4.139-0.139","ug1q10jjktnxgcd",323,"90.csv","","194","resources/trios/L1T4A3.jpg","37","restless",0.4,0.6,0.6,0.122996270979172,"true"
"image-keyboard-response",430,396040,"0.0-4.139-1.139","ug1q10jjktnxgcd",323,"90.csv","","null","resources/maskTrios/L1BB.jpg","null","",NA,NA,NA,NA,""
"image-keyboard-response",431,397243,"0.0-4.139-2.139","ug1q10jjktnxgcd",323,"90.csv","","null","resources/images/coin2.png","null","",NA,NA,NA,NA,""
"image-keyboard-response",432,397501,"0.0-4.140-0.140","ug1q10jjktnxgcd",323,"90.csv","","255","resources/trios/L1T4A3.jpg","38","restless",0.4,0.5,0.6,0.910512801744903,"false"
"image-keyboard-response",433,397905,"0.0-4.140-1.140","ug1q10jjktnxgcd",323,"90.csv","","null","resources/maskTrios/BT4B.jpg","null","",NA,NA,NA,NA,""
"image-keyboard-response",434,399108,"0.0-4.140-2.140","ug1q10jjktnxgcd",323,"90.csv","","null","resources/images/fishbone.png","null","",NA,NA,NA,NA,""
"image-keyboard-response",435,399267,"0.0-4.141-0.141","ug1q10jjktnxgcd",323,"90.csv","","156","resources/trios/L1T4A3.jpg","39","restless",0.3,0.4,0.6,0.75912226121508,"false"
"image-keyboard-response",436,399669,"0.0-4.141-1.141","ug1q10jjktnxgcd",323,"90.csv","","null","resources/maskTrios/BBA3.jpg","null","",NA,NA,NA,NA,""
"image-keyboard-response",437,400871,"0.0-4.141-2.141","ug1q10jjktnxgcd",323,"90.csv","","null","resources/images/fishbone.png","null","",NA,NA,NA,NA,""
"image-keyboard-response",438,401034,"0.0-4.142-0.142","ug1q10jjktnxgcd",323,"90.csv","","161","resources/trios/L1T4A3.jpg","39","restless",0.3,0.4,0.6,0.551774959244406,"true"
"image-keyboard-response",439,401436,"0.0-4.142-1.142","ug1q10jjktnxgcd",323,"90.csv","","null","resources/maskTrios/BBA3.jpg","null","",NA,NA,NA,NA,""
"image-keyboard-response",440,402640,"0.0-4.142-2.142","ug1q10jjktnxgcd",323,"90.csv","","null","resources/images/coin2.png","null","",NA,NA,NA,NA,""
"image-keyboard-response",441,402967,"0.0-4.143-0.143","ug1q10jjktnxgcd",323,"90.csv","","325","resources/trios/L1T4A3.jpg","37","restless",0.3,0.3,0.6,0.0401929247086663,"true"
"image-keyboard-response",442,403369,"0.0-4.143-1.143","ug1q10jjktnxgcd",323,"90.csv","","null","resources/maskTrios/L1BB.jpg","null","",NA,NA,NA,NA,""
"image-keyboard-response",443,404572,"0.0-4.143-2.143","ug1q10jjktnxgcd",323,"90.csv","","null","resources/images/coin2.png","null","",NA,NA,NA,NA,""
"image-keyboard-response",444,404876,"0.0-4.144-0.144","ug1q10jjktnxgcd",323,"90.csv","","302","resources/trios/L1T4A3.jpg","37","restless",0.3,0.3,0.6,0.701951263988381,"false"
"image-keyboard-response",445,405277,"0.0-4.144-1.144","ug1q10jjktnxgcd",323,"90.csv","","null","resources/maskTrios/L1BB.jpg","null","",NA,NA,NA,NA,""
"image-keyboard-response",446,406480,"0.0-4.144-2.144","ug1q10jjktnxgcd",323,"90.csv","","null","resources/images/fishbone.png","null","",NA,NA,NA,NA,""
"image-keyboard-response",447,406744,"0.0-4.145-0.145","ug1q10jjktnxgcd",323,"90.csv","","261","resources/trios/L1T4A3.jpg","37","restless",0.4,0.3,0.6,0.818514152072768,"false"
"image-keyboard-response",448,407145,"0.0-4.145-1.145","ug1q10jjktnxgcd",323,"90.csv","","null","resources/maskTrios/L1BB.jpg","null","",NA,NA,NA,NA,""
"image-keyboard-response",449,408348,"0.0-4.145-2.145","ug1q10jjktnxgcd",323,"90.csv","","null","resources/images/fishbone.png","null","",NA,NA,NA,NA,""
"image-keyboard-response",450,408560,"0.0-4.146-0.146","ug1q10jjktnxgcd",323,"90.csv","","211.0000000000582","resources/trios/L1T4A3.jpg","38","restless",0.4,0.3,0.6,0.00978002726390181,"true"
"image-keyboard-response",451,408962,"0.0-4.146-1.146","ug1q10jjktnxgcd",323,"90.csv","","null","resources/maskTrios/BT4B.jpg","null","",NA,NA,NA,NA,""
"image-keyboard-response",452,410164,"0.0-4.146-2.146","ug1q10jjktnxgcd",323,"90.csv","","null","resources/images/coin2.png","null","",NA,NA,NA,NA,""
"image-keyboard-response",453,410392,"0.0-4.147-0.147","ug1q10jjktnxgcd",323,"90.csv","","224.9999999999418","resources/trios/L1T4A3.jpg","39","restless",0.4,0.3,0.6,0.405468566850905,"true"
"image-keyboard-response",454,410795,"0.0-4.147-1.147","ug1q10jjktnxgcd",323,"90.csv","","null","resources/maskTrios/BBA3.jpg","null","",NA,NA,NA,NA,""
"image-keyboard-response",455,411998,"0.0-4.147-2.147","ug1q10jjktnxgcd",323,"90.csv","","null","resources/images/coin2.png","null","",NA,NA,NA,NA,""
"image-keyboard-response",456,412261,"0.0-4.148-0.148","ug1q10jjktnxgcd",323,"90.csv","","260.9999999999418","resources/trios/L1T4A3.jpg","37","restless",0.4,0.3,0.6,0.840463737218066,"false"
"image-keyboard-response",457,412663,"0.0-4.148-1.148","ug1q10jjktnxgcd",323,"90.csv","","null","resources/maskTrios/L1BB.jpg","null","",NA,NA,NA,NA,""
"image-keyboard-response",458,413867,"0.0-4.148-2.148","ug1q10jjktnxgcd",323,"90.csv","","null","resources/images/fishbone.png","null","",NA,NA,NA,NA,""
"image-keyboard-response",459,414163,"0.0-4.149-0.149","ug1q10jjktnxgcd",323,"90.csv","","293","resources/trios/L1T4A3.jpg","38","restless",0.4,0.3,0.6,0.425350909532768,"false"
"image-keyboard-response",460,414567,"0.0-4.149-1.149","ug1q10jjktnxgcd",323,"90.csv","","null","resources/maskTrios/BT4B.jpg","null","",NA,NA,NA,NA,""
"image-keyboard-response",461,415770,"0.0-4.149-2.149","ug1q10jjktnxgcd",323,"90.csv","","null","resources/images/fishbone.png","null","",NA,NA,NA,NA,""
"image-keyboard-response",462,416021,"0.0-4.150-0.150","ug1q10jjktnxgcd",323,"90.csv","","249","resources/trios/L1T4A3.jpg","39","restless",0.4,0.3,0.6,0.643791854796843,"false"
"image-keyboard-response",463,416423,"0.0-4.150-1.150","ug1q10jjktnxgcd",323,"90.csv","","null","resources/maskTrios/BBA3.jpg","null","",NA,NA,NA,NA,""
"image-keyboard-response",464,417625,"0.0-4.150-2.150","ug1q10jjktnxgcd",323,"90.csv","","null","resources/images/fishbone.png","null","",NA,NA,NA,NA,""
"image-keyboard-response",465,417946,"0.0-4.151-0.151","ug1q10jjktnxgcd",323,"90.csv","","317","resources/trios/L1T4A3.jpg","37","restless",0.4,0.3,0.6,0.914590218675961,"false"
"image-keyboard-response",466,418348,"0.0-4.151-1.151","ug1q10jjktnxgcd",323,"90.csv","","null","resources/maskTrios/L1BB.jpg","null","",NA,NA,NA,NA,""
"image-keyboard-response",467,419551,"0.0-4.151-2.151","ug1q10jjktnxgcd",323,"90.csv","","null","resources/images/fishbone.png","null","",NA,NA,NA,NA,""
"image-keyboard-response",468,419810,"0.0-4.152-0.152","ug1q10jjktnxgcd",323,"90.csv","","257","resources/trios/L1T4A3.jpg","37","restless",0.4,0.3,0.6,0.67490451752567,"false"
"image-keyboard-response",469,420213,"0.0-4.152-1.152","ug1q10jjktnxgcd",323,"90.csv","","null","resources/maskTrios/L1BB.jpg","null","",NA,NA,NA,NA,""
"image-keyboard-response",470,421415,"0.0-4.152-2.152","ug1q10jjktnxgcd",323,"90.csv","","null","resources/images/fishbone.png","null","",NA,NA,NA,NA,""
"image-keyboard-response",471,421634,"0.0-4.153-0.153","ug1q10jjktnxgcd",323,"90.csv","","217","resources/trios/L1T4A3.jpg","37","restless",0.4,0.3,0.6,0.687492415683296,"false"
"image-keyboard-response",472,422035,"0.0-4.153-1.153","ug1q10jjktnxgcd",323,"90.csv","","null","resources/maskTrios/L1BB.jpg","null","",NA,NA,NA,NA,""
"image-keyboard-response",473,423237,"0.0-4.153-2.153","ug1q10jjktnxgcd",323,"90.csv","","null","resources/images/fishbone.png","null","",NA,NA,NA,NA,""
"image-keyboard-response",474,423477,"0.0-4.154-0.154","ug1q10jjktnxgcd",323,"90.csv","","238","resources/trios/L1T4A3.jpg","37","restless",0.4,0.3,0.6,0.214856868586321,"true"
"image-keyboard-response",475,423879,"0.0-4.154-1.154","ug1q10jjktnxgcd",323,"90.csv","","null","resources/maskTrios/L1BB.jpg","null","",NA,NA,NA,NA,""
"image-keyboard-response",476,425082,"0.0-4.154-2.154","ug1q10jjktnxgcd",323,"90.csv","","null","resources/images/coin2.png","null","",NA,NA,NA,NA,""
"image-keyboard-response",477,425351,"0.0-4.155-0.155","ug1q10jjktnxgcd",323,"90.csv","","266.0000000000582","resources/trios/L1T4A3.jpg","37","restless",0.4,0.3,0.6,0.694274507972112,"false"
"image-keyboard-response",478,425753,"0.0-4.155-1.155","ug1q10jjktnxgcd",323,"90.csv","","null","resources/maskTrios/L1BB.jpg","null","",NA,NA,NA,NA,""
"image-keyboard-response",479,426956,"0.0-4.155-2.155","ug1q10jjktnxgcd",323,"90.csv","","null","resources/images/fishbone.png","null","",NA,NA,NA,NA,""
"image-keyboard-response",480,427170,"0.0-4.156-0.156","ug1q10jjktnxgcd",323,"90.csv","","212","resources/trios/L1T4A3.jpg","37","restless",0.4,0.2,0.6,0.254910894646036,"true"
"image-keyboard-response",481,427573,"0.0-4.156-1.156","ug1q10jjktnxgcd",323,"90.csv","","null","resources/maskTrios/L1BB.jpg","null","",NA,NA,NA,NA,""
"image-keyboard-response",482,428778,"0.0-4.156-2.156","ug1q10jjktnxgcd",323,"90.csv","","null","resources/images/coin2.png","null","",NA,NA,NA,NA,""
"image-keyboard-response",483,428784,"0.0-4.157-0.157","ug1q10jjktnxgcd",323,"90.csv","","4","resources/trios/L1T4A3.jpg","37","restless",0.4,0.2,0.6,0.968622737215122,"false"
"image-keyboard-response",484,429186,"0.0-4.157-1.157","ug1q10jjktnxgcd",323,"90.csv","","null","resources/maskTrios/L1BB.jpg","null","",NA,NA,NA,NA,""
"image-keyboard-response",485,430388,"0.0-4.157-2.157","ug1q10jjktnxgcd",323,"90.csv","","null","resources/images/fishbone.png","null","",NA,NA,NA,NA,""
"image-keyboard-response",486,430660,"0.0-4.158-0.158","ug1q10jjktnxgcd",323,"90.csv","","269","resources/trios/L1T4A3.jpg","38","restless",0.4,0.2,0.6,0.0270982032757864,"true"
"image-keyboard-response",487,431063,"0.0-4.158-1.158","ug1q10jjktnxgcd",323,"90.csv","","null","resources/maskTrios/BT4B.jpg","null","",NA,NA,NA,NA,""
"image-keyboard-response",488,432266,"0.0-4.158-2.158","ug1q10jjktnxgcd",323,"90.csv","","null","resources/images/coin2.png","null","",NA,NA,NA,NA,""
"image-keyboard-response",489,432545,"0.0-4.159-0.159","ug1q10jjktnxgcd",323,"90.csv","","272","resources/trios/L1T4A3.jpg","38","restless",0.4,0.2,0.6,0.788275587892529,"false"
"image-keyboard-response",490,432947,"0.0-4.159-1.159","ug1q10jjktnxgcd",323,"90.csv","","null","resources/maskTrios/BT4B.jpg","null","",NA,NA,NA,NA,""
"image-keyboard-response",491,434150,"0.0-4.159-2.159","ug1q10jjktnxgcd",323,"90.csv","","null","resources/images/fishbone.png","null","",NA,NA,NA,NA,""
"image-keyboard-response",492,434444,"0.0-4.160-0.160","ug1q10jjktnxgcd",323,"90.csv","","291","resources/trios/L1T4A3.jpg","38","restless",0.4,0.2,0.6,0.168181983081178,"true"
"image-keyboard-response",493,434847,"0.0-4.160-1.160","ug1q10jjktnxgcd",323,"90.csv","","null","resources/maskTrios/BT4B.jpg","null","",NA,NA,NA,NA,""
"image-keyboard-response",494,436050,"0.0-4.160-2.160","ug1q10jjktnxgcd",323,"90.csv","","null","resources/images/coin2.png","null","",NA,NA,NA,NA,""
"image-keyboard-response",495,436264,"0.0-4.161-0.161","ug1q10jjktnxgcd",323,"90.csv","","210.9999999999418","resources/trios/L1T4A3.jpg","39","restless",0.5,0.2,0.6,0.0871847896974061,"true"
"image-keyboard-response",496,436668,"0.0-4.161-1.161","ug1q10jjktnxgcd",323,"90.csv","","null","resources/maskTrios/BBA3.jpg","null","",NA,NA,NA,NA,""
"image-keyboard-response",497,437873,"0.0-4.161-2.161","ug1q10jjktnxgcd",323,"90.csv","","null","resources/images/coin2.png","null","",NA,NA,NA,NA,""
"image-keyboard-response",498,438254,"0.0-4.162-0.162","ug1q10jjktnxgcd",323,"90.csv","","377.9999999999418","resources/trios/L1T4A3.jpg","37","restless",0.5,0.1,0.6,0.760098017103429,"false"
"image-keyboard-response",499,438657,"0.0-4.162-1.162","ug1q10jjktnxgcd",323,"90.csv","","null","resources/maskTrios/L1BB.jpg","null","",NA,NA,NA,NA,""
"image-keyboard-response",500,439859,"0.0-4.162-2.162","ug1q10jjktnxgcd",323,"90.csv","","null","resources/images/fishbone.png","null","",NA,NA,NA,NA,""
"image-keyboard-response",501,440214,"0.0-4.163-0.163","ug1q10jjktnxgcd",323,"90.csv","","353.0000000000582","resources/trios/L1T4A3.jpg","37","restless",0.5,0.1,0.7,0.833455693800101,"false"
"image-keyboard-response",502,440616,"0.0-4.163-1.163","ug1q10jjktnxgcd",323,"90.csv","","null","resources/maskTrios/L1BB.jpg","null","",NA,NA,NA,NA,""
"image-keyboard-response",503,441818,"0.0-4.163-2.163","ug1q10jjktnxgcd",323,"90.csv","","null","resources/images/fishbone.png","null","",NA,NA,NA,NA,""
"image-keyboard-response",504,442032,"0.0-4.164-0.164","ug1q10jjktnxgcd",323,"90.csv","","212","resources/trios/L1T4A3.jpg","39","restless",0.5,0.1,0.7,0.986965816777199,"false"
"image-keyboard-response",505,442435,"0.0-4.164-1.164","ug1q10jjktnxgcd",323,"90.csv","","null","resources/maskTrios/BBA3.jpg","null","",NA,NA,NA,NA,""
"image-keyboard-response",506,443637,"0.0-4.164-2.164","ug1q10jjktnxgcd",323,"90.csv","","null","resources/images/fishbone.png","null","",NA,NA,NA,NA,""
"image-keyboard-response",507,443931,"0.0-4.165-0.165","ug1q10jjktnxgcd",323,"90.csv","","292","resources/trios/L1T4A3.jpg","38","restless",0.5,0.2,0.7,0.531302481169279,"false"
"image-keyboard-response",508,444334,"0.0-4.165-1.165","ug1q10jjktnxgcd",323,"90.csv","","null","resources/maskTrios/BT4B.jpg","null","",NA,NA,NA,NA,""
"image-keyboard-response",509,445536,"0.0-4.165-2.165","ug1q10jjktnxgcd",323,"90.csv","","null","resources/images/fishbone.png","null","",NA,NA,NA,NA,""
"image-keyboard-response",510,445783,"0.0-4.166-0.166","ug1q10jjktnxgcd",323,"90.csv","","244","resources/trios/L1T4A3.jpg","39","restless",0.5,0.2,0.7,0.789982086917292,"false"
"image-keyboard-response",511,446185,"0.0-4.166-1.166","ug1q10jjktnxgcd",323,"90.csv","","null","resources/maskTrios/BBA3.jpg","null","",NA,NA,NA,NA,""
"image-keyboard-response",512,447388,"0.0-4.166-2.166","ug1q10jjktnxgcd",323,"90.csv","","null","resources/images/fishbone.png","null","",NA,NA,NA,NA,""
"image-keyboard-response",513,447551,"0.0-4.167-0.167","ug1q10jjktnxgcd",323,"90.csv","","158","resources/trios/L1T4A3.jpg","37","restless",0.5,0.2,0.7,0.750724020822701,"false"
"image-keyboard-response",514,447952,"0.0-4.167-1.167","ug1q10jjktnxgcd",323,"90.csv","","null","resources/maskTrios/L1BB.jpg","null","",NA,NA,NA,NA,""
"image-keyboard-response",515,449156,"0.0-4.167-2.167","ug1q10jjktnxgcd",323,"90.csv","","null","resources/images/fishbone.png","null","",NA,NA,NA,NA,""
"image-keyboard-response",516,449165,"0.0-4.168-0.168","ug1q10jjktnxgcd",323,"90.csv","","6","resources/trios/L1T4A3.jpg","39","restless",0.6,0.2,0.7,0.116242232571808,"true"
"image-keyboard-response",517,449567,"0.0-4.168-1.168","ug1q10jjktnxgcd",323,"90.csv","","null","resources/maskTrios/BBA3.jpg","null","",NA,NA,NA,NA,""
"image-keyboard-response",518,450770,"0.0-4.168-2.168","ug1q10jjktnxgcd",323,"90.csv","","null","resources/images/coin2.png","null","",NA,NA,NA,NA,""
"image-keyboard-response",519,451079,"0.0-4.169-0.169","ug1q10jjktnxgcd",323,"90.csv","","306","resources/trios/L1T4A3.jpg","37","restless",0.6,0.2,0.7,0.697693095666856,"false"
"image-keyboard-response",520,451481,"0.0-4.169-1.169","ug1q10jjktnxgcd",323,"90.csv","","null","resources/maskTrios/L1BB.jpg","null","",NA,NA,NA,NA,""
"image-keyboard-response",521,452684,"0.0-4.169-2.169","ug1q10jjktnxgcd",323,"90.csv","","null","resources/images/fishbone.png","null","",NA,NA,NA,NA,""
"image-keyboard-response",522,452953,"0.0-4.170-0.170","ug1q10jjktnxgcd",323,"90.csv","","267","resources/trios/L1T4A3.jpg","38","restless",0.6,0.2,0.7,0.962818634656772,"false"
"image-keyboard-response",523,453355,"0.0-4.170-1.170","ug1q10jjktnxgcd",323,"90.csv","","null","resources/maskTrios/BT4B.jpg","null","",NA,NA,NA,NA,""
"image-keyboard-response",524,454556,"0.0-4.170-2.170","ug1q10jjktnxgcd",323,"90.csv","","null","resources/images/fishbone.png","null","",NA,NA,NA,NA,""
"image-keyboard-response",525,454794,"0.0-4.171-0.171","ug1q10jjktnxgcd",323,"90.csv","","236","resources/trios/L1T4A3.jpg","37","restless",0.6,0.3,0.7,0.788938207421228,"false"
"image-keyboard-response",526,455196,"0.0-4.171-1.171","ug1q10jjktnxgcd",323,"90.csv","","null","resources/maskTrios/L1BB.jpg","null","",NA,NA,NA,NA,""
"image-keyboard-response",527,456398,"0.0-4.171-2.171","ug1q10jjktnxgcd",323,"90.csv","","null","resources/images/fishbone.png","null","",NA,NA,NA,NA,""
"image-keyboard-response",528,456671,"0.0-4.172-0.172","ug1q10jjktnxgcd",323,"90.csv","","271","resources/trios/L1T4A3.jpg","39","restless",0.7,0.4,0.7,0.142928196066904,"true"
"image-keyboard-response",529,457072,"0.0-4.172-1.172","ug1q10jjktnxgcd",323,"90.csv","","null","resources/maskTrios/BBA3.jpg","null","",NA,NA,NA,NA,""
"image-keyboard-response",530,458275,"0.0-4.172-2.172","ug1q10jjktnxgcd",323,"90.csv","","null","resources/images/coin2.png","null","",NA,NA,NA,NA,""
"image-keyboard-response",531,458671,"0.0-4.173-0.173","ug1q10jjktnxgcd",323,"90.csv","","394","resources/trios/L1T4A3.jpg","39","restless",0.7,0.4,0.7,0.721419436299233,"false"
"image-keyboard-response",532,459073,"0.0-4.173-1.173","ug1q10jjktnxgcd",323,"90.csv","","null","resources/maskTrios/BBA3.jpg","null","",NA,NA,NA,NA,""
"image-keyboard-response",533,460275,"0.0-4.173-2.173","ug1q10jjktnxgcd",323,"90.csv","","null","resources/images/fishbone.png","null","",NA,NA,NA,NA,""
"image-keyboard-response",534,460628,"0.0-4.174-0.174","ug1q10jjktnxgcd",323,"90.csv","","349","resources/trios/L1T4A3.jpg","38","restless",0.7,0.4,0.7,0.336550312573692,"true"
"image-keyboard-response",535,461030,"0.0-4.174-1.174","ug1q10jjktnxgcd",323,"90.csv","","null","resources/maskTrios/BT4B.jpg","null","",NA,NA,NA,NA,""
"image-keyboard-response",536,462232,"0.0-4.174-2.174","ug1q10jjktnxgcd",323,"90.csv","","null","resources/images/coin2.png","null","",NA,NA,NA,NA,""
"image-keyboard-response",537,462613,"0.0-4.175-0.175","ug1q10jjktnxgcd",323,"90.csv","","379","resources/trios/L1T4A3.jpg","39","restless",0.7,0.4,0.7,0.972725197853604,"false"
"image-keyboard-response",538,463015,"0.0-4.175-1.175","ug1q10jjktnxgcd",323,"90.csv","","null","resources/maskTrios/BBA3.jpg","null","",NA,NA,NA,NA,""
"image-keyboard-response",539,464217,"0.0-4.175-2.175","ug1q10jjktnxgcd",323,"90.csv","","null","resources/images/fishbone.png","null","",NA,NA,NA,NA,""
"image-keyboard-response",540,464530,"0.0-4.176-0.176","ug1q10jjktnxgcd",323,"90.csv","","311","resources/trios/L1T4A3.jpg","37","restless",0.7,0.4,0.7,0.224979937346976,"true"
"image-keyboard-response",541,464932,"0.0-4.176-1.176","ug1q10jjktnxgcd",323,"90.csv","","null","resources/maskTrios/L1BB.jpg","null","",NA,NA,NA,NA,""
"image-keyboard-response",542,466135,"0.0-4.176-2.176","ug1q10jjktnxgcd",323,"90.csv","","null","resources/images/coin2.png","null","",NA,NA,NA,NA,""
"image-keyboard-response",543,467232,"0.0-4.177-0.177","ug1q10jjktnxgcd",323,"90.csv","","1094","resources/trios/L1T4A3.jpg","39","restless",0.7,0.4,0.7,0.859484417454714,"false"
"image-keyboard-response",544,467635,"0.0-4.177-1.177","ug1q10jjktnxgcd",323,"90.csv","","null","resources/maskTrios/BBA3.jpg","null","",NA,NA,NA,NA,""
"image-keyboard-response",545,468839,"0.0-4.177-2.177","ug1q10jjktnxgcd",323,"90.csv","","null","resources/images/fishbone.png","null","",NA,NA,NA,NA,""
"image-keyboard-response",546,469155,"0.0-4.178-0.178","ug1q10jjktnxgcd",323,"90.csv","","312.9999999999418","resources/trios/L1T4A3.jpg","38","restless",0.7,0.4,0.7,0.203247829768071,"true"
"image-keyboard-response",547,469557,"0.0-4.178-1.178","ug1q10jjktnxgcd",323,"90.csv","","null","resources/maskTrios/BT4B.jpg","null","",NA,NA,NA,NA,""
"image-keyboard-response",548,470761,"0.0-4.178-2.178","ug1q10jjktnxgcd",323,"90.csv","","null","resources/images/coin2.png","null","",NA,NA,NA,NA,""
"image-keyboard-response",549,471132,"0.0-4.179-0.179","ug1q10jjktnxgcd",323,"90.csv","","368","resources/trios/L1T4A3.jpg","39","restless",0.7,0.4,0.7,0.658098074064249,"true"
"image-keyboard-response",550,471536,"0.0-4.179-1.179","ug1q10jjktnxgcd",323,"90.csv","","null","resources/maskTrios/BBA3.jpg","null","",NA,NA,NA,NA,""
"image-keyboard-response",551,472739,"0.0-4.179-2.179","ug1q10jjktnxgcd",323,"90.csv","","null","resources/images/coin2.png","null","",NA,NA,NA,NA,""
"image-keyboard-response",552,473084,"0.0-4.180-0.180","ug1q10jjktnxgcd",323,"90.csv","","341","resources/trios/L1T4A3.jpg","37","restless",0.6,0.4,0.8,0.959542947258869,"false"
"image-keyboard-response",553,473487,"0.0-4.180-1.180","ug1q10jjktnxgcd",323,"90.csv","","null","resources/maskTrios/L1BB.jpg","null","",NA,NA,NA,NA,""
"image-keyboard-response",554,474690,"0.0-4.180-2.180","ug1q10jjktnxgcd",323,"90.csv","","null","resources/images/fishbone.png","null","",NA,NA,NA,NA,""
"image-keyboard-response",555,474984,"0.0-4.181-0.181","ug1q10jjktnxgcd",323,"90.csv","","291","resources/trios/L1T4A3.jpg","38","restless",0.6,0.4,0.8,0.564362347712806,"false"
"image-keyboard-response",556,475387,"0.0-4.181-1.181","ug1q10jjktnxgcd",323,"90.csv","","null","resources/maskTrios/BT4B.jpg","null","",NA,NA,NA,NA,""
"image-keyboard-response",557,476590,"0.0-4.181-2.181","ug1q10jjktnxgcd",323,"90.csv","","null","resources/images/fishbone.png","null","",NA,NA,NA,NA,""
"image-keyboard-response",558,476908,"0.0-4.182-0.182","ug1q10jjktnxgcd",323,"90.csv","","315","resources/trios/L1T4A3.jpg","38","restless",0.6,0.4,0.8,0.439139062342972,"false"
"image-keyboard-response",559,477310,"0.0-4.182-1.182","ug1q10jjktnxgcd",323,"90.csv","","null","resources/maskTrios/BT4B.jpg","null","",NA,NA,NA,NA,""
"image-keyboard-response",560,478512,"0.0-4.182-2.182","ug1q10jjktnxgcd",323,"90.csv","","null","resources/images/fishbone.png","null","",NA,NA,NA,NA,""
"image-keyboard-response",561,479341,"0.0-4.183-0.183","ug1q10jjktnxgcd",323,"90.csv","","827.0000000000582","resources/trios/L1T4A3.jpg","39","restless",0.6,0.4,0.8,0.178839900985648,"true"
"image-keyboard-response",562,479743,"0.0-4.183-1.183","ug1q10jjktnxgcd",323,"90.csv","","null","resources/maskTrios/BBA3.jpg","null","",NA,NA,NA,NA,""
"image-keyboard-response",563,480945,"0.0-4.183-2.183","ug1q10jjktnxgcd",323,"90.csv","","null","resources/images/coin2.png","null","",NA,NA,NA,NA,""
"image-keyboard-response",564,481303,"0.0-4.184-0.184","ug1q10jjktnxgcd",323,"90.csv","","355","resources/trios/L1T4A3.jpg","37","restless",0.6,0.4,0.8,0.59505231130648,"true"
"image-keyboard-response",565,481706,"0.0-4.184-1.184","ug1q10jjktnxgcd",323,"90.csv","","null","resources/maskTrios/L1BB.jpg","null","",NA,NA,NA,NA,""
"image-keyboard-response",566,482909,"0.0-4.184-2.184","ug1q10jjktnxgcd",323,"90.csv","","null","resources/images/coin2.png","null","",NA,NA,NA,NA,""
"image-keyboard-response",567,483567,"0.0-4.185-0.185","ug1q10jjktnxgcd",323,"90.csv","","655","resources/trios/L1T4A3.jpg","39","restless",0.6,0.5,0.8,0.990547129974346,"false"
"image-keyboard-response",568,483969,"0.0-4.185-1.185","ug1q10jjktnxgcd",323,"90.csv","","null","resources/maskTrios/BBA3.jpg","null","",NA,NA,NA,NA,""
"image-keyboard-response",569,485171,"0.0-4.185-2.185","ug1q10jjktnxgcd",323,"90.csv","","null","resources/images/fishbone.png","null","",NA,NA,NA,NA,""
"image-keyboard-response",570,485527,"0.0-4.186-0.186","ug1q10jjktnxgcd",323,"90.csv","","354","resources/trios/L1T4A3.jpg","38","restless",0.6,0.5,0.8,0.314678652915075,"true"
"image-keyboard-response",571,485930,"0.0-4.186-1.186","ug1q10jjktnxgcd",323,"90.csv","","null","resources/maskTrios/BT4B.jpg","null","",NA,NA,NA,NA,""
"image-keyboard-response",572,487133,"0.0-4.186-2.186","ug1q10jjktnxgcd",323,"90.csv","","null","resources/images/coin2.png","null","",NA,NA,NA,NA,""
"image-keyboard-response",573,487397,"0.0-4.187-0.187","ug1q10jjktnxgcd",323,"90.csv","","262","resources/trios/L1T4A3.jpg","39","restless",0.6,0.5,0.8,0.500738517415872,"true"
"image-keyboard-response",574,487800,"0.0-4.187-1.187","ug1q10jjktnxgcd",323,"90.csv","","null","resources/maskTrios/BBA3.jpg","null","",NA,NA,NA,NA,""
"image-keyboard-response",575,489003,"0.0-4.187-2.187","ug1q10jjktnxgcd",323,"90.csv","","null","resources/images/coin2.png","null","",NA,NA,NA,NA,""
"image-keyboard-response",576,489324,"0.0-4.188-0.188","ug1q10jjktnxgcd",323,"90.csv","","317.9999999999418","resources/trios/L1T4A3.jpg","37","restless",0.6,0.5,0.8,0.0979001329086052,"true"
"image-keyboard-response",577,489727,"0.0-4.188-1.188","ug1q10jjktnxgcd",323,"90.csv","","null","resources/maskTrios/L1BB.jpg","null","",NA,NA,NA,NA,""
"image-keyboard-response",578,490930,"0.0-4.188-2.188","ug1q10jjktnxgcd",323,"90.csv","","null","resources/images/coin2.png","null","",NA,NA,NA,NA,""
"image-keyboard-response",579,491290,"0.0-4.189-0.189","ug1q10jjktnxgcd",323,"90.csv","","351","resources/trios/L1T4A3.jpg","39","restless",0.6,0.5,0.8,0.0586167999369219,"true"
"image-keyboard-response",580,491694,"0.0-4.189-1.189","ug1q10jjktnxgcd",323,"90.csv","","null","resources/maskTrios/BBA3.jpg","null","",NA,NA,NA,NA,""
"image-keyboard-response",581,492898,"0.0-4.189-2.189","ug1q10jjktnxgcd",323,"90.csv","","null","resources/images/coin2.png","null","",NA,NA,NA,NA,""
"image-keyboard-response",582,493265,"0.0-4.190-0.190","ug1q10jjktnxgcd",323,"90.csv","","364","resources/trios/L1T4A3.jpg","38","restless",0.6,0.5,0.8,0.250546811077108,"true"
"image-keyboard-response",583,493668,"0.0-4.190-1.190","ug1q10jjktnxgcd",323,"90.csv","","null","resources/maskTrios/BT4B.jpg","null","",NA,NA,NA,NA,""
"image-keyboard-response",584,494872,"0.0-4.190-2.190","ug1q10jjktnxgcd",323,"90.csv","","null","resources/images/coin2.png","null","",NA,NA,NA,NA,""
"image-keyboard-response",585,495456,"0.0-4.191-0.191","ug1q10jjktnxgcd",323,"90.csv","","579.9999999999418","resources/trios/L1T4A3.jpg","39","restless",0.6,0.5,0.8,0.687854625851442,"true"
"image-keyboard-response",586,495858,"0.0-4.191-1.191","ug1q10jjktnxgcd",323,"90.csv","","null","resources/maskTrios/BBA3.jpg","null","",NA,NA,NA,NA,""
"image-keyboard-response",587,497061,"0.0-4.191-2.191","ug1q10jjktnxgcd",323,"90.csv","","null","resources/images/coin2.png","null","",NA,NA,NA,NA,""
"image-keyboard-response",588,497391,"0.0-4.192-0.192","ug1q10jjktnxgcd",323,"90.csv","","327","resources/trios/L1T4A3.jpg","37","restless",0.6,0.5,0.8,0.792516345701173,"false"
"image-keyboard-response",589,497795,"0.0-4.192-1.192","ug1q10jjktnxgcd",323,"90.csv","","null","resources/maskTrios/L1BB.jpg","null","",NA,NA,NA,NA,""
"image-keyboard-response",590,498998,"0.0-4.192-2.192","ug1q10jjktnxgcd",323,"90.csv","","null","resources/images/fishbone.png","null","",NA,NA,NA,NA,""
"image-keyboard-response",591,499610,"0.0-4.193-0.193","ug1q10jjktnxgcd",323,"90.csv","","608","resources/trios/L1T4A3.jpg","39","restless",0.6,0.5,0.8,0.850747107631241,"false"
"image-keyboard-response",592,500013,"0.0-4.193-1.193","ug1q10jjktnxgcd",323,"90.csv","","null","resources/maskTrios/BBA3.jpg","null","",NA,NA,NA,NA,""
"image-keyboard-response",593,501215,"0.0-4.193-2.193","ug1q10jjktnxgcd",323,"90.csv","","null","resources/images/fishbone.png","null","",NA,NA,NA,NA,""
"image-keyboard-response",594,501534,"0.0-4.194-0.194","ug1q10jjktnxgcd",323,"90.csv","","316","resources/trios/L1T4A3.jpg","38","restless",0.6,0.5,0.8,0.856132055408555,"false"
"image-keyboard-response",595,501937,"0.0-4.194-1.194","ug1q10jjktnxgcd",323,"90.csv","","null","resources/maskTrios/BT4B.jpg","null","",NA,NA,NA,NA,""
"image-keyboard-response",596,503140,"0.0-4.194-2.194","ug1q10jjktnxgcd",323,"90.csv","","null","resources/images/fishbone.png","null","",NA,NA,NA,NA,""
"image-keyboard-response",597,503286,"0.0-4.195-0.195","ug1q10jjktnxgcd",323,"90.csv","","143.9999999999418","resources/trios/L1T4A3.jpg","39","restless",0.6,0.5,0.8,0.691008059238825,"true"
"image-keyboard-response",598,503688,"0.0-4.195-1.195","ug1q10jjktnxgcd",323,"90.csv","","null","resources/maskTrios/BBA3.jpg","null","",NA,NA,NA,NA,""
"image-keyboard-response",599,504892,"0.0-4.195-2.195","ug1q10jjktnxgcd",323,"90.csv","","null","resources/images/coin2.png","null","",NA,NA,NA,NA,""
"image-keyboard-response",600,505217,"0.0-4.196-0.196","ug1q10jjktnxgcd",323,"90.csv","","319.9999999999418","resources/trios/L1T4A3.jpg","37","restless",0.6,0.5,0.8,0.732582540417321,"false"
"image-keyboard-response",601,505619,"0.0-4.196-1.196","ug1q10jjktnxgcd",323,"90.csv","","null","resources/maskTrios/L1BB.jpg","null","",NA,NA,NA,NA,""
"image-keyboard-response",602,506822,"0.0-4.196-2.196","ug1q10jjktnxgcd",323,"90.csv","","null","resources/images/fishbone.png","null","",NA,NA,NA,NA,""
"image-keyboard-response",603,507952,"0.0-4.197-0.197","ug1q10jjktnxgcd",323,"90.csv","","1128.0000000000582","resources/trios/L1T4A3.jpg","39","restless",0.6,0.6,0.8,0.856224301984331,"false"
"image-keyboard-response",604,508353,"0.0-4.197-1.197","ug1q10jjktnxgcd",323,"90.csv","","null","resources/maskTrios/BBA3.jpg","null","",NA,NA,NA,NA,""
"image-keyboard-response",605,509555,"0.0-4.197-2.197","ug1q10jjktnxgcd",323,"90.csv","","null","resources/images/fishbone.png","null","",NA,NA,NA,NA,""
"image-keyboard-response",606,509826,"0.0-4.198-0.198","ug1q10jjktnxgcd",323,"90.csv","","269","resources/trios/L1T4A3.jpg","38","restless",0.6,0.6,0.8,0.162313452315927,"true"
"image-keyboard-response",607,510228,"0.0-4.198-1.198","ug1q10jjktnxgcd",323,"90.csv","","null","resources/maskTrios/BT4B.jpg","null","",NA,NA,NA,NA,""
"image-keyboard-response",608,511431,"0.0-4.198-2.198","ug1q10jjktnxgcd",323,"90.csv","","null","resources/images/coin2.png","null","",NA,NA,NA,NA,""
"image-keyboard-response",609,511657,"0.0-4.199-0.199","ug1q10jjktnxgcd",323,"90.csv","","223.99999999988358","resources/trios/L1T4A3.jpg","39","restless",0.5,0.6,0.8,0.0268953474369233,"true"
"image-keyboard-response",610,512060,"0.0-4.199-1.199","ug1q10jjktnxgcd",323,"90.csv","","null","resources/maskTrios/BBA3.jpg","null","",NA,NA,NA,NA,""
"image-keyboard-response",611,513263,"0.0-4.199-2.199","ug1q10jjktnxgcd",323,"90.csv","","null","resources/images/coin2.png","null","",NA,NA,NA,NA,""
"survey-text",612,561071,"0.0-5.0","ug1q10jjktnxgcd",323,"90.csv","","47802.99999999994","","","",NA,NA,NA,NA,""
