"trial_type","trial_index","time_elapsed","internal_node_id","subject","participantCode","walkNumber","success","rt","stimulus","key_press","test_part","leftProb","midProb","rightProb","generatedNum","correct"
"pavlovia",0,855,"0.0-0.0","4dpnshc31q2v0vl",88,"10.csv","","","","","",NA,NA,NA,NA,""
"fullscreen",1,135029,"0.0-1.0","4dpnshc31q2v0vl",88,"10.csv","true","","","","",NA,NA,NA,NA,""
"survey-html-form",2,146907,"0.0-2.0","4dpnshc31q2v0vl",88,"10.csv","","11876.900000000373","","","",NA,NA,NA,NA,""
"image-keyboard-response",3,160635,"0.0-3.0-0.0","4dpnshc31q2v0vl",88,"10.csv","","13726.100000000093","resources/images/parrot_nobg.png","13","",NA,NA,NA,NA,""
"image-keyboard-response",4,163637,"0.0-3.0-1.0","4dpnshc31q2v0vl",88,"10.csv","","null","resources/image_sets/111.png","null","",NA,NA,NA,NA,""
"image-keyboard-response",5,174955,"0.0-3.0-2.0","4dpnshc31q2v0vl",88,"10.csv","","11317.200000000186","resources/image_sets/left_highlight.png","37","",NA,NA,NA,NA,""
"image-keyboard-response",6,179227,"0.0-3.0-3.0","4dpnshc31q2v0vl",88,"10.csv","","4271","resources/image_sets/mid_highlight.png","38","",NA,NA,NA,NA,""
"image-keyboard-response",7,183538,"0.0-3.0-4.0","4dpnshc31q2v0vl",88,"10.csv","","4309.799999999814","resources/image_sets/right_highlight.png","39","",NA,NA,NA,NA,""
"image-keyboard-response",8,188595,"0.0-3.0-5.0","4dpnshc31q2v0vl",88,"10.csv","","5056","resources/image_sets/111.png","13","",NA,NA,NA,NA,""
"image-keyboard-response",9,191003,"0.0-3.0-6.0","4dpnshc31q2v0vl",88,"10.csv","","2407.5","resources/images/coin2.png","13","",NA,NA,NA,NA,""
"image-keyboard-response",10,193370,"0.0-3.0-7.0","4dpnshc31q2v0vl",88,"10.csv","","2367.2000000001863","resources/images/fishbone.png","13","",NA,NA,NA,NA,""
"html-keyboard-response",11,198570,"0.0-3.0-8.0","4dpnshc31q2v0vl",88,"10.csv","","5199.799999999814","<p>You can track your coin total on the top right of your screen. </p><p>At the end of your journey you will be directed to a survey, so please click on the link before exiting the task</p><p>Press Enter to begin</p>","13","",NA,NA,NA,NA,""
"image-keyboard-response",12,203117,"0.0-4.0-0.0","4dpnshc31q2v0vl",88,"10.csv","","4545.0999999996275","resources/trios/L1T2A2.jpg","37","restless",0.7,0.3,0.9,0.0291158117771055,"true"
"image-keyboard-response",13,203533,"0.0-4.0-1.0","4dpnshc31q2v0vl",88,"10.csv","","null","resources/maskTrios/L1BB.jpg","null","",NA,NA,NA,NA,""
"image-keyboard-response",14,204747,"0.0-4.0-2.0","4dpnshc31q2v0vl",88,"10.csv","","null","resources/images/coin2.png","null","",NA,NA,NA,NA,""
"image-keyboard-response",15,206975,"0.0-4.1-0.1","4dpnshc31q2v0vl",88,"10.csv","","2229.899999999907","resources/trios/L1T2A2.jpg","37","restless",0.7,0.3,0.9,0.40724892353844,"true"
"image-keyboard-response",16,207383,"0.0-4.1-1.1","4dpnshc31q2v0vl",88,"10.csv","","null","resources/maskTrios/L1BB.jpg","null","",NA,NA,NA,NA,""
"image-keyboard-response",17,208594,"0.0-4.1-2.1","4dpnshc31q2v0vl",88,"10.csv","","null","resources/images/coin2.png","null","",NA,NA,NA,NA,""
"image-keyboard-response",18,210720,"0.0-4.2-0.2","4dpnshc31q2v0vl",88,"10.csv","","2125.399999999907","resources/trios/L1T2A2.jpg","37","restless",0.7,0.3,0.9,0.762782910550622,"false"
"image-keyboard-response",19,211123,"0.0-4.2-1.2","4dpnshc31q2v0vl",88,"10.csv","","null","resources/maskTrios/L1BB.jpg","null","",NA,NA,NA,NA,""
"image-keyboard-response",20,212343,"0.0-4.2-2.2","4dpnshc31q2v0vl",88,"10.csv","","null","resources/images/fishbone.png","null","",NA,NA,NA,NA,""
"image-keyboard-response",21,213607,"0.0-4.3-0.3","4dpnshc31q2v0vl",88,"10.csv","","1262.7000000001863","resources/trios/L1T2A2.jpg","39","restless",0.6,0.2,0.9,0.205957129638417,"true"
"image-keyboard-response",22,214008,"0.0-4.3-1.3","4dpnshc31q2v0vl",88,"10.csv","","null","resources/maskTrios/BBA2.jpg","null","",NA,NA,NA,NA,""
"image-keyboard-response",23,215224,"0.0-4.3-2.3","4dpnshc31q2v0vl",88,"10.csv","","null","resources/images/coin2.png","null","",NA,NA,NA,NA,""
"image-keyboard-response",24,216975,"0.0-4.4-0.4","4dpnshc31q2v0vl",88,"10.csv","","1750","resources/trios/L1T2A2.jpg","39","restless",0.5,0.2,0.9,0.344037555170368,"true"
"image-keyboard-response",25,217383,"0.0-4.4-1.4","4dpnshc31q2v0vl",88,"10.csv","","null","resources/maskTrios/BBA2.jpg","null","",NA,NA,NA,NA,""
"image-keyboard-response",26,218603,"0.0-4.4-2.4","4dpnshc31q2v0vl",88,"10.csv","","null","resources/images/coin2.png","null","",NA,NA,NA,NA,""
"image-keyboard-response",27,219591,"0.0-4.5-0.5","4dpnshc31q2v0vl",88,"10.csv","","987.8999999999069","resources/trios/L1T2A2.jpg","38","restless",0.5,0.2,0.9,0.98490652554186,"false"
"image-keyboard-response",28,220003,"0.0-4.5-1.5","4dpnshc31q2v0vl",88,"10.csv","","null","resources/maskTrios/BT2B.jpg","null","",NA,NA,NA,NA,""
"image-keyboard-response",29,221214,"0.0-4.5-2.5","4dpnshc31q2v0vl",88,"10.csv","","null","resources/images/fishbone.png","null","",NA,NA,NA,NA,""
"image-keyboard-response",30,221712,"0.0-4.6-0.6","4dpnshc31q2v0vl",88,"10.csv","","496.5","resources/trios/L1T2A2.jpg","39","restless",0.5,0.2,0.8,0.348905730208914,"true"
"image-keyboard-response",31,222124,"0.0-4.6-1.6","4dpnshc31q2v0vl",88,"10.csv","","null","resources/maskTrios/BBA2.jpg","null","",NA,NA,NA,NA,""
"image-keyboard-response",32,223333,"0.0-4.6-2.6","4dpnshc31q2v0vl",88,"10.csv","","null","resources/images/coin2.png","null","",NA,NA,NA,NA,""
"image-keyboard-response",33,224793,"0.0-4.7-0.7","4dpnshc31q2v0vl",88,"10.csv","","1458.6000000000931","resources/trios/L1T2A2.jpg","39","restless",0.5,0.2,0.8,0.395396387343049,"true"
"image-keyboard-response",34,225213,"0.0-4.7-1.7","4dpnshc31q2v0vl",88,"10.csv","","null","resources/maskTrios/BBA2.jpg","null","",NA,NA,NA,NA,""
"image-keyboard-response",35,226423,"0.0-4.7-2.7","4dpnshc31q2v0vl",88,"10.csv","","null","resources/images/coin2.png","null","",NA,NA,NA,NA,""
"image-keyboard-response",36,228111,"0.0-4.8-0.8","4dpnshc31q2v0vl",88,"10.csv","","1686.7000000001863","resources/trios/L1T2A2.jpg","37","restless",0.6,0.2,0.7,0.223125717747662,"true"
"image-keyboard-response",37,228524,"0.0-4.8-1.8","4dpnshc31q2v0vl",88,"10.csv","","null","resources/maskTrios/L1BB.jpg","null","",NA,NA,NA,NA,""
"image-keyboard-response",38,229744,"0.0-4.8-2.8","4dpnshc31q2v0vl",88,"10.csv","","null","resources/images/coin2.png","null","",NA,NA,NA,NA,""
"image-keyboard-response",39,230775,"0.0-4.9-0.9","4dpnshc31q2v0vl",88,"10.csv","","1030.3999999999069","resources/trios/L1T2A2.jpg","37","restless",0.6,0.2,0.7,0.0288244496461101,"true"
"image-keyboard-response",40,231183,"0.0-4.9-1.9","4dpnshc31q2v0vl",88,"10.csv","","null","resources/maskTrios/L1BB.jpg","null","",NA,NA,NA,NA,""
"image-keyboard-response",41,232394,"0.0-4.9-2.9","4dpnshc31q2v0vl",88,"10.csv","","null","resources/images/coin2.png","null","",NA,NA,NA,NA,""
"image-keyboard-response",42,233224,"0.0-4.10-0.10","4dpnshc31q2v0vl",88,"10.csv","","828.5","resources/trios/L1T2A2.jpg","38","restless",0.6,0.2,0.7,0.142113931465871,"true"
"image-keyboard-response",43,233633,"0.0-4.10-1.10","4dpnshc31q2v0vl",88,"10.csv","","null","resources/maskTrios/BT2B.jpg","null","",NA,NA,NA,NA,""
"image-keyboard-response",44,234843,"0.0-4.10-2.10","4dpnshc31q2v0vl",88,"10.csv","","null","resources/images/coin2.png","null","",NA,NA,NA,NA,""
"image-keyboard-response",45,236071,"0.0-4.11-0.11","4dpnshc31q2v0vl",88,"10.csv","","1226.6000000000931","resources/trios/L1T2A2.jpg","38","restless",0.6,0.2,0.7,0.350856897445547,"false"
"image-keyboard-response",46,236473,"0.0-4.11-1.11","4dpnshc31q2v0vl",88,"10.csv","","null","resources/maskTrios/BT2B.jpg","null","",NA,NA,NA,NA,""
"image-keyboard-response",47,237683,"0.0-4.11-2.11","4dpnshc31q2v0vl",88,"10.csv","","null","resources/images/fishbone.png","null","",NA,NA,NA,NA,""
"image-keyboard-response",48,238111,"0.0-4.12-0.12","4dpnshc31q2v0vl",88,"10.csv","","426","resources/trios/L1T2A2.jpg","39","restless",0.6,0.2,0.7,0.0957895544505081,"true"
"image-keyboard-response",49,238512,"0.0-4.12-1.12","4dpnshc31q2v0vl",88,"10.csv","","null","resources/maskTrios/BBA2.jpg","null","",NA,NA,NA,NA,""
"image-keyboard-response",50,239723,"0.0-4.12-2.12","4dpnshc31q2v0vl",88,"10.csv","","null","resources/images/coin2.png","null","",NA,NA,NA,NA,""
"image-keyboard-response",51,240608,"0.0-4.13-0.13","4dpnshc31q2v0vl",88,"10.csv","","883.1999999997206","resources/trios/L1T2A2.jpg","39","restless",0.6,0.2,0.7,0.195058861782627,"true"
"image-keyboard-response",52,241024,"0.0-4.13-1.13","4dpnshc31q2v0vl",88,"10.csv","","null","resources/maskTrios/BBA2.jpg","null","",NA,NA,NA,NA,""
"image-keyboard-response",53,242233,"0.0-4.13-2.13","4dpnshc31q2v0vl",88,"10.csv","","null","resources/images/coin2.png","null","",NA,NA,NA,NA,""
"image-keyboard-response",54,243336,"0.0-4.14-0.14","4dpnshc31q2v0vl",88,"10.csv","","1101.5","resources/trios/L1T2A2.jpg","39","restless",0.6,0.2,0.7,0.284714272511472,"true"
"image-keyboard-response",55,243744,"0.0-4.14-1.14","4dpnshc31q2v0vl",88,"10.csv","","null","resources/maskTrios/BBA2.jpg","null","",NA,NA,NA,NA,""
"image-keyboard-response",56,244953,"0.0-4.14-2.14","4dpnshc31q2v0vl",88,"10.csv","","null","resources/images/coin2.png","null","",NA,NA,NA,NA,""
"image-keyboard-response",57,245975,"0.0-4.15-0.15","4dpnshc31q2v0vl",88,"10.csv","","1020.1000000000931","resources/trios/L1T2A2.jpg","39","restless",0.6,0.2,0.7,0.0546297374712303,"true"
"image-keyboard-response",58,246393,"0.0-4.15-1.15","4dpnshc31q2v0vl",88,"10.csv","","null","resources/maskTrios/BBA2.jpg","null","",NA,NA,NA,NA,""
"image-keyboard-response",59,247609,"0.0-4.15-2.15","4dpnshc31q2v0vl",88,"10.csv","","null","resources/images/coin2.png","null","",NA,NA,NA,NA,""
"image-keyboard-response",60,249481,"0.0-4.16-0.16","4dpnshc31q2v0vl",88,"10.csv","","1870.8000000002794","resources/trios/L1T2A2.jpg","37","restless",0.6,0.2,0.6,0.13791150123549,"true"
"image-keyboard-response",61,249894,"0.0-4.16-1.16","4dpnshc31q2v0vl",88,"10.csv","","null","resources/maskTrios/L1BB.jpg","null","",NA,NA,NA,NA,""
"image-keyboard-response",62,251114,"0.0-4.16-2.16","4dpnshc31q2v0vl",88,"10.csv","","null","resources/images/coin2.png","null","",NA,NA,NA,NA,""
"image-keyboard-response",63,251871,"0.0-4.17-0.17","4dpnshc31q2v0vl",88,"10.csv","","755.7000000001863","resources/trios/L1T2A2.jpg","37","restless",0.6,0.2,0.6,0.207388102233178,"true"
"image-keyboard-response",64,252285,"0.0-4.17-1.17","4dpnshc31q2v0vl",88,"10.csv","","null","resources/maskTrios/L1BB.jpg","null","",NA,NA,NA,NA,""
"image-keyboard-response",65,253487,"0.0-4.17-2.17","4dpnshc31q2v0vl",88,"10.csv","","null","resources/images/coin2.png","null","",NA,NA,NA,NA,""
"image-keyboard-response",66,254664,"0.0-4.18-0.18","4dpnshc31q2v0vl",88,"10.csv","","1175.1999999997206","resources/trios/L1T2A2.jpg","37","restless",0.6,0.3,0.6,0.522419412363016,"true"
"image-keyboard-response",67,255070,"0.0-4.18-1.18","4dpnshc31q2v0vl",88,"10.csv","","null","resources/maskTrios/L1BB.jpg","null","",NA,NA,NA,NA,""
"image-keyboard-response",68,256273,"0.0-4.18-2.18","4dpnshc31q2v0vl",88,"10.csv","","null","resources/images/coin2.png","null","",NA,NA,NA,NA,""
"image-keyboard-response",69,256784,"0.0-4.19-0.19","4dpnshc31q2v0vl",88,"10.csv","","509.6999999997206","resources/trios/L1T2A2.jpg","39","restless",0.6,0.3,0.6,0.799963522648222,"false"
"image-keyboard-response",70,257187,"0.0-4.19-1.19","4dpnshc31q2v0vl",88,"10.csv","","null","resources/maskTrios/BBA2.jpg","null","",NA,NA,NA,NA,""
"image-keyboard-response",71,258403,"0.0-4.19-2.19","4dpnshc31q2v0vl",88,"10.csv","","null","resources/images/fishbone.png","null","",NA,NA,NA,NA,""
"image-keyboard-response",72,258935,"0.0-4.20-0.20","4dpnshc31q2v0vl",88,"10.csv","","530.2000000001863","resources/trios/L1T2A2.jpg","37","restless",0.6,0.3,0.6,0.775416677526065,"false"
"image-keyboard-response",73,259343,"0.0-4.20-1.20","4dpnshc31q2v0vl",88,"10.csv","","null","resources/maskTrios/L1BB.jpg","null","",NA,NA,NA,NA,""
"image-keyboard-response",74,260563,"0.0-4.20-2.20","4dpnshc31q2v0vl",88,"10.csv","","null","resources/images/fishbone.png","null","",NA,NA,NA,NA,""
"image-keyboard-response",75,260897,"0.0-4.21-0.21","4dpnshc31q2v0vl",88,"10.csv","","332.10000000009313","resources/trios/L1T2A2.jpg","38","restless",0.6,0.3,0.6,0.565600035154522,"false"
"image-keyboard-response",76,261303,"0.0-4.21-1.21","4dpnshc31q2v0vl",88,"10.csv","","null","resources/maskTrios/BT2B.jpg","null","",NA,NA,NA,NA,""
"image-keyboard-response",77,262509,"0.0-4.21-2.21","4dpnshc31q2v0vl",88,"10.csv","","null","resources/images/fishbone.png","null","",NA,NA,NA,NA,""
"image-keyboard-response",78,262935,"0.0-4.22-0.22","4dpnshc31q2v0vl",88,"10.csv","","424.8000000002794","resources/trios/L1T2A2.jpg","39","restless",0.6,0.3,0.6,0.524100277319656,"true"
"image-keyboard-response",79,263343,"0.0-4.22-1.22","4dpnshc31q2v0vl",88,"10.csv","","null","resources/maskTrios/BBA2.jpg","null","",NA,NA,NA,NA,""
"image-keyboard-response",80,264553,"0.0-4.22-2.22","4dpnshc31q2v0vl",88,"10.csv","","null","resources/images/coin2.png","null","",NA,NA,NA,NA,""
"image-keyboard-response",81,265120,"0.0-4.23-0.23","4dpnshc31q2v0vl",88,"10.csv","","565.1000000000931","resources/trios/L1T2A2.jpg","39","restless",0.6,0.3,0.6,0.675809035598401,"false"
"image-keyboard-response",82,265524,"0.0-4.23-1.23","4dpnshc31q2v0vl",88,"10.csv","","null","resources/maskTrios/BBA2.jpg","null","",NA,NA,NA,NA,""
"image-keyboard-response",83,266733,"0.0-4.23-2.23","4dpnshc31q2v0vl",88,"10.csv","","null","resources/images/fishbone.png","null","",NA,NA,NA,NA,""
"image-keyboard-response",84,267804,"0.0-4.24-0.24","4dpnshc31q2v0vl",88,"10.csv","","1073","resources/trios/L1T2A2.jpg","39","restless",0.6,0.3,0.6,0.411583636280401,"true"
"image-keyboard-response",85,268215,"0.0-4.24-1.24","4dpnshc31q2v0vl",88,"10.csv","","null","resources/maskTrios/BBA2.jpg","null","",NA,NA,NA,NA,""
"image-keyboard-response",86,269431,"0.0-4.24-2.24","4dpnshc31q2v0vl",88,"10.csv","","null","resources/images/coin2.png","null","",NA,NA,NA,NA,""
"image-keyboard-response",87,269948,"0.0-4.25-0.25","4dpnshc31q2v0vl",88,"10.csv","","516.1000000000931","resources/trios/L1T2A2.jpg","39","restless",0.6,0.3,0.6,0.928480716379563,"false"
"image-keyboard-response",88,270360,"0.0-4.25-1.25","4dpnshc31q2v0vl",88,"10.csv","","null","resources/maskTrios/BBA2.jpg","null","",NA,NA,NA,NA,""
"image-keyboard-response",89,271565,"0.0-4.25-2.25","4dpnshc31q2v0vl",88,"10.csv","","null","resources/images/fishbone.png","null","",NA,NA,NA,NA,""
"image-keyboard-response",90,271948,"0.0-4.26-0.26","4dpnshc31q2v0vl",88,"10.csv","","381.5","resources/trios/L1T2A2.jpg","37","restless",0.6,0.3,0.6,0.340417752372447,"true"
"image-keyboard-response",91,272360,"0.0-4.26-1.26","4dpnshc31q2v0vl",88,"10.csv","","null","resources/maskTrios/L1BB.jpg","null","",NA,NA,NA,NA,""
"image-keyboard-response",92,273570,"0.0-4.26-2.26","4dpnshc31q2v0vl",88,"10.csv","","null","resources/images/coin2.png","null","",NA,NA,NA,NA,""
"image-keyboard-response",93,274068,"0.0-4.27-0.27","4dpnshc31q2v0vl",88,"10.csv","","497","resources/trios/L1T2A2.jpg","37","restless",0.6,0.3,0.5,0.585595380780936,"true"
"image-keyboard-response",94,274483,"0.0-4.27-1.27","4dpnshc31q2v0vl",88,"10.csv","","null","resources/maskTrios/L1BB.jpg","null","",NA,NA,NA,NA,""
"image-keyboard-response",95,275699,"0.0-4.27-2.27","4dpnshc31q2v0vl",88,"10.csv","","null","resources/images/coin2.png","null","",NA,NA,NA,NA,""
"image-keyboard-response",96,276340,"0.0-4.28-0.28","4dpnshc31q2v0vl",88,"10.csv","","639.1000000000931","resources/trios/L1T2A2.jpg","37","restless",0.6,0.3,0.5,0.329539327449209,"true"
"image-keyboard-response",97,276750,"0.0-4.28-1.28","4dpnshc31q2v0vl",88,"10.csv","","null","resources/maskTrios/L1BB.jpg","null","",NA,NA,NA,NA,""
"image-keyboard-response",98,277960,"0.0-4.28-2.28","4dpnshc31q2v0vl",88,"10.csv","","null","resources/images/coin2.png","null","",NA,NA,NA,NA,""
"image-keyboard-response",99,278444,"0.0-4.29-0.29","4dpnshc31q2v0vl",88,"10.csv","","482.6999999997206","resources/trios/L1T2A2.jpg","37","restless",0.6,0.3,0.5,0.392475147823805,"true"
"image-keyboard-response",100,278850,"0.0-4.29-1.29","4dpnshc31q2v0vl",88,"10.csv","","null","resources/maskTrios/L1BB.jpg","null","",NA,NA,NA,NA,""
"image-keyboard-response",101,280069,"0.0-4.29-2.29","4dpnshc31q2v0vl",88,"10.csv","","null","resources/images/coin2.png","null","",NA,NA,NA,NA,""
"image-keyboard-response",102,280515,"0.0-4.30-0.30","4dpnshc31q2v0vl",88,"10.csv","","445.5","resources/trios/L1T2A2.jpg","37","restless",0.6,0.3,0.5,0.565258656213272,"true"
"image-keyboard-response",103,280919,"0.0-4.30-1.30","4dpnshc31q2v0vl",88,"10.csv","","null","resources/maskTrios/L1BB.jpg","null","",NA,NA,NA,NA,""
"image-keyboard-response",104,282130,"0.0-4.30-2.30","4dpnshc31q2v0vl",88,"10.csv","","null","resources/images/coin2.png","null","",NA,NA,NA,NA,""
"image-keyboard-response",105,282637,"0.0-4.31-0.31","4dpnshc31q2v0vl",88,"10.csv","","505.89999999990687","resources/trios/L1T2A2.jpg","37","restless",0.6,0.3,0.5,0.345860912552781,"true"
"image-keyboard-response",106,283040,"0.0-4.31-1.31","4dpnshc31q2v0vl",88,"10.csv","","null","resources/maskTrios/L1BB.jpg","null","",NA,NA,NA,NA,""
"image-keyboard-response",107,284260,"0.0-4.31-2.31","4dpnshc31q2v0vl",88,"10.csv","","null","resources/images/coin2.png","null","",NA,NA,NA,NA,""
"image-keyboard-response",108,285788,"0.0-4.32-0.32","4dpnshc31q2v0vl",88,"10.csv","","1526.8999999999069","resources/trios/L1T2A2.jpg","37","restless",0.7,0.3,0.5,0.114751110319073,"true"
"image-keyboard-response",109,286190,"0.0-4.32-1.32","4dpnshc31q2v0vl",88,"10.csv","","null","resources/maskTrios/L1BB.jpg","null","",NA,NA,NA,NA,""
"image-keyboard-response",110,287399,"0.0-4.32-2.32","4dpnshc31q2v0vl",88,"10.csv","","null","resources/images/coin2.png","null","",NA,NA,NA,NA,""
"image-keyboard-response",111,288276,"0.0-4.33-0.33","4dpnshc31q2v0vl",88,"10.csv","","876.2000000001863","resources/trios/L1T2A2.jpg","37","restless",0.7,0.4,0.5,0.730581612561857,"false"
"image-keyboard-response",112,288681,"0.0-4.33-1.33","4dpnshc31q2v0vl",88,"10.csv","","null","resources/maskTrios/L1BB.jpg","null","",NA,NA,NA,NA,""
"image-keyboard-response",113,289884,"0.0-4.33-2.33","4dpnshc31q2v0vl",88,"10.csv","","null","resources/images/fishbone.png","null","",NA,NA,NA,NA,""
"image-keyboard-response",114,290172,"0.0-4.34-0.34","4dpnshc31q2v0vl",88,"10.csv","","286.6999999997206","resources/trios/L1T2A2.jpg","39","restless",0.7,0.4,0.5,0.64383294792435,"false"
"image-keyboard-response",115,290583,"0.0-4.34-1.34","4dpnshc31q2v0vl",88,"10.csv","","null","resources/maskTrios/BBA2.jpg","null","",NA,NA,NA,NA,""
"image-keyboard-response",116,291790,"0.0-4.34-2.34","4dpnshc31q2v0vl",88,"10.csv","","null","resources/images/fishbone.png","null","",NA,NA,NA,NA,""
"image-keyboard-response",117,292107,"0.0-4.35-0.35","4dpnshc31q2v0vl",88,"10.csv","","316.10000000009313","resources/trios/L1T2A2.jpg","38","restless",0.6,0.4,0.5,0.503235879598678,"false"
"image-keyboard-response",118,292516,"0.0-4.35-1.35","4dpnshc31q2v0vl",88,"10.csv","","null","resources/maskTrios/BT2B.jpg","null","",NA,NA,NA,NA,""
"image-keyboard-response",119,293720,"0.0-4.35-2.35","4dpnshc31q2v0vl",88,"10.csv","","null","resources/images/fishbone.png","null","",NA,NA,NA,NA,""
"image-keyboard-response",120,294197,"0.0-4.36-0.36","4dpnshc31q2v0vl",88,"10.csv","","476.39999999990687","resources/trios/L1T2A2.jpg","38","restless",0.6,0.4,0.5,0.788067810434492,"false"
"image-keyboard-response",121,294600,"0.0-4.36-1.36","4dpnshc31q2v0vl",88,"10.csv","","null","resources/maskTrios/BT2B.jpg","null","",NA,NA,NA,NA,""
"image-keyboard-response",122,295820,"0.0-4.36-2.36","4dpnshc31q2v0vl",88,"10.csv","","null","resources/images/fishbone.png","null","",NA,NA,NA,NA,""
"image-keyboard-response",123,296131,"0.0-4.37-0.37","4dpnshc31q2v0vl",88,"10.csv","","310.1999999997206","resources/trios/L1T2A2.jpg","37","restless",0.6,0.4,0.5,0.558325846550247,"true"
"image-keyboard-response",124,296549,"0.0-4.37-1.37","4dpnshc31q2v0vl",88,"10.csv","","null","resources/maskTrios/L1BB.jpg","null","",NA,NA,NA,NA,""
"image-keyboard-response",125,297766,"0.0-4.37-2.37","4dpnshc31q2v0vl",88,"10.csv","","null","resources/images/coin2.png","null","",NA,NA,NA,NA,""
"image-keyboard-response",126,298219,"0.0-4.38-0.38","4dpnshc31q2v0vl",88,"10.csv","","452","resources/trios/L1T2A2.jpg","37","restless",0.6,0.4,0.6,0.131265862283133,"true"
"image-keyboard-response",127,298633,"0.0-4.38-1.38","4dpnshc31q2v0vl",88,"10.csv","","null","resources/maskTrios/L1BB.jpg","null","",NA,NA,NA,NA,""
"image-keyboard-response",128,299839,"0.0-4.38-2.38","4dpnshc31q2v0vl",88,"10.csv","","null","resources/images/coin2.png","null","",NA,NA,NA,NA,""
"image-keyboard-response",129,300485,"0.0-4.39-0.39","4dpnshc31q2v0vl",88,"10.csv","","644.2000000001863","resources/trios/L1T2A2.jpg","37","restless",0.6,0.4,0.6,0.110483958578245,"true"
"image-keyboard-response",130,300890,"0.0-4.39-1.39","4dpnshc31q2v0vl",88,"10.csv","","null","resources/maskTrios/L1BB.jpg","null","",NA,NA,NA,NA,""
"image-keyboard-response",131,302099,"0.0-4.39-2.39","4dpnshc31q2v0vl",88,"10.csv","","null","resources/images/coin2.png","null","",NA,NA,NA,NA,""
"image-keyboard-response",132,302460,"0.0-4.40-0.40","4dpnshc31q2v0vl",88,"10.csv","","358.89999999990687","resources/trios/L1T2A2.jpg","37","restless",0.6,0.4,0.6,0.821286502359213,"false"
"image-keyboard-response",133,302865,"0.0-4.40-1.40","4dpnshc31q2v0vl",88,"10.csv","","null","resources/maskTrios/L1BB.jpg","null","",NA,NA,NA,NA,""
"image-keyboard-response",134,304067,"0.0-4.40-2.40","4dpnshc31q2v0vl",88,"10.csv","","null","resources/images/fishbone.png","null","",NA,NA,NA,NA,""
"image-keyboard-response",135,304477,"0.0-4.41-0.41","4dpnshc31q2v0vl",88,"10.csv","","410.1999999997206","resources/trios/L1T2A2.jpg","37","restless",0.6,0.4,0.5,0.0234421707539205,"true"
"image-keyboard-response",136,304899,"0.0-4.41-1.41","4dpnshc31q2v0vl",88,"10.csv","","null","resources/maskTrios/L1BB.jpg","null","",NA,NA,NA,NA,""
"image-keyboard-response",137,306120,"0.0-4.41-2.41","4dpnshc31q2v0vl",88,"10.csv","","null","resources/images/coin2.png","null","",NA,NA,NA,NA,""
"image-keyboard-response",138,306828,"0.0-4.42-0.42","4dpnshc31q2v0vl",88,"10.csv","","706.6000000000931","resources/trios/L1T2A2.jpg","37","restless",0.6,0.4,0.4,0.749009382163373,"false"
"image-keyboard-response",139,307231,"0.0-4.42-1.42","4dpnshc31q2v0vl",88,"10.csv","","null","resources/maskTrios/L1BB.jpg","null","",NA,NA,NA,NA,""
"image-keyboard-response",140,308434,"0.0-4.42-2.42","4dpnshc31q2v0vl",88,"10.csv","","null","resources/images/fishbone.png","null","",NA,NA,NA,NA,""
"image-keyboard-response",141,308707,"0.0-4.43-0.43","4dpnshc31q2v0vl",88,"10.csv","","272.39999999990687","resources/trios/L1T2A2.jpg","39","restless",0.6,0.4,0.3,0.046092676416924,"true"
"image-keyboard-response",142,309120,"0.0-4.43-1.43","4dpnshc31q2v0vl",88,"10.csv","","null","resources/maskTrios/BBA2.jpg","null","",NA,NA,NA,NA,""
"image-keyboard-response",143,310340,"0.0-4.43-2.43","4dpnshc31q2v0vl",88,"10.csv","","null","resources/images/coin2.png","null","",NA,NA,NA,NA,""
"image-keyboard-response",144,310747,"0.0-4.44-0.44","4dpnshc31q2v0vl",88,"10.csv","","406.20000000018626","resources/trios/L1T2A2.jpg","39","restless",0.6,0.4,0.3,0.927827355004289,"false"
"image-keyboard-response",145,311159,"0.0-4.44-1.44","4dpnshc31q2v0vl",88,"10.csv","","null","resources/maskTrios/BBA2.jpg","null","",NA,NA,NA,NA,""
"image-keyboard-response",146,312380,"0.0-4.44-2.44","4dpnshc31q2v0vl",88,"10.csv","","null","resources/images/fishbone.png","null","",NA,NA,NA,NA,""
"image-keyboard-response",147,312763,"0.0-4.45-0.45","4dpnshc31q2v0vl",88,"10.csv","","382.1999999997206","resources/trios/L1T2A2.jpg","38","restless",0.5,0.4,0.3,0.18428866790987,"true"
"image-keyboard-response",148,313165,"0.0-4.45-1.45","4dpnshc31q2v0vl",88,"10.csv","","null","resources/maskTrios/BT2B.jpg","null","",NA,NA,NA,NA,""
"image-keyboard-response",149,314366,"0.0-4.45-2.45","4dpnshc31q2v0vl",88,"10.csv","","null","resources/images/coin2.png","null","",NA,NA,NA,NA,""
"image-keyboard-response",150,314820,"0.0-4.46-0.46","4dpnshc31q2v0vl",88,"10.csv","","452.90000000037253","resources/trios/L1T2A2.jpg","38","restless",0.6,0.4,0.3,0.441219736935239,"false"
"image-keyboard-response",151,315239,"0.0-4.46-1.46","4dpnshc31q2v0vl",88,"10.csv","","null","resources/maskTrios/BT2B.jpg","null","",NA,NA,NA,NA,""
"image-keyboard-response",152,316449,"0.0-4.46-2.46","4dpnshc31q2v0vl",88,"10.csv","","null","resources/images/fishbone.png","null","",NA,NA,NA,NA,""
"image-keyboard-response",153,316764,"0.0-4.47-0.47","4dpnshc31q2v0vl",88,"10.csv","","313.79999999981374","resources/trios/L1T2A2.jpg","38","restless",0.6,0.4,0.3,0.703943215587682,"false"
"image-keyboard-response",154,317170,"0.0-4.47-1.47","4dpnshc31q2v0vl",88,"10.csv","","null","resources/maskTrios/BT2B.jpg","null","",NA,NA,NA,NA,""
"image-keyboard-response",155,318389,"0.0-4.47-2.47","4dpnshc31q2v0vl",88,"10.csv","","null","resources/images/fishbone.png","null","",NA,NA,NA,NA,""
"image-keyboard-response",156,318932,"0.0-4.48-0.48","4dpnshc31q2v0vl",88,"10.csv","","540.8000000002794","resources/trios/L1T2A2.jpg","38","restless",0.6,0.4,0.3,0.873736482354826,"false"
"image-keyboard-response",157,319340,"0.0-4.48-1.48","4dpnshc31q2v0vl",88,"10.csv","","null","resources/maskTrios/BT2B.jpg","null","",NA,NA,NA,NA,""
"image-keyboard-response",158,320549,"0.0-4.48-2.48","4dpnshc31q2v0vl",88,"10.csv","","null","resources/images/fishbone.png","null","",NA,NA,NA,NA,""
"image-keyboard-response",159,320859,"0.0-4.49-0.49","4dpnshc31q2v0vl",88,"10.csv","","307.89999999990687","resources/trios/L1T2A2.jpg","37","restless",0.6,0.4,0.3,0.40720492185059,"true"
"image-keyboard-response",160,321270,"0.0-4.49-1.49","4dpnshc31q2v0vl",88,"10.csv","","null","resources/maskTrios/L1BB.jpg","null","",NA,NA,NA,NA,""
"image-keyboard-response",161,322480,"0.0-4.49-2.49","4dpnshc31q2v0vl",88,"10.csv","","null","resources/images/coin2.png","null","",NA,NA,NA,NA,""
"image-keyboard-response",162,322763,"0.0-4.50-0.50","4dpnshc31q2v0vl",88,"10.csv","","282.39999999990687","resources/trios/L1T2A2.jpg","37","restless",0.6,0.3,0.3,0.53916414838444,"true"
"image-keyboard-response",163,323166,"0.0-4.50-1.50","4dpnshc31q2v0vl",88,"10.csv","","null","resources/maskTrios/L1BB.jpg","null","",NA,NA,NA,NA,""
"image-keyboard-response",164,324381,"0.0-4.50-2.50","4dpnshc31q2v0vl",88,"10.csv","","null","resources/images/coin2.png","null","",NA,NA,NA,NA,""
"image-keyboard-response",165,324701,"0.0-4.51-0.51","4dpnshc31q2v0vl",88,"10.csv","","319.40000000037253","resources/trios/L1T2A2.jpg","37","restless",0.6,0.3,0.3,0.848030093566959,"false"
"image-keyboard-response",166,325120,"0.0-4.51-1.51","4dpnshc31q2v0vl",88,"10.csv","","null","resources/maskTrios/L1BB.jpg","null","",NA,NA,NA,NA,""
"image-keyboard-response",167,326340,"0.0-4.51-2.51","4dpnshc31q2v0vl",88,"10.csv","","null","resources/images/fishbone.png","null","",NA,NA,NA,NA,""
"image-keyboard-response",168,326653,"0.0-4.52-0.52","4dpnshc31q2v0vl",88,"10.csv","","312.20000000018626","resources/trios/L1T2A2.jpg","37","restless",0.6,0.3,0.3,0.975431313714932,"false"
"image-keyboard-response",169,327060,"0.0-4.52-1.52","4dpnshc31q2v0vl",88,"10.csv","","null","resources/maskTrios/L1BB.jpg","null","",NA,NA,NA,NA,""
"image-keyboard-response",170,328273,"0.0-4.52-2.52","4dpnshc31q2v0vl",88,"10.csv","","null","resources/images/fishbone.png","null","",NA,NA,NA,NA,""
"image-keyboard-response",171,328519,"0.0-4.53-0.53","4dpnshc31q2v0vl",88,"10.csv","","244.89999999990687","resources/trios/L1T2A2.jpg","39","restless",0.6,0.3,0.3,0.0769101762230011,"true"
"image-keyboard-response",172,328935,"0.0-4.53-1.53","4dpnshc31q2v0vl",88,"10.csv","","null","resources/maskTrios/BBA2.jpg","null","",NA,NA,NA,NA,""
"image-keyboard-response",173,330137,"0.0-4.53-2.53","4dpnshc31q2v0vl",88,"10.csv","","null","resources/images/coin2.png","null","",NA,NA,NA,NA,""
"image-keyboard-response",174,330455,"0.0-4.54-0.54","4dpnshc31q2v0vl",88,"10.csv","","316.8000000002794","resources/trios/L1T2A2.jpg","39","restless",0.6,0.3,0.3,0.233992173202528,"true"
"image-keyboard-response",175,330867,"0.0-4.54-1.54","4dpnshc31q2v0vl",88,"10.csv","","null","resources/maskTrios/BBA2.jpg","null","",NA,NA,NA,NA,""
"image-keyboard-response",176,332070,"0.0-4.54-2.54","4dpnshc31q2v0vl",88,"10.csv","","null","resources/images/coin2.png","null","",NA,NA,NA,NA,""
"image-keyboard-response",177,332647,"0.0-4.55-0.55","4dpnshc31q2v0vl",88,"10.csv","","576.2000000001863","resources/trios/L1T2A2.jpg","39","restless",0.6,0.4,0.3,0.730571680388864,"false"
"image-keyboard-response",178,333053,"0.0-4.55-1.55","4dpnshc31q2v0vl",88,"10.csv","","null","resources/maskTrios/BBA2.jpg","null","",NA,NA,NA,NA,""
"image-keyboard-response",179,334263,"0.0-4.55-2.55","4dpnshc31q2v0vl",88,"10.csv","","null","resources/images/fishbone.png","null","",NA,NA,NA,NA,""
"image-keyboard-response",180,334655,"0.0-4.56-0.56","4dpnshc31q2v0vl",88,"10.csv","","390.79999999981374","resources/trios/L1T2A2.jpg","39","restless",0.6,0.4,0.3,0.0718095191240027,"true"
"image-keyboard-response",181,335069,"0.0-4.56-1.56","4dpnshc31q2v0vl",88,"10.csv","","null","resources/maskTrios/BBA2.jpg","null","",NA,NA,NA,NA,""
"image-keyboard-response",182,336286,"0.0-4.56-2.56","4dpnshc31q2v0vl",88,"10.csv","","null","resources/images/coin2.png","null","",NA,NA,NA,NA,""
"image-keyboard-response",183,336856,"0.0-4.57-0.57","4dpnshc31q2v0vl",88,"10.csv","","568.7999999998137","resources/trios/L1T2A2.jpg","39","restless",0.6,0.5,0.3,0.966704957666391,"false"
"image-keyboard-response",184,337273,"0.0-4.57-1.57","4dpnshc31q2v0vl",88,"10.csv","","null","resources/maskTrios/BBA2.jpg","null","",NA,NA,NA,NA,""
"image-keyboard-response",185,338483,"0.0-4.57-2.57","4dpnshc31q2v0vl",88,"10.csv","","null","resources/images/fishbone.png","null","",NA,NA,NA,NA,""
"image-keyboard-response",186,338775,"0.0-4.58-0.58","4dpnshc31q2v0vl",88,"10.csv","","290.39999999990687","resources/trios/L1T2A2.jpg","38","restless",0.6,0.5,0.3,0.0333307060109769,"true"
"image-keyboard-response",187,339183,"0.0-4.58-1.58","4dpnshc31q2v0vl",88,"10.csv","","null","resources/maskTrios/BT2B.jpg","null","",NA,NA,NA,NA,""
"image-keyboard-response",188,340403,"0.0-4.58-2.58","4dpnshc31q2v0vl",88,"10.csv","","null","resources/images/coin2.png","null","",NA,NA,NA,NA,""
"image-keyboard-response",189,340791,"0.0-4.59-0.59","4dpnshc31q2v0vl",88,"10.csv","","387.09999999962747","resources/trios/L1T2A2.jpg","38","restless",0.6,0.5,0.3,0.653783466386404,"false"
"image-keyboard-response",190,341203,"0.0-4.59-1.59","4dpnshc31q2v0vl",88,"10.csv","","null","resources/maskTrios/BT2B.jpg","null","",NA,NA,NA,NA,""
"image-keyboard-response",191,342418,"0.0-4.59-2.59","4dpnshc31q2v0vl",88,"10.csv","","null","resources/images/fishbone.png","null","",NA,NA,NA,NA,""
"image-keyboard-response",192,343023,"0.0-4.60-0.60","4dpnshc31q2v0vl",88,"10.csv","","604.2000000001863","resources/trios/L1T2A2.jpg","37","restless",0.7,0.5,0.3,0.531422036588116,"true"
"image-keyboard-response",193,343437,"0.0-4.60-1.60","4dpnshc31q2v0vl",88,"10.csv","","null","resources/maskTrios/L1BB.jpg","null","",NA,NA,NA,NA,""
"image-keyboard-response",194,344643,"0.0-4.60-2.60","4dpnshc31q2v0vl",88,"10.csv","","null","resources/images/coin2.png","null","",NA,NA,NA,NA,""
"image-keyboard-response",195,345023,"0.0-4.61-0.61","4dpnshc31q2v0vl",88,"10.csv","","378.89999999990687","resources/trios/L1T2A2.jpg","37","restless",0.7,0.5,0.3,0.116822791845898,"true"
"image-keyboard-response",196,345443,"0.0-4.61-1.61","4dpnshc31q2v0vl",88,"10.csv","","null","resources/maskTrios/L1BB.jpg","null","",NA,NA,NA,NA,""
"image-keyboard-response",197,346653,"0.0-4.61-2.61","4dpnshc31q2v0vl",88,"10.csv","","null","resources/images/coin2.png","null","",NA,NA,NA,NA,""
"image-keyboard-response",198,347343,"0.0-4.62-0.62","4dpnshc31q2v0vl",88,"10.csv","","689.3999999999069","resources/trios/L1T2A2.jpg","37","restless",0.7,0.5,0.3,0.634565824900697,"true"
"image-keyboard-response",199,347753,"0.0-4.62-1.62","4dpnshc31q2v0vl",88,"10.csv","","null","resources/maskTrios/L1BB.jpg","null","",NA,NA,NA,NA,""
"image-keyboard-response",200,348963,"0.0-4.62-2.62","4dpnshc31q2v0vl",88,"10.csv","","null","resources/images/coin2.png","null","",NA,NA,NA,NA,""
"image-keyboard-response",201,349391,"0.0-4.63-0.63","4dpnshc31q2v0vl",88,"10.csv","","426","resources/trios/L1T2A2.jpg","37","restless",0.7,0.5,0.3,0.280409926508795,"true"
"image-keyboard-response",202,349793,"0.0-4.63-1.63","4dpnshc31q2v0vl",88,"10.csv","","null","resources/maskTrios/L1BB.jpg","null","",NA,NA,NA,NA,""
"image-keyboard-response",203,351003,"0.0-4.63-2.63","4dpnshc31q2v0vl",88,"10.csv","","null","resources/images/coin2.png","null","",NA,NA,NA,NA,""
"image-keyboard-response",204,351447,"0.0-4.64-0.64","4dpnshc31q2v0vl",88,"10.csv","","442.89999999990687","resources/trios/L1T2A2.jpg","37","restless",0.6,0.5,0.3,0.858254416025571,"false"
"image-keyboard-response",205,351852,"0.0-4.64-1.64","4dpnshc31q2v0vl",88,"10.csv","","null","resources/maskTrios/L1BB.jpg","null","",NA,NA,NA,NA,""
"image-keyboard-response",206,353054,"0.0-4.64-2.64","4dpnshc31q2v0vl",88,"10.csv","","null","resources/images/fishbone.png","null","",NA,NA,NA,NA,""
"image-keyboard-response",207,353423,"0.0-4.65-0.65","4dpnshc31q2v0vl",88,"10.csv","","367.6999999997206","resources/trios/L1T2A2.jpg","39","restless",0.6,0.5,0.3,0.760485416220164,"false"
"image-keyboard-response",208,353843,"0.0-4.65-1.65","4dpnshc31q2v0vl",88,"10.csv","","null","resources/maskTrios/BBA2.jpg","null","",NA,NA,NA,NA,""
"image-keyboard-response",209,355063,"0.0-4.65-2.65","4dpnshc31q2v0vl",88,"10.csv","","null","resources/images/fishbone.png","null","",NA,NA,NA,NA,""
"image-keyboard-response",210,355455,"0.0-4.66-0.66","4dpnshc31q2v0vl",88,"10.csv","","391.10000000009313","resources/trios/L1T2A2.jpg","38","restless",0.6,0.5,0.3,0.548570004385867,"false"
"image-keyboard-response",211,355870,"0.0-4.66-1.66","4dpnshc31q2v0vl",88,"10.csv","","null","resources/maskTrios/BT2B.jpg","null","",NA,NA,NA,NA,""
"image-keyboard-response",212,357073,"0.0-4.66-2.66","4dpnshc31q2v0vl",88,"10.csv","","null","resources/images/fishbone.png","null","",NA,NA,NA,NA,""
"image-keyboard-response",213,357361,"0.0-4.67-0.67","4dpnshc31q2v0vl",88,"10.csv","","286.10000000009313","resources/trios/L1T2A2.jpg","39","restless",0.6,0.5,0.3,0.679025782469715,"false"
"image-keyboard-response",214,357768,"0.0-4.67-1.67","4dpnshc31q2v0vl",88,"10.csv","","null","resources/maskTrios/BBA2.jpg","null","",NA,NA,NA,NA,""
"image-keyboard-response",215,358983,"0.0-4.67-2.67","4dpnshc31q2v0vl",88,"10.csv","","null","resources/images/fishbone.png","null","",NA,NA,NA,NA,""
"image-keyboard-response",216,359310,"0.0-4.68-0.68","4dpnshc31q2v0vl",88,"10.csv","","325.70000000018626","resources/trios/L1T2A2.jpg","38","restless",0.6,0.4,0.3,0.908187718875924,"false"
"image-keyboard-response",217,359720,"0.0-4.68-1.68","4dpnshc31q2v0vl",88,"10.csv","","null","resources/maskTrios/BT2B.jpg","null","",NA,NA,NA,NA,""
"image-keyboard-response",218,360923,"0.0-4.68-2.68","4dpnshc31q2v0vl",88,"10.csv","","null","resources/images/fishbone.png","null","",NA,NA,NA,NA,""
"image-keyboard-response",219,361223,"0.0-4.69-0.69","4dpnshc31q2v0vl",88,"10.csv","","298.09999999962747","resources/trios/L1T2A2.jpg","37","restless",0.6,0.4,0.3,0.775177271708213,"false"
"image-keyboard-response",220,361637,"0.0-4.69-1.69","4dpnshc31q2v0vl",88,"10.csv","","null","resources/maskTrios/L1BB.jpg","null","",NA,NA,NA,NA,""
"image-keyboard-response",221,362843,"0.0-4.69-2.69","4dpnshc31q2v0vl",88,"10.csv","","null","resources/images/fishbone.png","null","",NA,NA,NA,NA,""
"image-keyboard-response",222,363215,"0.0-4.70-0.70","4dpnshc31q2v0vl",88,"10.csv","","371.1999999997206","resources/trios/L1T2A2.jpg","37","restless",0.6,0.4,0.3,0.197839305356836,"true"
"image-keyboard-response",223,363623,"0.0-4.70-1.70","4dpnshc31q2v0vl",88,"10.csv","","null","resources/maskTrios/L1BB.jpg","null","",NA,NA,NA,NA,""
"image-keyboard-response",224,364843,"0.0-4.70-2.70","4dpnshc31q2v0vl",88,"10.csv","","null","resources/images/coin2.png","null","",NA,NA,NA,NA,""
"image-keyboard-response",225,365391,"0.0-4.71-0.71","4dpnshc31q2v0vl",88,"10.csv","","547","resources/trios/L1T2A2.jpg","37","restless",0.7,0.4,0.3,0.994104096279377,"false"
"image-keyboard-response",226,365803,"0.0-4.71-1.71","4dpnshc31q2v0vl",88,"10.csv","","null","resources/maskTrios/L1BB.jpg","null","",NA,NA,NA,NA,""
"image-keyboard-response",227,367023,"0.0-4.71-2.71","4dpnshc31q2v0vl",88,"10.csv","","null","resources/images/fishbone.png","null","",NA,NA,NA,NA,""
"image-keyboard-response",228,367303,"0.0-4.72-0.72","4dpnshc31q2v0vl",88,"10.csv","","278.20000000018626","resources/trios/L1T2A2.jpg","39","restless",0.7,0.3,0.3,0.582025731953152,"false"
"image-keyboard-response",229,367723,"0.0-4.72-1.72","4dpnshc31q2v0vl",88,"10.csv","","null","resources/maskTrios/BBA2.jpg","null","",NA,NA,NA,NA,""
"image-keyboard-response",230,368943,"0.0-4.72-2.72","4dpnshc31q2v0vl",88,"10.csv","","null","resources/images/fishbone.png","null","",NA,NA,NA,NA,""
"image-keyboard-response",231,369249,"0.0-4.73-0.73","4dpnshc31q2v0vl",88,"10.csv","","304.09999999962747","resources/trios/L1T2A2.jpg","38","restless",0.7,0.3,0.3,0.761486483906027,"false"
"image-keyboard-response",232,369673,"0.0-4.73-1.73","4dpnshc31q2v0vl",88,"10.csv","","null","resources/maskTrios/BT2B.jpg","null","",NA,NA,NA,NA,""
"image-keyboard-response",233,370893,"0.0-4.73-2.73","4dpnshc31q2v0vl",88,"10.csv","","null","resources/images/fishbone.png","null","",NA,NA,NA,NA,""
"image-keyboard-response",234,371455,"0.0-4.74-0.74","4dpnshc31q2v0vl",88,"10.csv","","560.6000000000931","resources/trios/L1T2A2.jpg","39","restless",0.7,0.3,0.3,0.699283100184382,"false"
"image-keyboard-response",235,371863,"0.0-4.74-1.74","4dpnshc31q2v0vl",88,"10.csv","","null","resources/maskTrios/BBA2.jpg","null","",NA,NA,NA,NA,""
"image-keyboard-response",236,373073,"0.0-4.74-2.74","4dpnshc31q2v0vl",88,"10.csv","","null","resources/images/fishbone.png","null","",NA,NA,NA,NA,""
"image-keyboard-response",237,373455,"0.0-4.75-0.75","4dpnshc31q2v0vl",88,"10.csv","","380.59999999962747","resources/trios/L1T2A2.jpg","38","restless",0.7,0.3,0.3,0.308815515417699,"false"
"image-keyboard-response",238,373873,"0.0-4.75-1.75","4dpnshc31q2v0vl",88,"10.csv","","null","resources/maskTrios/BT2B.jpg","null","",NA,NA,NA,NA,""
"image-keyboard-response",239,375093,"0.0-4.75-2.75","4dpnshc31q2v0vl",88,"10.csv","","null","resources/images/fishbone.png","null","",NA,NA,NA,NA,""
"image-keyboard-response",240,375383,"0.0-4.76-0.76","4dpnshc31q2v0vl",88,"10.csv","","288.29999999981374","resources/trios/L1T2A2.jpg","37","restless",0.7,0.4,0.2,0.370106921925961,"true"
"image-keyboard-response",241,375793,"0.0-4.76-1.76","4dpnshc31q2v0vl",88,"10.csv","","null","resources/maskTrios/L1BB.jpg","null","",NA,NA,NA,NA,""
"image-keyboard-response",242,377003,"0.0-4.76-2.76","4dpnshc31q2v0vl",88,"10.csv","","null","resources/images/coin2.png","null","",NA,NA,NA,NA,""
"image-keyboard-response",243,377271,"0.0-4.77-0.77","4dpnshc31q2v0vl",88,"10.csv","","266.60000000009313","resources/trios/L1T2A2.jpg","37","restless",0.7,0.4,0.2,0.43166418359988,"true"
"image-keyboard-response",244,377683,"0.0-4.77-1.77","4dpnshc31q2v0vl",88,"10.csv","","null","resources/maskTrios/L1BB.jpg","null","",NA,NA,NA,NA,""
"image-keyboard-response",245,378903,"0.0-4.77-2.77","4dpnshc31q2v0vl",88,"10.csv","","null","resources/images/coin2.png","null","",NA,NA,NA,NA,""
"image-keyboard-response",246,379255,"0.0-4.78-0.78","4dpnshc31q2v0vl",88,"10.csv","","350.60000000009313","resources/trios/L1T2A2.jpg","37","restless",0.7,0.4,0.2,0.46673031335613,"true"
"image-keyboard-response",247,379669,"0.0-4.78-1.78","4dpnshc31q2v0vl",88,"10.csv","","null","resources/maskTrios/L1BB.jpg","null","",NA,NA,NA,NA,""
"image-keyboard-response",248,380873,"0.0-4.78-2.78","4dpnshc31q2v0vl",88,"10.csv","","null","resources/images/coin2.png","null","",NA,NA,NA,NA,""
"image-keyboard-response",249,381231,"0.0-4.79-0.79","4dpnshc31q2v0vl",88,"10.csv","","357","resources/trios/L1T2A2.jpg","37","restless",0.7,0.4,0.2,0.199403542643313,"true"
"image-keyboard-response",250,381643,"0.0-4.79-1.79","4dpnshc31q2v0vl",88,"10.csv","","null","resources/maskTrios/L1BB.jpg","null","",NA,NA,NA,NA,""
"image-keyboard-response",251,382853,"0.0-4.79-2.79","4dpnshc31q2v0vl",88,"10.csv","","null","resources/images/coin2.png","null","",NA,NA,NA,NA,""
"image-keyboard-response",252,383207,"0.0-4.80-0.80","4dpnshc31q2v0vl",88,"10.csv","","353.20000000018626","resources/trios/L1T2A2.jpg","37","restless",0.7,0.4,0.3,0.978656089342653,"false"
"image-keyboard-response",253,383613,"0.0-4.80-1.80","4dpnshc31q2v0vl",88,"10.csv","","null","resources/maskTrios/L1BB.jpg","null","",NA,NA,NA,NA,""
"image-keyboard-response",254,384833,"0.0-4.80-2.80","4dpnshc31q2v0vl",88,"10.csv","","null","resources/images/fishbone.png","null","",NA,NA,NA,NA,""
"image-keyboard-response",255,385231,"0.0-4.81-0.81","4dpnshc31q2v0vl",88,"10.csv","","397.70000000018626","resources/trios/L1T2A2.jpg","37","restless",0.7,0.4,0.3,0.977681193370092,"false"
"image-keyboard-response",256,385635,"0.0-4.81-1.81","4dpnshc31q2v0vl",88,"10.csv","","null","resources/maskTrios/L1BB.jpg","null","",NA,NA,NA,NA,""
"image-keyboard-response",257,386837,"0.0-4.81-2.81","4dpnshc31q2v0vl",88,"10.csv","","null","resources/images/fishbone.png","null","",NA,NA,NA,NA,""
"image-keyboard-response",258,387167,"0.0-4.82-0.82","4dpnshc31q2v0vl",88,"10.csv","","328.6999999997206","resources/trios/L1T2A2.jpg","37","restless",0.8,0.4,0.4,0.99751503310362,"false"
"image-keyboard-response",259,387570,"0.0-4.82-1.82","4dpnshc31q2v0vl",88,"10.csv","","null","resources/maskTrios/L1BB.jpg","null","",NA,NA,NA,NA,""
"image-keyboard-response",260,388784,"0.0-4.82-2.82","4dpnshc31q2v0vl",88,"10.csv","","null","resources/images/fishbone.png","null","",NA,NA,NA,NA,""
"image-keyboard-response",261,389079,"0.0-4.83-0.83","4dpnshc31q2v0vl",88,"10.csv","","292.89999999990687","resources/trios/L1T2A2.jpg","39","restless",0.8,0.4,0.4,0.547858081975898,"false"
"image-keyboard-response",262,389484,"0.0-4.83-1.83","4dpnshc31q2v0vl",88,"10.csv","","null","resources/maskTrios/BBA2.jpg","null","",NA,NA,NA,NA,""
"image-keyboard-response",263,390686,"0.0-4.83-2.83","4dpnshc31q2v0vl",88,"10.csv","","null","resources/images/fishbone.png","null","",NA,NA,NA,NA,""
"image-keyboard-response",264,391008,"0.0-4.84-0.84","4dpnshc31q2v0vl",88,"10.csv","","321.89999999990687","resources/trios/L1T2A2.jpg","38","restless",0.9,0.4,0.4,0.834819578231442,"false"
"image-keyboard-response",265,391418,"0.0-4.84-1.84","4dpnshc31q2v0vl",88,"10.csv","","null","resources/maskTrios/BT2B.jpg","null","",NA,NA,NA,NA,""
"image-keyboard-response",266,392620,"0.0-4.84-2.84","4dpnshc31q2v0vl",88,"10.csv","","null","resources/images/fishbone.png","null","",NA,NA,NA,NA,""
"image-keyboard-response",267,392974,"0.0-4.85-0.85","4dpnshc31q2v0vl",88,"10.csv","","352.5","resources/trios/L1T2A2.jpg","37","restless",0.9,0.4,0.4,0.555715699835451,"true"
"image-keyboard-response",268,393392,"0.0-4.85-1.85","4dpnshc31q2v0vl",88,"10.csv","","null","resources/maskTrios/L1BB.jpg","null","",NA,NA,NA,NA,""
"image-keyboard-response",269,394612,"0.0-4.85-2.85","4dpnshc31q2v0vl",88,"10.csv","","null","resources/images/coin2.png","null","",NA,NA,NA,NA,""
"image-keyboard-response",270,394967,"0.0-4.86-0.86","4dpnshc31q2v0vl",88,"10.csv","","353.1999999997206","resources/trios/L1T2A2.jpg","37","restless",0.9,0.4,0.4,0.706471024059186,"true"
"image-keyboard-response",271,395372,"0.0-4.86-1.86","4dpnshc31q2v0vl",88,"10.csv","","null","resources/maskTrios/L1BB.jpg","null","",NA,NA,NA,NA,""
"image-keyboard-response",272,396583,"0.0-4.86-2.86","4dpnshc31q2v0vl",88,"10.csv","","null","resources/images/coin2.png","null","",NA,NA,NA,NA,""
"image-keyboard-response",273,396871,"0.0-4.87-0.87","4dpnshc31q2v0vl",88,"10.csv","","288.10000000009313","resources/trios/L1T2A2.jpg","37","restless",0.9,0.4,0.4,0.0342530686039901,"true"
"image-keyboard-response",274,397283,"0.0-4.87-1.87","4dpnshc31q2v0vl",88,"10.csv","","null","resources/maskTrios/L1BB.jpg","null","",NA,NA,NA,NA,""
"image-keyboard-response",275,398502,"0.0-4.87-2.87","4dpnshc31q2v0vl",88,"10.csv","","null","resources/images/coin2.png","null","",NA,NA,NA,NA,""
"image-keyboard-response",276,398806,"0.0-4.88-0.88","4dpnshc31q2v0vl",88,"10.csv","","302.20000000018626","resources/trios/L1T2A2.jpg","37","restless",0.9,0.4,0.4,0.0968781469806084,"true"
"image-keyboard-response",277,399222,"0.0-4.88-1.88","4dpnshc31q2v0vl",88,"10.csv","","null","resources/maskTrios/L1BB.jpg","null","",NA,NA,NA,NA,""
"image-keyboard-response",278,400433,"0.0-4.88-2.88","4dpnshc31q2v0vl",88,"10.csv","","null","resources/images/coin2.png","null","",NA,NA,NA,NA,""
"image-keyboard-response",279,400704,"0.0-4.89-0.89","4dpnshc31q2v0vl",88,"10.csv","","269.90000000037253","resources/trios/L1T2A2.jpg","37","restless",0.9,0.3,0.4,0.604143765432857,"true"
"image-keyboard-response",280,401112,"0.0-4.89-1.89","4dpnshc31q2v0vl",88,"10.csv","","null","resources/maskTrios/L1BB.jpg","null","",NA,NA,NA,NA,""
"image-keyboard-response",281,402332,"0.0-4.89-2.89","4dpnshc31q2v0vl",88,"10.csv","","null","resources/images/coin2.png","null","",NA,NA,NA,NA,""
"image-keyboard-response",282,402623,"0.0-4.90-0.90","4dpnshc31q2v0vl",88,"10.csv","","288.6999999997206","resources/trios/L1T2A2.jpg","37","restless",0.9,0.3,0.4,0.360230468092015,"true"
"image-keyboard-response",283,403032,"0.0-4.90-1.90","4dpnshc31q2v0vl",88,"10.csv","","null","resources/maskTrios/L1BB.jpg","null","",NA,NA,NA,NA,""
"image-keyboard-response",284,404243,"0.0-4.90-2.90","4dpnshc31q2v0vl",88,"10.csv","","null","resources/images/coin2.png","null","",NA,NA,NA,NA,""
"image-keyboard-response",285,404855,"0.0-4.91-0.91","4dpnshc31q2v0vl",88,"10.csv","","610.5","resources/trios/L1T2A2.jpg","37","restless",0.9,0.3,0.5,0.720844060754672,"true"
"image-keyboard-response",286,405273,"0.0-4.91-1.91","4dpnshc31q2v0vl",88,"10.csv","","null","resources/maskTrios/L1BB.jpg","null","",NA,NA,NA,NA,""
"image-keyboard-response",287,406493,"0.0-4.91-2.91","4dpnshc31q2v0vl",88,"10.csv","","null","resources/images/coin2.png","null","",NA,NA,NA,NA,""
"image-keyboard-response",288,406806,"0.0-4.92-0.92","4dpnshc31q2v0vl",88,"10.csv","","311.89999999990687","resources/trios/L1T2A2.jpg","37","restless",0.9,0.3,0.5,0.0936106743315297,"true"
"image-keyboard-response",289,407213,"0.0-4.92-1.92","4dpnshc31q2v0vl",88,"10.csv","","null","resources/maskTrios/L1BB.jpg","null","",NA,NA,NA,NA,""
"image-keyboard-response",290,408422,"0.0-4.92-2.92","4dpnshc31q2v0vl",88,"10.csv","","null","resources/images/coin2.png","null","",NA,NA,NA,NA,""
"image-keyboard-response",291,408735,"0.0-4.93-0.93","4dpnshc31q2v0vl",88,"10.csv","","310.79999999981374","resources/trios/L1T2A2.jpg","37","restless",0.9,0.3,0.5,0.773173150918036,"true"
"image-keyboard-response",292,409142,"0.0-4.93-1.93","4dpnshc31q2v0vl",88,"10.csv","","null","resources/maskTrios/L1BB.jpg","null","",NA,NA,NA,NA,""
"image-keyboard-response",293,410361,"0.0-4.93-2.93","4dpnshc31q2v0vl",88,"10.csv","","null","resources/images/coin2.png","null","",NA,NA,NA,NA,""
"image-keyboard-response",294,410711,"0.0-4.94-0.94","4dpnshc31q2v0vl",88,"10.csv","","348.70000000018626","resources/trios/L1T2A2.jpg","37","restless",0.9,0.3,0.4,0.988073441524543,"false"
"image-keyboard-response",295,411122,"0.0-4.94-1.94","4dpnshc31q2v0vl",88,"10.csv","","null","resources/maskTrios/L1BB.jpg","null","",NA,NA,NA,NA,""
"image-keyboard-response",296,412332,"0.0-4.94-2.94","4dpnshc31q2v0vl",88,"10.csv","","null","resources/images/fishbone.png","null","",NA,NA,NA,NA,""
"image-keyboard-response",297,412665,"0.0-4.95-0.95","4dpnshc31q2v0vl",88,"10.csv","","331.39999999990687","resources/trios/L1T2A2.jpg","37","restless",0.9,0.3,0.4,0.0678452289990557,"true"
"image-keyboard-response",298,413072,"0.0-4.95-1.95","4dpnshc31q2v0vl",88,"10.csv","","null","resources/maskTrios/L1BB.jpg","null","",NA,NA,NA,NA,""
"image-keyboard-response",299,414292,"0.0-4.95-2.95","4dpnshc31q2v0vl",88,"10.csv","","null","resources/images/coin2.png","null","",NA,NA,NA,NA,""
"image-keyboard-response",300,414607,"0.0-4.96-0.96","4dpnshc31q2v0vl",88,"10.csv","","313.20000000018626","resources/trios/L1T2A2.jpg","37","restless",0.8,0.3,0.4,0.540049640822925,"true"
"image-keyboard-response",301,415019,"0.0-4.96-1.96","4dpnshc31q2v0vl",88,"10.csv","","null","resources/maskTrios/L1BB.jpg","null","",NA,NA,NA,NA,""
"image-keyboard-response",302,416223,"0.0-4.96-2.96","4dpnshc31q2v0vl",88,"10.csv","","null","resources/images/coin2.png","null","",NA,NA,NA,NA,""
"image-keyboard-response",303,416519,"0.0-4.97-0.97","4dpnshc31q2v0vl",88,"10.csv","","294.8000000002794","resources/trios/L1T2A2.jpg","37","restless",0.8,0.3,0.4,0.377436478068559,"true"
"image-keyboard-response",304,416922,"0.0-4.97-1.97","4dpnshc31q2v0vl",88,"10.csv","","null","resources/maskTrios/L1BB.jpg","null","",NA,NA,NA,NA,""
"image-keyboard-response",305,418143,"0.0-4.97-2.97","4dpnshc31q2v0vl",88,"10.csv","","null","resources/images/coin2.png","null","",NA,NA,NA,NA,""
"image-keyboard-response",306,418439,"0.0-4.98-0.98","4dpnshc31q2v0vl",88,"10.csv","","294.5","resources/trios/L1T2A2.jpg","37","restless",0.8,0.3,0.4,0.81304378082051,"false"
"image-keyboard-response",307,418842,"0.0-4.98-1.98","4dpnshc31q2v0vl",88,"10.csv","","null","resources/maskTrios/L1BB.jpg","null","",NA,NA,NA,NA,""
"image-keyboard-response",308,420052,"0.0-4.98-2.98","4dpnshc31q2v0vl",88,"10.csv","","null","resources/images/fishbone.png","null","",NA,NA,NA,NA,""
"image-keyboard-response",309,420343,"0.0-4.99-0.99","4dpnshc31q2v0vl",88,"10.csv","","288.89999999990687","resources/trios/L1T2A2.jpg","37","restless",0.8,0.3,0.4,0.510095317453843,"true"
"image-keyboard-response",310,420753,"0.0-4.99-1.99","4dpnshc31q2v0vl",88,"10.csv","","null","resources/maskTrios/L1BB.jpg","null","",NA,NA,NA,NA,""
"image-keyboard-response",311,421973,"0.0-4.99-2.99","4dpnshc31q2v0vl",88,"10.csv","","null","resources/images/coin2.png","null","",NA,NA,NA,NA,""
"image-keyboard-response",312,422263,"0.0-4.100-0.100","4dpnshc31q2v0vl",88,"10.csv","","289.09999999962747","resources/trios/L1T2A2.jpg","37","restless",0.8,0.3,0.4,0.653349003436025,"true"
"image-keyboard-response",313,422682,"0.0-4.100-1.100","4dpnshc31q2v0vl",88,"10.csv","","null","resources/maskTrios/L1BB.jpg","null","",NA,NA,NA,NA,""
"image-keyboard-response",314,423902,"0.0-4.100-2.100","4dpnshc31q2v0vl",88,"10.csv","","null","resources/images/coin2.png","null","",NA,NA,NA,NA,""
"image-keyboard-response",315,424208,"0.0-4.101-0.101","4dpnshc31q2v0vl",88,"10.csv","","304.8000000002794","resources/trios/L1T2A2.jpg","37","restless",0.8,0.3,0.4,0.343575750085731,"true"
"image-keyboard-response",316,424623,"0.0-4.101-1.101","4dpnshc31q2v0vl",88,"10.csv","","null","resources/maskTrios/L1BB.jpg","null","",NA,NA,NA,NA,""
"image-keyboard-response",317,425842,"0.0-4.101-2.101","4dpnshc31q2v0vl",88,"10.csv","","null","resources/images/coin2.png","null","",NA,NA,NA,NA,""
"image-keyboard-response",318,426151,"0.0-4.102-0.102","4dpnshc31q2v0vl",88,"10.csv","","308","resources/trios/L1T2A2.jpg","37","restless",0.8,0.3,0.4,0.0786022714073178,"true"
"image-keyboard-response",319,426553,"0.0-4.102-1.102","4dpnshc31q2v0vl",88,"10.csv","","null","resources/maskTrios/L1BB.jpg","null","",NA,NA,NA,NA,""
"image-keyboard-response",320,427773,"0.0-4.102-2.102","4dpnshc31q2v0vl",88,"10.csv","","null","resources/images/coin2.png","null","",NA,NA,NA,NA,""
"image-keyboard-response",321,428039,"0.0-4.103-0.103","4dpnshc31q2v0vl",88,"10.csv","","264.59999999962747","resources/trios/L1T2A2.jpg","37","restless",0.8,0.4,0.4,0.293308984047855,"true"
"image-keyboard-response",322,428452,"0.0-4.103-1.103","4dpnshc31q2v0vl",88,"10.csv","","null","resources/maskTrios/L1BB.jpg","null","",NA,NA,NA,NA,""
"image-keyboard-response",323,429672,"0.0-4.103-2.103","4dpnshc31q2v0vl",88,"10.csv","","null","resources/images/coin2.png","null","",NA,NA,NA,NA,""
"image-keyboard-response",324,429975,"0.0-4.104-0.104","4dpnshc31q2v0vl",88,"10.csv","","300.5","resources/trios/L1T2A2.jpg","37","restless",0.8,0.4,0.4,0.695896264250144,"true"
"image-keyboard-response",325,430392,"0.0-4.104-1.104","4dpnshc31q2v0vl",88,"10.csv","","null","resources/maskTrios/L1BB.jpg","null","",NA,NA,NA,NA,""
"image-keyboard-response",326,431602,"0.0-4.104-2.104","4dpnshc31q2v0vl",88,"10.csv","","null","resources/images/coin2.png","null","",NA,NA,NA,NA,""
"image-keyboard-response",327,431878,"0.0-4.105-0.105","4dpnshc31q2v0vl",88,"10.csv","","274.29999999981374","resources/trios/L1T2A2.jpg","37","restless",0.8,0.4,0.4,0.725302348214001,"true"
"image-keyboard-response",328,432282,"0.0-4.105-1.105","4dpnshc31q2v0vl",88,"10.csv","","null","resources/maskTrios/L1BB.jpg","null","",NA,NA,NA,NA,""
"image-keyboard-response",329,433503,"0.0-4.105-2.105","4dpnshc31q2v0vl",88,"10.csv","","null","resources/images/coin2.png","null","",NA,NA,NA,NA,""
"image-keyboard-response",330,433815,"0.0-4.106-0.106","4dpnshc31q2v0vl",88,"10.csv","","310.59999999962747","resources/trios/L1T2A2.jpg","37","restless",0.8,0.4,0.4,0.1371630203645,"true"
"image-keyboard-response",331,434222,"0.0-4.106-1.106","4dpnshc31q2v0vl",88,"10.csv","","null","resources/maskTrios/L1BB.jpg","null","",NA,NA,NA,NA,""
"image-keyboard-response",332,435433,"0.0-4.106-2.106","4dpnshc31q2v0vl",88,"10.csv","","null","resources/images/coin2.png","null","",NA,NA,NA,NA,""
"image-keyboard-response",333,435720,"0.0-4.107-0.107","4dpnshc31q2v0vl",88,"10.csv","","286.10000000009313","resources/trios/L1T2A2.jpg","37","restless",0.8,0.4,0.4,0.173317231931292,"true"
"image-keyboard-response",334,436142,"0.0-4.107-1.107","4dpnshc31q2v0vl",88,"10.csv","","null","resources/maskTrios/L1BB.jpg","null","",NA,NA,NA,NA,""
"image-keyboard-response",335,437352,"0.0-4.107-2.107","4dpnshc31q2v0vl",88,"10.csv","","null","resources/images/coin2.png","null","",NA,NA,NA,NA,""
"image-keyboard-response",336,437671,"0.0-4.108-0.108","4dpnshc31q2v0vl",88,"10.csv","","318","resources/trios/L1T2A2.jpg","37","restless",0.8,0.4,0.4,0.492380483054448,"true"
"image-keyboard-response",337,438092,"0.0-4.108-1.108","4dpnshc31q2v0vl",88,"10.csv","","null","resources/maskTrios/L1BB.jpg","null","",NA,NA,NA,NA,""
"image-keyboard-response",338,439303,"0.0-4.108-2.108","4dpnshc31q2v0vl",88,"10.csv","","null","resources/images/coin2.png","null","",NA,NA,NA,NA,""
"image-keyboard-response",339,439615,"0.0-4.109-0.109","4dpnshc31q2v0vl",88,"10.csv","","310.5","resources/trios/L1T2A2.jpg","37","restless",0.8,0.4,0.4,0.982643809711391,"false"
"image-keyboard-response",340,440022,"0.0-4.109-1.109","4dpnshc31q2v0vl",88,"10.csv","","null","resources/maskTrios/L1BB.jpg","null","",NA,NA,NA,NA,""
"image-keyboard-response",341,441242,"0.0-4.109-2.109","4dpnshc31q2v0vl",88,"10.csv","","null","resources/images/fishbone.png","null","",NA,NA,NA,NA,""
"image-keyboard-response",342,441519,"0.0-4.110-0.110","4dpnshc31q2v0vl",88,"10.csv","","276","resources/trios/L1T2A2.jpg","37","restless",0.8,0.4,0.4,0.336111362208552,"true"
"image-keyboard-response",343,441943,"0.0-4.110-1.110","4dpnshc31q2v0vl",88,"10.csv","","null","resources/maskTrios/L1BB.jpg","null","",NA,NA,NA,NA,""
"image-keyboard-response",344,443153,"0.0-4.110-2.110","4dpnshc31q2v0vl",88,"10.csv","","null","resources/images/coin2.png","null","",NA,NA,NA,NA,""
"image-keyboard-response",345,443504,"0.0-4.111-0.111","4dpnshc31q2v0vl",88,"10.csv","","349.89999999990687","resources/trios/L1T2A2.jpg","37","restless",0.8,0.4,0.4,0.81682887665532,"false"
"image-keyboard-response",346,443919,"0.0-4.111-1.111","4dpnshc31q2v0vl",88,"10.csv","","null","resources/maskTrios/L1BB.jpg","null","",NA,NA,NA,NA,""
"image-keyboard-response",347,445135,"0.0-4.111-2.111","4dpnshc31q2v0vl",88,"10.csv","","null","resources/images/fishbone.png","null","",NA,NA,NA,NA,""
"image-keyboard-response",348,445488,"0.0-4.112-0.112","4dpnshc31q2v0vl",88,"10.csv","","350.89999999990687","resources/trios/L1T2A2.jpg","37","restless",0.8,0.3,0.4,0.342600055923914,"true"
"image-keyboard-response",349,445893,"0.0-4.112-1.112","4dpnshc31q2v0vl",88,"10.csv","","null","resources/maskTrios/L1BB.jpg","null","",NA,NA,NA,NA,""
"image-keyboard-response",350,447112,"0.0-4.112-2.112","4dpnshc31q2v0vl",88,"10.csv","","null","resources/images/coin2.png","null","",NA,NA,NA,NA,""
"image-keyboard-response",351,447680,"0.0-4.113-0.113","4dpnshc31q2v0vl",88,"10.csv","","566.3999999999069","resources/trios/L1T2A2.jpg","37","restless",0.8,0.3,0.4,0.0973903008607242,"true"
"image-keyboard-response",352,448086,"0.0-4.113-1.113","4dpnshc31q2v0vl",88,"10.csv","","null","resources/maskTrios/L1BB.jpg","null","",NA,NA,NA,NA,""
"image-keyboard-response",353,449292,"0.0-4.113-2.113","4dpnshc31q2v0vl",88,"10.csv","","null","resources/images/coin2.png","null","",NA,NA,NA,NA,""
"image-keyboard-response",354,449688,"0.0-4.114-0.114","4dpnshc31q2v0vl",88,"10.csv","","394","resources/trios/L1T2A2.jpg","37","restless",0.8,0.3,0.5,0.854025891162538,"false"
"image-keyboard-response",355,450092,"0.0-4.114-1.114","4dpnshc31q2v0vl",88,"10.csv","","null","resources/maskTrios/L1BB.jpg","null","",NA,NA,NA,NA,""
"image-keyboard-response",356,451312,"0.0-4.114-2.114","4dpnshc31q2v0vl",88,"10.csv","","null","resources/images/fishbone.png","null","",NA,NA,NA,NA,""
"image-keyboard-response",357,451583,"0.0-4.115-0.115","4dpnshc31q2v0vl",88,"10.csv","","269.90000000037253","resources/trios/L1T2A2.jpg","37","restless",0.8,0.3,0.5,0.0480994850807934,"true"
"image-keyboard-response",358,451992,"0.0-4.115-1.115","4dpnshc31q2v0vl",88,"10.csv","","null","resources/maskTrios/L1BB.jpg","null","",NA,NA,NA,NA,""
"image-keyboard-response",359,453202,"0.0-4.115-2.115","4dpnshc31q2v0vl",88,"10.csv","","null","resources/images/coin2.png","null","",NA,NA,NA,NA,""
"image-keyboard-response",360,453543,"0.0-4.116-0.116","4dpnshc31q2v0vl",88,"10.csv","","338.90000000037253","resources/trios/L1T2A2.jpg","37","restless",0.8,0.3,0.5,0.308756312415331,"true"
"image-keyboard-response",361,453962,"0.0-4.116-1.116","4dpnshc31q2v0vl",88,"10.csv","","null","resources/maskTrios/L1BB.jpg","null","",NA,NA,NA,NA,""
"image-keyboard-response",362,455182,"0.0-4.116-2.116","4dpnshc31q2v0vl",88,"10.csv","","null","resources/images/coin2.png","null","",NA,NA,NA,NA,""
"image-keyboard-response",363,455574,"0.0-4.117-0.117","4dpnshc31q2v0vl",88,"10.csv","","390.79999999981374","resources/trios/L1T2A2.jpg","37","restless",0.9,0.3,0.5,0.106346329803397,"true"
"image-keyboard-response",364,455986,"0.0-4.117-1.117","4dpnshc31q2v0vl",88,"10.csv","","null","resources/maskTrios/L1BB.jpg","null","",NA,NA,NA,NA,""
"image-keyboard-response",365,457201,"0.0-4.117-2.117","4dpnshc31q2v0vl",88,"10.csv","","null","resources/images/coin2.png","null","",NA,NA,NA,NA,""
"image-keyboard-response",366,457504,"0.0-4.118-0.118","4dpnshc31q2v0vl",88,"10.csv","","300.60000000009313","resources/trios/L1T2A2.jpg","37","restless",0.9,0.3,0.5,0.530807837533202,"true"
"image-keyboard-response",367,457918,"0.0-4.118-1.118","4dpnshc31q2v0vl",88,"10.csv","","null","resources/maskTrios/L1BB.jpg","null","",NA,NA,NA,NA,""
"image-keyboard-response",368,459134,"0.0-4.118-2.118","4dpnshc31q2v0vl",88,"10.csv","","null","resources/images/coin2.png","null","",NA,NA,NA,NA,""
"image-keyboard-response",369,459480,"0.0-4.119-0.119","4dpnshc31q2v0vl",88,"10.csv","","345.3000000002794","resources/trios/L1T2A2.jpg","37","restless",0.9,0.3,0.5,0.494153181623135,"true"
"image-keyboard-response",370,459892,"0.0-4.119-1.119","4dpnshc31q2v0vl",88,"10.csv","","null","resources/maskTrios/L1BB.jpg","null","",NA,NA,NA,NA,""
"image-keyboard-response",371,461113,"0.0-4.119-2.119","4dpnshc31q2v0vl",88,"10.csv","","null","resources/images/coin2.png","null","",NA,NA,NA,NA,""
"image-keyboard-response",372,461422,"0.0-4.120-0.120","4dpnshc31q2v0vl",88,"10.csv","","308","resources/trios/L1T2A2.jpg","37","restless",0.9,0.3,0.5,0.0303996548941456,"true"
"image-keyboard-response",373,461832,"0.0-4.120-1.120","4dpnshc31q2v0vl",88,"10.csv","","null","resources/maskTrios/L1BB.jpg","null","",NA,NA,NA,NA,""
"image-keyboard-response",374,463042,"0.0-4.120-2.120","4dpnshc31q2v0vl",88,"10.csv","","null","resources/images/coin2.png","null","",NA,NA,NA,NA,""
"image-keyboard-response",375,463383,"0.0-4.121-0.121","4dpnshc31q2v0vl",88,"10.csv","","339.8000000002794","resources/trios/L1T2A2.jpg","37","restless",0.9,0.3,0.5,0.102654511080559,"true"
"image-keyboard-response",376,463802,"0.0-4.121-1.121","4dpnshc31q2v0vl",88,"10.csv","","null","resources/maskTrios/L1BB.jpg","null","",NA,NA,NA,NA,""
"image-keyboard-response",377,465022,"0.0-4.121-2.121","4dpnshc31q2v0vl",88,"10.csv","","null","resources/images/coin2.png","null","",NA,NA,NA,NA,""
"image-keyboard-response",378,465382,"0.0-4.122-0.122","4dpnshc31q2v0vl",88,"10.csv","","358.29999999981374","resources/trios/L1T2A2.jpg","37","restless",0.9,0.3,0.5,0.0325546926994151,"true"
"image-keyboard-response",379,465785,"0.0-4.122-1.122","4dpnshc31q2v0vl",88,"10.csv","","null","resources/maskTrios/L1BB.jpg","null","",NA,NA,NA,NA,""
"image-keyboard-response",380,467002,"0.0-4.122-2.122","4dpnshc31q2v0vl",88,"10.csv","","null","resources/images/coin2.png","null","",NA,NA,NA,NA,""
"image-keyboard-response",381,467366,"0.0-4.123-0.123","4dpnshc31q2v0vl",88,"10.csv","","362.6999999997206","resources/trios/L1T2A2.jpg","37","restless",0.9,0.3,0.5,0.704130164866846,"true"
"image-keyboard-response",382,467781,"0.0-4.123-1.123","4dpnshc31q2v0vl",88,"10.csv","","null","resources/maskTrios/L1BB.jpg","null","",NA,NA,NA,NA,""
"image-keyboard-response",383,468993,"0.0-4.123-2.123","4dpnshc31q2v0vl",88,"10.csv","","null","resources/images/coin2.png","null","",NA,NA,NA,NA,""
"image-keyboard-response",384,469319,"0.0-4.124-0.124","4dpnshc31q2v0vl",88,"10.csv","","324.5","resources/trios/L1T2A2.jpg","37","restless",0.9,0.4,0.5,0.457240671821451,"true"
"image-keyboard-response",385,469732,"0.0-4.124-1.124","4dpnshc31q2v0vl",88,"10.csv","","null","resources/maskTrios/L1BB.jpg","null","",NA,NA,NA,NA,""
"image-keyboard-response",386,470942,"0.0-4.124-2.124","4dpnshc31q2v0vl",88,"10.csv","","null","resources/images/coin2.png","null","",NA,NA,NA,NA,""
"image-keyboard-response",387,471247,"0.0-4.125-0.125","4dpnshc31q2v0vl",88,"10.csv","","302.90000000037253","resources/trios/L1T2A2.jpg","37","restless",0.9,0.4,0.5,0.615541152840794,"true"
"image-keyboard-response",388,471662,"0.0-4.125-1.125","4dpnshc31q2v0vl",88,"10.csv","","null","resources/maskTrios/L1BB.jpg","null","",NA,NA,NA,NA,""
"image-keyboard-response",389,472882,"0.0-4.125-2.125","4dpnshc31q2v0vl",88,"10.csv","","null","resources/images/coin2.png","null","",NA,NA,NA,NA,""
"image-keyboard-response",390,473190,"0.0-4.126-0.126","4dpnshc31q2v0vl",88,"10.csv","","306.60000000009313","resources/trios/L1T2A2.jpg","37","restless",0.9,0.4,0.5,0.301319848681686,"true"
"image-keyboard-response",391,473602,"0.0-4.126-1.126","4dpnshc31q2v0vl",88,"10.csv","","null","resources/maskTrios/L1BB.jpg","null","",NA,NA,NA,NA,""
"image-keyboard-response",392,474822,"0.0-4.126-2.126","4dpnshc31q2v0vl",88,"10.csv","","null","resources/images/coin2.png","null","",NA,NA,NA,NA,""
"image-keyboard-response",393,475231,"0.0-4.127-0.127","4dpnshc31q2v0vl",88,"10.csv","","406.70000000018626","resources/trios/L1T2A2.jpg","37","restless",0.9,0.4,0.5,0.58098737680694,"true"
"image-keyboard-response",394,475642,"0.0-4.127-1.127","4dpnshc31q2v0vl",88,"10.csv","","null","resources/maskTrios/L1BB.jpg","null","",NA,NA,NA,NA,""
"image-keyboard-response",395,476862,"0.0-4.127-2.127","4dpnshc31q2v0vl",88,"10.csv","","null","resources/images/coin2.png","null","",NA,NA,NA,NA,""
"image-keyboard-response",396,477183,"0.0-4.128-0.128","4dpnshc31q2v0vl",88,"10.csv","","319","resources/trios/L1T2A2.jpg","37","restless",0.9,0.4,0.5,0.117198416933956,"true"
"image-keyboard-response",397,477602,"0.0-4.128-1.128","4dpnshc31q2v0vl",88,"10.csv","","null","resources/maskTrios/L1BB.jpg","null","",NA,NA,NA,NA,""
"image-keyboard-response",398,478812,"0.0-4.128-2.128","4dpnshc31q2v0vl",88,"10.csv","","null","resources/images/coin2.png","null","",NA,NA,NA,NA,""
"image-keyboard-response",399,479174,"0.0-4.129-0.129","4dpnshc31q2v0vl",88,"10.csv","","360.5","resources/trios/L1T2A2.jpg","37","restless",0.8,0.4,0.5,0.924628869592669,"false"
"image-keyboard-response",400,479582,"0.0-4.129-1.129","4dpnshc31q2v0vl",88,"10.csv","","null","resources/maskTrios/L1BB.jpg","null","",NA,NA,NA,NA,""
"image-keyboard-response",401,480792,"0.0-4.129-2.129","4dpnshc31q2v0vl",88,"10.csv","","null","resources/images/fishbone.png","null","",NA,NA,NA,NA,""
"image-keyboard-response",402,481318,"0.0-4.130-0.130","4dpnshc31q2v0vl",88,"10.csv","","524.7999999998137","resources/trios/L1T2A2.jpg","37","restless",0.8,0.5,0.5,0.773493969415376,"true"
"image-keyboard-response",403,481742,"0.0-4.130-1.130","4dpnshc31q2v0vl",88,"10.csv","","null","resources/maskTrios/L1BB.jpg","null","",NA,NA,NA,NA,""
"image-keyboard-response",404,482952,"0.0-4.130-2.130","4dpnshc31q2v0vl",88,"10.csv","","null","resources/images/coin2.png","null","",NA,NA,NA,NA,""
"image-keyboard-response",405,483343,"0.0-4.131-0.131","4dpnshc31q2v0vl",88,"10.csv","","388.89999999990687","resources/trios/L1T2A2.jpg","37","restless",0.8,0.4,0.5,0.0111263884797494,"true"
"image-keyboard-response",406,483753,"0.0-4.131-1.131","4dpnshc31q2v0vl",88,"10.csv","","null","resources/maskTrios/L1BB.jpg","null","",NA,NA,NA,NA,""
"image-keyboard-response",407,484972,"0.0-4.131-2.131","4dpnshc31q2v0vl",88,"10.csv","","null","resources/images/coin2.png","null","",NA,NA,NA,NA,""
"image-keyboard-response",408,485383,"0.0-4.132-0.132","4dpnshc31q2v0vl",88,"10.csv","","409.70000000018626","resources/trios/L1T2A2.jpg","37","restless",0.8,0.4,0.5,0.966677993691391,"false"
"image-keyboard-response",409,485793,"0.0-4.132-1.132","4dpnshc31q2v0vl",88,"10.csv","","null","resources/maskTrios/L1BB.jpg","null","",NA,NA,NA,NA,""
"image-keyboard-response",410,487012,"0.0-4.132-2.132","4dpnshc31q2v0vl",88,"10.csv","","null","resources/images/fishbone.png","null","",NA,NA,NA,NA,""
"image-keyboard-response",411,487318,"0.0-4.133-0.133","4dpnshc31q2v0vl",88,"10.csv","","304.10000000009313","resources/trios/L1T2A2.jpg","37","restless",0.8,0.4,0.5,0.79158207010247,"true"
"image-keyboard-response",412,487733,"0.0-4.133-1.133","4dpnshc31q2v0vl",88,"10.csv","","null","resources/maskTrios/L1BB.jpg","null","",NA,NA,NA,NA,""
"image-keyboard-response",413,488942,"0.0-4.133-2.133","4dpnshc31q2v0vl",88,"10.csv","","null","resources/images/coin2.png","null","",NA,NA,NA,NA,""
"image-keyboard-response",414,489246,"0.0-4.134-0.134","4dpnshc31q2v0vl",88,"10.csv","","303.1999999997206","resources/trios/L1T2A2.jpg","37","restless",0.8,0.5,0.6,0.0943739949018372,"true"
"image-keyboard-response",415,489662,"0.0-4.134-1.134","4dpnshc31q2v0vl",88,"10.csv","","null","resources/maskTrios/L1BB.jpg","null","",NA,NA,NA,NA,""
"image-keyboard-response",416,490879,"0.0-4.134-2.134","4dpnshc31q2v0vl",88,"10.csv","","null","resources/images/coin2.png","null","",NA,NA,NA,NA,""
"image-keyboard-response",417,492273,"0.0-4.135-0.135","4dpnshc31q2v0vl",88,"10.csv","","1392.5","resources/trios/L1T2A2.jpg","37","restless",0.8,0.5,0.6,0.454908994782092,"true"
"image-keyboard-response",418,492692,"0.0-4.135-1.135","4dpnshc31q2v0vl",88,"10.csv","","null","resources/maskTrios/L1BB.jpg","null","",NA,NA,NA,NA,""
"image-keyboard-response",419,493902,"0.0-4.135-2.135","4dpnshc31q2v0vl",88,"10.csv","","null","resources/images/coin2.png","null","",NA,NA,NA,NA,""
"image-keyboard-response",420,494303,"0.0-4.136-0.136","4dpnshc31q2v0vl",88,"10.csv","","400","resources/trios/L1T2A2.jpg","37","restless",0.8,0.5,0.6,0.890277011211233,"false"
"image-keyboard-response",421,494713,"0.0-4.136-1.136","4dpnshc31q2v0vl",88,"10.csv","","null","resources/maskTrios/L1BB.jpg","null","",NA,NA,NA,NA,""
"image-keyboard-response",422,495922,"0.0-4.136-2.136","4dpnshc31q2v0vl",88,"10.csv","","null","resources/images/fishbone.png","null","",NA,NA,NA,NA,""
"image-keyboard-response",423,496246,"0.0-4.137-0.137","4dpnshc31q2v0vl",88,"10.csv","","322.39999999990687","resources/trios/L1T2A2.jpg","37","restless",0.8,0.5,0.6,0.070510838210794,"true"
"image-keyboard-response",424,496662,"0.0-4.137-1.137","4dpnshc31q2v0vl",88,"10.csv","","null","resources/maskTrios/L1BB.jpg","null","",NA,NA,NA,NA,""
"image-keyboard-response",425,497883,"0.0-4.137-2.137","4dpnshc31q2v0vl",88,"10.csv","","null","resources/images/coin2.png","null","",NA,NA,NA,NA,""
"image-keyboard-response",426,498182,"0.0-4.138-0.138","4dpnshc31q2v0vl",88,"10.csv","","298","resources/trios/L1T2A2.jpg","37","restless",0.8,0.5,0.6,0.295906472675818,"true"
"image-keyboard-response",427,498602,"0.0-4.138-1.138","4dpnshc31q2v0vl",88,"10.csv","","null","resources/maskTrios/L1BB.jpg","null","",NA,NA,NA,NA,""
"image-keyboard-response",428,499812,"0.0-4.138-2.138","4dpnshc31q2v0vl",88,"10.csv","","null","resources/images/coin2.png","null","",NA,NA,NA,NA,""
"image-keyboard-response",429,500199,"0.0-4.139-0.139","4dpnshc31q2v0vl",88,"10.csv","","384.79999999981374","resources/trios/L1T2A2.jpg","37","restless",0.8,0.5,0.6,0.505510005219237,"true"
"image-keyboard-response",430,500602,"0.0-4.139-1.139","4dpnshc31q2v0vl",88,"10.csv","","null","resources/maskTrios/L1BB.jpg","null","",NA,NA,NA,NA,""
"image-keyboard-response",431,501804,"0.0-4.139-2.139","4dpnshc31q2v0vl",88,"10.csv","","null","resources/images/coin2.png","null","",NA,NA,NA,NA,""
"image-keyboard-response",432,501830,"0.0-4.140-0.140","4dpnshc31q2v0vl",88,"10.csv","","24.600000000093132","resources/trios/L1T2A2.jpg","37","restless",0.8,0.5,0.6,0.50272869725085,"true"
"image-keyboard-response",433,502242,"0.0-4.140-1.140","4dpnshc31q2v0vl",88,"10.csv","","null","resources/maskTrios/L1BB.jpg","null","",NA,NA,NA,NA,""
"image-keyboard-response",434,503462,"0.0-4.140-2.140","4dpnshc31q2v0vl",88,"10.csv","","null","resources/images/coin2.png","null","",NA,NA,NA,NA,""
"image-keyboard-response",435,503991,"0.0-4.141-0.141","4dpnshc31q2v0vl",88,"10.csv","","527.8000000002794","resources/trios/L1T2A2.jpg","37","restless",0.8,0.5,0.6,0.505803509917108,"true"
"image-keyboard-response",436,504402,"0.0-4.141-1.141","4dpnshc31q2v0vl",88,"10.csv","","null","resources/maskTrios/L1BB.jpg","null","",NA,NA,NA,NA,""
"image-keyboard-response",437,505617,"0.0-4.141-2.141","4dpnshc31q2v0vl",88,"10.csv","","null","resources/images/coin2.png","null","",NA,NA,NA,NA,""
"image-keyboard-response",438,506279,"0.0-4.142-0.142","4dpnshc31q2v0vl",88,"10.csv","","659.7000000001863","resources/trios/L1T2A2.jpg","37","restless",0.8,0.5,0.6,0.398270957390267,"true"
"image-keyboard-response",439,506693,"0.0-4.142-1.142","4dpnshc31q2v0vl",88,"10.csv","","null","resources/maskTrios/L1BB.jpg","null","",NA,NA,NA,NA,""
"image-keyboard-response",440,507902,"0.0-4.142-2.142","4dpnshc31q2v0vl",88,"10.csv","","null","resources/images/coin2.png","null","",NA,NA,NA,NA,""
"image-keyboard-response",441,508174,"0.0-4.143-0.143","4dpnshc31q2v0vl",88,"10.csv","","271.10000000009313","resources/trios/L1T2A2.jpg","37","restless",0.8,0.5,0.6,0.330627740013296,"true"
"image-keyboard-response",442,508582,"0.0-4.143-1.143","4dpnshc31q2v0vl",88,"10.csv","","null","resources/maskTrios/L1BB.jpg","null","",NA,NA,NA,NA,""
"image-keyboard-response",443,509802,"0.0-4.143-2.143","4dpnshc31q2v0vl",88,"10.csv","","null","resources/images/coin2.png","null","",NA,NA,NA,NA,""
"image-keyboard-response",444,511549,"0.0-4.144-0.144","4dpnshc31q2v0vl",88,"10.csv","","1746.1000000000931","resources/trios/L1T2A2.jpg","37","restless",0.8,0.5,0.6,0.119018330773364,"true"
"image-keyboard-response",445,511953,"0.0-4.144-1.144","4dpnshc31q2v0vl",88,"10.csv","","null","resources/maskTrios/L1BB.jpg","null","",NA,NA,NA,NA,""
"image-keyboard-response",446,513165,"0.0-4.144-2.144","4dpnshc31q2v0vl",88,"10.csv","","null","resources/images/coin2.png","null","",NA,NA,NA,NA,""
"image-keyboard-response",447,514414,"0.0-4.145-0.145","4dpnshc31q2v0vl",88,"10.csv","","1248.2000000001863","resources/trios/L1T2A2.jpg","37","restless",0.8,0.5,0.6,0.133367795662735,"true"
"image-keyboard-response",448,514822,"0.0-4.145-1.145","4dpnshc31q2v0vl",88,"10.csv","","null","resources/maskTrios/L1BB.jpg","null","",NA,NA,NA,NA,""
"image-keyboard-response",449,516042,"0.0-4.145-2.145","4dpnshc31q2v0vl",88,"10.csv","","null","resources/images/coin2.png","null","",NA,NA,NA,NA,""
"image-keyboard-response",450,516366,"0.0-4.146-0.146","4dpnshc31q2v0vl",88,"10.csv","","322.6999999997206","resources/trios/L1T2A2.jpg","37","restless",0.8,0.5,0.6,0.2565185000784,"true"
"image-keyboard-response",451,516782,"0.0-4.146-1.146","4dpnshc31q2v0vl",88,"10.csv","","null","resources/maskTrios/L1BB.jpg","null","",NA,NA,NA,NA,""
"image-keyboard-response",452,517988,"0.0-4.146-2.146","4dpnshc31q2v0vl",88,"10.csv","","null","resources/images/coin2.png","null","",NA,NA,NA,NA,""
"image-keyboard-response",453,518238,"0.0-4.147-0.147","4dpnshc31q2v0vl",88,"10.csv","","248.60000000009313","resources/trios/L1T2A2.jpg","37","restless",0.8,0.5,0.6,0.0366863264363488,"true"
"image-keyboard-response",454,518652,"0.0-4.147-1.147","4dpnshc31q2v0vl",88,"10.csv","","null","resources/maskTrios/L1BB.jpg","null","",NA,NA,NA,NA,""
"image-keyboard-response",455,519869,"0.0-4.147-2.147","4dpnshc31q2v0vl",88,"10.csv","","null","resources/images/coin2.png","null","",NA,NA,NA,NA,""
"image-keyboard-response",456,520205,"0.0-4.148-0.148","4dpnshc31q2v0vl",88,"10.csv","","335.10000000009313","resources/trios/L1T2A2.jpg","37","restless",0.7,0.5,0.6,0.492755431374028,"true"
"image-keyboard-response",457,520612,"0.0-4.148-1.148","4dpnshc31q2v0vl",88,"10.csv","","null","resources/maskTrios/L1BB.jpg","null","",NA,NA,NA,NA,""
"image-keyboard-response",458,521822,"0.0-4.148-2.148","4dpnshc31q2v0vl",88,"10.csv","","null","resources/images/coin2.png","null","",NA,NA,NA,NA,""
"image-keyboard-response",459,522142,"0.0-4.149-0.149","4dpnshc31q2v0vl",88,"10.csv","","318.5","resources/trios/L1T2A2.jpg","37","restless",0.6,0.5,0.7,0.521556769119437,"true"
"image-keyboard-response",460,522562,"0.0-4.149-1.149","4dpnshc31q2v0vl",88,"10.csv","","null","resources/maskTrios/L1BB.jpg","null","",NA,NA,NA,NA,""
"image-keyboard-response",461,523776,"0.0-4.149-2.149","4dpnshc31q2v0vl",88,"10.csv","","null","resources/images/coin2.png","null","",NA,NA,NA,NA,""
"image-keyboard-response",462,524198,"0.0-4.150-0.150","4dpnshc31q2v0vl",88,"10.csv","","421.60000000009313","resources/trios/L1T2A2.jpg","37","restless",0.5,0.6,0.8,0.951911492721036,"false"
"image-keyboard-response",463,524602,"0.0-4.150-1.150","4dpnshc31q2v0vl",88,"10.csv","","null","resources/maskTrios/L1BB.jpg","null","",NA,NA,NA,NA,""
"image-keyboard-response",464,525803,"0.0-4.150-2.150","4dpnshc31q2v0vl",88,"10.csv","","null","resources/images/fishbone.png","null","",NA,NA,NA,NA,""
"image-keyboard-response",465,526429,"0.0-4.151-0.151","4dpnshc31q2v0vl",88,"10.csv","","625","resources/trios/L1T2A2.jpg","37","restless",0.4,0.6,0.8,0.887720832576288,"false"
"image-keyboard-response",466,526836,"0.0-4.151-1.151","4dpnshc31q2v0vl",88,"10.csv","","null","resources/maskTrios/L1BB.jpg","null","",NA,NA,NA,NA,""
"image-keyboard-response",467,528042,"0.0-4.151-2.151","4dpnshc31q2v0vl",88,"10.csv","","null","resources/images/fishbone.png","null","",NA,NA,NA,NA,""
"image-keyboard-response",468,528350,"0.0-4.152-0.152","4dpnshc31q2v0vl",88,"10.csv","","306.3000000002794","resources/trios/L1T2A2.jpg","37","restless",0.4,0.6,0.8,0.304811412128147,"true"
"image-keyboard-response",469,528752,"0.0-4.152-1.152","4dpnshc31q2v0vl",88,"10.csv","","null","resources/maskTrios/L1BB.jpg","null","",NA,NA,NA,NA,""
"image-keyboard-response",470,529972,"0.0-4.152-2.152","4dpnshc31q2v0vl",88,"10.csv","","null","resources/images/coin2.png","null","",NA,NA,NA,NA,""
"image-keyboard-response",471,530294,"0.0-4.153-0.153","4dpnshc31q2v0vl",88,"10.csv","","320.39999999990687","resources/trios/L1T2A2.jpg","37","restless",0.4,0.6,0.8,0.983430029728229,"false"
"image-keyboard-response",472,530701,"0.0-4.153-1.153","4dpnshc31q2v0vl",88,"10.csv","","null","resources/maskTrios/L1BB.jpg","null","",NA,NA,NA,NA,""
"image-keyboard-response",473,531903,"0.0-4.153-2.153","4dpnshc31q2v0vl",88,"10.csv","","null","resources/images/fishbone.png","null","",NA,NA,NA,NA,""
"image-keyboard-response",474,532958,"0.0-4.154-0.154","4dpnshc31q2v0vl",88,"10.csv","","1054.1999999997206","resources/trios/L1T2A2.jpg","39","restless",0.3,0.6,0.8,0.347950726415525,"true"
"image-keyboard-response",475,533372,"0.0-4.154-1.154","4dpnshc31q2v0vl",88,"10.csv","","null","resources/maskTrios/BBA2.jpg","null","",NA,NA,NA,NA,""
"image-keyboard-response",476,534592,"0.0-4.154-2.154","4dpnshc31q2v0vl",88,"10.csv","","null","resources/images/coin2.png","null","",NA,NA,NA,NA,""
"image-keyboard-response",477,535200,"0.0-4.155-0.155","4dpnshc31q2v0vl",88,"10.csv","","606.3999999999069","resources/trios/L1T2A2.jpg","39","restless",0.3,0.6,0.8,0.939896002470241,"false"
"image-keyboard-response",478,535603,"0.0-4.155-1.155","4dpnshc31q2v0vl",88,"10.csv","","null","resources/maskTrios/BBA2.jpg","null","",NA,NA,NA,NA,""
"image-keyboard-response",479,536819,"0.0-4.155-2.155","4dpnshc31q2v0vl",88,"10.csv","","null","resources/images/fishbone.png","null","",NA,NA,NA,NA,""
"image-keyboard-response",480,538726,"0.0-4.156-0.156","4dpnshc31q2v0vl",88,"10.csv","","1905.3999999999069","resources/trios/L1T2A2.jpg","37","restless",0.3,0.6,0.7,0.341339062639648,"false"
"image-keyboard-response",481,539142,"0.0-4.156-1.156","4dpnshc31q2v0vl",88,"10.csv","","null","resources/maskTrios/L1BB.jpg","null","",NA,NA,NA,NA,""
"image-keyboard-response",482,540352,"0.0-4.156-2.156","4dpnshc31q2v0vl",88,"10.csv","","null","resources/images/fishbone.png","null","",NA,NA,NA,NA,""
"image-keyboard-response",483,540670,"0.0-4.157-0.157","4dpnshc31q2v0vl",88,"10.csv","","316.60000000009313","resources/trios/L1T2A2.jpg","37","restless",0.3,0.6,0.7,0.00123496796069555,"true"
"image-keyboard-response",484,541072,"0.0-4.157-1.157","4dpnshc31q2v0vl",88,"10.csv","","null","resources/maskTrios/L1BB.jpg","null","",NA,NA,NA,NA,""
"image-keyboard-response",485,542292,"0.0-4.157-2.157","4dpnshc31q2v0vl",88,"10.csv","","null","resources/images/coin2.png","null","",NA,NA,NA,NA,""
"image-keyboard-response",486,544798,"0.0-4.158-0.158","4dpnshc31q2v0vl",88,"10.csv","","2504.2999999998137","resources/trios/L1T2A2.jpg","37","restless",0.3,0.6,0.7,0.118128155370632,"true"
"image-keyboard-response",487,545204,"0.0-4.158-1.158","4dpnshc31q2v0vl",88,"10.csv","","null","resources/maskTrios/L1BB.jpg","null","",NA,NA,NA,NA,""
"image-keyboard-response",488,546422,"0.0-4.158-2.158","4dpnshc31q2v0vl",88,"10.csv","","null","resources/images/coin2.png","null","",NA,NA,NA,NA,""
"image-keyboard-response",489,546839,"0.0-4.159-0.159","4dpnshc31q2v0vl",88,"10.csv","","416.60000000009313","resources/trios/L1T2A2.jpg","37","restless",0.3,0.6,0.7,0.0505413680041815,"true"
"image-keyboard-response",490,547252,"0.0-4.159-1.159","4dpnshc31q2v0vl",88,"10.csv","","null","resources/maskTrios/L1BB.jpg","null","",NA,NA,NA,NA,""
"image-keyboard-response",491,548462,"0.0-4.159-2.159","4dpnshc31q2v0vl",88,"10.csv","","null","resources/images/coin2.png","null","",NA,NA,NA,NA,""
"image-keyboard-response",492,548998,"0.0-4.160-0.160","4dpnshc31q2v0vl",88,"10.csv","","534.8000000002794","resources/trios/L1T2A2.jpg","37","restless",0.3,0.7,0.7,0.369873166714907,"false"
"image-keyboard-response",493,549403,"0.0-4.160-1.160","4dpnshc31q2v0vl",88,"10.csv","","null","resources/maskTrios/L1BB.jpg","null","",NA,NA,NA,NA,""
"image-keyboard-response",494,550622,"0.0-4.160-2.160","4dpnshc31q2v0vl",88,"10.csv","","null","resources/images/fishbone.png","null","",NA,NA,NA,NA,""
"image-keyboard-response",495,551303,"0.0-4.161-0.161","4dpnshc31q2v0vl",88,"10.csv","","679.7999999998137","resources/trios/L1T2A2.jpg","37","restless",0.3,0.7,0.7,0.985851796034232,"false"
"image-keyboard-response",496,551718,"0.0-4.161-1.161","4dpnshc31q2v0vl",88,"10.csv","","null","resources/maskTrios/L1BB.jpg","null","",NA,NA,NA,NA,""
"image-keyboard-response",497,552920,"0.0-4.161-2.161","4dpnshc31q2v0vl",88,"10.csv","","null","resources/images/fishbone.png","null","",NA,NA,NA,NA,""
"image-keyboard-response",498,553655,"0.0-4.162-0.162","4dpnshc31q2v0vl",88,"10.csv","","733","resources/trios/L1T2A2.jpg","37","restless",0.3,0.7,0.7,0.467784488471065,"false"
"image-keyboard-response",499,554062,"0.0-4.162-1.162","4dpnshc31q2v0vl",88,"10.csv","","null","resources/maskTrios/L1BB.jpg","null","",NA,NA,NA,NA,""
"image-keyboard-response",500,555282,"0.0-4.162-2.162","4dpnshc31q2v0vl",88,"10.csv","","null","resources/images/fishbone.png","null","",NA,NA,NA,NA,""
"image-keyboard-response",501,555655,"0.0-4.163-0.163","4dpnshc31q2v0vl",88,"10.csv","","371.20000000018626","resources/trios/L1T2A2.jpg","37","restless",0.3,0.7,0.7,0.146471095779449,"true"
"image-keyboard-response",502,556069,"0.0-4.163-1.163","4dpnshc31q2v0vl",88,"10.csv","","null","resources/maskTrios/L1BB.jpg","null","",NA,NA,NA,NA,""
"image-keyboard-response",503,557272,"0.0-4.163-2.163","4dpnshc31q2v0vl",88,"10.csv","","null","resources/images/coin2.png","null","",NA,NA,NA,NA,""
"image-keyboard-response",504,557648,"0.0-4.164-0.164","4dpnshc31q2v0vl",88,"10.csv","","374.39999999990687","resources/trios/L1T2A2.jpg","37","restless",0.3,0.7,0.7,0.749137820565834,"false"
"image-keyboard-response",505,558062,"0.0-4.164-1.164","4dpnshc31q2v0vl",88,"10.csv","","null","resources/maskTrios/L1BB.jpg","null","",NA,NA,NA,NA,""
"image-keyboard-response",506,559272,"0.0-4.164-2.164","4dpnshc31q2v0vl",88,"10.csv","","null","resources/images/fishbone.png","null","",NA,NA,NA,NA,""
"image-keyboard-response",507,559758,"0.0-4.165-0.165","4dpnshc31q2v0vl",88,"10.csv","","484.8000000002794","resources/trios/L1T2A2.jpg","37","restless",0.3,0.8,0.7,0.693081738608049,"false"
"image-keyboard-response",508,560162,"0.0-4.165-1.165","4dpnshc31q2v0vl",88,"10.csv","","null","resources/maskTrios/L1BB.jpg","null","",NA,NA,NA,NA,""
"image-keyboard-response",509,561372,"0.0-4.165-2.165","4dpnshc31q2v0vl",88,"10.csv","","null","resources/images/fishbone.png","null","",NA,NA,NA,NA,""
"image-keyboard-response",510,561750,"0.0-4.166-0.166","4dpnshc31q2v0vl",88,"10.csv","","376.29999999981374","resources/trios/L1T2A2.jpg","37","restless",0.3,0.8,0.7,0.433522592808188,"false"
"image-keyboard-response",511,562152,"0.0-4.166-1.166","4dpnshc31q2v0vl",88,"10.csv","","null","resources/maskTrios/L1BB.jpg","null","",NA,NA,NA,NA,""
"image-keyboard-response",512,563372,"0.0-4.166-2.166","4dpnshc31q2v0vl",88,"10.csv","","null","resources/images/fishbone.png","null","",NA,NA,NA,NA,""
"image-keyboard-response",513,564493,"0.0-4.167-0.167","4dpnshc31q2v0vl",88,"10.csv","","1119.6000000000931","resources/trios/L1T2A2.jpg","37","restless",0.3,0.8,0.7,0.565656995138463,"false"
"image-keyboard-response",514,564912,"0.0-4.167-1.167","4dpnshc31q2v0vl",88,"10.csv","","null","resources/maskTrios/L1BB.jpg","null","",NA,NA,NA,NA,""
"image-keyboard-response",515,566132,"0.0-4.167-2.167","4dpnshc31q2v0vl",88,"10.csv","","null","resources/images/fishbone.png","null","",NA,NA,NA,NA,""
"image-keyboard-response",516,566301,"0.0-4.168-0.168","4dpnshc31q2v0vl",88,"10.csv","","167.70000000018626","resources/trios/L1T2A2.jpg","37","restless",0.3,0.8,0.7,0.619714828027358,"false"
"image-keyboard-response",517,566722,"0.0-4.168-1.168","4dpnshc31q2v0vl",88,"10.csv","","null","resources/maskTrios/L1BB.jpg","null","",NA,NA,NA,NA,""
"image-keyboard-response",518,567942,"0.0-4.168-2.168","4dpnshc31q2v0vl",88,"10.csv","","null","resources/images/fishbone.png","null","",NA,NA,NA,NA,""
"image-keyboard-response",519,568494,"0.0-4.169-0.169","4dpnshc31q2v0vl",88,"10.csv","","551.2000000001863","resources/trios/L1T2A2.jpg","37","restless",0.3,0.8,0.6,0.861315993385974,"false"
"image-keyboard-response",520,568912,"0.0-4.169-1.169","4dpnshc31q2v0vl",88,"10.csv","","null","resources/maskTrios/L1BB.jpg","null","",NA,NA,NA,NA,""
"image-keyboard-response",521,570122,"0.0-4.169-2.169","4dpnshc31q2v0vl",88,"10.csv","","null","resources/images/fishbone.png","null","",NA,NA,NA,NA,""
"image-keyboard-response",522,570453,"0.0-4.170-0.170","4dpnshc31q2v0vl",88,"10.csv","","329.3000000002794","resources/trios/L1T2A2.jpg","37","restless",0.3,0.8,0.5,0.757437815750322,"false"
"image-keyboard-response",523,570856,"0.0-4.170-1.170","4dpnshc31q2v0vl",88,"10.csv","","null","resources/maskTrios/L1BB.jpg","null","",NA,NA,NA,NA,""
"image-keyboard-response",524,572061,"0.0-4.170-2.170","4dpnshc31q2v0vl",88,"10.csv","","null","resources/images/fishbone.png","null","",NA,NA,NA,NA,""
"image-keyboard-response",525,573198,"0.0-4.171-0.171","4dpnshc31q2v0vl",88,"10.csv","","1136.3000000002794","resources/trios/L1T2A2.jpg","38","restless",0.3,0.8,0.5,0.66843306145964,"true"
"image-keyboard-response",526,573601,"0.0-4.171-1.171","4dpnshc31q2v0vl",88,"10.csv","","null","resources/maskTrios/BT2B.jpg","null","",NA,NA,NA,NA,""
"image-keyboard-response",527,574818,"0.0-4.171-2.171","4dpnshc31q2v0vl",88,"10.csv","","null","resources/images/coin2.png","null","",NA,NA,NA,NA,""
"image-keyboard-response",528,575261,"0.0-4.172-0.172","4dpnshc31q2v0vl",88,"10.csv","","440.8000000002794","resources/trios/L1T2A2.jpg","38","restless",0.3,0.8,0.5,0.927162425323843,"false"
"image-keyboard-response",529,575668,"0.0-4.172-1.172","4dpnshc31q2v0vl",88,"10.csv","","null","resources/maskTrios/BT2B.jpg","null","",NA,NA,NA,NA,""
"image-keyboard-response",530,576885,"0.0-4.172-2.172","4dpnshc31q2v0vl",88,"10.csv","","null","resources/images/fishbone.png","null","",NA,NA,NA,NA,""
"image-keyboard-response",531,577303,"0.0-4.173-0.173","4dpnshc31q2v0vl",88,"10.csv","","415.89999999990687","resources/trios/L1T2A2.jpg","39","restless",0.3,0.8,0.5,0.896193557925829,"false"
"image-keyboard-response",532,577721,"0.0-4.173-1.173","4dpnshc31q2v0vl",88,"10.csv","","null","resources/maskTrios/BBA2.jpg","null","",NA,NA,NA,NA,""
"image-keyboard-response",533,578931,"0.0-4.173-2.173","4dpnshc31q2v0vl",88,"10.csv","","null","resources/images/fishbone.png","null","",NA,NA,NA,NA,""
"image-keyboard-response",534,579464,"0.0-4.174-0.174","4dpnshc31q2v0vl",88,"10.csv","","530.5","resources/trios/L1T2A2.jpg","39","restless",0.3,0.8,0.5,0.987290839233772,"false"
"image-keyboard-response",535,579868,"0.0-4.174-1.174","4dpnshc31q2v0vl",88,"10.csv","","null","resources/maskTrios/BBA2.jpg","null","",NA,NA,NA,NA,""
"image-keyboard-response",536,581071,"0.0-4.174-2.174","4dpnshc31q2v0vl",88,"10.csv","","null","resources/images/fishbone.png","null","",NA,NA,NA,NA,""
"image-keyboard-response",537,581518,"0.0-4.175-0.175","4dpnshc31q2v0vl",88,"10.csv","","445.89999999990687","resources/trios/L1T2A2.jpg","39","restless",0.3,0.8,0.5,0.192439096258233,"true"
"image-keyboard-response",538,581921,"0.0-4.175-1.175","4dpnshc31q2v0vl",88,"10.csv","","null","resources/maskTrios/BBA2.jpg","null","",NA,NA,NA,NA,""
"image-keyboard-response",539,583131,"0.0-4.175-2.175","4dpnshc31q2v0vl",88,"10.csv","","null","resources/images/coin2.png","null","",NA,NA,NA,NA,""
"image-keyboard-response",540,583829,"0.0-4.176-0.176","4dpnshc31q2v0vl",88,"10.csv","","696","resources/trios/L1T2A2.jpg","39","restless",0.3,0.8,0.5,0.908570499372141,"false"
"image-keyboard-response",541,584236,"0.0-4.176-1.176","4dpnshc31q2v0vl",88,"10.csv","","null","resources/maskTrios/BBA2.jpg","null","",NA,NA,NA,NA,""
"image-keyboard-response",542,585442,"0.0-4.176-2.176","4dpnshc31q2v0vl",88,"10.csv","","null","resources/images/fishbone.png","null","",NA,NA,NA,NA,""
"image-keyboard-response",543,586173,"0.0-4.177-0.177","4dpnshc31q2v0vl",88,"10.csv","","730.6000000000931","resources/trios/L1T2A2.jpg","39","restless",0.4,0.8,0.5,0.776253797929014,"false"
"image-keyboard-response",544,586592,"0.0-4.177-1.177","4dpnshc31q2v0vl",88,"10.csv","","null","resources/maskTrios/BBA2.jpg","null","",NA,NA,NA,NA,""
"image-keyboard-response",545,587802,"0.0-4.177-2.177","4dpnshc31q2v0vl",88,"10.csv","","null","resources/images/fishbone.png","null","",NA,NA,NA,NA,""
"image-keyboard-response",546,588173,"0.0-4.178-0.178","4dpnshc31q2v0vl",88,"10.csv","","369.5","resources/trios/L1T2A2.jpg","38","restless",0.4,0.8,0.5,0.989698585750515,"false"
"image-keyboard-response",547,588587,"0.0-4.178-1.178","4dpnshc31q2v0vl",88,"10.csv","","null","resources/maskTrios/BT2B.jpg","null","",NA,NA,NA,NA,""
"image-keyboard-response",548,589801,"0.0-4.178-2.178","4dpnshc31q2v0vl",88,"10.csv","","null","resources/images/fishbone.png","null","",NA,NA,NA,NA,""
"image-keyboard-response",549,590273,"0.0-4.179-0.179","4dpnshc31q2v0vl",88,"10.csv","","469.10000000009313","resources/trios/L1T2A2.jpg","38","restless",0.4,0.8,0.5,0.173630332080857,"true"
"image-keyboard-response",550,590691,"0.0-4.179-1.179","4dpnshc31q2v0vl",88,"10.csv","","null","resources/maskTrios/BT2B.jpg","null","",NA,NA,NA,NA,""
"image-keyboard-response",551,591901,"0.0-4.179-2.179","4dpnshc31q2v0vl",88,"10.csv","","null","resources/images/coin2.png","null","",NA,NA,NA,NA,""
"image-keyboard-response",552,592253,"0.0-4.180-0.180","4dpnshc31q2v0vl",88,"10.csv","","350.5","resources/trios/L1T2A2.jpg","38","restless",0.4,0.8,0.5,0.359995034252952,"true"
"image-keyboard-response",553,592667,"0.0-4.180-1.180","4dpnshc31q2v0vl",88,"10.csv","","null","resources/maskTrios/BT2B.jpg","null","",NA,NA,NA,NA,""
"image-keyboard-response",554,593869,"0.0-4.180-2.180","4dpnshc31q2v0vl",88,"10.csv","","null","resources/images/coin2.png","null","",NA,NA,NA,NA,""
"image-keyboard-response",555,594206,"0.0-4.181-0.181","4dpnshc31q2v0vl",88,"10.csv","","334.79999999981374","resources/trios/L1T2A2.jpg","38","restless",0.4,0.7,0.5,0.865769573192905,"false"
"image-keyboard-response",556,594617,"0.0-4.181-1.181","4dpnshc31q2v0vl",88,"10.csv","","null","resources/maskTrios/BT2B.jpg","null","",NA,NA,NA,NA,""
"image-keyboard-response",557,595842,"0.0-4.181-2.181","4dpnshc31q2v0vl",88,"10.csv","","null","resources/images/fishbone.png","null","",NA,NA,NA,NA,""
"image-keyboard-response",558,596126,"0.0-4.182-0.182","4dpnshc31q2v0vl",88,"10.csv","","283.10000000009313","resources/trios/L1T2A2.jpg","37","restless",0.4,0.7,0.5,0.829699340571948,"false"
"image-keyboard-response",559,596541,"0.0-4.182-1.182","4dpnshc31q2v0vl",88,"10.csv","","null","resources/maskTrios/L1BB.jpg","null","",NA,NA,NA,NA,""
"image-keyboard-response",560,597752,"0.0-4.182-2.182","4dpnshc31q2v0vl",88,"10.csv","","null","resources/images/fishbone.png","null","",NA,NA,NA,NA,""
"image-keyboard-response",561,598053,"0.0-4.183-0.183","4dpnshc31q2v0vl",88,"10.csv","","299.1999999997206","resources/trios/L1T2A2.jpg","37","restless",0.4,0.7,0.5,0.798646093357595,"false"
"image-keyboard-response",562,598472,"0.0-4.183-1.183","4dpnshc31q2v0vl",88,"10.csv","","null","resources/maskTrios/L1BB.jpg","null","",NA,NA,NA,NA,""
"image-keyboard-response",563,599692,"0.0-4.183-2.183","4dpnshc31q2v0vl",88,"10.csv","","null","resources/images/fishbone.png","null","",NA,NA,NA,NA,""
"image-keyboard-response",564,599997,"0.0-4.184-0.184","4dpnshc31q2v0vl",88,"10.csv","","304","resources/trios/L1T2A2.jpg","38","restless",0.4,0.7,0.5,0.210172351970542,"true"
"image-keyboard-response",565,600411,"0.0-4.184-1.184","4dpnshc31q2v0vl",88,"10.csv","","null","resources/maskTrios/BT2B.jpg","null","",NA,NA,NA,NA,""
"image-keyboard-response",566,601621,"0.0-4.184-2.184","4dpnshc31q2v0vl",88,"10.csv","","null","resources/images/coin2.png","null","",NA,NA,NA,NA,""
"image-keyboard-response",567,601966,"0.0-4.185-0.185","4dpnshc31q2v0vl",88,"10.csv","","343.3000000002794","resources/trios/L1T2A2.jpg","38","restless",0.4,0.7,0.5,0.432247558791845,"true"
"image-keyboard-response",568,602381,"0.0-4.185-1.185","4dpnshc31q2v0vl",88,"10.csv","","null","resources/maskTrios/BT2B.jpg","null","",NA,NA,NA,NA,""
"image-keyboard-response",569,603601,"0.0-4.185-2.185","4dpnshc31q2v0vl",88,"10.csv","","null","resources/images/coin2.png","null","",NA,NA,NA,NA,""
"image-keyboard-response",570,603941,"0.0-4.186-0.186","4dpnshc31q2v0vl",88,"10.csv","","337.89999999990687","resources/trios/L1T2A2.jpg","38","restless",0.4,0.7,0.5,0.819489324127022,"false"
"image-keyboard-response",571,604352,"0.0-4.186-1.186","4dpnshc31q2v0vl",88,"10.csv","","null","resources/maskTrios/BT2B.jpg","null","",NA,NA,NA,NA,""
"image-keyboard-response",572,605572,"0.0-4.186-2.186","4dpnshc31q2v0vl",88,"10.csv","","null","resources/images/fishbone.png","null","",NA,NA,NA,NA,""
"image-keyboard-response",573,605949,"0.0-4.187-0.187","4dpnshc31q2v0vl",88,"10.csv","","375.3000000002794","resources/trios/L1T2A2.jpg","38","restless",0.4,0.7,0.5,0.243728822949498,"true"
"image-keyboard-response",574,606361,"0.0-4.187-1.187","4dpnshc31q2v0vl",88,"10.csv","","null","resources/maskTrios/BT2B.jpg","null","",NA,NA,NA,NA,""
"image-keyboard-response",575,607571,"0.0-4.187-2.187","4dpnshc31q2v0vl",88,"10.csv","","null","resources/images/coin2.png","null","",NA,NA,NA,NA,""
"image-keyboard-response",576,608046,"0.0-4.188-0.188","4dpnshc31q2v0vl",88,"10.csv","","473.29999999981374","resources/trios/L1T2A2.jpg","38","restless",0.4,0.6,0.5,0.145885784525314,"true"
"image-keyboard-response",577,608457,"0.0-4.188-1.188","4dpnshc31q2v0vl",88,"10.csv","","null","resources/maskTrios/BT2B.jpg","null","",NA,NA,NA,NA,""
"image-keyboard-response",578,609671,"0.0-4.188-2.188","4dpnshc31q2v0vl",88,"10.csv","","null","resources/images/coin2.png","null","",NA,NA,NA,NA,""
"image-keyboard-response",579,609990,"0.0-4.189-0.189","4dpnshc31q2v0vl",88,"10.csv","","317.1999999997206","resources/trios/L1T2A2.jpg","38","restless",0.5,0.7,0.6,0.100460666454992,"true"
"image-keyboard-response",580,610412,"0.0-4.189-1.189","4dpnshc31q2v0vl",88,"10.csv","","null","resources/maskTrios/BT2B.jpg","null","",NA,NA,NA,NA,""
"image-keyboard-response",581,611632,"0.0-4.189-2.189","4dpnshc31q2v0vl",88,"10.csv","","null","resources/images/coin2.png","null","",NA,NA,NA,NA,""
"image-keyboard-response",582,611821,"0.0-4.190-0.190","4dpnshc31q2v0vl",88,"10.csv","","187.60000000009313","resources/trios/L1T2A2.jpg","38","restless",0.5,0.7,0.6,0.0277397880813433,"true"
"image-keyboard-response",583,612236,"0.0-4.190-1.190","4dpnshc31q2v0vl",88,"10.csv","","null","resources/maskTrios/BT2B.jpg","null","",NA,NA,NA,NA,""
"image-keyboard-response",584,613441,"0.0-4.190-2.190","4dpnshc31q2v0vl",88,"10.csv","","null","resources/images/coin2.png","null","",NA,NA,NA,NA,""
"image-keyboard-response",585,613742,"0.0-4.191-0.191","4dpnshc31q2v0vl",88,"10.csv","","298.39999999990687","resources/trios/L1T2A2.jpg","38","restless",0.5,0.7,0.6,0.463601845571893,"true"
"image-keyboard-response",586,614152,"0.0-4.191-1.191","4dpnshc31q2v0vl",88,"10.csv","","null","resources/maskTrios/BT2B.jpg","null","",NA,NA,NA,NA,""
"image-keyboard-response",587,615369,"0.0-4.191-2.191","4dpnshc31q2v0vl",88,"10.csv","","null","resources/images/coin2.png","null","",NA,NA,NA,NA,""
"image-keyboard-response",588,615653,"0.0-4.192-0.192","4dpnshc31q2v0vl",88,"10.csv","","283","resources/trios/L1T2A2.jpg","38","restless",0.4,0.7,0.6,0.457447810664022,"true"
"image-keyboard-response",589,616070,"0.0-4.192-1.192","4dpnshc31q2v0vl",88,"10.csv","","null","resources/maskTrios/BT2B.jpg","null","",NA,NA,NA,NA,""
"image-keyboard-response",590,617271,"0.0-4.192-2.192","4dpnshc31q2v0vl",88,"10.csv","","null","resources/images/coin2.png","null","",NA,NA,NA,NA,""
"image-keyboard-response",591,617582,"0.0-4.193-0.193","4dpnshc31q2v0vl",88,"10.csv","","308.6999999997206","resources/trios/L1T2A2.jpg","38","restless",0.4,0.7,0.6,0.886467855244471,"false"
"image-keyboard-response",592,617992,"0.0-4.193-1.193","4dpnshc31q2v0vl",88,"10.csv","","null","resources/maskTrios/BT2B.jpg","null","",NA,NA,NA,NA,""
"image-keyboard-response",593,619212,"0.0-4.193-2.193","4dpnshc31q2v0vl",88,"10.csv","","null","resources/images/fishbone.png","null","",NA,NA,NA,NA,""
"image-keyboard-response",594,619565,"0.0-4.194-0.194","4dpnshc31q2v0vl",88,"10.csv","","352.70000000018626","resources/trios/L1T2A2.jpg","38","restless",0.4,0.7,0.6,0.0669660368915503,"true"
"image-keyboard-response",595,619967,"0.0-4.194-1.194","4dpnshc31q2v0vl",88,"10.csv","","null","resources/maskTrios/BT2B.jpg","null","",NA,NA,NA,NA,""
"image-keyboard-response",596,621184,"0.0-4.194-2.194","4dpnshc31q2v0vl",88,"10.csv","","null","resources/images/coin2.png","null","",NA,NA,NA,NA,""
"image-keyboard-response",597,621526,"0.0-4.195-0.195","4dpnshc31q2v0vl",88,"10.csv","","340.10000000009313","resources/trios/L1T2A2.jpg","38","restless",0.4,0.7,0.6,0.960691038750489,"false"
"image-keyboard-response",598,621941,"0.0-4.195-1.195","4dpnshc31q2v0vl",88,"10.csv","","null","resources/maskTrios/BT2B.jpg","null","",NA,NA,NA,NA,""
"image-keyboard-response",599,623162,"0.0-4.195-2.195","4dpnshc31q2v0vl",88,"10.csv","","null","resources/images/fishbone.png","null","",NA,NA,NA,NA,""
"image-keyboard-response",600,623509,"0.0-4.196-0.196","4dpnshc31q2v0vl",88,"10.csv","","345.70000000018626","resources/trios/L1T2A2.jpg","38","restless",0.5,0.7,0.6,0.545623202025462,"true"
"image-keyboard-response",601,623921,"0.0-4.196-1.196","4dpnshc31q2v0vl",88,"10.csv","","null","resources/maskTrios/BT2B.jpg","null","",NA,NA,NA,NA,""
"image-keyboard-response",602,625132,"0.0-4.196-2.196","4dpnshc31q2v0vl",88,"10.csv","","null","resources/images/coin2.png","null","",NA,NA,NA,NA,""
"image-keyboard-response",603,625455,"0.0-4.197-0.197","4dpnshc31q2v0vl",88,"10.csv","","321.39999999990687","resources/trios/L1T2A2.jpg","38","restless",0.4,0.7,0.6,0.0348969787484004,"true"
"image-keyboard-response",604,625872,"0.0-4.197-1.197","4dpnshc31q2v0vl",88,"10.csv","","null","resources/maskTrios/BT2B.jpg","null","",NA,NA,NA,NA,""
"image-keyboard-response",605,627088,"0.0-4.197-2.197","4dpnshc31q2v0vl",88,"10.csv","","null","resources/images/coin2.png","null","",NA,NA,NA,NA,""
"image-keyboard-response",606,627398,"0.0-4.198-0.198","4dpnshc31q2v0vl",88,"10.csv","","308.60000000009313","resources/trios/L1T2A2.jpg","38","restless",0.4,0.7,0.6,0.404596139447312,"true"
"image-keyboard-response",607,627802,"0.0-4.198-1.198","4dpnshc31q2v0vl",88,"10.csv","","null","resources/maskTrios/BT2B.jpg","null","",NA,NA,NA,NA,""
"image-keyboard-response",608,629022,"0.0-4.198-2.198","4dpnshc31q2v0vl",88,"10.csv","","null","resources/images/coin2.png","null","",NA,NA,NA,NA,""
"image-keyboard-response",609,629326,"0.0-4.199-0.199","4dpnshc31q2v0vl",88,"10.csv","","302.10000000009313","resources/trios/L1T2A2.jpg","38","restless",0.4,0.7,0.6,0.291020458953122,"true"
"image-keyboard-response",610,629731,"0.0-4.199-1.199","4dpnshc31q2v0vl",88,"10.csv","","null","resources/maskTrios/BT2B.jpg","null","",NA,NA,NA,NA,""
"image-keyboard-response",611,630951,"0.0-4.199-2.199","4dpnshc31q2v0vl",88,"10.csv","","null","resources/images/coin2.png","null","",NA,NA,NA,NA,""
"survey-text",612,641765,"0.0-5.0","4dpnshc31q2v0vl",88,"10.csv","","10810.600000000093","","","",NA,NA,NA,NA,""
