"trial_type","trial_index","time_elapsed","internal_node_id","subject","participantCode","walkNumber","success","rt","stimulus","key_press","test_part","leftProb","midProb","rightProb","generatedNum","correct"
"pavlovia",0,640,"0.0-0.0","o74b77m5zgvdctv",265,"62.csv","","","","","",NA,NA,NA,NA,""
"fullscreen",1,3694,"0.0-1.0","o74b77m5zgvdctv",265,"62.csv","true","","","","",NA,NA,NA,NA,""
"survey-html-form",2,26118,"0.0-2.0","o74b77m5zgvdctv",265,"62.csv","","22422.600000023842","","","",NA,NA,NA,NA,""
"image-keyboard-response",3,40120,"0.0-3.0-0.0","o74b77m5zgvdctv",265,"62.csv","","14001.5","resources/images/parrot_nobg.png","13","",NA,NA,NA,NA,""
"image-keyboard-response",4,43122,"0.0-3.0-1.0","o74b77m5zgvdctv",265,"62.csv","","null","resources/image_sets/111.png","null","",NA,NA,NA,NA,""
"image-keyboard-response",5,46039,"0.0-3.0-2.0","o74b77m5zgvdctv",265,"62.csv","","2915.899999976158","resources/image_sets/left_highlight.png","37","",NA,NA,NA,NA,""
"image-keyboard-response",6,46897,"0.0-3.0-3.0","o74b77m5zgvdctv",265,"62.csv","","857.3999999761581","resources/image_sets/mid_highlight.png","38","",NA,NA,NA,NA,""
"image-keyboard-response",7,47504,"0.0-3.0-4.0","o74b77m5zgvdctv",265,"62.csv","","606.2999999523163","resources/image_sets/right_highlight.png","39","",NA,NA,NA,NA,""
"image-keyboard-response",8,49772,"0.0-3.0-5.0","o74b77m5zgvdctv",265,"62.csv","","2267.600000023842","resources/image_sets/111.png","13","",NA,NA,NA,NA,""
"image-keyboard-response",9,51697,"0.0-3.0-6.0","o74b77m5zgvdctv",265,"62.csv","","1924.7000000476837","resources/images/coin2.png","13","",NA,NA,NA,NA,""
"image-keyboard-response",10,52759,"0.0-3.0-7.0","o74b77m5zgvdctv",265,"62.csv","","1061.1999999284744","resources/images/fishbone.png","13","",NA,NA,NA,NA,""
"html-keyboard-response",11,59215,"0.0-3.0-8.0","o74b77m5zgvdctv",265,"62.csv","","6455.399999976158","<p>You can track your coin total on the top right of your screen. </p><p>At the end of your journey you will be directed to a survey, so please click on the link before exiting the task</p><p>Press Enter to begin</p>","13","",NA,NA,NA,NA,""
"image-keyboard-response",12,60324,"0.0-4.0-0.0","o74b77m5zgvdctv",265,"62.csv","","1108.0999999046326","resources/trios/L1T2A3.jpg","37","restless",0.3,0.7,0.9,0.020611206596336,"true"
"image-keyboard-response",13,60725,"0.0-4.0-1.0","o74b77m5zgvdctv",265,"62.csv","","null","resources/maskTrios/L1BB.jpg","null","",NA,NA,NA,NA,""
"image-keyboard-response",14,61927,"0.0-4.0-2.0","o74b77m5zgvdctv",265,"62.csv","","null","resources/images/coin2.png","null","",NA,NA,NA,NA,""
"image-keyboard-response",15,62231,"0.0-4.1-0.1","o74b77m5zgvdctv",265,"62.csv","","302.60000002384186","resources/trios/L1T2A3.jpg","38","restless",0.3,0.7,0.9,0.636528095449738,"true"
"image-keyboard-response",16,62633,"0.0-4.1-1.1","o74b77m5zgvdctv",265,"62.csv","","null","resources/maskTrios/BT2B.jpg","null","",NA,NA,NA,NA,""
"image-keyboard-response",17,63834,"0.0-4.1-2.1","o74b77m5zgvdctv",265,"62.csv","","null","resources/images/coin2.png","null","",NA,NA,NA,NA,""
"image-keyboard-response",18,64048,"0.0-4.2-0.2","o74b77m5zgvdctv",265,"62.csv","","214.10000002384186","resources/trios/L1T2A3.jpg","39","restless",0.3,0.7,0.9,0.553947980454156,"true"
"image-keyboard-response",19,64449,"0.0-4.2-1.2","o74b77m5zgvdctv",265,"62.csv","","null","resources/maskTrios/BBA3.jpg","null","",NA,NA,NA,NA,""
"image-keyboard-response",20,65651,"0.0-4.2-2.2","o74b77m5zgvdctv",265,"62.csv","","null","resources/images/coin2.png","null","",NA,NA,NA,NA,""
"image-keyboard-response",21,65865,"0.0-4.3-0.3","o74b77m5zgvdctv",265,"62.csv","","213.39999997615814","resources/trios/L1T2A3.jpg","37","restless",0.3,0.8,0.8,0.914494085364053,"false"
"image-keyboard-response",22,66266,"0.0-4.3-1.3","o74b77m5zgvdctv",265,"62.csv","","null","resources/maskTrios/L1BB.jpg","null","",NA,NA,NA,NA,""
"image-keyboard-response",23,67467,"0.0-4.3-2.3","o74b77m5zgvdctv",265,"62.csv","","null","resources/images/fishbone.png","null","",NA,NA,NA,NA,""
"image-keyboard-response",24,67987,"0.0-4.4-0.4","o74b77m5zgvdctv",265,"62.csv","","519.5999999046326","resources/trios/L1T2A3.jpg","38","restless",0.3,0.8,0.8,0.49875226672034,"true"
"image-keyboard-response",25,68389,"0.0-4.4-1.4","o74b77m5zgvdctv",265,"62.csv","","null","resources/maskTrios/BT2B.jpg","null","",NA,NA,NA,NA,""
"image-keyboard-response",26,69591,"0.0-4.4-2.4","o74b77m5zgvdctv",265,"62.csv","","null","resources/images/coin2.png","null","",NA,NA,NA,NA,""
"image-keyboard-response",27,70153,"0.0-4.5-0.5","o74b77m5zgvdctv",265,"62.csv","","561.6000000238419","resources/trios/L1T2A3.jpg","39","restless",0.3,0.8,0.8,0.78248222035856,"true"
"image-keyboard-response",28,70555,"0.0-4.5-1.5","o74b77m5zgvdctv",265,"62.csv","","null","resources/maskTrios/BBA3.jpg","null","",NA,NA,NA,NA,""
"image-keyboard-response",29,71756,"0.0-4.5-2.5","o74b77m5zgvdctv",265,"62.csv","","null","resources/images/coin2.png","null","",NA,NA,NA,NA,""
"image-keyboard-response",30,71825,"0.0-4.6-0.6","o74b77m5zgvdctv",265,"62.csv","","68.69999992847443","resources/trios/L1T2A3.jpg","38","restless",0.3,0.8,0.8,0.851130340390371,"false"
"image-keyboard-response",31,72226,"0.0-4.6-1.6","o74b77m5zgvdctv",265,"62.csv","","null","resources/maskTrios/BT2B.jpg","null","",NA,NA,NA,NA,""
"image-keyboard-response",32,73427,"0.0-4.6-2.6","o74b77m5zgvdctv",265,"62.csv","","null","resources/images/fishbone.png","null","",NA,NA,NA,NA,""
"image-keyboard-response",33,73439,"0.0-4.7-0.7","o74b77m5zgvdctv",265,"62.csv","","11.5","resources/trios/L1T2A3.jpg","39","restless",0.2,0.7,0.8,0.266956659944174,"true"
"image-keyboard-response",34,73841,"0.0-4.7-1.7","o74b77m5zgvdctv",265,"62.csv","","null","resources/maskTrios/BBA3.jpg","null","",NA,NA,NA,NA,""
"image-keyboard-response",35,75043,"0.0-4.7-2.7","o74b77m5zgvdctv",265,"62.csv","","null","resources/images/coin2.png","null","",NA,NA,NA,NA,""
"image-keyboard-response",36,76161,"0.0-4.8-0.8","o74b77m5zgvdctv",265,"62.csv","","1117.6999999284744","resources/trios/L1T2A3.jpg","37","restless",0.2,0.7,0.8,0.762900100309979,"false"
"image-keyboard-response",37,76562,"0.0-4.8-1.8","o74b77m5zgvdctv",265,"62.csv","","null","resources/maskTrios/L1BB.jpg","null","",NA,NA,NA,NA,""
"image-keyboard-response",38,77763,"0.0-4.8-2.8","o74b77m5zgvdctv",265,"62.csv","","null","resources/images/fishbone.png","null","",NA,NA,NA,NA,""
"image-keyboard-response",39,79088,"0.0-4.9-0.9","o74b77m5zgvdctv",265,"62.csv","","1324.2999999523163","resources/trios/L1T2A3.jpg","38","restless",0.2,0.7,0.8,0.0843793198850806,"true"
"image-keyboard-response",40,79490,"0.0-4.9-1.9","o74b77m5zgvdctv",265,"62.csv","","null","resources/maskTrios/BT2B.jpg","null","",NA,NA,NA,NA,""
"image-keyboard-response",41,80691,"0.0-4.9-2.9","o74b77m5zgvdctv",265,"62.csv","","null","resources/images/coin2.png","null","",NA,NA,NA,NA,""
"image-keyboard-response",42,80853,"0.0-4.10-0.10","o74b77m5zgvdctv",265,"62.csv","","161.59999990463257","resources/trios/L1T2A3.jpg","38","restless",0.3,0.7,0.8,0.0653651323774633,"true"
"image-keyboard-response",43,81254,"0.0-4.10-1.10","o74b77m5zgvdctv",265,"62.csv","","null","resources/maskTrios/BT2B.jpg","null","",NA,NA,NA,NA,""
"image-keyboard-response",44,82456,"0.0-4.10-2.10","o74b77m5zgvdctv",265,"62.csv","","null","resources/images/coin2.png","null","",NA,NA,NA,NA,""
"image-keyboard-response",45,82631,"0.0-4.11-0.11","o74b77m5zgvdctv",265,"62.csv","","175.09999990463257","resources/trios/L1T2A3.jpg","39","restless",0.3,0.7,0.8,0.205851822052145,"true"
"image-keyboard-response",46,83032,"0.0-4.11-1.11","o74b77m5zgvdctv",265,"62.csv","","null","resources/maskTrios/BBA3.jpg","null","",NA,NA,NA,NA,""
"image-keyboard-response",47,84234,"0.0-4.11-2.11","o74b77m5zgvdctv",265,"62.csv","","null","resources/images/coin2.png","null","",NA,NA,NA,NA,""
"image-keyboard-response",48,84269,"0.0-4.12-0.12","o74b77m5zgvdctv",265,"62.csv","","34.5","resources/trios/L1T2A3.jpg","39","restless",0.3,0.7,0.8,0.701553639291906,"true"
"image-keyboard-response",49,84671,"0.0-4.12-1.12","o74b77m5zgvdctv",265,"62.csv","","null","resources/maskTrios/BBA3.jpg","null","",NA,NA,NA,NA,""
"image-keyboard-response",50,85872,"0.0-4.12-2.12","o74b77m5zgvdctv",265,"62.csv","","null","resources/images/coin2.png","null","",NA,NA,NA,NA,""
"image-keyboard-response",51,86017,"0.0-4.13-0.13","o74b77m5zgvdctv",265,"62.csv","","144.80000007152557","resources/trios/L1T2A3.jpg","37","restless",0.3,0.7,0.8,0.815396463003349,"false"
"image-keyboard-response",52,86418,"0.0-4.13-1.13","o74b77m5zgvdctv",265,"62.csv","","null","resources/maskTrios/L1BB.jpg","null","",NA,NA,NA,NA,""
"image-keyboard-response",53,87619,"0.0-4.13-2.13","o74b77m5zgvdctv",265,"62.csv","","null","resources/images/fishbone.png","null","",NA,NA,NA,NA,""
"image-keyboard-response",54,87969,"0.0-4.14-0.14","o74b77m5zgvdctv",265,"62.csv","","349.2000000476837","resources/trios/L1T2A3.jpg","38","restless",0.4,0.7,0.8,0.429048922517768,"true"
"image-keyboard-response",55,88370,"0.0-4.14-1.14","o74b77m5zgvdctv",265,"62.csv","","null","resources/maskTrios/BT2B.jpg","null","",NA,NA,NA,NA,""
"image-keyboard-response",56,89571,"0.0-4.14-2.14","o74b77m5zgvdctv",265,"62.csv","","null","resources/images/coin2.png","null","",NA,NA,NA,NA,""
"image-keyboard-response",57,89680,"0.0-4.15-0.15","o74b77m5zgvdctv",265,"62.csv","","108.40000009536743","resources/trios/L1T2A3.jpg","38","restless",0.4,0.7,0.8,0.775157841341606,"false"
"image-keyboard-response",58,90081,"0.0-4.15-1.15","o74b77m5zgvdctv",265,"62.csv","","null","resources/maskTrios/BT2B.jpg","null","",NA,NA,NA,NA,""
"image-keyboard-response",59,91283,"0.0-4.15-2.15","o74b77m5zgvdctv",265,"62.csv","","null","resources/images/fishbone.png","null","",NA,NA,NA,NA,""
"image-keyboard-response",60,91340,"0.0-4.16-0.16","o74b77m5zgvdctv",265,"62.csv","","56.90000009536743","resources/trios/L1T2A3.jpg","39","restless",0.3,0.7,0.8,0.457924270813328,"true"
"image-keyboard-response",61,91741,"0.0-4.16-1.16","o74b77m5zgvdctv",265,"62.csv","","null","resources/maskTrios/BBA3.jpg","null","",NA,NA,NA,NA,""
"image-keyboard-response",62,92942,"0.0-4.16-2.16","o74b77m5zgvdctv",265,"62.csv","","null","resources/images/coin2.png","null","",NA,NA,NA,NA,""
"image-keyboard-response",63,93438,"0.0-4.17-0.17","o74b77m5zgvdctv",265,"62.csv","","495.3000000715256","resources/trios/L1T2A3.jpg","39","restless",0.3,0.7,0.8,0.477434524712606,"true"
"image-keyboard-response",64,93839,"0.0-4.17-1.17","o74b77m5zgvdctv",265,"62.csv","","null","resources/maskTrios/BBA3.jpg","null","",NA,NA,NA,NA,""
"image-keyboard-response",65,95040,"0.0-4.17-2.17","o74b77m5zgvdctv",265,"62.csv","","null","resources/images/coin2.png","null","",NA,NA,NA,NA,""
"image-keyboard-response",66,95695,"0.0-4.18-0.18","o74b77m5zgvdctv",265,"62.csv","","654.7000000476837","resources/trios/L1T2A3.jpg","39","restless",0.3,0.7,0.7,0.0322304611003974,"true"
"image-keyboard-response",67,96097,"0.0-4.18-1.18","o74b77m5zgvdctv",265,"62.csv","","null","resources/maskTrios/BBA3.jpg","null","",NA,NA,NA,NA,""
"image-keyboard-response",68,97298,"0.0-4.18-2.18","o74b77m5zgvdctv",265,"62.csv","","null","resources/images/coin2.png","null","",NA,NA,NA,NA,""
"image-keyboard-response",69,97696,"0.0-4.19-0.19","o74b77m5zgvdctv",265,"62.csv","","397.39999997615814","resources/trios/L1T2A3.jpg","39","restless",0.3,0.7,0.7,0.145184708211314,"true"
"image-keyboard-response",70,98098,"0.0-4.19-1.19","o74b77m5zgvdctv",265,"62.csv","","null","resources/maskTrios/BBA3.jpg","null","",NA,NA,NA,NA,""
"image-keyboard-response",71,99299,"0.0-4.19-2.19","o74b77m5zgvdctv",265,"62.csv","","null","resources/images/coin2.png","null","",NA,NA,NA,NA,""
"image-keyboard-response",72,99341,"0.0-4.20-0.20","o74b77m5zgvdctv",265,"62.csv","","41.5","resources/trios/L1T2A3.jpg","39","restless",0.3,0.7,0.7,0.586404666667427,"true"
"image-keyboard-response",73,99742,"0.0-4.20-1.20","o74b77m5zgvdctv",265,"62.csv","","null","resources/maskTrios/BBA3.jpg","null","",NA,NA,NA,NA,""
"image-keyboard-response",74,100943,"0.0-4.20-2.20","o74b77m5zgvdctv",265,"62.csv","","null","resources/images/coin2.png","null","",NA,NA,NA,NA,""
"image-keyboard-response",75,100999,"0.0-4.21-0.21","o74b77m5zgvdctv",265,"62.csv","","55.200000047683716","resources/trios/L1T2A3.jpg","39","restless",0.3,0.7,0.7,0.971552921313209,"false"
"image-keyboard-response",76,101400,"0.0-4.21-1.21","o74b77m5zgvdctv",265,"62.csv","","null","resources/maskTrios/BBA3.jpg","null","",NA,NA,NA,NA,""
"image-keyboard-response",77,102601,"0.0-4.21-2.21","o74b77m5zgvdctv",265,"62.csv","","null","resources/images/fishbone.png","null","",NA,NA,NA,NA,""
"image-keyboard-response",78,103232,"0.0-4.22-0.22","o74b77m5zgvdctv",265,"62.csv","","630.6999999284744","resources/trios/L1T2A3.jpg","37","restless",0.3,0.8,0.7,0.784839429778641,"false"
"image-keyboard-response",79,103633,"0.0-4.22-1.22","o74b77m5zgvdctv",265,"62.csv","","null","resources/maskTrios/L1BB.jpg","null","",NA,NA,NA,NA,""
"image-keyboard-response",80,104834,"0.0-4.22-2.22","o74b77m5zgvdctv",265,"62.csv","","null","resources/images/fishbone.png","null","",NA,NA,NA,NA,""
"image-keyboard-response",81,105145,"0.0-4.23-0.23","o74b77m5zgvdctv",265,"62.csv","","310.60000002384186","resources/trios/L1T2A3.jpg","38","restless",0.3,0.8,0.7,0.56186945628831,"true"
"image-keyboard-response",82,105546,"0.0-4.23-1.23","o74b77m5zgvdctv",265,"62.csv","","null","resources/maskTrios/BT2B.jpg","null","",NA,NA,NA,NA,""
"image-keyboard-response",83,106748,"0.0-4.23-2.23","o74b77m5zgvdctv",265,"62.csv","","null","resources/images/coin2.png","null","",NA,NA,NA,NA,""
"image-keyboard-response",84,106914,"0.0-4.24-0.24","o74b77m5zgvdctv",265,"62.csv","","165.80000007152557","resources/trios/L1T2A3.jpg","38","restless",0.3,0.8,0.7,0.37842126356665,"true"
"image-keyboard-response",85,107315,"0.0-4.24-1.24","o74b77m5zgvdctv",265,"62.csv","","null","resources/maskTrios/BT2B.jpg","null","",NA,NA,NA,NA,""
"image-keyboard-response",86,108516,"0.0-4.24-2.24","o74b77m5zgvdctv",265,"62.csv","","null","resources/images/coin2.png","null","",NA,NA,NA,NA,""
"image-keyboard-response",87,108551,"0.0-4.25-0.25","o74b77m5zgvdctv",265,"62.csv","","34.300000071525574","resources/trios/L1T2A3.jpg","38","restless",0.4,0.8,0.8,0.34822064478885,"true"
"image-keyboard-response",88,108953,"0.0-4.25-1.25","o74b77m5zgvdctv",265,"62.csv","","null","resources/maskTrios/BT2B.jpg","null","",NA,NA,NA,NA,""
"image-keyboard-response",89,110154,"0.0-4.25-2.25","o74b77m5zgvdctv",265,"62.csv","","null","resources/images/coin2.png","null","",NA,NA,NA,NA,""
"image-keyboard-response",90,110343,"0.0-4.26-0.26","o74b77m5zgvdctv",265,"62.csv","","188.70000004768372","resources/trios/L1T2A3.jpg","38","restless",0.4,0.8,0.7,0.469369412383531,"true"
"image-keyboard-response",91,110744,"0.0-4.26-1.26","o74b77m5zgvdctv",265,"62.csv","","null","resources/maskTrios/BT2B.jpg","null","",NA,NA,NA,NA,""
"image-keyboard-response",92,111945,"0.0-4.26-2.26","o74b77m5zgvdctv",265,"62.csv","","null","resources/images/coin2.png","null","",NA,NA,NA,NA,""
"image-keyboard-response",93,112036,"0.0-4.27-0.27","o74b77m5zgvdctv",265,"62.csv","","90.29999995231628","resources/trios/L1T2A3.jpg","38","restless",0.4,0.8,0.7,0.618904898054398,"true"
"image-keyboard-response",94,112437,"0.0-4.27-1.27","o74b77m5zgvdctv",265,"62.csv","","null","resources/maskTrios/BT2B.jpg","null","",NA,NA,NA,NA,""
"image-keyboard-response",95,113638,"0.0-4.27-2.27","o74b77m5zgvdctv",265,"62.csv","","null","resources/images/coin2.png","null","",NA,NA,NA,NA,""
"image-keyboard-response",96,113837,"0.0-4.28-0.28","o74b77m5zgvdctv",265,"62.csv","","198.59999990463257","resources/trios/L1T2A3.jpg","38","restless",0.4,0.8,0.7,0.0810237077194114,"true"
"image-keyboard-response",97,114238,"0.0-4.28-1.28","o74b77m5zgvdctv",265,"62.csv","","null","resources/maskTrios/BT2B.jpg","null","",NA,NA,NA,NA,""
"image-keyboard-response",98,115439,"0.0-4.28-2.28","o74b77m5zgvdctv",265,"62.csv","","null","resources/images/coin2.png","null","",NA,NA,NA,NA,""
"image-keyboard-response",99,115551,"0.0-4.29-0.29","o74b77m5zgvdctv",265,"62.csv","","111.10000002384186","resources/trios/L1T2A3.jpg","38","restless",0.4,0.8,0.7,0.413801833096131,"true"
"image-keyboard-response",100,115955,"0.0-4.29-1.29","o74b77m5zgvdctv",265,"62.csv","","null","resources/maskTrios/BT2B.jpg","null","",NA,NA,NA,NA,""
"image-keyboard-response",101,117156,"0.0-4.29-2.29","o74b77m5zgvdctv",265,"62.csv","","null","resources/images/coin2.png","null","",NA,NA,NA,NA,""
"image-keyboard-response",102,117189,"0.0-4.30-0.30","o74b77m5zgvdctv",265,"62.csv","","32.39999997615814","resources/trios/L1T2A3.jpg","38","restless",0.4,0.8,0.7,0.636336092189102,"true"
"image-keyboard-response",103,117590,"0.0-4.30-1.30","o74b77m5zgvdctv",265,"62.csv","","null","resources/maskTrios/BT2B.jpg","null","",NA,NA,NA,NA,""
"image-keyboard-response",104,118793,"0.0-4.30-2.30","o74b77m5zgvdctv",265,"62.csv","","null","resources/images/coin2.png","null","",NA,NA,NA,NA,""
"image-keyboard-response",105,119035,"0.0-4.31-0.31","o74b77m5zgvdctv",265,"62.csv","","242.09999990463257","resources/trios/L1T2A3.jpg","38","restless",0.4,0.8,0.7,0.0795093145196102,"true"
"image-keyboard-response",106,119436,"0.0-4.31-1.31","o74b77m5zgvdctv",265,"62.csv","","null","resources/maskTrios/BT2B.jpg","null","",NA,NA,NA,NA,""
"image-keyboard-response",107,120637,"0.0-4.31-2.31","o74b77m5zgvdctv",265,"62.csv","","null","resources/images/coin2.png","null","",NA,NA,NA,NA,""
"image-keyboard-response",108,120764,"0.0-4.32-0.32","o74b77m5zgvdctv",265,"62.csv","","126.10000002384186","resources/trios/L1T2A3.jpg","38","restless",0.4,0.8,0.7,0.0997268026981046,"true"
"image-keyboard-response",109,121165,"0.0-4.32-1.32","o74b77m5zgvdctv",265,"62.csv","","null","resources/maskTrios/BT2B.jpg","null","",NA,NA,NA,NA,""
"image-keyboard-response",110,122366,"0.0-4.32-2.32","o74b77m5zgvdctv",265,"62.csv","","null","resources/images/coin2.png","null","",NA,NA,NA,NA,""
"image-keyboard-response",111,122575,"0.0-4.33-0.33","o74b77m5zgvdctv",265,"62.csv","","208.5","resources/trios/L1T2A3.jpg","38","restless",0.4,0.8,0.7,0.805232289820006,"false"
"image-keyboard-response",112,122975,"0.0-4.33-1.33","o74b77m5zgvdctv",265,"62.csv","","null","resources/maskTrios/BT2B.jpg","null","",NA,NA,NA,NA,""
"image-keyboard-response",113,124177,"0.0-4.33-2.33","o74b77m5zgvdctv",265,"62.csv","","null","resources/images/fishbone.png","null","",NA,NA,NA,NA,""
"image-keyboard-response",114,124354,"0.0-4.34-0.34","o74b77m5zgvdctv",265,"62.csv","","177.09999990463257","resources/trios/L1T2A3.jpg","37","restless",0.4,0.8,0.6,0.646884741671417,"false"
"image-keyboard-response",115,124755,"0.0-4.34-1.34","o74b77m5zgvdctv",265,"62.csv","","null","resources/maskTrios/L1BB.jpg","null","",NA,NA,NA,NA,""
"image-keyboard-response",116,125956,"0.0-4.34-2.34","o74b77m5zgvdctv",265,"62.csv","","null","resources/images/fishbone.png","null","",NA,NA,NA,NA,""
"image-keyboard-response",117,126008,"0.0-4.35-0.35","o74b77m5zgvdctv",265,"62.csv","","51.200000047683716","resources/trios/L1T2A3.jpg","39","restless",0.4,0.8,0.6,0.233696721333648,"true"
"image-keyboard-response",118,126409,"0.0-4.35-1.35","o74b77m5zgvdctv",265,"62.csv","","null","resources/maskTrios/BBA3.jpg","null","",NA,NA,NA,NA,""
"image-keyboard-response",119,127610,"0.0-4.35-2.35","o74b77m5zgvdctv",265,"62.csv","","null","resources/images/coin2.png","null","",NA,NA,NA,NA,""
"image-keyboard-response",120,127787,"0.0-4.36-0.36","o74b77m5zgvdctv",265,"62.csv","","176.70000004768372","resources/trios/L1T2A3.jpg","39","restless",0.4,0.8,0.6,0.734082312637888,"false"
"image-keyboard-response",121,128188,"0.0-4.36-1.36","o74b77m5zgvdctv",265,"62.csv","","null","resources/maskTrios/BBA3.jpg","null","",NA,NA,NA,NA,""
"image-keyboard-response",122,129389,"0.0-4.36-2.36","o74b77m5zgvdctv",265,"62.csv","","null","resources/images/fishbone.png","null","",NA,NA,NA,NA,""
"image-keyboard-response",123,129578,"0.0-4.37-0.37","o74b77m5zgvdctv",265,"62.csv","","188.39999997615814","resources/trios/L1T2A3.jpg","38","restless",0.4,0.8,0.6,0.54805002294176,"true"
"image-keyboard-response",124,129980,"0.0-4.37-1.37","o74b77m5zgvdctv",265,"62.csv","","null","resources/maskTrios/BT2B.jpg","null","",NA,NA,NA,NA,""
"image-keyboard-response",125,131181,"0.0-4.37-2.37","o74b77m5zgvdctv",265,"62.csv","","null","resources/images/coin2.png","null","",NA,NA,NA,NA,""
"image-keyboard-response",126,131208,"0.0-4.38-0.38","o74b77m5zgvdctv",265,"62.csv","","26.600000023841858","resources/trios/L1T2A3.jpg","38","restless",0.4,0.8,0.6,0.708933346256755,"true"
"image-keyboard-response",127,131609,"0.0-4.38-1.38","o74b77m5zgvdctv",265,"62.csv","","null","resources/maskTrios/BT2B.jpg","null","",NA,NA,NA,NA,""
"image-keyboard-response",128,132810,"0.0-4.38-2.38","o74b77m5zgvdctv",265,"62.csv","","null","resources/images/coin2.png","null","",NA,NA,NA,NA,""
"image-keyboard-response",129,132985,"0.0-4.39-0.39","o74b77m5zgvdctv",265,"62.csv","","174.20000004768372","resources/trios/L1T2A3.jpg","38","restless",0.4,0.8,0.6,0.79446353016304,"true"
"image-keyboard-response",130,133386,"0.0-4.39-1.39","o74b77m5zgvdctv",265,"62.csv","","null","resources/maskTrios/BT2B.jpg","null","",NA,NA,NA,NA,""
"image-keyboard-response",131,134587,"0.0-4.39-2.39","o74b77m5zgvdctv",265,"62.csv","","null","resources/images/coin2.png","null","",NA,NA,NA,NA,""
"image-keyboard-response",132,134606,"0.0-4.40-0.40","o74b77m5zgvdctv",265,"62.csv","","18.399999976158142","resources/trios/L1T2A3.jpg","38","restless",0.3,0.8,0.6,0.290111918505729,"true"
"image-keyboard-response",133,135007,"0.0-4.40-1.40","o74b77m5zgvdctv",265,"62.csv","","null","resources/maskTrios/BT2B.jpg","null","",NA,NA,NA,NA,""
"image-keyboard-response",134,136209,"0.0-4.40-2.40","o74b77m5zgvdctv",265,"62.csv","","null","resources/images/coin2.png","null","",NA,NA,NA,NA,""
"image-keyboard-response",135,136362,"0.0-4.41-0.41","o74b77m5zgvdctv",265,"62.csv","","153","resources/trios/L1T2A3.jpg","38","restless",0.3,0.8,0.6,0.43925233419662,"true"
"image-keyboard-response",136,136763,"0.0-4.41-1.41","o74b77m5zgvdctv",265,"62.csv","","null","resources/maskTrios/BT2B.jpg","null","",NA,NA,NA,NA,""
"image-keyboard-response",137,137964,"0.0-4.41-2.41","o74b77m5zgvdctv",265,"62.csv","","null","resources/images/coin2.png","null","",NA,NA,NA,NA,""
"image-keyboard-response",138,137989,"0.0-4.42-0.42","o74b77m5zgvdctv",265,"62.csv","","24.600000023841858","resources/trios/L1T2A3.jpg","38","restless",0.3,0.8,0.6,0.894800326130858,"false"
"image-keyboard-response",139,138390,"0.0-4.42-1.42","o74b77m5zgvdctv",265,"62.csv","","null","resources/maskTrios/BT2B.jpg","null","",NA,NA,NA,NA,""
"image-keyboard-response",140,139592,"0.0-4.42-2.42","o74b77m5zgvdctv",265,"62.csv","","null","resources/images/fishbone.png","null","",NA,NA,NA,NA,""
"image-keyboard-response",141,139641,"0.0-4.43-0.43","o74b77m5zgvdctv",265,"62.csv","","49.199999928474426","resources/trios/L1T2A3.jpg","37","restless",0.3,0.8,0.6,0.373757553236322,"false"
"image-keyboard-response",142,140042,"0.0-4.43-1.43","o74b77m5zgvdctv",265,"62.csv","","null","resources/maskTrios/L1BB.jpg","null","",NA,NA,NA,NA,""
"image-keyboard-response",143,141243,"0.0-4.43-2.43","o74b77m5zgvdctv",265,"62.csv","","null","resources/images/fishbone.png","null","",NA,NA,NA,NA,""
"image-keyboard-response",144,141253,"0.0-4.44-0.44","o74b77m5zgvdctv",265,"62.csv","","9.5","resources/trios/L1T2A3.jpg","39","restless",0.3,0.8,0.6,0.495922322226236,"true"
"image-keyboard-response",145,141654,"0.0-4.44-1.44","o74b77m5zgvdctv",265,"62.csv","","null","resources/maskTrios/BBA3.jpg","null","",NA,NA,NA,NA,""
"image-keyboard-response",146,142856,"0.0-4.44-2.44","o74b77m5zgvdctv",265,"62.csv","","null","resources/images/coin2.png","null","",NA,NA,NA,NA,""
"image-keyboard-response",147,142889,"0.0-4.45-0.45","o74b77m5zgvdctv",265,"62.csv","","32.89999997615814","resources/trios/L1T2A3.jpg","39","restless",0.3,0.8,0.6,0.834510014392862,"false"
"image-keyboard-response",148,143290,"0.0-4.45-1.45","o74b77m5zgvdctv",265,"62.csv","","null","resources/maskTrios/BBA3.jpg","null","",NA,NA,NA,NA,""
"image-keyboard-response",149,144491,"0.0-4.45-2.45","o74b77m5zgvdctv",265,"62.csv","","null","resources/images/fishbone.png","null","",NA,NA,NA,NA,""
"image-keyboard-response",150,144554,"0.0-4.46-0.46","o74b77m5zgvdctv",265,"62.csv","","62.60000002384186","resources/trios/L1T2A3.jpg","38","restless",0.3,0.8,0.6,0.0516774396224062,"true"
"image-keyboard-response",151,144955,"0.0-4.46-1.46","o74b77m5zgvdctv",265,"62.csv","","null","resources/maskTrios/BT2B.jpg","null","",NA,NA,NA,NA,""
"image-keyboard-response",152,146157,"0.0-4.46-2.46","o74b77m5zgvdctv",265,"62.csv","","null","resources/images/coin2.png","null","",NA,NA,NA,NA,""
"image-keyboard-response",153,146201,"0.0-4.47-0.47","o74b77m5zgvdctv",265,"62.csv","","44","resources/trios/L1T2A3.jpg","38","restless",0.3,0.9,0.6,0.255879537265322,"true"
"image-keyboard-response",154,146602,"0.0-4.47-1.47","o74b77m5zgvdctv",265,"62.csv","","null","resources/maskTrios/BT2B.jpg","null","",NA,NA,NA,NA,""
"image-keyboard-response",155,147803,"0.0-4.47-2.47","o74b77m5zgvdctv",265,"62.csv","","null","resources/images/coin2.png","null","",NA,NA,NA,NA,""
"image-keyboard-response",156,147852,"0.0-4.48-0.48","o74b77m5zgvdctv",265,"62.csv","","48.699999928474426","resources/trios/L1T2A3.jpg","38","restless",0.3,0.9,0.6,0.121592597312572,"true"
"image-keyboard-response",157,148253,"0.0-4.48-1.48","o74b77m5zgvdctv",265,"62.csv","","null","resources/maskTrios/BT2B.jpg","null","",NA,NA,NA,NA,""
"image-keyboard-response",158,149455,"0.0-4.48-2.48","o74b77m5zgvdctv",265,"62.csv","","null","resources/images/coin2.png","null","",NA,NA,NA,NA,""
"image-keyboard-response",159,149512,"0.0-4.49-0.49","o74b77m5zgvdctv",265,"62.csv","","57.10000002384186","resources/trios/L1T2A3.jpg","38","restless",0.3,0.9,0.6,0.828648956038482,"true"
"image-keyboard-response",160,149913,"0.0-4.49-1.49","o74b77m5zgvdctv",265,"62.csv","","null","resources/maskTrios/BT2B.jpg","null","",NA,NA,NA,NA,""
"image-keyboard-response",161,151114,"0.0-4.49-2.49","o74b77m5zgvdctv",265,"62.csv","","null","resources/images/coin2.png","null","",NA,NA,NA,NA,""
"image-keyboard-response",162,151266,"0.0-4.50-0.50","o74b77m5zgvdctv",265,"62.csv","","151.5","resources/trios/L1T2A3.jpg","38","restless",0.2,0.9,0.6,0.0273239149688516,"true"
"image-keyboard-response",163,151668,"0.0-4.50-1.50","o74b77m5zgvdctv",265,"62.csv","","null","resources/maskTrios/BT2B.jpg","null","",NA,NA,NA,NA,""
"image-keyboard-response",164,152869,"0.0-4.50-2.50","o74b77m5zgvdctv",265,"62.csv","","null","resources/images/coin2.png","null","",NA,NA,NA,NA,""
"image-keyboard-response",165,153008,"0.0-4.51-0.51","o74b77m5zgvdctv",265,"62.csv","","138.79999995231628","resources/trios/L1T2A3.jpg","38","restless",0.2,0.8,0.6,0.43453072384907,"true"
"image-keyboard-response",166,153409,"0.0-4.51-1.51","o74b77m5zgvdctv",265,"62.csv","","null","resources/maskTrios/BT2B.jpg","null","",NA,NA,NA,NA,""
"image-keyboard-response",167,154610,"0.0-4.51-2.51","o74b77m5zgvdctv",265,"62.csv","","null","resources/images/coin2.png","null","",NA,NA,NA,NA,""
"image-keyboard-response",168,154808,"0.0-4.52-0.52","o74b77m5zgvdctv",265,"62.csv","","197.30000007152557","resources/trios/L1T2A3.jpg","38","restless",0.2,0.8,0.6,0.0498625928874215,"true"
"image-keyboard-response",169,155209,"0.0-4.52-1.52","o74b77m5zgvdctv",265,"62.csv","","null","resources/maskTrios/BT2B.jpg","null","",NA,NA,NA,NA,""
"image-keyboard-response",170,156410,"0.0-4.52-2.52","o74b77m5zgvdctv",265,"62.csv","","null","resources/images/coin2.png","null","",NA,NA,NA,NA,""
"image-keyboard-response",171,156591,"0.0-4.53-0.53","o74b77m5zgvdctv",265,"62.csv","","180.70000004768372","resources/trios/L1T2A3.jpg","38","restless",0.2,0.8,0.6,0.243435305799039,"true"
"image-keyboard-response",172,156992,"0.0-4.53-1.53","o74b77m5zgvdctv",265,"62.csv","","null","resources/maskTrios/BT2B.jpg","null","",NA,NA,NA,NA,""
"image-keyboard-response",173,158193,"0.0-4.53-2.53","o74b77m5zgvdctv",265,"62.csv","","null","resources/images/coin2.png","null","",NA,NA,NA,NA,""
"image-keyboard-response",174,158377,"0.0-4.54-0.54","o74b77m5zgvdctv",265,"62.csv","","183.10000002384186","resources/trios/L1T2A3.jpg","38","restless",0.2,0.7,0.6,0.497052182976608,"true"
"image-keyboard-response",175,158778,"0.0-4.54-1.54","o74b77m5zgvdctv",265,"62.csv","","null","resources/maskTrios/BT2B.jpg","null","",NA,NA,NA,NA,""
"image-keyboard-response",176,159979,"0.0-4.54-2.54","o74b77m5zgvdctv",265,"62.csv","","null","resources/images/coin2.png","null","",NA,NA,NA,NA,""
"image-keyboard-response",177,160124,"0.0-4.55-0.55","o74b77m5zgvdctv",265,"62.csv","","144.5","resources/trios/L1T2A3.jpg","38","restless",0.2,0.7,0.6,0.712443759545573,"false"
"image-keyboard-response",178,160537,"0.0-4.55-1.55","o74b77m5zgvdctv",265,"62.csv","","null","resources/maskTrios/BT2B.jpg","null","",NA,NA,NA,NA,""
"image-keyboard-response",179,161738,"0.0-4.55-2.55","o74b77m5zgvdctv",265,"62.csv","","null","resources/images/fishbone.png","null","",NA,NA,NA,NA,""
"image-keyboard-response",180,161893,"0.0-4.56-0.56","o74b77m5zgvdctv",265,"62.csv","","154.70000004768372","resources/trios/L1T2A3.jpg","39","restless",0.2,0.7,0.6,0.433052849256242,"true"
"image-keyboard-response",181,162294,"0.0-4.56-1.56","o74b77m5zgvdctv",265,"62.csv","","null","resources/maskTrios/BBA3.jpg","null","",NA,NA,NA,NA,""
"image-keyboard-response",182,163495,"0.0-4.56-2.56","o74b77m5zgvdctv",265,"62.csv","","null","resources/images/coin2.png","null","",NA,NA,NA,NA,""
"image-keyboard-response",183,163616,"0.0-4.57-0.57","o74b77m5zgvdctv",265,"62.csv","","120.20000004768372","resources/trios/L1T2A3.jpg","39","restless",0.3,0.7,0.6,0.40788667187063,"true"
"image-keyboard-response",184,164017,"0.0-4.57-1.57","o74b77m5zgvdctv",265,"62.csv","","null","resources/maskTrios/BBA3.jpg","null","",NA,NA,NA,NA,""
"image-keyboard-response",185,165218,"0.0-4.57-2.57","o74b77m5zgvdctv",265,"62.csv","","null","resources/images/coin2.png","null","",NA,NA,NA,NA,""
"image-keyboard-response",186,165357,"0.0-4.58-0.58","o74b77m5zgvdctv",265,"62.csv","","138.60000002384186","resources/trios/L1T2A3.jpg","39","restless",0.3,0.7,0.6,0.991019893769826,"false"
"image-keyboard-response",187,165758,"0.0-4.58-1.58","o74b77m5zgvdctv",265,"62.csv","","null","resources/maskTrios/BBA3.jpg","null","",NA,NA,NA,NA,""
"image-keyboard-response",188,166960,"0.0-4.58-2.58","o74b77m5zgvdctv",265,"62.csv","","null","resources/images/fishbone.png","null","",NA,NA,NA,NA,""
"image-keyboard-response",189,167059,"0.0-4.59-0.59","o74b77m5zgvdctv",265,"62.csv","","98.19999992847443","resources/trios/L1T2A3.jpg","38","restless",0.3,0.6,0.6,0.899529005976464,"false"
"image-keyboard-response",190,167461,"0.0-4.59-1.59","o74b77m5zgvdctv",265,"62.csv","","null","resources/maskTrios/BT2B.jpg","null","",NA,NA,NA,NA,""
"image-keyboard-response",191,168662,"0.0-4.59-2.59","o74b77m5zgvdctv",265,"62.csv","","null","resources/images/fishbone.png","null","",NA,NA,NA,NA,""
"image-keyboard-response",192,169045,"0.0-4.60-0.60","o74b77m5zgvdctv",265,"62.csv","","382.6999999284744","resources/trios/L1T2A3.jpg","37","restless",0.3,0.6,0.6,0.881212275004375,"false"
"image-keyboard-response",193,169447,"0.0-4.60-1.60","o74b77m5zgvdctv",265,"62.csv","","null","resources/maskTrios/L1BB.jpg","null","",NA,NA,NA,NA,""
"image-keyboard-response",194,170648,"0.0-4.60-2.60","o74b77m5zgvdctv",265,"62.csv","","null","resources/images/fishbone.png","null","",NA,NA,NA,NA,""
"image-keyboard-response",195,170783,"0.0-4.61-0.61","o74b77m5zgvdctv",265,"62.csv","","134.80000007152557","resources/trios/L1T2A3.jpg","39","restless",0.4,0.6,0.7,0.522026749868554,"true"
"image-keyboard-response",196,171184,"0.0-4.61-1.61","o74b77m5zgvdctv",265,"62.csv","","null","resources/maskTrios/BBA3.jpg","null","",NA,NA,NA,NA,""
"image-keyboard-response",197,172385,"0.0-4.61-2.61","o74b77m5zgvdctv",265,"62.csv","","null","resources/images/coin2.png","null","",NA,NA,NA,NA,""
"image-keyboard-response",198,172412,"0.0-4.62-0.62","o74b77m5zgvdctv",265,"62.csv","","26.200000047683716","resources/trios/L1T2A3.jpg","39","restless",0.4,0.6,0.7,0.987443655417883,"false"
"image-keyboard-response",199,172813,"0.0-4.62-1.62","o74b77m5zgvdctv",265,"62.csv","","null","resources/maskTrios/BBA3.jpg","null","",NA,NA,NA,NA,""
"image-keyboard-response",200,174014,"0.0-4.62-2.62","o74b77m5zgvdctv",265,"62.csv","","null","resources/images/fishbone.png","null","",NA,NA,NA,NA,""
"image-keyboard-response",201,174125,"0.0-4.63-0.63","o74b77m5zgvdctv",265,"62.csv","","110.60000002384186","resources/trios/L1T2A3.jpg","38","restless",0.4,0.6,0.7,0.792923665642527,"false"
"image-keyboard-response",202,174526,"0.0-4.63-1.63","o74b77m5zgvdctv",265,"62.csv","","null","resources/maskTrios/BT2B.jpg","null","",NA,NA,NA,NA,""
"image-keyboard-response",203,175727,"0.0-4.63-2.63","o74b77m5zgvdctv",265,"62.csv","","null","resources/images/fishbone.png","null","",NA,NA,NA,NA,""
"image-keyboard-response",204,175868,"0.0-4.64-0.64","o74b77m5zgvdctv",265,"62.csv","","140.39999997615814","resources/trios/L1T2A3.jpg","39","restless",0.4,0.6,0.7,0.60048835163781,"true"
"image-keyboard-response",205,176270,"0.0-4.64-1.64","o74b77m5zgvdctv",265,"62.csv","","null","resources/maskTrios/BBA3.jpg","null","",NA,NA,NA,NA,""
"image-keyboard-response",206,177471,"0.0-4.64-2.64","o74b77m5zgvdctv",265,"62.csv","","null","resources/images/coin2.png","null","",NA,NA,NA,NA,""
"image-keyboard-response",207,177603,"0.0-4.65-0.65","o74b77m5zgvdctv",265,"62.csv","","131.5","resources/trios/L1T2A3.jpg","38","restless",0.5,0.6,0.7,0.212226654929895,"true"
"image-keyboard-response",208,178004,"0.0-4.65-1.65","o74b77m5zgvdctv",265,"62.csv","","null","resources/maskTrios/BT2B.jpg","null","",NA,NA,NA,NA,""
"image-keyboard-response",209,179206,"0.0-4.65-2.65","o74b77m5zgvdctv",265,"62.csv","","null","resources/images/coin2.png","null","",NA,NA,NA,NA,""
"image-keyboard-response",210,179275,"0.0-4.66-0.66","o74b77m5zgvdctv",265,"62.csv","","68.89999997615814","resources/trios/L1T2A3.jpg","39","restless",0.5,0.6,0.7,0.541601518519182,"true"
"image-keyboard-response",211,179676,"0.0-4.66-1.66","o74b77m5zgvdctv",265,"62.csv","","null","resources/maskTrios/BBA3.jpg","null","",NA,NA,NA,NA,""
"image-keyboard-response",212,180877,"0.0-4.66-2.66","o74b77m5zgvdctv",265,"62.csv","","null","resources/images/coin2.png","null","",NA,NA,NA,NA,""
"image-keyboard-response",213,180925,"0.0-4.67-0.67","o74b77m5zgvdctv",265,"62.csv","","47.39999997615814","resources/trios/L1T2A3.jpg","38","restless",0.5,0.6,0.7,0.63109426853984,"false"
"image-keyboard-response",214,181327,"0.0-4.67-1.67","o74b77m5zgvdctv",265,"62.csv","","null","resources/maskTrios/BT2B.jpg","null","",NA,NA,NA,NA,""
"image-keyboard-response",215,182528,"0.0-4.67-2.67","o74b77m5zgvdctv",265,"62.csv","","null","resources/images/fishbone.png","null","",NA,NA,NA,NA,""
"image-keyboard-response",216,182598,"0.0-4.68-0.68","o74b77m5zgvdctv",265,"62.csv","","70","resources/trios/L1T2A3.jpg","39","restless",0.5,0.6,0.7,0.959067870110454,"false"
"image-keyboard-response",217,183000,"0.0-4.68-1.68","o74b77m5zgvdctv",265,"62.csv","","null","resources/maskTrios/BBA3.jpg","null","",NA,NA,NA,NA,""
"image-keyboard-response",218,184201,"0.0-4.68-2.68","o74b77m5zgvdctv",265,"62.csv","","null","resources/images/fishbone.png","null","",NA,NA,NA,NA,""
"image-keyboard-response",219,184396,"0.0-4.69-0.69","o74b77m5zgvdctv",265,"62.csv","","194.30000007152557","resources/trios/L1T2A3.jpg","37","restless",0.5,0.6,0.7,0.540274288498789,"false"
"image-keyboard-response",220,184797,"0.0-4.69-1.69","o74b77m5zgvdctv",265,"62.csv","","null","resources/maskTrios/L1BB.jpg","null","",NA,NA,NA,NA,""
"image-keyboard-response",221,185998,"0.0-4.69-2.69","o74b77m5zgvdctv",265,"62.csv","","null","resources/images/fishbone.png","null","",NA,NA,NA,NA,""
"image-keyboard-response",222,186115,"0.0-4.70-0.70","o74b77m5zgvdctv",265,"62.csv","","115.90000009536743","resources/trios/L1T2A3.jpg","38","restless",0.5,0.6,0.7,0.702064962163941,"false"
"image-keyboard-response",223,186516,"0.0-4.70-1.70","o74b77m5zgvdctv",265,"62.csv","","null","resources/maskTrios/BT2B.jpg","null","",NA,NA,NA,NA,""
"image-keyboard-response",224,187717,"0.0-4.70-2.70","o74b77m5zgvdctv",265,"62.csv","","null","resources/images/fishbone.png","null","",NA,NA,NA,NA,""
"image-keyboard-response",225,187755,"0.0-4.71-0.71","o74b77m5zgvdctv",265,"62.csv","","37.60000002384186","resources/trios/L1T2A3.jpg","39","restless",0.5,0.6,0.7,0.563537785616593,"true"
"image-keyboard-response",226,188156,"0.0-4.71-1.71","o74b77m5zgvdctv",265,"62.csv","","null","resources/maskTrios/BBA3.jpg","null","",NA,NA,NA,NA,""
"image-keyboard-response",227,189358,"0.0-4.71-2.71","o74b77m5zgvdctv",265,"62.csv","","null","resources/images/coin2.png","null","",NA,NA,NA,NA,""
"image-keyboard-response",228,189517,"0.0-4.72-0.72","o74b77m5zgvdctv",265,"62.csv","","158.39999997615814","resources/trios/L1T2A3.jpg","38","restless",0.5,0.6,0.6,0.479687007560013,"true"
"image-keyboard-response",229,189918,"0.0-4.72-1.72","o74b77m5zgvdctv",265,"62.csv","","null","resources/maskTrios/BT2B.jpg","null","",NA,NA,NA,NA,""
"image-keyboard-response",230,191119,"0.0-4.72-2.72","o74b77m5zgvdctv",265,"62.csv","","null","resources/images/coin2.png","null","",NA,NA,NA,NA,""
"image-keyboard-response",231,191158,"0.0-4.73-0.73","o74b77m5zgvdctv",265,"62.csv","","38.10000002384186","resources/trios/L1T2A3.jpg","38","restless",0.5,0.6,0.6,0.0636580377858582,"true"
"image-keyboard-response",232,191559,"0.0-4.73-1.73","o74b77m5zgvdctv",265,"62.csv","","null","resources/maskTrios/BT2B.jpg","null","",NA,NA,NA,NA,""
"image-keyboard-response",233,192760,"0.0-4.73-2.73","o74b77m5zgvdctv",265,"62.csv","","null","resources/images/coin2.png","null","",NA,NA,NA,NA,""
"image-keyboard-response",234,192832,"0.0-4.74-0.74","o74b77m5zgvdctv",265,"62.csv","","71.70000004768372","resources/trios/L1T2A3.jpg","38","restless",0.6,0.6,0.6,0.961233134446027,"false"
"image-keyboard-response",235,193233,"0.0-4.74-1.74","o74b77m5zgvdctv",265,"62.csv","","null","resources/maskTrios/BT2B.jpg","null","",NA,NA,NA,NA,""
"image-keyboard-response",236,194434,"0.0-4.74-2.74","o74b77m5zgvdctv",265,"62.csv","","null","resources/images/fishbone.png","null","",NA,NA,NA,NA,""
"image-keyboard-response",237,194484,"0.0-4.75-0.75","o74b77m5zgvdctv",265,"62.csv","","49.299999952316284","resources/trios/L1T2A3.jpg","39","restless",0.6,0.6,0.6,0.847683401672392,"false"
"image-keyboard-response",238,194885,"0.0-4.75-1.75","o74b77m5zgvdctv",265,"62.csv","","null","resources/maskTrios/BBA3.jpg","null","",NA,NA,NA,NA,""
"image-keyboard-response",239,196096,"0.0-4.75-2.75","o74b77m5zgvdctv",265,"62.csv","","null","resources/images/fishbone.png","null","",NA,NA,NA,NA,""
"image-keyboard-response",240,196226,"0.0-4.76-0.76","o74b77m5zgvdctv",265,"62.csv","","129.69999992847443","resources/trios/L1T2A3.jpg","39","restless",0.6,0.6,0.6,0.704923232557211,"false"
"image-keyboard-response",241,196627,"0.0-4.76-1.76","o74b77m5zgvdctv",265,"62.csv","","null","resources/maskTrios/BBA3.jpg","null","",NA,NA,NA,NA,""
"image-keyboard-response",242,197828,"0.0-4.76-2.76","o74b77m5zgvdctv",265,"62.csv","","null","resources/images/fishbone.png","null","",NA,NA,NA,NA,""
"image-keyboard-response",243,198004,"0.0-4.77-0.77","o74b77m5zgvdctv",265,"62.csv","","175","resources/trios/L1T2A3.jpg","38","restless",0.6,0.6,0.6,0.90399573207147,"false"
"image-keyboard-response",244,198405,"0.0-4.77-1.77","o74b77m5zgvdctv",265,"62.csv","","null","resources/maskTrios/BT2B.jpg","null","",NA,NA,NA,NA,""
"image-keyboard-response",245,199606,"0.0-4.77-2.77","o74b77m5zgvdctv",265,"62.csv","","null","resources/images/fishbone.png","null","",NA,NA,NA,NA,""
"image-keyboard-response",246,199695,"0.0-4.78-0.78","o74b77m5zgvdctv",265,"62.csv","","88.5","resources/trios/L1T2A3.jpg","37","restless",0.6,0.6,0.6,0.980835317376932,"false"
"image-keyboard-response",247,200096,"0.0-4.78-1.78","o74b77m5zgvdctv",265,"62.csv","","null","resources/maskTrios/L1BB.jpg","null","",NA,NA,NA,NA,""
"image-keyboard-response",248,201297,"0.0-4.78-2.78","o74b77m5zgvdctv",265,"62.csv","","null","resources/images/fishbone.png","null","",NA,NA,NA,NA,""
"image-keyboard-response",249,201470,"0.0-4.79-0.79","o74b77m5zgvdctv",265,"62.csv","","171.90000009536743","resources/trios/L1T2A3.jpg","39","restless",0.6,0.5,0.6,0.470433188368455,"true"
"image-keyboard-response",250,201871,"0.0-4.79-1.79","o74b77m5zgvdctv",265,"62.csv","","null","resources/maskTrios/BBA3.jpg","null","",NA,NA,NA,NA,""
"image-keyboard-response",251,203072,"0.0-4.79-2.79","o74b77m5zgvdctv",265,"62.csv","","null","resources/images/coin2.png","null","",NA,NA,NA,NA,""
"image-keyboard-response",252,203223,"0.0-4.80-0.80","o74b77m5zgvdctv",265,"62.csv","","150.20000004768372","resources/trios/L1T2A3.jpg","39","restless",0.6,0.5,0.6,0.725450092593783,"false"
"image-keyboard-response",253,203624,"0.0-4.80-1.80","o74b77m5zgvdctv",265,"62.csv","","null","resources/maskTrios/BBA3.jpg","null","",NA,NA,NA,NA,""
"image-keyboard-response",254,204826,"0.0-4.80-2.80","o74b77m5zgvdctv",265,"62.csv","","null","resources/images/fishbone.png","null","",NA,NA,NA,NA,""
"image-keyboard-response",255,205002,"0.0-4.81-0.81","o74b77m5zgvdctv",265,"62.csv","","175.70000004768372","resources/trios/L1T2A3.jpg","38","restless",0.7,0.5,0.6,0.243885563238247,"true"
"image-keyboard-response",256,205403,"0.0-4.81-1.81","o74b77m5zgvdctv",265,"62.csv","","null","resources/maskTrios/BT2B.jpg","null","",NA,NA,NA,NA,""
"image-keyboard-response",257,206604,"0.0-4.81-2.81","o74b77m5zgvdctv",265,"62.csv","","null","resources/images/coin2.png","null","",NA,NA,NA,NA,""
"image-keyboard-response",258,206738,"0.0-4.82-0.82","o74b77m5zgvdctv",265,"62.csv","","133.19999992847443","resources/trios/L1T2A3.jpg","38","restless",0.7,0.4,0.5,0.657726637242443,"false"
"image-keyboard-response",259,207139,"0.0-4.82-1.82","o74b77m5zgvdctv",265,"62.csv","","null","resources/maskTrios/BT2B.jpg","null","",NA,NA,NA,NA,""
"image-keyboard-response",260,208340,"0.0-4.82-2.82","o74b77m5zgvdctv",265,"62.csv","","null","resources/images/fishbone.png","null","",NA,NA,NA,NA,""
"image-keyboard-response",261,208594,"0.0-4.83-0.83","o74b77m5zgvdctv",265,"62.csv","","253.5","resources/trios/L1T2A3.jpg","39","restless",0.7,0.3,0.5,0.884114915817091,"false"
"image-keyboard-response",262,208995,"0.0-4.83-1.83","o74b77m5zgvdctv",265,"62.csv","","null","resources/maskTrios/BBA3.jpg","null","",NA,NA,NA,NA,""
"image-keyboard-response",263,210196,"0.0-4.83-2.83","o74b77m5zgvdctv",265,"62.csv","","null","resources/images/fishbone.png","null","",NA,NA,NA,NA,""
"image-keyboard-response",264,210281,"0.0-4.84-0.84","o74b77m5zgvdctv",265,"62.csv","","83.80000007152557","resources/trios/L1T2A3.jpg","37","restless",0.7,0.3,0.5,0.67614526311515,"true"
"image-keyboard-response",265,210682,"0.0-4.84-1.84","o74b77m5zgvdctv",265,"62.csv","","null","resources/maskTrios/L1BB.jpg","null","",NA,NA,NA,NA,""
"image-keyboard-response",266,211883,"0.0-4.84-2.84","o74b77m5zgvdctv",265,"62.csv","","null","resources/images/coin2.png","null","",NA,NA,NA,NA,""
"image-keyboard-response",267,211905,"0.0-4.85-0.85","o74b77m5zgvdctv",265,"62.csv","","21.200000047683716","resources/trios/L1T2A3.jpg","37","restless",0.7,0.3,0.5,0.867761837191693,"false"
"image-keyboard-response",268,212306,"0.0-4.85-1.85","o74b77m5zgvdctv",265,"62.csv","","null","resources/maskTrios/L1BB.jpg","null","",NA,NA,NA,NA,""
"image-keyboard-response",269,213507,"0.0-4.85-2.85","o74b77m5zgvdctv",265,"62.csv","","null","resources/images/fishbone.png","null","",NA,NA,NA,NA,""
"image-keyboard-response",270,213689,"0.0-4.86-0.86","o74b77m5zgvdctv",265,"62.csv","","180.80000007152557","resources/trios/L1T2A3.jpg","38","restless",0.6,0.3,0.5,0.589147954462486,"false"
"image-keyboard-response",271,214090,"0.0-4.86-1.86","o74b77m5zgvdctv",265,"62.csv","","null","resources/maskTrios/BT2B.jpg","null","",NA,NA,NA,NA,""
"image-keyboard-response",272,215291,"0.0-4.86-2.86","o74b77m5zgvdctv",265,"62.csv","","null","resources/images/fishbone.png","null","",NA,NA,NA,NA,""
"image-keyboard-response",273,215316,"0.0-4.87-0.87","o74b77m5zgvdctv",265,"62.csv","","24.100000023841858","resources/trios/L1T2A3.jpg","39","restless",0.6,0.3,0.5,0.336724307802366,"true"
"image-keyboard-response",274,215716,"0.0-4.87-1.87","o74b77m5zgvdctv",265,"62.csv","","null","resources/maskTrios/BBA3.jpg","null","",NA,NA,NA,NA,""
"image-keyboard-response",275,216918,"0.0-4.87-2.87","o74b77m5zgvdctv",265,"62.csv","","null","resources/images/coin2.png","null","",NA,NA,NA,NA,""
"image-keyboard-response",276,216989,"0.0-4.88-0.88","o74b77m5zgvdctv",265,"62.csv","","70.80000007152557","resources/trios/L1T2A3.jpg","39","restless",0.6,0.3,0.5,0.908923818288333,"false"
"image-keyboard-response",277,217390,"0.0-4.88-1.88","o74b77m5zgvdctv",265,"62.csv","","null","resources/maskTrios/BBA3.jpg","null","",NA,NA,NA,NA,""
"image-keyboard-response",278,218591,"0.0-4.88-2.88","o74b77m5zgvdctv",265,"62.csv","","null","resources/images/fishbone.png","null","",NA,NA,NA,NA,""
"image-keyboard-response",279,220779,"0.0-4.89-0.89","o74b77m5zgvdctv",265,"62.csv","","2187.5","resources/trios/L1T2A3.jpg","38","restless",0.6,0.3,0.6,0.336319437837051,"false"
"image-keyboard-response",280,221180,"0.0-4.89-1.89","o74b77m5zgvdctv",265,"62.csv","","null","resources/maskTrios/BT2B.jpg","null","",NA,NA,NA,NA,""
"image-keyboard-response",281,222382,"0.0-4.89-2.89","o74b77m5zgvdctv",265,"62.csv","","null","resources/images/fishbone.png","null","",NA,NA,NA,NA,""
"image-keyboard-response",282,222532,"0.0-4.90-0.90","o74b77m5zgvdctv",265,"62.csv","","149.80000007152557","resources/trios/L1T2A3.jpg","37","restless",0.6,0.4,0.5,0.590959645923376,"true"
"image-keyboard-response",283,222943,"0.0-4.90-1.90","o74b77m5zgvdctv",265,"62.csv","","null","resources/maskTrios/L1BB.jpg","null","",NA,NA,NA,NA,""
"image-keyboard-response",284,224158,"0.0-4.90-2.90","o74b77m5zgvdctv",265,"62.csv","","null","resources/images/coin2.png","null","",NA,NA,NA,NA,""
"image-keyboard-response",285,224351,"0.0-4.91-0.91","o74b77m5zgvdctv",265,"62.csv","","192","resources/trios/L1T2A3.jpg","37","restless",0.6,0.4,0.5,0.443187025087094,"true"
"image-keyboard-response",286,224752,"0.0-4.91-1.91","o74b77m5zgvdctv",265,"62.csv","","null","resources/maskTrios/L1BB.jpg","null","",NA,NA,NA,NA,""
"image-keyboard-response",287,225953,"0.0-4.91-2.91","o74b77m5zgvdctv",265,"62.csv","","null","resources/images/coin2.png","null","",NA,NA,NA,NA,""
"image-keyboard-response",288,226083,"0.0-4.92-0.92","o74b77m5zgvdctv",265,"62.csv","","129.60000002384186","resources/trios/L1T2A3.jpg","37","restless",0.6,0.4,0.5,0.359483900275461,"true"
"image-keyboard-response",289,226484,"0.0-4.92-1.92","o74b77m5zgvdctv",265,"62.csv","","null","resources/maskTrios/L1BB.jpg","null","",NA,NA,NA,NA,""
"image-keyboard-response",290,227685,"0.0-4.92-2.92","o74b77m5zgvdctv",265,"62.csv","","null","resources/images/coin2.png","null","",NA,NA,NA,NA,""
"image-keyboard-response",291,227767,"0.0-4.93-0.93","o74b77m5zgvdctv",265,"62.csv","","80.90000009536743","resources/trios/L1T2A3.jpg","37","restless",0.6,0.4,0.4,0.185189565257659,"true"
"image-keyboard-response",292,228168,"0.0-4.93-1.93","o74b77m5zgvdctv",265,"62.csv","","null","resources/maskTrios/L1BB.jpg","null","",NA,NA,NA,NA,""
"image-keyboard-response",293,229369,"0.0-4.93-2.93","o74b77m5zgvdctv",265,"62.csv","","null","resources/images/coin2.png","null","",NA,NA,NA,NA,""
"image-keyboard-response",294,229534,"0.0-4.94-0.94","o74b77m5zgvdctv",265,"62.csv","","164.5","resources/trios/L1T2A3.jpg","37","restless",0.6,0.3,0.4,0.707308255802344,"false"
"image-keyboard-response",295,229935,"0.0-4.94-1.94","o74b77m5zgvdctv",265,"62.csv","","null","resources/maskTrios/L1BB.jpg","null","",NA,NA,NA,NA,""
"image-keyboard-response",296,231136,"0.0-4.94-2.94","o74b77m5zgvdctv",265,"62.csv","","null","resources/images/fishbone.png","null","",NA,NA,NA,NA,""
"image-keyboard-response",297,231270,"0.0-4.95-0.95","o74b77m5zgvdctv",265,"62.csv","","132.70000004768372","resources/trios/L1T2A3.jpg","39","restless",0.5,0.3,0.4,0.959091967919499,"false"
"image-keyboard-response",298,231671,"0.0-4.95-1.95","o74b77m5zgvdctv",265,"62.csv","","null","resources/maskTrios/BBA3.jpg","null","",NA,NA,NA,NA,""
"image-keyboard-response",299,232872,"0.0-4.95-2.95","o74b77m5zgvdctv",265,"62.csv","","null","resources/images/fishbone.png","null","",NA,NA,NA,NA,""
"image-keyboard-response",300,232881,"0.0-4.96-0.96","o74b77m5zgvdctv",265,"62.csv","","8.200000047683716","resources/trios/L1T2A3.jpg","38","restless",0.5,0.3,0.4,0.182314120547955,"true"
"image-keyboard-response",301,233281,"0.0-4.96-1.96","o74b77m5zgvdctv",265,"62.csv","","null","resources/maskTrios/BT2B.jpg","null","",NA,NA,NA,NA,""
"image-keyboard-response",302,234483,"0.0-4.96-2.96","o74b77m5zgvdctv",265,"62.csv","","null","resources/images/coin2.png","null","",NA,NA,NA,NA,""
"image-keyboard-response",303,234629,"0.0-4.97-0.97","o74b77m5zgvdctv",265,"62.csv","","145.70000004768372","resources/trios/L1T2A3.jpg","38","restless",0.5,0.3,0.4,0.129024233774738,"true"
"image-keyboard-response",304,235030,"0.0-4.97-1.97","o74b77m5zgvdctv",265,"62.csv","","null","resources/maskTrios/BT2B.jpg","null","",NA,NA,NA,NA,""
"image-keyboard-response",305,236231,"0.0-4.97-2.97","o74b77m5zgvdctv",265,"62.csv","","null","resources/images/coin2.png","null","",NA,NA,NA,NA,""
"image-keyboard-response",306,236289,"0.0-4.98-0.98","o74b77m5zgvdctv",265,"62.csv","","57.10000002384186","resources/trios/L1T2A3.jpg","38","restless",0.5,0.3,0.4,0.226437199661699,"true"
"image-keyboard-response",307,236690,"0.0-4.98-1.98","o74b77m5zgvdctv",265,"62.csv","","null","resources/maskTrios/BT2B.jpg","null","",NA,NA,NA,NA,""
"image-keyboard-response",308,237891,"0.0-4.98-2.98","o74b77m5zgvdctv",265,"62.csv","","null","resources/images/coin2.png","null","",NA,NA,NA,NA,""
"image-keyboard-response",309,237970,"0.0-4.99-0.99","o74b77m5zgvdctv",265,"62.csv","","78.70000004768372","resources/trios/L1T2A3.jpg","38","restless",0.5,0.3,0.4,0.904031589162257,"false"
"image-keyboard-response",310,238371,"0.0-4.99-1.99","o74b77m5zgvdctv",265,"62.csv","","null","resources/maskTrios/BT2B.jpg","null","",NA,NA,NA,NA,""
"image-keyboard-response",311,239573,"0.0-4.99-2.99","o74b77m5zgvdctv",265,"62.csv","","null","resources/images/fishbone.png","null","",NA,NA,NA,NA,""
"image-keyboard-response",312,239730,"0.0-4.100-0.100","o74b77m5zgvdctv",265,"62.csv","","156.10000002384186","resources/trios/L1T2A3.jpg","39","restless",0.6,0.3,0.3,0.0947484018243068,"true"
"image-keyboard-response",313,240131,"0.0-4.100-1.100","o74b77m5zgvdctv",265,"62.csv","","null","resources/maskTrios/BBA3.jpg","null","",NA,NA,NA,NA,""
"image-keyboard-response",314,241332,"0.0-4.100-2.100","o74b77m5zgvdctv",265,"62.csv","","null","resources/images/coin2.png","null","",NA,NA,NA,NA,""
"image-keyboard-response",315,241546,"0.0-4.101-0.101","o74b77m5zgvdctv",265,"62.csv","","213.60000002384186","resources/trios/L1T2A3.jpg","39","restless",0.6,0.3,0.3,0.485820044632787,"false"
"image-keyboard-response",316,241947,"0.0-4.101-1.101","o74b77m5zgvdctv",265,"62.csv","","null","resources/maskTrios/BBA3.jpg","null","",NA,NA,NA,NA,""
"image-keyboard-response",317,243149,"0.0-4.101-2.101","o74b77m5zgvdctv",265,"62.csv","","null","resources/images/fishbone.png","null","",NA,NA,NA,NA,""
"image-keyboard-response",318,243275,"0.0-4.102-0.102","o74b77m5zgvdctv",265,"62.csv","","125.90000009536743","resources/trios/L1T2A3.jpg","37","restless",0.6,0.3,0.2,0.194526059278572,"true"
"image-keyboard-response",319,243676,"0.0-4.102-1.102","o74b77m5zgvdctv",265,"62.csv","","null","resources/maskTrios/L1BB.jpg","null","",NA,NA,NA,NA,""
"image-keyboard-response",320,244877,"0.0-4.102-2.102","o74b77m5zgvdctv",265,"62.csv","","null","resources/images/coin2.png","null","",NA,NA,NA,NA,""
"image-keyboard-response",321,244936,"0.0-4.103-0.103","o74b77m5zgvdctv",265,"62.csv","","58.300000071525574","resources/trios/L1T2A3.jpg","37","restless",0.6,0.3,0.2,0.709557255722422,"false"
"image-keyboard-response",322,245337,"0.0-4.103-1.103","o74b77m5zgvdctv",265,"62.csv","","null","resources/maskTrios/L1BB.jpg","null","",NA,NA,NA,NA,""
"image-keyboard-response",323,246538,"0.0-4.103-2.103","o74b77m5zgvdctv",265,"62.csv","","null","resources/images/fishbone.png","null","",NA,NA,NA,NA,""
"image-keyboard-response",324,246676,"0.0-4.104-0.104","o74b77m5zgvdctv",265,"62.csv","","137.70000004768372","resources/trios/L1T2A3.jpg","38","restless",0.6,0.3,0.2,0.0122265444882053,"true"
"image-keyboard-response",325,247077,"0.0-4.104-1.104","o74b77m5zgvdctv",265,"62.csv","","null","resources/maskTrios/BT2B.jpg","null","",NA,NA,NA,NA,""
"image-keyboard-response",326,248278,"0.0-4.104-2.104","o74b77m5zgvdctv",265,"62.csv","","null","resources/images/coin2.png","null","",NA,NA,NA,NA,""
"image-keyboard-response",327,248457,"0.0-4.105-0.105","o74b77m5zgvdctv",265,"62.csv","","178.30000007152557","resources/trios/L1T2A3.jpg","38","restless",0.6,0.3,0.2,0.243555401763596,"true"
"image-keyboard-response",328,248858,"0.0-4.105-1.105","o74b77m5zgvdctv",265,"62.csv","","null","resources/maskTrios/BT2B.jpg","null","",NA,NA,NA,NA,""
"image-keyboard-response",329,250059,"0.0-4.105-2.105","o74b77m5zgvdctv",265,"62.csv","","null","resources/images/coin2.png","null","",NA,NA,NA,NA,""
"image-keyboard-response",330,250117,"0.0-4.106-0.106","o74b77m5zgvdctv",265,"62.csv","","57.5","resources/trios/L1T2A3.jpg","38","restless",0.6,0.3,0.2,0.808117302792809,"false"
"image-keyboard-response",331,250518,"0.0-4.106-1.106","o74b77m5zgvdctv",265,"62.csv","","null","resources/maskTrios/BT2B.jpg","null","",NA,NA,NA,NA,""
"image-keyboard-response",332,251719,"0.0-4.106-2.106","o74b77m5zgvdctv",265,"62.csv","","null","resources/images/fishbone.png","null","",NA,NA,NA,NA,""
"image-keyboard-response",333,251868,"0.0-4.107-0.107","o74b77m5zgvdctv",265,"62.csv","","148.70000004768372","resources/trios/L1T2A3.jpg","39","restless",0.6,0.3,0.2,0.597830737533008,"false"
"image-keyboard-response",334,252269,"0.0-4.107-1.107","o74b77m5zgvdctv",265,"62.csv","","null","resources/maskTrios/BBA3.jpg","null","",NA,NA,NA,NA,""
"image-keyboard-response",335,253470,"0.0-4.107-2.107","o74b77m5zgvdctv",265,"62.csv","","null","resources/images/fishbone.png","null","",NA,NA,NA,NA,""
"image-keyboard-response",336,253484,"0.0-4.108-0.108","o74b77m5zgvdctv",265,"62.csv","","13.399999976158142","resources/trios/L1T2A3.jpg","37","restless",0.6,0.2,0.2,0.607503206418149,"false"
"image-keyboard-response",337,253885,"0.0-4.108-1.108","o74b77m5zgvdctv",265,"62.csv","","null","resources/maskTrios/L1BB.jpg","null","",NA,NA,NA,NA,""
"image-keyboard-response",338,255086,"0.0-4.108-2.108","o74b77m5zgvdctv",265,"62.csv","","null","resources/images/fishbone.png","null","",NA,NA,NA,NA,""
"image-keyboard-response",339,255262,"0.0-4.109-0.109","o74b77m5zgvdctv",265,"62.csv","","175","resources/trios/L1T2A3.jpg","38","restless",0.6,0.2,0.2,0.164702399359313,"true"
"image-keyboard-response",340,255663,"0.0-4.109-1.109","o74b77m5zgvdctv",265,"62.csv","","null","resources/maskTrios/BT2B.jpg","null","",NA,NA,NA,NA,""
"image-keyboard-response",341,256864,"0.0-4.109-2.109","o74b77m5zgvdctv",265,"62.csv","","null","resources/images/coin2.png","null","",NA,NA,NA,NA,""
"image-keyboard-response",342,256957,"0.0-4.110-0.110","o74b77m5zgvdctv",265,"62.csv","","92.5","resources/trios/L1T2A3.jpg","38","restless",0.6,0.2,0.2,0.0607108618965171,"true"
"image-keyboard-response",343,257358,"0.0-4.110-1.110","o74b77m5zgvdctv",265,"62.csv","","null","resources/maskTrios/BT2B.jpg","null","",NA,NA,NA,NA,""
"image-keyboard-response",344,258560,"0.0-4.110-2.110","o74b77m5zgvdctv",265,"62.csv","","null","resources/images/coin2.png","null","",NA,NA,NA,NA,""
"image-keyboard-response",345,258627,"0.0-4.111-0.111","o74b77m5zgvdctv",265,"62.csv","","67","resources/trios/L1T2A3.jpg","38","restless",0.6,0.2,0.2,0.598757350901407,"false"
"image-keyboard-response",346,259028,"0.0-4.111-1.111","o74b77m5zgvdctv",265,"62.csv","","null","resources/maskTrios/BT2B.jpg","null","",NA,NA,NA,NA,""
"image-keyboard-response",347,260229,"0.0-4.111-2.111","o74b77m5zgvdctv",265,"62.csv","","null","resources/images/fishbone.png","null","",NA,NA,NA,NA,""
"image-keyboard-response",348,260335,"0.0-4.112-0.112","o74b77m5zgvdctv",265,"62.csv","","105.30000007152557","resources/trios/L1T2A3.jpg","39","restless",0.6,0.2,0.2,0.784093204568773,"false"
"image-keyboard-response",349,260736,"0.0-4.112-1.112","o74b77m5zgvdctv",265,"62.csv","","null","resources/maskTrios/BBA3.jpg","null","",NA,NA,NA,NA,""
"image-keyboard-response",350,261937,"0.0-4.112-2.112","o74b77m5zgvdctv",265,"62.csv","","null","resources/images/fishbone.png","null","",NA,NA,NA,NA,""
"image-keyboard-response",351,262124,"0.0-4.113-0.113","o74b77m5zgvdctv",265,"62.csv","","186.70000004768372","resources/trios/L1T2A3.jpg","37","restless",0.6,0.2,0.2,0.191962542346318,"true"
"image-keyboard-response",352,262525,"0.0-4.113-1.113","o74b77m5zgvdctv",265,"62.csv","","null","resources/maskTrios/L1BB.jpg","null","",NA,NA,NA,NA,""
"image-keyboard-response",353,263726,"0.0-4.113-2.113","o74b77m5zgvdctv",265,"62.csv","","null","resources/images/coin2.png","null","",NA,NA,NA,NA,""
"image-keyboard-response",354,263828,"0.0-4.114-0.114","o74b77m5zgvdctv",265,"62.csv","","101.20000004768372","resources/trios/L1T2A3.jpg","37","restless",0.6,0.2,0.2,0.436494714971414,"true"
"image-keyboard-response",355,264229,"0.0-4.114-1.114","o74b77m5zgvdctv",265,"62.csv","","null","resources/maskTrios/L1BB.jpg","null","",NA,NA,NA,NA,""
"image-keyboard-response",356,265430,"0.0-4.114-2.114","o74b77m5zgvdctv",265,"62.csv","","null","resources/images/coin2.png","null","",NA,NA,NA,NA,""
"image-keyboard-response",357,265569,"0.0-4.115-0.115","o74b77m5zgvdctv",265,"62.csv","","138.60000002384186","resources/trios/L1T2A3.jpg","37","restless",0.6,0.2,0.2,0.0433046309057976,"true"
"image-keyboard-response",358,265970,"0.0-4.115-1.115","o74b77m5zgvdctv",265,"62.csv","","null","resources/maskTrios/L1BB.jpg","null","",NA,NA,NA,NA,""
"image-keyboard-response",359,267171,"0.0-4.115-2.115","o74b77m5zgvdctv",265,"62.csv","","null","resources/images/coin2.png","null","",NA,NA,NA,NA,""
"image-keyboard-response",360,267310,"0.0-4.116-0.116","o74b77m5zgvdctv",265,"62.csv","","137.89999997615814","resources/trios/L1T2A3.jpg","37","restless",0.6,0.2,0.2,0.718073739386168,"false"
"image-keyboard-response",361,267711,"0.0-4.116-1.116","o74b77m5zgvdctv",265,"62.csv","","null","resources/maskTrios/L1BB.jpg","null","",NA,NA,NA,NA,""
"image-keyboard-response",362,268912,"0.0-4.116-2.116","o74b77m5zgvdctv",265,"62.csv","","null","resources/images/fishbone.png","null","",NA,NA,NA,NA,""
"image-keyboard-response",363,269056,"0.0-4.117-0.117","o74b77m5zgvdctv",265,"62.csv","","143.5","resources/trios/L1T2A3.jpg","38","restless",0.5,0.2,0.2,0.647317026407909,"false"
"image-keyboard-response",364,269457,"0.0-4.117-1.117","o74b77m5zgvdctv",265,"62.csv","","null","resources/maskTrios/BT2B.jpg","null","",NA,NA,NA,NA,""
"image-keyboard-response",365,270659,"0.0-4.117-2.117","o74b77m5zgvdctv",265,"62.csv","","null","resources/images/fishbone.png","null","",NA,NA,NA,NA,""
"image-keyboard-response",366,270811,"0.0-4.118-0.118","o74b77m5zgvdctv",265,"62.csv","","152","resources/trios/L1T2A3.jpg","39","restless",0.5,0.2,0.2,0.341465204472075,"false"
"image-keyboard-response",367,271212,"0.0-4.118-1.118","o74b77m5zgvdctv",265,"62.csv","","null","resources/maskTrios/BBA3.jpg","null","",NA,NA,NA,NA,""
"image-keyboard-response",368,272413,"0.0-4.118-2.118","o74b77m5zgvdctv",265,"62.csv","","null","resources/images/fishbone.png","null","",NA,NA,NA,NA,""
"image-keyboard-response",369,272639,"0.0-4.119-0.119","o74b77m5zgvdctv",265,"62.csv","","225.20000004768372","resources/trios/L1T2A3.jpg","37","restless",0.5,0.2,0.2,0.602587552739365,"false"
"image-keyboard-response",370,273040,"0.0-4.119-1.119","o74b77m5zgvdctv",265,"62.csv","","null","resources/maskTrios/L1BB.jpg","null","",NA,NA,NA,NA,""
"image-keyboard-response",371,274241,"0.0-4.119-2.119","o74b77m5zgvdctv",265,"62.csv","","null","resources/images/fishbone.png","null","",NA,NA,NA,NA,""
"image-keyboard-response",372,274325,"0.0-4.120-0.120","o74b77m5zgvdctv",265,"62.csv","","83.60000002384186","resources/trios/L1T2A3.jpg","38","restless",0.5,0.2,0.3,0.78541119424073,"false"
"image-keyboard-response",373,274726,"0.0-4.120-1.120","o74b77m5zgvdctv",265,"62.csv","","null","resources/maskTrios/BT2B.jpg","null","",NA,NA,NA,NA,""
"image-keyboard-response",374,275927,"0.0-4.120-2.120","o74b77m5zgvdctv",265,"62.csv","","null","resources/images/fishbone.png","null","",NA,NA,NA,NA,""
"image-keyboard-response",375,276088,"0.0-4.121-0.121","o74b77m5zgvdctv",265,"62.csv","","160.10000002384186","resources/trios/L1T2A3.jpg","39","restless",0.5,0.2,0.3,0.594809566351266,"false"
"image-keyboard-response",376,276489,"0.0-4.121-1.121","o74b77m5zgvdctv",265,"62.csv","","null","resources/maskTrios/BBA3.jpg","null","",NA,NA,NA,NA,""
"image-keyboard-response",377,277690,"0.0-4.121-2.121","o74b77m5zgvdctv",265,"62.csv","","null","resources/images/fishbone.png","null","",NA,NA,NA,NA,""
"image-keyboard-response",378,277822,"0.0-4.122-0.122","o74b77m5zgvdctv",265,"62.csv","","131.59999990463257","resources/trios/L1T2A3.jpg","37","restless",0.5,0.2,0.3,0.859594564239149,"false"
"image-keyboard-response",379,278223,"0.0-4.122-1.122","o74b77m5zgvdctv",265,"62.csv","","null","resources/maskTrios/L1BB.jpg","null","",NA,NA,NA,NA,""
"image-keyboard-response",380,279425,"0.0-4.122-2.122","o74b77m5zgvdctv",265,"62.csv","","null","resources/images/fishbone.png","null","",NA,NA,NA,NA,""
"image-keyboard-response",381,279620,"0.0-4.123-0.123","o74b77m5zgvdctv",265,"62.csv","","194.90000009536743","resources/trios/L1T2A3.jpg","37","restless",0.5,0.2,0.3,0.212703204867871,"true"
"image-keyboard-response",382,280021,"0.0-4.123-1.123","o74b77m5zgvdctv",265,"62.csv","","null","resources/maskTrios/L1BB.jpg","null","",NA,NA,NA,NA,""
"image-keyboard-response",383,281222,"0.0-4.123-2.123","o74b77m5zgvdctv",265,"62.csv","","null","resources/images/coin2.png","null","",NA,NA,NA,NA,""
"image-keyboard-response",384,281393,"0.0-4.124-0.124","o74b77m5zgvdctv",265,"62.csv","","170.30000007152557","resources/trios/L1T2A3.jpg","37","restless",0.5,0.2,0.3,0.125447037199017,"true"
"image-keyboard-response",385,281795,"0.0-4.124-1.124","o74b77m5zgvdctv",265,"62.csv","","null","resources/maskTrios/L1BB.jpg","null","",NA,NA,NA,NA,""
"image-keyboard-response",386,282996,"0.0-4.124-2.124","o74b77m5zgvdctv",265,"62.csv","","null","resources/images/coin2.png","null","",NA,NA,NA,NA,""
"image-keyboard-response",387,283086,"0.0-4.125-0.125","o74b77m5zgvdctv",265,"62.csv","","89.70000004768372","resources/trios/L1T2A3.jpg","37","restless",0.5,0.2,0.2,0.146287390988298,"true"
"image-keyboard-response",388,283487,"0.0-4.125-1.125","o74b77m5zgvdctv",265,"62.csv","","null","resources/maskTrios/L1BB.jpg","null","",NA,NA,NA,NA,""
"image-keyboard-response",389,284688,"0.0-4.125-2.125","o74b77m5zgvdctv",265,"62.csv","","null","resources/images/coin2.png","null","",NA,NA,NA,NA,""
"image-keyboard-response",390,284911,"0.0-4.126-0.126","o74b77m5zgvdctv",265,"62.csv","","222.10000002384186","resources/trios/L1T2A3.jpg","37","restless",0.5,0.2,0.2,0.0256473192122548,"true"
"image-keyboard-response",391,285312,"0.0-4.126-1.126","o74b77m5zgvdctv",265,"62.csv","","null","resources/maskTrios/L1BB.jpg","null","",NA,NA,NA,NA,""
"image-keyboard-response",392,286513,"0.0-4.126-2.126","o74b77m5zgvdctv",265,"62.csv","","null","resources/images/coin2.png","null","",NA,NA,NA,NA,""
"image-keyboard-response",393,286581,"0.0-4.127-0.127","o74b77m5zgvdctv",265,"62.csv","","67.5","resources/trios/L1T2A3.jpg","37","restless",0.5,0.2,0.3,0.0286383390796603,"true"
"image-keyboard-response",394,286982,"0.0-4.127-1.127","o74b77m5zgvdctv",265,"62.csv","","null","resources/maskTrios/L1BB.jpg","null","",NA,NA,NA,NA,""
"image-keyboard-response",395,288183,"0.0-4.127-2.127","o74b77m5zgvdctv",265,"62.csv","","null","resources/images/coin2.png","null","",NA,NA,NA,NA,""
"image-keyboard-response",396,288257,"0.0-4.128-0.128","o74b77m5zgvdctv",265,"62.csv","","72.80000007152557","resources/trios/L1T2A3.jpg","37","restless",0.5,0.2,0.4,0.976892596677177,"false"
"image-keyboard-response",397,288658,"0.0-4.128-1.128","o74b77m5zgvdctv",265,"62.csv","","null","resources/maskTrios/L1BB.jpg","null","",NA,NA,NA,NA,""
"image-keyboard-response",398,289859,"0.0-4.128-2.128","o74b77m5zgvdctv",265,"62.csv","","null","resources/images/fishbone.png","null","",NA,NA,NA,NA,""
"image-keyboard-response",399,289861,"0.0-4.129-0.129","o74b77m5zgvdctv",265,"62.csv","","1.399999976158142","resources/trios/L1T2A3.jpg","39","restless",0.5,0.2,0.4,0.943206944132087,"false"
"image-keyboard-response",400,290261,"0.0-4.129-1.129","o74b77m5zgvdctv",265,"62.csv","","null","resources/maskTrios/BBA3.jpg","null","",NA,NA,NA,NA,""
"image-keyboard-response",401,291463,"0.0-4.129-2.129","o74b77m5zgvdctv",265,"62.csv","","null","resources/images/fishbone.png","null","",NA,NA,NA,NA,""
"image-keyboard-response",402,291564,"0.0-4.130-0.130","o74b77m5zgvdctv",265,"62.csv","","100","resources/trios/L1T2A3.jpg","38","restless",0.5,0.2,0.4,0.0914639926958485,"true"
"image-keyboard-response",403,291965,"0.0-4.130-1.130","o74b77m5zgvdctv",265,"62.csv","","null","resources/maskTrios/BT2B.jpg","null","",NA,NA,NA,NA,""
"image-keyboard-response",404,293166,"0.0-4.130-2.130","o74b77m5zgvdctv",265,"62.csv","","null","resources/images/coin2.png","null","",NA,NA,NA,NA,""
"image-keyboard-response",405,293298,"0.0-4.131-0.131","o74b77m5zgvdctv",265,"62.csv","","131.30000007152557","resources/trios/L1T2A3.jpg","38","restless",0.5,0.2,0.5,0.85441744459408,"false"
"image-keyboard-response",406,293700,"0.0-4.131-1.131","o74b77m5zgvdctv",265,"62.csv","","null","resources/maskTrios/BT2B.jpg","null","",NA,NA,NA,NA,""
"image-keyboard-response",407,294901,"0.0-4.131-2.131","o74b77m5zgvdctv",265,"62.csv","","null","resources/images/fishbone.png","null","",NA,NA,NA,NA,""
"image-keyboard-response",408,294948,"0.0-4.132-0.132","o74b77m5zgvdctv",265,"62.csv","","46.90000009536743","resources/trios/L1T2A3.jpg","37","restless",0.5,0.2,0.5,0.975111824654204,"false"
"image-keyboard-response",409,295349,"0.0-4.132-1.132","o74b77m5zgvdctv",265,"62.csv","","null","resources/maskTrios/L1BB.jpg","null","",NA,NA,NA,NA,""
"image-keyboard-response",410,296550,"0.0-4.132-2.132","o74b77m5zgvdctv",265,"62.csv","","null","resources/images/fishbone.png","null","",NA,NA,NA,NA,""
"image-keyboard-response",411,296651,"0.0-4.133-0.133","o74b77m5zgvdctv",265,"62.csv","","100.30000007152557","resources/trios/L1T2A3.jpg","39","restless",0.5,0.2,0.5,0.50628377963567,"false"
"image-keyboard-response",412,297053,"0.0-4.133-1.133","o74b77m5zgvdctv",265,"62.csv","","null","resources/maskTrios/BBA3.jpg","null","",NA,NA,NA,NA,""
"image-keyboard-response",413,298254,"0.0-4.133-2.133","o74b77m5zgvdctv",265,"62.csv","","null","resources/images/fishbone.png","null","",NA,NA,NA,NA,""
"image-keyboard-response",414,298320,"0.0-4.134-0.134","o74b77m5zgvdctv",265,"62.csv","","65.60000002384186","resources/trios/L1T2A3.jpg","38","restless",0.4,0.2,0.5,0.72841136615108,"false"
"image-keyboard-response",415,298721,"0.0-4.134-1.134","o74b77m5zgvdctv",265,"62.csv","","null","resources/maskTrios/BT2B.jpg","null","",NA,NA,NA,NA,""
"image-keyboard-response",416,299922,"0.0-4.134-2.134","o74b77m5zgvdctv",265,"62.csv","","null","resources/images/fishbone.png","null","",NA,NA,NA,NA,""
"image-keyboard-response",417,300063,"0.0-4.135-0.135","o74b77m5zgvdctv",265,"62.csv","","140.39999997615814","resources/trios/L1T2A3.jpg","38","restless",0.4,0.2,0.5,0.355060360464894,"false"
"image-keyboard-response",418,300465,"0.0-4.135-1.135","o74b77m5zgvdctv",265,"62.csv","","null","resources/maskTrios/BT2B.jpg","null","",NA,NA,NA,NA,""
"image-keyboard-response",419,301665,"0.0-4.135-2.135","o74b77m5zgvdctv",265,"62.csv","","null","resources/images/fishbone.png","null","",NA,NA,NA,NA,""
"image-keyboard-response",420,301816,"0.0-4.136-0.136","o74b77m5zgvdctv",265,"62.csv","","150","resources/trios/L1T2A3.jpg","37","restless",0.4,0.2,0.5,0.182538471230913,"true"
"image-keyboard-response",421,302217,"0.0-4.136-1.136","o74b77m5zgvdctv",265,"62.csv","","null","resources/maskTrios/L1BB.jpg","null","",NA,NA,NA,NA,""
"image-keyboard-response",422,303418,"0.0-4.136-2.136","o74b77m5zgvdctv",265,"62.csv","","null","resources/images/coin2.png","null","",NA,NA,NA,NA,""
"image-keyboard-response",423,303626,"0.0-4.137-0.137","o74b77m5zgvdctv",265,"62.csv","","206.89999997615814","resources/trios/L1T2A3.jpg","37","restless",0.3,0.2,0.5,0.228592080637443,"true"
"image-keyboard-response",424,304027,"0.0-4.137-1.137","o74b77m5zgvdctv",265,"62.csv","","null","resources/maskTrios/L1BB.jpg","null","",NA,NA,NA,NA,""
"image-keyboard-response",425,305228,"0.0-4.137-2.137","o74b77m5zgvdctv",265,"62.csv","","null","resources/images/coin2.png","null","",NA,NA,NA,NA,""
"image-keyboard-response",426,305448,"0.0-4.138-0.138","o74b77m5zgvdctv",265,"62.csv","","219.29999995231628","resources/trios/L1T2A3.jpg","37","restless",0.3,0.2,0.5,0.63773834114907,"false"
"image-keyboard-response",427,305849,"0.0-4.138-1.138","o74b77m5zgvdctv",265,"62.csv","","null","resources/maskTrios/L1BB.jpg","null","",NA,NA,NA,NA,""
"image-keyboard-response",428,307050,"0.0-4.138-2.138","o74b77m5zgvdctv",265,"62.csv","","null","resources/images/fishbone.png","null","",NA,NA,NA,NA,""
"image-keyboard-response",429,307110,"0.0-4.139-0.139","o74b77m5zgvdctv",265,"62.csv","","59.700000047683716","resources/trios/L1T2A3.jpg","39","restless",0.3,0.2,0.5,0.130547016009365,"true"
"image-keyboard-response",430,307511,"0.0-4.139-1.139","o74b77m5zgvdctv",265,"62.csv","","null","resources/maskTrios/BBA3.jpg","null","",NA,NA,NA,NA,""
"image-keyboard-response",431,308712,"0.0-4.139-2.139","o74b77m5zgvdctv",265,"62.csv","","null","resources/images/coin2.png","null","",NA,NA,NA,NA,""
"image-keyboard-response",432,308767,"0.0-4.140-0.140","o74b77m5zgvdctv",265,"62.csv","","54.200000047683716","resources/trios/L1T2A3.jpg","39","restless",0.3,0.3,0.5,0.175434048504855,"true"
"image-keyboard-response",433,309168,"0.0-4.140-1.140","o74b77m5zgvdctv",265,"62.csv","","null","resources/maskTrios/BBA3.jpg","null","",NA,NA,NA,NA,""
"image-keyboard-response",434,310369,"0.0-4.140-2.140","o74b77m5zgvdctv",265,"62.csv","","null","resources/images/coin2.png","null","",NA,NA,NA,NA,""
"image-keyboard-response",435,310551,"0.0-4.141-0.141","o74b77m5zgvdctv",265,"62.csv","","181.70000004768372","resources/trios/L1T2A3.jpg","39","restless",0.3,0.3,0.5,0.537136931510755,"false"
"image-keyboard-response",436,310952,"0.0-4.141-1.141","o74b77m5zgvdctv",265,"62.csv","","null","resources/maskTrios/BBA3.jpg","null","",NA,NA,NA,NA,""
"image-keyboard-response",437,312153,"0.0-4.141-2.141","o74b77m5zgvdctv",265,"62.csv","","null","resources/images/fishbone.png","null","",NA,NA,NA,NA,""
"image-keyboard-response",438,312173,"0.0-4.142-0.142","o74b77m5zgvdctv",265,"62.csv","","19.100000023841858","resources/trios/L1T2A3.jpg","38","restless",0.3,0.3,0.5,0.101717404413002,"true"
"image-keyboard-response",439,312582,"0.0-4.142-1.142","o74b77m5zgvdctv",265,"62.csv","","null","resources/maskTrios/BT2B.jpg","null","",NA,NA,NA,NA,""
"image-keyboard-response",440,313783,"0.0-4.142-2.142","o74b77m5zgvdctv",265,"62.csv","","null","resources/images/coin2.png","null","",NA,NA,NA,NA,""
"image-keyboard-response",441,313833,"0.0-4.143-0.143","o74b77m5zgvdctv",265,"62.csv","","49.60000002384186","resources/trios/L1T2A3.jpg","38","restless",0.3,0.3,0.5,0.520839799978335,"false"
"image-keyboard-response",442,314234,"0.0-4.143-1.143","o74b77m5zgvdctv",265,"62.csv","","null","resources/maskTrios/BT2B.jpg","null","",NA,NA,NA,NA,""
"image-keyboard-response",443,315435,"0.0-4.143-2.143","o74b77m5zgvdctv",265,"62.csv","","null","resources/images/fishbone.png","null","",NA,NA,NA,NA,""
"image-keyboard-response",444,315569,"0.0-4.144-0.144","o74b77m5zgvdctv",265,"62.csv","","132.89999997615814","resources/trios/L1T2A3.jpg","38","restless",0.3,0.3,0.5,0.648205259676654,"false"
"image-keyboard-response",445,315970,"0.0-4.144-1.144","o74b77m5zgvdctv",265,"62.csv","","null","resources/maskTrios/BT2B.jpg","null","",NA,NA,NA,NA,""
"image-keyboard-response",446,317171,"0.0-4.144-2.144","o74b77m5zgvdctv",265,"62.csv","","null","resources/images/fishbone.png","null","",NA,NA,NA,NA,""
"image-keyboard-response",447,317279,"0.0-4.145-0.145","o74b77m5zgvdctv",265,"62.csv","","107.70000004768372","resources/trios/L1T2A3.jpg","37","restless",0.4,0.3,0.5,0.0397389207700352,"true"
"image-keyboard-response",448,317680,"0.0-4.145-1.145","o74b77m5zgvdctv",265,"62.csv","","null","resources/maskTrios/L1BB.jpg","null","",NA,NA,NA,NA,""
"image-keyboard-response",449,318882,"0.0-4.145-2.145","o74b77m5zgvdctv",265,"62.csv","","null","resources/images/coin2.png","null","",NA,NA,NA,NA,""
"image-keyboard-response",450,319000,"0.0-4.146-0.146","o74b77m5zgvdctv",265,"62.csv","","116.79999995231628","resources/trios/L1T2A3.jpg","37","restless",0.4,0.3,0.5,0.278455334733034,"true"
"image-keyboard-response",451,319401,"0.0-4.146-1.146","o74b77m5zgvdctv",265,"62.csv","","null","resources/maskTrios/L1BB.jpg","null","",NA,NA,NA,NA,""
"image-keyboard-response",452,320602,"0.0-4.146-2.146","o74b77m5zgvdctv",265,"62.csv","","null","resources/images/coin2.png","null","",NA,NA,NA,NA,""
"image-keyboard-response",453,320754,"0.0-4.147-0.147","o74b77m5zgvdctv",265,"62.csv","","151.39999997615814","resources/trios/L1T2A3.jpg","37","restless",0.4,0.3,0.5,0.944042597795526,"false"
"image-keyboard-response",454,321155,"0.0-4.147-1.147","o74b77m5zgvdctv",265,"62.csv","","null","resources/maskTrios/L1BB.jpg","null","",NA,NA,NA,NA,""
"image-keyboard-response",455,322357,"0.0-4.147-2.147","o74b77m5zgvdctv",265,"62.csv","","null","resources/images/fishbone.png","null","",NA,NA,NA,NA,""
"image-keyboard-response",456,322446,"0.0-4.148-0.148","o74b77m5zgvdctv",265,"62.csv","","88.90000009536743","resources/trios/L1T2A3.jpg","39","restless",0.5,0.3,0.5,0.690891836600444,"false"
"image-keyboard-response",457,322847,"0.0-4.148-1.148","o74b77m5zgvdctv",265,"62.csv","","null","resources/maskTrios/BBA3.jpg","null","",NA,NA,NA,NA,""
"image-keyboard-response",458,324048,"0.0-4.148-2.148","o74b77m5zgvdctv",265,"62.csv","","null","resources/images/fishbone.png","null","",NA,NA,NA,NA,""
"image-keyboard-response",459,324077,"0.0-4.149-0.149","o74b77m5zgvdctv",265,"62.csv","","28.40000009536743","resources/trios/L1T2A3.jpg","39","restless",0.5,0.3,0.5,0.79844967163559,"false"
"image-keyboard-response",460,324478,"0.0-4.149-1.149","o74b77m5zgvdctv",265,"62.csv","","null","resources/maskTrios/BBA3.jpg","null","",NA,NA,NA,NA,""
"image-keyboard-response",461,325680,"0.0-4.149-2.149","o74b77m5zgvdctv",265,"62.csv","","null","resources/images/fishbone.png","null","",NA,NA,NA,NA,""
"image-keyboard-response",462,325879,"0.0-4.150-0.150","o74b77m5zgvdctv",265,"62.csv","","198.70000004768372","resources/trios/L1T2A3.jpg","38","restless",0.5,0.3,0.5,0.110657402066836,"true"
"image-keyboard-response",463,326280,"0.0-4.150-1.150","o74b77m5zgvdctv",265,"62.csv","","null","resources/maskTrios/BT2B.jpg","null","",NA,NA,NA,NA,""
"image-keyboard-response",464,327481,"0.0-4.150-2.150","o74b77m5zgvdctv",265,"62.csv","","null","resources/images/coin2.png","null","",NA,NA,NA,NA,""
"image-keyboard-response",465,327568,"0.0-4.151-0.151","o74b77m5zgvdctv",265,"62.csv","","86.20000004768372","resources/trios/L1T2A3.jpg","38","restless",0.5,0.3,0.5,0.391395872030008,"false"
"image-keyboard-response",466,327969,"0.0-4.151-1.151","o74b77m5zgvdctv",265,"62.csv","","null","resources/maskTrios/BT2B.jpg","null","",NA,NA,NA,NA,""
"image-keyboard-response",467,329170,"0.0-4.151-2.151","o74b77m5zgvdctv",265,"62.csv","","null","resources/images/fishbone.png","null","",NA,NA,NA,NA,""
"image-keyboard-response",468,329217,"0.0-4.152-0.152","o74b77m5zgvdctv",265,"62.csv","","46.60000002384186","resources/trios/L1T2A3.jpg","38","restless",0.5,0.2,0.5,0.695465112947206,"false"
"image-keyboard-response",469,329618,"0.0-4.152-1.152","o74b77m5zgvdctv",265,"62.csv","","null","resources/maskTrios/BT2B.jpg","null","",NA,NA,NA,NA,""
"image-keyboard-response",470,330819,"0.0-4.152-2.152","o74b77m5zgvdctv",265,"62.csv","","null","resources/images/fishbone.png","null","",NA,NA,NA,NA,""
"image-keyboard-response",471,331028,"0.0-4.153-0.153","o74b77m5zgvdctv",265,"62.csv","","208.20000004768372","resources/trios/L1T2A3.jpg","37","restless",0.5,0.2,0.5,0.698628636666635,"false"
"image-keyboard-response",472,331430,"0.0-4.153-1.153","o74b77m5zgvdctv",265,"62.csv","","null","resources/maskTrios/L1BB.jpg","null","",NA,NA,NA,NA,""
"image-keyboard-response",473,332631,"0.0-4.153-2.153","o74b77m5zgvdctv",265,"62.csv","","null","resources/images/fishbone.png","null","",NA,NA,NA,NA,""
"image-keyboard-response",474,332807,"0.0-4.154-0.154","o74b77m5zgvdctv",265,"62.csv","","175.20000004768372","resources/trios/L1T2A3.jpg","37","restless",0.5,0.2,0.5,0.195164948896438,"true"
"image-keyboard-response",475,333208,"0.0-4.154-1.154","o74b77m5zgvdctv",265,"62.csv","","null","resources/maskTrios/L1BB.jpg","null","",NA,NA,NA,NA,""
"image-keyboard-response",476,334410,"0.0-4.154-2.154","o74b77m5zgvdctv",265,"62.csv","","null","resources/images/coin2.png","null","",NA,NA,NA,NA,""
"image-keyboard-response",477,334619,"0.0-4.155-0.155","o74b77m5zgvdctv",265,"62.csv","","208.80000007152557","resources/trios/L1T2A3.jpg","37","restless",0.5,0.2,0.5,0.708502966568172,"false"
"image-keyboard-response",478,335020,"0.0-4.155-1.155","o74b77m5zgvdctv",265,"62.csv","","null","resources/maskTrios/L1BB.jpg","null","",NA,NA,NA,NA,""
"image-keyboard-response",479,336221,"0.0-4.155-2.155","o74b77m5zgvdctv",265,"62.csv","","null","resources/images/fishbone.png","null","",NA,NA,NA,NA,""
"image-keyboard-response",480,336416,"0.0-4.156-0.156","o74b77m5zgvdctv",265,"62.csv","","194.20000004768372","resources/trios/L1T2A3.jpg","39","restless",0.5,0.2,0.5,0.177095142380315,"true"
"image-keyboard-response",481,336818,"0.0-4.156-1.156","o74b77m5zgvdctv",265,"62.csv","","null","resources/maskTrios/BBA3.jpg","null","",NA,NA,NA,NA,""
"image-keyboard-response",482,338019,"0.0-4.156-2.156","o74b77m5zgvdctv",265,"62.csv","","null","resources/images/coin2.png","null","",NA,NA,NA,NA,""
"image-keyboard-response",483,338152,"0.0-4.157-0.157","o74b77m5zgvdctv",265,"62.csv","","132.5","resources/trios/L1T2A3.jpg","38","restless",0.5,0.2,0.5,0.426831073009592,"false"
"image-keyboard-response",484,338553,"0.0-4.157-1.157","o74b77m5zgvdctv",265,"62.csv","","null","resources/maskTrios/BT2B.jpg","null","",NA,NA,NA,NA,""
"image-keyboard-response",485,339754,"0.0-4.157-2.157","o74b77m5zgvdctv",265,"62.csv","","null","resources/images/fishbone.png","null","",NA,NA,NA,NA,""
"image-keyboard-response",486,339873,"0.0-4.158-0.158","o74b77m5zgvdctv",265,"62.csv","","118.10000002384186","resources/trios/L1T2A3.jpg","39","restless",0.5,0.2,0.5,0.0455015343523186,"true"
"image-keyboard-response",487,340274,"0.0-4.158-1.158","o74b77m5zgvdctv",265,"62.csv","","null","resources/maskTrios/BBA3.jpg","null","",NA,NA,NA,NA,""
"image-keyboard-response",488,341475,"0.0-4.158-2.158","o74b77m5zgvdctv",265,"62.csv","","null","resources/images/coin2.png","null","",NA,NA,NA,NA,""
"image-keyboard-response",489,341574,"0.0-4.159-0.159","o74b77m5zgvdctv",265,"62.csv","","98.60000002384186","resources/trios/L1T2A3.jpg","39","restless",0.5,0.2,0.5,0.979581234222958,"false"
"image-keyboard-response",490,341975,"0.0-4.159-1.159","o74b77m5zgvdctv",265,"62.csv","","null","resources/maskTrios/BBA3.jpg","null","",NA,NA,NA,NA,""
"image-keyboard-response",491,343176,"0.0-4.159-2.159","o74b77m5zgvdctv",265,"62.csv","","null","resources/images/fishbone.png","null","",NA,NA,NA,NA,""
"image-keyboard-response",492,343318,"0.0-4.160-0.160","o74b77m5zgvdctv",265,"62.csv","","140.89999997615814","resources/trios/L1T2A3.jpg","38","restless",0.6,0.2,0.6,0.0658047718671801,"true"
"image-keyboard-response",493,343719,"0.0-4.160-1.160","o74b77m5zgvdctv",265,"62.csv","","null","resources/maskTrios/BT2B.jpg","null","",NA,NA,NA,NA,""
"image-keyboard-response",494,344920,"0.0-4.160-2.160","o74b77m5zgvdctv",265,"62.csv","","null","resources/images/coin2.png","null","",NA,NA,NA,NA,""
"image-keyboard-response",495,344964,"0.0-4.161-0.161","o74b77m5zgvdctv",265,"62.csv","","43.200000047683716","resources/trios/L1T2A3.jpg","38","restless",0.6,0.2,0.6,0.900490983279949,"false"
"image-keyboard-response",496,345364,"0.0-4.161-1.161","o74b77m5zgvdctv",265,"62.csv","","null","resources/maskTrios/BT2B.jpg","null","",NA,NA,NA,NA,""
"image-keyboard-response",497,346566,"0.0-4.161-2.161","o74b77m5zgvdctv",265,"62.csv","","null","resources/images/fishbone.png","null","",NA,NA,NA,NA,""
"image-keyboard-response",498,346672,"0.0-4.162-0.162","o74b77m5zgvdctv",265,"62.csv","","105.90000009536743","resources/trios/L1T2A3.jpg","39","restless",0.6,0.2,0.6,0.227833448163328,"true"
"image-keyboard-response",499,347073,"0.0-4.162-1.162","o74b77m5zgvdctv",265,"62.csv","","null","resources/maskTrios/BBA3.jpg","null","",NA,NA,NA,NA,""
"image-keyboard-response",500,348274,"0.0-4.162-2.162","o74b77m5zgvdctv",265,"62.csv","","null","resources/images/coin2.png","null","",NA,NA,NA,NA,""
"image-keyboard-response",501,348402,"0.0-4.163-0.163","o74b77m5zgvdctv",265,"62.csv","","127.20000004768372","resources/trios/L1T2A3.jpg","38","restless",0.6,0.2,0.6,0.0341270236111155,"true"
"image-keyboard-response",502,348804,"0.0-4.163-1.163","o74b77m5zgvdctv",265,"62.csv","","null","resources/maskTrios/BT2B.jpg","null","",NA,NA,NA,NA,""
"image-keyboard-response",503,350005,"0.0-4.163-2.163","o74b77m5zgvdctv",265,"62.csv","","null","resources/images/coin2.png","null","",NA,NA,NA,NA,""
"image-keyboard-response",504,350173,"0.0-4.164-0.164","o74b77m5zgvdctv",265,"62.csv","","167.80000007152557","resources/trios/L1T2A3.jpg","39","restless",0.6,0.2,0.6,0.422237354310898,"true"
"image-keyboard-response",505,350574,"0.0-4.164-1.164","o74b77m5zgvdctv",265,"62.csv","","null","resources/maskTrios/BBA3.jpg","null","",NA,NA,NA,NA,""
"image-keyboard-response",506,351775,"0.0-4.164-2.164","o74b77m5zgvdctv",265,"62.csv","","null","resources/images/coin2.png","null","",NA,NA,NA,NA,""
"image-keyboard-response",507,351886,"0.0-4.165-0.165","o74b77m5zgvdctv",265,"62.csv","","110.10000002384186","resources/trios/L1T2A3.jpg","38","restless",0.6,0.2,0.6,0.985333377753884,"false"
"image-keyboard-response",508,352287,"0.0-4.165-1.165","o74b77m5zgvdctv",265,"62.csv","","null","resources/maskTrios/BT2B.jpg","null","",NA,NA,NA,NA,""
"image-keyboard-response",509,353488,"0.0-4.165-2.165","o74b77m5zgvdctv",265,"62.csv","","null","resources/images/fishbone.png","null","",NA,NA,NA,NA,""
"image-keyboard-response",510,353555,"0.0-4.166-0.166","o74b77m5zgvdctv",265,"62.csv","","66.5","resources/trios/L1T2A3.jpg","37","restless",0.6,0.2,0.6,0.617310694625758,"false"
"image-keyboard-response",511,353956,"0.0-4.166-1.166","o74b77m5zgvdctv",265,"62.csv","","null","resources/maskTrios/L1BB.jpg","null","",NA,NA,NA,NA,""
"image-keyboard-response",512,355157,"0.0-4.166-2.166","o74b77m5zgvdctv",265,"62.csv","","null","resources/images/fishbone.png","null","",NA,NA,NA,NA,""
"image-keyboard-response",513,355288,"0.0-4.167-0.167","o74b77m5zgvdctv",265,"62.csv","","130","resources/trios/L1T2A3.jpg","39","restless",0.6,0.2,0.6,0.01818996223069,"true"
"image-keyboard-response",514,355689,"0.0-4.167-1.167","o74b77m5zgvdctv",265,"62.csv","","null","resources/maskTrios/BBA3.jpg","null","",NA,NA,NA,NA,""
"image-keyboard-response",515,356890,"0.0-4.167-2.167","o74b77m5zgvdctv",265,"62.csv","","null","resources/images/coin2.png","null","",NA,NA,NA,NA,""
"image-keyboard-response",516,356963,"0.0-4.168-0.168","o74b77m5zgvdctv",265,"62.csv","","72.20000004768372","resources/trios/L1T2A3.jpg","39","restless",0.6,0.2,0.6,0.0870196353213821,"true"
"image-keyboard-response",517,357363,"0.0-4.168-1.168","o74b77m5zgvdctv",265,"62.csv","","null","resources/maskTrios/BBA3.jpg","null","",NA,NA,NA,NA,""
"image-keyboard-response",518,358564,"0.0-4.168-2.168","o74b77m5zgvdctv",265,"62.csv","","null","resources/images/coin2.png","null","",NA,NA,NA,NA,""
"image-keyboard-response",519,358685,"0.0-4.169-0.169","o74b77m5zgvdctv",265,"62.csv","","119.89999997615814","resources/trios/L1T2A3.jpg","39","restless",0.6,0.3,0.6,0.458433504211049,"true"
"image-keyboard-response",520,359086,"0.0-4.169-1.169","o74b77m5zgvdctv",265,"62.csv","","null","resources/maskTrios/BBA3.jpg","null","",NA,NA,NA,NA,""
"image-keyboard-response",521,360287,"0.0-4.169-2.169","o74b77m5zgvdctv",265,"62.csv","","null","resources/images/coin2.png","null","",NA,NA,NA,NA,""
"image-keyboard-response",522,360447,"0.0-4.170-0.170","o74b77m5zgvdctv",265,"62.csv","","159.29999995231628","resources/trios/L1T2A3.jpg","39","restless",0.6,0.3,0.6,0.779246024322058,"false"
"image-keyboard-response",523,360850,"0.0-4.170-1.170","o74b77m5zgvdctv",265,"62.csv","","null","resources/maskTrios/BBA3.jpg","null","",NA,NA,NA,NA,""
"image-keyboard-response",524,362051,"0.0-4.170-2.170","o74b77m5zgvdctv",265,"62.csv","","null","resources/images/fishbone.png","null","",NA,NA,NA,NA,""
"image-keyboard-response",525,362204,"0.0-4.171-0.171","o74b77m5zgvdctv",265,"62.csv","","152.80000007152557","resources/trios/L1T2A3.jpg","38","restless",0.6,0.3,0.6,0.545864851730117,"false"
"image-keyboard-response",526,362606,"0.0-4.171-1.171","o74b77m5zgvdctv",265,"62.csv","","null","resources/maskTrios/BT2B.jpg","null","",NA,NA,NA,NA,""
"image-keyboard-response",527,363807,"0.0-4.171-2.171","o74b77m5zgvdctv",265,"62.csv","","null","resources/images/fishbone.png","null","",NA,NA,NA,NA,""
"image-keyboard-response",528,363844,"0.0-4.172-0.172","o74b77m5zgvdctv",265,"62.csv","","36.10000002384186","resources/trios/L1T2A3.jpg","39","restless",0.6,0.3,0.6,0.932836430547499,"false"
"image-keyboard-response",529,364245,"0.0-4.172-1.172","o74b77m5zgvdctv",265,"62.csv","","null","resources/maskTrios/BBA3.jpg","null","",NA,NA,NA,NA,""
"image-keyboard-response",530,365446,"0.0-4.172-2.172","o74b77m5zgvdctv",265,"62.csv","","null","resources/images/fishbone.png","null","",NA,NA,NA,NA,""
"image-keyboard-response",531,365524,"0.0-4.173-0.173","o74b77m5zgvdctv",265,"62.csv","","77.70000004768372","resources/trios/L1T2A3.jpg","37","restless",0.6,0.3,0.6,0.968523852448648,"false"
"image-keyboard-response",532,365925,"0.0-4.173-1.173","o74b77m5zgvdctv",265,"62.csv","","null","resources/maskTrios/L1BB.jpg","null","",NA,NA,NA,NA,""
"image-keyboard-response",533,367126,"0.0-4.173-2.173","o74b77m5zgvdctv",265,"62.csv","","null","resources/images/fishbone.png","null","",NA,NA,NA,NA,""
"image-keyboard-response",534,367292,"0.0-4.174-0.174","o74b77m5zgvdctv",265,"62.csv","","164.89999997615814","resources/trios/L1T2A3.jpg","37","restless",0.6,0.4,0.6,0.23094314639997,"true"
"image-keyboard-response",535,367693,"0.0-4.174-1.174","o74b77m5zgvdctv",265,"62.csv","","null","resources/maskTrios/L1BB.jpg","null","",NA,NA,NA,NA,""
"image-keyboard-response",536,368894,"0.0-4.174-2.174","o74b77m5zgvdctv",265,"62.csv","","null","resources/images/coin2.png","null","",NA,NA,NA,NA,""
"image-keyboard-response",537,369048,"0.0-4.175-0.175","o74b77m5zgvdctv",265,"62.csv","","153.5","resources/trios/L1T2A3.jpg","37","restless",0.6,0.4,0.6,0.737303305379381,"false"
"image-keyboard-response",538,369449,"0.0-4.175-1.175","o74b77m5zgvdctv",265,"62.csv","","null","resources/maskTrios/L1BB.jpg","null","",NA,NA,NA,NA,""
"image-keyboard-response",539,370650,"0.0-4.175-2.175","o74b77m5zgvdctv",265,"62.csv","","null","resources/images/fishbone.png","null","",NA,NA,NA,NA,""
"image-keyboard-response",540,370790,"0.0-4.176-0.176","o74b77m5zgvdctv",265,"62.csv","","139","resources/trios/L1T2A3.jpg","38","restless",0.6,0.4,0.6,0.454575350780783,"false"
"image-keyboard-response",541,371191,"0.0-4.176-1.176","o74b77m5zgvdctv",265,"62.csv","","null","resources/maskTrios/BT2B.jpg","null","",NA,NA,NA,NA,""
"image-keyboard-response",542,372392,"0.0-4.176-2.176","o74b77m5zgvdctv",265,"62.csv","","null","resources/images/fishbone.png","null","",NA,NA,NA,NA,""
"image-keyboard-response",543,372441,"0.0-4.177-0.177","o74b77m5zgvdctv",265,"62.csv","","48.200000047683716","resources/trios/L1T2A3.jpg","38","restless",0.6,0.4,0.6,0.308275613743672,"true"
"image-keyboard-response",544,372846,"0.0-4.177-1.177","o74b77m5zgvdctv",265,"62.csv","","null","resources/maskTrios/BT2B.jpg","null","",NA,NA,NA,NA,""
"image-keyboard-response",545,374048,"0.0-4.177-2.177","o74b77m5zgvdctv",265,"62.csv","","null","resources/images/coin2.png","null","",NA,NA,NA,NA,""
"image-keyboard-response",546,374117,"0.0-4.178-0.178","o74b77m5zgvdctv",265,"62.csv","","68.80000007152557","resources/trios/L1T2A3.jpg","38","restless",0.5,0.4,0.7,0.678983817182311,"false"
"image-keyboard-response",547,374519,"0.0-4.178-1.178","o74b77m5zgvdctv",265,"62.csv","","null","resources/maskTrios/BT2B.jpg","null","",NA,NA,NA,NA,""
"image-keyboard-response",548,375720,"0.0-4.178-2.178","o74b77m5zgvdctv",265,"62.csv","","null","resources/images/fishbone.png","null","",NA,NA,NA,NA,""
"image-keyboard-response",549,375737,"0.0-4.179-0.179","o74b77m5zgvdctv",265,"62.csv","","16.200000047683716","resources/trios/L1T2A3.jpg","39","restless",0.5,0.4,0.7,0.480751203077114,"true"
"image-keyboard-response",550,376138,"0.0-4.179-1.179","o74b77m5zgvdctv",265,"62.csv","","null","resources/maskTrios/BBA3.jpg","null","",NA,NA,NA,NA,""
"image-keyboard-response",551,377340,"0.0-4.179-2.179","o74b77m5zgvdctv",265,"62.csv","","null","resources/images/coin2.png","null","",NA,NA,NA,NA,""
"image-keyboard-response",552,377441,"0.0-4.180-0.180","o74b77m5zgvdctv",265,"62.csv","","100.80000007152557","resources/trios/L1T2A3.jpg","39","restless",0.5,0.4,0.7,0.176571603022817,"true"
"image-keyboard-response",553,377842,"0.0-4.180-1.180","o74b77m5zgvdctv",265,"62.csv","","null","resources/maskTrios/BBA3.jpg","null","",NA,NA,NA,NA,""
"image-keyboard-response",554,379044,"0.0-4.180-2.180","o74b77m5zgvdctv",265,"62.csv","","null","resources/images/coin2.png","null","",NA,NA,NA,NA,""
"image-keyboard-response",555,379146,"0.0-4.181-0.181","o74b77m5zgvdctv",265,"62.csv","","101.30000007152557","resources/trios/L1T2A3.jpg","39","restless",0.5,0.4,0.7,0.555130665925347,"true"
"image-keyboard-response",556,379548,"0.0-4.181-1.181","o74b77m5zgvdctv",265,"62.csv","","null","resources/maskTrios/BBA3.jpg","null","",NA,NA,NA,NA,""
"image-keyboard-response",557,380749,"0.0-4.181-2.181","o74b77m5zgvdctv",265,"62.csv","","null","resources/images/coin2.png","null","",NA,NA,NA,NA,""
"image-keyboard-response",558,380873,"0.0-4.182-0.182","o74b77m5zgvdctv",265,"62.csv","","123.70000004768372","resources/trios/L1T2A3.jpg","39","restless",0.5,0.4,0.7,0.701190741721646,"false"
"image-keyboard-response",559,381274,"0.0-4.182-1.182","o74b77m5zgvdctv",265,"62.csv","","null","resources/maskTrios/BBA3.jpg","null","",NA,NA,NA,NA,""
"image-keyboard-response",560,382475,"0.0-4.182-2.182","o74b77m5zgvdctv",265,"62.csv","","null","resources/images/fishbone.png","null","",NA,NA,NA,NA,""
"image-keyboard-response",561,382585,"0.0-4.183-0.183","o74b77m5zgvdctv",265,"62.csv","","109.10000002384186","resources/trios/L1T2A3.jpg","37","restless",0.5,0.4,0.7,0.485793848055244,"true"
"image-keyboard-response",562,382986,"0.0-4.183-1.183","o74b77m5zgvdctv",265,"62.csv","","null","resources/maskTrios/L1BB.jpg","null","",NA,NA,NA,NA,""
"image-keyboard-response",563,384187,"0.0-4.183-2.183","o74b77m5zgvdctv",265,"62.csv","","null","resources/images/coin2.png","null","",NA,NA,NA,NA,""
"image-keyboard-response",564,384401,"0.0-4.184-0.184","o74b77m5zgvdctv",265,"62.csv","","213.60000002384186","resources/trios/L1T2A3.jpg","37","restless",0.5,0.4,0.7,0.750147113646435,"false"
"image-keyboard-response",565,384802,"0.0-4.184-1.184","o74b77m5zgvdctv",265,"62.csv","","null","resources/maskTrios/L1BB.jpg","null","",NA,NA,NA,NA,""
"image-keyboard-response",566,386003,"0.0-4.184-2.184","o74b77m5zgvdctv",265,"62.csv","","null","resources/images/fishbone.png","null","",NA,NA,NA,NA,""
"image-keyboard-response",567,386069,"0.0-4.185-0.185","o74b77m5zgvdctv",265,"62.csv","","65","resources/trios/L1T2A3.jpg","38","restless",0.5,0.3,0.7,0.0574690492542647,"true"
"image-keyboard-response",568,386470,"0.0-4.185-1.185","o74b77m5zgvdctv",265,"62.csv","","null","resources/maskTrios/BT2B.jpg","null","",NA,NA,NA,NA,""
"image-keyboard-response",569,387671,"0.0-4.185-2.185","o74b77m5zgvdctv",265,"62.csv","","null","resources/images/coin2.png","null","",NA,NA,NA,NA,""
"image-keyboard-response",570,387773,"0.0-4.186-0.186","o74b77m5zgvdctv",265,"62.csv","","101.39999997615814","resources/trios/L1T2A3.jpg","38","restless",0.5,0.3,0.7,0.946897180213512,"false"
"image-keyboard-response",571,388174,"0.0-4.186-1.186","o74b77m5zgvdctv",265,"62.csv","","null","resources/maskTrios/BT2B.jpg","null","",NA,NA,NA,NA,""
"image-keyboard-response",572,389376,"0.0-4.186-2.186","o74b77m5zgvdctv",265,"62.csv","","null","resources/images/fishbone.png","null","",NA,NA,NA,NA,""
"image-keyboard-response",573,389442,"0.0-4.187-0.187","o74b77m5zgvdctv",265,"62.csv","","65.60000002384186","resources/trios/L1T2A3.jpg","39","restless",0.5,0.3,0.7,0.392150026901449,"true"
"image-keyboard-response",574,389843,"0.0-4.187-1.187","o74b77m5zgvdctv",265,"62.csv","","null","resources/maskTrios/BBA3.jpg","null","",NA,NA,NA,NA,""
"image-keyboard-response",575,391044,"0.0-4.187-2.187","o74b77m5zgvdctv",265,"62.csv","","null","resources/images/coin2.png","null","",NA,NA,NA,NA,""
"image-keyboard-response",576,391138,"0.0-4.188-0.188","o74b77m5zgvdctv",265,"62.csv","","93.19999992847443","resources/trios/L1T2A3.jpg","39","restless",0.5,0.3,0.7,0.76368351974297,"false"
"image-keyboard-response",577,391538,"0.0-4.188-1.188","o74b77m5zgvdctv",265,"62.csv","","null","resources/maskTrios/BBA3.jpg","null","",NA,NA,NA,NA,""
"image-keyboard-response",578,392740,"0.0-4.188-2.188","o74b77m5zgvdctv",265,"62.csv","","null","resources/images/fishbone.png","null","",NA,NA,NA,NA,""
"image-keyboard-response",579,392773,"0.0-4.189-0.189","o74b77m5zgvdctv",265,"62.csv","","32.800000071525574","resources/trios/L1T2A3.jpg","37","restless",0.5,0.3,0.7,0.11797694973799,"true"
"image-keyboard-response",580,393174,"0.0-4.189-1.189","o74b77m5zgvdctv",265,"62.csv","","null","resources/maskTrios/L1BB.jpg","null","",NA,NA,NA,NA,""
"image-keyboard-response",581,394375,"0.0-4.189-2.189","o74b77m5zgvdctv",265,"62.csv","","null","resources/images/coin2.png","null","",NA,NA,NA,NA,""
"image-keyboard-response",582,394442,"0.0-4.190-0.190","o74b77m5zgvdctv",265,"62.csv","","66.30000007152557","resources/trios/L1T2A3.jpg","37","restless",0.5,0.3,0.6,0.77773122690152,"false"
"image-keyboard-response",583,394843,"0.0-4.190-1.190","o74b77m5zgvdctv",265,"62.csv","","null","resources/maskTrios/L1BB.jpg","null","",NA,NA,NA,NA,""
"image-keyboard-response",584,396045,"0.0-4.190-2.190","o74b77m5zgvdctv",265,"62.csv","","null","resources/images/fishbone.png","null","",NA,NA,NA,NA,""
"image-keyboard-response",585,396048,"0.0-4.191-0.191","o74b77m5zgvdctv",265,"62.csv","","2.8000000715255737","resources/trios/L1T2A3.jpg","38","restless",0.5,0.3,0.6,0.942466447849555,"false"
"image-keyboard-response",586,396449,"0.0-4.191-1.191","o74b77m5zgvdctv",265,"62.csv","","null","resources/maskTrios/BT2B.jpg","null","",NA,NA,NA,NA,""
"image-keyboard-response",587,397651,"0.0-4.191-2.191","o74b77m5zgvdctv",265,"62.csv","","null","resources/images/fishbone.png","null","",NA,NA,NA,NA,""
"image-keyboard-response",588,397658,"0.0-4.192-0.192","o74b77m5zgvdctv",265,"62.csv","","6.300000071525574","resources/trios/L1T2A3.jpg","39","restless",0.4,0.3,0.6,0.424483901434245,"true"
"image-keyboard-response",589,398059,"0.0-4.192-1.192","o74b77m5zgvdctv",265,"62.csv","","null","resources/maskTrios/BBA3.jpg","null","",NA,NA,NA,NA,""
"image-keyboard-response",590,399260,"0.0-4.192-2.192","o74b77m5zgvdctv",265,"62.csv","","null","resources/images/coin2.png","null","",NA,NA,NA,NA,""
"image-keyboard-response",591,399361,"0.0-4.193-0.193","o74b77m5zgvdctv",265,"62.csv","","99.89999997615814","resources/trios/L1T2A3.jpg","39","restless",0.4,0.3,0.6,0.993545691518369,"false"
"image-keyboard-response",592,399762,"0.0-4.193-1.193","o74b77m5zgvdctv",265,"62.csv","","null","resources/maskTrios/BBA3.jpg","null","",NA,NA,NA,NA,""
"image-keyboard-response",593,400963,"0.0-4.193-2.193","o74b77m5zgvdctv",265,"62.csv","","null","resources/images/fishbone.png","null","",NA,NA,NA,NA,""
"image-keyboard-response",594,401145,"0.0-4.194-0.194","o74b77m5zgvdctv",265,"62.csv","","181.39999997615814","resources/trios/L1T2A3.jpg","37","restless",0.4,0.3,0.6,0.284076954684811,"true"
"image-keyboard-response",595,401547,"0.0-4.194-1.194","o74b77m5zgvdctv",265,"62.csv","","null","resources/maskTrios/L1BB.jpg","null","",NA,NA,NA,NA,""
"image-keyboard-response",596,402748,"0.0-4.194-2.194","o74b77m5zgvdctv",265,"62.csv","","null","resources/images/coin2.png","null","",NA,NA,NA,NA,""
"image-keyboard-response",597,402947,"0.0-4.195-0.195","o74b77m5zgvdctv",265,"62.csv","","198.5","resources/trios/L1T2A3.jpg","37","restless",0.4,0.3,0.6,0.799269679841867,"false"
"image-keyboard-response",598,403348,"0.0-4.195-1.195","o74b77m5zgvdctv",265,"62.csv","","null","resources/maskTrios/L1BB.jpg","null","",NA,NA,NA,NA,""
"image-keyboard-response",599,404549,"0.0-4.195-2.195","o74b77m5zgvdctv",265,"62.csv","","null","resources/images/fishbone.png","null","",NA,NA,NA,NA,""
"image-keyboard-response",600,404608,"0.0-4.196-0.196","o74b77m5zgvdctv",265,"62.csv","","58","resources/trios/L1T2A3.jpg","38","restless",0.4,0.3,0.6,0.489367744289418,"false"
"image-keyboard-response",601,405009,"0.0-4.196-1.196","o74b77m5zgvdctv",265,"62.csv","","null","resources/maskTrios/BT2B.jpg","null","",NA,NA,NA,NA,""
"image-keyboard-response",602,406210,"0.0-4.196-2.196","o74b77m5zgvdctv",265,"62.csv","","null","resources/images/fishbone.png","null","",NA,NA,NA,NA,""
"image-keyboard-response",603,406364,"0.0-4.197-0.197","o74b77m5zgvdctv",265,"62.csv","","153.39999997615814","resources/trios/L1T2A3.jpg","38","restless",0.4,0.3,0.6,0.629609734003087,"false"
"image-keyboard-response",604,406765,"0.0-4.197-1.197","o74b77m5zgvdctv",265,"62.csv","","null","resources/maskTrios/BT2B.jpg","null","",NA,NA,NA,NA,""
"image-keyboard-response",605,407966,"0.0-4.197-2.197","o74b77m5zgvdctv",265,"62.csv","","null","resources/images/fishbone.png","null","",NA,NA,NA,NA,""
"image-keyboard-response",606,408073,"0.0-4.198-0.198","o74b77m5zgvdctv",265,"62.csv","","106","resources/trios/L1T2A3.jpg","39","restless",0.4,0.3,0.6,0.510702508773197,"true"
"image-keyboard-response",607,408474,"0.0-4.198-1.198","o74b77m5zgvdctv",265,"62.csv","","null","resources/maskTrios/BBA3.jpg","null","",NA,NA,NA,NA,""
"image-keyboard-response",608,409675,"0.0-4.198-2.198","o74b77m5zgvdctv",265,"62.csv","","null","resources/images/coin2.png","null","",NA,NA,NA,NA,""
"image-keyboard-response",609,409830,"0.0-4.199-0.199","o74b77m5zgvdctv",265,"62.csv","","154.29999995231628","resources/trios/L1T2A3.jpg","39","restless",0.4,0.3,0.6,0.764567645251403,"false"
"image-keyboard-response",610,410231,"0.0-4.199-1.199","o74b77m5zgvdctv",265,"62.csv","","null","resources/maskTrios/BBA3.jpg","null","",NA,NA,NA,NA,""
"image-keyboard-response",611,411433,"0.0-4.199-2.199","o74b77m5zgvdctv",265,"62.csv","","null","resources/images/fishbone.png","null","",NA,NA,NA,NA,""
