"trial_type","trial_index","time_elapsed","internal_node_id","subject","participantCode","walkNumber","success","rt","stimulus","key_press","test_part","leftProb","midProb","rightProb","generatedNum","correct"
"pavlovia",0,992,"0.0-0.0","9v7dx59jullgljs",291,"90.csv","","","","","",NA,NA,NA,NA,""
"fullscreen",1,6041,"0.0-1.0","9v7dx59jullgljs",291,"90.csv","true","","","","",NA,NA,NA,NA,""
"survey-html-form",2,22961,"0.0-2.0","9v7dx59jullgljs",291,"90.csv","","16911","","","",NA,NA,NA,NA,""
"image-keyboard-response",3,112651,"0.0-3.0-0.0","9v7dx59jullgljs",291,"90.csv","","89688.70000000298","resources/images/parrot_nobg.png","13","",NA,NA,NA,NA,""
"image-keyboard-response",4,115655,"0.0-3.0-1.0","9v7dx59jullgljs",291,"90.csv","","null","resources/image_sets/111.png","null","",NA,NA,NA,NA,""
"image-keyboard-response",5,122671,"0.0-3.0-2.0","9v7dx59jullgljs",291,"90.csv","","7014.89999999851","resources/image_sets/left_highlight.png","37","",NA,NA,NA,NA,""
"image-keyboard-response",6,128082,"0.0-3.0-3.0","9v7dx59jullgljs",291,"90.csv","","5409.79999999702","resources/image_sets/mid_highlight.png","38","",NA,NA,NA,NA,""
"image-keyboard-response",7,129129,"0.0-3.0-4.0","9v7dx59jullgljs",291,"90.csv","","1046.9000000059605","resources/image_sets/right_highlight.png","39","",NA,NA,NA,NA,""
"image-keyboard-response",8,132697,"0.0-3.0-5.0","9v7dx59jullgljs",291,"90.csv","","3566.7000000029802","resources/image_sets/111.png","13","",NA,NA,NA,NA,""
"image-keyboard-response",9,134741,"0.0-3.0-6.0","9v7dx59jullgljs",291,"90.csv","","2042.6999999955297","resources/images/coin2.png","13","",NA,NA,NA,NA,""
"image-keyboard-response",10,136161,"0.0-3.0-7.0","9v7dx59jullgljs",291,"90.csv","","1419.2000000029802","resources/images/fishbone.png","13","",NA,NA,NA,NA,""
"html-keyboard-response",11,164252,"0.0-3.0-8.0","9v7dx59jullgljs",291,"90.csv","","28090.69999999553","<p>You can track your coin total on the top right of your screen. </p><p>At the end of your journey you will be directed to a survey, so please click on the link before exiting the task</p><p>Press Enter to begin</p>","13","",NA,NA,NA,NA,""
"image-keyboard-response",12,170673,"0.0-4.0-0.0","9v7dx59jullgljs",291,"90.csv","","6419.89999999851","resources/trios/L1T2A2.jpg","37","restless",0.9,0.7,0.3,0.516993309072083,"true"
"image-keyboard-response",13,171078,"0.0-4.0-1.0","9v7dx59jullgljs",291,"90.csv","","null","resources/maskTrios/L1BB.jpg","null","",NA,NA,NA,NA,""
"image-keyboard-response",14,172282,"0.0-4.0-2.0","9v7dx59jullgljs",291,"90.csv","","null","resources/images/coin2.png","null","",NA,NA,NA,NA,""
"image-keyboard-response",15,173885,"0.0-4.1-0.1","9v7dx59jullgljs",291,"90.csv","","1600.6000000014901","resources/trios/L1T2A2.jpg","37","restless",0.9,0.7,0.3,0.976457802297825,"false"
"image-keyboard-response",16,174288,"0.0-4.1-1.1","9v7dx59jullgljs",291,"90.csv","","null","resources/maskTrios/L1BB.jpg","null","",NA,NA,NA,NA,""
"image-keyboard-response",17,175491,"0.0-4.1-2.1","9v7dx59jullgljs",291,"90.csv","","null","resources/images/fishbone.png","null","",NA,NA,NA,NA,""
"image-keyboard-response",18,176225,"0.0-4.2-0.2","9v7dx59jullgljs",291,"90.csv","","732.6999999955297","resources/trios/L1T2A2.jpg","38","restless",0.9,0.7,0.3,0.756040373273669,"false"
"image-keyboard-response",19,176629,"0.0-4.2-1.2","9v7dx59jullgljs",291,"90.csv","","null","resources/maskTrios/BT2B.jpg","null","",NA,NA,NA,NA,""
"image-keyboard-response",20,177832,"0.0-4.2-2.2","9v7dx59jullgljs",291,"90.csv","","null","resources/images/fishbone.png","null","",NA,NA,NA,NA,""
"image-keyboard-response",21,179033,"0.0-4.3-0.3","9v7dx59jullgljs",291,"90.csv","","1199.3999999985099","resources/trios/L1T2A2.jpg","37","restless",0.9,0.7,0.3,0.132139871717073,"true"
"image-keyboard-response",22,179435,"0.0-4.3-1.3","9v7dx59jullgljs",291,"90.csv","","null","resources/maskTrios/L1BB.jpg","null","",NA,NA,NA,NA,""
"image-keyboard-response",23,180639,"0.0-4.3-2.3","9v7dx59jullgljs",291,"90.csv","","null","resources/images/coin2.png","null","",NA,NA,NA,NA,""
"image-keyboard-response",24,180972,"0.0-4.4-0.4","9v7dx59jullgljs",291,"90.csv","","331.8999999985099","resources/trios/L1T2A2.jpg","37","restless",0.9,0.7,0.3,0.447122897310929,"true"
"image-keyboard-response",25,181375,"0.0-4.4-1.4","9v7dx59jullgljs",291,"90.csv","","null","resources/maskTrios/L1BB.jpg","null","",NA,NA,NA,NA,""
"image-keyboard-response",26,182578,"0.0-4.4-2.4","9v7dx59jullgljs",291,"90.csv","","null","resources/images/coin2.png","null","",NA,NA,NA,NA,""
"image-keyboard-response",27,182929,"0.0-4.5-0.5","9v7dx59jullgljs",291,"90.csv","","349.1000000014901","resources/trios/L1T2A2.jpg","37","restless",0.9,0.7,0.3,0.0537693028468822,"true"
"image-keyboard-response",28,183332,"0.0-4.5-1.5","9v7dx59jullgljs",291,"90.csv","","null","resources/maskTrios/L1BB.jpg","null","",NA,NA,NA,NA,""
"image-keyboard-response",29,184535,"0.0-4.5-2.5","9v7dx59jullgljs",291,"90.csv","","null","resources/images/coin2.png","null","",NA,NA,NA,NA,""
"image-keyboard-response",30,184796,"0.0-4.6-0.6","9v7dx59jullgljs",291,"90.csv","","259.1000000014901","resources/trios/L1T2A2.jpg","37","restless",0.9,0.7,0.2,0.237675212904907,"true"
"image-keyboard-response",31,185199,"0.0-4.6-1.6","9v7dx59jullgljs",291,"90.csv","","null","resources/maskTrios/L1BB.jpg","null","",NA,NA,NA,NA,""
"image-keyboard-response",32,186402,"0.0-4.6-2.6","9v7dx59jullgljs",291,"90.csv","","null","resources/images/coin2.png","null","",NA,NA,NA,NA,""
"image-keyboard-response",33,186756,"0.0-4.7-0.7","9v7dx59jullgljs",291,"90.csv","","352.69999999552965","resources/trios/L1T2A2.jpg","37","restless",0.9,0.7,0.2,0.365151333237257,"true"
"image-keyboard-response",34,187159,"0.0-4.7-1.7","9v7dx59jullgljs",291,"90.csv","","null","resources/maskTrios/L1BB.jpg","null","",NA,NA,NA,NA,""
"image-keyboard-response",35,188361,"0.0-4.7-2.7","9v7dx59jullgljs",291,"90.csv","","null","resources/images/coin2.png","null","",NA,NA,NA,NA,""
"image-keyboard-response",36,188468,"0.0-4.8-0.8","9v7dx59jullgljs",291,"90.csv","","105","resources/trios/L1T2A2.jpg","37","restless",0.9,0.7,0.2,0.947011280854114,"false"
"image-keyboard-response",37,188871,"0.0-4.8-1.8","9v7dx59jullgljs",291,"90.csv","","null","resources/maskTrios/L1BB.jpg","null","",NA,NA,NA,NA,""
"image-keyboard-response",38,190074,"0.0-4.8-2.8","9v7dx59jullgljs",291,"90.csv","","null","resources/images/fishbone.png","null","",NA,NA,NA,NA,""
"image-keyboard-response",39,191084,"0.0-4.9-0.9","9v7dx59jullgljs",291,"90.csv","","1008.1000000014901","resources/trios/L1T2A2.jpg","37","restless",0.9,0.7,0.1,0.785169649542411,"true"
"image-keyboard-response",40,191487,"0.0-4.9-1.9","9v7dx59jullgljs",291,"90.csv","","null","resources/maskTrios/L1BB.jpg","null","",NA,NA,NA,NA,""
"image-keyboard-response",41,192690,"0.0-4.9-2.9","9v7dx59jullgljs",291,"90.csv","","null","resources/images/coin2.png","null","",NA,NA,NA,NA,""
"image-keyboard-response",42,193228,"0.0-4.10-0.10","9v7dx59jullgljs",291,"90.csv","","536.2000000029802","resources/trios/L1T2A2.jpg","37","restless",0.9,0.7,0.1,0.0733643475347021,"true"
"image-keyboard-response",43,193630,"0.0-4.10-1.10","9v7dx59jullgljs",291,"90.csv","","null","resources/maskTrios/L1BB.jpg","null","",NA,NA,NA,NA,""
"image-keyboard-response",44,194834,"0.0-4.10-2.10","9v7dx59jullgljs",291,"90.csv","","null","resources/images/coin2.png","null","",NA,NA,NA,NA,""
"image-keyboard-response",45,195008,"0.0-4.11-0.11","9v7dx59jullgljs",291,"90.csv","","172.89999999850988","resources/trios/L1T2A2.jpg","37","restless",0.9,0.7,0.1,0.231586402947648,"true"
"image-keyboard-response",46,195411,"0.0-4.11-1.11","9v7dx59jullgljs",291,"90.csv","","null","resources/maskTrios/L1BB.jpg","null","",NA,NA,NA,NA,""
"image-keyboard-response",47,196614,"0.0-4.11-2.11","9v7dx59jullgljs",291,"90.csv","","null","resources/images/coin2.png","null","",NA,NA,NA,NA,""
"image-keyboard-response",48,196716,"0.0-4.12-0.12","9v7dx59jullgljs",291,"90.csv","","100.10000000149012","resources/trios/L1T2A2.jpg","37","restless",0.9,0.7,0.1,0.936856991256738,"false"
"image-keyboard-response",49,197119,"0.0-4.12-1.12","9v7dx59jullgljs",291,"90.csv","","null","resources/maskTrios/L1BB.jpg","null","",NA,NA,NA,NA,""
"image-keyboard-response",50,198322,"0.0-4.12-2.12","9v7dx59jullgljs",291,"90.csv","","null","resources/images/fishbone.png","null","",NA,NA,NA,NA,""
"image-keyboard-response",51,198524,"0.0-4.13-0.13","9v7dx59jullgljs",291,"90.csv","","200.5","resources/trios/L1T2A2.jpg","37","restless",0.9,0.7,0.2,0.777702457333509,"true"
"image-keyboard-response",52,198927,"0.0-4.13-1.13","9v7dx59jullgljs",291,"90.csv","","null","resources/maskTrios/L1BB.jpg","null","",NA,NA,NA,NA,""
"image-keyboard-response",53,200130,"0.0-4.13-2.13","9v7dx59jullgljs",291,"90.csv","","null","resources/images/coin2.png","null","",NA,NA,NA,NA,""
"image-keyboard-response",54,200344,"0.0-4.14-0.14","9v7dx59jullgljs",291,"90.csv","","213.39999999850988","resources/trios/L1T2A2.jpg","37","restless",0.9,0.7,0.2,0.707205250896234,"true"
"image-keyboard-response",55,200747,"0.0-4.14-1.14","9v7dx59jullgljs",291,"90.csv","","null","resources/maskTrios/L1BB.jpg","null","",NA,NA,NA,NA,""
"image-keyboard-response",56,201951,"0.0-4.14-2.14","9v7dx59jullgljs",291,"90.csv","","null","resources/images/coin2.png","null","",NA,NA,NA,NA,""
"image-keyboard-response",57,202060,"0.0-4.15-0.15","9v7dx59jullgljs",291,"90.csv","","107.80000000447035","resources/trios/L1T2A2.jpg","37","restless",0.9,0.7,0.2,0.699820244967856,"true"
"image-keyboard-response",58,202462,"0.0-4.15-1.15","9v7dx59jullgljs",291,"90.csv","","null","resources/maskTrios/L1BB.jpg","null","",NA,NA,NA,NA,""
"image-keyboard-response",59,203665,"0.0-4.15-2.15","9v7dx59jullgljs",291,"90.csv","","null","resources/images/coin2.png","null","",NA,NA,NA,NA,""
"image-keyboard-response",60,212857,"0.0-4.16-0.16","9v7dx59jullgljs",291,"90.csv","","9190.60000000149","resources/trios/L1T2A2.jpg","37","restless",0.9,0.8,0.2,0.393785122277662,"true"
"image-keyboard-response",61,213259,"0.0-4.16-1.16","9v7dx59jullgljs",291,"90.csv","","null","resources/maskTrios/L1BB.jpg","null","",NA,NA,NA,NA,""
"image-keyboard-response",62,214463,"0.0-4.16-2.16","9v7dx59jullgljs",291,"90.csv","","null","resources/images/coin2.png","null","",NA,NA,NA,NA,""
"image-keyboard-response",63,214585,"0.0-4.17-0.17","9v7dx59jullgljs",291,"90.csv","","120.29999999701977","resources/trios/L1T2A2.jpg","37","restless",0.9,0.7,0.2,0.936994242600466,"false"
"image-keyboard-response",64,214988,"0.0-4.17-1.17","9v7dx59jullgljs",291,"90.csv","","null","resources/maskTrios/L1BB.jpg","null","",NA,NA,NA,NA,""
"image-keyboard-response",65,216191,"0.0-4.17-2.17","9v7dx59jullgljs",291,"90.csv","","null","resources/images/fishbone.png","null","",NA,NA,NA,NA,""
"image-keyboard-response",66,216440,"0.0-4.18-0.18","9v7dx59jullgljs",291,"90.csv","","247.60000000149012","resources/trios/L1T2A2.jpg","37","restless",0.9,0.7,0.2,0.977868634764721,"false"
"image-keyboard-response",67,216843,"0.0-4.18-1.18","9v7dx59jullgljs",291,"90.csv","","null","resources/maskTrios/L1BB.jpg","null","",NA,NA,NA,NA,""
"image-keyboard-response",68,218045,"0.0-4.18-2.18","9v7dx59jullgljs",291,"90.csv","","null","resources/images/fishbone.png","null","",NA,NA,NA,NA,""
"image-keyboard-response",69,218920,"0.0-4.19-0.19","9v7dx59jullgljs",291,"90.csv","","873.3000000044703","resources/trios/L1T2A2.jpg","37","restless",0.8,0.7,0.2,0.690493300304714,"true"
"image-keyboard-response",70,219324,"0.0-4.19-1.19","9v7dx59jullgljs",291,"90.csv","","null","resources/maskTrios/L1BB.jpg","null","",NA,NA,NA,NA,""
"image-keyboard-response",71,220527,"0.0-4.19-2.19","9v7dx59jullgljs",291,"90.csv","","null","resources/images/coin2.png","null","",NA,NA,NA,NA,""
"image-keyboard-response",72,221043,"0.0-4.20-0.20","9v7dx59jullgljs",291,"90.csv","","514.6000000014901","resources/trios/L1T2A2.jpg","37","restless",0.8,0.7,0.2,0.845710103292122,"false"
"image-keyboard-response",73,221446,"0.0-4.20-1.20","9v7dx59jullgljs",291,"90.csv","","null","resources/maskTrios/L1BB.jpg","null","",NA,NA,NA,NA,""
"image-keyboard-response",74,222649,"0.0-4.20-2.20","9v7dx59jullgljs",291,"90.csv","","null","resources/images/fishbone.png","null","",NA,NA,NA,NA,""
"image-keyboard-response",75,223232,"0.0-4.21-0.21","9v7dx59jullgljs",291,"90.csv","","581.6999999955297","resources/trios/L1T2A2.jpg","38","restless",0.8,0.7,0.2,0.915683767940977,"false"
"image-keyboard-response",76,223635,"0.0-4.21-1.21","9v7dx59jullgljs",291,"90.csv","","null","resources/maskTrios/BT2B.jpg","null","",NA,NA,NA,NA,""
"image-keyboard-response",77,224838,"0.0-4.21-2.21","9v7dx59jullgljs",291,"90.csv","","null","resources/images/fishbone.png","null","",NA,NA,NA,NA,""
"image-keyboard-response",78,225096,"0.0-4.22-0.22","9v7dx59jullgljs",291,"90.csv","","256","resources/trios/L1T2A2.jpg","38","restless",0.7,0.6,0.2,0.00657537733952429,"true"
"image-keyboard-response",79,225499,"0.0-4.22-1.22","9v7dx59jullgljs",291,"90.csv","","null","resources/maskTrios/BT2B.jpg","null","",NA,NA,NA,NA,""
"image-keyboard-response",80,226702,"0.0-4.22-2.22","9v7dx59jullgljs",291,"90.csv","","null","resources/images/coin2.png","null","",NA,NA,NA,NA,""
"image-keyboard-response",81,227568,"0.0-4.23-0.23","9v7dx59jullgljs",291,"90.csv","","864.1000000014901","resources/trios/L1T2A2.jpg","37","restless",0.7,0.6,0.2,0.266156957640806,"true"
"image-keyboard-response",82,227970,"0.0-4.23-1.23","9v7dx59jullgljs",291,"90.csv","","null","resources/maskTrios/L1BB.jpg","null","",NA,NA,NA,NA,""
"image-keyboard-response",83,229172,"0.0-4.23-2.23","9v7dx59jullgljs",291,"90.csv","","null","resources/images/coin2.png","null","",NA,NA,NA,NA,""
"image-keyboard-response",84,229227,"0.0-4.24-0.24","9v7dx59jullgljs",291,"90.csv","","53.20000000298023","resources/trios/L1T2A2.jpg","37","restless",0.7,0.6,0.2,0.635354044130044,"true"
"image-keyboard-response",85,229630,"0.0-4.24-1.24","9v7dx59jullgljs",291,"90.csv","","null","resources/maskTrios/L1BB.jpg","null","",NA,NA,NA,NA,""
"image-keyboard-response",86,230833,"0.0-4.24-2.24","9v7dx59jullgljs",291,"90.csv","","null","resources/images/coin2.png","null","",NA,NA,NA,NA,""
"image-keyboard-response",87,230850,"0.0-4.25-0.25","9v7dx59jullgljs",291,"90.csv","","15","resources/trios/L1T2A2.jpg","37","restless",0.7,0.6,0.2,0.592612876791864,"true"
"image-keyboard-response",88,231252,"0.0-4.25-1.25","9v7dx59jullgljs",291,"90.csv","","null","resources/maskTrios/L1BB.jpg","null","",NA,NA,NA,NA,""
"image-keyboard-response",89,232456,"0.0-4.25-2.25","9v7dx59jullgljs",291,"90.csv","","null","resources/images/coin2.png","null","",NA,NA,NA,NA,""
"image-keyboard-response",90,232481,"0.0-4.26-0.26","9v7dx59jullgljs",291,"90.csv","","23.19999999552965","resources/trios/L1T2A2.jpg","37","restless",0.7,0.6,0.2,0.738894594316768,"false"
"image-keyboard-response",91,232883,"0.0-4.26-1.26","9v7dx59jullgljs",291,"90.csv","","null","resources/maskTrios/L1BB.jpg","null","",NA,NA,NA,NA,""
"image-keyboard-response",92,234085,"0.0-4.26-2.26","9v7dx59jullgljs",291,"90.csv","","null","resources/images/fishbone.png","null","",NA,NA,NA,NA,""
"image-keyboard-response",93,234864,"0.0-4.27-0.27","9v7dx59jullgljs",291,"90.csv","","777.1999999955297","resources/trios/L1T2A2.jpg","37","restless",0.7,0.7,0.2,0.429321932258695,"true"
"image-keyboard-response",94,235267,"0.0-4.27-1.27","9v7dx59jullgljs",291,"90.csv","","null","resources/maskTrios/L1BB.jpg","null","",NA,NA,NA,NA,""
"image-keyboard-response",95,236471,"0.0-4.27-2.27","9v7dx59jullgljs",291,"90.csv","","null","resources/images/coin2.png","null","",NA,NA,NA,NA,""
"image-keyboard-response",96,245795,"0.0-4.28-0.28","9v7dx59jullgljs",291,"90.csv","","9323.10000000149","resources/trios/L1T2A2.jpg","37","restless",0.7,0.7,0.2,0.110805672652196,"true"
"image-keyboard-response",97,246198,"0.0-4.28-1.28","9v7dx59jullgljs",291,"90.csv","","null","resources/maskTrios/L1BB.jpg","null","",NA,NA,NA,NA,""
"image-keyboard-response",98,247401,"0.0-4.28-2.28","9v7dx59jullgljs",291,"90.csv","","null","resources/images/coin2.png","null","",NA,NA,NA,NA,""
"image-keyboard-response",99,247611,"0.0-4.29-0.29","9v7dx59jullgljs",291,"90.csv","","208","resources/trios/L1T2A2.jpg","37","restless",0.7,0.7,0.2,0.0734548227471863,"true"
"image-keyboard-response",100,248013,"0.0-4.29-1.29","9v7dx59jullgljs",291,"90.csv","","null","resources/maskTrios/L1BB.jpg","null","",NA,NA,NA,NA,""
"image-keyboard-response",101,249216,"0.0-4.29-2.29","9v7dx59jullgljs",291,"90.csv","","null","resources/images/coin2.png","null","",NA,NA,NA,NA,""
"image-keyboard-response",102,249304,"0.0-4.30-0.30","9v7dx59jullgljs",291,"90.csv","","86.69999999552965","resources/trios/L1T2A2.jpg","37","restless",0.7,0.7,0.2,0.0644410887617837,"true"
"image-keyboard-response",103,249707,"0.0-4.30-1.30","9v7dx59jullgljs",291,"90.csv","","null","resources/maskTrios/L1BB.jpg","null","",NA,NA,NA,NA,""
"image-keyboard-response",104,250909,"0.0-4.30-2.30","9v7dx59jullgljs",291,"90.csv","","null","resources/images/coin2.png","null","",NA,NA,NA,NA,""
"image-keyboard-response",105,250928,"0.0-4.31-0.31","9v7dx59jullgljs",291,"90.csv","","16.80000000447035","resources/trios/L1T2A2.jpg","37","restless",0.7,0.7,0.2,0.616725864352117,"true"
"image-keyboard-response",106,251331,"0.0-4.31-1.31","9v7dx59jullgljs",291,"90.csv","","null","resources/maskTrios/L1BB.jpg","null","",NA,NA,NA,NA,""
"image-keyboard-response",107,252534,"0.0-4.31-2.31","9v7dx59jullgljs",291,"90.csv","","null","resources/images/coin2.png","null","",NA,NA,NA,NA,""
"image-keyboard-response",108,252720,"0.0-4.32-0.32","9v7dx59jullgljs",291,"90.csv","","184","resources/trios/L1T2A2.jpg","37","restless",0.7,0.7,0.2,0.311270821812468,"true"
"image-keyboard-response",109,253123,"0.0-4.32-1.32","9v7dx59jullgljs",291,"90.csv","","null","resources/maskTrios/L1BB.jpg","null","",NA,NA,NA,NA,""
"image-keyboard-response",110,254326,"0.0-4.32-2.32","9v7dx59jullgljs",291,"90.csv","","null","resources/images/coin2.png","null","",NA,NA,NA,NA,""
"image-keyboard-response",111,254342,"0.0-4.33-0.33","9v7dx59jullgljs",291,"90.csv","","14.300000004470348","resources/trios/L1T2A2.jpg","37","restless",0.7,0.7,0.3,0.383648226486998,"true"
"image-keyboard-response",112,254745,"0.0-4.33-1.33","9v7dx59jullgljs",291,"90.csv","","null","resources/maskTrios/L1BB.jpg","null","",NA,NA,NA,NA,""
"image-keyboard-response",113,255947,"0.0-4.33-2.33","9v7dx59jullgljs",291,"90.csv","","null","resources/images/coin2.png","null","",NA,NA,NA,NA,""
"image-keyboard-response",114,256016,"0.0-4.34-0.34","9v7dx59jullgljs",291,"90.csv","","66.60000000149012","resources/trios/L1T2A2.jpg","37","restless",0.6,0.7,0.3,0.423678085331833,"true"
"image-keyboard-response",115,256418,"0.0-4.34-1.34","9v7dx59jullgljs",291,"90.csv","","null","resources/maskTrios/L1BB.jpg","null","",NA,NA,NA,NA,""
"image-keyboard-response",116,257621,"0.0-4.34-2.34","9v7dx59jullgljs",291,"90.csv","","null","resources/images/coin2.png","null","",NA,NA,NA,NA,""
"image-keyboard-response",117,257638,"0.0-4.35-0.35","9v7dx59jullgljs",291,"90.csv","","15.399999998509884","resources/trios/L1T2A2.jpg","37","restless",0.7,0.7,0.3,0.532029568357274,"true"
"image-keyboard-response",118,258040,"0.0-4.35-1.35","9v7dx59jullgljs",291,"90.csv","","null","resources/maskTrios/L1BB.jpg","null","",NA,NA,NA,NA,""
"image-keyboard-response",119,259241,"0.0-4.35-2.35","9v7dx59jullgljs",291,"90.csv","","null","resources/images/coin2.png","null","",NA,NA,NA,NA,""
"image-keyboard-response",120,259247,"0.0-4.36-0.36","9v7dx59jullgljs",291,"90.csv","","4.399999998509884","resources/trios/L1T2A2.jpg","37","restless",0.8,0.6,0.3,0.227290870076259,"true"
"image-keyboard-response",121,259650,"0.0-4.36-1.36","9v7dx59jullgljs",291,"90.csv","","null","resources/maskTrios/L1BB.jpg","null","",NA,NA,NA,NA,""
"image-keyboard-response",122,260852,"0.0-4.36-2.36","9v7dx59jullgljs",291,"90.csv","","null","resources/images/coin2.png","null","",NA,NA,NA,NA,""
"image-keyboard-response",123,261059,"0.0-4.37-0.37","9v7dx59jullgljs",291,"90.csv","","204.69999999552965","resources/trios/L1T2A2.jpg","37","restless",0.8,0.6,0.3,0.862256550321743,"false"
"image-keyboard-response",124,261460,"0.0-4.37-1.37","9v7dx59jullgljs",291,"90.csv","","null","resources/maskTrios/L1BB.jpg","null","",NA,NA,NA,NA,""
"image-keyboard-response",125,262662,"0.0-4.37-2.37","9v7dx59jullgljs",291,"90.csv","","null","resources/images/fishbone.png","null","",NA,NA,NA,NA,""
"image-keyboard-response",126,273959,"0.0-4.38-0.38","9v7dx59jullgljs",291,"90.csv","","11295.80000000447","resources/trios/L1T2A2.jpg","37","restless",0.8,0.6,0.3,0.322735282422079,"true"
"image-keyboard-response",127,274361,"0.0-4.38-1.38","9v7dx59jullgljs",291,"90.csv","","null","resources/maskTrios/L1BB.jpg","null","",NA,NA,NA,NA,""
"image-keyboard-response",128,275564,"0.0-4.38-2.38","9v7dx59jullgljs",291,"90.csv","","null","resources/images/coin2.png","null","",NA,NA,NA,NA,""
"image-keyboard-response",129,275743,"0.0-4.39-0.39","9v7dx59jullgljs",291,"90.csv","","177.39999999850988","resources/trios/L1T2A2.jpg","37","restless",0.8,0.6,0.3,0.625697246917023,"true"
"image-keyboard-response",130,276146,"0.0-4.39-1.39","9v7dx59jullgljs",291,"90.csv","","null","resources/maskTrios/L1BB.jpg","null","",NA,NA,NA,NA,""
"image-keyboard-response",131,277349,"0.0-4.39-2.39","9v7dx59jullgljs",291,"90.csv","","null","resources/images/coin2.png","null","",NA,NA,NA,NA,""
"image-keyboard-response",132,277514,"0.0-4.40-0.40","9v7dx59jullgljs",291,"90.csv","","164","resources/trios/L1T2A2.jpg","37","restless",0.8,0.6,0.3,0.242235203979259,"true"
"image-keyboard-response",133,277916,"0.0-4.40-1.40","9v7dx59jullgljs",291,"90.csv","","null","resources/maskTrios/L1BB.jpg","null","",NA,NA,NA,NA,""
"image-keyboard-response",134,279117,"0.0-4.40-2.40","9v7dx59jullgljs",291,"90.csv","","null","resources/images/coin2.png","null","",NA,NA,NA,NA,""
"image-keyboard-response",135,279176,"0.0-4.41-0.41","9v7dx59jullgljs",291,"90.csv","","58.29999999701977","resources/trios/L1T2A2.jpg","37","restless",0.8,0.6,0.3,0.977708736219214,"false"
"image-keyboard-response",136,279579,"0.0-4.41-1.41","9v7dx59jullgljs",291,"90.csv","","null","resources/maskTrios/L1BB.jpg","null","",NA,NA,NA,NA,""
"image-keyboard-response",137,280782,"0.0-4.41-2.41","9v7dx59jullgljs",291,"90.csv","","null","resources/images/fishbone.png","null","",NA,NA,NA,NA,""
"image-keyboard-response",138,280806,"0.0-4.42-0.42","9v7dx59jullgljs",291,"90.csv","","22.80000000447035","resources/trios/L1T2A2.jpg","37","restless",0.7,0.6,0.3,0.46315591573868,"true"
"image-keyboard-response",139,281208,"0.0-4.42-1.42","9v7dx59jullgljs",291,"90.csv","","null","resources/maskTrios/L1BB.jpg","null","",NA,NA,NA,NA,""
"image-keyboard-response",140,282411,"0.0-4.42-2.42","9v7dx59jullgljs",291,"90.csv","","null","resources/images/coin2.png","null","",NA,NA,NA,NA,""
"image-keyboard-response",141,282631,"0.0-4.43-0.43","9v7dx59jullgljs",291,"90.csv","","218.69999999552965","resources/trios/L1T2A2.jpg","37","restless",0.7,0.6,0.3,0.259210265220377,"true"
"image-keyboard-response",142,283032,"0.0-4.43-1.43","9v7dx59jullgljs",291,"90.csv","","null","resources/maskTrios/L1BB.jpg","null","",NA,NA,NA,NA,""
"image-keyboard-response",143,284235,"0.0-4.43-2.43","9v7dx59jullgljs",291,"90.csv","","null","resources/images/coin2.png","null","",NA,NA,NA,NA,""
"image-keyboard-response",144,284287,"0.0-4.44-0.44","9v7dx59jullgljs",291,"90.csv","","50.69999999552965","resources/trios/L1T2A2.jpg","37","restless",0.7,0.6,0.3,0.475828231373265,"true"
"image-keyboard-response",145,284690,"0.0-4.44-1.44","9v7dx59jullgljs",291,"90.csv","","null","resources/maskTrios/L1BB.jpg","null","",NA,NA,NA,NA,""
"image-keyboard-response",146,285892,"0.0-4.44-2.44","9v7dx59jullgljs",291,"90.csv","","null","resources/images/coin2.png","null","",NA,NA,NA,NA,""
"image-keyboard-response",147,285963,"0.0-4.45-0.45","9v7dx59jullgljs",291,"90.csv","","69.10000000149012","resources/trios/L1T2A2.jpg","37","restless",0.8,0.6,0.3,0.630120047949477,"true"
"image-keyboard-response",148,286365,"0.0-4.45-1.45","9v7dx59jullgljs",291,"90.csv","","null","resources/maskTrios/L1BB.jpg","null","",NA,NA,NA,NA,""
"image-keyboard-response",149,287568,"0.0-4.45-2.45","9v7dx59jullgljs",291,"90.csv","","null","resources/images/coin2.png","null","",NA,NA,NA,NA,""
"image-keyboard-response",150,287687,"0.0-4.46-0.46","9v7dx59jullgljs",291,"90.csv","","116.80000000447035","resources/trios/L1T2A2.jpg","37","restless",0.8,0.6,0.3,0.762074505376723,"true"
"image-keyboard-response",151,288090,"0.0-4.46-1.46","9v7dx59jullgljs",291,"90.csv","","null","resources/maskTrios/L1BB.jpg","null","",NA,NA,NA,NA,""
"image-keyboard-response",152,289293,"0.0-4.46-2.46","9v7dx59jullgljs",291,"90.csv","","null","resources/images/coin2.png","null","",NA,NA,NA,NA,""
"image-keyboard-response",153,289395,"0.0-4.47-0.47","9v7dx59jullgljs",291,"90.csv","","100.29999999701977","resources/trios/L1T2A2.jpg","37","restless",0.8,0.6,0.3,0.412027508935228,"true"
"image-keyboard-response",154,289798,"0.0-4.47-1.47","9v7dx59jullgljs",291,"90.csv","","null","resources/maskTrios/L1BB.jpg","null","",NA,NA,NA,NA,""
"image-keyboard-response",155,291001,"0.0-4.47-2.47","9v7dx59jullgljs",291,"90.csv","","null","resources/images/coin2.png","null","",NA,NA,NA,NA,""
"image-keyboard-response",156,291175,"0.0-4.48-0.48","9v7dx59jullgljs",291,"90.csv","","172.79999999701977","resources/trios/L1T2A2.jpg","37","restless",0.8,0.6,0.3,0.591589724613315,"true"
"image-keyboard-response",157,291578,"0.0-4.48-1.48","9v7dx59jullgljs",291,"90.csv","","null","resources/maskTrios/L1BB.jpg","null","",NA,NA,NA,NA,""
"image-keyboard-response",158,292781,"0.0-4.48-2.48","9v7dx59jullgljs",291,"90.csv","","null","resources/images/coin2.png","null","",NA,NA,NA,NA,""
"image-keyboard-response",159,292855,"0.0-4.49-0.49","9v7dx59jullgljs",291,"90.csv","","71.79999999701977","resources/trios/L1T2A2.jpg","37","restless",0.8,0.6,0.3,0.242027342531168,"true"
"image-keyboard-response",160,293258,"0.0-4.49-1.49","9v7dx59jullgljs",291,"90.csv","","null","resources/maskTrios/L1BB.jpg","null","",NA,NA,NA,NA,""
"image-keyboard-response",161,294461,"0.0-4.49-2.49","9v7dx59jullgljs",291,"90.csv","","null","resources/images/coin2.png","null","",NA,NA,NA,NA,""
"image-keyboard-response",162,294477,"0.0-4.50-0.50","9v7dx59jullgljs",291,"90.csv","","14.199999995529652","resources/trios/L1T2A2.jpg","37","restless",0.8,0.6,0.3,0.839646135762102,"false"
"image-keyboard-response",163,294879,"0.0-4.50-1.50","9v7dx59jullgljs",291,"90.csv","","null","resources/maskTrios/L1BB.jpg","null","",NA,NA,NA,NA,""
"image-keyboard-response",164,296082,"0.0-4.50-2.50","9v7dx59jullgljs",291,"90.csv","","null","resources/images/fishbone.png","null","",NA,NA,NA,NA,""
"image-keyboard-response",165,296183,"0.0-4.51-0.51","9v7dx59jullgljs",291,"90.csv","","98.89999999850988","resources/trios/L1T2A2.jpg","37","restless",0.7,0.6,0.3,0.111178081088187,"true"
"image-keyboard-response",166,296586,"0.0-4.51-1.51","9v7dx59jullgljs",291,"90.csv","","null","resources/maskTrios/L1BB.jpg","null","",NA,NA,NA,NA,""
"image-keyboard-response",167,297788,"0.0-4.51-2.51","9v7dx59jullgljs",291,"90.csv","","null","resources/images/coin2.png","null","",NA,NA,NA,NA,""
"image-keyboard-response",168,297871,"0.0-4.52-0.52","9v7dx59jullgljs",291,"90.csv","","81.5","resources/trios/L1T2A2.jpg","37","restless",0.7,0.6,0.3,0.915267265276074,"false"
"image-keyboard-response",169,298274,"0.0-4.52-1.52","9v7dx59jullgljs",291,"90.csv","","null","resources/maskTrios/L1BB.jpg","null","",NA,NA,NA,NA,""
"image-keyboard-response",170,299477,"0.0-4.52-2.52","9v7dx59jullgljs",291,"90.csv","","null","resources/images/fishbone.png","null","",NA,NA,NA,NA,""
"image-keyboard-response",171,299527,"0.0-4.53-0.53","9v7dx59jullgljs",291,"90.csv","","47.899999998509884","resources/trios/L1T2A2.jpg","37","restless",0.7,0.6,0.3,0.468499805833094,"true"
"image-keyboard-response",172,299930,"0.0-4.53-1.53","9v7dx59jullgljs",291,"90.csv","","null","resources/maskTrios/L1BB.jpg","null","",NA,NA,NA,NA,""
"image-keyboard-response",173,301134,"0.0-4.53-2.53","9v7dx59jullgljs",291,"90.csv","","null","resources/images/coin2.png","null","",NA,NA,NA,NA,""
"image-keyboard-response",174,346223,"0.0-4.54-0.54","9v7dx59jullgljs",291,"90.csv","","45088.39999999851","resources/trios/L1T2A2.jpg","37","restless",0.7,0.6,0.3,0.00149941964989253,"true"
"image-keyboard-response",175,346626,"0.0-4.54-1.54","9v7dx59jullgljs",291,"90.csv","","null","resources/maskTrios/L1BB.jpg","null","",NA,NA,NA,NA,""
"image-keyboard-response",176,347830,"0.0-4.54-2.54","9v7dx59jullgljs",291,"90.csv","","null","resources/images/coin2.png","null","",NA,NA,NA,NA,""
"image-keyboard-response",177,347894,"0.0-4.55-0.55","9v7dx59jullgljs",291,"90.csv","","63","resources/trios/L1T2A2.jpg","37","restless",0.7,0.6,0.3,0.997586836130364,"false"
"image-keyboard-response",178,348297,"0.0-4.55-1.55","9v7dx59jullgljs",291,"90.csv","","null","resources/maskTrios/L1BB.jpg","null","",NA,NA,NA,NA,""
"image-keyboard-response",179,349499,"0.0-4.55-2.55","9v7dx59jullgljs",291,"90.csv","","null","resources/images/fishbone.png","null","",NA,NA,NA,NA,""
"image-keyboard-response",180,349528,"0.0-4.56-0.56","9v7dx59jullgljs",291,"90.csv","","27.700000002980232","resources/trios/L1T2A2.jpg","37","restless",0.7,0.6,0.3,0.193601544855714,"true"
"image-keyboard-response",181,349931,"0.0-4.56-1.56","9v7dx59jullgljs",291,"90.csv","","null","resources/maskTrios/L1BB.jpg","null","",NA,NA,NA,NA,""
"image-keyboard-response",182,351133,"0.0-4.56-2.56","9v7dx59jullgljs",291,"90.csv","","null","resources/images/coin2.png","null","",NA,NA,NA,NA,""
"image-keyboard-response",183,351193,"0.0-4.57-0.57","9v7dx59jullgljs",291,"90.csv","","58.399999998509884","resources/trios/L1T2A2.jpg","37","restless",0.7,0.6,0.3,0.252229134900404,"true"
"image-keyboard-response",184,351596,"0.0-4.57-1.57","9v7dx59jullgljs",291,"90.csv","","null","resources/maskTrios/L1BB.jpg","null","",NA,NA,NA,NA,""
"image-keyboard-response",185,352800,"0.0-4.57-2.57","9v7dx59jullgljs",291,"90.csv","","null","resources/images/coin2.png","null","",NA,NA,NA,NA,""
"image-keyboard-response",186,352958,"0.0-4.58-0.58","9v7dx59jullgljs",291,"90.csv","","156.59999999403954","resources/trios/L1T2A2.jpg","37","restless",0.7,0.6,0.3,0.931916635732336,"false"
"image-keyboard-response",187,353361,"0.0-4.58-1.58","9v7dx59jullgljs",291,"90.csv","","null","resources/maskTrios/L1BB.jpg","null","",NA,NA,NA,NA,""
"image-keyboard-response",188,354564,"0.0-4.58-2.58","9v7dx59jullgljs",291,"90.csv","","null","resources/images/fishbone.png","null","",NA,NA,NA,NA,""
"image-keyboard-response",189,354942,"0.0-4.59-0.59","9v7dx59jullgljs",291,"90.csv","","376.6000000014901","resources/trios/L1T2A2.jpg","37","restless",0.6,0.6,0.4,0.285225539207757,"true"
"image-keyboard-response",190,355345,"0.0-4.59-1.59","9v7dx59jullgljs",291,"90.csv","","null","resources/maskTrios/L1BB.jpg","null","",NA,NA,NA,NA,""
"image-keyboard-response",191,356549,"0.0-4.59-2.59","9v7dx59jullgljs",291,"90.csv","","null","resources/images/coin2.png","null","",NA,NA,NA,NA,""
"image-keyboard-response",192,356610,"0.0-4.60-0.60","9v7dx59jullgljs",291,"90.csv","","59.600000001490116","resources/trios/L1T2A2.jpg","37","restless",0.6,0.6,0.4,0.249478157043937,"true"
"image-keyboard-response",193,357012,"0.0-4.60-1.60","9v7dx59jullgljs",291,"90.csv","","null","resources/maskTrios/L1BB.jpg","null","",NA,NA,NA,NA,""
"image-keyboard-response",194,358215,"0.0-4.60-2.60","9v7dx59jullgljs",291,"90.csv","","null","resources/images/coin2.png","null","",NA,NA,NA,NA,""
"image-keyboard-response",195,359361,"0.0-4.61-0.61","9v7dx59jullgljs",291,"90.csv","","1144","resources/trios/L1T2A2.jpg","37","restless",0.6,0.6,0.4,0.345523590181299,"true"
"image-keyboard-response",196,359763,"0.0-4.61-1.61","9v7dx59jullgljs",291,"90.csv","","null","resources/maskTrios/L1BB.jpg","null","",NA,NA,NA,NA,""
"image-keyboard-response",197,360967,"0.0-4.61-2.61","9v7dx59jullgljs",291,"90.csv","","null","resources/images/coin2.png","null","",NA,NA,NA,NA,""
"image-keyboard-response",198,360990,"0.0-4.62-0.62","9v7dx59jullgljs",291,"90.csv","","21.399999998509884","resources/trios/L1T2A2.jpg","37","restless",0.5,0.6,0.4,0.798005702801516,"false"
"image-keyboard-response",199,361392,"0.0-4.62-1.62","9v7dx59jullgljs",291,"90.csv","","null","resources/maskTrios/L1BB.jpg","null","",NA,NA,NA,NA,""
"image-keyboard-response",200,362595,"0.0-4.62-2.62","9v7dx59jullgljs",291,"90.csv","","null","resources/images/fishbone.png","null","",NA,NA,NA,NA,""
"image-keyboard-response",201,362705,"0.0-4.63-0.63","9v7dx59jullgljs",291,"90.csv","","108.80000000447035","resources/trios/L1T2A2.jpg","37","restless",0.5,0.6,0.4,0.564425719946486,"false"
"image-keyboard-response",202,363107,"0.0-4.63-1.63","9v7dx59jullgljs",291,"90.csv","","null","resources/maskTrios/L1BB.jpg","null","",NA,NA,NA,NA,""
"image-keyboard-response",203,364310,"0.0-4.63-2.63","9v7dx59jullgljs",291,"90.csv","","null","resources/images/fishbone.png","null","",NA,NA,NA,NA,""
"image-keyboard-response",204,364454,"0.0-4.64-0.64","9v7dx59jullgljs",291,"90.csv","","142.69999999552965","resources/trios/L1T2A2.jpg","37","restless",0.5,0.6,0.4,0.392053311939165,"true"
"image-keyboard-response",205,364857,"0.0-4.64-1.64","9v7dx59jullgljs",291,"90.csv","","null","resources/maskTrios/L1BB.jpg","null","",NA,NA,NA,NA,""
"image-keyboard-response",206,366061,"0.0-4.64-2.64","9v7dx59jullgljs",291,"90.csv","","null","resources/images/coin2.png","null","",NA,NA,NA,NA,""
"image-keyboard-response",207,366104,"0.0-4.65-0.65","9v7dx59jullgljs",291,"90.csv","","41.899999998509884","resources/trios/L1T2A2.jpg","37","restless",0.5,0.6,0.4,0.701564260745269,"false"
"image-keyboard-response",208,366507,"0.0-4.65-1.65","9v7dx59jullgljs",291,"90.csv","","null","resources/maskTrios/L1BB.jpg","null","",NA,NA,NA,NA,""
"image-keyboard-response",209,367709,"0.0-4.65-2.65","9v7dx59jullgljs",291,"90.csv","","null","resources/images/fishbone.png","null","",NA,NA,NA,NA,""
"image-keyboard-response",210,367895,"0.0-4.66-0.66","9v7dx59jullgljs",291,"90.csv","","184.5","resources/trios/L1T2A2.jpg","37","restless",0.5,0.6,0.4,0.453026465990614,"true"
"image-keyboard-response",211,368297,"0.0-4.66-1.66","9v7dx59jullgljs",291,"90.csv","","null","resources/maskTrios/L1BB.jpg","null","",NA,NA,NA,NA,""
"image-keyboard-response",212,369500,"0.0-4.66-2.66","9v7dx59jullgljs",291,"90.csv","","null","resources/images/coin2.png","null","",NA,NA,NA,NA,""
"image-keyboard-response",213,369606,"0.0-4.67-0.67","9v7dx59jullgljs",291,"90.csv","","103.70000000298023","resources/trios/L1T2A2.jpg","37","restless",0.5,0.6,0.4,0.200625662229106,"true"
"image-keyboard-response",214,370007,"0.0-4.67-1.67","9v7dx59jullgljs",291,"90.csv","","null","resources/maskTrios/L1BB.jpg","null","",NA,NA,NA,NA,""
"image-keyboard-response",215,371210,"0.0-4.67-2.67","9v7dx59jullgljs",291,"90.csv","","null","resources/images/coin2.png","null","",NA,NA,NA,NA,""
"image-keyboard-response",216,371304,"0.0-4.68-0.68","9v7dx59jullgljs",291,"90.csv","","92.29999999701977","resources/trios/L1T2A2.jpg","37","restless",0.5,0.6,0.4,0.820347196111432,"false"
"image-keyboard-response",217,371707,"0.0-4.68-1.68","9v7dx59jullgljs",291,"90.csv","","null","resources/maskTrios/L1BB.jpg","null","",NA,NA,NA,NA,""
"image-keyboard-response",218,372909,"0.0-4.68-2.68","9v7dx59jullgljs",291,"90.csv","","null","resources/images/fishbone.png","null","",NA,NA,NA,NA,""
"image-keyboard-response",219,373534,"0.0-4.69-0.69","9v7dx59jullgljs",291,"90.csv","","624.2999999970198","resources/trios/L1T2A2.jpg","37","restless",0.5,0.5,0.5,0.820899996335072,"false"
"image-keyboard-response",220,373938,"0.0-4.69-1.69","9v7dx59jullgljs",291,"90.csv","","null","resources/maskTrios/L1BB.jpg","null","",NA,NA,NA,NA,""
"image-keyboard-response",221,375141,"0.0-4.69-2.69","9v7dx59jullgljs",291,"90.csv","","null","resources/images/fishbone.png","null","",NA,NA,NA,NA,""
"image-keyboard-response",222,375272,"0.0-4.70-0.70","9v7dx59jullgljs",291,"90.csv","","128.70000000298023","resources/trios/L1T2A2.jpg","37","restless",0.4,0.5,0.5,0.101701659250523,"true"
"image-keyboard-response",223,375675,"0.0-4.70-1.70","9v7dx59jullgljs",291,"90.csv","","null","resources/maskTrios/L1BB.jpg","null","",NA,NA,NA,NA,""
"image-keyboard-response",224,376878,"0.0-4.70-2.70","9v7dx59jullgljs",291,"90.csv","","null","resources/images/coin2.png","null","",NA,NA,NA,NA,""
"image-keyboard-response",225,376992,"0.0-4.71-0.71","9v7dx59jullgljs",291,"90.csv","","112.70000000298023","resources/trios/L1T2A2.jpg","37","restless",0.4,0.5,0.5,0.953822399753854,"false"
"image-keyboard-response",226,377395,"0.0-4.71-1.71","9v7dx59jullgljs",291,"90.csv","","null","resources/maskTrios/L1BB.jpg","null","",NA,NA,NA,NA,""
"image-keyboard-response",227,378596,"0.0-4.71-2.71","9v7dx59jullgljs",291,"90.csv","","null","resources/images/fishbone.png","null","",NA,NA,NA,NA,""
"image-keyboard-response",228,378745,"0.0-4.72-0.72","9v7dx59jullgljs",291,"90.csv","","147.80000000447035","resources/trios/L1T2A2.jpg","37","restless",0.3,0.5,0.5,0.472153494808154,"false"
"image-keyboard-response",229,379148,"0.0-4.72-1.72","9v7dx59jullgljs",291,"90.csv","","null","resources/maskTrios/L1BB.jpg","null","",NA,NA,NA,NA,""
"image-keyboard-response",230,380351,"0.0-4.72-2.72","9v7dx59jullgljs",291,"90.csv","","null","resources/images/fishbone.png","null","",NA,NA,NA,NA,""
"image-keyboard-response",231,380373,"0.0-4.73-0.73","9v7dx59jullgljs",291,"90.csv","","20.30000000447035","resources/trios/L1T2A2.jpg","38","restless",0.2,0.5,0.5,0.591814648109835,"false"
"image-keyboard-response",232,380775,"0.0-4.73-1.73","9v7dx59jullgljs",291,"90.csv","","null","resources/maskTrios/BT2B.jpg","null","",NA,NA,NA,NA,""
"image-keyboard-response",233,381978,"0.0-4.73-2.73","9v7dx59jullgljs",291,"90.csv","","null","resources/images/fishbone.png","null","",NA,NA,NA,NA,""
"image-keyboard-response",234,382135,"0.0-4.74-0.74","9v7dx59jullgljs",291,"90.csv","","155.5","resources/trios/L1T2A2.jpg","38","restless",0.2,0.6,0.5,0.577930008756373,"true"
"image-keyboard-response",235,382538,"0.0-4.74-1.74","9v7dx59jullgljs",291,"90.csv","","null","resources/maskTrios/BT2B.jpg","null","",NA,NA,NA,NA,""
"image-keyboard-response",236,383741,"0.0-4.74-2.74","9v7dx59jullgljs",291,"90.csv","","null","resources/images/coin2.png","null","",NA,NA,NA,NA,""
"image-keyboard-response",237,383837,"0.0-4.75-0.75","9v7dx59jullgljs",291,"90.csv","","94.5","resources/trios/L1T2A2.jpg","38","restless",0.2,0.6,0.5,0.204339882875252,"true"
"image-keyboard-response",238,384238,"0.0-4.75-1.75","9v7dx59jullgljs",291,"90.csv","","null","resources/maskTrios/BT2B.jpg","null","",NA,NA,NA,NA,""
"image-keyboard-response",239,385441,"0.0-4.75-2.75","9v7dx59jullgljs",291,"90.csv","","null","resources/images/coin2.png","null","",NA,NA,NA,NA,""
"image-keyboard-response",240,385576,"0.0-4.76-0.76","9v7dx59jullgljs",291,"90.csv","","132.69999999552965","resources/trios/L1T2A2.jpg","38","restless",0.2,0.6,0.5,0.0293087003684596,"true"
"image-keyboard-response",241,385978,"0.0-4.76-1.76","9v7dx59jullgljs",291,"90.csv","","null","resources/maskTrios/BT2B.jpg","null","",NA,NA,NA,NA,""
"image-keyboard-response",242,387181,"0.0-4.76-2.76","9v7dx59jullgljs",291,"90.csv","","null","resources/images/coin2.png","null","",NA,NA,NA,NA,""
"image-keyboard-response",243,387327,"0.0-4.77-0.77","9v7dx59jullgljs",291,"90.csv","","144.20000000298023","resources/trios/L1T2A2.jpg","38","restless",0.2,0.6,0.5,0.0151098817257653,"true"
"image-keyboard-response",244,387730,"0.0-4.77-1.77","9v7dx59jullgljs",291,"90.csv","","null","resources/maskTrios/BT2B.jpg","null","",NA,NA,NA,NA,""
"image-keyboard-response",245,388933,"0.0-4.77-2.77","9v7dx59jullgljs",291,"90.csv","","null","resources/images/coin2.png","null","",NA,NA,NA,NA,""
"image-keyboard-response",246,389103,"0.0-4.78-0.78","9v7dx59jullgljs",291,"90.csv","","168.29999999701977","resources/trios/L1T2A2.jpg","38","restless",0.2,0.5,0.5,0.696620587237998,"false"
"image-keyboard-response",247,389506,"0.0-4.78-1.78","9v7dx59jullgljs",291,"90.csv","","null","resources/maskTrios/BT2B.jpg","null","",NA,NA,NA,NA,""
"image-keyboard-response",248,390709,"0.0-4.78-2.78","9v7dx59jullgljs",291,"90.csv","","null","resources/images/fishbone.png","null","",NA,NA,NA,NA,""
"image-keyboard-response",249,390880,"0.0-4.79-0.79","9v7dx59jullgljs",291,"90.csv","","168.69999999552965","resources/trios/L1T2A2.jpg","37","restless",0.2,0.5,0.5,0.080447498540656,"true"
"image-keyboard-response",250,391281,"0.0-4.79-1.79","9v7dx59jullgljs",291,"90.csv","","null","resources/maskTrios/L1BB.jpg","null","",NA,NA,NA,NA,""
"image-keyboard-response",251,392484,"0.0-4.79-2.79","9v7dx59jullgljs",291,"90.csv","","null","resources/images/coin2.png","null","",NA,NA,NA,NA,""
"image-keyboard-response",252,392488,"0.0-4.80-0.80","9v7dx59jullgljs",291,"90.csv","","3","resources/trios/L1T2A2.jpg","37","restless",0.2,0.5,0.5,0.605876623185052,"false"
"image-keyboard-response",253,392890,"0.0-4.80-1.80","9v7dx59jullgljs",291,"90.csv","","null","resources/maskTrios/L1BB.jpg","null","",NA,NA,NA,NA,""
"image-keyboard-response",254,394092,"0.0-4.80-2.80","9v7dx59jullgljs",291,"90.csv","","null","resources/images/fishbone.png","null","",NA,NA,NA,NA,""
"image-keyboard-response",255,394189,"0.0-4.81-0.81","9v7dx59jullgljs",291,"90.csv","","96","resources/trios/L1T2A2.jpg","38","restless",0.2,0.5,0.5,0.0922805164647598,"true"
"image-keyboard-response",256,394592,"0.0-4.81-1.81","9v7dx59jullgljs",291,"90.csv","","null","resources/maskTrios/BT2B.jpg","null","",NA,NA,NA,NA,""
"image-keyboard-response",257,395795,"0.0-4.81-2.81","9v7dx59jullgljs",291,"90.csv","","null","resources/images/coin2.png","null","",NA,NA,NA,NA,""
"image-keyboard-response",258,396381,"0.0-4.82-0.82","9v7dx59jullgljs",291,"90.csv","","585","resources/trios/L1T2A2.jpg","38","restless",0.2,0.5,0.5,0.532150285606523,"false"
"image-keyboard-response",259,396784,"0.0-4.82-1.82","9v7dx59jullgljs",291,"90.csv","","null","resources/maskTrios/BT2B.jpg","null","",NA,NA,NA,NA,""
"image-keyboard-response",260,397987,"0.0-4.82-2.82","9v7dx59jullgljs",291,"90.csv","","null","resources/images/fishbone.png","null","",NA,NA,NA,NA,""
"image-keyboard-response",261,398033,"0.0-4.83-0.83","9v7dx59jullgljs",291,"90.csv","","44","resources/trios/L1T2A2.jpg","38","restless",0.2,0.5,0.5,0.14626610328295,"true"
"image-keyboard-response",262,398436,"0.0-4.83-1.83","9v7dx59jullgljs",291,"90.csv","","null","resources/maskTrios/BT2B.jpg","null","",NA,NA,NA,NA,""
"image-keyboard-response",263,399639,"0.0-4.83-2.83","9v7dx59jullgljs",291,"90.csv","","null","resources/images/coin2.png","null","",NA,NA,NA,NA,""
"image-keyboard-response",264,399781,"0.0-4.84-0.84","9v7dx59jullgljs",291,"90.csv","","140.89999999850988","resources/trios/L1T2A2.jpg","38","restless",0.2,0.5,0.5,0.236731061016258,"true"
"image-keyboard-response",265,400184,"0.0-4.84-1.84","9v7dx59jullgljs",291,"90.csv","","null","resources/maskTrios/BT2B.jpg","null","",NA,NA,NA,NA,""
"image-keyboard-response",266,401387,"0.0-4.84-2.84","9v7dx59jullgljs",291,"90.csv","","null","resources/images/coin2.png","null","",NA,NA,NA,NA,""
"image-keyboard-response",267,401464,"0.0-4.85-0.85","9v7dx59jullgljs",291,"90.csv","","75.89999999850988","resources/trios/L1T2A2.jpg","38","restless",0.2,0.5,0.5,0.240602681771685,"true"
"image-keyboard-response",268,401866,"0.0-4.85-1.85","9v7dx59jullgljs",291,"90.csv","","null","resources/maskTrios/BT2B.jpg","null","",NA,NA,NA,NA,""
"image-keyboard-response",269,403069,"0.0-4.85-2.85","9v7dx59jullgljs",291,"90.csv","","null","resources/images/coin2.png","null","",NA,NA,NA,NA,""
"image-keyboard-response",270,403256,"0.0-4.86-0.86","9v7dx59jullgljs",291,"90.csv","","185.79999999701977","resources/trios/L1T2A2.jpg","38","restless",0.2,0.5,0.5,0.986705892788597,"false"
"image-keyboard-response",271,403658,"0.0-4.86-1.86","9v7dx59jullgljs",291,"90.csv","","null","resources/maskTrios/BT2B.jpg","null","",NA,NA,NA,NA,""
"image-keyboard-response",272,404862,"0.0-4.86-2.86","9v7dx59jullgljs",291,"90.csv","","null","resources/images/fishbone.png","null","",NA,NA,NA,NA,""
"image-keyboard-response",273,405070,"0.0-4.87-0.87","9v7dx59jullgljs",291,"90.csv","","206.5","resources/trios/L1T2A2.jpg","37","restless",0.2,0.5,0.5,0.698095710180656,"false"
"image-keyboard-response",274,405473,"0.0-4.87-1.87","9v7dx59jullgljs",291,"90.csv","","null","resources/maskTrios/L1BB.jpg","null","",NA,NA,NA,NA,""
"image-keyboard-response",275,406675,"0.0-4.87-2.87","9v7dx59jullgljs",291,"90.csv","","null","resources/images/fishbone.png","null","",NA,NA,NA,NA,""
"image-keyboard-response",276,406815,"0.0-4.88-0.88","9v7dx59jullgljs",291,"90.csv","","139","resources/trios/L1T2A2.jpg","38","restless",0.2,0.5,0.5,0.769269262689833,"false"
"image-keyboard-response",277,407218,"0.0-4.88-1.88","9v7dx59jullgljs",291,"90.csv","","null","resources/maskTrios/BT2B.jpg","null","",NA,NA,NA,NA,""
"image-keyboard-response",278,408419,"0.0-4.88-2.88","9v7dx59jullgljs",291,"90.csv","","null","resources/images/fishbone.png","null","",NA,NA,NA,NA,""
"image-keyboard-response",279,408751,"0.0-4.89-0.89","9v7dx59jullgljs",291,"90.csv","","330.8999999985099","resources/trios/L1T2A2.jpg","39","restless",0.2,0.5,0.4,0.953955901168969,"false"
"image-keyboard-response",280,409154,"0.0-4.89-1.89","9v7dx59jullgljs",291,"90.csv","","null","resources/maskTrios/BBA2.jpg","null","",NA,NA,NA,NA,""
"image-keyboard-response",281,410357,"0.0-4.89-2.89","9v7dx59jullgljs",291,"90.csv","","null","resources/images/fishbone.png","null","",NA,NA,NA,NA,""
"image-keyboard-response",282,411212,"0.0-4.90-0.90","9v7dx59jullgljs",291,"90.csv","","854.1000000014901","resources/trios/L1T2A2.jpg","39","restless",0.2,0.5,0.4,0.00766416649772284,"true"
"image-keyboard-response",283,411614,"0.0-4.90-1.90","9v7dx59jullgljs",291,"90.csv","","null","resources/maskTrios/BBA2.jpg","null","",NA,NA,NA,NA,""
"image-keyboard-response",284,412816,"0.0-4.90-2.90","9v7dx59jullgljs",291,"90.csv","","null","resources/images/coin2.png","null","",NA,NA,NA,NA,""
"image-keyboard-response",285,412840,"0.0-4.91-0.91","9v7dx59jullgljs",291,"90.csv","","21.700000002980232","resources/trios/L1T2A2.jpg","39","restless",0.2,0.5,0.4,0.254866828109295,"true"
"image-keyboard-response",286,413242,"0.0-4.91-1.91","9v7dx59jullgljs",291,"90.csv","","null","resources/maskTrios/BBA2.jpg","null","",NA,NA,NA,NA,""
"image-keyboard-response",287,414446,"0.0-4.91-2.91","9v7dx59jullgljs",291,"90.csv","","null","resources/images/coin2.png","null","",NA,NA,NA,NA,""
"image-keyboard-response",288,414753,"0.0-4.92-0.92","9v7dx59jullgljs",291,"90.csv","","305.69999999552965","resources/trios/L1T2A2.jpg","39","restless",0.2,0.5,0.4,0.638709034705684,"false"
"image-keyboard-response",289,415156,"0.0-4.92-1.92","9v7dx59jullgljs",291,"90.csv","","null","resources/maskTrios/BBA2.jpg","null","",NA,NA,NA,NA,""
"image-keyboard-response",290,416360,"0.0-4.92-2.92","9v7dx59jullgljs",291,"90.csv","","null","resources/images/fishbone.png","null","",NA,NA,NA,NA,""
"image-keyboard-response",291,416567,"0.0-4.93-0.93","9v7dx59jullgljs",291,"90.csv","","206.69999999552965","resources/trios/L1T2A2.jpg","37","restless",0.2,0.4,0.3,0.826635838175613,"false"
"image-keyboard-response",292,416970,"0.0-4.93-1.93","9v7dx59jullgljs",291,"90.csv","","null","resources/maskTrios/L1BB.jpg","null","",NA,NA,NA,NA,""
"image-keyboard-response",293,418173,"0.0-4.93-2.93","9v7dx59jullgljs",291,"90.csv","","null","resources/images/fishbone.png","null","",NA,NA,NA,NA,""
"image-keyboard-response",294,418301,"0.0-4.94-0.94","9v7dx59jullgljs",291,"90.csv","","126.5","resources/trios/L1T2A2.jpg","38","restless",0.2,0.4,0.3,0.514991478252604,"false"
"image-keyboard-response",295,418704,"0.0-4.94-1.94","9v7dx59jullgljs",291,"90.csv","","null","resources/maskTrios/BT2B.jpg","null","",NA,NA,NA,NA,""
"image-keyboard-response",296,419908,"0.0-4.94-2.94","9v7dx59jullgljs",291,"90.csv","","null","resources/images/fishbone.png","null","",NA,NA,NA,NA,""
"image-keyboard-response",297,420073,"0.0-4.95-0.95","9v7dx59jullgljs",291,"90.csv","","163.70000000298023","resources/trios/L1T2A2.jpg","37","restless",0.2,0.4,0.3,0.00120544333948969,"true"
"image-keyboard-response",298,420474,"0.0-4.95-1.95","9v7dx59jullgljs",291,"90.csv","","null","resources/maskTrios/L1BB.jpg","null","",NA,NA,NA,NA,""
"image-keyboard-response",299,421677,"0.0-4.95-2.95","9v7dx59jullgljs",291,"90.csv","","null","resources/images/coin2.png","null","",NA,NA,NA,NA,""
"image-keyboard-response",300,421863,"0.0-4.96-0.96","9v7dx59jullgljs",291,"90.csv","","185.20000000298023","resources/trios/L1T2A2.jpg","37","restless",0.2,0.4,0.3,0.321819447719436,"false"
"image-keyboard-response",301,422266,"0.0-4.96-1.96","9v7dx59jullgljs",291,"90.csv","","null","resources/maskTrios/L1BB.jpg","null","",NA,NA,NA,NA,""
"image-keyboard-response",302,423469,"0.0-4.96-2.96","9v7dx59jullgljs",291,"90.csv","","null","resources/images/fishbone.png","null","",NA,NA,NA,NA,""
"image-keyboard-response",303,423509,"0.0-4.97-0.97","9v7dx59jullgljs",291,"90.csv","","38.30000000447035","resources/trios/L1T2A2.jpg","37","restless",0.2,0.4,0.3,0.394583950288168,"false"
"image-keyboard-response",304,423912,"0.0-4.97-1.97","9v7dx59jullgljs",291,"90.csv","","null","resources/maskTrios/L1BB.jpg","null","",NA,NA,NA,NA,""
"image-keyboard-response",305,425114,"0.0-4.97-2.97","9v7dx59jullgljs",291,"90.csv","","null","resources/images/fishbone.png","null","",NA,NA,NA,NA,""
"image-keyboard-response",306,425142,"0.0-4.98-0.98","9v7dx59jullgljs",291,"90.csv","","26","resources/trios/L1T2A2.jpg","38","restless",0.2,0.4,0.3,0.379413495656727,"true"
"image-keyboard-response",307,425545,"0.0-4.98-1.98","9v7dx59jullgljs",291,"90.csv","","null","resources/maskTrios/BT2B.jpg","null","",NA,NA,NA,NA,""
"image-keyboard-response",308,426748,"0.0-4.98-2.98","9v7dx59jullgljs",291,"90.csv","","null","resources/images/coin2.png","null","",NA,NA,NA,NA,""
"image-keyboard-response",309,426984,"0.0-4.99-0.99","9v7dx59jullgljs",291,"90.csv","","234.40000000596046","resources/trios/L1T2A2.jpg","38","restless",0.2,0.4,0.3,0.458020203894189,"false"
"image-keyboard-response",310,427386,"0.0-4.99-1.99","9v7dx59jullgljs",291,"90.csv","","null","resources/maskTrios/BT2B.jpg","null","",NA,NA,NA,NA,""
"image-keyboard-response",311,428589,"0.0-4.99-2.99","9v7dx59jullgljs",291,"90.csv","","null","resources/images/fishbone.png","null","",NA,NA,NA,NA,""
"image-keyboard-response",312,428596,"0.0-4.100-0.100","9v7dx59jullgljs",291,"90.csv","","5.100000001490116","resources/trios/L1T2A2.jpg","39","restless",0.2,0.4,0.4,0.81432576505,"false"
"image-keyboard-response",313,428999,"0.0-4.100-1.100","9v7dx59jullgljs",291,"90.csv","","null","resources/maskTrios/BBA2.jpg","null","",NA,NA,NA,NA,""
"image-keyboard-response",314,430202,"0.0-4.100-2.100","9v7dx59jullgljs",291,"90.csv","","null","resources/images/fishbone.png","null","",NA,NA,NA,NA,""
"image-keyboard-response",315,430384,"0.0-4.101-0.101","9v7dx59jullgljs",291,"90.csv","","181.20000000298023","resources/trios/L1T2A2.jpg","38","restless",0.2,0.4,0.4,0.787160317436978,"false"
"image-keyboard-response",316,430787,"0.0-4.101-1.101","9v7dx59jullgljs",291,"90.csv","","null","resources/maskTrios/BT2B.jpg","null","",NA,NA,NA,NA,""
"image-keyboard-response",317,431990,"0.0-4.101-2.101","9v7dx59jullgljs",291,"90.csv","","null","resources/images/fishbone.png","null","",NA,NA,NA,NA,""
"image-keyboard-response",318,432141,"0.0-4.102-0.102","9v7dx59jullgljs",291,"90.csv","","149.80000000447035","resources/trios/L1T2A2.jpg","38","restless",0.2,0.4,0.4,0.557411948902091,"false"
"image-keyboard-response",319,432544,"0.0-4.102-1.102","9v7dx59jullgljs",291,"90.csv","","null","resources/maskTrios/BT2B.jpg","null","",NA,NA,NA,NA,""
"image-keyboard-response",320,433748,"0.0-4.102-2.102","9v7dx59jullgljs",291,"90.csv","","null","resources/images/fishbone.png","null","",NA,NA,NA,NA,""
"image-keyboard-response",321,433975,"0.0-4.103-0.103","9v7dx59jullgljs",291,"90.csv","","225.70000000298023","resources/trios/L1T2A2.jpg","37","restless",0.2,0.4,0.4,0.755392688762504,"false"
"image-keyboard-response",322,434376,"0.0-4.103-1.103","9v7dx59jullgljs",291,"90.csv","","null","resources/maskTrios/L1BB.jpg","null","",NA,NA,NA,NA,""
"image-keyboard-response",323,435579,"0.0-4.103-2.103","9v7dx59jullgljs",291,"90.csv","","null","resources/images/fishbone.png","null","",NA,NA,NA,NA,""
"image-keyboard-response",324,435612,"0.0-4.104-0.104","9v7dx59jullgljs",291,"90.csv","","31.600000001490116","resources/trios/L1T2A2.jpg","38","restless",0.2,0.4,0.4,0.0787653213007025,"true"
"image-keyboard-response",325,436016,"0.0-4.104-1.104","9v7dx59jullgljs",291,"90.csv","","null","resources/maskTrios/BT2B.jpg","null","",NA,NA,NA,NA,""
"image-keyboard-response",326,437218,"0.0-4.104-2.104","9v7dx59jullgljs",291,"90.csv","","null","resources/images/coin2.png","null","",NA,NA,NA,NA,""
"image-keyboard-response",327,437297,"0.0-4.105-0.105","9v7dx59jullgljs",291,"90.csv","","77.29999999701977","resources/trios/L1T2A2.jpg","38","restless",0.2,0.4,0.4,0.220036973016526,"true"
"image-keyboard-response",328,437699,"0.0-4.105-1.105","9v7dx59jullgljs",291,"90.csv","","null","resources/maskTrios/BT2B.jpg","null","",NA,NA,NA,NA,""
"image-keyboard-response",329,438901,"0.0-4.105-2.105","9v7dx59jullgljs",291,"90.csv","","null","resources/images/coin2.png","null","",NA,NA,NA,NA,""
"image-keyboard-response",330,441390,"0.0-4.106-0.106","9v7dx59jullgljs",291,"90.csv","","2487.39999999851","resources/trios/L1T2A2.jpg","38","restless",0.2,0.4,0.4,0.803403071649333,"false"
"image-keyboard-response",331,441792,"0.0-4.106-1.106","9v7dx59jullgljs",291,"90.csv","","null","resources/maskTrios/BT2B.jpg","null","",NA,NA,NA,NA,""
"image-keyboard-response",332,442996,"0.0-4.106-2.106","9v7dx59jullgljs",291,"90.csv","","null","resources/images/fishbone.png","null","",NA,NA,NA,NA,""
"image-keyboard-response",333,443004,"0.0-4.107-0.107","9v7dx59jullgljs",291,"90.csv","","6.5","resources/trios/L1T2A2.jpg","37","restless",0.2,0.4,0.4,0.932440707766709,"false"
"image-keyboard-response",334,443406,"0.0-4.107-1.107","9v7dx59jullgljs",291,"90.csv","","null","resources/maskTrios/L1BB.jpg","null","",NA,NA,NA,NA,""
"image-keyboard-response",335,444609,"0.0-4.107-2.107","9v7dx59jullgljs",291,"90.csv","","null","resources/images/fishbone.png","null","",NA,NA,NA,NA,""
"image-keyboard-response",336,444716,"0.0-4.108-0.108","9v7dx59jullgljs",291,"90.csv","","105.80000000447035","resources/trios/L1T2A2.jpg","37","restless",0.2,0.5,0.4,0.417255756555171,"false"
"image-keyboard-response",337,445119,"0.0-4.108-1.108","9v7dx59jullgljs",291,"90.csv","","null","resources/maskTrios/L1BB.jpg","null","",NA,NA,NA,NA,""
"image-keyboard-response",338,446322,"0.0-4.108-2.108","9v7dx59jullgljs",291,"90.csv","","null","resources/images/fishbone.png","null","",NA,NA,NA,NA,""
"image-keyboard-response",339,446365,"0.0-4.109-0.109","9v7dx59jullgljs",291,"90.csv","","41.20000000298023","resources/trios/L1T2A2.jpg","37","restless",0.2,0.5,0.4,0.395810402922496,"false"
"image-keyboard-response",340,446768,"0.0-4.109-1.109","9v7dx59jullgljs",291,"90.csv","","null","resources/maskTrios/L1BB.jpg","null","",NA,NA,NA,NA,""
"image-keyboard-response",341,447971,"0.0-4.109-2.109","9v7dx59jullgljs",291,"90.csv","","null","resources/images/fishbone.png","null","",NA,NA,NA,NA,""
"image-keyboard-response",342,448492,"0.0-4.110-0.110","9v7dx59jullgljs",291,"90.csv","","520","resources/trios/L1T2A2.jpg","38","restless",0.2,0.4,0.4,0.765873338364336,"false"
"image-keyboard-response",343,448895,"0.0-4.110-1.110","9v7dx59jullgljs",291,"90.csv","","null","resources/maskTrios/BT2B.jpg","null","",NA,NA,NA,NA,""
"image-keyboard-response",344,450098,"0.0-4.110-2.110","9v7dx59jullgljs",291,"90.csv","","null","resources/images/fishbone.png","null","",NA,NA,NA,NA,""
"image-keyboard-response",345,450107,"0.0-4.111-0.111","9v7dx59jullgljs",291,"90.csv","","7","resources/trios/L1T2A2.jpg","38","restless",0.3,0.4,0.4,0.41487960263457,"false"
"image-keyboard-response",346,450510,"0.0-4.111-1.111","9v7dx59jullgljs",291,"90.csv","","null","resources/maskTrios/BT2B.jpg","null","",NA,NA,NA,NA,""
"image-keyboard-response",347,451714,"0.0-4.111-2.111","9v7dx59jullgljs",291,"90.csv","","null","resources/images/fishbone.png","null","",NA,NA,NA,NA,""
"image-keyboard-response",348,451848,"0.0-4.112-0.112","9v7dx59jullgljs",291,"90.csv","","132.89999999850988","resources/trios/L1T2A2.jpg","39","restless",0.3,0.4,0.4,0.330291105089573,"true"
"image-keyboard-response",349,452251,"0.0-4.112-1.112","9v7dx59jullgljs",291,"90.csv","","null","resources/maskTrios/BBA2.jpg","null","",NA,NA,NA,NA,""
"image-keyboard-response",350,453454,"0.0-4.112-2.112","9v7dx59jullgljs",291,"90.csv","","null","resources/images/coin2.png","null","",NA,NA,NA,NA,""
"image-keyboard-response",351,453548,"0.0-4.113-0.113","9v7dx59jullgljs",291,"90.csv","","92.30000000447035","resources/trios/L1T2A2.jpg","39","restless",0.3,0.4,0.4,0.466140369037682,"false"
"image-keyboard-response",352,453951,"0.0-4.113-1.113","9v7dx59jullgljs",291,"90.csv","","null","resources/maskTrios/BBA2.jpg","null","",NA,NA,NA,NA,""
"image-keyboard-response",353,455154,"0.0-4.113-2.113","9v7dx59jullgljs",291,"90.csv","","null","resources/images/fishbone.png","null","",NA,NA,NA,NA,""
"image-keyboard-response",354,455333,"0.0-4.114-0.114","9v7dx59jullgljs",291,"90.csv","","177.29999999701977","resources/trios/L1T2A2.jpg","39","restless",0.3,0.4,0.4,0.453873961724008,"false"
"image-keyboard-response",355,455736,"0.0-4.114-1.114","9v7dx59jullgljs",291,"90.csv","","null","resources/maskTrios/BBA2.jpg","null","",NA,NA,NA,NA,""
"image-keyboard-response",356,456939,"0.0-4.114-2.114","9v7dx59jullgljs",291,"90.csv","","null","resources/images/fishbone.png","null","",NA,NA,NA,NA,""
"image-keyboard-response",357,457036,"0.0-4.115-0.115","9v7dx59jullgljs",291,"90.csv","","96","resources/trios/L1T2A2.jpg","39","restless",0.3,0.4,0.5,0.288932265580624,"true"
"image-keyboard-response",358,457438,"0.0-4.115-1.115","9v7dx59jullgljs",291,"90.csv","","null","resources/maskTrios/BBA2.jpg","null","",NA,NA,NA,NA,""
"image-keyboard-response",359,458640,"0.0-4.115-2.115","9v7dx59jullgljs",291,"90.csv","","null","resources/images/coin2.png","null","",NA,NA,NA,NA,""
"image-keyboard-response",360,458832,"0.0-4.116-0.116","9v7dx59jullgljs",291,"90.csv","","190.10000000149012","resources/trios/L1T2A2.jpg","39","restless",0.3,0.4,0.5,0.0661324123427052,"true"
"image-keyboard-response",361,459235,"0.0-4.116-1.116","9v7dx59jullgljs",291,"90.csv","","null","resources/maskTrios/BBA2.jpg","null","",NA,NA,NA,NA,""
"image-keyboard-response",362,460439,"0.0-4.116-2.116","9v7dx59jullgljs",291,"90.csv","","null","resources/images/coin2.png","null","",NA,NA,NA,NA,""
"image-keyboard-response",363,460544,"0.0-4.117-0.117","9v7dx59jullgljs",291,"90.csv","","103.30000000447035","resources/trios/L1T2A2.jpg","39","restless",0.3,0.4,0.5,0.682082679145629,"false"
"image-keyboard-response",364,460946,"0.0-4.117-1.117","9v7dx59jullgljs",291,"90.csv","","null","resources/maskTrios/BBA2.jpg","null","",NA,NA,NA,NA,""
"image-keyboard-response",365,462149,"0.0-4.117-2.117","9v7dx59jullgljs",291,"90.csv","","null","resources/images/fishbone.png","null","",NA,NA,NA,NA,""
"image-keyboard-response",366,462424,"0.0-4.118-0.118","9v7dx59jullgljs",291,"90.csv","","273.29999999701977","resources/trios/L1T2A2.jpg","39","restless",0.3,0.4,0.5,0.739957689297899,"false"
"image-keyboard-response",367,462827,"0.0-4.118-1.118","9v7dx59jullgljs",291,"90.csv","","null","resources/maskTrios/BBA2.jpg","null","",NA,NA,NA,NA,""
"image-keyboard-response",368,464030,"0.0-4.118-2.118","9v7dx59jullgljs",291,"90.csv","","null","resources/images/fishbone.png","null","",NA,NA,NA,NA,""
"image-keyboard-response",369,464220,"0.0-4.119-0.119","9v7dx59jullgljs",291,"90.csv","","188.70000000298023","resources/trios/L1T2A2.jpg","39","restless",0.3,0.4,0.5,0.449815522112077,"true"
"image-keyboard-response",370,464624,"0.0-4.119-1.119","9v7dx59jullgljs",291,"90.csv","","null","resources/maskTrios/BBA2.jpg","null","",NA,NA,NA,NA,""
"image-keyboard-response",371,465826,"0.0-4.119-2.119","9v7dx59jullgljs",291,"90.csv","","null","resources/images/coin2.png","null","",NA,NA,NA,NA,""
"image-keyboard-response",372,465861,"0.0-4.120-0.120","9v7dx59jullgljs",291,"90.csv","","32.899999998509884","resources/trios/L1T2A2.jpg","39","restless",0.3,0.4,0.5,0.248256151747776,"true"
"image-keyboard-response",373,466263,"0.0-4.120-1.120","9v7dx59jullgljs",291,"90.csv","","null","resources/maskTrios/BBA2.jpg","null","",NA,NA,NA,NA,""
"image-keyboard-response",374,467467,"0.0-4.120-2.120","9v7dx59jullgljs",291,"90.csv","","null","resources/images/coin2.png","null","",NA,NA,NA,NA,""
"image-keyboard-response",375,467504,"0.0-4.121-0.121","9v7dx59jullgljs",291,"90.csv","","34.899999998509884","resources/trios/L1T2A2.jpg","39","restless",0.3,0.4,0.4,0.381008611432306,"true"
"image-keyboard-response",376,467906,"0.0-4.121-1.121","9v7dx59jullgljs",291,"90.csv","","null","resources/maskTrios/BBA2.jpg","null","",NA,NA,NA,NA,""
"image-keyboard-response",377,469109,"0.0-4.121-2.121","9v7dx59jullgljs",291,"90.csv","","null","resources/images/coin2.png","null","",NA,NA,NA,NA,""
"image-keyboard-response",378,469125,"0.0-4.122-0.122","9v7dx59jullgljs",291,"90.csv","","13.799999997019768","resources/trios/L1T2A2.jpg","39","restless",0.3,0.5,0.4,0.77717472764982,"false"
"image-keyboard-response",379,469527,"0.0-4.122-1.122","9v7dx59jullgljs",291,"90.csv","","null","resources/maskTrios/BBA2.jpg","null","",NA,NA,NA,NA,""
"image-keyboard-response",380,470729,"0.0-4.122-2.122","9v7dx59jullgljs",291,"90.csv","","null","resources/images/fishbone.png","null","",NA,NA,NA,NA,""
"image-keyboard-response",381,470880,"0.0-4.123-0.123","9v7dx59jullgljs",291,"90.csv","","148.69999999552965","resources/trios/L1T2A2.jpg","39","restless",0.3,0.6,0.4,0.0133325689072608,"true"
"image-keyboard-response",382,471282,"0.0-4.123-1.123","9v7dx59jullgljs",291,"90.csv","","null","resources/maskTrios/BBA2.jpg","null","",NA,NA,NA,NA,""
"image-keyboard-response",383,472484,"0.0-4.123-2.123","9v7dx59jullgljs",291,"90.csv","","null","resources/images/coin2.png","null","",NA,NA,NA,NA,""
"image-keyboard-response",384,472520,"0.0-4.124-0.124","9v7dx59jullgljs",291,"90.csv","","34.5","resources/trios/L1T2A2.jpg","39","restless",0.3,0.6,0.4,0.079236515375648,"true"
"image-keyboard-response",385,472923,"0.0-4.124-1.124","9v7dx59jullgljs",291,"90.csv","","null","resources/maskTrios/BBA2.jpg","null","",NA,NA,NA,NA,""
"image-keyboard-response",386,474126,"0.0-4.124-2.124","9v7dx59jullgljs",291,"90.csv","","null","resources/images/coin2.png","null","",NA,NA,NA,NA,""
"image-keyboard-response",387,474220,"0.0-4.125-0.125","9v7dx59jullgljs",291,"90.csv","","93.60000000149012","resources/trios/L1T2A2.jpg","39","restless",0.3,0.6,0.4,0.324306467422424,"true"
"image-keyboard-response",388,474623,"0.0-4.125-1.125","9v7dx59jullgljs",291,"90.csv","","null","resources/maskTrios/BBA2.jpg","null","",NA,NA,NA,NA,""
"image-keyboard-response",389,475826,"0.0-4.125-2.125","9v7dx59jullgljs",291,"90.csv","","null","resources/images/coin2.png","null","",NA,NA,NA,NA,""
"image-keyboard-response",390,475972,"0.0-4.126-0.126","9v7dx59jullgljs",291,"90.csv","","144.79999999701977","resources/trios/L1T2A2.jpg","39","restless",0.3,0.6,0.5,0.650396301083264,"false"
"image-keyboard-response",391,476375,"0.0-4.126-1.126","9v7dx59jullgljs",291,"90.csv","","null","resources/maskTrios/BBA2.jpg","null","",NA,NA,NA,NA,""
"image-keyboard-response",392,477576,"0.0-4.126-2.126","9v7dx59jullgljs",291,"90.csv","","null","resources/images/fishbone.png","null","",NA,NA,NA,NA,""
"image-keyboard-response",393,477644,"0.0-4.127-0.127","9v7dx59jullgljs",291,"90.csv","","66.20000000298023","resources/trios/L1T2A2.jpg","39","restless",0.3,0.6,0.5,0.770558081606047,"false"
"image-keyboard-response",394,478048,"0.0-4.127-1.127","9v7dx59jullgljs",291,"90.csv","","null","resources/maskTrios/BBA2.jpg","null","",NA,NA,NA,NA,""
"image-keyboard-response",395,479251,"0.0-4.127-2.127","9v7dx59jullgljs",291,"90.csv","","null","resources/images/fishbone.png","null","",NA,NA,NA,NA,""
"image-keyboard-response",396,479932,"0.0-4.128-0.128","9v7dx59jullgljs",291,"90.csv","","680.1000000014901","resources/trios/L1T2A2.jpg","39","restless",0.3,0.6,0.5,0.229732693942822,"true"
"image-keyboard-response",397,480336,"0.0-4.128-1.128","9v7dx59jullgljs",291,"90.csv","","null","resources/maskTrios/BBA2.jpg","null","",NA,NA,NA,NA,""
"image-keyboard-response",398,481539,"0.0-4.128-2.128","9v7dx59jullgljs",291,"90.csv","","null","resources/images/coin2.png","null","",NA,NA,NA,NA,""
"image-keyboard-response",399,481607,"0.0-4.129-0.129","9v7dx59jullgljs",291,"90.csv","","66.5","resources/trios/L1T2A2.jpg","39","restless",0.4,0.7,0.5,0.0254881061688723,"true"
"image-keyboard-response",400,482009,"0.0-4.129-1.129","9v7dx59jullgljs",291,"90.csv","","null","resources/maskTrios/BBA2.jpg","null","",NA,NA,NA,NA,""
"image-keyboard-response",401,483212,"0.0-4.129-2.129","9v7dx59jullgljs",291,"90.csv","","null","resources/images/coin2.png","null","",NA,NA,NA,NA,""
"image-keyboard-response",402,483284,"0.0-4.130-0.130","9v7dx59jullgljs",291,"90.csv","","69.79999999701977","resources/trios/L1T2A2.jpg","39","restless",0.4,0.7,0.5,0.935304328583399,"false"
"image-keyboard-response",403,483687,"0.0-4.130-1.130","9v7dx59jullgljs",291,"90.csv","","null","resources/maskTrios/BBA2.jpg","null","",NA,NA,NA,NA,""
"image-keyboard-response",404,484890,"0.0-4.130-2.130","9v7dx59jullgljs",291,"90.csv","","null","resources/images/fishbone.png","null","",NA,NA,NA,NA,""
"image-keyboard-response",405,484944,"0.0-4.131-0.131","9v7dx59jullgljs",291,"90.csv","","52.100000001490116","resources/trios/L1T2A2.jpg","39","restless",0.4,0.6,0.5,0.372710131412423,"true"
"image-keyboard-response",406,485346,"0.0-4.131-1.131","9v7dx59jullgljs",291,"90.csv","","null","resources/maskTrios/BBA2.jpg","null","",NA,NA,NA,NA,""
"image-keyboard-response",407,486548,"0.0-4.131-2.131","9v7dx59jullgljs",291,"90.csv","","null","resources/images/coin2.png","null","",NA,NA,NA,NA,""
"image-keyboard-response",408,486684,"0.0-4.132-0.132","9v7dx59jullgljs",291,"90.csv","","134.10000000149012","resources/trios/L1T2A2.jpg","39","restless",0.4,0.6,0.5,0.840511773635424,"false"
"image-keyboard-response",409,487087,"0.0-4.132-1.132","9v7dx59jullgljs",291,"90.csv","","null","resources/maskTrios/BBA2.jpg","null","",NA,NA,NA,NA,""
"image-keyboard-response",410,488290,"0.0-4.132-2.132","9v7dx59jullgljs",291,"90.csv","","null","resources/images/fishbone.png","null","",NA,NA,NA,NA,""
"image-keyboard-response",411,488487,"0.0-4.133-0.133","9v7dx59jullgljs",291,"90.csv","","194.89999999850988","resources/trios/L1T2A2.jpg","39","restless",0.4,0.6,0.5,0.935618041175439,"false"
"image-keyboard-response",412,488890,"0.0-4.133-1.133","9v7dx59jullgljs",291,"90.csv","","null","resources/maskTrios/BBA2.jpg","null","",NA,NA,NA,NA,""
"image-keyboard-response",413,490093,"0.0-4.133-2.133","9v7dx59jullgljs",291,"90.csv","","null","resources/images/fishbone.png","null","",NA,NA,NA,NA,""
"image-keyboard-response",414,490102,"0.0-4.134-0.134","9v7dx59jullgljs",291,"90.csv","","7.399999998509884","resources/trios/L1T2A2.jpg","39","restless",0.4,0.6,0.5,0.50821743918863,"false"
"image-keyboard-response",415,490504,"0.0-4.134-1.134","9v7dx59jullgljs",291,"90.csv","","null","resources/maskTrios/BBA2.jpg","null","",NA,NA,NA,NA,""
"image-keyboard-response",416,491707,"0.0-4.134-2.134","9v7dx59jullgljs",291,"90.csv","","null","resources/images/fishbone.png","null","",NA,NA,NA,NA,""
"image-keyboard-response",417,491864,"0.0-4.135-0.135","9v7dx59jullgljs",291,"90.csv","","155.19999999552965","resources/trios/L1T2A2.jpg","39","restless",0.4,0.6,0.6,0.965570660640756,"false"
"image-keyboard-response",418,492265,"0.0-4.135-1.135","9v7dx59jullgljs",291,"90.csv","","null","resources/maskTrios/BBA2.jpg","null","",NA,NA,NA,NA,""
"image-keyboard-response",419,493467,"0.0-4.135-2.135","9v7dx59jullgljs",291,"90.csv","","null","resources/images/fishbone.png","null","",NA,NA,NA,NA,""
"image-keyboard-response",420,493647,"0.0-4.136-0.136","9v7dx59jullgljs",291,"90.csv","","177.80000000447035","resources/trios/L1T2A2.jpg","39","restless",0.4,0.6,0.6,0.615010548788341,"false"
"image-keyboard-response",421,494049,"0.0-4.136-1.136","9v7dx59jullgljs",291,"90.csv","","null","resources/maskTrios/BBA2.jpg","null","",NA,NA,NA,NA,""
"image-keyboard-response",422,495252,"0.0-4.136-2.136","9v7dx59jullgljs",291,"90.csv","","null","resources/images/fishbone.png","null","",NA,NA,NA,NA,""
"image-keyboard-response",423,495455,"0.0-4.137-0.137","9v7dx59jullgljs",291,"90.csv","","201.70000000298023","resources/trios/L1T2A2.jpg","39","restless",0.4,0.6,0.6,0.67698036608266,"false"
"image-keyboard-response",424,495858,"0.0-4.137-1.137","9v7dx59jullgljs",291,"90.csv","","null","resources/maskTrios/BBA2.jpg","null","",NA,NA,NA,NA,""
"image-keyboard-response",425,497062,"0.0-4.137-2.137","9v7dx59jullgljs",291,"90.csv","","null","resources/images/fishbone.png","null","",NA,NA,NA,NA,""
"image-keyboard-response",426,497228,"0.0-4.138-0.138","9v7dx59jullgljs",291,"90.csv","","164.39999999850988","resources/trios/L1T2A2.jpg","39","restless",0.4,0.6,0.6,0.556809628559962,"true"
"image-keyboard-response",427,497630,"0.0-4.138-1.138","9v7dx59jullgljs",291,"90.csv","","null","resources/maskTrios/BBA2.jpg","null","",NA,NA,NA,NA,""
"image-keyboard-response",428,498832,"0.0-4.138-2.138","9v7dx59jullgljs",291,"90.csv","","null","resources/images/coin2.png","null","",NA,NA,NA,NA,""
"image-keyboard-response",429,498842,"0.0-4.139-0.139","9v7dx59jullgljs",291,"90.csv","","8.400000005960464","resources/trios/L1T2A2.jpg","39","restless",0.4,0.6,0.6,0.128808463393228,"true"
"image-keyboard-response",430,499245,"0.0-4.139-1.139","9v7dx59jullgljs",291,"90.csv","","null","resources/maskTrios/BBA2.jpg","null","",NA,NA,NA,NA,""
"image-keyboard-response",431,500448,"0.0-4.139-2.139","9v7dx59jullgljs",291,"90.csv","","null","resources/images/coin2.png","null","",NA,NA,NA,NA,""
"image-keyboard-response",432,500607,"0.0-4.140-0.140","9v7dx59jullgljs",291,"90.csv","","157.19999999552965","resources/trios/L1T2A2.jpg","39","restless",0.4,0.5,0.6,0.881293660620434,"false"
"image-keyboard-response",433,501009,"0.0-4.140-1.140","9v7dx59jullgljs",291,"90.csv","","null","resources/maskTrios/BBA2.jpg","null","",NA,NA,NA,NA,""
"image-keyboard-response",434,502212,"0.0-4.140-2.140","9v7dx59jullgljs",291,"90.csv","","null","resources/images/fishbone.png","null","",NA,NA,NA,NA,""
"image-keyboard-response",435,502374,"0.0-4.141-0.141","9v7dx59jullgljs",291,"90.csv","","160.69999999552965","resources/trios/L1T2A2.jpg","39","restless",0.3,0.4,0.6,0.773946795555566,"false"
"image-keyboard-response",436,502775,"0.0-4.141-1.141","9v7dx59jullgljs",291,"90.csv","","null","resources/maskTrios/BBA2.jpg","null","",NA,NA,NA,NA,""
"image-keyboard-response",437,503978,"0.0-4.141-2.141","9v7dx59jullgljs",291,"90.csv","","null","resources/images/fishbone.png","null","",NA,NA,NA,NA,""
"image-keyboard-response",438,504071,"0.0-4.142-0.142","9v7dx59jullgljs",291,"90.csv","","91.39999999850988","resources/trios/L1T2A2.jpg","37","restless",0.3,0.4,0.6,0.848997115773406,"false"
"image-keyboard-response",439,504473,"0.0-4.142-1.142","9v7dx59jullgljs",291,"90.csv","","null","resources/maskTrios/L1BB.jpg","null","",NA,NA,NA,NA,""
"image-keyboard-response",440,505676,"0.0-4.142-2.142","9v7dx59jullgljs",291,"90.csv","","null","resources/images/fishbone.png","null","",NA,NA,NA,NA,""
"image-keyboard-response",441,505732,"0.0-4.143-0.143","9v7dx59jullgljs",291,"90.csv","","53.79999999701977","resources/trios/L1T2A2.jpg","37","restless",0.3,0.3,0.6,0.346440392681714,"false"
"image-keyboard-response",442,506135,"0.0-4.143-1.143","9v7dx59jullgljs",291,"90.csv","","null","resources/maskTrios/L1BB.jpg","null","",NA,NA,NA,NA,""
"image-keyboard-response",443,507338,"0.0-4.143-2.143","9v7dx59jullgljs",291,"90.csv","","null","resources/images/fishbone.png","null","",NA,NA,NA,NA,""
"image-keyboard-response",444,507391,"0.0-4.144-0.144","9v7dx59jullgljs",291,"90.csv","","51.79999999701977","resources/trios/L1T2A2.jpg","37","restless",0.3,0.3,0.6,0.974775625512934,"false"
"image-keyboard-response",445,507794,"0.0-4.144-1.144","9v7dx59jullgljs",291,"90.csv","","null","resources/maskTrios/L1BB.jpg","null","",NA,NA,NA,NA,""
"image-keyboard-response",446,508998,"0.0-4.144-2.144","9v7dx59jullgljs",291,"90.csv","","null","resources/images/fishbone.png","null","",NA,NA,NA,NA,""
"image-keyboard-response",447,509156,"0.0-4.145-0.145","9v7dx59jullgljs",291,"90.csv","","156.60000000149012","resources/trios/L1T2A2.jpg","37","restless",0.4,0.3,0.6,0.532432469129865,"false"
"image-keyboard-response",448,509558,"0.0-4.145-1.145","9v7dx59jullgljs",291,"90.csv","","null","resources/maskTrios/L1BB.jpg","null","",NA,NA,NA,NA,""
"image-keyboard-response",449,510760,"0.0-4.145-2.145","9v7dx59jullgljs",291,"90.csv","","null","resources/images/fishbone.png","null","",NA,NA,NA,NA,""
"image-keyboard-response",450,510765,"0.0-4.146-0.146","9v7dx59jullgljs",291,"90.csv","","2.600000001490116","resources/trios/L1T2A2.jpg","39","restless",0.4,0.3,0.6,0.445860991823108,"true"
"image-keyboard-response",451,511167,"0.0-4.146-1.146","9v7dx59jullgljs",291,"90.csv","","null","resources/maskTrios/BBA2.jpg","null","",NA,NA,NA,NA,""
"image-keyboard-response",452,512370,"0.0-4.146-2.146","9v7dx59jullgljs",291,"90.csv","","null","resources/images/coin2.png","null","",NA,NA,NA,NA,""
"image-keyboard-response",453,512378,"0.0-4.147-0.147","9v7dx59jullgljs",291,"90.csv","","6.100000001490116","resources/trios/L1T2A2.jpg","39","restless",0.4,0.3,0.6,0.868546185157372,"false"
"image-keyboard-response",454,512781,"0.0-4.147-1.147","9v7dx59jullgljs",291,"90.csv","","null","resources/maskTrios/BBA2.jpg","null","",NA,NA,NA,NA,""
"image-keyboard-response",455,513984,"0.0-4.147-2.147","9v7dx59jullgljs",291,"90.csv","","null","resources/images/fishbone.png","null","",NA,NA,NA,NA,""
"image-keyboard-response",456,514468,"0.0-4.148-0.148","9v7dx59jullgljs",291,"90.csv","","482.1000000014901","resources/trios/L1T2A2.jpg","39","restless",0.4,0.3,0.6,0.313739763630704,"true"
"image-keyboard-response",457,514871,"0.0-4.148-1.148","9v7dx59jullgljs",291,"90.csv","","null","resources/maskTrios/BBA2.jpg","null","",NA,NA,NA,NA,""
"image-keyboard-response",458,516074,"0.0-4.148-2.148","9v7dx59jullgljs",291,"90.csv","","null","resources/images/coin2.png","null","",NA,NA,NA,NA,""
"image-keyboard-response",459,516167,"0.0-4.149-0.149","9v7dx59jullgljs",291,"90.csv","","91.29999999701977","resources/trios/L1T2A2.jpg","39","restless",0.4,0.3,0.6,0.559806940089798,"true"
"image-keyboard-response",460,516570,"0.0-4.149-1.149","9v7dx59jullgljs",291,"90.csv","","null","resources/maskTrios/BBA2.jpg","null","",NA,NA,NA,NA,""
"image-keyboard-response",461,517773,"0.0-4.149-2.149","9v7dx59jullgljs",291,"90.csv","","null","resources/images/coin2.png","null","",NA,NA,NA,NA,""
"image-keyboard-response",462,518006,"0.0-4.150-0.150","9v7dx59jullgljs",291,"90.csv","","231.89999999850988","resources/trios/L1T2A2.jpg","39","restless",0.4,0.3,0.6,0.212371227316496,"true"
"image-keyboard-response",463,518410,"0.0-4.150-1.150","9v7dx59jullgljs",291,"90.csv","","null","resources/maskTrios/BBA2.jpg","null","",NA,NA,NA,NA,""
"image-keyboard-response",464,519613,"0.0-4.150-2.150","9v7dx59jullgljs",291,"90.csv","","null","resources/images/coin2.png","null","",NA,NA,NA,NA,""
"image-keyboard-response",465,519779,"0.0-4.151-0.151","9v7dx59jullgljs",291,"90.csv","","164.89999999850988","resources/trios/L1T2A2.jpg","39","restless",0.4,0.3,0.6,0.426603184975895,"true"
"image-keyboard-response",466,520183,"0.0-4.151-1.151","9v7dx59jullgljs",291,"90.csv","","null","resources/maskTrios/BBA2.jpg","null","",NA,NA,NA,NA,""
"image-keyboard-response",467,521386,"0.0-4.151-2.151","9v7dx59jullgljs",291,"90.csv","","null","resources/images/coin2.png","null","",NA,NA,NA,NA,""
"image-keyboard-response",468,521567,"0.0-4.152-0.152","9v7dx59jullgljs",291,"90.csv","","179.70000000298023","resources/trios/L1T2A2.jpg","39","restless",0.4,0.3,0.6,0.561140998424501,"true"
"image-keyboard-response",469,521969,"0.0-4.152-1.152","9v7dx59jullgljs",291,"90.csv","","null","resources/maskTrios/BBA2.jpg","null","",NA,NA,NA,NA,""
"image-keyboard-response",470,523171,"0.0-4.152-2.152","9v7dx59jullgljs",291,"90.csv","","null","resources/images/coin2.png","null","",NA,NA,NA,NA,""
"image-keyboard-response",471,523175,"0.0-4.153-0.153","9v7dx59jullgljs",291,"90.csv","","3.2999999970197678","resources/trios/L1T2A2.jpg","39","restless",0.4,0.3,0.6,0.136628338152633,"true"
"image-keyboard-response",472,523577,"0.0-4.153-1.153","9v7dx59jullgljs",291,"90.csv","","null","resources/maskTrios/BBA2.jpg","null","",NA,NA,NA,NA,""
"image-keyboard-response",473,524780,"0.0-4.153-2.153","9v7dx59jullgljs",291,"90.csv","","null","resources/images/coin2.png","null","",NA,NA,NA,NA,""
"image-keyboard-response",474,524878,"0.0-4.154-0.154","9v7dx59jullgljs",291,"90.csv","","96.80000000447035","resources/trios/L1T2A2.jpg","39","restless",0.4,0.3,0.6,0.512329228814631,"true"
"image-keyboard-response",475,525281,"0.0-4.154-1.154","9v7dx59jullgljs",291,"90.csv","","null","resources/maskTrios/BBA2.jpg","null","",NA,NA,NA,NA,""
"image-keyboard-response",476,526484,"0.0-4.154-2.154","9v7dx59jullgljs",291,"90.csv","","null","resources/images/coin2.png","null","",NA,NA,NA,NA,""
"image-keyboard-response",477,526699,"0.0-4.155-0.155","9v7dx59jullgljs",291,"90.csv","","213.39999999850988","resources/trios/L1T2A2.jpg","39","restless",0.4,0.3,0.6,0.577600094800636,"true"
"image-keyboard-response",478,527102,"0.0-4.155-1.155","9v7dx59jullgljs",291,"90.csv","","null","resources/maskTrios/BBA2.jpg","null","",NA,NA,NA,NA,""
"image-keyboard-response",479,528305,"0.0-4.155-2.155","9v7dx59jullgljs",291,"90.csv","","null","resources/images/coin2.png","null","",NA,NA,NA,NA,""
"image-keyboard-response",480,528555,"0.0-4.156-0.156","9v7dx59jullgljs",291,"90.csv","","248.70000000298023","resources/trios/L1T2A2.jpg","39","restless",0.4,0.2,0.6,0.159524145825908,"true"
"image-keyboard-response",481,528959,"0.0-4.156-1.156","9v7dx59jullgljs",291,"90.csv","","null","resources/maskTrios/BBA2.jpg","null","",NA,NA,NA,NA,""
"image-keyboard-response",482,530162,"0.0-4.156-2.156","9v7dx59jullgljs",291,"90.csv","","null","resources/images/coin2.png","null","",NA,NA,NA,NA,""
"image-keyboard-response",483,530346,"0.0-4.157-0.157","9v7dx59jullgljs",291,"90.csv","","182.39999999850988","resources/trios/L1T2A2.jpg","39","restless",0.4,0.2,0.6,0.681857854563384,"false"
"image-keyboard-response",484,530749,"0.0-4.157-1.157","9v7dx59jullgljs",291,"90.csv","","null","resources/maskTrios/BBA2.jpg","null","",NA,NA,NA,NA,""
"image-keyboard-response",485,531952,"0.0-4.157-2.157","9v7dx59jullgljs",291,"90.csv","","null","resources/images/fishbone.png","null","",NA,NA,NA,NA,""
"image-keyboard-response",486,532091,"0.0-4.158-0.158","9v7dx59jullgljs",291,"90.csv","","138","resources/trios/L1T2A2.jpg","39","restless",0.4,0.2,0.6,0.87187619398709,"false"
"image-keyboard-response",487,532495,"0.0-4.158-1.158","9v7dx59jullgljs",291,"90.csv","","null","resources/maskTrios/BBA2.jpg","null","",NA,NA,NA,NA,""
"image-keyboard-response",488,533698,"0.0-4.158-2.158","9v7dx59jullgljs",291,"90.csv","","null","resources/images/fishbone.png","null","",NA,NA,NA,NA,""
"image-keyboard-response",489,533951,"0.0-4.159-0.159","9v7dx59jullgljs",291,"90.csv","","251.29999999701977","resources/trios/L1T2A2.jpg","39","restless",0.4,0.2,0.6,0.230930964505903,"true"
"image-keyboard-response",490,534352,"0.0-4.159-1.159","9v7dx59jullgljs",291,"90.csv","","null","resources/maskTrios/BBA2.jpg","null","",NA,NA,NA,NA,""
"image-keyboard-response",491,535556,"0.0-4.159-2.159","9v7dx59jullgljs",291,"90.csv","","null","resources/images/coin2.png","null","",NA,NA,NA,NA,""
"image-keyboard-response",492,535679,"0.0-4.160-0.160","9v7dx59jullgljs",291,"90.csv","","121.59999999403954","resources/trios/L1T2A2.jpg","39","restless",0.4,0.2,0.6,0.923489026236563,"false"
"image-keyboard-response",493,536081,"0.0-4.160-1.160","9v7dx59jullgljs",291,"90.csv","","null","resources/maskTrios/BBA2.jpg","null","",NA,NA,NA,NA,""
"image-keyboard-response",494,537283,"0.0-4.160-2.160","9v7dx59jullgljs",291,"90.csv","","null","resources/images/fishbone.png","null","",NA,NA,NA,NA,""
"image-keyboard-response",495,537479,"0.0-4.161-0.161","9v7dx59jullgljs",291,"90.csv","","193.39999999850988","resources/trios/L1T2A2.jpg","39","restless",0.5,0.2,0.6,0.0874033915337669,"true"
"image-keyboard-response",496,537881,"0.0-4.161-1.161","9v7dx59jullgljs",291,"90.csv","","null","resources/maskTrios/BBA2.jpg","null","",NA,NA,NA,NA,""
"image-keyboard-response",497,539083,"0.0-4.161-2.161","9v7dx59jullgljs",291,"90.csv","","null","resources/images/coin2.png","null","",NA,NA,NA,NA,""
"image-keyboard-response",498,539085,"0.0-4.162-0.162","9v7dx59jullgljs",291,"90.csv","","0.20000000298023224","resources/trios/L1T2A2.jpg","39","restless",0.5,0.1,0.6,0.183954351393374,"true"
"image-keyboard-response",499,539487,"0.0-4.162-1.162","9v7dx59jullgljs",291,"90.csv","","null","resources/maskTrios/BBA2.jpg","null","",NA,NA,NA,NA,""
"image-keyboard-response",500,540690,"0.0-4.162-2.162","9v7dx59jullgljs",291,"90.csv","","null","resources/images/coin2.png","null","",NA,NA,NA,NA,""
"image-keyboard-response",501,540919,"0.0-4.163-0.163","9v7dx59jullgljs",291,"90.csv","","226.79999999701977","resources/trios/L1T2A2.jpg","39","restless",0.5,0.1,0.7,0.927089496816936,"false"
"image-keyboard-response",502,541321,"0.0-4.163-1.163","9v7dx59jullgljs",291,"90.csv","","null","resources/maskTrios/BBA2.jpg","null","",NA,NA,NA,NA,""
"image-keyboard-response",503,542524,"0.0-4.163-2.163","9v7dx59jullgljs",291,"90.csv","","null","resources/images/fishbone.png","null","",NA,NA,NA,NA,""
"image-keyboard-response",504,542563,"0.0-4.164-0.164","9v7dx59jullgljs",291,"90.csv","","37.5","resources/trios/L1T2A2.jpg","39","restless",0.5,0.1,0.7,0.0801798787594854,"true"
"image-keyboard-response",505,542966,"0.0-4.164-1.164","9v7dx59jullgljs",291,"90.csv","","null","resources/maskTrios/BBA2.jpg","null","",NA,NA,NA,NA,""
"image-keyboard-response",506,544170,"0.0-4.164-2.164","9v7dx59jullgljs",291,"90.csv","","null","resources/images/coin2.png","null","",NA,NA,NA,NA,""
"image-keyboard-response",507,544307,"0.0-4.165-0.165","9v7dx59jullgljs",291,"90.csv","","135.79999999701977","resources/trios/L1T2A2.jpg","39","restless",0.5,0.2,0.7,0.16464471327774,"true"
"image-keyboard-response",508,544710,"0.0-4.165-1.165","9v7dx59jullgljs",291,"90.csv","","null","resources/maskTrios/BBA2.jpg","null","",NA,NA,NA,NA,""
"image-keyboard-response",509,545913,"0.0-4.165-2.165","9v7dx59jullgljs",291,"90.csv","","null","resources/images/coin2.png","null","",NA,NA,NA,NA,""
"image-keyboard-response",510,546006,"0.0-4.166-0.166","9v7dx59jullgljs",291,"90.csv","","91.29999999701977","resources/trios/L1T2A2.jpg","39","restless",0.5,0.2,0.7,0.191383947793024,"true"
"image-keyboard-response",511,546409,"0.0-4.166-1.166","9v7dx59jullgljs",291,"90.csv","","null","resources/maskTrios/BBA2.jpg","null","",NA,NA,NA,NA,""
"image-keyboard-response",512,547612,"0.0-4.166-2.166","9v7dx59jullgljs",291,"90.csv","","null","resources/images/coin2.png","null","",NA,NA,NA,NA,""
"image-keyboard-response",513,548059,"0.0-4.167-0.167","9v7dx59jullgljs",291,"90.csv","","445.1000000014901","resources/trios/L1T2A2.jpg","39","restless",0.5,0.2,0.7,0.142454991170015,"true"
"image-keyboard-response",514,548462,"0.0-4.167-1.167","9v7dx59jullgljs",291,"90.csv","","null","resources/maskTrios/BBA2.jpg","null","",NA,NA,NA,NA,""
"image-keyboard-response",515,549665,"0.0-4.167-2.167","9v7dx59jullgljs",291,"90.csv","","null","resources/images/coin2.png","null","",NA,NA,NA,NA,""
"image-keyboard-response",516,550550,"0.0-4.168-0.168","9v7dx59jullgljs",291,"90.csv","","882.8999999985099","resources/trios/L1T2A2.jpg","39","restless",0.6,0.2,0.7,0.780662527354268,"false"
"image-keyboard-response",517,550953,"0.0-4.168-1.168","9v7dx59jullgljs",291,"90.csv","","null","resources/maskTrios/BBA2.jpg","null","",NA,NA,NA,NA,""
"image-keyboard-response",518,552155,"0.0-4.168-2.168","9v7dx59jullgljs",291,"90.csv","","null","resources/images/fishbone.png","null","",NA,NA,NA,NA,""
"image-keyboard-response",519,552307,"0.0-4.169-0.169","9v7dx59jullgljs",291,"90.csv","","150.60000000149012","resources/trios/L1T2A2.jpg","39","restless",0.6,0.2,0.7,0.363996925802829,"true"
"image-keyboard-response",520,552710,"0.0-4.169-1.169","9v7dx59jullgljs",291,"90.csv","","null","resources/maskTrios/BBA2.jpg","null","",NA,NA,NA,NA,""
"image-keyboard-response",521,553914,"0.0-4.169-2.169","9v7dx59jullgljs",291,"90.csv","","null","resources/images/coin2.png","null","",NA,NA,NA,NA,""
"image-keyboard-response",522,553979,"0.0-4.170-0.170","9v7dx59jullgljs",291,"90.csv","","63.70000000298023","resources/trios/L1T2A2.jpg","39","restless",0.6,0.2,0.7,0.0790683898326714,"true"
"image-keyboard-response",523,554382,"0.0-4.170-1.170","9v7dx59jullgljs",291,"90.csv","","null","resources/maskTrios/BBA2.jpg","null","",NA,NA,NA,NA,""
"image-keyboard-response",524,555585,"0.0-4.170-2.170","9v7dx59jullgljs",291,"90.csv","","null","resources/images/coin2.png","null","",NA,NA,NA,NA,""
"image-keyboard-response",525,555747,"0.0-4.171-0.171","9v7dx59jullgljs",291,"90.csv","","160.39999999850988","resources/trios/L1T2A2.jpg","39","restless",0.6,0.3,0.7,0.522864658940875,"true"
"image-keyboard-response",526,556150,"0.0-4.171-1.171","9v7dx59jullgljs",291,"90.csv","","null","resources/maskTrios/BBA2.jpg","null","",NA,NA,NA,NA,""
"image-keyboard-response",527,557353,"0.0-4.171-2.171","9v7dx59jullgljs",291,"90.csv","","null","resources/images/coin2.png","null","",NA,NA,NA,NA,""
"image-keyboard-response",528,557374,"0.0-4.172-0.172","9v7dx59jullgljs",291,"90.csv","","19.5","resources/trios/L1T2A2.jpg","39","restless",0.7,0.4,0.7,0.68369678848776,"true"
"image-keyboard-response",529,557777,"0.0-4.172-1.172","9v7dx59jullgljs",291,"90.csv","","null","resources/maskTrios/BBA2.jpg","null","",NA,NA,NA,NA,""
"image-keyboard-response",530,558980,"0.0-4.172-2.172","9v7dx59jullgljs",291,"90.csv","","null","resources/images/coin2.png","null","",NA,NA,NA,NA,""
"image-keyboard-response",531,559206,"0.0-4.173-0.173","9v7dx59jullgljs",291,"90.csv","","224.30000000447035","resources/trios/L1T2A2.jpg","39","restless",0.7,0.4,0.7,0.137965785573441,"true"
"image-keyboard-response",532,559608,"0.0-4.173-1.173","9v7dx59jullgljs",291,"90.csv","","null","resources/maskTrios/BBA2.jpg","null","",NA,NA,NA,NA,""
"image-keyboard-response",533,560811,"0.0-4.173-2.173","9v7dx59jullgljs",291,"90.csv","","null","resources/images/coin2.png","null","",NA,NA,NA,NA,""
"image-keyboard-response",534,560867,"0.0-4.174-0.174","9v7dx59jullgljs",291,"90.csv","","54.70000000298023","resources/trios/L1T2A2.jpg","39","restless",0.7,0.4,0.7,0.272379478735453,"true"
"image-keyboard-response",535,561270,"0.0-4.174-1.174","9v7dx59jullgljs",291,"90.csv","","null","resources/maskTrios/BBA2.jpg","null","",NA,NA,NA,NA,""
"image-keyboard-response",536,562472,"0.0-4.174-2.174","9v7dx59jullgljs",291,"90.csv","","null","resources/images/coin2.png","null","",NA,NA,NA,NA,""
"image-keyboard-response",537,562526,"0.0-4.175-0.175","9v7dx59jullgljs",291,"90.csv","","52.70000000298023","resources/trios/L1T2A2.jpg","39","restless",0.7,0.4,0.7,0.273884790540022,"true"
"image-keyboard-response",538,562928,"0.0-4.175-1.175","9v7dx59jullgljs",291,"90.csv","","null","resources/maskTrios/BBA2.jpg","null","",NA,NA,NA,NA,""
"image-keyboard-response",539,564132,"0.0-4.175-2.175","9v7dx59jullgljs",291,"90.csv","","null","resources/images/coin2.png","null","",NA,NA,NA,NA,""
"image-keyboard-response",540,564726,"0.0-4.176-0.176","9v7dx59jullgljs",291,"90.csv","","592.6000000014901","resources/trios/L1T2A2.jpg","39","restless",0.7,0.4,0.7,0.946454828556179,"false"
"image-keyboard-response",541,565129,"0.0-4.176-1.176","9v7dx59jullgljs",291,"90.csv","","null","resources/maskTrios/BBA2.jpg","null","",NA,NA,NA,NA,""
"image-keyboard-response",542,566331,"0.0-4.176-2.176","9v7dx59jullgljs",291,"90.csv","","null","resources/images/fishbone.png","null","",NA,NA,NA,NA,""
"image-keyboard-response",543,566750,"0.0-4.177-0.177","9v7dx59jullgljs",291,"90.csv","","417.5","resources/trios/L1T2A2.jpg","39","restless",0.7,0.4,0.7,0.323620116249412,"true"
"image-keyboard-response",544,567153,"0.0-4.177-1.177","9v7dx59jullgljs",291,"90.csv","","null","resources/maskTrios/BBA2.jpg","null","",NA,NA,NA,NA,""
"image-keyboard-response",545,568356,"0.0-4.177-2.177","9v7dx59jullgljs",291,"90.csv","","null","resources/images/coin2.png","null","",NA,NA,NA,NA,""
"image-keyboard-response",546,568958,"0.0-4.178-0.178","9v7dx59jullgljs",291,"90.csv","","600.5","resources/trios/L1T2A2.jpg","39","restless",0.7,0.4,0.7,0.280380290336967,"true"
"image-keyboard-response",547,569360,"0.0-4.178-1.178","9v7dx59jullgljs",291,"90.csv","","null","resources/maskTrios/BBA2.jpg","null","",NA,NA,NA,NA,""
"image-keyboard-response",548,570564,"0.0-4.178-2.178","9v7dx59jullgljs",291,"90.csv","","null","resources/images/coin2.png","null","",NA,NA,NA,NA,""
"image-keyboard-response",549,571163,"0.0-4.179-0.179","9v7dx59jullgljs",291,"90.csv","","597","resources/trios/L1T2A2.jpg","39","restless",0.7,0.4,0.7,0.40576431888288,"true"
"image-keyboard-response",550,571565,"0.0-4.179-1.179","9v7dx59jullgljs",291,"90.csv","","null","resources/maskTrios/BBA2.jpg","null","",NA,NA,NA,NA,""
"image-keyboard-response",551,572769,"0.0-4.179-2.179","9v7dx59jullgljs",291,"90.csv","","null","resources/images/coin2.png","null","",NA,NA,NA,NA,""
"image-keyboard-response",552,572966,"0.0-4.180-0.180","9v7dx59jullgljs",291,"90.csv","","195.39999999850988","resources/trios/L1T2A2.jpg","39","restless",0.6,0.4,0.8,0.270158768623229,"true"
"image-keyboard-response",553,573369,"0.0-4.180-1.180","9v7dx59jullgljs",291,"90.csv","","null","resources/maskTrios/BBA2.jpg","null","",NA,NA,NA,NA,""
"image-keyboard-response",554,574572,"0.0-4.180-2.180","9v7dx59jullgljs",291,"90.csv","","null","resources/images/coin2.png","null","",NA,NA,NA,NA,""
"image-keyboard-response",555,574718,"0.0-4.181-0.181","9v7dx59jullgljs",291,"90.csv","","144.29999999701977","resources/trios/L1T2A2.jpg","39","restless",0.6,0.4,0.8,0.83305995759356,"false"
"image-keyboard-response",556,575121,"0.0-4.181-1.181","9v7dx59jullgljs",291,"90.csv","","null","resources/maskTrios/BBA2.jpg","null","",NA,NA,NA,NA,""
"image-keyboard-response",557,576323,"0.0-4.181-2.181","9v7dx59jullgljs",291,"90.csv","","null","resources/images/fishbone.png","null","",NA,NA,NA,NA,""
"image-keyboard-response",558,576870,"0.0-4.182-0.182","9v7dx59jullgljs",291,"90.csv","","545.2000000029802","resources/trios/L1T2A2.jpg","39","restless",0.6,0.4,0.8,0.874208294176903,"false"
"image-keyboard-response",559,577273,"0.0-4.182-1.182","9v7dx59jullgljs",291,"90.csv","","null","resources/maskTrios/BBA2.jpg","null","",NA,NA,NA,NA,""
"image-keyboard-response",560,578476,"0.0-4.182-2.182","9v7dx59jullgljs",291,"90.csv","","null","resources/images/fishbone.png","null","",NA,NA,NA,NA,""
"image-keyboard-response",561,578534,"0.0-4.183-0.183","9v7dx59jullgljs",291,"90.csv","","56.399999998509884","resources/trios/L1T2A2.jpg","39","restless",0.6,0.4,0.8,0.191472146784369,"true"
"image-keyboard-response",562,578936,"0.0-4.183-1.183","9v7dx59jullgljs",291,"90.csv","","null","resources/maskTrios/BBA2.jpg","null","",NA,NA,NA,NA,""
"image-keyboard-response",563,580139,"0.0-4.183-2.183","9v7dx59jullgljs",291,"90.csv","","null","resources/images/coin2.png","null","",NA,NA,NA,NA,""
"image-keyboard-response",564,580206,"0.0-4.184-0.184","9v7dx59jullgljs",291,"90.csv","","65.39999999850988","resources/trios/L1T2A2.jpg","39","restless",0.6,0.4,0.8,0.79722824035672,"true"
"image-keyboard-response",565,580609,"0.0-4.184-1.184","9v7dx59jullgljs",291,"90.csv","","null","resources/maskTrios/BBA2.jpg","null","",NA,NA,NA,NA,""
"image-keyboard-response",566,581812,"0.0-4.184-2.184","9v7dx59jullgljs",291,"90.csv","","null","resources/images/coin2.png","null","",NA,NA,NA,NA,""
"image-keyboard-response",567,582374,"0.0-4.185-0.185","9v7dx59jullgljs",291,"90.csv","","560.5","resources/trios/L1T2A2.jpg","39","restless",0.6,0.5,0.8,0.60879715604372,"true"
"image-keyboard-response",568,582776,"0.0-4.185-1.185","9v7dx59jullgljs",291,"90.csv","","null","resources/maskTrios/BBA2.jpg","null","",NA,NA,NA,NA,""
"image-keyboard-response",569,583979,"0.0-4.185-2.185","9v7dx59jullgljs",291,"90.csv","","null","resources/images/coin2.png","null","",NA,NA,NA,NA,""
"image-keyboard-response",570,584186,"0.0-4.186-0.186","9v7dx59jullgljs",291,"90.csv","","206.29999999701977","resources/trios/L1T2A2.jpg","39","restless",0.6,0.5,0.8,0.280571808321973,"true"
"image-keyboard-response",571,584589,"0.0-4.186-1.186","9v7dx59jullgljs",291,"90.csv","","null","resources/maskTrios/BBA2.jpg","null","",NA,NA,NA,NA,""
"image-keyboard-response",572,585792,"0.0-4.186-2.186","9v7dx59jullgljs",291,"90.csv","","null","resources/images/coin2.png","null","",NA,NA,NA,NA,""
"image-keyboard-response",573,586002,"0.0-4.187-0.187","9v7dx59jullgljs",291,"90.csv","","209.80000000447035","resources/trios/L1T2A2.jpg","39","restless",0.6,0.5,0.8,0.238104058669306,"true"
"image-keyboard-response",574,586405,"0.0-4.187-1.187","9v7dx59jullgljs",291,"90.csv","","null","resources/maskTrios/BBA2.jpg","null","",NA,NA,NA,NA,""
"image-keyboard-response",575,587608,"0.0-4.187-2.187","9v7dx59jullgljs",291,"90.csv","","null","resources/images/coin2.png","null","",NA,NA,NA,NA,""
"image-keyboard-response",576,587786,"0.0-4.188-0.188","9v7dx59jullgljs",291,"90.csv","","176.19999999552965","resources/trios/L1T2A2.jpg","39","restless",0.6,0.5,0.8,0.348453359558954,"true"
"image-keyboard-response",577,588189,"0.0-4.188-1.188","9v7dx59jullgljs",291,"90.csv","","null","resources/maskTrios/BBA2.jpg","null","",NA,NA,NA,NA,""
"image-keyboard-response",578,589391,"0.0-4.188-2.188","9v7dx59jullgljs",291,"90.csv","","null","resources/images/coin2.png","null","",NA,NA,NA,NA,""
"image-keyboard-response",579,589634,"0.0-4.189-0.189","9v7dx59jullgljs",291,"90.csv","","242.19999999552965","resources/trios/L1T2A2.jpg","39","restless",0.6,0.5,0.8,0.236913304835872,"true"
"image-keyboard-response",580,590037,"0.0-4.189-1.189","9v7dx59jullgljs",291,"90.csv","","null","resources/maskTrios/BBA2.jpg","null","",NA,NA,NA,NA,""
"image-keyboard-response",581,591240,"0.0-4.189-2.189","9v7dx59jullgljs",291,"90.csv","","null","resources/images/coin2.png","null","",NA,NA,NA,NA,""
"image-keyboard-response",582,591273,"0.0-4.190-0.190","9v7dx59jullgljs",291,"90.csv","","31.899999998509884","resources/trios/L1T2A2.jpg","39","restless",0.6,0.5,0.8,0.925228389173195,"false"
"image-keyboard-response",583,591676,"0.0-4.190-1.190","9v7dx59jullgljs",291,"90.csv","","null","resources/maskTrios/BBA2.jpg","null","",NA,NA,NA,NA,""
"image-keyboard-response",584,592879,"0.0-4.190-2.190","9v7dx59jullgljs",291,"90.csv","","null","resources/images/fishbone.png","null","",NA,NA,NA,NA,""
"image-keyboard-response",585,593038,"0.0-4.191-0.191","9v7dx59jullgljs",291,"90.csv","","157.09999999403954","resources/trios/L1T2A2.jpg","39","restless",0.6,0.5,0.8,0.731454371682505,"true"
"image-keyboard-response",586,593441,"0.0-4.191-1.191","9v7dx59jullgljs",291,"90.csv","","null","resources/maskTrios/BBA2.jpg","null","",NA,NA,NA,NA,""
"image-keyboard-response",587,594644,"0.0-4.191-2.191","9v7dx59jullgljs",291,"90.csv","","null","resources/images/coin2.png","null","",NA,NA,NA,NA,""
"image-keyboard-response",588,594882,"0.0-4.192-0.192","9v7dx59jullgljs",291,"90.csv","","236.89999999850988","resources/trios/L1T2A2.jpg","39","restless",0.6,0.5,0.8,0.74894880619956,"true"
"image-keyboard-response",589,595285,"0.0-4.192-1.192","9v7dx59jullgljs",291,"90.csv","","null","resources/maskTrios/BBA2.jpg","null","",NA,NA,NA,NA,""
"image-keyboard-response",590,596488,"0.0-4.192-2.192","9v7dx59jullgljs",291,"90.csv","","null","resources/images/coin2.png","null","",NA,NA,NA,NA,""
"image-keyboard-response",591,596522,"0.0-4.193-0.193","9v7dx59jullgljs",291,"90.csv","","32.100000001490116","resources/trios/L1T2A2.jpg","39","restless",0.6,0.5,0.8,0.938682368837001,"false"
"image-keyboard-response",592,596925,"0.0-4.193-1.193","9v7dx59jullgljs",291,"90.csv","","null","resources/maskTrios/BBA2.jpg","null","",NA,NA,NA,NA,""
"image-keyboard-response",593,598128,"0.0-4.193-2.193","9v7dx59jullgljs",291,"90.csv","","null","resources/images/fishbone.png","null","",NA,NA,NA,NA,""
"image-keyboard-response",594,598258,"0.0-4.194-0.194","9v7dx59jullgljs",291,"90.csv","","128.20000000298023","resources/trios/L1T2A2.jpg","39","restless",0.6,0.5,0.8,0.393273218006786,"true"
"image-keyboard-response",595,598662,"0.0-4.194-1.194","9v7dx59jullgljs",291,"90.csv","","null","resources/maskTrios/BBA2.jpg","null","",NA,NA,NA,NA,""
"image-keyboard-response",596,599865,"0.0-4.194-2.194","9v7dx59jullgljs",291,"90.csv","","null","resources/images/coin2.png","null","",NA,NA,NA,NA,""
"image-keyboard-response",597,599933,"0.0-4.195-0.195","9v7dx59jullgljs",291,"90.csv","","66.89999999850988","resources/trios/L1T2A2.jpg","39","restless",0.6,0.5,0.8,0.974468907457637,"false"
"image-keyboard-response",598,600336,"0.0-4.195-1.195","9v7dx59jullgljs",291,"90.csv","","null","resources/maskTrios/BBA2.jpg","null","",NA,NA,NA,NA,""
"image-keyboard-response",599,601539,"0.0-4.195-2.195","9v7dx59jullgljs",291,"90.csv","","null","resources/images/fishbone.png","null","",NA,NA,NA,NA,""
"image-keyboard-response",600,601694,"0.0-4.196-0.196","9v7dx59jullgljs",291,"90.csv","","153.09999999403954","resources/trios/L1T2A2.jpg","39","restless",0.6,0.5,0.8,0.578532269188613,"true"
"image-keyboard-response",601,602096,"0.0-4.196-1.196","9v7dx59jullgljs",291,"90.csv","","null","resources/maskTrios/BBA2.jpg","null","",NA,NA,NA,NA,""
"image-keyboard-response",602,603300,"0.0-4.196-2.196","9v7dx59jullgljs",291,"90.csv","","null","resources/images/coin2.png","null","",NA,NA,NA,NA,""
"image-keyboard-response",603,603366,"0.0-4.197-0.197","9v7dx59jullgljs",291,"90.csv","","64.29999999701977","resources/trios/L1T2A2.jpg","39","restless",0.6,0.6,0.8,0.951225421100989,"false"
"image-keyboard-response",604,603769,"0.0-4.197-1.197","9v7dx59jullgljs",291,"90.csv","","null","resources/maskTrios/BBA2.jpg","null","",NA,NA,NA,NA,""
"image-keyboard-response",605,604971,"0.0-4.197-2.197","9v7dx59jullgljs",291,"90.csv","","null","resources/images/fishbone.png","null","",NA,NA,NA,NA,""
"image-keyboard-response",606,605266,"0.0-4.198-0.198","9v7dx59jullgljs",291,"90.csv","","293","resources/trios/L1T2A2.jpg","39","restless",0.6,0.6,0.8,0.419133442791326,"true"
"image-keyboard-response",607,605669,"0.0-4.198-1.198","9v7dx59jullgljs",291,"90.csv","","null","resources/maskTrios/BBA2.jpg","null","",NA,NA,NA,NA,""
"image-keyboard-response",608,606871,"0.0-4.198-2.198","9v7dx59jullgljs",291,"90.csv","","null","resources/images/coin2.png","null","",NA,NA,NA,NA,""
"image-keyboard-response",609,606908,"0.0-4.199-0.199","9v7dx59jullgljs",291,"90.csv","","34.600000001490116","resources/trios/L1T2A2.jpg","39","restless",0.5,0.6,0.8,0.229100456423693,"true"
"image-keyboard-response",610,607311,"0.0-4.199-1.199","9v7dx59jullgljs",291,"90.csv","","null","resources/maskTrios/BBA2.jpg","null","",NA,NA,NA,NA,""
"image-keyboard-response",611,608513,"0.0-4.199-2.199","9v7dx59jullgljs",291,"90.csv","","null","resources/images/coin2.png","null","",NA,NA,NA,NA,""
