"trial_type","trial_index","time_elapsed","internal_node_id","subject","participantCode","walkNumber","success","rt","stimulus","key_press","test_part","leftProb","midProb","rightProb","generatedNum","correct"
"pavlovia",0,574,"0.0-0.0","xo2uzc5keh8cdno",414,"89.csv","","","","","",NA,NA,NA,NA,""
"fullscreen",1,3383,"0.0-1.0","xo2uzc5keh8cdno",414,"89.csv","true","","","","",NA,NA,NA,NA,""
"survey-html-form",2,17498,"0.0-2.0","xo2uzc5keh8cdno",414,"89.csv","","14109","","","",NA,NA,NA,NA,""
"image-keyboard-response",3,27369,"0.0-3.0-0.0","xo2uzc5keh8cdno",414,"89.csv","","9868.400000000373","resources/images/parrot_nobg.png","13","",NA,NA,NA,NA,""
"image-keyboard-response",4,30377,"0.0-3.0-1.0","xo2uzc5keh8cdno",414,"89.csv","","null","resources/image_sets/111.png","null","",NA,NA,NA,NA,""
"image-keyboard-response",5,32502,"0.0-3.0-2.0","xo2uzc5keh8cdno",414,"89.csv","","2122.7999999988824","resources/image_sets/left_highlight.png","37","",NA,NA,NA,NA,""
"image-keyboard-response",6,33691,"0.0-3.0-3.0","xo2uzc5keh8cdno",414,"89.csv","","1187.5999999996275","resources/image_sets/mid_highlight.png","38","",NA,NA,NA,NA,""
"image-keyboard-response",7,34950,"0.0-3.0-4.0","xo2uzc5keh8cdno",414,"89.csv","","1256.4000000003725","resources/image_sets/right_highlight.png","39","",NA,NA,NA,NA,""
"image-keyboard-response",8,37336,"0.0-3.0-5.0","xo2uzc5keh8cdno",414,"89.csv","","2384.10000000149","resources/image_sets/111.png","13","",NA,NA,NA,NA,""
"image-keyboard-response",9,38855,"0.0-3.0-6.0","xo2uzc5keh8cdno",414,"89.csv","","1517.0999999996275","resources/images/coin2.png","13","",NA,NA,NA,NA,""
"image-keyboard-response",10,40337,"0.0-3.0-7.0","xo2uzc5keh8cdno",414,"89.csv","","1480.199999999255","resources/images/fishbone.png","13","",NA,NA,NA,NA,""
"html-keyboard-response",11,43696,"0.0-3.0-8.0","xo2uzc5keh8cdno",414,"89.csv","","3356.39999999851","<p>You can track your coin total on the top right of your screen. </p><p>At the end of your journey you will be directed to a survey, so please click on the link before exiting the task</p><p>Press Enter to begin</p>","13","",NA,NA,NA,NA,""
"image-keyboard-response",12,44907,"0.0-4.0-0.0","xo2uzc5keh8cdno",414,"89.csv","","1208.4000000003725","resources/trios/L1T4A3.jpg","37","restless",0.3,0.9,0.7,0.660319231516768,"false"
"image-keyboard-response",13,45317,"0.0-4.0-1.0","xo2uzc5keh8cdno",414,"89.csv","","null","resources/maskTrios/L1BB.jpg","null","",NA,NA,NA,NA,""
"image-keyboard-response",14,46525,"0.0-4.0-2.0","xo2uzc5keh8cdno",414,"89.csv","","null","resources/images/fishbone.png","null","",NA,NA,NA,NA,""
"image-keyboard-response",15,47046,"0.0-4.1-0.1","xo2uzc5keh8cdno",414,"89.csv","","517.5","resources/trios/L1T4A3.jpg","39","restless",0.3,0.9,0.7,0.77620198096032,"false"
"image-keyboard-response",16,47454,"0.0-4.1-1.1","xo2uzc5keh8cdno",414,"89.csv","","null","resources/maskTrios/BBA3.jpg","null","",NA,NA,NA,NA,""
"image-keyboard-response",17,48662,"0.0-4.1-2.1","xo2uzc5keh8cdno",414,"89.csv","","null","resources/images/fishbone.png","null","",NA,NA,NA,NA,""
"image-keyboard-response",18,48947,"0.0-4.2-0.2","xo2uzc5keh8cdno",414,"89.csv","","281.80000000074506","resources/trios/L1T4A3.jpg","38","restless",0.3,0.9,0.7,0.187091263412904,"true"
"image-keyboard-response",19,49353,"0.0-4.2-1.2","xo2uzc5keh8cdno",414,"89.csv","","null","resources/maskTrios/BT4B.jpg","null","",NA,NA,NA,NA,""
"image-keyboard-response",20,50563,"0.0-4.2-2.2","xo2uzc5keh8cdno",414,"89.csv","","null","resources/images/coin2.png","null","",NA,NA,NA,NA,""
"image-keyboard-response",21,51318,"0.0-4.3-0.3","xo2uzc5keh8cdno",414,"89.csv","","752.8000000007451","resources/trios/L1T4A3.jpg","38","restless",0.3,0.9,0.7,0.0382736971309359,"true"
"image-keyboard-response",22,51723,"0.0-4.3-1.3","xo2uzc5keh8cdno",414,"89.csv","","null","resources/maskTrios/BT4B.jpg","null","",NA,NA,NA,NA,""
"image-keyboard-response",23,52932,"0.0-4.3-2.3","xo2uzc5keh8cdno",414,"89.csv","","null","resources/images/coin2.png","null","",NA,NA,NA,NA,""
"image-keyboard-response",24,53523,"0.0-4.4-0.4","xo2uzc5keh8cdno",414,"89.csv","","588.3999999985099","resources/trios/L1T4A3.jpg","38","restless",0.3,0.9,0.7,0.272537448084098,"true"
"image-keyboard-response",25,53931,"0.0-4.4-1.4","xo2uzc5keh8cdno",414,"89.csv","","null","resources/maskTrios/BT4B.jpg","null","",NA,NA,NA,NA,""
"image-keyboard-response",26,55139,"0.0-4.4-2.4","xo2uzc5keh8cdno",414,"89.csv","","null","resources/images/coin2.png","null","",NA,NA,NA,NA,""
"image-keyboard-response",27,55630,"0.0-4.5-0.5","xo2uzc5keh8cdno",414,"89.csv","","488.69999999925494","resources/trios/L1T4A3.jpg","38","restless",0.3,0.9,0.7,0.787597319290582,"true"
"image-keyboard-response",28,56037,"0.0-4.5-1.5","xo2uzc5keh8cdno",414,"89.csv","","null","resources/maskTrios/BT4B.jpg","null","",NA,NA,NA,NA,""
"image-keyboard-response",29,57245,"0.0-4.5-2.5","xo2uzc5keh8cdno",414,"89.csv","","null","resources/images/coin2.png","null","",NA,NA,NA,NA,""
"image-keyboard-response",30,57729,"0.0-4.6-0.6","xo2uzc5keh8cdno",414,"89.csv","","481.7000000011176","resources/trios/L1T4A3.jpg","38","restless",0.2,0.9,0.7,0.635343590313131,"true"
"image-keyboard-response",31,58135,"0.0-4.6-1.6","xo2uzc5keh8cdno",414,"89.csv","","null","resources/maskTrios/BT4B.jpg","null","",NA,NA,NA,NA,""
"image-keyboard-response",32,59343,"0.0-4.6-2.6","xo2uzc5keh8cdno",414,"89.csv","","null","resources/images/coin2.png","null","",NA,NA,NA,NA,""
"image-keyboard-response",33,59732,"0.0-4.7-0.7","xo2uzc5keh8cdno",414,"89.csv","","386.80000000074506","resources/trios/L1T4A3.jpg","38","restless",0.2,0.9,0.7,0.703028765845596,"true"
"image-keyboard-response",34,60139,"0.0-4.7-1.7","xo2uzc5keh8cdno",414,"89.csv","","null","resources/maskTrios/BT4B.jpg","null","",NA,NA,NA,NA,""
"image-keyboard-response",35,61348,"0.0-4.7-2.7","xo2uzc5keh8cdno",414,"89.csv","","null","resources/images/coin2.png","null","",NA,NA,NA,NA,""
"image-keyboard-response",36,61636,"0.0-4.8-0.8","xo2uzc5keh8cdno",414,"89.csv","","285.90000000037253","resources/trios/L1T4A3.jpg","38","restless",0.2,0.9,0.7,0.995684067418168,"false"
"image-keyboard-response",37,62042,"0.0-4.8-1.8","xo2uzc5keh8cdno",414,"89.csv","","null","resources/maskTrios/BT4B.jpg","null","",NA,NA,NA,NA,""
"image-keyboard-response",38,63250,"0.0-4.8-2.8","xo2uzc5keh8cdno",414,"89.csv","","null","resources/images/fishbone.png","null","",NA,NA,NA,NA,""
"image-keyboard-response",39,63733,"0.0-4.9-0.9","xo2uzc5keh8cdno",414,"89.csv","","481.09999999962747","resources/trios/L1T4A3.jpg","39","restless",0.2,0.9,0.6,0.010644380573078,"true"
"image-keyboard-response",40,64141,"0.0-4.9-1.9","xo2uzc5keh8cdno",414,"89.csv","","null","resources/maskTrios/BBA3.jpg","null","",NA,NA,NA,NA,""
"image-keyboard-response",41,65349,"0.0-4.9-2.9","xo2uzc5keh8cdno",414,"89.csv","","null","resources/images/coin2.png","null","",NA,NA,NA,NA,""
"image-keyboard-response",42,65821,"0.0-4.10-0.10","xo2uzc5keh8cdno",414,"89.csv","","469.5","resources/trios/L1T4A3.jpg","39","restless",0.1,0.9,0.6,0.619368529259516,"false"
"image-keyboard-response",43,66227,"0.0-4.10-1.10","xo2uzc5keh8cdno",414,"89.csv","","null","resources/maskTrios/BBA3.jpg","null","",NA,NA,NA,NA,""
"image-keyboard-response",44,67434,"0.0-4.10-2.10","xo2uzc5keh8cdno",414,"89.csv","","null","resources/images/fishbone.png","null","",NA,NA,NA,NA,""
"image-keyboard-response",45,67953,"0.0-4.11-0.11","xo2uzc5keh8cdno",414,"89.csv","","518.1999999992549","resources/trios/L1T4A3.jpg","37","restless",0.1,0.9,0.5,0.00843725589790756,"true"
"image-keyboard-response",46,68359,"0.0-4.11-1.11","xo2uzc5keh8cdno",414,"89.csv","","null","resources/maskTrios/L1BB.jpg","null","",NA,NA,NA,NA,""
"image-keyboard-response",47,69567,"0.0-4.11-2.11","xo2uzc5keh8cdno",414,"89.csv","","null","resources/images/coin2.png","null","",NA,NA,NA,NA,""
"image-keyboard-response",48,69939,"0.0-4.12-0.12","xo2uzc5keh8cdno",414,"89.csv","","369","resources/trios/L1T4A3.jpg","37","restless",0.1,0.9,0.5,0.906007382951422,"false"
"image-keyboard-response",49,70347,"0.0-4.12-1.12","xo2uzc5keh8cdno",414,"89.csv","","null","resources/maskTrios/L1BB.jpg","null","",NA,NA,NA,NA,""
"image-keyboard-response",50,71553,"0.0-4.12-2.12","xo2uzc5keh8cdno",414,"89.csv","","null","resources/images/fishbone.png","null","",NA,NA,NA,NA,""
"image-keyboard-response",51,71842,"0.0-4.13-0.13","xo2uzc5keh8cdno",414,"89.csv","","285","resources/trios/L1T4A3.jpg","38","restless",0.1,0.9,0.5,0.312316907364798,"true"
"image-keyboard-response",52,72249,"0.0-4.13-1.13","xo2uzc5keh8cdno",414,"89.csv","","null","resources/maskTrios/BT4B.jpg","null","",NA,NA,NA,NA,""
"image-keyboard-response",53,73455,"0.0-4.13-2.13","xo2uzc5keh8cdno",414,"89.csv","","null","resources/images/coin2.png","null","",NA,NA,NA,NA,""
"image-keyboard-response",54,73842,"0.0-4.14-0.14","xo2uzc5keh8cdno",414,"89.csv","","385.09999999962747","resources/trios/L1T4A3.jpg","38","restless",0.2,0.9,0.4,0.651976647311237,"true"
"image-keyboard-response",55,74250,"0.0-4.14-1.14","xo2uzc5keh8cdno",414,"89.csv","","null","resources/maskTrios/BT4B.jpg","null","",NA,NA,NA,NA,""
"image-keyboard-response",56,75458,"0.0-4.14-2.14","xo2uzc5keh8cdno",414,"89.csv","","null","resources/images/coin2.png","null","",NA,NA,NA,NA,""
"image-keyboard-response",57,75818,"0.0-4.15-0.15","xo2uzc5keh8cdno",414,"89.csv","","357.09999999962747","resources/trios/L1T4A3.jpg","38","restless",0.2,0.8,0.4,0.383297823615169,"true"
"image-keyboard-response",58,76223,"0.0-4.15-1.15","xo2uzc5keh8cdno",414,"89.csv","","null","resources/maskTrios/BT4B.jpg","null","",NA,NA,NA,NA,""
"image-keyboard-response",59,77430,"0.0-4.15-2.15","xo2uzc5keh8cdno",414,"89.csv","","null","resources/images/coin2.png","null","",NA,NA,NA,NA,""
"image-keyboard-response",60,77777,"0.0-4.16-0.16","xo2uzc5keh8cdno",414,"89.csv","","344.2000000011176","resources/trios/L1T4A3.jpg","38","restless",0.2,0.8,0.4,0.186437552847595,"true"
"image-keyboard-response",61,78180,"0.0-4.16-1.16","xo2uzc5keh8cdno",414,"89.csv","","null","resources/maskTrios/BT4B.jpg","null","",NA,NA,NA,NA,""
"image-keyboard-response",62,79387,"0.0-4.16-2.16","xo2uzc5keh8cdno",414,"89.csv","","null","resources/images/coin2.png","null","",NA,NA,NA,NA,""
"image-keyboard-response",63,79635,"0.0-4.17-0.17","xo2uzc5keh8cdno",414,"89.csv","","245.30000000074506","resources/trios/L1T4A3.jpg","38","restless",0.2,0.8,0.4,0.0919591251866172,"true"
"image-keyboard-response",64,80042,"0.0-4.17-1.17","xo2uzc5keh8cdno",414,"89.csv","","null","resources/maskTrios/BT4B.jpg","null","",NA,NA,NA,NA,""
"image-keyboard-response",65,81250,"0.0-4.17-2.17","xo2uzc5keh8cdno",414,"89.csv","","null","resources/images/coin2.png","null","",NA,NA,NA,NA,""
"image-keyboard-response",66,81500,"0.0-4.18-0.18","xo2uzc5keh8cdno",414,"89.csv","","247.40000000037253","resources/trios/L1T4A3.jpg","38","restless",0.2,0.8,0.4,0.940149251047433,"false"
"image-keyboard-response",67,81908,"0.0-4.18-1.18","xo2uzc5keh8cdno",414,"89.csv","","null","resources/maskTrios/BT4B.jpg","null","",NA,NA,NA,NA,""
"image-keyboard-response",68,83115,"0.0-4.18-2.18","xo2uzc5keh8cdno",414,"89.csv","","null","resources/images/fishbone.png","null","",NA,NA,NA,NA,""
"image-keyboard-response",69,83421,"0.0-4.19-0.19","xo2uzc5keh8cdno",414,"89.csv","","304","resources/trios/L1T4A3.jpg","39","restless",0.2,0.8,0.4,0.203003629321439,"true"
"image-keyboard-response",70,83828,"0.0-4.19-1.19","xo2uzc5keh8cdno",414,"89.csv","","null","resources/maskTrios/BBA3.jpg","null","",NA,NA,NA,NA,""
"image-keyboard-response",71,85036,"0.0-4.19-2.19","xo2uzc5keh8cdno",414,"89.csv","","null","resources/images/coin2.png","null","",NA,NA,NA,NA,""
"image-keyboard-response",72,85308,"0.0-4.20-0.20","xo2uzc5keh8cdno",414,"89.csv","","270.19999999925494","resources/trios/L1T4A3.jpg","37","restless",0.2,0.8,0.4,0.15086035335927,"true"
"image-keyboard-response",73,85712,"0.0-4.20-1.20","xo2uzc5keh8cdno",414,"89.csv","","null","resources/maskTrios/L1BB.jpg","null","",NA,NA,NA,NA,""
"image-keyboard-response",74,86920,"0.0-4.20-2.20","xo2uzc5keh8cdno",414,"89.csv","","null","resources/images/coin2.png","null","",NA,NA,NA,NA,""
"image-keyboard-response",75,87208,"0.0-4.21-0.21","xo2uzc5keh8cdno",414,"89.csv","","285.5","resources/trios/L1T4A3.jpg","38","restless",0.3,0.8,0.4,0.716231754599643,"true"
"image-keyboard-response",76,87615,"0.0-4.21-1.21","xo2uzc5keh8cdno",414,"89.csv","","null","resources/maskTrios/BT4B.jpg","null","",NA,NA,NA,NA,""
"image-keyboard-response",77,88822,"0.0-4.21-2.21","xo2uzc5keh8cdno",414,"89.csv","","null","resources/images/coin2.png","null","",NA,NA,NA,NA,""
"image-keyboard-response",78,89084,"0.0-4.22-0.22","xo2uzc5keh8cdno",414,"89.csv","","259.40000000037253","resources/trios/L1T4A3.jpg","38","restless",0.3,0.8,0.4,0.690268209642728,"true"
"image-keyboard-response",79,89491,"0.0-4.22-1.22","xo2uzc5keh8cdno",414,"89.csv","","null","resources/maskTrios/BT4B.jpg","null","",NA,NA,NA,NA,""
"image-keyboard-response",80,90700,"0.0-4.22-2.22","xo2uzc5keh8cdno",414,"89.csv","","null","resources/images/coin2.png","null","",NA,NA,NA,NA,""
"image-keyboard-response",81,91073,"0.0-4.23-0.23","xo2uzc5keh8cdno",414,"89.csv","","370.40000000037253","resources/trios/L1T4A3.jpg","38","restless",0.3,0.8,0.4,0.973489418971575,"false"
"image-keyboard-response",82,91481,"0.0-4.23-1.23","xo2uzc5keh8cdno",414,"89.csv","","null","resources/maskTrios/BT4B.jpg","null","",NA,NA,NA,NA,""
"image-keyboard-response",83,92688,"0.0-4.23-2.23","xo2uzc5keh8cdno",414,"89.csv","","null","resources/images/fishbone.png","null","",NA,NA,NA,NA,""
"image-keyboard-response",84,92951,"0.0-4.24-0.24","xo2uzc5keh8cdno",414,"89.csv","","260.5","resources/trios/L1T4A3.jpg","39","restless",0.3,0.8,0.4,0.820012326641267,"false"
"image-keyboard-response",85,93359,"0.0-4.24-1.24","xo2uzc5keh8cdno",414,"89.csv","","null","resources/maskTrios/BBA3.jpg","null","",NA,NA,NA,NA,""
"image-keyboard-response",86,94567,"0.0-4.24-2.24","xo2uzc5keh8cdno",414,"89.csv","","null","resources/images/fishbone.png","null","",NA,NA,NA,NA,""
"image-keyboard-response",87,95025,"0.0-4.25-0.25","xo2uzc5keh8cdno",414,"89.csv","","455.59999999962747","resources/trios/L1T4A3.jpg","37","restless",0.3,0.8,0.4,0.757548902754632,"false"
"image-keyboard-response",88,95433,"0.0-4.25-1.25","xo2uzc5keh8cdno",414,"89.csv","","null","resources/maskTrios/L1BB.jpg","null","",NA,NA,NA,NA,""
"image-keyboard-response",89,96636,"0.0-4.25-2.25","xo2uzc5keh8cdno",414,"89.csv","","null","resources/images/fishbone.png","null","",NA,NA,NA,NA,""
"image-keyboard-response",90,97345,"0.0-4.26-0.26","xo2uzc5keh8cdno",414,"89.csv","","706.8000000007451","resources/trios/L1T4A3.jpg","38","restless",0.3,0.8,0.4,0.663723379195349,"true"
"image-keyboard-response",91,97750,"0.0-4.26-1.26","xo2uzc5keh8cdno",414,"89.csv","","null","resources/maskTrios/BT4B.jpg","null","",NA,NA,NA,NA,""
"image-keyboard-response",92,98958,"0.0-4.26-2.26","xo2uzc5keh8cdno",414,"89.csv","","null","resources/images/coin2.png","null","",NA,NA,NA,NA,""
"image-keyboard-response",93,99243,"0.0-4.27-0.27","xo2uzc5keh8cdno",414,"89.csv","","283","resources/trios/L1T4A3.jpg","38","restless",0.3,0.7,0.4,0.228094437706063,"true"
"image-keyboard-response",94,99647,"0.0-4.27-1.27","xo2uzc5keh8cdno",414,"89.csv","","null","resources/maskTrios/BT4B.jpg","null","",NA,NA,NA,NA,""
"image-keyboard-response",95,100855,"0.0-4.27-2.27","xo2uzc5keh8cdno",414,"89.csv","","null","resources/images/coin2.png","null","",NA,NA,NA,NA,""
"image-keyboard-response",96,101118,"0.0-4.28-0.28","xo2uzc5keh8cdno",414,"89.csv","","260.30000000074506","resources/trios/L1T4A3.jpg","38","restless",0.3,0.7,0.4,0.0715604342890614,"true"
"image-keyboard-response",97,101525,"0.0-4.28-1.28","xo2uzc5keh8cdno",414,"89.csv","","null","resources/maskTrios/BT4B.jpg","null","",NA,NA,NA,NA,""
"image-keyboard-response",98,102732,"0.0-4.28-2.28","xo2uzc5keh8cdno",414,"89.csv","","null","resources/images/coin2.png","null","",NA,NA,NA,NA,""
"image-keyboard-response",99,102908,"0.0-4.29-0.29","xo2uzc5keh8cdno",414,"89.csv","","173.09999999962747","resources/trios/L1T4A3.jpg","38","restless",0.3,0.7,0.4,0.327586821466839,"true"
"image-keyboard-response",100,103316,"0.0-4.29-1.29","xo2uzc5keh8cdno",414,"89.csv","","null","resources/maskTrios/BT4B.jpg","null","",NA,NA,NA,NA,""
"image-keyboard-response",101,104524,"0.0-4.29-2.29","xo2uzc5keh8cdno",414,"89.csv","","null","resources/images/coin2.png","null","",NA,NA,NA,NA,""
"image-keyboard-response",102,104813,"0.0-4.30-0.30","xo2uzc5keh8cdno",414,"89.csv","","286.8999999985099","resources/trios/L1T4A3.jpg","38","restless",0.3,0.7,0.4,0.29571537884517,"true"
"image-keyboard-response",103,105217,"0.0-4.30-1.30","xo2uzc5keh8cdno",414,"89.csv","","null","resources/maskTrios/BT4B.jpg","null","",NA,NA,NA,NA,""
"image-keyboard-response",104,106425,"0.0-4.30-2.30","xo2uzc5keh8cdno",414,"89.csv","","null","resources/images/coin2.png","null","",NA,NA,NA,NA,""
"image-keyboard-response",105,106590,"0.0-4.31-0.31","xo2uzc5keh8cdno",414,"89.csv","","162","resources/trios/L1T4A3.jpg","38","restless",0.3,0.7,0.4,0.310364766933986,"true"
"image-keyboard-response",106,106995,"0.0-4.31-1.31","xo2uzc5keh8cdno",414,"89.csv","","null","resources/maskTrios/BT4B.jpg","null","",NA,NA,NA,NA,""
"image-keyboard-response",107,108202,"0.0-4.31-2.31","xo2uzc5keh8cdno",414,"89.csv","","null","resources/images/coin2.png","null","",NA,NA,NA,NA,""
"image-keyboard-response",108,108396,"0.0-4.32-0.32","xo2uzc5keh8cdno",414,"89.csv","","190.90000000037253","resources/trios/L1T4A3.jpg","38","restless",0.3,0.7,0.4,0.788630691749234,"false"
"image-keyboard-response",109,108803,"0.0-4.32-1.32","xo2uzc5keh8cdno",414,"89.csv","","null","resources/maskTrios/BT4B.jpg","null","",NA,NA,NA,NA,""
"image-keyboard-response",110,110007,"0.0-4.32-2.32","xo2uzc5keh8cdno",414,"89.csv","","null","resources/images/fishbone.png","null","",NA,NA,NA,NA,""
"image-keyboard-response",111,110254,"0.0-4.33-0.33","xo2uzc5keh8cdno",414,"89.csv","","244.59999999962747","resources/trios/L1T4A3.jpg","37","restless",0.3,0.7,0.4,0.356852823761569,"false"
"image-keyboard-response",112,110660,"0.0-4.33-1.33","xo2uzc5keh8cdno",414,"89.csv","","null","resources/maskTrios/L1BB.jpg","null","",NA,NA,NA,NA,""
"image-keyboard-response",113,111868,"0.0-4.33-2.33","xo2uzc5keh8cdno",414,"89.csv","","null","resources/images/fishbone.png","null","",NA,NA,NA,NA,""
"image-keyboard-response",114,112181,"0.0-4.34-0.34","xo2uzc5keh8cdno",414,"89.csv","","310.6000000014901","resources/trios/L1T4A3.jpg","39","restless",0.3,0.7,0.4,0.532204109565267,"false"
"image-keyboard-response",115,112588,"0.0-4.34-1.34","xo2uzc5keh8cdno",414,"89.csv","","null","resources/maskTrios/BBA3.jpg","null","",NA,NA,NA,NA,""
"image-keyboard-response",116,113796,"0.0-4.34-2.34","xo2uzc5keh8cdno",414,"89.csv","","null","resources/images/fishbone.png","null","",NA,NA,NA,NA,""
"image-keyboard-response",117,114071,"0.0-4.35-0.35","xo2uzc5keh8cdno",414,"89.csv","","273.19999999925494","resources/trios/L1T4A3.jpg","38","restless",0.3,0.7,0.4,0.794953331439713,"false"
"image-keyboard-response",118,114478,"0.0-4.35-1.35","xo2uzc5keh8cdno",414,"89.csv","","null","resources/maskTrios/BT4B.jpg","null","",NA,NA,NA,NA,""
"image-keyboard-response",119,115685,"0.0-4.35-2.35","xo2uzc5keh8cdno",414,"89.csv","","null","resources/images/fishbone.png","null","",NA,NA,NA,NA,""
"image-keyboard-response",120,115982,"0.0-4.36-0.36","xo2uzc5keh8cdno",414,"89.csv","","293.90000000037253","resources/trios/L1T4A3.jpg","37","restless",0.3,0.8,0.4,0.885910220201408,"false"
"image-keyboard-response",121,116389,"0.0-4.36-1.36","xo2uzc5keh8cdno",414,"89.csv","","null","resources/maskTrios/L1BB.jpg","null","",NA,NA,NA,NA,""
"image-keyboard-response",122,117594,"0.0-4.36-2.36","xo2uzc5keh8cdno",414,"89.csv","","null","resources/images/fishbone.png","null","",NA,NA,NA,NA,""
"image-keyboard-response",123,117870,"0.0-4.37-0.37","xo2uzc5keh8cdno",414,"89.csv","","274.1000000014901","resources/trios/L1T4A3.jpg","37","restless",0.3,0.7,0.4,0.0738602407441853,"true"
"image-keyboard-response",124,118278,"0.0-4.37-1.37","xo2uzc5keh8cdno",414,"89.csv","","null","resources/maskTrios/L1BB.jpg","null","",NA,NA,NA,NA,""
"image-keyboard-response",125,119486,"0.0-4.37-2.37","xo2uzc5keh8cdno",414,"89.csv","","null","resources/images/coin2.png","null","",NA,NA,NA,NA,""
"image-keyboard-response",126,119726,"0.0-4.38-0.38","xo2uzc5keh8cdno",414,"89.csv","","237.2000000011176","resources/trios/L1T4A3.jpg","37","restless",0.3,0.7,0.4,0.0567193479259964,"true"
"image-keyboard-response",127,120134,"0.0-4.38-1.38","xo2uzc5keh8cdno",414,"89.csv","","null","resources/maskTrios/L1BB.jpg","null","",NA,NA,NA,NA,""
"image-keyboard-response",128,121342,"0.0-4.38-2.38","xo2uzc5keh8cdno",414,"89.csv","","null","resources/images/coin2.png","null","",NA,NA,NA,NA,""
"image-keyboard-response",129,121624,"0.0-4.39-0.39","xo2uzc5keh8cdno",414,"89.csv","","279.40000000037253","resources/trios/L1T4A3.jpg","37","restless",0.2,0.7,0.3,0.764007425562773,"false"
"image-keyboard-response",130,122030,"0.0-4.39-1.39","xo2uzc5keh8cdno",414,"89.csv","","null","resources/maskTrios/L1BB.jpg","null","",NA,NA,NA,NA,""
"image-keyboard-response",131,123237,"0.0-4.39-2.39","xo2uzc5keh8cdno",414,"89.csv","","null","resources/images/fishbone.png","null","",NA,NA,NA,NA,""
"image-keyboard-response",132,123456,"0.0-4.40-0.40","xo2uzc5keh8cdno",414,"89.csv","","216.7000000011176","resources/trios/L1T4A3.jpg","39","restless",0.2,0.6,0.3,0.115856458096885,"true"
"image-keyboard-response",133,123863,"0.0-4.40-1.40","xo2uzc5keh8cdno",414,"89.csv","","null","resources/maskTrios/BBA3.jpg","null","",NA,NA,NA,NA,""
"image-keyboard-response",134,125070,"0.0-4.40-2.40","xo2uzc5keh8cdno",414,"89.csv","","null","resources/images/coin2.png","null","",NA,NA,NA,NA,""
"image-keyboard-response",135,125309,"0.0-4.41-0.41","xo2uzc5keh8cdno",414,"89.csv","","235.90000000037253","resources/trios/L1T4A3.jpg","39","restless",0.2,0.6,0.3,0.10630895837331,"true"
"image-keyboard-response",136,125712,"0.0-4.41-1.41","xo2uzc5keh8cdno",414,"89.csv","","null","resources/maskTrios/BBA3.jpg","null","",NA,NA,NA,NA,""
"image-keyboard-response",137,126921,"0.0-4.41-2.41","xo2uzc5keh8cdno",414,"89.csv","","null","resources/images/coin2.png","null","",NA,NA,NA,NA,""
"image-keyboard-response",138,127161,"0.0-4.42-0.42","xo2uzc5keh8cdno",414,"89.csv","","238","resources/trios/L1T4A3.jpg","39","restless",0.2,0.5,0.3,0.551668274748465,"false"
"image-keyboard-response",139,127569,"0.0-4.42-1.42","xo2uzc5keh8cdno",414,"89.csv","","null","resources/maskTrios/BBA3.jpg","null","",NA,NA,NA,NA,""
"image-keyboard-response",140,128777,"0.0-4.42-2.42","xo2uzc5keh8cdno",414,"89.csv","","null","resources/images/fishbone.png","null","",NA,NA,NA,NA,""
"image-keyboard-response",141,129016,"0.0-4.43-0.43","xo2uzc5keh8cdno",414,"89.csv","","236.7999999988824","resources/trios/L1T4A3.jpg","38","restless",0.2,0.4,0.3,0.855056196439719,"false"
"image-keyboard-response",142,129424,"0.0-4.43-1.43","xo2uzc5keh8cdno",414,"89.csv","","null","resources/maskTrios/BT4B.jpg","null","",NA,NA,NA,NA,""
"image-keyboard-response",143,130631,"0.0-4.43-2.43","xo2uzc5keh8cdno",414,"89.csv","","null","resources/images/fishbone.png","null","",NA,NA,NA,NA,""
"image-keyboard-response",144,130834,"0.0-4.44-0.44","xo2uzc5keh8cdno",414,"89.csv","","200.39999999850988","resources/trios/L1T4A3.jpg","38","restless",0.2,0.3,0.3,0.380539931804709,"false"
"image-keyboard-response",145,131237,"0.0-4.44-1.44","xo2uzc5keh8cdno",414,"89.csv","","null","resources/maskTrios/BT4B.jpg","null","",NA,NA,NA,NA,""
"image-keyboard-response",146,132445,"0.0-4.44-2.44","xo2uzc5keh8cdno",414,"89.csv","","null","resources/images/fishbone.png","null","",NA,NA,NA,NA,""
"image-keyboard-response",147,132749,"0.0-4.45-0.45","xo2uzc5keh8cdno",414,"89.csv","","301.40000000037253","resources/trios/L1T4A3.jpg","37","restless",0.2,0.3,0.4,0.632688598752927,"false"
"image-keyboard-response",148,133152,"0.0-4.45-1.45","xo2uzc5keh8cdno",414,"89.csv","","null","resources/maskTrios/L1BB.jpg","null","",NA,NA,NA,NA,""
"image-keyboard-response",149,134359,"0.0-4.45-2.45","xo2uzc5keh8cdno",414,"89.csv","","null","resources/images/fishbone.png","null","",NA,NA,NA,NA,""
"image-keyboard-response",150,134632,"0.0-4.46-0.46","xo2uzc5keh8cdno",414,"89.csv","","270.59999999962747","resources/trios/L1T4A3.jpg","37","restless",0.2,0.3,0.4,0.637899678844986,"false"
"image-keyboard-response",151,135036,"0.0-4.46-1.46","xo2uzc5keh8cdno",414,"89.csv","","null","resources/maskTrios/L1BB.jpg","null","",NA,NA,NA,NA,""
"image-keyboard-response",152,136243,"0.0-4.46-2.46","xo2uzc5keh8cdno",414,"89.csv","","null","resources/images/fishbone.png","null","",NA,NA,NA,NA,""
"image-keyboard-response",153,136506,"0.0-4.47-0.47","xo2uzc5keh8cdno",414,"89.csv","","260.7999999988824","resources/trios/L1T4A3.jpg","39","restless",0.2,0.3,0.4,0.629715150095863,"false"
"image-keyboard-response",154,136912,"0.0-4.47-1.47","xo2uzc5keh8cdno",414,"89.csv","","null","resources/maskTrios/BBA3.jpg","null","",NA,NA,NA,NA,""
"image-keyboard-response",155,138120,"0.0-4.47-2.47","xo2uzc5keh8cdno",414,"89.csv","","null","resources/images/fishbone.png","null","",NA,NA,NA,NA,""
"image-keyboard-response",156,138283,"0.0-4.48-0.48","xo2uzc5keh8cdno",414,"89.csv","","159.90000000037253","resources/trios/L1T4A3.jpg","39","restless",0.2,0.3,0.4,0.877726533265711,"false"
"image-keyboard-response",157,138690,"0.0-4.48-1.48","xo2uzc5keh8cdno",414,"89.csv","","null","resources/maskTrios/BBA3.jpg","null","",NA,NA,NA,NA,""
"image-keyboard-response",158,139896,"0.0-4.48-2.48","xo2uzc5keh8cdno",414,"89.csv","","null","resources/images/fishbone.png","null","",NA,NA,NA,NA,""
"image-keyboard-response",159,140050,"0.0-4.49-0.49","xo2uzc5keh8cdno",414,"89.csv","","151.30000000074506","resources/trios/L1T4A3.jpg","39","restless",0.2,0.3,0.4,0.0139865003375306,"true"
"image-keyboard-response",160,140456,"0.0-4.49-1.49","xo2uzc5keh8cdno",414,"89.csv","","null","resources/maskTrios/BBA3.jpg","null","",NA,NA,NA,NA,""
"image-keyboard-response",161,141664,"0.0-4.49-2.49","xo2uzc5keh8cdno",414,"89.csv","","null","resources/images/coin2.png","null","",NA,NA,NA,NA,""
"image-keyboard-response",162,141934,"0.0-4.50-0.50","xo2uzc5keh8cdno",414,"89.csv","","267","resources/trios/L1T4A3.jpg","39","restless",0.2,0.3,0.4,0.973858911679206,"false"
"image-keyboard-response",163,142340,"0.0-4.50-1.50","xo2uzc5keh8cdno",414,"89.csv","","null","resources/maskTrios/BBA3.jpg","null","",NA,NA,NA,NA,""
"image-keyboard-response",164,143548,"0.0-4.50-2.50","xo2uzc5keh8cdno",414,"89.csv","","null","resources/images/fishbone.png","null","",NA,NA,NA,NA,""
"image-keyboard-response",165,143806,"0.0-4.51-0.51","xo2uzc5keh8cdno",414,"89.csv","","256.59999999962747","resources/trios/L1T4A3.jpg","38","restless",0.2,0.3,0.5,0.15925425066013,"true"
"image-keyboard-response",166,144209,"0.0-4.51-1.51","xo2uzc5keh8cdno",414,"89.csv","","null","resources/maskTrios/BT4B.jpg","null","",NA,NA,NA,NA,""
"image-keyboard-response",167,145417,"0.0-4.51-2.51","xo2uzc5keh8cdno",414,"89.csv","","null","resources/images/coin2.png","null","",NA,NA,NA,NA,""
"image-keyboard-response",168,145700,"0.0-4.52-0.52","xo2uzc5keh8cdno",414,"89.csv","","280.30000000074506","resources/trios/L1T4A3.jpg","38","restless",0.2,0.3,0.6,0.6522223573696,"false"
"image-keyboard-response",169,146106,"0.0-4.52-1.52","xo2uzc5keh8cdno",414,"89.csv","","null","resources/maskTrios/BT4B.jpg","null","",NA,NA,NA,NA,""
"image-keyboard-response",170,147314,"0.0-4.52-2.52","xo2uzc5keh8cdno",414,"89.csv","","null","resources/images/fishbone.png","null","",NA,NA,NA,NA,""
"image-keyboard-response",171,147583,"0.0-4.53-0.53","xo2uzc5keh8cdno",414,"89.csv","","266.69999999925494","resources/trios/L1T4A3.jpg","38","restless",0.2,0.4,0.6,0.421538994048905,"false"
"image-keyboard-response",172,147990,"0.0-4.53-1.53","xo2uzc5keh8cdno",414,"89.csv","","null","resources/maskTrios/BT4B.jpg","null","",NA,NA,NA,NA,""
"image-keyboard-response",173,149197,"0.0-4.53-2.53","xo2uzc5keh8cdno",414,"89.csv","","null","resources/images/fishbone.png","null","",NA,NA,NA,NA,""
"image-keyboard-response",174,149413,"0.0-4.54-0.54","xo2uzc5keh8cdno",414,"89.csv","","212.90000000037253","resources/trios/L1T4A3.jpg","39","restless",0.2,0.4,0.6,0.34005719188218,"true"
"image-keyboard-response",175,149821,"0.0-4.54-1.54","xo2uzc5keh8cdno",414,"89.csv","","null","resources/maskTrios/BBA3.jpg","null","",NA,NA,NA,NA,""
"image-keyboard-response",176,151027,"0.0-4.54-2.54","xo2uzc5keh8cdno",414,"89.csv","","null","resources/images/coin2.png","null","",NA,NA,NA,NA,""
"image-keyboard-response",177,151229,"0.0-4.55-0.55","xo2uzc5keh8cdno",414,"89.csv","","199.5","resources/trios/L1T4A3.jpg","39","restless",0.2,0.4,0.7,0.708633730977577,"false"
"image-keyboard-response",178,151636,"0.0-4.55-1.55","xo2uzc5keh8cdno",414,"89.csv","","null","resources/maskTrios/BBA3.jpg","null","",NA,NA,NA,NA,""
"image-keyboard-response",179,152841,"0.0-4.55-2.55","xo2uzc5keh8cdno",414,"89.csv","","null","resources/images/fishbone.png","null","",NA,NA,NA,NA,""
"image-keyboard-response",180,153123,"0.0-4.56-0.56","xo2uzc5keh8cdno",414,"89.csv","","279.3999999985099","resources/trios/L1T4A3.jpg","39","restless",0.2,0.4,0.7,0.368654711976551,"true"
"image-keyboard-response",181,153530,"0.0-4.56-1.56","xo2uzc5keh8cdno",414,"89.csv","","null","resources/maskTrios/BBA3.jpg","null","",NA,NA,NA,NA,""
"image-keyboard-response",182,154736,"0.0-4.56-2.56","xo2uzc5keh8cdno",414,"89.csv","","null","resources/images/coin2.png","null","",NA,NA,NA,NA,""
"image-keyboard-response",183,155019,"0.0-4.57-0.57","xo2uzc5keh8cdno",414,"89.csv","","280.3999999985099","resources/trios/L1T4A3.jpg","37","restless",0.2,0.3,0.7,0.292189754402045,"false"
"image-keyboard-response",184,155423,"0.0-4.57-1.57","xo2uzc5keh8cdno",414,"89.csv","","null","resources/maskTrios/L1BB.jpg","null","",NA,NA,NA,NA,""
"image-keyboard-response",185,156630,"0.0-4.57-2.57","xo2uzc5keh8cdno",414,"89.csv","","null","resources/images/fishbone.png","null","",NA,NA,NA,NA,""
"image-keyboard-response",186,156776,"0.0-4.58-0.58","xo2uzc5keh8cdno",414,"89.csv","","144.2999999988824","resources/trios/L1T4A3.jpg","37","restless",0.2,0.3,0.7,0.470329582919994,"false"
"image-keyboard-response",187,157178,"0.0-4.58-1.58","xo2uzc5keh8cdno",414,"89.csv","","null","resources/maskTrios/L1BB.jpg","null","",NA,NA,NA,NA,""
"image-keyboard-response",188,158386,"0.0-4.58-2.58","xo2uzc5keh8cdno",414,"89.csv","","null","resources/images/fishbone.png","null","",NA,NA,NA,NA,""
"image-keyboard-response",189,158615,"0.0-4.59-0.59","xo2uzc5keh8cdno",414,"89.csv","","226.30000000074506","resources/trios/L1T4A3.jpg","37","restless",0.2,0.3,0.7,0.677016510792516,"false"
"image-keyboard-response",190,159022,"0.0-4.59-1.59","xo2uzc5keh8cdno",414,"89.csv","","null","resources/maskTrios/L1BB.jpg","null","",NA,NA,NA,NA,""
"image-keyboard-response",191,160227,"0.0-4.59-2.59","xo2uzc5keh8cdno",414,"89.csv","","null","resources/images/fishbone.png","null","",NA,NA,NA,NA,""
"image-keyboard-response",192,160318,"0.0-4.60-0.60","xo2uzc5keh8cdno",414,"89.csv","","88","resources/trios/L1T4A3.jpg","37","restless",0.2,0.3,0.7,0.35200139993976,"false"
"image-keyboard-response",193,160724,"0.0-4.60-1.60","xo2uzc5keh8cdno",414,"89.csv","","null","resources/maskTrios/L1BB.jpg","null","",NA,NA,NA,NA,""
"image-keyboard-response",194,161931,"0.0-4.60-2.60","xo2uzc5keh8cdno",414,"89.csv","","null","resources/images/fishbone.png","null","",NA,NA,NA,NA,""
"image-keyboard-response",195,162099,"0.0-4.61-0.61","xo2uzc5keh8cdno",414,"89.csv","","165.30000000074506","resources/trios/L1T4A3.jpg","38","restless",0.2,0.3,0.7,0.230959145934396,"true"
"image-keyboard-response",196,162507,"0.0-4.61-1.61","xo2uzc5keh8cdno",414,"89.csv","","null","resources/maskTrios/BT4B.jpg","null","",NA,NA,NA,NA,""
"image-keyboard-response",197,163710,"0.0-4.61-2.61","xo2uzc5keh8cdno",414,"89.csv","","null","resources/images/coin2.png","null","",NA,NA,NA,NA,""
"image-keyboard-response",198,163852,"0.0-4.62-0.62","xo2uzc5keh8cdno",414,"89.csv","","140.2000000011176","resources/trios/L1T4A3.jpg","38","restless",0.2,0.3,0.7,0.912938342926866,"false"
"image-keyboard-response",199,164260,"0.0-4.62-1.62","xo2uzc5keh8cdno",414,"89.csv","","null","resources/maskTrios/BT4B.jpg","null","",NA,NA,NA,NA,""
"image-keyboard-response",200,165464,"0.0-4.62-2.62","xo2uzc5keh8cdno",414,"89.csv","","null","resources/images/fishbone.png","null","",NA,NA,NA,NA,""
"image-keyboard-response",201,165721,"0.0-4.63-0.63","xo2uzc5keh8cdno",414,"89.csv","","254.19999999925494","resources/trios/L1T4A3.jpg","39","restless",0.2,0.3,0.7,0.476916351463355,"true"
"image-keyboard-response",202,166125,"0.0-4.63-1.63","xo2uzc5keh8cdno",414,"89.csv","","null","resources/maskTrios/BBA3.jpg","null","",NA,NA,NA,NA,""
"image-keyboard-response",203,167333,"0.0-4.63-2.63","xo2uzc5keh8cdno",414,"89.csv","","null","resources/images/coin2.png","null","",NA,NA,NA,NA,""
"image-keyboard-response",204,167342,"0.0-4.64-0.64","xo2uzc5keh8cdno",414,"89.csv","","6.400000000372529","resources/trios/L1T4A3.jpg","39","restless",0.2,0.3,0.7,0.654634078860144,"true"
"image-keyboard-response",205,167743,"0.0-4.64-1.64","xo2uzc5keh8cdno",414,"89.csv","","null","resources/maskTrios/BBA3.jpg","null","",NA,NA,NA,NA,""
"image-keyboard-response",206,168951,"0.0-4.64-2.64","xo2uzc5keh8cdno",414,"89.csv","","null","resources/images/coin2.png","null","",NA,NA,NA,NA,""
"image-keyboard-response",207,169182,"0.0-4.65-0.65","xo2uzc5keh8cdno",414,"89.csv","","228","resources/trios/L1T4A3.jpg","39","restless",0.2,0.3,0.7,0.342924515669396,"true"
"image-keyboard-response",208,169590,"0.0-4.65-1.65","xo2uzc5keh8cdno",414,"89.csv","","null","resources/maskTrios/BBA3.jpg","null","",NA,NA,NA,NA,""
"image-keyboard-response",209,170797,"0.0-4.65-2.65","xo2uzc5keh8cdno",414,"89.csv","","null","resources/images/coin2.png","null","",NA,NA,NA,NA,""
"image-keyboard-response",210,171013,"0.0-4.66-0.66","xo2uzc5keh8cdno",414,"89.csv","","213.09999999962747","resources/trios/L1T4A3.jpg","39","restless",0.2,0.3,0.7,0.161478259910726,"true"
"image-keyboard-response",211,171418,"0.0-4.66-1.66","xo2uzc5keh8cdno",414,"89.csv","","null","resources/maskTrios/BBA3.jpg","null","",NA,NA,NA,NA,""
"image-keyboard-response",212,172626,"0.0-4.66-2.66","xo2uzc5keh8cdno",414,"89.csv","","null","resources/images/coin2.png","null","",NA,NA,NA,NA,""
"image-keyboard-response",213,172873,"0.0-4.67-0.67","xo2uzc5keh8cdno",414,"89.csv","","244.60000000149012","resources/trios/L1T4A3.jpg","39","restless",0.2,0.3,0.7,0.707472370579287,"false"
"image-keyboard-response",214,173281,"0.0-4.67-1.67","xo2uzc5keh8cdno",414,"89.csv","","null","resources/maskTrios/BBA3.jpg","null","",NA,NA,NA,NA,""
"image-keyboard-response",215,174487,"0.0-4.67-2.67","xo2uzc5keh8cdno",414,"89.csv","","null","resources/images/fishbone.png","null","",NA,NA,NA,NA,""
"image-keyboard-response",216,174721,"0.0-4.68-0.68","xo2uzc5keh8cdno",414,"89.csv","","231.19999999925494","resources/trios/L1T4A3.jpg","38","restless",0.2,0.3,0.7,0.544733602106946,"false"
"image-keyboard-response",217,175127,"0.0-4.68-1.68","xo2uzc5keh8cdno",414,"89.csv","","null","resources/maskTrios/BT4B.jpg","null","",NA,NA,NA,NA,""
"image-keyboard-response",218,176334,"0.0-4.68-2.68","xo2uzc5keh8cdno",414,"89.csv","","null","resources/images/fishbone.png","null","",NA,NA,NA,NA,""
"image-keyboard-response",219,176953,"0.0-4.69-0.69","xo2uzc5keh8cdno",414,"89.csv","","617.7000000011176","resources/trios/L1T4A3.jpg","38","restless",0.3,0.3,0.7,0.00647038318140591,"true"
"image-keyboard-response",220,177362,"0.0-4.69-1.69","xo2uzc5keh8cdno",414,"89.csv","","null","resources/maskTrios/BT4B.jpg","null","",NA,NA,NA,NA,""
"image-keyboard-response",221,178570,"0.0-4.69-2.69","xo2uzc5keh8cdno",414,"89.csv","","null","resources/images/coin2.png","null","",NA,NA,NA,NA,""
"image-keyboard-response",222,178884,"0.0-4.70-0.70","xo2uzc5keh8cdno",414,"89.csv","","311.1000000014901","resources/trios/L1T4A3.jpg","38","restless",0.3,0.3,0.7,0.606968585877305,"false"
"image-keyboard-response",223,179289,"0.0-4.70-1.70","xo2uzc5keh8cdno",414,"89.csv","","null","resources/maskTrios/BT4B.jpg","null","",NA,NA,NA,NA,""
"image-keyboard-response",224,180497,"0.0-4.70-2.70","xo2uzc5keh8cdno",414,"89.csv","","null","resources/images/fishbone.png","null","",NA,NA,NA,NA,""
"image-keyboard-response",225,180733,"0.0-4.71-0.71","xo2uzc5keh8cdno",414,"89.csv","","233.69999999925494","resources/trios/L1T4A3.jpg","38","restless",0.3,0.3,0.7,0.948952708811901,"false"
"image-keyboard-response",226,181140,"0.0-4.71-1.71","xo2uzc5keh8cdno",414,"89.csv","","null","resources/maskTrios/BT4B.jpg","null","",NA,NA,NA,NA,""
"image-keyboard-response",227,182345,"0.0-4.71-2.71","xo2uzc5keh8cdno",414,"89.csv","","null","resources/images/fishbone.png","null","",NA,NA,NA,NA,""
"image-keyboard-response",228,182697,"0.0-4.72-0.72","xo2uzc5keh8cdno",414,"89.csv","","349.5","resources/trios/L1T4A3.jpg","37","restless",0.3,0.3,0.7,0.776091995425893,"false"
"image-keyboard-response",229,183104,"0.0-4.72-1.72","xo2uzc5keh8cdno",414,"89.csv","","null","resources/maskTrios/L1BB.jpg","null","",NA,NA,NA,NA,""
"image-keyboard-response",230,184311,"0.0-4.72-2.72","xo2uzc5keh8cdno",414,"89.csv","","null","resources/images/fishbone.png","null","",NA,NA,NA,NA,""
"image-keyboard-response",231,184431,"0.0-4.73-0.73","xo2uzc5keh8cdno",414,"89.csv","","117.19999999925494","resources/trios/L1T4A3.jpg","37","restless",0.3,0.3,0.7,0.972798159198908,"false"
"image-keyboard-response",232,184839,"0.0-4.73-1.73","xo2uzc5keh8cdno",414,"89.csv","","null","resources/maskTrios/L1BB.jpg","null","",NA,NA,NA,NA,""
"image-keyboard-response",233,186042,"0.0-4.73-2.73","xo2uzc5keh8cdno",414,"89.csv","","null","resources/images/fishbone.png","null","",NA,NA,NA,NA,""
"image-keyboard-response",234,186243,"0.0-4.74-0.74","xo2uzc5keh8cdno",414,"89.csv","","198.60000000149012","resources/trios/L1T4A3.jpg","37","restless",0.4,0.3,0.7,0.591734963845978,"false"
"image-keyboard-response",235,186649,"0.0-4.74-1.74","xo2uzc5keh8cdno",414,"89.csv","","null","resources/maskTrios/L1BB.jpg","null","",NA,NA,NA,NA,""
"image-keyboard-response",236,187856,"0.0-4.74-2.74","xo2uzc5keh8cdno",414,"89.csv","","null","resources/images/fishbone.png","null","",NA,NA,NA,NA,""
"image-keyboard-response",237,188083,"0.0-4.75-0.75","xo2uzc5keh8cdno",414,"89.csv","","223.80000000074506","resources/trios/L1T4A3.jpg","37","restless",0.4,0.3,0.7,0.306489481773699,"true"
"image-keyboard-response",238,188489,"0.0-4.75-1.75","xo2uzc5keh8cdno",414,"89.csv","","null","resources/maskTrios/L1BB.jpg","null","",NA,NA,NA,NA,""
"image-keyboard-response",239,189697,"0.0-4.75-2.75","xo2uzc5keh8cdno",414,"89.csv","","null","resources/images/coin2.png","null","",NA,NA,NA,NA,""
"image-keyboard-response",240,189933,"0.0-4.76-0.76","xo2uzc5keh8cdno",414,"89.csv","","233.5","resources/trios/L1T4A3.jpg","37","restless",0.4,0.3,0.7,0.903368099830178,"false"
"image-keyboard-response",241,190340,"0.0-4.76-1.76","xo2uzc5keh8cdno",414,"89.csv","","null","resources/maskTrios/L1BB.jpg","null","",NA,NA,NA,NA,""
"image-keyboard-response",242,191547,"0.0-4.76-2.76","xo2uzc5keh8cdno",414,"89.csv","","null","resources/images/fishbone.png","null","",NA,NA,NA,NA,""
"image-keyboard-response",243,191736,"0.0-4.77-0.77","xo2uzc5keh8cdno",414,"89.csv","","186.5","resources/trios/L1T4A3.jpg","39","restless",0.4,0.3,0.7,0.374010351145235,"true"
"image-keyboard-response",244,192145,"0.0-4.77-1.77","xo2uzc5keh8cdno",414,"89.csv","","null","resources/maskTrios/BBA3.jpg","null","",NA,NA,NA,NA,""
"image-keyboard-response",245,193352,"0.0-4.77-2.77","xo2uzc5keh8cdno",414,"89.csv","","null","resources/images/coin2.png","null","",NA,NA,NA,NA,""
"image-keyboard-response",246,193595,"0.0-4.78-0.78","xo2uzc5keh8cdno",414,"89.csv","","240.30000000074506","resources/trios/L1T4A3.jpg","39","restless",0.4,0.3,0.7,0.523055214282176,"true"
"image-keyboard-response",247,194003,"0.0-4.78-1.78","xo2uzc5keh8cdno",414,"89.csv","","null","resources/maskTrios/BBA3.jpg","null","",NA,NA,NA,NA,""
"image-keyboard-response",248,195210,"0.0-4.78-2.78","xo2uzc5keh8cdno",414,"89.csv","","null","resources/images/coin2.png","null","",NA,NA,NA,NA,""
"image-keyboard-response",249,195486,"0.0-4.79-0.79","xo2uzc5keh8cdno",414,"89.csv","","273.40000000037253","resources/trios/L1T4A3.jpg","39","restless",0.4,0.3,0.7,0.942831637942009,"false"
"image-keyboard-response",250,195891,"0.0-4.79-1.79","xo2uzc5keh8cdno",414,"89.csv","","null","resources/maskTrios/BBA3.jpg","null","",NA,NA,NA,NA,""
"image-keyboard-response",251,197099,"0.0-4.79-2.79","xo2uzc5keh8cdno",414,"89.csv","","null","resources/images/fishbone.png","null","",NA,NA,NA,NA,""
"image-keyboard-response",252,197360,"0.0-4.80-0.80","xo2uzc5keh8cdno",414,"89.csv","","258.59999999962747","resources/trios/L1T4A3.jpg","39","restless",0.4,0.3,0.8,0.210692157420177,"true"
"image-keyboard-response",253,197766,"0.0-4.80-1.80","xo2uzc5keh8cdno",414,"89.csv","","null","resources/maskTrios/BBA3.jpg","null","",NA,NA,NA,NA,""
"image-keyboard-response",254,198974,"0.0-4.80-2.80","xo2uzc5keh8cdno",414,"89.csv","","null","resources/images/coin2.png","null","",NA,NA,NA,NA,""
"image-keyboard-response",255,199216,"0.0-4.81-0.81","xo2uzc5keh8cdno",414,"89.csv","","239.19999999925494","resources/trios/L1T4A3.jpg","39","restless",0.4,0.3,0.8,0.800126522756653,"false"
"image-keyboard-response",256,199622,"0.0-4.81-1.81","xo2uzc5keh8cdno",414,"89.csv","","null","resources/maskTrios/BBA3.jpg","null","",NA,NA,NA,NA,""
"image-keyboard-response",257,200830,"0.0-4.81-2.81","xo2uzc5keh8cdno",414,"89.csv","","null","resources/images/fishbone.png","null","",NA,NA,NA,NA,""
"image-keyboard-response",258,201016,"0.0-4.82-0.82","xo2uzc5keh8cdno",414,"89.csv","","183.40000000037253","resources/trios/L1T4A3.jpg","39","restless",0.4,0.3,0.8,0.191162622131822,"true"
"image-keyboard-response",259,201420,"0.0-4.82-1.82","xo2uzc5keh8cdno",414,"89.csv","","null","resources/maskTrios/BBA3.jpg","null","",NA,NA,NA,NA,""
"image-keyboard-response",260,202628,"0.0-4.82-2.82","xo2uzc5keh8cdno",414,"89.csv","","null","resources/images/coin2.png","null","",NA,NA,NA,NA,""
"image-keyboard-response",261,202902,"0.0-4.83-0.83","xo2uzc5keh8cdno",414,"89.csv","","272","resources/trios/L1T4A3.jpg","39","restless",0.4,0.3,0.9,0.670600785538312,"true"
"image-keyboard-response",262,203309,"0.0-4.83-1.83","xo2uzc5keh8cdno",414,"89.csv","","null","resources/maskTrios/BBA3.jpg","null","",NA,NA,NA,NA,""
"image-keyboard-response",263,204517,"0.0-4.83-2.83","xo2uzc5keh8cdno",414,"89.csv","","null","resources/images/coin2.png","null","",NA,NA,NA,NA,""
"image-keyboard-response",264,204770,"0.0-4.84-0.84","xo2uzc5keh8cdno",414,"89.csv","","250.69999999925494","resources/trios/L1T4A3.jpg","39","restless",0.4,0.3,0.9,0.254168516179586,"true"
"image-keyboard-response",265,205174,"0.0-4.84-1.84","xo2uzc5keh8cdno",414,"89.csv","","null","resources/maskTrios/BBA3.jpg","null","",NA,NA,NA,NA,""
"image-keyboard-response",266,206378,"0.0-4.84-2.84","xo2uzc5keh8cdno",414,"89.csv","","null","resources/images/coin2.png","null","",NA,NA,NA,NA,""
"image-keyboard-response",267,206624,"0.0-4.85-0.85","xo2uzc5keh8cdno",414,"89.csv","","242.69999999925494","resources/trios/L1T4A3.jpg","39","restless",0.4,0.3,0.9,0.351614962395222,"true"
"image-keyboard-response",268,207029,"0.0-4.85-1.85","xo2uzc5keh8cdno",414,"89.csv","","null","resources/maskTrios/BBA3.jpg","null","",NA,NA,NA,NA,""
"image-keyboard-response",269,208237,"0.0-4.85-2.85","xo2uzc5keh8cdno",414,"89.csv","","null","resources/images/coin2.png","null","",NA,NA,NA,NA,""
"image-keyboard-response",270,208448,"0.0-4.86-0.86","xo2uzc5keh8cdno",414,"89.csv","","208.59999999962747","resources/trios/L1T4A3.jpg","39","restless",0.4,0.3,0.9,0.0732359511628056,"true"
"image-keyboard-response",271,208852,"0.0-4.86-1.86","xo2uzc5keh8cdno",414,"89.csv","","null","resources/maskTrios/BBA3.jpg","null","",NA,NA,NA,NA,""
"image-keyboard-response",272,210060,"0.0-4.86-2.86","xo2uzc5keh8cdno",414,"89.csv","","null","resources/images/coin2.png","null","",NA,NA,NA,NA,""
"image-keyboard-response",273,210305,"0.0-4.87-0.87","xo2uzc5keh8cdno",414,"89.csv","","242","resources/trios/L1T4A3.jpg","39","restless",0.4,0.3,0.9,0.999470378072036,"false"
"image-keyboard-response",274,210709,"0.0-4.87-1.87","xo2uzc5keh8cdno",414,"89.csv","","null","resources/maskTrios/BBA3.jpg","null","",NA,NA,NA,NA,""
"image-keyboard-response",275,211916,"0.0-4.87-2.87","xo2uzc5keh8cdno",414,"89.csv","","null","resources/images/fishbone.png","null","",NA,NA,NA,NA,""
"image-keyboard-response",276,212208,"0.0-4.88-0.88","xo2uzc5keh8cdno",414,"89.csv","","289.1000000014901","resources/trios/L1T4A3.jpg","39","restless",0.4,0.3,0.9,0.222272844340328,"true"
"image-keyboard-response",277,212615,"0.0-4.88-1.88","xo2uzc5keh8cdno",414,"89.csv","","null","resources/maskTrios/BBA3.jpg","null","",NA,NA,NA,NA,""
"image-keyboard-response",278,213822,"0.0-4.88-2.88","xo2uzc5keh8cdno",414,"89.csv","","null","resources/images/coin2.png","null","",NA,NA,NA,NA,""
"image-keyboard-response",279,214081,"0.0-4.89-0.89","xo2uzc5keh8cdno",414,"89.csv","","255.80000000074506","resources/trios/L1T4A3.jpg","39","restless",0.4,0.3,0.9,0.9035932724241,"false"
"image-keyboard-response",280,214489,"0.0-4.89-1.89","xo2uzc5keh8cdno",414,"89.csv","","null","resources/maskTrios/BBA3.jpg","null","",NA,NA,NA,NA,""
"image-keyboard-response",281,215697,"0.0-4.89-2.89","xo2uzc5keh8cdno",414,"89.csv","","null","resources/images/fishbone.png","null","",NA,NA,NA,NA,""
"image-keyboard-response",282,215950,"0.0-4.90-0.90","xo2uzc5keh8cdno",414,"89.csv","","249.90000000037253","resources/trios/L1T4A3.jpg","39","restless",0.4,0.2,0.9,0.841393013721905,"true"
"image-keyboard-response",283,216355,"0.0-4.90-1.90","xo2uzc5keh8cdno",414,"89.csv","","null","resources/maskTrios/BBA3.jpg","null","",NA,NA,NA,NA,""
"image-keyboard-response",284,217563,"0.0-4.90-2.90","xo2uzc5keh8cdno",414,"89.csv","","null","resources/images/coin2.png","null","",NA,NA,NA,NA,""
"image-keyboard-response",285,218046,"0.0-4.91-0.91","xo2uzc5keh8cdno",414,"89.csv","","480.59999999962747","resources/trios/L1T4A3.jpg","39","restless",0.4,0.2,0.8,0.951068539247019,"false"
"image-keyboard-response",286,218458,"0.0-4.91-1.91","xo2uzc5keh8cdno",414,"89.csv","","null","resources/maskTrios/BBA3.jpg","null","",NA,NA,NA,NA,""
"image-keyboard-response",287,219663,"0.0-4.91-2.91","xo2uzc5keh8cdno",414,"89.csv","","null","resources/images/fishbone.png","null","",NA,NA,NA,NA,""
"image-keyboard-response",288,220339,"0.0-4.92-0.92","xo2uzc5keh8cdno",414,"89.csv","","673.9000000003725","resources/trios/L1T4A3.jpg","39","restless",0.4,0.2,0.8,0.00783418085789034,"true"
"image-keyboard-response",289,220745,"0.0-4.92-1.92","xo2uzc5keh8cdno",414,"89.csv","","null","resources/maskTrios/BBA3.jpg","null","",NA,NA,NA,NA,""
"image-keyboard-response",290,221953,"0.0-4.92-2.92","xo2uzc5keh8cdno",414,"89.csv","","null","resources/images/coin2.png","null","",NA,NA,NA,NA,""
"image-keyboard-response",291,222265,"0.0-4.93-0.93","xo2uzc5keh8cdno",414,"89.csv","","309.59999999962747","resources/trios/L1T4A3.jpg","39","restless",0.4,0.2,0.8,0.0217850831536304,"true"
"image-keyboard-response",292,222668,"0.0-4.93-1.93","xo2uzc5keh8cdno",414,"89.csv","","null","resources/maskTrios/BBA3.jpg","null","",NA,NA,NA,NA,""
"image-keyboard-response",293,223876,"0.0-4.93-2.93","xo2uzc5keh8cdno",414,"89.csv","","null","resources/images/coin2.png","null","",NA,NA,NA,NA,""
"image-keyboard-response",294,224181,"0.0-4.94-0.94","xo2uzc5keh8cdno",414,"89.csv","","302.40000000037253","resources/trios/L1T4A3.jpg","39","restless",0.4,0.2,0.8,0.098256456542247,"true"
"image-keyboard-response",295,224588,"0.0-4.94-1.94","xo2uzc5keh8cdno",414,"89.csv","","null","resources/maskTrios/BBA3.jpg","null","",NA,NA,NA,NA,""
"image-keyboard-response",296,225795,"0.0-4.94-2.94","xo2uzc5keh8cdno",414,"89.csv","","null","resources/images/coin2.png","null","",NA,NA,NA,NA,""
"image-keyboard-response",297,226070,"0.0-4.95-0.95","xo2uzc5keh8cdno",414,"89.csv","","272.8999999985099","resources/trios/L1T4A3.jpg","39","restless",0.4,0.2,0.8,0.251733314897252,"true"
"image-keyboard-response",298,226478,"0.0-4.95-1.95","xo2uzc5keh8cdno",414,"89.csv","","null","resources/maskTrios/BBA3.jpg","null","",NA,NA,NA,NA,""
"image-keyboard-response",299,227685,"0.0-4.95-2.95","xo2uzc5keh8cdno",414,"89.csv","","null","resources/images/coin2.png","null","",NA,NA,NA,NA,""
"image-keyboard-response",300,227782,"0.0-4.96-0.96","xo2uzc5keh8cdno",414,"89.csv","","94.69999999925494","resources/trios/L1T4A3.jpg","39","restless",0.4,0.2,0.8,0.0977155058259127,"true"
"image-keyboard-response",301,228189,"0.0-4.96-1.96","xo2uzc5keh8cdno",414,"89.csv","","null","resources/maskTrios/BBA3.jpg","null","",NA,NA,NA,NA,""
"image-keyboard-response",302,229396,"0.0-4.96-2.96","xo2uzc5keh8cdno",414,"89.csv","","null","resources/images/coin2.png","null","",NA,NA,NA,NA,""
"image-keyboard-response",303,229616,"0.0-4.97-0.97","xo2uzc5keh8cdno",414,"89.csv","","216.60000000149012","resources/trios/L1T4A3.jpg","39","restless",0.4,0.2,0.8,0.288927759108645,"true"
"image-keyboard-response",304,230023,"0.0-4.97-1.97","xo2uzc5keh8cdno",414,"89.csv","","null","resources/maskTrios/BBA3.jpg","null","",NA,NA,NA,NA,""
"image-keyboard-response",305,231229,"0.0-4.97-2.97","xo2uzc5keh8cdno",414,"89.csv","","null","resources/images/coin2.png","null","",NA,NA,NA,NA,""
"image-keyboard-response",306,231477,"0.0-4.98-0.98","xo2uzc5keh8cdno",414,"89.csv","","245.09999999962747","resources/trios/L1T4A3.jpg","39","restless",0.4,0.2,0.8,0.264169655898228,"true"
"image-keyboard-response",307,231885,"0.0-4.98-1.98","xo2uzc5keh8cdno",414,"89.csv","","null","resources/maskTrios/BBA3.jpg","null","",NA,NA,NA,NA,""
"image-keyboard-response",308,233093,"0.0-4.98-2.98","xo2uzc5keh8cdno",414,"89.csv","","null","resources/images/coin2.png","null","",NA,NA,NA,NA,""
"image-keyboard-response",309,233374,"0.0-4.99-0.99","xo2uzc5keh8cdno",414,"89.csv","","278.3999999985099","resources/trios/L1T4A3.jpg","39","restless",0.3,0.2,0.8,0.603674934895082,"true"
"image-keyboard-response",310,233780,"0.0-4.99-1.99","xo2uzc5keh8cdno",414,"89.csv","","null","resources/maskTrios/BBA3.jpg","null","",NA,NA,NA,NA,""
"image-keyboard-response",311,234983,"0.0-4.99-2.99","xo2uzc5keh8cdno",414,"89.csv","","null","resources/images/coin2.png","null","",NA,NA,NA,NA,""
"image-keyboard-response",312,235270,"0.0-4.100-0.100","xo2uzc5keh8cdno",414,"89.csv","","284.69999999925494","resources/trios/L1T4A3.jpg","39","restless",0.3,0.2,0.8,0.16174987656838,"true"
"image-keyboard-response",313,235674,"0.0-4.100-1.100","xo2uzc5keh8cdno",414,"89.csv","","null","resources/maskTrios/BBA3.jpg","null","",NA,NA,NA,NA,""
"image-keyboard-response",314,236881,"0.0-4.100-2.100","xo2uzc5keh8cdno",414,"89.csv","","null","resources/images/coin2.png","null","",NA,NA,NA,NA,""
"image-keyboard-response",315,237234,"0.0-4.101-0.101","xo2uzc5keh8cdno",414,"89.csv","","351","resources/trios/L1T4A3.jpg","39","restless",0.4,0.2,0.8,0.502786990468266,"true"
"image-keyboard-response",316,237642,"0.0-4.101-1.101","xo2uzc5keh8cdno",414,"89.csv","","null","resources/maskTrios/BBA3.jpg","null","",NA,NA,NA,NA,""
"image-keyboard-response",317,238850,"0.0-4.101-2.101","xo2uzc5keh8cdno",414,"89.csv","","null","resources/images/coin2.png","null","",NA,NA,NA,NA,""
"image-keyboard-response",318,239174,"0.0-4.102-0.102","xo2uzc5keh8cdno",414,"89.csv","","320.8999999985099","resources/trios/L1T4A3.jpg","39","restless",0.4,0.2,0.8,0.197611651472807,"true"
"image-keyboard-response",319,239578,"0.0-4.102-1.102","xo2uzc5keh8cdno",414,"89.csv","","null","resources/maskTrios/BBA3.jpg","null","",NA,NA,NA,NA,""
"image-keyboard-response",320,240786,"0.0-4.102-2.102","xo2uzc5keh8cdno",414,"89.csv","","null","resources/images/coin2.png","null","",NA,NA,NA,NA,""
"image-keyboard-response",321,241079,"0.0-4.103-0.103","xo2uzc5keh8cdno",414,"89.csv","","291.09999999962747","resources/trios/L1T4A3.jpg","39","restless",0.4,0.2,0.8,0.41542864920202,"true"
"image-keyboard-response",322,241486,"0.0-4.103-1.103","xo2uzc5keh8cdno",414,"89.csv","","null","resources/maskTrios/BBA3.jpg","null","",NA,NA,NA,NA,""
"image-keyboard-response",323,242694,"0.0-4.103-2.103","xo2uzc5keh8cdno",414,"89.csv","","null","resources/images/coin2.png","null","",NA,NA,NA,NA,""
"image-keyboard-response",324,242975,"0.0-4.104-0.104","xo2uzc5keh8cdno",414,"89.csv","","278.30000000074506","resources/trios/L1T4A3.jpg","39","restless",0.4,0.2,0.7,0.0218368153858359,"true"
"image-keyboard-response",325,243383,"0.0-4.104-1.104","xo2uzc5keh8cdno",414,"89.csv","","null","resources/maskTrios/BBA3.jpg","null","",NA,NA,NA,NA,""
"image-keyboard-response",326,244590,"0.0-4.104-2.104","xo2uzc5keh8cdno",414,"89.csv","","null","resources/images/coin2.png","null","",NA,NA,NA,NA,""
"image-keyboard-response",327,244791,"0.0-4.105-0.105","xo2uzc5keh8cdno",414,"89.csv","","198.69999999925494","resources/trios/L1T4A3.jpg","39","restless",0.4,0.2,0.7,0.763149709610672,"false"
"image-keyboard-response",328,245199,"0.0-4.105-1.105","xo2uzc5keh8cdno",414,"89.csv","","null","resources/maskTrios/BBA3.jpg","null","",NA,NA,NA,NA,""
"image-keyboard-response",329,246404,"0.0-4.105-2.105","xo2uzc5keh8cdno",414,"89.csv","","null","resources/images/fishbone.png","null","",NA,NA,NA,NA,""
"image-keyboard-response",330,247250,"0.0-4.106-0.106","xo2uzc5keh8cdno",414,"89.csv","","843","resources/trios/L1T4A3.jpg","39","restless",0.4,0.3,0.7,0.538824015680511,"true"
"image-keyboard-response",331,247658,"0.0-4.106-1.106","xo2uzc5keh8cdno",414,"89.csv","","null","resources/maskTrios/BBA3.jpg","null","",NA,NA,NA,NA,""
"image-keyboard-response",332,248866,"0.0-4.106-2.106","xo2uzc5keh8cdno",414,"89.csv","","null","resources/images/coin2.png","null","",NA,NA,NA,NA,""
"image-keyboard-response",333,249103,"0.0-4.107-0.107","xo2uzc5keh8cdno",414,"89.csv","","234.59999999962747","resources/trios/L1T4A3.jpg","39","restless",0.4,0.4,0.6,0.0114570319837635,"true"
"image-keyboard-response",334,249511,"0.0-4.107-1.107","xo2uzc5keh8cdno",414,"89.csv","","null","resources/maskTrios/BBA3.jpg","null","",NA,NA,NA,NA,""
"image-keyboard-response",335,250715,"0.0-4.107-2.107","xo2uzc5keh8cdno",414,"89.csv","","null","resources/images/coin2.png","null","",NA,NA,NA,NA,""
"image-keyboard-response",336,250943,"0.0-4.108-0.108","xo2uzc5keh8cdno",414,"89.csv","","225.30000000074506","resources/trios/L1T4A3.jpg","39","restless",0.5,0.4,0.6,0.509422207736929,"true"
"image-keyboard-response",337,251350,"0.0-4.108-1.108","xo2uzc5keh8cdno",414,"89.csv","","null","resources/maskTrios/BBA3.jpg","null","",NA,NA,NA,NA,""
"image-keyboard-response",338,252559,"0.0-4.108-2.108","xo2uzc5keh8cdno",414,"89.csv","","null","resources/images/coin2.png","null","",NA,NA,NA,NA,""
"image-keyboard-response",339,252788,"0.0-4.109-0.109","xo2uzc5keh8cdno",414,"89.csv","","226.5","resources/trios/L1T4A3.jpg","39","restless",0.6,0.4,0.6,0.0504040819472327,"true"
"image-keyboard-response",340,253193,"0.0-4.109-1.109","xo2uzc5keh8cdno",414,"89.csv","","null","resources/maskTrios/BBA3.jpg","null","",NA,NA,NA,NA,""
"image-keyboard-response",341,254400,"0.0-4.109-2.109","xo2uzc5keh8cdno",414,"89.csv","","null","resources/images/coin2.png","null","",NA,NA,NA,NA,""
"image-keyboard-response",342,254656,"0.0-4.110-0.110","xo2uzc5keh8cdno",414,"89.csv","","253.80000000074506","resources/trios/L1T4A3.jpg","39","restless",0.6,0.4,0.6,0.407369014523592,"true"
"image-keyboard-response",343,255065,"0.0-4.110-1.110","xo2uzc5keh8cdno",414,"89.csv","","null","resources/maskTrios/BBA3.jpg","null","",NA,NA,NA,NA,""
"image-keyboard-response",344,256273,"0.0-4.110-2.110","xo2uzc5keh8cdno",414,"89.csv","","null","resources/images/coin2.png","null","",NA,NA,NA,NA,""
"image-keyboard-response",345,256508,"0.0-4.111-0.111","xo2uzc5keh8cdno",414,"89.csv","","233.30000000074506","resources/trios/L1T4A3.jpg","39","restless",0.6,0.4,0.5,0.823907717448913,"false"
"image-keyboard-response",346,256916,"0.0-4.111-1.111","xo2uzc5keh8cdno",414,"89.csv","","null","resources/maskTrios/BBA3.jpg","null","",NA,NA,NA,NA,""
"image-keyboard-response",347,258124,"0.0-4.111-2.111","xo2uzc5keh8cdno",414,"89.csv","","null","resources/images/fishbone.png","null","",NA,NA,NA,NA,""
"image-keyboard-response",348,258379,"0.0-4.112-0.112","xo2uzc5keh8cdno",414,"89.csv","","252.80000000074506","resources/trios/L1T4A3.jpg","39","restless",0.6,0.4,0.5,0.399470771579519,"true"
"image-keyboard-response",349,258788,"0.0-4.112-1.112","xo2uzc5keh8cdno",414,"89.csv","","null","resources/maskTrios/BBA3.jpg","null","",NA,NA,NA,NA,""
"image-keyboard-response",350,259995,"0.0-4.112-2.112","xo2uzc5keh8cdno",414,"89.csv","","null","resources/images/coin2.png","null","",NA,NA,NA,NA,""
"image-keyboard-response",351,260221,"0.0-4.113-0.113","xo2uzc5keh8cdno",414,"89.csv","","223.5","resources/trios/L1T4A3.jpg","39","restless",0.6,0.4,0.5,0.340925185430636,"true"
"image-keyboard-response",352,260628,"0.0-4.113-1.113","xo2uzc5keh8cdno",414,"89.csv","","null","resources/maskTrios/BBA3.jpg","null","",NA,NA,NA,NA,""
"image-keyboard-response",353,261836,"0.0-4.113-2.113","xo2uzc5keh8cdno",414,"89.csv","","null","resources/images/coin2.png","null","",NA,NA,NA,NA,""
"image-keyboard-response",354,262033,"0.0-4.114-0.114","xo2uzc5keh8cdno",414,"89.csv","","195","resources/trios/L1T4A3.jpg","39","restless",0.6,0.4,0.5,0.687072207665349,"false"
"image-keyboard-response",355,262442,"0.0-4.114-1.114","xo2uzc5keh8cdno",414,"89.csv","","null","resources/maskTrios/BBA3.jpg","null","",NA,NA,NA,NA,""
"image-keyboard-response",356,263650,"0.0-4.114-2.114","xo2uzc5keh8cdno",414,"89.csv","","null","resources/images/fishbone.png","null","",NA,NA,NA,NA,""
"image-keyboard-response",357,263911,"0.0-4.115-0.115","xo2uzc5keh8cdno",414,"89.csv","","258.59999999962747","resources/trios/L1T4A3.jpg","39","restless",0.6,0.5,0.5,0.219336652797893,"true"
"image-keyboard-response",358,264313,"0.0-4.115-1.115","xo2uzc5keh8cdno",414,"89.csv","","null","resources/maskTrios/BBA3.jpg","null","",NA,NA,NA,NA,""
"image-keyboard-response",359,265521,"0.0-4.115-2.115","xo2uzc5keh8cdno",414,"89.csv","","null","resources/images/coin2.png","null","",NA,NA,NA,NA,""
"image-keyboard-response",360,265862,"0.0-4.116-0.116","xo2uzc5keh8cdno",414,"89.csv","","338.40000000037253","resources/trios/L1T4A3.jpg","39","restless",0.6,0.5,0.5,0.731662111673759,"false"
"image-keyboard-response",361,266265,"0.0-4.116-1.116","xo2uzc5keh8cdno",414,"89.csv","","null","resources/maskTrios/BBA3.jpg","null","",NA,NA,NA,NA,""
"image-keyboard-response",362,267472,"0.0-4.116-2.116","xo2uzc5keh8cdno",414,"89.csv","","null","resources/images/fishbone.png","null","",NA,NA,NA,NA,""
"image-keyboard-response",363,267734,"0.0-4.117-0.117","xo2uzc5keh8cdno",414,"89.csv","","259.19999999925494","resources/trios/L1T4A3.jpg","39","restless",0.6,0.5,0.5,0.54533671153954,"false"
"image-keyboard-response",364,268142,"0.0-4.117-1.117","xo2uzc5keh8cdno",414,"89.csv","","null","resources/maskTrios/BBA3.jpg","null","",NA,NA,NA,NA,""
"image-keyboard-response",365,269349,"0.0-4.117-2.117","xo2uzc5keh8cdno",414,"89.csv","","null","resources/images/fishbone.png","null","",NA,NA,NA,NA,""
"image-keyboard-response",366,269667,"0.0-4.118-0.118","xo2uzc5keh8cdno",414,"89.csv","","315.2000000011176","resources/trios/L1T4A3.jpg","37","restless",0.5,0.5,0.4,0.947357318483071,"false"
"image-keyboard-response",367,270075,"0.0-4.118-1.118","xo2uzc5keh8cdno",414,"89.csv","","null","resources/maskTrios/L1BB.jpg","null","",NA,NA,NA,NA,""
"image-keyboard-response",368,271280,"0.0-4.118-2.118","xo2uzc5keh8cdno",414,"89.csv","","null","resources/images/fishbone.png","null","",NA,NA,NA,NA,""
"image-keyboard-response",369,271518,"0.0-4.119-0.119","xo2uzc5keh8cdno",414,"89.csv","","235.39999999850988","resources/trios/L1T4A3.jpg","37","restless",0.6,0.5,0.4,0.238404039863402,"true"
"image-keyboard-response",370,271926,"0.0-4.119-1.119","xo2uzc5keh8cdno",414,"89.csv","","null","resources/maskTrios/L1BB.jpg","null","",NA,NA,NA,NA,""
"image-keyboard-response",371,273134,"0.0-4.119-2.119","xo2uzc5keh8cdno",414,"89.csv","","null","resources/images/coin2.png","null","",NA,NA,NA,NA,""
"image-keyboard-response",372,273417,"0.0-4.120-0.120","xo2uzc5keh8cdno",414,"89.csv","","280.59999999962747","resources/trios/L1T4A3.jpg","37","restless",0.6,0.4,0.3,0.592875705127001,"true"
"image-keyboard-response",373,273824,"0.0-4.120-1.120","xo2uzc5keh8cdno",414,"89.csv","","null","resources/maskTrios/L1BB.jpg","null","",NA,NA,NA,NA,""
"image-keyboard-response",374,275029,"0.0-4.120-2.120","xo2uzc5keh8cdno",414,"89.csv","","null","resources/images/coin2.png","null","",NA,NA,NA,NA,""
"image-keyboard-response",375,275270,"0.0-4.121-0.121","xo2uzc5keh8cdno",414,"89.csv","","238.7999999988824","resources/trios/L1T4A3.jpg","37","restless",0.6,0.4,0.3,0.629444693242815,"false"
"image-keyboard-response",376,275673,"0.0-4.121-1.121","xo2uzc5keh8cdno",414,"89.csv","","null","resources/maskTrios/L1BB.jpg","null","",NA,NA,NA,NA,""
"image-keyboard-response",377,276877,"0.0-4.121-2.121","xo2uzc5keh8cdno",414,"89.csv","","null","resources/images/fishbone.png","null","",NA,NA,NA,NA,""
"image-keyboard-response",378,277126,"0.0-4.122-0.122","xo2uzc5keh8cdno",414,"89.csv","","247.59999999962747","resources/trios/L1T4A3.jpg","37","restless",0.6,0.4,0.2,0.531261677433688,"true"
"image-keyboard-response",379,277531,"0.0-4.122-1.122","xo2uzc5keh8cdno",414,"89.csv","","null","resources/maskTrios/L1BB.jpg","null","",NA,NA,NA,NA,""
"image-keyboard-response",380,278739,"0.0-4.122-2.122","xo2uzc5keh8cdno",414,"89.csv","","null","resources/images/coin2.png","null","",NA,NA,NA,NA,""
"image-keyboard-response",381,279043,"0.0-4.123-0.123","xo2uzc5keh8cdno",414,"89.csv","","302","resources/trios/L1T4A3.jpg","37","restless",0.6,0.4,0.2,0.613460081657954,"false"
"image-keyboard-response",382,279451,"0.0-4.123-1.123","xo2uzc5keh8cdno",414,"89.csv","","null","resources/maskTrios/L1BB.jpg","null","",NA,NA,NA,NA,""
"image-keyboard-response",383,280658,"0.0-4.123-2.123","xo2uzc5keh8cdno",414,"89.csv","","null","resources/images/fishbone.png","null","",NA,NA,NA,NA,""
"image-keyboard-response",384,281094,"0.0-4.124-0.124","xo2uzc5keh8cdno",414,"89.csv","","433.09999999962747","resources/trios/L1T4A3.jpg","37","restless",0.6,0.4,0.2,0.111172716975076,"true"
"image-keyboard-response",385,281501,"0.0-4.124-1.124","xo2uzc5keh8cdno",414,"89.csv","","null","resources/maskTrios/L1BB.jpg","null","",NA,NA,NA,NA,""
"image-keyboard-response",386,282709,"0.0-4.124-2.124","xo2uzc5keh8cdno",414,"89.csv","","null","resources/images/coin2.png","null","",NA,NA,NA,NA,""
"image-keyboard-response",387,282929,"0.0-4.125-0.125","xo2uzc5keh8cdno",414,"89.csv","","217.5","resources/trios/L1T4A3.jpg","37","restless",0.6,0.4,0.2,0.098339602571766,"true"
"image-keyboard-response",388,283333,"0.0-4.125-1.125","xo2uzc5keh8cdno",414,"89.csv","","null","resources/maskTrios/L1BB.jpg","null","",NA,NA,NA,NA,""
"image-keyboard-response",389,284541,"0.0-4.125-2.125","xo2uzc5keh8cdno",414,"89.csv","","null","resources/images/coin2.png","null","",NA,NA,NA,NA,""
"image-keyboard-response",390,284823,"0.0-4.126-0.126","xo2uzc5keh8cdno",414,"89.csv","","279.40000000037253","resources/trios/L1T4A3.jpg","37","restless",0.6,0.4,0.2,0.57416708812248,"true"
"image-keyboard-response",391,285230,"0.0-4.126-1.126","xo2uzc5keh8cdno",414,"89.csv","","null","resources/maskTrios/L1BB.jpg","null","",NA,NA,NA,NA,""
"image-keyboard-response",392,286437,"0.0-4.126-2.126","xo2uzc5keh8cdno",414,"89.csv","","null","resources/images/coin2.png","null","",NA,NA,NA,NA,""
"image-keyboard-response",393,286702,"0.0-4.127-0.127","xo2uzc5keh8cdno",414,"89.csv","","261.7000000011176","resources/trios/L1T4A3.jpg","37","restless",0.6,0.4,0.2,0.643713302740009,"false"
"image-keyboard-response",394,287105,"0.0-4.127-1.127","xo2uzc5keh8cdno",414,"89.csv","","null","resources/maskTrios/L1BB.jpg","null","",NA,NA,NA,NA,""
"image-keyboard-response",395,288313,"0.0-4.127-2.127","xo2uzc5keh8cdno",414,"89.csv","","null","resources/images/fishbone.png","null","",NA,NA,NA,NA,""
"image-keyboard-response",396,288609,"0.0-4.128-0.128","xo2uzc5keh8cdno",414,"89.csv","","293.2999999988824","resources/trios/L1T4A3.jpg","37","restless",0.6,0.4,0.2,0.449603210203905,"true"
"image-keyboard-response",397,289017,"0.0-4.128-1.128","xo2uzc5keh8cdno",414,"89.csv","","null","resources/maskTrios/L1BB.jpg","null","",NA,NA,NA,NA,""
"image-keyboard-response",398,290222,"0.0-4.128-2.128","xo2uzc5keh8cdno",414,"89.csv","","null","resources/images/coin2.png","null","",NA,NA,NA,NA,""
"image-keyboard-response",399,290498,"0.0-4.129-0.129","xo2uzc5keh8cdno",414,"89.csv","","273.2000000011176","resources/trios/L1T4A3.jpg","37","restless",0.6,0.4,0.2,0.201934122684443,"true"
"image-keyboard-response",400,290904,"0.0-4.129-1.129","xo2uzc5keh8cdno",414,"89.csv","","null","resources/maskTrios/L1BB.jpg","null","",NA,NA,NA,NA,""
"image-keyboard-response",401,292112,"0.0-4.129-2.129","xo2uzc5keh8cdno",414,"89.csv","","null","resources/images/coin2.png","null","",NA,NA,NA,NA,""
"image-keyboard-response",402,292392,"0.0-4.130-0.130","xo2uzc5keh8cdno",414,"89.csv","","277.5","resources/trios/L1T4A3.jpg","37","restless",0.6,0.4,0.2,0.26233785022747,"true"
"image-keyboard-response",403,292798,"0.0-4.130-1.130","xo2uzc5keh8cdno",414,"89.csv","","null","resources/maskTrios/L1BB.jpg","null","",NA,NA,NA,NA,""
"image-keyboard-response",404,294003,"0.0-4.130-2.130","xo2uzc5keh8cdno",414,"89.csv","","null","resources/images/coin2.png","null","",NA,NA,NA,NA,""
"image-keyboard-response",405,294283,"0.0-4.131-0.131","xo2uzc5keh8cdno",414,"89.csv","","276.90000000037253","resources/trios/L1T4A3.jpg","37","restless",0.6,0.4,0.2,0.117662122495587,"true"
"image-keyboard-response",406,294687,"0.0-4.131-1.131","xo2uzc5keh8cdno",414,"89.csv","","null","resources/maskTrios/L1BB.jpg","null","",NA,NA,NA,NA,""
"image-keyboard-response",407,295894,"0.0-4.131-2.131","xo2uzc5keh8cdno",414,"89.csv","","null","resources/images/coin2.png","null","",NA,NA,NA,NA,""
"image-keyboard-response",408,296131,"0.0-4.132-0.132","xo2uzc5keh8cdno",414,"89.csv","","234.30000000074506","resources/trios/L1T4A3.jpg","37","restless",0.6,0.4,0.2,0.134803443401499,"true"
"image-keyboard-response",409,296538,"0.0-4.132-1.132","xo2uzc5keh8cdno",414,"89.csv","","null","resources/maskTrios/L1BB.jpg","null","",NA,NA,NA,NA,""
"image-keyboard-response",410,297746,"0.0-4.132-2.132","xo2uzc5keh8cdno",414,"89.csv","","null","resources/images/coin2.png","null","",NA,NA,NA,NA,""
"image-keyboard-response",411,298022,"0.0-4.133-0.133","xo2uzc5keh8cdno",414,"89.csv","","273.5","resources/trios/L1T4A3.jpg","37","restless",0.5,0.4,0.2,0.904517835201036,"false"
"image-keyboard-response",412,298429,"0.0-4.133-1.133","xo2uzc5keh8cdno",414,"89.csv","","null","resources/maskTrios/L1BB.jpg","null","",NA,NA,NA,NA,""
"image-keyboard-response",413,299633,"0.0-4.133-2.133","xo2uzc5keh8cdno",414,"89.csv","","null","resources/images/fishbone.png","null","",NA,NA,NA,NA,""
"image-keyboard-response",414,299872,"0.0-4.134-0.134","xo2uzc5keh8cdno",414,"89.csv","","237","resources/trios/L1T4A3.jpg","37","restless",0.5,0.4,0.2,0.44627814785011,"true"
"image-keyboard-response",415,300278,"0.0-4.134-1.134","xo2uzc5keh8cdno",414,"89.csv","","null","resources/maskTrios/L1BB.jpg","null","",NA,NA,NA,NA,""
"image-keyboard-response",416,301484,"0.0-4.134-2.134","xo2uzc5keh8cdno",414,"89.csv","","null","resources/images/coin2.png","null","",NA,NA,NA,NA,""
"image-keyboard-response",417,301682,"0.0-4.135-0.135","xo2uzc5keh8cdno",414,"89.csv","","196.09999999962747","resources/trios/L1T4A3.jpg","37","restless",0.5,0.4,0.2,0.899557433578382,"false"
"image-keyboard-response",418,302088,"0.0-4.135-1.135","xo2uzc5keh8cdno",414,"89.csv","","null","resources/maskTrios/L1BB.jpg","null","",NA,NA,NA,NA,""
"image-keyboard-response",419,303296,"0.0-4.135-2.135","xo2uzc5keh8cdno",414,"89.csv","","null","resources/images/fishbone.png","null","",NA,NA,NA,NA,""
"image-keyboard-response",420,303364,"0.0-4.136-0.136","xo2uzc5keh8cdno",414,"89.csv","","66.39999999850988","resources/trios/L1T4A3.jpg","37","restless",0.5,0.4,0.2,0.271618323873638,"true"
"image-keyboard-response",421,303772,"0.0-4.136-1.136","xo2uzc5keh8cdno",414,"89.csv","","null","resources/maskTrios/L1BB.jpg","null","",NA,NA,NA,NA,""
"image-keyboard-response",422,304977,"0.0-4.136-2.136","xo2uzc5keh8cdno",414,"89.csv","","null","resources/images/coin2.png","null","",NA,NA,NA,NA,""
"image-keyboard-response",423,305160,"0.0-4.137-0.137","xo2uzc5keh8cdno",414,"89.csv","","180.5","resources/trios/L1T4A3.jpg","37","restless",0.5,0.4,0.2,0.48414809512058,"true"
"image-keyboard-response",424,305568,"0.0-4.137-1.137","xo2uzc5keh8cdno",414,"89.csv","","null","resources/maskTrios/L1BB.jpg","null","",NA,NA,NA,NA,""
"image-keyboard-response",425,306776,"0.0-4.137-2.137","xo2uzc5keh8cdno",414,"89.csv","","null","resources/images/coin2.png","null","",NA,NA,NA,NA,""
"image-keyboard-response",426,307006,"0.0-4.138-0.138","xo2uzc5keh8cdno",414,"89.csv","","228.2999999988824","resources/trios/L1T4A3.jpg","37","restless",0.5,0.4,0.2,0.1479059877376,"true"
"image-keyboard-response",427,307411,"0.0-4.138-1.138","xo2uzc5keh8cdno",414,"89.csv","","null","resources/maskTrios/L1BB.jpg","null","",NA,NA,NA,NA,""
"image-keyboard-response",428,308618,"0.0-4.138-2.138","xo2uzc5keh8cdno",414,"89.csv","","null","resources/images/coin2.png","null","",NA,NA,NA,NA,""
"image-keyboard-response",429,308929,"0.0-4.139-0.139","xo2uzc5keh8cdno",414,"89.csv","","307.80000000074506","resources/trios/L1T4A3.jpg","37","restless",0.4,0.4,0.2,0.0685342616714979,"true"
"image-keyboard-response",430,309335,"0.0-4.139-1.139","xo2uzc5keh8cdno",414,"89.csv","","null","resources/maskTrios/L1BB.jpg","null","",NA,NA,NA,NA,""
"image-keyboard-response",431,310543,"0.0-4.139-2.139","xo2uzc5keh8cdno",414,"89.csv","","null","resources/images/coin2.png","null","",NA,NA,NA,NA,""
"image-keyboard-response",432,310802,"0.0-4.140-0.140","xo2uzc5keh8cdno",414,"89.csv","","256.2000000011176","resources/trios/L1T4A3.jpg","37","restless",0.4,0.4,0.2,0.823614164470781,"false"
"image-keyboard-response",433,311209,"0.0-4.140-1.140","xo2uzc5keh8cdno",414,"89.csv","","null","resources/maskTrios/L1BB.jpg","null","",NA,NA,NA,NA,""
"image-keyboard-response",434,312416,"0.0-4.140-2.140","xo2uzc5keh8cdno",414,"89.csv","","null","resources/images/fishbone.png","null","",NA,NA,NA,NA,""
"image-keyboard-response",435,312700,"0.0-4.141-0.141","xo2uzc5keh8cdno",414,"89.csv","","282.09999999962747","resources/trios/L1T4A3.jpg","37","restless",0.4,0.4,0.2,0.54641902128155,"false"
"image-keyboard-response",436,313109,"0.0-4.141-1.141","xo2uzc5keh8cdno",414,"89.csv","","null","resources/maskTrios/L1BB.jpg","null","",NA,NA,NA,NA,""
"image-keyboard-response",437,314316,"0.0-4.141-2.141","xo2uzc5keh8cdno",414,"89.csv","","null","resources/images/fishbone.png","null","",NA,NA,NA,NA,""
"image-keyboard-response",438,314542,"0.0-4.142-0.142","xo2uzc5keh8cdno",414,"89.csv","","222.59999999962747","resources/trios/L1T4A3.jpg","37","restless",0.5,0.4,0.2,0.222722330973806,"true"
"image-keyboard-response",439,314949,"0.0-4.142-1.142","xo2uzc5keh8cdno",414,"89.csv","","null","resources/maskTrios/L1BB.jpg","null","",NA,NA,NA,NA,""
"image-keyboard-response",440,316156,"0.0-4.142-2.142","xo2uzc5keh8cdno",414,"89.csv","","null","resources/images/coin2.png","null","",NA,NA,NA,NA,""
"image-keyboard-response",441,316391,"0.0-4.143-0.143","xo2uzc5keh8cdno",414,"89.csv","","232.09999999962747","resources/trios/L1T4A3.jpg","37","restless",0.4,0.4,0.2,0.702206747242075,"false"
"image-keyboard-response",442,316794,"0.0-4.143-1.143","xo2uzc5keh8cdno",414,"89.csv","","null","resources/maskTrios/L1BB.jpg","null","",NA,NA,NA,NA,""
"image-keyboard-response",443,318001,"0.0-4.143-2.143","xo2uzc5keh8cdno",414,"89.csv","","null","resources/images/fishbone.png","null","",NA,NA,NA,NA,""
"image-keyboard-response",444,318249,"0.0-4.144-0.144","xo2uzc5keh8cdno",414,"89.csv","","245.19999999925494","resources/trios/L1T4A3.jpg","37","restless",0.5,0.3,0.2,0.417280791448395,"true"
"image-keyboard-response",445,318657,"0.0-4.144-1.144","xo2uzc5keh8cdno",414,"89.csv","","null","resources/maskTrios/L1BB.jpg","null","",NA,NA,NA,NA,""
"image-keyboard-response",446,319865,"0.0-4.144-2.144","xo2uzc5keh8cdno",414,"89.csv","","null","resources/images/coin2.png","null","",NA,NA,NA,NA,""
"image-keyboard-response",447,320078,"0.0-4.145-0.145","xo2uzc5keh8cdno",414,"89.csv","","210.80000000074506","resources/trios/L1T4A3.jpg","37","restless",0.5,0.3,0.2,0.527660627445269,"false"
"image-keyboard-response",448,320486,"0.0-4.145-1.145","xo2uzc5keh8cdno",414,"89.csv","","null","resources/maskTrios/L1BB.jpg","null","",NA,NA,NA,NA,""
"image-keyboard-response",449,321690,"0.0-4.145-2.145","xo2uzc5keh8cdno",414,"89.csv","","null","resources/images/fishbone.png","null","",NA,NA,NA,NA,""
"image-keyboard-response",450,321908,"0.0-4.146-0.146","xo2uzc5keh8cdno",414,"89.csv","","215.19999999925494","resources/trios/L1T4A3.jpg","37","restless",0.5,0.3,0.2,0.605700570875047,"false"
"image-keyboard-response",451,322316,"0.0-4.146-1.146","xo2uzc5keh8cdno",414,"89.csv","","null","resources/maskTrios/L1BB.jpg","null","",NA,NA,NA,NA,""
"image-keyboard-response",452,323524,"0.0-4.146-2.146","xo2uzc5keh8cdno",414,"89.csv","","null","resources/images/fishbone.png","null","",NA,NA,NA,NA,""
"image-keyboard-response",453,323845,"0.0-4.147-0.147","xo2uzc5keh8cdno",414,"89.csv","","318.90000000037253","resources/trios/L1T4A3.jpg","37","restless",0.5,0.3,0.2,0.286496225953045,"true"
"image-keyboard-response",454,324251,"0.0-4.147-1.147","xo2uzc5keh8cdno",414,"89.csv","","null","resources/maskTrios/L1BB.jpg","null","",NA,NA,NA,NA,""
"image-keyboard-response",455,325458,"0.0-4.147-2.147","xo2uzc5keh8cdno",414,"89.csv","","null","resources/images/coin2.png","null","",NA,NA,NA,NA,""
"image-keyboard-response",456,325734,"0.0-4.148-0.148","xo2uzc5keh8cdno",414,"89.csv","","273","resources/trios/L1T4A3.jpg","37","restless",0.5,0.3,0.2,0.726458451721039,"false"
"image-keyboard-response",457,326140,"0.0-4.148-1.148","xo2uzc5keh8cdno",414,"89.csv","","null","resources/maskTrios/L1BB.jpg","null","",NA,NA,NA,NA,""
"image-keyboard-response",458,327345,"0.0-4.148-2.148","xo2uzc5keh8cdno",414,"89.csv","","null","resources/images/fishbone.png","null","",NA,NA,NA,NA,""
"image-keyboard-response",459,327593,"0.0-4.149-0.149","xo2uzc5keh8cdno",414,"89.csv","","245.5","resources/trios/L1T4A3.jpg","37","restless",0.5,0.3,0.3,0.84351996654581,"false"
"image-keyboard-response",460,328002,"0.0-4.149-1.149","xo2uzc5keh8cdno",414,"89.csv","","null","resources/maskTrios/L1BB.jpg","null","",NA,NA,NA,NA,""
"image-keyboard-response",461,329205,"0.0-4.149-2.149","xo2uzc5keh8cdno",414,"89.csv","","null","resources/images/fishbone.png","null","",NA,NA,NA,NA,""
"image-keyboard-response",462,329436,"0.0-4.150-0.150","xo2uzc5keh8cdno",414,"89.csv","","228.30000000074506","resources/trios/L1T4A3.jpg","37","restless",0.5,0.3,0.3,0.625206083386075,"false"
"image-keyboard-response",463,329843,"0.0-4.150-1.150","xo2uzc5keh8cdno",414,"89.csv","","null","resources/maskTrios/L1BB.jpg","null","",NA,NA,NA,NA,""
"image-keyboard-response",464,331051,"0.0-4.150-2.150","xo2uzc5keh8cdno",414,"89.csv","","null","resources/images/fishbone.png","null","",NA,NA,NA,NA,""
"image-keyboard-response",465,331305,"0.0-4.151-0.151","xo2uzc5keh8cdno",414,"89.csv","","251.40000000037253","resources/trios/L1T4A3.jpg","38","restless",0.5,0.3,0.3,0.322385248656301,"false"
"image-keyboard-response",466,331708,"0.0-4.151-1.151","xo2uzc5keh8cdno",414,"89.csv","","null","resources/maskTrios/BT4B.jpg","null","",NA,NA,NA,NA,""
"image-keyboard-response",467,332911,"0.0-4.151-2.151","xo2uzc5keh8cdno",414,"89.csv","","null","resources/images/fishbone.png","null","",NA,NA,NA,NA,""
"image-keyboard-response",468,333378,"0.0-4.152-0.152","xo2uzc5keh8cdno",414,"89.csv","","465.7999999988824","resources/trios/L1T4A3.jpg","38","restless",0.5,0.3,0.3,0.821035056793363,"false"
"image-keyboard-response",469,333785,"0.0-4.152-1.152","xo2uzc5keh8cdno",414,"89.csv","","null","resources/maskTrios/BT4B.jpg","null","",NA,NA,NA,NA,""
"image-keyboard-response",470,334993,"0.0-4.152-2.152","xo2uzc5keh8cdno",414,"89.csv","","null","resources/images/fishbone.png","null","",NA,NA,NA,NA,""
"image-keyboard-response",471,335251,"0.0-4.153-0.153","xo2uzc5keh8cdno",414,"89.csv","","254.80000000074506","resources/trios/L1T4A3.jpg","38","restless",0.6,0.3,0.3,0.346752549223732,"false"
"image-keyboard-response",472,335656,"0.0-4.153-1.153","xo2uzc5keh8cdno",414,"89.csv","","null","resources/maskTrios/BT4B.jpg","null","",NA,NA,NA,NA,""
"image-keyboard-response",473,336863,"0.0-4.153-2.153","xo2uzc5keh8cdno",414,"89.csv","","null","resources/images/fishbone.png","null","",NA,NA,NA,NA,""
"image-keyboard-response",474,337172,"0.0-4.154-0.154","xo2uzc5keh8cdno",414,"89.csv","","306.7999999988824","resources/trios/L1T4A3.jpg","39","restless",0.6,0.3,0.3,0.0131899849052308,"true"
"image-keyboard-response",475,337577,"0.0-4.154-1.154","xo2uzc5keh8cdno",414,"89.csv","","null","resources/maskTrios/BBA3.jpg","null","",NA,NA,NA,NA,""
"image-keyboard-response",476,338784,"0.0-4.154-2.154","xo2uzc5keh8cdno",414,"89.csv","","null","resources/images/coin2.png","null","",NA,NA,NA,NA,""
"image-keyboard-response",477,339072,"0.0-4.155-0.155","xo2uzc5keh8cdno",414,"89.csv","","285.30000000074506","resources/trios/L1T4A3.jpg","39","restless",0.5,0.3,0.3,0.533911840186256,"false"
"image-keyboard-response",478,339480,"0.0-4.155-1.155","xo2uzc5keh8cdno",414,"89.csv","","null","resources/maskTrios/BBA3.jpg","null","",NA,NA,NA,NA,""
"image-keyboard-response",479,340688,"0.0-4.155-2.155","xo2uzc5keh8cdno",414,"89.csv","","null","resources/images/fishbone.png","null","",NA,NA,NA,NA,""
"image-keyboard-response",480,341052,"0.0-4.156-0.156","xo2uzc5keh8cdno",414,"89.csv","","362.2000000011176","resources/trios/L1T4A3.jpg","39","restless",0.5,0.3,0.3,0.763423457933648,"false"
"image-keyboard-response",481,341457,"0.0-4.156-1.156","xo2uzc5keh8cdno",414,"89.csv","","null","resources/maskTrios/BBA3.jpg","null","",NA,NA,NA,NA,""
"image-keyboard-response",482,342664,"0.0-4.156-2.156","xo2uzc5keh8cdno",414,"89.csv","","null","resources/images/fishbone.png","null","",NA,NA,NA,NA,""
"image-keyboard-response",483,342960,"0.0-4.157-0.157","xo2uzc5keh8cdno",414,"89.csv","","293.19999999925494","resources/trios/L1T4A3.jpg","39","restless",0.5,0.2,0.3,0.924399766215672,"false"
"image-keyboard-response",484,343363,"0.0-4.157-1.157","xo2uzc5keh8cdno",414,"89.csv","","null","resources/maskTrios/BBA3.jpg","null","",NA,NA,NA,NA,""
"image-keyboard-response",485,344571,"0.0-4.157-2.157","xo2uzc5keh8cdno",414,"89.csv","","null","resources/images/fishbone.png","null","",NA,NA,NA,NA,""
"image-keyboard-response",486,344809,"0.0-4.158-0.158","xo2uzc5keh8cdno",414,"89.csv","","235.2999999988824","resources/trios/L1T4A3.jpg","39","restless",0.6,0.2,0.3,0.8294315737407,"false"
"image-keyboard-response",487,345213,"0.0-4.158-1.158","xo2uzc5keh8cdno",414,"89.csv","","null","resources/maskTrios/BBA3.jpg","null","",NA,NA,NA,NA,""
"image-keyboard-response",488,346419,"0.0-4.158-2.158","xo2uzc5keh8cdno",414,"89.csv","","null","resources/images/fishbone.png","null","",NA,NA,NA,NA,""
"image-keyboard-response",489,346684,"0.0-4.159-0.159","xo2uzc5keh8cdno",414,"89.csv","","262","resources/trios/L1T4A3.jpg","37","restless",0.6,0.2,0.3,0.718262182557103,"false"
"image-keyboard-response",490,347090,"0.0-4.159-1.159","xo2uzc5keh8cdno",414,"89.csv","","null","resources/maskTrios/L1BB.jpg","null","",NA,NA,NA,NA,""
"image-keyboard-response",491,348297,"0.0-4.159-2.159","xo2uzc5keh8cdno",414,"89.csv","","null","resources/images/fishbone.png","null","",NA,NA,NA,NA,""
"image-keyboard-response",492,348552,"0.0-4.160-0.160","xo2uzc5keh8cdno",414,"89.csv","","252.60000000149012","resources/trios/L1T4A3.jpg","38","restless",0.6,0.2,0.3,0.95422129759589,"false"
"image-keyboard-response",493,348956,"0.0-4.160-1.160","xo2uzc5keh8cdno",414,"89.csv","","null","resources/maskTrios/BT4B.jpg","null","",NA,NA,NA,NA,""
"image-keyboard-response",494,350164,"0.0-4.160-2.160","xo2uzc5keh8cdno",414,"89.csv","","null","resources/images/fishbone.png","null","",NA,NA,NA,NA,""
"image-keyboard-response",495,350438,"0.0-4.161-0.161","xo2uzc5keh8cdno",414,"89.csv","","271.69999999925494","resources/trios/L1T4A3.jpg","37","restless",0.6,0.2,0.3,0.0886137082323397,"true"
"image-keyboard-response",496,350846,"0.0-4.161-1.161","xo2uzc5keh8cdno",414,"89.csv","","null","resources/maskTrios/L1BB.jpg","null","",NA,NA,NA,NA,""
"image-keyboard-response",497,352054,"0.0-4.161-2.161","xo2uzc5keh8cdno",414,"89.csv","","null","resources/images/coin2.png","null","",NA,NA,NA,NA,""
"image-keyboard-response",498,352321,"0.0-4.162-0.162","xo2uzc5keh8cdno",414,"89.csv","","264","resources/trios/L1T4A3.jpg","37","restless",0.6,0.2,0.3,0.570911060872888,"true"
"image-keyboard-response",499,352729,"0.0-4.162-1.162","xo2uzc5keh8cdno",414,"89.csv","","null","resources/maskTrios/L1BB.jpg","null","",NA,NA,NA,NA,""
"image-keyboard-response",500,353936,"0.0-4.162-2.162","xo2uzc5keh8cdno",414,"89.csv","","null","resources/images/coin2.png","null","",NA,NA,NA,NA,""
"image-keyboard-response",501,354216,"0.0-4.163-0.163","xo2uzc5keh8cdno",414,"89.csv","","277","resources/trios/L1T4A3.jpg","37","restless",0.6,0.2,0.3,0.502531226046607,"true"
"image-keyboard-response",502,354621,"0.0-4.163-1.163","xo2uzc5keh8cdno",414,"89.csv","","null","resources/maskTrios/L1BB.jpg","null","",NA,NA,NA,NA,""
"image-keyboard-response",503,355829,"0.0-4.163-2.163","xo2uzc5keh8cdno",414,"89.csv","","null","resources/images/coin2.png","null","",NA,NA,NA,NA,""
"image-keyboard-response",504,356115,"0.0-4.164-0.164","xo2uzc5keh8cdno",414,"89.csv","","284.30000000074506","resources/trios/L1T4A3.jpg","37","restless",0.6,0.2,0.3,0.231603155128609,"true"
"image-keyboard-response",505,356522,"0.0-4.164-1.164","xo2uzc5keh8cdno",414,"89.csv","","null","resources/maskTrios/L1BB.jpg","null","",NA,NA,NA,NA,""
"image-keyboard-response",506,357729,"0.0-4.164-2.164","xo2uzc5keh8cdno",414,"89.csv","","null","resources/images/coin2.png","null","",NA,NA,NA,NA,""
"image-keyboard-response",507,357976,"0.0-4.165-0.165","xo2uzc5keh8cdno",414,"89.csv","","244.40000000037253","resources/trios/L1T4A3.jpg","37","restless",0.6,0.2,0.3,0.367014014155202,"true"
"image-keyboard-response",508,358383,"0.0-4.165-1.165","xo2uzc5keh8cdno",414,"89.csv","","null","resources/maskTrios/L1BB.jpg","null","",NA,NA,NA,NA,""
"image-keyboard-response",509,359592,"0.0-4.165-2.165","xo2uzc5keh8cdno",414,"89.csv","","null","resources/images/coin2.png","null","",NA,NA,NA,NA,""
"image-keyboard-response",510,359803,"0.0-4.166-0.166","xo2uzc5keh8cdno",414,"89.csv","","208.09999999962747","resources/trios/L1T4A3.jpg","37","restless",0.6,0.2,0.3,0.491997499039505,"true"
"image-keyboard-response",511,360208,"0.0-4.166-1.166","xo2uzc5keh8cdno",414,"89.csv","","null","resources/maskTrios/L1BB.jpg","null","",NA,NA,NA,NA,""
"image-keyboard-response",512,361416,"0.0-4.166-2.166","xo2uzc5keh8cdno",414,"89.csv","","null","resources/images/coin2.png","null","",NA,NA,NA,NA,""
"image-keyboard-response",513,361671,"0.0-4.167-0.167","xo2uzc5keh8cdno",414,"89.csv","","252.7000000011176","resources/trios/L1T4A3.jpg","37","restless",0.6,0.3,0.3,0.409020356942483,"true"
"image-keyboard-response",514,362074,"0.0-4.167-1.167","xo2uzc5keh8cdno",414,"89.csv","","null","resources/maskTrios/L1BB.jpg","null","",NA,NA,NA,NA,""
"image-keyboard-response",515,363282,"0.0-4.167-2.167","xo2uzc5keh8cdno",414,"89.csv","","null","resources/images/coin2.png","null","",NA,NA,NA,NA,""
"image-keyboard-response",516,363515,"0.0-4.168-0.168","xo2uzc5keh8cdno",414,"89.csv","","230.7000000011176","resources/trios/L1T4A3.jpg","37","restless",0.6,0.4,0.3,0.462563472860103,"true"
"image-keyboard-response",517,363921,"0.0-4.168-1.168","xo2uzc5keh8cdno",414,"89.csv","","null","resources/maskTrios/L1BB.jpg","null","",NA,NA,NA,NA,""
"image-keyboard-response",518,365129,"0.0-4.168-2.168","xo2uzc5keh8cdno",414,"89.csv","","null","resources/images/coin2.png","null","",NA,NA,NA,NA,""
"image-keyboard-response",519,365387,"0.0-4.169-0.169","xo2uzc5keh8cdno",414,"89.csv","","256.19999999925494","resources/trios/L1T4A3.jpg","37","restless",0.7,0.4,0.3,0.702642882681096,"false"
"image-keyboard-response",520,365793,"0.0-4.169-1.169","xo2uzc5keh8cdno",414,"89.csv","","null","resources/maskTrios/L1BB.jpg","null","",NA,NA,NA,NA,""
"image-keyboard-response",521,367000,"0.0-4.169-2.169","xo2uzc5keh8cdno",414,"89.csv","","null","resources/images/fishbone.png","null","",NA,NA,NA,NA,""
"image-keyboard-response",522,367255,"0.0-4.170-0.170","xo2uzc5keh8cdno",414,"89.csv","","252.2000000011176","resources/trios/L1T4A3.jpg","37","restless",0.7,0.4,0.4,0.288991621153156,"true"
"image-keyboard-response",523,367662,"0.0-4.170-1.170","xo2uzc5keh8cdno",414,"89.csv","","null","resources/maskTrios/L1BB.jpg","null","",NA,NA,NA,NA,""
"image-keyboard-response",524,368869,"0.0-4.170-2.170","xo2uzc5keh8cdno",414,"89.csv","","null","resources/images/coin2.png","null","",NA,NA,NA,NA,""
"image-keyboard-response",525,369193,"0.0-4.171-0.171","xo2uzc5keh8cdno",414,"89.csv","","321","resources/trios/L1T4A3.jpg","37","restless",0.7,0.4,0.4,0.808304309916033,"false"
"image-keyboard-response",526,369599,"0.0-4.171-1.171","xo2uzc5keh8cdno",414,"89.csv","","null","resources/maskTrios/L1BB.jpg","null","",NA,NA,NA,NA,""
"image-keyboard-response",527,370807,"0.0-4.171-2.171","xo2uzc5keh8cdno",414,"89.csv","","null","resources/images/fishbone.png","null","",NA,NA,NA,NA,""
"image-keyboard-response",528,371159,"0.0-4.172-0.172","xo2uzc5keh8cdno",414,"89.csv","","349.19999999925494","resources/trios/L1T4A3.jpg","37","restless",0.7,0.4,0.4,0.181109735210861,"true"
"image-keyboard-response",529,371567,"0.0-4.172-1.172","xo2uzc5keh8cdno",414,"89.csv","","null","resources/maskTrios/L1BB.jpg","null","",NA,NA,NA,NA,""
"image-keyboard-response",530,372775,"0.0-4.172-2.172","xo2uzc5keh8cdno",414,"89.csv","","null","resources/images/coin2.png","null","",NA,NA,NA,NA,""
"image-keyboard-response",531,372975,"0.0-4.173-0.173","xo2uzc5keh8cdno",414,"89.csv","","197.30000000074506","resources/trios/L1T4A3.jpg","37","restless",0.7,0.4,0.4,0.451260712483449,"true"
"image-keyboard-response",532,373384,"0.0-4.173-1.173","xo2uzc5keh8cdno",414,"89.csv","","null","resources/maskTrios/L1BB.jpg","null","",NA,NA,NA,NA,""
"image-keyboard-response",533,374592,"0.0-4.173-2.173","xo2uzc5keh8cdno",414,"89.csv","","null","resources/images/coin2.png","null","",NA,NA,NA,NA,""
"image-keyboard-response",534,374805,"0.0-4.174-0.174","xo2uzc5keh8cdno",414,"89.csv","","210","resources/trios/L1T4A3.jpg","37","restless",0.7,0.4,0.4,0.230012595981448,"true"
"image-keyboard-response",535,375209,"0.0-4.174-1.174","xo2uzc5keh8cdno",414,"89.csv","","null","resources/maskTrios/L1BB.jpg","null","",NA,NA,NA,NA,""
"image-keyboard-response",536,376417,"0.0-4.174-2.174","xo2uzc5keh8cdno",414,"89.csv","","null","resources/images/coin2.png","null","",NA,NA,NA,NA,""
"image-keyboard-response",537,376686,"0.0-4.175-0.175","xo2uzc5keh8cdno",414,"89.csv","","266.30000000074506","resources/trios/L1T4A3.jpg","37","restless",0.7,0.4,0.4,0.757527888931369,"false"
"image-keyboard-response",538,377090,"0.0-4.175-1.175","xo2uzc5keh8cdno",414,"89.csv","","null","resources/maskTrios/L1BB.jpg","null","",NA,NA,NA,NA,""
"image-keyboard-response",539,378297,"0.0-4.175-2.175","xo2uzc5keh8cdno",414,"89.csv","","null","resources/images/fishbone.png","null","",NA,NA,NA,NA,""
"image-keyboard-response",540,378555,"0.0-4.176-0.176","xo2uzc5keh8cdno",414,"89.csv","","256.09999999962747","resources/trios/L1T4A3.jpg","37","restless",0.8,0.4,0.4,0.225580643950205,"true"
"image-keyboard-response",541,378963,"0.0-4.176-1.176","xo2uzc5keh8cdno",414,"89.csv","","null","resources/maskTrios/L1BB.jpg","null","",NA,NA,NA,NA,""
"image-keyboard-response",542,380166,"0.0-4.176-2.176","xo2uzc5keh8cdno",414,"89.csv","","null","resources/images/coin2.png","null","",NA,NA,NA,NA,""
"image-keyboard-response",543,380423,"0.0-4.177-0.177","xo2uzc5keh8cdno",414,"89.csv","","256.1000000014901","resources/trios/L1T4A3.jpg","37","restless",0.9,0.4,0.4,0.517791842289935,"true"
"image-keyboard-response",544,380830,"0.0-4.177-1.177","xo2uzc5keh8cdno",414,"89.csv","","null","resources/maskTrios/L1BB.jpg","null","",NA,NA,NA,NA,""
"image-keyboard-response",545,382037,"0.0-4.177-2.177","xo2uzc5keh8cdno",414,"89.csv","","null","resources/images/coin2.png","null","",NA,NA,NA,NA,""
"image-keyboard-response",546,382200,"0.0-4.178-0.178","xo2uzc5keh8cdno",414,"89.csv","","160","resources/trios/L1T4A3.jpg","37","restless",0.8,0.4,0.4,0.479169731427032,"true"
"image-keyboard-response",547,382607,"0.0-4.178-1.178","xo2uzc5keh8cdno",414,"89.csv","","null","resources/maskTrios/L1BB.jpg","null","",NA,NA,NA,NA,""
"image-keyboard-response",548,383816,"0.0-4.178-2.178","xo2uzc5keh8cdno",414,"89.csv","","null","resources/images/coin2.png","null","",NA,NA,NA,NA,""
"image-keyboard-response",549,384120,"0.0-4.179-0.179","xo2uzc5keh8cdno",414,"89.csv","","301.40000000037253","resources/trios/L1T4A3.jpg","37","restless",0.7,0.4,0.4,0.0333476913798123,"true"
"image-keyboard-response",550,384525,"0.0-4.179-1.179","xo2uzc5keh8cdno",414,"89.csv","","null","resources/maskTrios/L1BB.jpg","null","",NA,NA,NA,NA,""
"image-keyboard-response",551,385733,"0.0-4.179-2.179","xo2uzc5keh8cdno",414,"89.csv","","null","resources/images/coin2.png","null","",NA,NA,NA,NA,""
"image-keyboard-response",552,386023,"0.0-4.180-0.180","xo2uzc5keh8cdno",414,"89.csv","","287.90000000037253","resources/trios/L1T4A3.jpg","37","restless",0.7,0.4,0.3,0.0902022801585016,"true"
"image-keyboard-response",553,386431,"0.0-4.180-1.180","xo2uzc5keh8cdno",414,"89.csv","","null","resources/maskTrios/L1BB.jpg","null","",NA,NA,NA,NA,""
"image-keyboard-response",554,387640,"0.0-4.180-2.180","xo2uzc5keh8cdno",414,"89.csv","","null","resources/images/coin2.png","null","",NA,NA,NA,NA,""
"image-keyboard-response",555,387910,"0.0-4.181-0.181","xo2uzc5keh8cdno",414,"89.csv","","267.69999999925494","resources/trios/L1T4A3.jpg","37","restless",0.7,0.4,0.3,0.40650389074625,"true"
"image-keyboard-response",556,388317,"0.0-4.181-1.181","xo2uzc5keh8cdno",414,"89.csv","","null","resources/maskTrios/L1BB.jpg","null","",NA,NA,NA,NA,""
"image-keyboard-response",557,389524,"0.0-4.181-2.181","xo2uzc5keh8cdno",414,"89.csv","","null","resources/images/coin2.png","null","",NA,NA,NA,NA,""
"image-keyboard-response",558,390345,"0.0-4.182-0.182","xo2uzc5keh8cdno",414,"89.csv","","818.1999999992549","resources/trios/L1T4A3.jpg","37","restless",0.7,0.5,0.3,0.997665951065306,"false"
"image-keyboard-response",559,390753,"0.0-4.182-1.182","xo2uzc5keh8cdno",414,"89.csv","","null","resources/maskTrios/L1BB.jpg","null","",NA,NA,NA,NA,""
"image-keyboard-response",560,391961,"0.0-4.182-2.182","xo2uzc5keh8cdno",414,"89.csv","","null","resources/images/fishbone.png","null","",NA,NA,NA,NA,""
"image-keyboard-response",561,392217,"0.0-4.183-0.183","xo2uzc5keh8cdno",414,"89.csv","","253.7000000011176","resources/trios/L1T4A3.jpg","37","restless",0.7,0.5,0.3,0.572103302552681,"true"
"image-keyboard-response",562,392625,"0.0-4.183-1.183","xo2uzc5keh8cdno",414,"89.csv","","null","resources/maskTrios/L1BB.jpg","null","",NA,NA,NA,NA,""
"image-keyboard-response",563,393832,"0.0-4.183-2.183","xo2uzc5keh8cdno",414,"89.csv","","null","resources/images/coin2.png","null","",NA,NA,NA,NA,""
"image-keyboard-response",564,394218,"0.0-4.184-0.184","xo2uzc5keh8cdno",414,"89.csv","","383.19999999925494","resources/trios/L1T4A3.jpg","37","restless",0.7,0.5,0.4,0.531701881367624,"true"
"image-keyboard-response",565,394625,"0.0-4.184-1.184","xo2uzc5keh8cdno",414,"89.csv","","null","resources/maskTrios/L1BB.jpg","null","",NA,NA,NA,NA,""
"image-keyboard-response",566,395834,"0.0-4.184-2.184","xo2uzc5keh8cdno",414,"89.csv","","null","resources/images/coin2.png","null","",NA,NA,NA,NA,""
"image-keyboard-response",567,396070,"0.0-4.185-0.185","xo2uzc5keh8cdno",414,"89.csv","","234.40000000037253","resources/trios/L1T4A3.jpg","37","restless",0.7,0.5,0.4,0.426422151753182,"true"
"image-keyboard-response",568,396473,"0.0-4.185-1.185","xo2uzc5keh8cdno",414,"89.csv","","null","resources/maskTrios/L1BB.jpg","null","",NA,NA,NA,NA,""
"image-keyboard-response",569,397677,"0.0-4.185-2.185","xo2uzc5keh8cdno",414,"89.csv","","null","resources/images/coin2.png","null","",NA,NA,NA,NA,""
"image-keyboard-response",570,398115,"0.0-4.186-0.186","xo2uzc5keh8cdno",414,"89.csv","","436.5","resources/trios/L1T4A3.jpg","37","restless",0.7,0.5,0.4,0.976167426002507,"false"
"image-keyboard-response",571,398522,"0.0-4.186-1.186","xo2uzc5keh8cdno",414,"89.csv","","null","resources/maskTrios/L1BB.jpg","null","",NA,NA,NA,NA,""
"image-keyboard-response",572,399728,"0.0-4.186-2.186","xo2uzc5keh8cdno",414,"89.csv","","null","resources/images/fishbone.png","null","",NA,NA,NA,NA,""
"image-keyboard-response",573,399981,"0.0-4.187-0.187","xo2uzc5keh8cdno",414,"89.csv","","250.2999999988824","resources/trios/L1T4A3.jpg","37","restless",0.7,0.5,0.4,0.240193293000482,"true"
"image-keyboard-response",574,400386,"0.0-4.187-1.187","xo2uzc5keh8cdno",414,"89.csv","","null","resources/maskTrios/L1BB.jpg","null","",NA,NA,NA,NA,""
"image-keyboard-response",575,401593,"0.0-4.187-2.187","xo2uzc5keh8cdno",414,"89.csv","","null","resources/images/coin2.png","null","",NA,NA,NA,NA,""
"image-keyboard-response",576,401843,"0.0-4.188-0.188","xo2uzc5keh8cdno",414,"89.csv","","247.40000000037253","resources/trios/L1T4A3.jpg","37","restless",0.7,0.5,0.4,0.142118245956036,"true"
"image-keyboard-response",577,402252,"0.0-4.188-1.188","xo2uzc5keh8cdno",414,"89.csv","","null","resources/maskTrios/L1BB.jpg","null","",NA,NA,NA,NA,""
"image-keyboard-response",578,403460,"0.0-4.188-2.188","xo2uzc5keh8cdno",414,"89.csv","","null","resources/images/coin2.png","null","",NA,NA,NA,NA,""
"image-keyboard-response",579,403704,"0.0-4.189-0.189","xo2uzc5keh8cdno",414,"89.csv","","242.2000000011176","resources/trios/L1T4A3.jpg","37","restless",0.7,0.5,0.4,0.0295270530710785,"true"
"image-keyboard-response",580,404111,"0.0-4.189-1.189","xo2uzc5keh8cdno",414,"89.csv","","null","resources/maskTrios/L1BB.jpg","null","",NA,NA,NA,NA,""
"image-keyboard-response",581,405319,"0.0-4.189-2.189","xo2uzc5keh8cdno",414,"89.csv","","null","resources/images/coin2.png","null","",NA,NA,NA,NA,""
"image-keyboard-response",582,405515,"0.0-4.190-0.190","xo2uzc5keh8cdno",414,"89.csv","","193.2000000011176","resources/trios/L1T4A3.jpg","37","restless",0.7,0.5,0.4,0.573959232381804,"true"
"image-keyboard-response",583,405922,"0.0-4.190-1.190","xo2uzc5keh8cdno",414,"89.csv","","null","resources/maskTrios/L1BB.jpg","null","",NA,NA,NA,NA,""
"image-keyboard-response",584,407131,"0.0-4.190-2.190","xo2uzc5keh8cdno",414,"89.csv","","null","resources/images/coin2.png","null","",NA,NA,NA,NA,""
"image-keyboard-response",585,407386,"0.0-4.191-0.191","xo2uzc5keh8cdno",414,"89.csv","","252.5","resources/trios/L1T4A3.jpg","37","restless",0.7,0.5,0.4,0.355876108326878,"true"
"image-keyboard-response",586,407793,"0.0-4.191-1.191","xo2uzc5keh8cdno",414,"89.csv","","null","resources/maskTrios/L1BB.jpg","null","",NA,NA,NA,NA,""
"image-keyboard-response",587,409000,"0.0-4.191-2.191","xo2uzc5keh8cdno",414,"89.csv","","null","resources/images/coin2.png","null","",NA,NA,NA,NA,""
"image-keyboard-response",588,409202,"0.0-4.192-0.192","xo2uzc5keh8cdno",414,"89.csv","","199.69999999925494","resources/trios/L1T4A3.jpg","37","restless",0.7,0.6,0.5,0.523040826072523,"true"
"image-keyboard-response",589,409609,"0.0-4.192-1.192","xo2uzc5keh8cdno",414,"89.csv","","null","resources/maskTrios/L1BB.jpg","null","",NA,NA,NA,NA,""
"image-keyboard-response",590,410816,"0.0-4.192-2.192","xo2uzc5keh8cdno",414,"89.csv","","null","resources/images/coin2.png","null","",NA,NA,NA,NA,""
"image-keyboard-response",591,410939,"0.0-4.193-0.193","xo2uzc5keh8cdno",414,"89.csv","","119.80000000074506","resources/trios/L1T4A3.jpg","37","restless",0.7,0.6,0.5,0.300611042774065,"true"
"image-keyboard-response",592,411346,"0.0-4.193-1.193","xo2uzc5keh8cdno",414,"89.csv","","null","resources/maskTrios/L1BB.jpg","null","",NA,NA,NA,NA,""
"image-keyboard-response",593,412550,"0.0-4.193-2.193","xo2uzc5keh8cdno",414,"89.csv","","null","resources/images/coin2.png","null","",NA,NA,NA,NA,""
"image-keyboard-response",594,413627,"0.0-4.194-0.194","xo2uzc5keh8cdno",414,"89.csv","","1074.5","resources/trios/L1T4A3.jpg","37","restless",0.7,0.7,0.4,0.372396333757124,"true"
"image-keyboard-response",595,414034,"0.0-4.194-1.194","xo2uzc5keh8cdno",414,"89.csv","","null","resources/maskTrios/L1BB.jpg","null","",NA,NA,NA,NA,""
"image-keyboard-response",596,415242,"0.0-4.194-2.194","xo2uzc5keh8cdno",414,"89.csv","","null","resources/images/coin2.png","null","",NA,NA,NA,NA,""
"image-keyboard-response",597,415555,"0.0-4.195-0.195","xo2uzc5keh8cdno",414,"89.csv","","310.80000000074506","resources/trios/L1T4A3.jpg","37","restless",0.6,0.7,0.4,0.958551165166775,"false"
"image-keyboard-response",598,415963,"0.0-4.195-1.195","xo2uzc5keh8cdno",414,"89.csv","","null","resources/maskTrios/L1BB.jpg","null","",NA,NA,NA,NA,""
"image-keyboard-response",599,417171,"0.0-4.195-2.195","xo2uzc5keh8cdno",414,"89.csv","","null","resources/images/fishbone.png","null","",NA,NA,NA,NA,""
"image-keyboard-response",600,417452,"0.0-4.196-0.196","xo2uzc5keh8cdno",414,"89.csv","","278.40000000037253","resources/trios/L1T4A3.jpg","37","restless",0.6,0.7,0.5,0.936004178941922,"false"
"image-keyboard-response",601,417860,"0.0-4.196-1.196","xo2uzc5keh8cdno",414,"89.csv","","null","resources/maskTrios/L1BB.jpg","null","",NA,NA,NA,NA,""
"image-keyboard-response",602,419067,"0.0-4.196-2.196","xo2uzc5keh8cdno",414,"89.csv","","null","resources/images/fishbone.png","null","",NA,NA,NA,NA,""
"image-keyboard-response",603,419323,"0.0-4.197-0.197","xo2uzc5keh8cdno",414,"89.csv","","253.09999999962747","resources/trios/L1T4A3.jpg","37","restless",0.6,0.7,0.5,0.747281291762345,"false"
"image-keyboard-response",604,419730,"0.0-4.197-1.197","xo2uzc5keh8cdno",414,"89.csv","","null","resources/maskTrios/L1BB.jpg","null","",NA,NA,NA,NA,""
"image-keyboard-response",605,420938,"0.0-4.197-2.197","xo2uzc5keh8cdno",414,"89.csv","","null","resources/images/fishbone.png","null","",NA,NA,NA,NA,""
"image-keyboard-response",606,421320,"0.0-4.198-0.198","xo2uzc5keh8cdno",414,"89.csv","","379.09999999962747","resources/trios/L1T4A3.jpg","37","restless",0.7,0.7,0.5,0.945844410072556,"false"
"image-keyboard-response",607,421728,"0.0-4.198-1.198","xo2uzc5keh8cdno",414,"89.csv","","null","resources/maskTrios/L1BB.jpg","null","",NA,NA,NA,NA,""
"image-keyboard-response",608,422935,"0.0-4.198-2.198","xo2uzc5keh8cdno",414,"89.csv","","null","resources/images/fishbone.png","null","",NA,NA,NA,NA,""
"image-keyboard-response",609,423112,"0.0-4.199-0.199","xo2uzc5keh8cdno",414,"89.csv","","174.09999999962747","resources/trios/L1T4A3.jpg","37","restless",0.7,0.7,0.5,0.334246304315248,"true"
"image-keyboard-response",610,423518,"0.0-4.199-1.199","xo2uzc5keh8cdno",414,"89.csv","","null","resources/maskTrios/L1BB.jpg","null","",NA,NA,NA,NA,""
"image-keyboard-response",611,424724,"0.0-4.199-2.199","xo2uzc5keh8cdno",414,"89.csv","","null","resources/images/coin2.png","null","",NA,NA,NA,NA,""
"survey-text",612,466770,"0.0-5.0","xo2uzc5keh8cdno",414,"89.csv","","42038.89999999851","","","",NA,NA,NA,NA,""
