"trial_type","trial_index","time_elapsed","internal_node_id","subject","participantCode","walkNumber","success","rt","stimulus","key_press","test_part","leftProb","midProb","rightProb","generatedNum","correct"
"pavlovia",0,622,"0.0-0.0","4sqdq9k0tqsmjo9",262,"1.csv","","","","","",NA,NA,NA,NA,""
"fullscreen",1,3192,"0.0-1.0","4sqdq9k0tqsmjo9",262,"1.csv","true","","","","",NA,NA,NA,NA,""
"survey-html-form",2,11653,"0.0-2.0","4sqdq9k0tqsmjo9",262,"1.csv","","8459.700000000186","","","",NA,NA,NA,NA,""
"image-keyboard-response",3,17347,"0.0-3.0-0.0","4sqdq9k0tqsmjo9",262,"1.csv","","5693","resources/images/parrot_nobg.png","13","",NA,NA,NA,NA,""
"image-keyboard-response",4,20354,"0.0-3.0-1.0","4sqdq9k0tqsmjo9",262,"1.csv","","null","resources/image_sets/111.png","null","",NA,NA,NA,NA,""
"image-keyboard-response",5,22956,"0.0-3.0-2.0","4sqdq9k0tqsmjo9",262,"1.csv","","2600.399999999907","resources/image_sets/left_highlight.png","37","",NA,NA,NA,NA,""
"image-keyboard-response",6,23617,"0.0-3.0-3.0","4sqdq9k0tqsmjo9",262,"1.csv","","660.8000000002794","resources/image_sets/mid_highlight.png","38","",NA,NA,NA,NA,""
"image-keyboard-response",7,23838,"0.0-3.0-4.0","4sqdq9k0tqsmjo9",262,"1.csv","","220","resources/image_sets/right_highlight.png","39","",NA,NA,NA,NA,""
"image-keyboard-response",8,25936,"0.0-3.0-5.0","4sqdq9k0tqsmjo9",262,"1.csv","","2096.899999999907","resources/image_sets/111.png","13","",NA,NA,NA,NA,""
"image-keyboard-response",9,28360,"0.0-3.0-6.0","4sqdq9k0tqsmjo9",262,"1.csv","","2423.399999999907","resources/images/coin2.png","13","",NA,NA,NA,NA,""
"image-keyboard-response",10,29115,"0.0-3.0-7.0","4sqdq9k0tqsmjo9",262,"1.csv","","754","resources/images/fishbone.png","13","",NA,NA,NA,NA,""
"html-keyboard-response",11,29367,"0.0-3.0-8.0","4sqdq9k0tqsmjo9",262,"1.csv","","252","<p>You can track your coin total on the top right of your screen. </p><p>At the end of your journey you will be directed to a survey, so please click on the link before exiting the task</p><p>Press Enter to begin</p>","13","",NA,NA,NA,NA,""
"image-keyboard-response",12,30396,"0.0-4.0-0.0","4sqdq9k0tqsmjo9",262,"1.csv","","1027.7000000001863","resources/trios/L4T4A3.jpg","39","restless",0.9,0.3,0.7,0.85095210654257,"false"
"image-keyboard-response",13,30803,"0.0-4.0-1.0","4sqdq9k0tqsmjo9",262,"1.csv","","null","resources/maskTrios/BBA3.jpg","null","",NA,NA,NA,NA,""
"image-keyboard-response",14,32019,"0.0-4.0-2.0","4sqdq9k0tqsmjo9",262,"1.csv","","null","resources/images/fishbone.png","null","",NA,NA,NA,NA,""
"image-keyboard-response",15,32116,"0.0-4.1-0.1","4sqdq9k0tqsmjo9",262,"1.csv","","96.5","resources/trios/L4T4A3.jpg","37","restless",0.9,0.3,0.8,0.591684455260386,"true"
"image-keyboard-response",16,32519,"0.0-4.1-1.1","4sqdq9k0tqsmjo9",262,"1.csv","","null","resources/maskTrios/L4BB.jpg","null","",NA,NA,NA,NA,""
"image-keyboard-response",17,33731,"0.0-4.1-2.1","4sqdq9k0tqsmjo9",262,"1.csv","","null","resources/images/coin2.png","null","",NA,NA,NA,NA,""
"image-keyboard-response",18,33917,"0.0-4.2-0.2","4sqdq9k0tqsmjo9",262,"1.csv","","184.60000000009313","resources/trios/L4T4A3.jpg","39","restless",0.9,0.3,0.9,0.6557982950721,"true"
"image-keyboard-response",19,34322,"0.0-4.2-1.2","4sqdq9k0tqsmjo9",262,"1.csv","","null","resources/maskTrios/BBA3.jpg","null","",NA,NA,NA,NA,""
"image-keyboard-response",20,35537,"0.0-4.2-2.2","4sqdq9k0tqsmjo9",262,"1.csv","","null","resources/images/coin2.png","null","",NA,NA,NA,NA,""
"image-keyboard-response",21,35669,"0.0-4.3-0.3","4sqdq9k0tqsmjo9",262,"1.csv","","131","resources/trios/L4T4A3.jpg","37","restless",0.9,0.3,0.9,0.537726353511802,"true"
"image-keyboard-response",22,36082,"0.0-4.3-1.3","4sqdq9k0tqsmjo9",262,"1.csv","","null","resources/maskTrios/L4BB.jpg","null","",NA,NA,NA,NA,""
"image-keyboard-response",23,37296,"0.0-4.3-2.3","4sqdq9k0tqsmjo9",262,"1.csv","","null","resources/images/coin2.png","null","",NA,NA,NA,NA,""
"image-keyboard-response",24,37326,"0.0-4.4-0.4","4sqdq9k0tqsmjo9",262,"1.csv","","28.399999999906868","resources/trios/L4T4A3.jpg","39","restless",0.9,0.2,0.9,0.884153111371808,"true"
"image-keyboard-response",25,37732,"0.0-4.4-1.4","4sqdq9k0tqsmjo9",262,"1.csv","","null","resources/maskTrios/BBA3.jpg","null","",NA,NA,NA,NA,""
"image-keyboard-response",26,38948,"0.0-4.4-2.4","4sqdq9k0tqsmjo9",262,"1.csv","","null","resources/images/coin2.png","null","",NA,NA,NA,NA,""
"image-keyboard-response",27,39007,"0.0-4.5-0.5","4sqdq9k0tqsmjo9",262,"1.csv","","58.10000000009313","resources/trios/L4T4A3.jpg","37","restless",0.9,0.2,0.9,0.334038891961908,"true"
"image-keyboard-response",28,39415,"0.0-4.5-1.5","4sqdq9k0tqsmjo9",262,"1.csv","","null","resources/maskTrios/L4BB.jpg","null","",NA,NA,NA,NA,""
"image-keyboard-response",29,40629,"0.0-4.5-2.5","4sqdq9k0tqsmjo9",262,"1.csv","","null","resources/images/coin2.png","null","",NA,NA,NA,NA,""
"image-keyboard-response",30,40671,"0.0-4.6-0.6","4sqdq9k0tqsmjo9",262,"1.csv","","40.89999999990687","resources/trios/L4T4A3.jpg","39","restless",0.8,0.2,0.9,0.68119847990243,"true"
"image-keyboard-response",31,41078,"0.0-4.6-1.6","4sqdq9k0tqsmjo9",262,"1.csv","","null","resources/maskTrios/BBA3.jpg","null","",NA,NA,NA,NA,""
"image-keyboard-response",32,42290,"0.0-4.6-2.6","4sqdq9k0tqsmjo9",262,"1.csv","","null","resources/images/coin2.png","null","",NA,NA,NA,NA,""
"image-keyboard-response",33,42405,"0.0-4.7-0.7","4sqdq9k0tqsmjo9",262,"1.csv","","114","resources/trios/L4T4A3.jpg","39","restless",0.8,0.2,0.8,0.041099909578459,"true"
"image-keyboard-response",34,42818,"0.0-4.7-1.7","4sqdq9k0tqsmjo9",262,"1.csv","","null","resources/maskTrios/BBA3.jpg","null","",NA,NA,NA,NA,""
"image-keyboard-response",35,44034,"0.0-4.7-2.7","4sqdq9k0tqsmjo9",262,"1.csv","","null","resources/images/coin2.png","null","",NA,NA,NA,NA,""
"image-keyboard-response",36,44130,"0.0-4.8-0.8","4sqdq9k0tqsmjo9",262,"1.csv","","95.10000000009313","resources/trios/L4T4A3.jpg","37","restless",0.8,0.2,0.8,0.420449184639524,"true"
"image-keyboard-response",37,44533,"0.0-4.8-1.8","4sqdq9k0tqsmjo9",262,"1.csv","","null","resources/maskTrios/L4BB.jpg","null","",NA,NA,NA,NA,""
"image-keyboard-response",38,45747,"0.0-4.8-2.8","4sqdq9k0tqsmjo9",262,"1.csv","","null","resources/images/coin2.png","null","",NA,NA,NA,NA,""
"image-keyboard-response",39,45814,"0.0-4.9-0.9","4sqdq9k0tqsmjo9",262,"1.csv","","65.10000000009313","resources/trios/L4T4A3.jpg","37","restless",0.8,0.2,0.8,0.708202395754022,"true"
"image-keyboard-response",40,46230,"0.0-4.9-1.9","4sqdq9k0tqsmjo9",262,"1.csv","","null","resources/maskTrios/L4BB.jpg","null","",NA,NA,NA,NA,""
"image-keyboard-response",41,47443,"0.0-4.9-2.9","4sqdq9k0tqsmjo9",262,"1.csv","","null","resources/images/coin2.png","null","",NA,NA,NA,NA,""
"image-keyboard-response",42,47521,"0.0-4.10-0.10","4sqdq9k0tqsmjo9",262,"1.csv","","76.3000000002794","resources/trios/L4T4A3.jpg","37","restless",0.7,0.2,0.8,0.291320174048902,"true"
"image-keyboard-response",43,47929,"0.0-4.10-1.10","4sqdq9k0tqsmjo9",262,"1.csv","","null","resources/maskTrios/L4BB.jpg","null","",NA,NA,NA,NA,""
"image-keyboard-response",44,49145,"0.0-4.10-2.10","4sqdq9k0tqsmjo9",262,"1.csv","","null","resources/images/coin2.png","null","",NA,NA,NA,NA,""
"image-keyboard-response",45,49562,"0.0-4.11-0.11","4sqdq9k0tqsmjo9",262,"1.csv","","416.3000000002794","resources/trios/L4T4A3.jpg","39","restless",0.6,0.2,0.8,0.893574030725388,"false"
"image-keyboard-response",46,49971,"0.0-4.11-1.11","4sqdq9k0tqsmjo9",262,"1.csv","","null","resources/maskTrios/BBA3.jpg","null","",NA,NA,NA,NA,""
"image-keyboard-response",47,51174,"0.0-4.11-2.11","4sqdq9k0tqsmjo9",262,"1.csv","","null","resources/images/fishbone.png","null","",NA,NA,NA,NA,""
"image-keyboard-response",48,51267,"0.0-4.12-0.12","4sqdq9k0tqsmjo9",262,"1.csv","","91.79999999981374","resources/trios/L4T4A3.jpg","37","restless",0.6,0.1,0.8,0.541448066951135,"true"
"image-keyboard-response",49,51674,"0.0-4.12-1.12","4sqdq9k0tqsmjo9",262,"1.csv","","null","resources/maskTrios/L4BB.jpg","null","",NA,NA,NA,NA,""
"image-keyboard-response",50,52877,"0.0-4.12-2.12","4sqdq9k0tqsmjo9",262,"1.csv","","null","resources/images/coin2.png","null","",NA,NA,NA,NA,""
"image-keyboard-response",51,53084,"0.0-4.13-0.13","4sqdq9k0tqsmjo9",262,"1.csv","","206.20000000018626","resources/trios/L4T4A3.jpg","39","restless",0.5,0.1,0.8,0.367442234745,"true"
"image-keyboard-response",52,53496,"0.0-4.13-1.13","4sqdq9k0tqsmjo9",262,"1.csv","","null","resources/maskTrios/BBA3.jpg","null","",NA,NA,NA,NA,""
"image-keyboard-response",53,54706,"0.0-4.13-2.13","4sqdq9k0tqsmjo9",262,"1.csv","","null","resources/images/coin2.png","null","",NA,NA,NA,NA,""
"image-keyboard-response",54,54795,"0.0-4.14-0.14","4sqdq9k0tqsmjo9",262,"1.csv","","89","resources/trios/L4T4A3.jpg","37","restless",0.5,0.1,0.7,0.490750311275505,"true"
"image-keyboard-response",55,55207,"0.0-4.14-1.14","4sqdq9k0tqsmjo9",262,"1.csv","","null","resources/maskTrios/L4BB.jpg","null","",NA,NA,NA,NA,""
"image-keyboard-response",56,56423,"0.0-4.14-2.14","4sqdq9k0tqsmjo9",262,"1.csv","","null","resources/images/coin2.png","null","",NA,NA,NA,NA,""
"image-keyboard-response",57,56498,"0.0-4.15-0.15","4sqdq9k0tqsmjo9",262,"1.csv","","74.59999999962747","resources/trios/L4T4A3.jpg","39","restless",0.5,0.1,0.6,0.970341400936421,"false"
"image-keyboard-response",58,56905,"0.0-4.15-1.15","4sqdq9k0tqsmjo9",262,"1.csv","","null","resources/maskTrios/BBA3.jpg","null","",NA,NA,NA,NA,""
"image-keyboard-response",59,58107,"0.0-4.15-2.15","4sqdq9k0tqsmjo9",262,"1.csv","","null","resources/images/fishbone.png","null","",NA,NA,NA,NA,""
"image-keyboard-response",60,58487,"0.0-4.16-0.16","4sqdq9k0tqsmjo9",262,"1.csv","","380","resources/trios/L4T4A3.jpg","37","restless",0.5,0.1,0.6,0.380746351144558,"true"
"image-keyboard-response",61,58890,"0.0-4.16-1.16","4sqdq9k0tqsmjo9",262,"1.csv","","null","resources/maskTrios/L4BB.jpg","null","",NA,NA,NA,NA,""
"image-keyboard-response",62,60100,"0.0-4.16-2.16","4sqdq9k0tqsmjo9",262,"1.csv","","null","resources/images/coin2.png","null","",NA,NA,NA,NA,""
"image-keyboard-response",63,60273,"0.0-4.17-0.17","4sqdq9k0tqsmjo9",262,"1.csv","","172.39999999990687","resources/trios/L4T4A3.jpg","39","restless",0.5,0.1,0.6,0.313953997985463,"true"
"image-keyboard-response",64,60676,"0.0-4.17-1.17","4sqdq9k0tqsmjo9",262,"1.csv","","null","resources/maskTrios/BBA3.jpg","null","",NA,NA,NA,NA,""
"image-keyboard-response",65,61891,"0.0-4.17-2.17","4sqdq9k0tqsmjo9",262,"1.csv","","null","resources/images/coin2.png","null","",NA,NA,NA,NA,""
"image-keyboard-response",66,61934,"0.0-4.18-0.18","4sqdq9k0tqsmjo9",262,"1.csv","","41.700000000186265","resources/trios/L4T4A3.jpg","37","restless",0.5,0.1,0.6,0.437763599466758,"true"
"image-keyboard-response",67,62345,"0.0-4.18-1.18","4sqdq9k0tqsmjo9",262,"1.csv","","null","resources/maskTrios/L4BB.jpg","null","",NA,NA,NA,NA,""
"image-keyboard-response",68,63556,"0.0-4.18-2.18","4sqdq9k0tqsmjo9",262,"1.csv","","null","resources/images/coin2.png","null","",NA,NA,NA,NA,""
"image-keyboard-response",69,63650,"0.0-4.19-0.19","4sqdq9k0tqsmjo9",262,"1.csv","","92.70000000018626","resources/trios/L4T4A3.jpg","39","restless",0.4,0.1,0.6,0.162454337666319,"true"
"image-keyboard-response",70,64055,"0.0-4.19-1.19","4sqdq9k0tqsmjo9",262,"1.csv","","null","resources/maskTrios/BBA3.jpg","null","",NA,NA,NA,NA,""
"image-keyboard-response",71,65268,"0.0-4.19-2.19","4sqdq9k0tqsmjo9",262,"1.csv","","null","resources/images/coin2.png","null","",NA,NA,NA,NA,""
"image-keyboard-response",72,65408,"0.0-4.20-0.20","4sqdq9k0tqsmjo9",262,"1.csv","","139.10000000009313","resources/trios/L4T4A3.jpg","39","restless",0.4,0.1,0.6,0.64957825122045,"false"
"image-keyboard-response",73,65815,"0.0-4.20-1.20","4sqdq9k0tqsmjo9",262,"1.csv","","null","resources/maskTrios/BBA3.jpg","null","",NA,NA,NA,NA,""
"image-keyboard-response",74,67030,"0.0-4.20-2.20","4sqdq9k0tqsmjo9",262,"1.csv","","null","resources/images/fishbone.png","null","",NA,NA,NA,NA,""
"image-keyboard-response",75,67077,"0.0-4.21-0.21","4sqdq9k0tqsmjo9",262,"1.csv","","45.8000000002794","resources/trios/L4T4A3.jpg","37","restless",0.4,0.1,0.6,0.971059350666949,"false"
"image-keyboard-response",76,67484,"0.0-4.21-1.21","4sqdq9k0tqsmjo9",262,"1.csv","","null","resources/maskTrios/L4BB.jpg","null","",NA,NA,NA,NA,""
"image-keyboard-response",77,68692,"0.0-4.21-2.21","4sqdq9k0tqsmjo9",262,"1.csv","","null","resources/images/fishbone.png","null","",NA,NA,NA,NA,""
"image-keyboard-response",78,68834,"0.0-4.22-0.22","4sqdq9k0tqsmjo9",262,"1.csv","","140.90000000037253","resources/trios/L4T4A3.jpg","39","restless",0.5,0.2,0.6,0.502077013992727,"true"
"image-keyboard-response",79,69248,"0.0-4.22-1.22","4sqdq9k0tqsmjo9",262,"1.csv","","null","resources/maskTrios/BBA3.jpg","null","",NA,NA,NA,NA,""
"image-keyboard-response",80,70452,"0.0-4.22-2.22","4sqdq9k0tqsmjo9",262,"1.csv","","null","resources/images/coin2.png","null","",NA,NA,NA,NA,""
"image-keyboard-response",81,70510,"0.0-4.23-0.23","4sqdq9k0tqsmjo9",262,"1.csv","","57.10000000009313","resources/trios/L4T4A3.jpg","39","restless",0.5,0.2,0.6,0.543088389571539,"true"
"image-keyboard-response",82,70918,"0.0-4.23-1.23","4sqdq9k0tqsmjo9",262,"1.csv","","null","resources/maskTrios/BBA3.jpg","null","",NA,NA,NA,NA,""
"image-keyboard-response",83,72131,"0.0-4.23-2.23","4sqdq9k0tqsmjo9",262,"1.csv","","null","resources/images/coin2.png","null","",NA,NA,NA,NA,""
"image-keyboard-response",84,72226,"0.0-4.24-0.24","4sqdq9k0tqsmjo9",262,"1.csv","","93.39999999990687","resources/trios/L4T4A3.jpg","39","restless",0.5,0.2,0.6,0.447079741205706,"true"
"image-keyboard-response",85,72630,"0.0-4.24-1.24","4sqdq9k0tqsmjo9",262,"1.csv","","null","resources/maskTrios/BBA3.jpg","null","",NA,NA,NA,NA,""
"image-keyboard-response",86,73844,"0.0-4.24-2.24","4sqdq9k0tqsmjo9",262,"1.csv","","null","resources/images/coin2.png","null","",NA,NA,NA,NA,""
"image-keyboard-response",87,73988,"0.0-4.25-0.25","4sqdq9k0tqsmjo9",262,"1.csv","","143","resources/trios/L4T4A3.jpg","37","restless",0.5,0.2,0.6,0.828994807350532,"false"
"image-keyboard-response",88,74390,"0.0-4.25-1.25","4sqdq9k0tqsmjo9",262,"1.csv","","null","resources/maskTrios/L4BB.jpg","null","",NA,NA,NA,NA,""
"image-keyboard-response",89,75606,"0.0-4.25-2.25","4sqdq9k0tqsmjo9",262,"1.csv","","null","resources/images/fishbone.png","null","",NA,NA,NA,NA,""
"image-keyboard-response",90,75699,"0.0-4.26-0.26","4sqdq9k0tqsmjo9",262,"1.csv","","91.8000000002794","resources/trios/L4T4A3.jpg","37","restless",0.5,0.2,0.6,0.342899247290142,"true"
"image-keyboard-response",91,76105,"0.0-4.26-1.26","4sqdq9k0tqsmjo9",262,"1.csv","","null","resources/maskTrios/L4BB.jpg","null","",NA,NA,NA,NA,""
"image-keyboard-response",92,77320,"0.0-4.26-2.26","4sqdq9k0tqsmjo9",262,"1.csv","","null","resources/images/coin2.png","null","",NA,NA,NA,NA,""
"image-keyboard-response",93,80030,"0.0-4.27-0.27","4sqdq9k0tqsmjo9",262,"1.csv","","2709.0999999996275","resources/trios/L4T4A3.jpg","39","restless",0.5,0.1,0.6,0.483484524358084,"true"
"image-keyboard-response",94,80446,"0.0-4.27-1.27","4sqdq9k0tqsmjo9",262,"1.csv","","null","resources/maskTrios/BBA3.jpg","null","",NA,NA,NA,NA,""
"image-keyboard-response",95,81650,"0.0-4.27-2.27","4sqdq9k0tqsmjo9",262,"1.csv","","null","resources/images/coin2.png","null","",NA,NA,NA,NA,""
"image-keyboard-response",96,82045,"0.0-4.28-0.28","4sqdq9k0tqsmjo9",262,"1.csv","","394.20000000018626","resources/trios/L4T4A3.jpg","38","restless",0.5,0.1,0.5,0.490097503577724,"false"
"image-keyboard-response",97,82452,"0.0-4.28-1.28","4sqdq9k0tqsmjo9",262,"1.csv","","null","resources/maskTrios/BT4B.jpg","null","",NA,NA,NA,NA,""
"image-keyboard-response",98,83668,"0.0-4.28-2.28","4sqdq9k0tqsmjo9",262,"1.csv","","null","resources/images/fishbone.png","null","",NA,NA,NA,NA,""
"image-keyboard-response",99,83890,"0.0-4.29-0.29","4sqdq9k0tqsmjo9",262,"1.csv","","220.60000000009313","resources/trios/L4T4A3.jpg","37","restless",0.5,0.2,0.5,0.22842558088306,"true"
"image-keyboard-response",100,84307,"0.0-4.29-1.29","4sqdq9k0tqsmjo9",262,"1.csv","","null","resources/maskTrios/L4BB.jpg","null","",NA,NA,NA,NA,""
"image-keyboard-response",101,85520,"0.0-4.29-2.29","4sqdq9k0tqsmjo9",262,"1.csv","","null","resources/images/coin2.png","null","",NA,NA,NA,NA,""
"image-keyboard-response",102,85545,"0.0-4.30-0.30","4sqdq9k0tqsmjo9",262,"1.csv","","24","resources/trios/L4T4A3.jpg","38","restless",0.5,0.2,0.5,0.966898133001724,"false"
"image-keyboard-response",103,85955,"0.0-4.30-1.30","4sqdq9k0tqsmjo9",262,"1.csv","","null","resources/maskTrios/BT4B.jpg","null","",NA,NA,NA,NA,""
"image-keyboard-response",104,87170,"0.0-4.30-2.30","4sqdq9k0tqsmjo9",262,"1.csv","","null","resources/images/fishbone.png","null","",NA,NA,NA,NA,""
"image-keyboard-response",105,87290,"0.0-4.31-0.31","4sqdq9k0tqsmjo9",262,"1.csv","","119.70000000018626","resources/trios/L4T4A3.jpg","37","restless",0.5,0.2,0.5,0.842607621780085,"false"
"image-keyboard-response",106,87701,"0.0-4.31-1.31","4sqdq9k0tqsmjo9",262,"1.csv","","null","resources/maskTrios/L4BB.jpg","null","",NA,NA,NA,NA,""
"image-keyboard-response",107,88916,"0.0-4.31-2.31","4sqdq9k0tqsmjo9",262,"1.csv","","null","resources/images/fishbone.png","null","",NA,NA,NA,NA,""
"image-keyboard-response",108,89000,"0.0-4.32-0.32","4sqdq9k0tqsmjo9",262,"1.csv","","82.5","resources/trios/L4T4A3.jpg","37","restless",0.5,0.2,0.5,0.818072105604696,"false"
"image-keyboard-response",109,89414,"0.0-4.32-1.32","4sqdq9k0tqsmjo9",262,"1.csv","","null","resources/maskTrios/L4BB.jpg","null","",NA,NA,NA,NA,""
"image-keyboard-response",110,90629,"0.0-4.32-2.32","4sqdq9k0tqsmjo9",262,"1.csv","","null","resources/images/fishbone.png","null","",NA,NA,NA,NA,""
"image-keyboard-response",111,90683,"0.0-4.33-0.33","4sqdq9k0tqsmjo9",262,"1.csv","","52.39999999990687","resources/trios/L4T4A3.jpg","37","restless",0.5,0.2,0.5,0.375568300989104,"true"
"image-keyboard-response",112,91096,"0.0-4.33-1.33","4sqdq9k0tqsmjo9",262,"1.csv","","null","resources/maskTrios/L4BB.jpg","null","",NA,NA,NA,NA,""
"image-keyboard-response",113,92310,"0.0-4.33-2.33","4sqdq9k0tqsmjo9",262,"1.csv","","null","resources/images/coin2.png","null","",NA,NA,NA,NA,""
"image-keyboard-response",114,92759,"0.0-4.34-0.34","4sqdq9k0tqsmjo9",262,"1.csv","","448.40000000037253","resources/trios/L4T4A3.jpg","38","restless",0.5,0.2,0.5,0.566893072894181,"false"
"image-keyboard-response",115,93165,"0.0-4.34-1.34","4sqdq9k0tqsmjo9",262,"1.csv","","null","resources/maskTrios/BT4B.jpg","null","",NA,NA,NA,NA,""
"image-keyboard-response",116,94371,"0.0-4.34-2.34","4sqdq9k0tqsmjo9",262,"1.csv","","null","resources/images/fishbone.png","null","",NA,NA,NA,NA,""
"image-keyboard-response",117,94384,"0.0-4.35-0.35","4sqdq9k0tqsmjo9",262,"1.csv","","11.600000000093132","resources/trios/L4T4A3.jpg","39","restless",0.5,0.2,0.5,0.49819159867142,"true"
"image-keyboard-response",118,94791,"0.0-4.35-1.35","4sqdq9k0tqsmjo9",262,"1.csv","","null","resources/maskTrios/BBA3.jpg","null","",NA,NA,NA,NA,""
"image-keyboard-response",119,96006,"0.0-4.35-2.35","4sqdq9k0tqsmjo9",262,"1.csv","","null","resources/images/coin2.png","null","",NA,NA,NA,NA,""
"image-keyboard-response",120,96045,"0.0-4.36-0.36","4sqdq9k0tqsmjo9",262,"1.csv","","38","resources/trios/L4T4A3.jpg","39","restless",0.5,0.2,0.5,0.167520710500465,"true"
"image-keyboard-response",121,96456,"0.0-4.36-1.36","4sqdq9k0tqsmjo9",262,"1.csv","","null","resources/maskTrios/BBA3.jpg","null","",NA,NA,NA,NA,""
"image-keyboard-response",122,97672,"0.0-4.36-2.36","4sqdq9k0tqsmjo9",262,"1.csv","","null","resources/images/coin2.png","null","",NA,NA,NA,NA,""
"image-keyboard-response",123,97705,"0.0-4.37-0.37","4sqdq9k0tqsmjo9",262,"1.csv","","32.1999999997206","resources/trios/L4T4A3.jpg","39","restless",0.5,0.2,0.5,0.0836136531576717,"true"
"image-keyboard-response",124,98121,"0.0-4.37-1.37","4sqdq9k0tqsmjo9",262,"1.csv","","null","resources/maskTrios/BBA3.jpg","null","",NA,NA,NA,NA,""
"image-keyboard-response",125,99338,"0.0-4.37-2.37","4sqdq9k0tqsmjo9",262,"1.csv","","null","resources/images/coin2.png","null","",NA,NA,NA,NA,""
"image-keyboard-response",126,99548,"0.0-4.38-0.38","4sqdq9k0tqsmjo9",262,"1.csv","","208.90000000037253","resources/trios/L4T4A3.jpg","39","restless",0.6,0.2,0.5,0.925349107883415,"false"
"image-keyboard-response",127,99961,"0.0-4.38-1.38","4sqdq9k0tqsmjo9",262,"1.csv","","null","resources/maskTrios/BBA3.jpg","null","",NA,NA,NA,NA,""
"image-keyboard-response",128,101177,"0.0-4.38-2.38","4sqdq9k0tqsmjo9",262,"1.csv","","null","resources/images/fishbone.png","null","",NA,NA,NA,NA,""
"image-keyboard-response",129,101307,"0.0-4.39-0.39","4sqdq9k0tqsmjo9",262,"1.csv","","128.70000000018626","resources/trios/L4T4A3.jpg","38","restless",0.6,0.3,0.5,0.693375765267367,"false"
"image-keyboard-response",130,101715,"0.0-4.39-1.39","4sqdq9k0tqsmjo9",262,"1.csv","","null","resources/maskTrios/BT4B.jpg","null","",NA,NA,NA,NA,""
"image-keyboard-response",131,102922,"0.0-4.39-2.39","4sqdq9k0tqsmjo9",262,"1.csv","","null","resources/images/fishbone.png","null","",NA,NA,NA,NA,""
"image-keyboard-response",132,103138,"0.0-4.40-0.40","4sqdq9k0tqsmjo9",262,"1.csv","","215","resources/trios/L4T4A3.jpg","37","restless",0.6,0.3,0.5,0.515635812020369,"true"
"image-keyboard-response",133,103544,"0.0-4.40-1.40","4sqdq9k0tqsmjo9",262,"1.csv","","null","resources/maskTrios/L4BB.jpg","null","",NA,NA,NA,NA,""
"image-keyboard-response",134,104758,"0.0-4.40-2.40","4sqdq9k0tqsmjo9",262,"1.csv","","null","resources/images/coin2.png","null","",NA,NA,NA,NA,""
"image-keyboard-response",135,104772,"0.0-4.41-0.41","4sqdq9k0tqsmjo9",262,"1.csv","","12.800000000279397","resources/trios/L4T4A3.jpg","39","restless",0.6,0.3,0.5,0.933095443785428,"false"
"image-keyboard-response",136,105180,"0.0-4.41-1.41","4sqdq9k0tqsmjo9",262,"1.csv","","null","resources/maskTrios/BBA3.jpg","null","",NA,NA,NA,NA,""
"image-keyboard-response",137,106395,"0.0-4.41-2.41","4sqdq9k0tqsmjo9",262,"1.csv","","null","resources/images/fishbone.png","null","",NA,NA,NA,NA,""
"image-keyboard-response",138,106412,"0.0-4.42-0.42","4sqdq9k0tqsmjo9",262,"1.csv","","16.5","resources/trios/L4T4A3.jpg","39","restless",0.6,0.3,0.5,0.129202722457002,"true"
"image-keyboard-response",139,106814,"0.0-4.42-1.42","4sqdq9k0tqsmjo9",262,"1.csv","","null","resources/maskTrios/BBA3.jpg","null","",NA,NA,NA,NA,""
"image-keyboard-response",140,108017,"0.0-4.42-2.42","4sqdq9k0tqsmjo9",262,"1.csv","","null","resources/images/coin2.png","null","",NA,NA,NA,NA,""
"image-keyboard-response",141,108058,"0.0-4.43-0.43","4sqdq9k0tqsmjo9",262,"1.csv","","40.200000000186265","resources/trios/L4T4A3.jpg","39","restless",0.6,0.3,0.5,0.207159868036853,"true"
"image-keyboard-response",142,108470,"0.0-4.43-1.43","4sqdq9k0tqsmjo9",262,"1.csv","","null","resources/maskTrios/BBA3.jpg","null","",NA,NA,NA,NA,""
"image-keyboard-response",143,109685,"0.0-4.43-2.43","4sqdq9k0tqsmjo9",262,"1.csv","","null","resources/images/coin2.png","null","",NA,NA,NA,NA,""
"image-keyboard-response",144,109784,"0.0-4.44-0.44","4sqdq9k0tqsmjo9",262,"1.csv","","98.60000000009313","resources/trios/L4T4A3.jpg","38","restless",0.6,0.3,0.5,0.881075012169486,"false"
"image-keyboard-response",145,110198,"0.0-4.44-1.44","4sqdq9k0tqsmjo9",262,"1.csv","","null","resources/maskTrios/BT4B.jpg","null","",NA,NA,NA,NA,""
"image-keyboard-response",146,111401,"0.0-4.44-2.44","4sqdq9k0tqsmjo9",262,"1.csv","","null","resources/images/fishbone.png","null","",NA,NA,NA,NA,""
"image-keyboard-response",147,111527,"0.0-4.45-0.45","4sqdq9k0tqsmjo9",262,"1.csv","","125.6999999997206","resources/trios/L4T4A3.jpg","39","restless",0.6,0.2,0.5,0.781532270740043,"false"
"image-keyboard-response",148,111932,"0.0-4.45-1.45","4sqdq9k0tqsmjo9",262,"1.csv","","null","resources/maskTrios/BBA3.jpg","null","",NA,NA,NA,NA,""
"image-keyboard-response",149,113148,"0.0-4.45-2.45","4sqdq9k0tqsmjo9",262,"1.csv","","null","resources/images/fishbone.png","null","",NA,NA,NA,NA,""
"image-keyboard-response",150,113191,"0.0-4.46-0.46","4sqdq9k0tqsmjo9",262,"1.csv","","42.39999999990687","resources/trios/L4T4A3.jpg","39","restless",0.5,0.3,0.5,0.839889585806828,"false"
"image-keyboard-response",151,113598,"0.0-4.46-1.46","4sqdq9k0tqsmjo9",262,"1.csv","","null","resources/maskTrios/BBA3.jpg","null","",NA,NA,NA,NA,""
"image-keyboard-response",152,114800,"0.0-4.46-2.46","4sqdq9k0tqsmjo9",262,"1.csv","","null","resources/images/fishbone.png","null","",NA,NA,NA,NA,""
"image-keyboard-response",153,114866,"0.0-4.47-0.47","4sqdq9k0tqsmjo9",262,"1.csv","","65.40000000037253","resources/trios/L4T4A3.jpg","39","restless",0.5,0.3,0.5,0.152855391099234,"true"
"image-keyboard-response",154,115282,"0.0-4.47-1.47","4sqdq9k0tqsmjo9",262,"1.csv","","null","resources/maskTrios/BBA3.jpg","null","",NA,NA,NA,NA,""
"image-keyboard-response",155,116484,"0.0-4.47-2.47","4sqdq9k0tqsmjo9",262,"1.csv","","null","resources/images/coin2.png","null","",NA,NA,NA,NA,""
"image-keyboard-response",156,116647,"0.0-4.48-0.48","4sqdq9k0tqsmjo9",262,"1.csv","","161.39999999990687","resources/trios/L4T4A3.jpg","39","restless",0.5,0.2,0.5,0.075559600390203,"true"
"image-keyboard-response",157,117061,"0.0-4.48-1.48","4sqdq9k0tqsmjo9",262,"1.csv","","null","resources/maskTrios/BBA3.jpg","null","",NA,NA,NA,NA,""
"image-keyboard-response",158,118263,"0.0-4.48-2.48","4sqdq9k0tqsmjo9",262,"1.csv","","null","resources/images/coin2.png","null","",NA,NA,NA,NA,""
"image-keyboard-response",159,118274,"0.0-4.49-0.49","4sqdq9k0tqsmjo9",262,"1.csv","","9.200000000186265","resources/trios/L4T4A3.jpg","39","restless",0.5,0.2,0.5,0.750166376565563,"false"
"image-keyboard-response",160,118684,"0.0-4.49-1.49","4sqdq9k0tqsmjo9",262,"1.csv","","null","resources/maskTrios/BBA3.jpg","null","",NA,NA,NA,NA,""
"image-keyboard-response",161,119900,"0.0-4.49-2.49","4sqdq9k0tqsmjo9",262,"1.csv","","null","resources/images/fishbone.png","null","",NA,NA,NA,NA,""
"image-keyboard-response",162,120021,"0.0-4.50-0.50","4sqdq9k0tqsmjo9",262,"1.csv","","119.20000000018626","resources/trios/L4T4A3.jpg","39","restless",0.5,0.2,0.5,0.913911045087276,"false"
"image-keyboard-response",163,120422,"0.0-4.50-1.50","4sqdq9k0tqsmjo9",262,"1.csv","","null","resources/maskTrios/BBA3.jpg","null","",NA,NA,NA,NA,""
"image-keyboard-response",164,121630,"0.0-4.50-2.50","4sqdq9k0tqsmjo9",262,"1.csv","","null","resources/images/fishbone.png","null","",NA,NA,NA,NA,""
"image-keyboard-response",165,121650,"0.0-4.51-0.51","4sqdq9k0tqsmjo9",262,"1.csv","","18.90000000037253","resources/trios/L4T4A3.jpg","37","restless",0.5,0.2,0.5,0.26426034107352,"true"
"image-keyboard-response",166,122052,"0.0-4.51-1.51","4sqdq9k0tqsmjo9",262,"1.csv","","null","resources/maskTrios/L4BB.jpg","null","",NA,NA,NA,NA,""
"image-keyboard-response",167,123267,"0.0-4.51-2.51","4sqdq9k0tqsmjo9",262,"1.csv","","null","resources/images/coin2.png","null","",NA,NA,NA,NA,""
"image-keyboard-response",168,123594,"0.0-4.52-0.52","4sqdq9k0tqsmjo9",262,"1.csv","","326.5","resources/trios/L4T4A3.jpg","38","restless",0.5,0.2,0.5,0.740041517683289,"false"
"image-keyboard-response",169,123997,"0.0-4.52-1.52","4sqdq9k0tqsmjo9",262,"1.csv","","null","resources/maskTrios/BT4B.jpg","null","",NA,NA,NA,NA,""
"image-keyboard-response",170,125201,"0.0-4.52-2.52","4sqdq9k0tqsmjo9",262,"1.csv","","null","resources/images/fishbone.png","null","",NA,NA,NA,NA,""
"image-keyboard-response",171,125333,"0.0-4.53-0.53","4sqdq9k0tqsmjo9",262,"1.csv","","131.5","resources/trios/L4T4A3.jpg","38","restless",0.5,0.1,0.5,0.887230629175361,"false"
"image-keyboard-response",172,125741,"0.0-4.53-1.53","4sqdq9k0tqsmjo9",262,"1.csv","","null","resources/maskTrios/BT4B.jpg","null","",NA,NA,NA,NA,""
"image-keyboard-response",173,126944,"0.0-4.53-2.53","4sqdq9k0tqsmjo9",262,"1.csv","","null","resources/images/fishbone.png","null","",NA,NA,NA,NA,""
"image-keyboard-response",174,127098,"0.0-4.54-0.54","4sqdq9k0tqsmjo9",262,"1.csv","","152.89999999990687","resources/trios/L4T4A3.jpg","38","restless",0.5,0.1,0.5,0.726675747829461,"false"
"image-keyboard-response",175,127505,"0.0-4.54-1.54","4sqdq9k0tqsmjo9",262,"1.csv","","null","resources/maskTrios/BT4B.jpg","null","",NA,NA,NA,NA,""
"image-keyboard-response",176,128720,"0.0-4.54-2.54","4sqdq9k0tqsmjo9",262,"1.csv","","null","resources/images/fishbone.png","null","",NA,NA,NA,NA,""
"image-keyboard-response",177,128849,"0.0-4.55-0.55","4sqdq9k0tqsmjo9",262,"1.csv","","127.40000000037253","resources/trios/L4T4A3.jpg","38","restless",0.5,0.1,0.5,0.356970368559297,"false"
"image-keyboard-response",178,129264,"0.0-4.55-1.55","4sqdq9k0tqsmjo9",262,"1.csv","","null","resources/maskTrios/BT4B.jpg","null","",NA,NA,NA,NA,""
"image-keyboard-response",179,130466,"0.0-4.55-2.55","4sqdq9k0tqsmjo9",262,"1.csv","","null","resources/images/fishbone.png","null","",NA,NA,NA,NA,""
"image-keyboard-response",180,130506,"0.0-4.56-0.56","4sqdq9k0tqsmjo9",262,"1.csv","","38.60000000009313","resources/trios/L4T4A3.jpg","38","restless",0.5,0.1,0.5,0.990305538797041,"false"
"image-keyboard-response",181,130916,"0.0-4.56-1.56","4sqdq9k0tqsmjo9",262,"1.csv","","null","resources/maskTrios/BT4B.jpg","null","",NA,NA,NA,NA,""
"image-keyboard-response",182,132129,"0.0-4.56-2.56","4sqdq9k0tqsmjo9",262,"1.csv","","null","resources/images/fishbone.png","null","",NA,NA,NA,NA,""
"image-keyboard-response",183,132186,"0.0-4.57-0.57","4sqdq9k0tqsmjo9",262,"1.csv","","56.09999999962747","resources/trios/L4T4A3.jpg","37","restless",0.5,0.1,0.5,0.024687945293814,"true"
"image-keyboard-response",184,132597,"0.0-4.57-1.57","4sqdq9k0tqsmjo9",262,"1.csv","","null","resources/maskTrios/L4BB.jpg","null","",NA,NA,NA,NA,""
"image-keyboard-response",185,133812,"0.0-4.57-2.57","4sqdq9k0tqsmjo9",262,"1.csv","","null","resources/images/coin2.png","null","",NA,NA,NA,NA,""
"image-keyboard-response",186,133886,"0.0-4.58-0.58","4sqdq9k0tqsmjo9",262,"1.csv","","73.8000000002794","resources/trios/L4T4A3.jpg","37","restless",0.5,0.1,0.5,0.729146240352561,"false"
"image-keyboard-response",187,134294,"0.0-4.58-1.58","4sqdq9k0tqsmjo9",262,"1.csv","","null","resources/maskTrios/L4BB.jpg","null","",NA,NA,NA,NA,""
"image-keyboard-response",188,135509,"0.0-4.58-2.58","4sqdq9k0tqsmjo9",262,"1.csv","","null","resources/images/fishbone.png","null","",NA,NA,NA,NA,""
"image-keyboard-response",189,135613,"0.0-4.59-0.59","4sqdq9k0tqsmjo9",262,"1.csv","","102.5","resources/trios/L4T4A3.jpg","39","restless",0.5,0.1,0.5,0.566895046634597,"false"
"image-keyboard-response",190,136023,"0.0-4.59-1.59","4sqdq9k0tqsmjo9",262,"1.csv","","null","resources/maskTrios/BBA3.jpg","null","",NA,NA,NA,NA,""
"image-keyboard-response",191,137237,"0.0-4.59-2.59","4sqdq9k0tqsmjo9",262,"1.csv","","null","resources/images/fishbone.png","null","",NA,NA,NA,NA,""
"image-keyboard-response",192,137346,"0.0-4.60-0.60","4sqdq9k0tqsmjo9",262,"1.csv","","107.79999999981374","resources/trios/L4T4A3.jpg","37","restless",0.5,0.2,0.5,0.821524268058005,"false"
"image-keyboard-response",193,137750,"0.0-4.60-1.60","4sqdq9k0tqsmjo9",262,"1.csv","","null","resources/maskTrios/L4BB.jpg","null","",NA,NA,NA,NA,""
"image-keyboard-response",194,138953,"0.0-4.60-2.60","4sqdq9k0tqsmjo9",262,"1.csv","","null","resources/images/fishbone.png","null","",NA,NA,NA,NA,""
"image-keyboard-response",195,138956,"0.0-4.61-0.61","4sqdq9k0tqsmjo9",262,"1.csv","","2","resources/trios/L4T4A3.jpg","38","restless",0.5,0.2,0.5,0.940343233095982,"false"
"image-keyboard-response",196,139358,"0.0-4.61-1.61","4sqdq9k0tqsmjo9",262,"1.csv","","null","resources/maskTrios/BT4B.jpg","null","",NA,NA,NA,NA,""
"image-keyboard-response",197,140573,"0.0-4.61-2.61","4sqdq9k0tqsmjo9",262,"1.csv","","null","resources/images/fishbone.png","null","",NA,NA,NA,NA,""
"image-keyboard-response",198,140609,"0.0-4.62-0.62","4sqdq9k0tqsmjo9",262,"1.csv","","35.39999999990687","resources/trios/L4T4A3.jpg","37","restless",0.5,0.2,0.6,0.984819378846451,"false"
"image-keyboard-response",199,141024,"0.0-4.62-1.62","4sqdq9k0tqsmjo9",262,"1.csv","","null","resources/maskTrios/L4BB.jpg","null","",NA,NA,NA,NA,""
"image-keyboard-response",200,142238,"0.0-4.62-2.62","4sqdq9k0tqsmjo9",262,"1.csv","","null","resources/images/fishbone.png","null","",NA,NA,NA,NA,""
"image-keyboard-response",201,142432,"0.0-4.63-0.63","4sqdq9k0tqsmjo9",262,"1.csv","","192.5","resources/trios/L4T4A3.jpg","38","restless",0.5,0.2,0.6,0.899805639150095,"false"
"image-keyboard-response",202,142845,"0.0-4.63-1.63","4sqdq9k0tqsmjo9",262,"1.csv","","null","resources/maskTrios/BT4B.jpg","null","",NA,NA,NA,NA,""
"image-keyboard-response",203,144047,"0.0-4.63-2.63","4sqdq9k0tqsmjo9",262,"1.csv","","null","resources/images/fishbone.png","null","",NA,NA,NA,NA,""
"image-keyboard-response",204,144694,"0.0-4.64-0.64","4sqdq9k0tqsmjo9",262,"1.csv","","646","resources/trios/L4T4A3.jpg","39","restless",0.5,0.2,0.6,0.220186896145101,"true"
"image-keyboard-response",205,145102,"0.0-4.64-1.64","4sqdq9k0tqsmjo9",262,"1.csv","","null","resources/maskTrios/BBA3.jpg","null","",NA,NA,NA,NA,""
"image-keyboard-response",206,146316,"0.0-4.64-2.64","4sqdq9k0tqsmjo9",262,"1.csv","","null","resources/images/coin2.png","null","",NA,NA,NA,NA,""
"image-keyboard-response",207,146467,"0.0-4.65-0.65","4sqdq9k0tqsmjo9",262,"1.csv","","149.5","resources/trios/L4T4A3.jpg","39","restless",0.5,0.2,0.6,0.128377308815175,"true"
"image-keyboard-response",208,146878,"0.0-4.65-1.65","4sqdq9k0tqsmjo9",262,"1.csv","","null","resources/maskTrios/BBA3.jpg","null","",NA,NA,NA,NA,""
"image-keyboard-response",209,148094,"0.0-4.65-2.65","4sqdq9k0tqsmjo9",262,"1.csv","","null","resources/images/coin2.png","null","",NA,NA,NA,NA,""
"image-keyboard-response",210,148115,"0.0-4.66-0.66","4sqdq9k0tqsmjo9",262,"1.csv","","20.199999999720603","resources/trios/L4T4A3.jpg","38","restless",0.5,0.2,0.6,0.934350729233245,"false"
"image-keyboard-response",211,148518,"0.0-4.66-1.66","4sqdq9k0tqsmjo9",262,"1.csv","","null","resources/maskTrios/BT4B.jpg","null","",NA,NA,NA,NA,""
"image-keyboard-response",212,149729,"0.0-4.66-2.66","4sqdq9k0tqsmjo9",262,"1.csv","","null","resources/images/fishbone.png","null","",NA,NA,NA,NA,""
"image-keyboard-response",213,149827,"0.0-4.67-0.67","4sqdq9k0tqsmjo9",262,"1.csv","","96","resources/trios/L4T4A3.jpg","37","restless",0.5,0.3,0.6,0.170935801501566,"true"
"image-keyboard-response",214,150228,"0.0-4.67-1.67","4sqdq9k0tqsmjo9",262,"1.csv","","null","resources/maskTrios/L4BB.jpg","null","",NA,NA,NA,NA,""
"image-keyboard-response",215,151434,"0.0-4.67-2.67","4sqdq9k0tqsmjo9",262,"1.csv","","null","resources/images/coin2.png","null","",NA,NA,NA,NA,""
"image-keyboard-response",216,151446,"0.0-4.68-0.68","4sqdq9k0tqsmjo9",262,"1.csv","","11.100000000093132","resources/trios/L4T4A3.jpg","37","restless",0.5,0.3,0.6,0.538529458142881,"false"
"image-keyboard-response",217,151850,"0.0-4.68-1.68","4sqdq9k0tqsmjo9",262,"1.csv","","null","resources/maskTrios/L4BB.jpg","null","",NA,NA,NA,NA,""
"image-keyboard-response",218,153066,"0.0-4.68-2.68","4sqdq9k0tqsmjo9",262,"1.csv","","null","resources/images/fishbone.png","null","",NA,NA,NA,NA,""
"image-keyboard-response",219,153108,"0.0-4.69-0.69","4sqdq9k0tqsmjo9",262,"1.csv","","40.8000000002794","resources/trios/L4T4A3.jpg","37","restless",0.5,0.3,0.5,0.689574431543346,"false"
"image-keyboard-response",220,153514,"0.0-4.69-1.69","4sqdq9k0tqsmjo9",262,"1.csv","","null","resources/maskTrios/L4BB.jpg","null","",NA,NA,NA,NA,""
"image-keyboard-response",221,154728,"0.0-4.69-2.69","4sqdq9k0tqsmjo9",262,"1.csv","","null","resources/images/fishbone.png","null","",NA,NA,NA,NA,""
"image-keyboard-response",222,154968,"0.0-4.70-0.70","4sqdq9k0tqsmjo9",262,"1.csv","","238.89999999990687","resources/trios/L4T4A3.jpg","37","restless",0.6,0.3,0.5,0.607072465377374,"false"
"image-keyboard-response",223,155371,"0.0-4.70-1.70","4sqdq9k0tqsmjo9",262,"1.csv","","null","resources/maskTrios/L4BB.jpg","null","",NA,NA,NA,NA,""
"image-keyboard-response",224,156584,"0.0-4.70-2.70","4sqdq9k0tqsmjo9",262,"1.csv","","null","resources/images/fishbone.png","null","",NA,NA,NA,NA,""
"image-keyboard-response",225,161863,"0.0-4.71-0.71","4sqdq9k0tqsmjo9",262,"1.csv","","5278.4000000003725","resources/trios/L4T4A3.jpg","39","restless",0.6,0.3,0.5,0.186348779129444,"true"
"image-keyboard-response",226,162266,"0.0-4.71-1.71","4sqdq9k0tqsmjo9",262,"1.csv","","null","resources/maskTrios/BBA3.jpg","null","",NA,NA,NA,NA,""
"image-keyboard-response",227,163479,"0.0-4.71-2.71","4sqdq9k0tqsmjo9",262,"1.csv","","null","resources/images/coin2.png","null","",NA,NA,NA,NA,""
"image-keyboard-response",228,163635,"0.0-4.72-0.72","4sqdq9k0tqsmjo9",262,"1.csv","","154.6999999997206","resources/trios/L4T4A3.jpg","39","restless",0.6,0.3,0.6,0.785052233124447,"false"
"image-keyboard-response",229,164039,"0.0-4.72-1.72","4sqdq9k0tqsmjo9",262,"1.csv","","null","resources/maskTrios/BBA3.jpg","null","",NA,NA,NA,NA,""
"image-keyboard-response",230,165244,"0.0-4.72-2.72","4sqdq9k0tqsmjo9",262,"1.csv","","null","resources/images/fishbone.png","null","",NA,NA,NA,NA,""
"image-keyboard-response",231,165418,"0.0-4.73-0.73","4sqdq9k0tqsmjo9",262,"1.csv","","172.39999999990687","resources/trios/L4T4A3.jpg","39","restless",0.6,0.3,0.7,0.721498654180721,"false"
"image-keyboard-response",232,165821,"0.0-4.73-1.73","4sqdq9k0tqsmjo9",262,"1.csv","","null","resources/maskTrios/BBA3.jpg","null","",NA,NA,NA,NA,""
"image-keyboard-response",233,167026,"0.0-4.73-2.73","4sqdq9k0tqsmjo9",262,"1.csv","","null","resources/images/fishbone.png","null","",NA,NA,NA,NA,""
"image-keyboard-response",234,167491,"0.0-4.74-0.74","4sqdq9k0tqsmjo9",262,"1.csv","","463.8000000002794","resources/trios/L4T4A3.jpg","39","restless",0.6,0.3,0.7,0.641285283901638,"true"
"image-keyboard-response",235,167899,"0.0-4.74-1.74","4sqdq9k0tqsmjo9",262,"1.csv","","null","resources/maskTrios/BBA3.jpg","null","",NA,NA,NA,NA,""
"image-keyboard-response",236,169111,"0.0-4.74-2.74","4sqdq9k0tqsmjo9",262,"1.csv","","null","resources/images/coin2.png","null","",NA,NA,NA,NA,""
"image-keyboard-response",237,169561,"0.0-4.75-0.75","4sqdq9k0tqsmjo9",262,"1.csv","","448.5","resources/trios/L4T4A3.jpg","39","restless",0.6,0.3,0.7,0.500486656170041,"true"
"image-keyboard-response",238,169967,"0.0-4.75-1.75","4sqdq9k0tqsmjo9",262,"1.csv","","null","resources/maskTrios/BBA3.jpg","null","",NA,NA,NA,NA,""
"image-keyboard-response",239,171171,"0.0-4.75-2.75","4sqdq9k0tqsmjo9",262,"1.csv","","null","resources/images/coin2.png","null","",NA,NA,NA,NA,""
"image-keyboard-response",240,171242,"0.0-4.76-0.76","4sqdq9k0tqsmjo9",262,"1.csv","","69.5","resources/trios/L4T4A3.jpg","39","restless",0.6,0.3,0.7,0.229400209896444,"true"
"image-keyboard-response",241,171644,"0.0-4.76-1.76","4sqdq9k0tqsmjo9",262,"1.csv","","null","resources/maskTrios/BBA3.jpg","null","",NA,NA,NA,NA,""
"image-keyboard-response",242,172856,"0.0-4.76-2.76","4sqdq9k0tqsmjo9",262,"1.csv","","null","resources/images/coin2.png","null","",NA,NA,NA,NA,""
"image-keyboard-response",243,173080,"0.0-4.77-0.77","4sqdq9k0tqsmjo9",262,"1.csv","","223.10000000009313","resources/trios/L4T4A3.jpg","39","restless",0.6,0.3,0.7,0.565564901517199,"true"
"image-keyboard-response",244,173494,"0.0-4.77-1.77","4sqdq9k0tqsmjo9",262,"1.csv","","null","resources/maskTrios/BBA3.jpg","null","",NA,NA,NA,NA,""
"image-keyboard-response",245,174709,"0.0-4.77-2.77","4sqdq9k0tqsmjo9",262,"1.csv","","null","resources/images/coin2.png","null","",NA,NA,NA,NA,""
"image-keyboard-response",246,177709,"0.0-4.78-0.78","4sqdq9k0tqsmjo9",262,"1.csv","","2998.7999999998137","resources/trios/L4T4A3.jpg","39","restless",0.6,0.3,0.7,0.141256627235561,"true"
"image-keyboard-response",247,178113,"0.0-4.78-1.78","4sqdq9k0tqsmjo9",262,"1.csv","","null","resources/maskTrios/BBA3.jpg","null","",NA,NA,NA,NA,""
"image-keyboard-response",248,179323,"0.0-4.78-2.78","4sqdq9k0tqsmjo9",262,"1.csv","","null","resources/images/coin2.png","null","",NA,NA,NA,NA,""
"image-keyboard-response",249,179431,"0.0-4.79-0.79","4sqdq9k0tqsmjo9",262,"1.csv","","106.60000000009313","resources/trios/L4T4A3.jpg","39","restless",0.6,0.3,0.7,0.771979077047351,"false"
"image-keyboard-response",250,179836,"0.0-4.79-1.79","4sqdq9k0tqsmjo9",262,"1.csv","","null","resources/maskTrios/BBA3.jpg","null","",NA,NA,NA,NA,""
"image-keyboard-response",251,181039,"0.0-4.79-2.79","4sqdq9k0tqsmjo9",262,"1.csv","","null","resources/images/fishbone.png","null","",NA,NA,NA,NA,""
"image-keyboard-response",252,181108,"0.0-4.80-0.80","4sqdq9k0tqsmjo9",262,"1.csv","","67.8000000002794","resources/trios/L4T4A3.jpg","37","restless",0.6,0.3,0.7,0.0635614067621832,"true"
"image-keyboard-response",253,181523,"0.0-4.80-1.80","4sqdq9k0tqsmjo9",262,"1.csv","","null","resources/maskTrios/L4BB.jpg","null","",NA,NA,NA,NA,""
"image-keyboard-response",254,182739,"0.0-4.80-2.80","4sqdq9k0tqsmjo9",262,"1.csv","","null","resources/images/coin2.png","null","",NA,NA,NA,NA,""
"image-keyboard-response",255,182920,"0.0-4.81-0.81","4sqdq9k0tqsmjo9",262,"1.csv","","179.89999999990687","resources/trios/L4T4A3.jpg","39","restless",0.6,0.4,0.7,0.3086056299048,"true"
"image-keyboard-response",256,183331,"0.0-4.81-1.81","4sqdq9k0tqsmjo9",262,"1.csv","","null","resources/maskTrios/BBA3.jpg","null","",NA,NA,NA,NA,""
"image-keyboard-response",257,184547,"0.0-4.81-2.81","4sqdq9k0tqsmjo9",262,"1.csv","","null","resources/images/coin2.png","null","",NA,NA,NA,NA,""
"image-keyboard-response",258,184727,"0.0-4.82-0.82","4sqdq9k0tqsmjo9",262,"1.csv","","179.3000000002794","resources/trios/L4T4A3.jpg","37","restless",0.6,0.4,0.7,0.391913371682669,"true"
"image-keyboard-response",259,185138,"0.0-4.82-1.82","4sqdq9k0tqsmjo9",262,"1.csv","","null","resources/maskTrios/L4BB.jpg","null","",NA,NA,NA,NA,""
"image-keyboard-response",260,186352,"0.0-4.82-2.82","4sqdq9k0tqsmjo9",262,"1.csv","","null","resources/images/coin2.png","null","",NA,NA,NA,NA,""
"image-keyboard-response",261,186535,"0.0-4.83-0.83","4sqdq9k0tqsmjo9",262,"1.csv","","182.5","resources/trios/L4T4A3.jpg","37","restless",0.6,0.4,0.7,0.302257939282934,"true"
"image-keyboard-response",262,186943,"0.0-4.83-1.83","4sqdq9k0tqsmjo9",262,"1.csv","","null","resources/maskTrios/L4BB.jpg","null","",NA,NA,NA,NA,""
"image-keyboard-response",263,188159,"0.0-4.83-2.83","4sqdq9k0tqsmjo9",262,"1.csv","","null","resources/images/coin2.png","null","",NA,NA,NA,NA,""
"image-keyboard-response",264,188338,"0.0-4.84-0.84","4sqdq9k0tqsmjo9",262,"1.csv","","178","resources/trios/L4T4A3.jpg","37","restless",0.5,0.5,0.6,0.452101091707684,"true"
"image-keyboard-response",265,188746,"0.0-4.84-1.84","4sqdq9k0tqsmjo9",262,"1.csv","","null","resources/maskTrios/L4BB.jpg","null","",NA,NA,NA,NA,""
"image-keyboard-response",266,189950,"0.0-4.84-2.84","4sqdq9k0tqsmjo9",262,"1.csv","","null","resources/images/coin2.png","null","",NA,NA,NA,NA,""
"image-keyboard-response",267,190150,"0.0-4.85-0.85","4sqdq9k0tqsmjo9",262,"1.csv","","199","resources/trios/L4T4A3.jpg","39","restless",0.5,0.4,0.6,0.288580212469038,"true"
"image-keyboard-response",268,190554,"0.0-4.85-1.85","4sqdq9k0tqsmjo9",262,"1.csv","","null","resources/maskTrios/BBA3.jpg","null","",NA,NA,NA,NA,""
"image-keyboard-response",269,191757,"0.0-4.85-2.85","4sqdq9k0tqsmjo9",262,"1.csv","","null","resources/images/coin2.png","null","",NA,NA,NA,NA,""
"image-keyboard-response",270,191919,"0.0-4.86-0.86","4sqdq9k0tqsmjo9",262,"1.csv","","160.6999999997206","resources/trios/L4T4A3.jpg","38","restless",0.5,0.5,0.7,0.811680437304143,"false"
"image-keyboard-response",271,192333,"0.0-4.86-1.86","4sqdq9k0tqsmjo9",262,"1.csv","","null","resources/maskTrios/BT4B.jpg","null","",NA,NA,NA,NA,""
"image-keyboard-response",272,193548,"0.0-4.86-2.86","4sqdq9k0tqsmjo9",262,"1.csv","","null","resources/images/fishbone.png","null","",NA,NA,NA,NA,""
"image-keyboard-response",273,193803,"0.0-4.87-0.87","4sqdq9k0tqsmjo9",262,"1.csv","","254.10000000009313","resources/trios/L4T4A3.jpg","37","restless",0.5,0.5,0.7,0.246934946556515,"true"
"image-keyboard-response",274,194217,"0.0-4.87-1.87","4sqdq9k0tqsmjo9",262,"1.csv","","null","resources/maskTrios/L4BB.jpg","null","",NA,NA,NA,NA,""
"image-keyboard-response",275,195434,"0.0-4.87-2.87","4sqdq9k0tqsmjo9",262,"1.csv","","null","resources/images/coin2.png","null","",NA,NA,NA,NA,""
"image-keyboard-response",276,195573,"0.0-4.88-0.88","4sqdq9k0tqsmjo9",262,"1.csv","","137","resources/trios/L4T4A3.jpg","38","restless",0.5,0.5,0.7,0.566648443014476,"false"
"image-keyboard-response",277,195977,"0.0-4.88-1.88","4sqdq9k0tqsmjo9",262,"1.csv","","null","resources/maskTrios/BT4B.jpg","null","",NA,NA,NA,NA,""
"image-keyboard-response",278,197193,"0.0-4.88-2.88","4sqdq9k0tqsmjo9",262,"1.csv","","null","resources/images/fishbone.png","null","",NA,NA,NA,NA,""
"image-keyboard-response",279,197550,"0.0-4.89-0.89","4sqdq9k0tqsmjo9",262,"1.csv","","356.3000000002794","resources/trios/L4T4A3.jpg","37","restless",0.5,0.6,0.7,0.928754222666395,"false"
"image-keyboard-response",280,197953,"0.0-4.89-1.89","4sqdq9k0tqsmjo9",262,"1.csv","","null","resources/maskTrios/L4BB.jpg","null","",NA,NA,NA,NA,""
"image-keyboard-response",281,199168,"0.0-4.89-2.89","4sqdq9k0tqsmjo9",262,"1.csv","","null","resources/images/fishbone.png","null","",NA,NA,NA,NA,""
"image-keyboard-response",282,199281,"0.0-4.90-0.90","4sqdq9k0tqsmjo9",262,"1.csv","","111.8000000002794","resources/trios/L4T4A3.jpg","38","restless",0.5,0.6,0.7,0.651282728486365,"false"
"image-keyboard-response",283,199697,"0.0-4.90-1.90","4sqdq9k0tqsmjo9",262,"1.csv","","null","resources/maskTrios/BT4B.jpg","null","",NA,NA,NA,NA,""
"image-keyboard-response",284,200898,"0.0-4.90-2.90","4sqdq9k0tqsmjo9",262,"1.csv","","null","resources/images/fishbone.png","null","",NA,NA,NA,NA,""
"image-keyboard-response",285,201127,"0.0-4.91-0.91","4sqdq9k0tqsmjo9",262,"1.csv","","227.29999999981374","resources/trios/L4T4A3.jpg","37","restless",0.5,0.7,0.7,0.398045781995758,"true"
"image-keyboard-response",286,201536,"0.0-4.91-1.91","4sqdq9k0tqsmjo9",262,"1.csv","","null","resources/maskTrios/L4BB.jpg","null","",NA,NA,NA,NA,""
"image-keyboard-response",287,202745,"0.0-4.91-2.91","4sqdq9k0tqsmjo9",262,"1.csv","","null","resources/images/coin2.png","null","",NA,NA,NA,NA,""
"image-keyboard-response",288,202858,"0.0-4.92-0.92","4sqdq9k0tqsmjo9",262,"1.csv","","112.39999999990687","resources/trios/L4T4A3.jpg","37","restless",0.5,0.7,0.7,0.651776146711606,"false"
"image-keyboard-response",289,203264,"0.0-4.92-1.92","4sqdq9k0tqsmjo9",262,"1.csv","","null","resources/maskTrios/L4BB.jpg","null","",NA,NA,NA,NA,""
"image-keyboard-response",290,204476,"0.0-4.92-2.92","4sqdq9k0tqsmjo9",262,"1.csv","","null","resources/images/fishbone.png","null","",NA,NA,NA,NA,""
"image-keyboard-response",291,204528,"0.0-4.93-0.93","4sqdq9k0tqsmjo9",262,"1.csv","","51.10000000009313","resources/trios/L4T4A3.jpg","37","restless",0.5,0.7,0.7,0.116410614134014,"true"
"image-keyboard-response",292,204943,"0.0-4.93-1.93","4sqdq9k0tqsmjo9",262,"1.csv","","null","resources/maskTrios/L4BB.jpg","null","",NA,NA,NA,NA,""
"image-keyboard-response",293,206157,"0.0-4.93-2.93","4sqdq9k0tqsmjo9",262,"1.csv","","null","resources/images/coin2.png","null","",NA,NA,NA,NA,""
"image-keyboard-response",294,206250,"0.0-4.94-0.94","4sqdq9k0tqsmjo9",262,"1.csv","","92.70000000018626","resources/trios/L4T4A3.jpg","38","restless",0.6,0.7,0.7,0.849367752084554,"false"
"image-keyboard-response",295,206655,"0.0-4.94-1.94","4sqdq9k0tqsmjo9",262,"1.csv","","null","resources/maskTrios/BT4B.jpg","null","",NA,NA,NA,NA,""
"image-keyboard-response",296,207872,"0.0-4.94-2.94","4sqdq9k0tqsmjo9",262,"1.csv","","null","resources/images/fishbone.png","null","",NA,NA,NA,NA,""
"image-keyboard-response",297,207916,"0.0-4.95-0.95","4sqdq9k0tqsmjo9",262,"1.csv","","43.10000000009313","resources/trios/L4T4A3.jpg","37","restless",0.6,0.7,0.7,0.892768434326619,"false"
"image-keyboard-response",298,208323,"0.0-4.95-1.95","4sqdq9k0tqsmjo9",262,"1.csv","","null","resources/maskTrios/L4BB.jpg","null","",NA,NA,NA,NA,""
"image-keyboard-response",299,209538,"0.0-4.95-2.95","4sqdq9k0tqsmjo9",262,"1.csv","","null","resources/images/fishbone.png","null","",NA,NA,NA,NA,""
"image-keyboard-response",300,209781,"0.0-4.96-0.96","4sqdq9k0tqsmjo9",262,"1.csv","","242.29999999981374","resources/trios/L4T4A3.jpg","37","restless",0.6,0.7,0.8,0.992417521367722,"false"
"image-keyboard-response",301,210185,"0.0-4.96-1.96","4sqdq9k0tqsmjo9",262,"1.csv","","null","resources/maskTrios/L4BB.jpg","null","",NA,NA,NA,NA,""
"image-keyboard-response",302,211393,"0.0-4.96-2.96","4sqdq9k0tqsmjo9",262,"1.csv","","null","resources/images/fishbone.png","null","",NA,NA,NA,NA,""
"image-keyboard-response",303,212326,"0.0-4.97-0.97","4sqdq9k0tqsmjo9",262,"1.csv","","931.8999999999069","resources/trios/L4T4A3.jpg","39","restless",0.6,0.7,0.8,0.95019102119301,"false"
"image-keyboard-response",304,212730,"0.0-4.97-1.97","4sqdq9k0tqsmjo9",262,"1.csv","","null","resources/maskTrios/BBA3.jpg","null","",NA,NA,NA,NA,""
"image-keyboard-response",305,213945,"0.0-4.97-2.97","4sqdq9k0tqsmjo9",262,"1.csv","","null","resources/images/fishbone.png","null","",NA,NA,NA,NA,""
"image-keyboard-response",306,213979,"0.0-4.98-0.98","4sqdq9k0tqsmjo9",262,"1.csv","","33.39999999990687","resources/trios/L4T4A3.jpg","38","restless",0.5,0.7,0.8,0.222543154646367,"true"
"image-keyboard-response",307,214381,"0.0-4.98-1.98","4sqdq9k0tqsmjo9",262,"1.csv","","null","resources/maskTrios/BT4B.jpg","null","",NA,NA,NA,NA,""
"image-keyboard-response",308,215595,"0.0-4.98-2.98","4sqdq9k0tqsmjo9",262,"1.csv","","null","resources/images/coin2.png","null","",NA,NA,NA,NA,""
"image-keyboard-response",309,215607,"0.0-4.99-0.99","4sqdq9k0tqsmjo9",262,"1.csv","","11.600000000093132","resources/trios/L4T4A3.jpg","37","restless",0.5,0.8,0.8,0.227167340790076,"true"
"image-keyboard-response",310,216016,"0.0-4.99-1.99","4sqdq9k0tqsmjo9",262,"1.csv","","null","resources/maskTrios/L4BB.jpg","null","",NA,NA,NA,NA,""
"image-keyboard-response",311,217231,"0.0-4.99-2.99","4sqdq9k0tqsmjo9",262,"1.csv","","null","resources/images/coin2.png","null","",NA,NA,NA,NA,""
"image-keyboard-response",312,217233,"0.0-4.100-0.100","4sqdq9k0tqsmjo9",262,"1.csv","","1.1000000000931323","resources/trios/L4T4A3.jpg","39","restless",0.5,0.9,0.8,0.425751164111468,"true"
"image-keyboard-response",313,217636,"0.0-4.100-1.100","4sqdq9k0tqsmjo9",262,"1.csv","","null","resources/maskTrios/BBA3.jpg","null","",NA,NA,NA,NA,""
"image-keyboard-response",314,218838,"0.0-4.100-2.100","4sqdq9k0tqsmjo9",262,"1.csv","","null","resources/images/coin2.png","null","",NA,NA,NA,NA,""
"image-keyboard-response",315,219283,"0.0-4.101-0.101","4sqdq9k0tqsmjo9",262,"1.csv","","444.40000000037253","resources/trios/L4T4A3.jpg","38","restless",0.5,0.9,0.8,0.90313287312377,"false"
"image-keyboard-response",316,219693,"0.0-4.101-1.101","4sqdq9k0tqsmjo9",262,"1.csv","","null","resources/maskTrios/BT4B.jpg","null","",NA,NA,NA,NA,""
"image-keyboard-response",317,220898,"0.0-4.101-2.101","4sqdq9k0tqsmjo9",262,"1.csv","","null","resources/images/fishbone.png","null","",NA,NA,NA,NA,""
"image-keyboard-response",318,261498,"0.0-4.102-0.102","4sqdq9k0tqsmjo9",262,"1.csv","","40597.700000000186","resources/trios/L4T4A3.jpg","37","restless",0.5,0.9,0.8,0.990565629288323,"false"
"image-keyboard-response",319,261908,"0.0-4.102-1.102","4sqdq9k0tqsmjo9",262,"1.csv","","null","resources/maskTrios/L4BB.jpg","null","",NA,NA,NA,NA,""
"image-keyboard-response",320,263123,"0.0-4.102-2.102","4sqdq9k0tqsmjo9",262,"1.csv","","null","resources/images/fishbone.png","null","",NA,NA,NA,NA,""
"image-keyboard-response",321,269199,"0.0-4.103-0.103","4sqdq9k0tqsmjo9",262,"1.csv","","6073.9000000003725","resources/trios/L4T4A3.jpg","37","restless",0.5,0.9,0.8,0.0886061702059473,"true"
"image-keyboard-response",322,269605,"0.0-4.103-1.103","4sqdq9k0tqsmjo9",262,"1.csv","","null","resources/maskTrios/L4BB.jpg","null","",NA,NA,NA,NA,""
"image-keyboard-response",323,270810,"0.0-4.103-2.103","4sqdq9k0tqsmjo9",262,"1.csv","","null","resources/images/coin2.png","null","",NA,NA,NA,NA,""
"image-keyboard-response",324,270826,"0.0-4.104-0.104","4sqdq9k0tqsmjo9",262,"1.csv","","15.299999999813735","resources/trios/L4T4A3.jpg","38","restless",0.4,0.8,0.8,0.159323769095022,"true"
"image-keyboard-response",325,271232,"0.0-4.104-1.104","4sqdq9k0tqsmjo9",262,"1.csv","","null","resources/maskTrios/BT4B.jpg","null","",NA,NA,NA,NA,""
"image-keyboard-response",326,272433,"0.0-4.104-2.104","4sqdq9k0tqsmjo9",262,"1.csv","","null","resources/images/coin2.png","null","",NA,NA,NA,NA,""
"image-keyboard-response",327,272526,"0.0-4.105-0.105","4sqdq9k0tqsmjo9",262,"1.csv","","92.20000000018626","resources/trios/L4T4A3.jpg","37","restless",0.4,0.8,0.8,0.91512782570746,"false"
"image-keyboard-response",328,272931,"0.0-4.105-1.105","4sqdq9k0tqsmjo9",262,"1.csv","","null","resources/maskTrios/L4BB.jpg","null","",NA,NA,NA,NA,""
"image-keyboard-response",329,274138,"0.0-4.105-2.105","4sqdq9k0tqsmjo9",262,"1.csv","","null","resources/images/fishbone.png","null","",NA,NA,NA,NA,""
"image-keyboard-response",330,274307,"0.0-4.106-0.106","4sqdq9k0tqsmjo9",262,"1.csv","","168.29999999981374","resources/trios/L4T4A3.jpg","38","restless",0.4,0.8,0.8,0.996693142292638,"false"
"image-keyboard-response",331,274716,"0.0-4.106-1.106","4sqdq9k0tqsmjo9",262,"1.csv","","null","resources/maskTrios/BT4B.jpg","null","",NA,NA,NA,NA,""
"image-keyboard-response",332,275931,"0.0-4.106-2.106","4sqdq9k0tqsmjo9",262,"1.csv","","null","resources/images/fishbone.png","null","",NA,NA,NA,NA,""
"image-keyboard-response",333,276072,"0.0-4.107-0.107","4sqdq9k0tqsmjo9",262,"1.csv","","139.5","resources/trios/L4T4A3.jpg","37","restless",0.4,0.8,0.8,0.41208521230645,"false"
"image-keyboard-response",334,276479,"0.0-4.107-1.107","4sqdq9k0tqsmjo9",262,"1.csv","","null","resources/maskTrios/L4BB.jpg","null","",NA,NA,NA,NA,""
"image-keyboard-response",335,277696,"0.0-4.107-2.107","4sqdq9k0tqsmjo9",262,"1.csv","","null","resources/images/fishbone.png","null","",NA,NA,NA,NA,""
"image-keyboard-response",336,277715,"0.0-4.108-0.108","4sqdq9k0tqsmjo9",262,"1.csv","","17.799999999813735","resources/trios/L4T4A3.jpg","38","restless",0.4,0.8,0.8,0.91216696422785,"false"
"image-keyboard-response",337,278116,"0.0-4.108-1.108","4sqdq9k0tqsmjo9",262,"1.csv","","null","resources/maskTrios/BT4B.jpg","null","",NA,NA,NA,NA,""
"image-keyboard-response",338,279318,"0.0-4.108-2.108","4sqdq9k0tqsmjo9",262,"1.csv","","null","resources/images/fishbone.png","null","",NA,NA,NA,NA,""
"image-keyboard-response",339,279392,"0.0-4.109-0.109","4sqdq9k0tqsmjo9",262,"1.csv","","73.10000000009313","resources/trios/L4T4A3.jpg","37","restless",0.4,0.8,0.8,0.405867929788791,"false"
"image-keyboard-response",340,279800,"0.0-4.109-1.109","4sqdq9k0tqsmjo9",262,"1.csv","","null","resources/maskTrios/L4BB.jpg","null","",NA,NA,NA,NA,""
"image-keyboard-response",341,281015,"0.0-4.109-2.109","4sqdq9k0tqsmjo9",262,"1.csv","","null","resources/images/fishbone.png","null","",NA,NA,NA,NA,""
"image-keyboard-response",342,281054,"0.0-4.110-0.110","4sqdq9k0tqsmjo9",262,"1.csv","","37.5","resources/trios/L4T4A3.jpg","38","restless",0.4,0.9,0.8,0.499223456018044,"true"
"image-keyboard-response",343,281466,"0.0-4.110-1.110","4sqdq9k0tqsmjo9",262,"1.csv","","null","resources/maskTrios/BT4B.jpg","null","",NA,NA,NA,NA,""
"image-keyboard-response",344,282672,"0.0-4.110-2.110","4sqdq9k0tqsmjo9",262,"1.csv","","null","resources/images/coin2.png","null","",NA,NA,NA,NA,""
"image-keyboard-response",345,311225,"0.0-4.111-0.111","4sqdq9k0tqsmjo9",262,"1.csv","","28551.30000000028","resources/trios/L4T4A3.jpg","37","restless",0.4,0.9,0.8,0.991721886939067,"false"
"image-keyboard-response",346,311630,"0.0-4.111-1.111","4sqdq9k0tqsmjo9",262,"1.csv","","null","resources/maskTrios/L4BB.jpg","null","",NA,NA,NA,NA,""
"image-keyboard-response",347,312832,"0.0-4.111-2.111","4sqdq9k0tqsmjo9",262,"1.csv","","null","resources/images/fishbone.png","null","",NA,NA,NA,NA,""
"image-keyboard-response",348,312841,"0.0-4.112-0.112","4sqdq9k0tqsmjo9",262,"1.csv","","7.800000000279397","resources/trios/L4T4A3.jpg","37","restless",0.4,0.9,0.8,0.0564974095932314,"true"
"image-keyboard-response",349,313250,"0.0-4.112-1.112","4sqdq9k0tqsmjo9",262,"1.csv","","null","resources/maskTrios/L4BB.jpg","null","",NA,NA,NA,NA,""
"image-keyboard-response",350,314465,"0.0-4.112-2.112","4sqdq9k0tqsmjo9",262,"1.csv","","null","resources/images/coin2.png","null","",NA,NA,NA,NA,""
"image-keyboard-response",351,347992,"0.0-4.113-0.113","4sqdq9k0tqsmjo9",262,"1.csv","","33525.90000000037","resources/trios/L4T4A3.jpg","37","restless",0.4,0.9,0.8,0.338527273811681,"true"
"image-keyboard-response",352,348407,"0.0-4.113-1.113","4sqdq9k0tqsmjo9",262,"1.csv","","null","resources/maskTrios/L4BB.jpg","null","",NA,NA,NA,NA,""
"image-keyboard-response",353,349624,"0.0-4.113-2.113","4sqdq9k0tqsmjo9",262,"1.csv","","null","resources/images/coin2.png","null","",NA,NA,NA,NA,""
"image-keyboard-response",354,354307,"0.0-4.114-0.114","4sqdq9k0tqsmjo9",262,"1.csv","","4682.800000000279","resources/trios/L4T4A3.jpg","38","restless",0.4,0.9,0.7,0.72582711822435,"true"
"image-keyboard-response",355,354721,"0.0-4.114-1.114","4sqdq9k0tqsmjo9",262,"1.csv","","null","resources/maskTrios/BT4B.jpg","null","",NA,NA,NA,NA,""
"image-keyboard-response",356,355936,"0.0-4.114-2.114","4sqdq9k0tqsmjo9",262,"1.csv","","null","resources/images/coin2.png","null","",NA,NA,NA,NA,""
"image-keyboard-response",357,356082,"0.0-4.115-0.115","4sqdq9k0tqsmjo9",262,"1.csv","","144.89999999990687","resources/trios/L4T4A3.jpg","39","restless",0.4,0.9,0.7,0.343047294671715,"true"
"image-keyboard-response",358,356498,"0.0-4.115-1.115","4sqdq9k0tqsmjo9",262,"1.csv","","null","resources/maskTrios/BBA3.jpg","null","",NA,NA,NA,NA,""
"image-keyboard-response",359,357710,"0.0-4.115-2.115","4sqdq9k0tqsmjo9",262,"1.csv","","null","resources/images/coin2.png","null","",NA,NA,NA,NA,""
"image-keyboard-response",360,358730,"0.0-4.116-0.116","4sqdq9k0tqsmjo9",262,"1.csv","","1018.6999999997206","resources/trios/L4T4A3.jpg","39","restless",0.4,0.9,0.7,0.980452594567841,"false"
"image-keyboard-response",361,359144,"0.0-4.116-1.116","4sqdq9k0tqsmjo9",262,"1.csv","","null","resources/maskTrios/BBA3.jpg","null","",NA,NA,NA,NA,""
"image-keyboard-response",362,360347,"0.0-4.116-2.116","4sqdq9k0tqsmjo9",262,"1.csv","","null","resources/images/fishbone.png","null","",NA,NA,NA,NA,""
"image-keyboard-response",363,360526,"0.0-4.117-0.117","4sqdq9k0tqsmjo9",262,"1.csv","","178.39999999990687","resources/trios/L4T4A3.jpg","37","restless",0.4,0.9,0.7,0.289075871905585,"true"
"image-keyboard-response",364,360938,"0.0-4.117-1.117","4sqdq9k0tqsmjo9",262,"1.csv","","null","resources/maskTrios/L4BB.jpg","null","",NA,NA,NA,NA,""
"image-keyboard-response",365,362141,"0.0-4.117-2.117","4sqdq9k0tqsmjo9",262,"1.csv","","null","resources/images/coin2.png","null","",NA,NA,NA,NA,""
"image-keyboard-response",366,362328,"0.0-4.118-0.118","4sqdq9k0tqsmjo9",262,"1.csv","","186.70000000018626","resources/trios/L4T4A3.jpg","38","restless",0.4,0.8,0.7,0.657732620463162,"true"
"image-keyboard-response",367,362732,"0.0-4.118-1.118","4sqdq9k0tqsmjo9",262,"1.csv","","null","resources/maskTrios/BT4B.jpg","null","",NA,NA,NA,NA,""
"image-keyboard-response",368,363945,"0.0-4.118-2.118","4sqdq9k0tqsmjo9",262,"1.csv","","null","resources/images/coin2.png","null","",NA,NA,NA,NA,""
"image-keyboard-response",369,364161,"0.0-4.119-0.119","4sqdq9k0tqsmjo9",262,"1.csv","","214.89999999990687","resources/trios/L4T4A3.jpg","37","restless",0.4,0.8,0.7,0.30647662249855,"true"
"image-keyboard-response",370,364571,"0.0-4.119-1.119","4sqdq9k0tqsmjo9",262,"1.csv","","null","resources/maskTrios/L4BB.jpg","null","",NA,NA,NA,NA,""
"image-keyboard-response",371,365776,"0.0-4.119-2.119","4sqdq9k0tqsmjo9",262,"1.csv","","null","resources/images/coin2.png","null","",NA,NA,NA,NA,""
"image-keyboard-response",372,366078,"0.0-4.120-0.120","4sqdq9k0tqsmjo9",262,"1.csv","","300.79999999981374","resources/trios/L4T4A3.jpg","37","restless",0.4,0.8,0.7,0.19233260823096,"true"
"image-keyboard-response",373,366485,"0.0-4.120-1.120","4sqdq9k0tqsmjo9",262,"1.csv","","null","resources/maskTrios/L4BB.jpg","null","",NA,NA,NA,NA,""
"image-keyboard-response",374,367687,"0.0-4.120-2.120","4sqdq9k0tqsmjo9",262,"1.csv","","null","resources/images/coin2.png","null","",NA,NA,NA,NA,""
"image-keyboard-response",375,367787,"0.0-4.121-0.121","4sqdq9k0tqsmjo9",262,"1.csv","","99.70000000018626","resources/trios/L4T4A3.jpg","38","restless",0.4,0.8,0.7,0.634787837348914,"true"
"image-keyboard-response",376,368202,"0.0-4.121-1.121","4sqdq9k0tqsmjo9",262,"1.csv","","null","resources/maskTrios/BT4B.jpg","null","",NA,NA,NA,NA,""
"image-keyboard-response",377,369417,"0.0-4.121-2.121","4sqdq9k0tqsmjo9",262,"1.csv","","null","resources/images/coin2.png","null","",NA,NA,NA,NA,""
"image-keyboard-response",378,369583,"0.0-4.122-0.122","4sqdq9k0tqsmjo9",262,"1.csv","","164.70000000018626","resources/trios/L4T4A3.jpg","37","restless",0.4,0.8,0.7,0.603269201217041,"false"
"image-keyboard-response",379,369992,"0.0-4.122-1.122","4sqdq9k0tqsmjo9",262,"1.csv","","null","resources/maskTrios/L4BB.jpg","null","",NA,NA,NA,NA,""
"image-keyboard-response",380,371197,"0.0-4.122-2.122","4sqdq9k0tqsmjo9",262,"1.csv","","null","resources/images/fishbone.png","null","",NA,NA,NA,NA,""
"image-keyboard-response",381,371213,"0.0-4.123-0.123","4sqdq9k0tqsmjo9",262,"1.csv","","14.599999999627471","resources/trios/L4T4A3.jpg","37","restless",0.3,0.8,0.6,0.915863492727791,"false"
"image-keyboard-response",382,371626,"0.0-4.123-1.123","4sqdq9k0tqsmjo9",262,"1.csv","","null","resources/maskTrios/L4BB.jpg","null","",NA,NA,NA,NA,""
"image-keyboard-response",383,372828,"0.0-4.123-2.123","4sqdq9k0tqsmjo9",262,"1.csv","","null","resources/images/fishbone.png","null","",NA,NA,NA,NA,""
"image-keyboard-response",384,373193,"0.0-4.124-0.124","4sqdq9k0tqsmjo9",262,"1.csv","","363.60000000009313","resources/trios/L4T4A3.jpg","38","restless",0.3,0.8,0.6,0.307362504769313,"true"
"image-keyboard-response",385,373602,"0.0-4.124-1.124","4sqdq9k0tqsmjo9",262,"1.csv","","null","resources/maskTrios/BT4B.jpg","null","",NA,NA,NA,NA,""
"image-keyboard-response",386,374804,"0.0-4.124-2.124","4sqdq9k0tqsmjo9",262,"1.csv","","null","resources/images/coin2.png","null","",NA,NA,NA,NA,""
"image-keyboard-response",387,374974,"0.0-4.125-0.125","4sqdq9k0tqsmjo9",262,"1.csv","","169.10000000009313","resources/trios/L4T4A3.jpg","37","restless",0.3,0.8,0.6,0.401652101084332,"false"
"image-keyboard-response",388,375380,"0.0-4.125-1.125","4sqdq9k0tqsmjo9",262,"1.csv","","null","resources/maskTrios/L4BB.jpg","null","",NA,NA,NA,NA,""
"image-keyboard-response",389,376593,"0.0-4.125-2.125","4sqdq9k0tqsmjo9",262,"1.csv","","null","resources/images/fishbone.png","null","",NA,NA,NA,NA,""
"image-keyboard-response",390,376677,"0.0-4.126-0.126","4sqdq9k0tqsmjo9",262,"1.csv","","82.90000000037253","resources/trios/L4T4A3.jpg","38","restless",0.3,0.8,0.6,0.432200593965204,"true"
"image-keyboard-response",391,377079,"0.0-4.126-1.126","4sqdq9k0tqsmjo9",262,"1.csv","","null","resources/maskTrios/BT4B.jpg","null","",NA,NA,NA,NA,""
"image-keyboard-response",392,378290,"0.0-4.126-2.126","4sqdq9k0tqsmjo9",262,"1.csv","","null","resources/images/coin2.png","null","",NA,NA,NA,NA,""
"image-keyboard-response",393,378328,"0.0-4.127-0.127","4sqdq9k0tqsmjo9",262,"1.csv","","36.700000000186265","resources/trios/L4T4A3.jpg","37","restless",0.3,0.8,0.6,0.0474157693606452,"true"
"image-keyboard-response",394,378741,"0.0-4.127-1.127","4sqdq9k0tqsmjo9",262,"1.csv","","null","resources/maskTrios/L4BB.jpg","null","",NA,NA,NA,NA,""
"image-keyboard-response",395,379954,"0.0-4.127-2.127","4sqdq9k0tqsmjo9",262,"1.csv","","null","resources/images/coin2.png","null","",NA,NA,NA,NA,""
"image-keyboard-response",396,380006,"0.0-4.128-0.128","4sqdq9k0tqsmjo9",262,"1.csv","","51.299999999813735","resources/trios/L4T4A3.jpg","37","restless",0.3,0.8,0.6,0.569067135478158,"false"
"image-keyboard-response",397,380421,"0.0-4.128-1.128","4sqdq9k0tqsmjo9",262,"1.csv","","null","resources/maskTrios/L4BB.jpg","null","",NA,NA,NA,NA,""
"image-keyboard-response",398,381634,"0.0-4.128-2.128","4sqdq9k0tqsmjo9",262,"1.csv","","null","resources/images/fishbone.png","null","",NA,NA,NA,NA,""
"image-keyboard-response",399,381768,"0.0-4.129-0.129","4sqdq9k0tqsmjo9",262,"1.csv","","132.5","resources/trios/L4T4A3.jpg","38","restless",0.3,0.8,0.6,0.0644646154277853,"true"
"image-keyboard-response",400,382180,"0.0-4.129-1.129","4sqdq9k0tqsmjo9",262,"1.csv","","null","resources/maskTrios/BT4B.jpg","null","",NA,NA,NA,NA,""
"image-keyboard-response",401,383382,"0.0-4.129-2.129","4sqdq9k0tqsmjo9",262,"1.csv","","null","resources/images/coin2.png","null","",NA,NA,NA,NA,""
"image-keyboard-response",402,383384,"0.0-4.130-0.130","4sqdq9k0tqsmjo9",262,"1.csv","","0.2999999998137355","resources/trios/L4T4A3.jpg","38","restless",0.3,0.8,0.6,0.890720266753967,"false"
"image-keyboard-response",403,383786,"0.0-4.130-1.130","4sqdq9k0tqsmjo9",262,"1.csv","","null","resources/maskTrios/BT4B.jpg","null","",NA,NA,NA,NA,""
"image-keyboard-response",404,384989,"0.0-4.130-2.130","4sqdq9k0tqsmjo9",262,"1.csv","","null","resources/images/fishbone.png","null","",NA,NA,NA,NA,""
"image-keyboard-response",405,385147,"0.0-4.131-0.131","4sqdq9k0tqsmjo9",262,"1.csv","","157","resources/trios/L4T4A3.jpg","39","restless",0.3,0.8,0.6,0.344019421815915,"true"
"image-keyboard-response",406,385549,"0.0-4.131-1.131","4sqdq9k0tqsmjo9",262,"1.csv","","null","resources/maskTrios/BBA3.jpg","null","",NA,NA,NA,NA,""
"image-keyboard-response",407,386764,"0.0-4.131-2.131","4sqdq9k0tqsmjo9",262,"1.csv","","null","resources/images/coin2.png","null","",NA,NA,NA,NA,""
"image-keyboard-response",408,387170,"0.0-4.132-0.132","4sqdq9k0tqsmjo9",262,"1.csv","","404.5","resources/trios/L4T4A3.jpg","38","restless",0.3,0.8,0.6,0.698390197686662,"true"
"image-keyboard-response",409,387572,"0.0-4.132-1.132","4sqdq9k0tqsmjo9",262,"1.csv","","null","resources/maskTrios/BT4B.jpg","null","",NA,NA,NA,NA,""
"image-keyboard-response",410,388787,"0.0-4.132-2.132","4sqdq9k0tqsmjo9",262,"1.csv","","null","resources/images/coin2.png","null","",NA,NA,NA,NA,""
"image-keyboard-response",411,388926,"0.0-4.133-0.133","4sqdq9k0tqsmjo9",262,"1.csv","","138.10000000009313","resources/trios/L4T4A3.jpg","39","restless",0.3,0.8,0.6,0.444062709537991,"true"
"image-keyboard-response",412,389333,"0.0-4.133-1.133","4sqdq9k0tqsmjo9",262,"1.csv","","null","resources/maskTrios/BBA3.jpg","null","",NA,NA,NA,NA,""
"image-keyboard-response",413,390549,"0.0-4.133-2.133","4sqdq9k0tqsmjo9",262,"1.csv","","null","resources/images/coin2.png","null","",NA,NA,NA,NA,""
"image-keyboard-response",414,390681,"0.0-4.134-0.134","4sqdq9k0tqsmjo9",262,"1.csv","","130.8000000002794","resources/trios/L4T4A3.jpg","37","restless",0.3,0.8,0.6,0.976302083765592,"false"
"image-keyboard-response",415,391094,"0.0-4.134-1.134","4sqdq9k0tqsmjo9",262,"1.csv","","null","resources/maskTrios/L4BB.jpg","null","",NA,NA,NA,NA,""
"image-keyboard-response",416,392309,"0.0-4.134-2.134","4sqdq9k0tqsmjo9",262,"1.csv","","null","resources/images/fishbone.png","null","",NA,NA,NA,NA,""
"image-keyboard-response",417,392485,"0.0-4.135-0.135","4sqdq9k0tqsmjo9",262,"1.csv","","174.5","resources/trios/L4T4A3.jpg","37","restless",0.3,0.8,0.6,0.980389573529019,"false"
"image-keyboard-response",418,392899,"0.0-4.135-1.135","4sqdq9k0tqsmjo9",262,"1.csv","","null","resources/maskTrios/L4BB.jpg","null","",NA,NA,NA,NA,""
"image-keyboard-response",419,394113,"0.0-4.135-2.135","4sqdq9k0tqsmjo9",262,"1.csv","","null","resources/images/fishbone.png","null","",NA,NA,NA,NA,""
"image-keyboard-response",420,394170,"0.0-4.136-0.136","4sqdq9k0tqsmjo9",262,"1.csv","","56","resources/trios/L4T4A3.jpg","39","restless",0.3,0.8,0.6,0.572125771568137,"true"
"image-keyboard-response",421,394581,"0.0-4.136-1.136","4sqdq9k0tqsmjo9",262,"1.csv","","null","resources/maskTrios/BBA3.jpg","null","",NA,NA,NA,NA,""
"image-keyboard-response",422,395793,"0.0-4.136-2.136","4sqdq9k0tqsmjo9",262,"1.csv","","null","resources/images/coin2.png","null","",NA,NA,NA,NA,""
"image-keyboard-response",423,395917,"0.0-4.137-0.137","4sqdq9k0tqsmjo9",262,"1.csv","","122.70000000018626","resources/trios/L4T4A3.jpg","39","restless",0.3,0.8,0.6,0.0595654453363079,"true"
"image-keyboard-response",424,396322,"0.0-4.137-1.137","4sqdq9k0tqsmjo9",262,"1.csv","","null","resources/maskTrios/BBA3.jpg","null","",NA,NA,NA,NA,""
"image-keyboard-response",425,397537,"0.0-4.137-2.137","4sqdq9k0tqsmjo9",262,"1.csv","","null","resources/images/coin2.png","null","",NA,NA,NA,NA,""
"image-keyboard-response",426,397598,"0.0-4.138-0.138","4sqdq9k0tqsmjo9",262,"1.csv","","59.8000000002794","resources/trios/L4T4A3.jpg","38","restless",0.3,0.9,0.6,0.0726020186800409,"true"
"image-keyboard-response",427,398004,"0.0-4.138-1.138","4sqdq9k0tqsmjo9",262,"1.csv","","null","resources/maskTrios/BT4B.jpg","null","",NA,NA,NA,NA,""
"image-keyboard-response",428,399218,"0.0-4.138-2.138","4sqdq9k0tqsmjo9",262,"1.csv","","null","resources/images/coin2.png","null","",NA,NA,NA,NA,""
"image-keyboard-response",429,399250,"0.0-4.139-0.139","4sqdq9k0tqsmjo9",262,"1.csv","","29.800000000279397","resources/trios/L4T4A3.jpg","38","restless",0.3,0.9,0.6,0.0600837705250026,"true"
"image-keyboard-response",430,399653,"0.0-4.139-1.139","4sqdq9k0tqsmjo9",262,"1.csv","","null","resources/maskTrios/BT4B.jpg","null","",NA,NA,NA,NA,""
"image-keyboard-response",431,400870,"0.0-4.139-2.139","4sqdq9k0tqsmjo9",262,"1.csv","","null","resources/images/coin2.png","null","",NA,NA,NA,NA,""
"image-keyboard-response",432,400909,"0.0-4.140-0.140","4sqdq9k0tqsmjo9",262,"1.csv","","38.299999999813735","resources/trios/L4T4A3.jpg","39","restless",0.3,0.9,0.6,0.250043983825277,"true"
"image-keyboard-response",433,401320,"0.0-4.140-1.140","4sqdq9k0tqsmjo9",262,"1.csv","","null","resources/maskTrios/BBA3.jpg","null","",NA,NA,NA,NA,""
"image-keyboard-response",434,402534,"0.0-4.140-2.140","4sqdq9k0tqsmjo9",262,"1.csv","","null","resources/images/coin2.png","null","",NA,NA,NA,NA,""
"image-keyboard-response",435,402554,"0.0-4.141-0.141","4sqdq9k0tqsmjo9",262,"1.csv","","19.699999999720603","resources/trios/L4T4A3.jpg","37","restless",0.3,0.9,0.6,0.101439165328829,"true"
"image-keyboard-response",436,402969,"0.0-4.141-1.141","4sqdq9k0tqsmjo9",262,"1.csv","","null","resources/maskTrios/L4BB.jpg","null","",NA,NA,NA,NA,""
"image-keyboard-response",437,404184,"0.0-4.141-2.141","4sqdq9k0tqsmjo9",262,"1.csv","","null","resources/images/coin2.png","null","",NA,NA,NA,NA,""
"image-keyboard-response",438,404230,"0.0-4.142-0.142","4sqdq9k0tqsmjo9",262,"1.csv","","44.10000000009313","resources/trios/L4T4A3.jpg","37","restless",0.3,0.9,0.5,0.354111022512998,"false"
"image-keyboard-response",439,404630,"0.0-4.142-1.142","4sqdq9k0tqsmjo9",262,"1.csv","","null","resources/maskTrios/L4BB.jpg","null","",NA,NA,NA,NA,""
"image-keyboard-response",440,405836,"0.0-4.142-2.142","4sqdq9k0tqsmjo9",262,"1.csv","","null","resources/images/fishbone.png","null","",NA,NA,NA,NA,""
"image-keyboard-response",441,405862,"0.0-4.143-0.143","4sqdq9k0tqsmjo9",262,"1.csv","","25.100000000093132","resources/trios/L4T4A3.jpg","38","restless",0.3,0.9,0.6,0.585560244451951,"true"
"image-keyboard-response",442,406274,"0.0-4.143-1.143","4sqdq9k0tqsmjo9",262,"1.csv","","null","resources/maskTrios/BT4B.jpg","null","",NA,NA,NA,NA,""
"image-keyboard-response",443,407486,"0.0-4.143-2.143","4sqdq9k0tqsmjo9",262,"1.csv","","null","resources/images/coin2.png","null","",NA,NA,NA,NA,""
"image-keyboard-response",444,407535,"0.0-4.144-0.144","4sqdq9k0tqsmjo9",262,"1.csv","","47.89999999990687","resources/trios/L4T4A3.jpg","38","restless",0.3,0.9,0.6,0.109752510374186,"true"
"image-keyboard-response",445,407938,"0.0-4.144-1.144","4sqdq9k0tqsmjo9",262,"1.csv","","null","resources/maskTrios/BT4B.jpg","null","",NA,NA,NA,NA,""
"image-keyboard-response",446,409152,"0.0-4.144-2.144","4sqdq9k0tqsmjo9",262,"1.csv","","null","resources/images/coin2.png","null","",NA,NA,NA,NA,""
"image-keyboard-response",447,409398,"0.0-4.145-0.145","4sqdq9k0tqsmjo9",262,"1.csv","","245.20000000018626","resources/trios/L4T4A3.jpg","38","restless",0.3,0.9,0.7,0.650108011809402,"true"
"image-keyboard-response",448,409805,"0.0-4.145-1.145","4sqdq9k0tqsmjo9",262,"1.csv","","null","resources/maskTrios/BT4B.jpg","null","",NA,NA,NA,NA,""
"image-keyboard-response",449,411018,"0.0-4.145-2.145","4sqdq9k0tqsmjo9",262,"1.csv","","null","resources/images/coin2.png","null","",NA,NA,NA,NA,""
"image-keyboard-response",450,411179,"0.0-4.146-0.146","4sqdq9k0tqsmjo9",262,"1.csv","","160.60000000009313","resources/trios/L4T4A3.jpg","38","restless",0.4,0.9,0.7,0.263125534799954,"true"
"image-keyboard-response",451,411595,"0.0-4.146-1.146","4sqdq9k0tqsmjo9",262,"1.csv","","null","resources/maskTrios/BT4B.jpg","null","",NA,NA,NA,NA,""
"image-keyboard-response",452,412808,"0.0-4.146-2.146","4sqdq9k0tqsmjo9",262,"1.csv","","null","resources/images/coin2.png","null","",NA,NA,NA,NA,""
"image-keyboard-response",453,412964,"0.0-4.147-0.147","4sqdq9k0tqsmjo9",262,"1.csv","","155.1999999997206","resources/trios/L4T4A3.jpg","38","restless",0.4,0.9,0.7,0.223464684126715,"true"
"image-keyboard-response",454,413370,"0.0-4.147-1.147","4sqdq9k0tqsmjo9",262,"1.csv","","null","resources/maskTrios/BT4B.jpg","null","",NA,NA,NA,NA,""
"image-keyboard-response",455,414585,"0.0-4.147-2.147","4sqdq9k0tqsmjo9",262,"1.csv","","null","resources/images/coin2.png","null","",NA,NA,NA,NA,""
"image-keyboard-response",456,414653,"0.0-4.148-0.148","4sqdq9k0tqsmjo9",262,"1.csv","","67","resources/trios/L4T4A3.jpg","38","restless",0.4,0.9,0.7,0.604670521648371,"true"
"image-keyboard-response",457,415062,"0.0-4.148-1.148","4sqdq9k0tqsmjo9",262,"1.csv","","null","resources/maskTrios/BT4B.jpg","null","",NA,NA,NA,NA,""
"image-keyboard-response",458,416267,"0.0-4.148-2.148","4sqdq9k0tqsmjo9",262,"1.csv","","null","resources/images/coin2.png","null","",NA,NA,NA,NA,""
"image-keyboard-response",459,416414,"0.0-4.149-0.149","4sqdq9k0tqsmjo9",262,"1.csv","","146.10000000009313","resources/trios/L4T4A3.jpg","38","restless",0.4,0.9,0.7,0.519355557886278,"true"
"image-keyboard-response",460,416817,"0.0-4.149-1.149","4sqdq9k0tqsmjo9",262,"1.csv","","null","resources/maskTrios/BT4B.jpg","null","",NA,NA,NA,NA,""
"image-keyboard-response",461,418031,"0.0-4.149-2.149","4sqdq9k0tqsmjo9",262,"1.csv","","null","resources/images/coin2.png","null","",NA,NA,NA,NA,""
"image-keyboard-response",462,418186,"0.0-4.150-0.150","4sqdq9k0tqsmjo9",262,"1.csv","","153.70000000018626","resources/trios/L4T4A3.jpg","39","restless",0.4,0.9,0.7,0.404294522487855,"true"
"image-keyboard-response",463,418591,"0.0-4.150-1.150","4sqdq9k0tqsmjo9",262,"1.csv","","null","resources/maskTrios/BBA3.jpg","null","",NA,NA,NA,NA,""
"image-keyboard-response",464,419792,"0.0-4.150-2.150","4sqdq9k0tqsmjo9",262,"1.csv","","null","resources/images/coin2.png","null","",NA,NA,NA,NA,""
"image-keyboard-response",465,419998,"0.0-4.151-0.151","4sqdq9k0tqsmjo9",262,"1.csv","","205","resources/trios/L4T4A3.jpg","37","restless",0.4,0.9,0.7,0.907642897736,"false"
"image-keyboard-response",466,420410,"0.0-4.151-1.151","4sqdq9k0tqsmjo9",262,"1.csv","","null","resources/maskTrios/L4BB.jpg","null","",NA,NA,NA,NA,""
"image-keyboard-response",467,421623,"0.0-4.151-2.151","4sqdq9k0tqsmjo9",262,"1.csv","","null","resources/images/fishbone.png","null","",NA,NA,NA,NA,""
"image-keyboard-response",468,421697,"0.0-4.152-0.152","4sqdq9k0tqsmjo9",262,"1.csv","","72.8000000002794","resources/trios/L4T4A3.jpg","37","restless",0.5,0.9,0.7,0.41705075842042,"true"
"image-keyboard-response",469,422104,"0.0-4.152-1.152","4sqdq9k0tqsmjo9",262,"1.csv","","null","resources/maskTrios/L4BB.jpg","null","",NA,NA,NA,NA,""
"image-keyboard-response",470,423305,"0.0-4.152-2.152","4sqdq9k0tqsmjo9",262,"1.csv","","null","resources/images/coin2.png","null","",NA,NA,NA,NA,""
"image-keyboard-response",471,423472,"0.0-4.153-0.153","4sqdq9k0tqsmjo9",262,"1.csv","","165.89999999990687","resources/trios/L4T4A3.jpg","37","restless",0.5,0.9,0.7,0.911086413743958,"false"
"image-keyboard-response",472,423882,"0.0-4.153-1.153","4sqdq9k0tqsmjo9",262,"1.csv","","null","resources/maskTrios/L4BB.jpg","null","",NA,NA,NA,NA,""
"image-keyboard-response",473,425098,"0.0-4.153-2.153","4sqdq9k0tqsmjo9",262,"1.csv","","null","resources/images/fishbone.png","null","",NA,NA,NA,NA,""
"image-keyboard-response",474,425167,"0.0-4.154-0.154","4sqdq9k0tqsmjo9",262,"1.csv","","68.39999999990687","resources/trios/L4T4A3.jpg","39","restless",0.5,0.9,0.7,0.161750143837477,"true"
"image-keyboard-response",475,425581,"0.0-4.154-1.154","4sqdq9k0tqsmjo9",262,"1.csv","","null","resources/maskTrios/BBA3.jpg","null","",NA,NA,NA,NA,""
"image-keyboard-response",476,426794,"0.0-4.154-2.154","4sqdq9k0tqsmjo9",262,"1.csv","","null","resources/images/coin2.png","null","",NA,NA,NA,NA,""
"image-keyboard-response",477,426915,"0.0-4.155-0.155","4sqdq9k0tqsmjo9",262,"1.csv","","119.8000000002794","resources/trios/L4T4A3.jpg","38","restless",0.5,0.9,0.7,0.647406108298807,"true"
"image-keyboard-response",478,427324,"0.0-4.155-1.155","4sqdq9k0tqsmjo9",262,"1.csv","","null","resources/maskTrios/BT4B.jpg","null","",NA,NA,NA,NA,""
"image-keyboard-response",479,428538,"0.0-4.155-2.155","4sqdq9k0tqsmjo9",262,"1.csv","","null","resources/images/coin2.png","null","",NA,NA,NA,NA,""
"image-keyboard-response",480,428776,"0.0-4.156-0.156","4sqdq9k0tqsmjo9",262,"1.csv","","236.60000000009313","resources/trios/L4T4A3.jpg","38","restless",0.5,0.9,0.7,0.983434518882029,"false"
"image-keyboard-response",481,429192,"0.0-4.156-1.156","4sqdq9k0tqsmjo9",262,"1.csv","","null","resources/maskTrios/BT4B.jpg","null","",NA,NA,NA,NA,""
"image-keyboard-response",482,430407,"0.0-4.156-2.156","4sqdq9k0tqsmjo9",262,"1.csv","","null","resources/images/fishbone.png","null","",NA,NA,NA,NA,""
"image-keyboard-response",483,430749,"0.0-4.157-0.157","4sqdq9k0tqsmjo9",262,"1.csv","","341.6999999997206","resources/trios/L4T4A3.jpg","39","restless",0.5,0.9,0.7,0.899097221226755,"false"
"image-keyboard-response",484,431154,"0.0-4.157-1.157","4sqdq9k0tqsmjo9",262,"1.csv","","null","resources/maskTrios/BBA3.jpg","null","",NA,NA,NA,NA,""
"image-keyboard-response",485,432355,"0.0-4.157-2.157","4sqdq9k0tqsmjo9",262,"1.csv","","null","resources/images/fishbone.png","null","",NA,NA,NA,NA,""
"image-keyboard-response",486,432357,"0.0-4.158-0.158","4sqdq9k0tqsmjo9",262,"1.csv","","0.39999999990686774","resources/trios/L4T4A3.jpg","39","restless",0.5,0.8,0.7,0.464119404751284,"true"
"image-keyboard-response",487,432760,"0.0-4.158-1.158","4sqdq9k0tqsmjo9",262,"1.csv","","null","resources/maskTrios/BBA3.jpg","null","",NA,NA,NA,NA,""
"image-keyboard-response",488,433975,"0.0-4.158-2.158","4sqdq9k0tqsmjo9",262,"1.csv","","null","resources/images/coin2.png","null","",NA,NA,NA,NA,""
"image-keyboard-response",489,434078,"0.0-4.159-0.159","4sqdq9k0tqsmjo9",262,"1.csv","","102.29999999981374","resources/trios/L4T4A3.jpg","39","restless",0.5,0.8,0.7,0.927740890474565,"false"
"image-keyboard-response",490,434490,"0.0-4.159-1.159","4sqdq9k0tqsmjo9",262,"1.csv","","null","resources/maskTrios/BBA3.jpg","null","",NA,NA,NA,NA,""
"image-keyboard-response",491,435704,"0.0-4.159-2.159","4sqdq9k0tqsmjo9",262,"1.csv","","null","resources/images/fishbone.png","null","",NA,NA,NA,NA,""
"image-keyboard-response",492,435717,"0.0-4.160-0.160","4sqdq9k0tqsmjo9",262,"1.csv","","11","resources/trios/L4T4A3.jpg","37","restless",0.5,0.8,0.7,0.450755295389323,"true"
"image-keyboard-response",493,436124,"0.0-4.160-1.160","4sqdq9k0tqsmjo9",262,"1.csv","","null","resources/maskTrios/L4BB.jpg","null","",NA,NA,NA,NA,""
"image-keyboard-response",494,437341,"0.0-4.160-2.160","4sqdq9k0tqsmjo9",262,"1.csv","","null","resources/images/coin2.png","null","",NA,NA,NA,NA,""
"image-keyboard-response",495,437372,"0.0-4.161-0.161","4sqdq9k0tqsmjo9",262,"1.csv","","29.300000000279397","resources/trios/L4T4A3.jpg","39","restless",0.5,0.8,0.7,0.57499950412523,"true"
"image-keyboard-response",496,437777,"0.0-4.161-1.161","4sqdq9k0tqsmjo9",262,"1.csv","","null","resources/maskTrios/BBA3.jpg","null","",NA,NA,NA,NA,""
"image-keyboard-response",497,438990,"0.0-4.161-2.161","4sqdq9k0tqsmjo9",262,"1.csv","","null","resources/images/coin2.png","null","",NA,NA,NA,NA,""
"image-keyboard-response",498,439139,"0.0-4.162-0.162","4sqdq9k0tqsmjo9",262,"1.csv","","147.70000000018626","resources/trios/L4T4A3.jpg","38","restless",0.5,0.8,0.7,0.316226959191204,"true"
"image-keyboard-response",499,439552,"0.0-4.162-1.162","4sqdq9k0tqsmjo9",262,"1.csv","","null","resources/maskTrios/BT4B.jpg","null","",NA,NA,NA,NA,""
"image-keyboard-response",500,440766,"0.0-4.162-2.162","4sqdq9k0tqsmjo9",262,"1.csv","","null","resources/images/coin2.png","null","",NA,NA,NA,NA,""
"image-keyboard-response",501,440898,"0.0-4.163-0.163","4sqdq9k0tqsmjo9",262,"1.csv","","130.89999999990687","resources/trios/L4T4A3.jpg","37","restless",0.5,0.8,0.6,0.45193726746157,"true"
"image-keyboard-response",502,441305,"0.0-4.163-1.163","4sqdq9k0tqsmjo9",262,"1.csv","","null","resources/maskTrios/L4BB.jpg","null","",NA,NA,NA,NA,""
"image-keyboard-response",503,442514,"0.0-4.163-2.163","4sqdq9k0tqsmjo9",262,"1.csv","","null","resources/images/coin2.png","null","",NA,NA,NA,NA,""
"image-keyboard-response",504,442588,"0.0-4.164-0.164","4sqdq9k0tqsmjo9",262,"1.csv","","73.1999999997206","resources/trios/L4T4A3.jpg","38","restless",0.5,0.8,0.6,0.675402057751044,"true"
"image-keyboard-response",505,442996,"0.0-4.164-1.164","4sqdq9k0tqsmjo9",262,"1.csv","","null","resources/maskTrios/BT4B.jpg","null","",NA,NA,NA,NA,""
"image-keyboard-response",506,444201,"0.0-4.164-2.164","4sqdq9k0tqsmjo9",262,"1.csv","","null","resources/images/coin2.png","null","",NA,NA,NA,NA,""
"image-keyboard-response",507,444347,"0.0-4.165-0.165","4sqdq9k0tqsmjo9",262,"1.csv","","145.5","resources/trios/L4T4A3.jpg","37","restless",0.5,0.8,0.6,0.226603932138144,"true"
"image-keyboard-response",508,444751,"0.0-4.165-1.165","4sqdq9k0tqsmjo9",262,"1.csv","","null","resources/maskTrios/L4BB.jpg","null","",NA,NA,NA,NA,""
"image-keyboard-response",509,445964,"0.0-4.165-2.165","4sqdq9k0tqsmjo9",262,"1.csv","","null","resources/images/coin2.png","null","",NA,NA,NA,NA,""
"image-keyboard-response",510,446107,"0.0-4.166-0.166","4sqdq9k0tqsmjo9",262,"1.csv","","141.20000000018626","resources/trios/L4T4A3.jpg","37","restless",0.5,0.7,0.5,0.848929418929321,"false"
"image-keyboard-response",511,446509,"0.0-4.166-1.166","4sqdq9k0tqsmjo9",262,"1.csv","","null","resources/maskTrios/L4BB.jpg","null","",NA,NA,NA,NA,""
"image-keyboard-response",512,447725,"0.0-4.166-2.166","4sqdq9k0tqsmjo9",262,"1.csv","","null","resources/images/fishbone.png","null","",NA,NA,NA,NA,""
"image-keyboard-response",513,447871,"0.0-4.167-0.167","4sqdq9k0tqsmjo9",262,"1.csv","","145.60000000009313","resources/trios/L4T4A3.jpg","39","restless",0.5,0.8,0.5,0.304135288599854,"true"
"image-keyboard-response",514,448280,"0.0-4.167-1.167","4sqdq9k0tqsmjo9",262,"1.csv","","null","resources/maskTrios/BBA3.jpg","null","",NA,NA,NA,NA,""
"image-keyboard-response",515,449486,"0.0-4.167-2.167","4sqdq9k0tqsmjo9",262,"1.csv","","null","resources/images/coin2.png","null","",NA,NA,NA,NA,""
"image-keyboard-response",516,449638,"0.0-4.168-0.168","4sqdq9k0tqsmjo9",262,"1.csv","","150.39999999990687","resources/trios/L4T4A3.jpg","39","restless",0.5,0.8,0.5,0.24888762727588,"true"
"image-keyboard-response",517,450039,"0.0-4.168-1.168","4sqdq9k0tqsmjo9",262,"1.csv","","null","resources/maskTrios/BBA3.jpg","null","",NA,NA,NA,NA,""
"image-keyboard-response",518,451251,"0.0-4.168-2.168","4sqdq9k0tqsmjo9",262,"1.csv","","null","resources/images/coin2.png","null","",NA,NA,NA,NA,""
"image-keyboard-response",519,451419,"0.0-4.169-0.169","4sqdq9k0tqsmjo9",262,"1.csv","","166.79999999981374","resources/trios/L4T4A3.jpg","39","restless",0.6,0.8,0.5,0.204296190008486,"true"
"image-keyboard-response",520,451830,"0.0-4.169-1.169","4sqdq9k0tqsmjo9",262,"1.csv","","null","resources/maskTrios/BBA3.jpg","null","",NA,NA,NA,NA,""
"image-keyboard-response",521,453043,"0.0-4.169-2.169","4sqdq9k0tqsmjo9",262,"1.csv","","null","resources/images/coin2.png","null","",NA,NA,NA,NA,""
"image-keyboard-response",522,453267,"0.0-4.170-0.170","4sqdq9k0tqsmjo9",262,"1.csv","","223.59999999962747","resources/trios/L4T4A3.jpg","39","restless",0.6,0.8,0.6,0.405218318440173,"true"
"image-keyboard-response",523,453681,"0.0-4.170-1.170","4sqdq9k0tqsmjo9",262,"1.csv","","null","resources/maskTrios/BBA3.jpg","null","",NA,NA,NA,NA,""
"image-keyboard-response",524,454884,"0.0-4.170-2.170","4sqdq9k0tqsmjo9",262,"1.csv","","null","resources/images/coin2.png","null","",NA,NA,NA,NA,""
"image-keyboard-response",525,454888,"0.0-4.171-0.171","4sqdq9k0tqsmjo9",262,"1.csv","","3.3999999999068677","resources/trios/L4T4A3.jpg","39","restless",0.6,0.8,0.6,0.876781516328023,"false"
"image-keyboard-response",526,455305,"0.0-4.171-1.171","4sqdq9k0tqsmjo9",262,"1.csv","","null","resources/maskTrios/BBA3.jpg","null","",NA,NA,NA,NA,""
"image-keyboard-response",527,456521,"0.0-4.171-2.171","4sqdq9k0tqsmjo9",262,"1.csv","","null","resources/images/fishbone.png","null","",NA,NA,NA,NA,""
"image-keyboard-response",528,456700,"0.0-4.172-0.172","4sqdq9k0tqsmjo9",262,"1.csv","","177.39999999990687","resources/trios/L4T4A3.jpg","37","restless",0.6,0.8,0.6,0.195560560123318,"true"
"image-keyboard-response",529,457115,"0.0-4.172-1.172","4sqdq9k0tqsmjo9",262,"1.csv","","null","resources/maskTrios/L4BB.jpg","null","",NA,NA,NA,NA,""
"image-keyboard-response",530,458317,"0.0-4.172-2.172","4sqdq9k0tqsmjo9",262,"1.csv","","null","resources/images/coin2.png","null","",NA,NA,NA,NA,""
"image-keyboard-response",531,458325,"0.0-4.173-0.173","4sqdq9k0tqsmjo9",262,"1.csv","","7.399999999906868","resources/trios/L4T4A3.jpg","37","restless",0.6,0.8,0.6,0.207227522676898,"true"
"image-keyboard-response",532,458737,"0.0-4.173-1.173","4sqdq9k0tqsmjo9",262,"1.csv","","null","resources/maskTrios/L4BB.jpg","null","",NA,NA,NA,NA,""
"image-keyboard-response",533,459953,"0.0-4.173-2.173","4sqdq9k0tqsmjo9",262,"1.csv","","null","resources/images/coin2.png","null","",NA,NA,NA,NA,""
"image-keyboard-response",534,460077,"0.0-4.174-0.174","4sqdq9k0tqsmjo9",262,"1.csv","","122.60000000009313","resources/trios/L4T4A3.jpg","37","restless",0.6,0.8,0.6,0.705153964449742,"false"
"image-keyboard-response",535,460482,"0.0-4.174-1.174","4sqdq9k0tqsmjo9",262,"1.csv","","null","resources/maskTrios/L4BB.jpg","null","",NA,NA,NA,NA,""
"image-keyboard-response",536,461685,"0.0-4.174-2.174","4sqdq9k0tqsmjo9",262,"1.csv","","null","resources/images/fishbone.png","null","",NA,NA,NA,NA,""
"image-keyboard-response",537,461749,"0.0-4.175-0.175","4sqdq9k0tqsmjo9",262,"1.csv","","62.40000000037253","resources/trios/L4T4A3.jpg","38","restless",0.6,0.8,0.6,0.38196410190709,"true"
"image-keyboard-response",538,462152,"0.0-4.175-1.175","4sqdq9k0tqsmjo9",262,"1.csv","","null","resources/maskTrios/BT4B.jpg","null","",NA,NA,NA,NA,""
"image-keyboard-response",539,463365,"0.0-4.175-2.175","4sqdq9k0tqsmjo9",262,"1.csv","","null","resources/images/coin2.png","null","",NA,NA,NA,NA,""
"image-keyboard-response",540,463532,"0.0-4.176-0.176","4sqdq9k0tqsmjo9",262,"1.csv","","165.29999999981374","resources/trios/L4T4A3.jpg","38","restless",0.6,0.8,0.6,0.0511928379105637,"true"
"image-keyboard-response",541,463942,"0.0-4.176-1.176","4sqdq9k0tqsmjo9",262,"1.csv","","null","resources/maskTrios/BT4B.jpg","null","",NA,NA,NA,NA,""
"image-keyboard-response",542,465145,"0.0-4.176-2.176","4sqdq9k0tqsmjo9",262,"1.csv","","null","resources/images/coin2.png","null","",NA,NA,NA,NA,""
"image-keyboard-response",543,465255,"0.0-4.177-0.177","4sqdq9k0tqsmjo9",262,"1.csv","","108.5","resources/trios/L4T4A3.jpg","38","restless",0.6,0.8,0.5,0.182765940256245,"true"
"image-keyboard-response",544,465661,"0.0-4.177-1.177","4sqdq9k0tqsmjo9",262,"1.csv","","null","resources/maskTrios/BT4B.jpg","null","",NA,NA,NA,NA,""
"image-keyboard-response",545,466878,"0.0-4.177-2.177","4sqdq9k0tqsmjo9",262,"1.csv","","null","resources/images/coin2.png","null","",NA,NA,NA,NA,""
"image-keyboard-response",546,466922,"0.0-4.178-0.178","4sqdq9k0tqsmjo9",262,"1.csv","","43.799999999813735","resources/trios/L4T4A3.jpg","38","restless",0.6,0.8,0.5,0.0659073918726507,"true"
"image-keyboard-response",547,467329,"0.0-4.178-1.178","4sqdq9k0tqsmjo9",262,"1.csv","","null","resources/maskTrios/BT4B.jpg","null","",NA,NA,NA,NA,""
"image-keyboard-response",548,468542,"0.0-4.178-2.178","4sqdq9k0tqsmjo9",262,"1.csv","","null","resources/images/coin2.png","null","",NA,NA,NA,NA,""
"image-keyboard-response",549,468815,"0.0-4.179-0.179","4sqdq9k0tqsmjo9",262,"1.csv","","270.70000000018626","resources/trios/L4T4A3.jpg","38","restless",0.6,0.9,0.5,0.616412733938851,"true"
"image-keyboard-response",550,469228,"0.0-4.179-1.179","4sqdq9k0tqsmjo9",262,"1.csv","","null","resources/maskTrios/BT4B.jpg","null","",NA,NA,NA,NA,""
"image-keyboard-response",551,470438,"0.0-4.179-2.179","4sqdq9k0tqsmjo9",262,"1.csv","","null","resources/images/coin2.png","null","",NA,NA,NA,NA,""
"image-keyboard-response",552,470824,"0.0-4.180-0.180","4sqdq9k0tqsmjo9",262,"1.csv","","384.20000000018626","resources/trios/L4T4A3.jpg","39","restless",0.6,0.9,0.4,0.0698146564461928,"true"
"image-keyboard-response",553,471235,"0.0-4.180-1.180","4sqdq9k0tqsmjo9",262,"1.csv","","null","resources/maskTrios/BBA3.jpg","null","",NA,NA,NA,NA,""
"image-keyboard-response",554,472451,"0.0-4.180-2.180","4sqdq9k0tqsmjo9",262,"1.csv","","null","resources/images/coin2.png","null","",NA,NA,NA,NA,""
"image-keyboard-response",555,472600,"0.0-4.181-0.181","4sqdq9k0tqsmjo9",262,"1.csv","","148.8000000002794","resources/trios/L4T4A3.jpg","39","restless",0.6,0.9,0.4,0.129269949567117,"true"
"image-keyboard-response",556,473014,"0.0-4.181-1.181","4sqdq9k0tqsmjo9",262,"1.csv","","null","resources/maskTrios/BBA3.jpg","null","",NA,NA,NA,NA,""
"image-keyboard-response",557,474231,"0.0-4.181-2.181","4sqdq9k0tqsmjo9",262,"1.csv","","null","resources/images/coin2.png","null","",NA,NA,NA,NA,""
"image-keyboard-response",558,474417,"0.0-4.182-0.182","4sqdq9k0tqsmjo9",262,"1.csv","","185.79999999981374","resources/trios/L4T4A3.jpg","38","restless",0.6,0.9,0.4,0.945724353688206,"false"
"image-keyboard-response",559,474822,"0.0-4.182-1.182","4sqdq9k0tqsmjo9",262,"1.csv","","null","resources/maskTrios/BT4B.jpg","null","",NA,NA,NA,NA,""
"image-keyboard-response",560,476038,"0.0-4.182-2.182","4sqdq9k0tqsmjo9",262,"1.csv","","null","resources/images/fishbone.png","null","",NA,NA,NA,NA,""
"image-keyboard-response",561,476362,"0.0-4.183-0.183","4sqdq9k0tqsmjo9",262,"1.csv","","323.5","resources/trios/L4T4A3.jpg","37","restless",0.6,0.9,0.4,0.75885854117805,"false"
"image-keyboard-response",562,476776,"0.0-4.183-1.183","4sqdq9k0tqsmjo9",262,"1.csv","","null","resources/maskTrios/L4BB.jpg","null","",NA,NA,NA,NA,""
"image-keyboard-response",563,477990,"0.0-4.183-2.183","4sqdq9k0tqsmjo9",262,"1.csv","","null","resources/images/fishbone.png","null","",NA,NA,NA,NA,""
"image-keyboard-response",564,478113,"0.0-4.184-0.184","4sqdq9k0tqsmjo9",262,"1.csv","","121.20000000018626","resources/trios/L4T4A3.jpg","38","restless",0.6,0.8,0.4,0.935895404668079,"false"
"image-keyboard-response",565,478523,"0.0-4.184-1.184","4sqdq9k0tqsmjo9",262,"1.csv","","null","resources/maskTrios/BT4B.jpg","null","",NA,NA,NA,NA,""
"image-keyboard-response",566,479726,"0.0-4.184-2.184","4sqdq9k0tqsmjo9",262,"1.csv","","null","resources/images/fishbone.png","null","",NA,NA,NA,NA,""
"image-keyboard-response",567,479740,"0.0-4.185-0.185","4sqdq9k0tqsmjo9",262,"1.csv","","14","resources/trios/L4T4A3.jpg","37","restless",0.6,0.8,0.4,0.893084350318607,"false"
"image-keyboard-response",568,480150,"0.0-4.185-1.185","4sqdq9k0tqsmjo9",262,"1.csv","","null","resources/maskTrios/L4BB.jpg","null","",NA,NA,NA,NA,""
"image-keyboard-response",569,481365,"0.0-4.185-2.185","4sqdq9k0tqsmjo9",262,"1.csv","","null","resources/images/fishbone.png","null","",NA,NA,NA,NA,""
"image-keyboard-response",570,481662,"0.0-4.186-0.186","4sqdq9k0tqsmjo9",262,"1.csv","","295.8000000002794","resources/trios/L4T4A3.jpg","37","restless",0.6,0.9,0.4,0.38777490057939,"true"
"image-keyboard-response",571,482078,"0.0-4.186-1.186","4sqdq9k0tqsmjo9",262,"1.csv","","null","resources/maskTrios/L4BB.jpg","null","",NA,NA,NA,NA,""
"image-keyboard-response",572,483294,"0.0-4.186-2.186","4sqdq9k0tqsmjo9",262,"1.csv","","null","resources/images/coin2.png","null","",NA,NA,NA,NA,""
"image-keyboard-response",573,483299,"0.0-4.187-0.187","4sqdq9k0tqsmjo9",262,"1.csv","","4.699999999720603","resources/trios/L4T4A3.jpg","39","restless",0.6,0.9,0.4,0.23471430606175,"true"
"image-keyboard-response",574,483715,"0.0-4.187-1.187","4sqdq9k0tqsmjo9",262,"1.csv","","null","resources/maskTrios/BBA3.jpg","null","",NA,NA,NA,NA,""
"image-keyboard-response",575,484917,"0.0-4.187-2.187","4sqdq9k0tqsmjo9",262,"1.csv","","null","resources/images/coin2.png","null","",NA,NA,NA,NA,""
"image-keyboard-response",576,485089,"0.0-4.188-0.188","4sqdq9k0tqsmjo9",262,"1.csv","","170.39999999990687","resources/trios/L4T4A3.jpg","39","restless",0.6,0.9,0.4,0.510621963039307,"false"
"image-keyboard-response",577,485496,"0.0-4.188-1.188","4sqdq9k0tqsmjo9",262,"1.csv","","null","resources/maskTrios/BBA3.jpg","null","",NA,NA,NA,NA,""
"image-keyboard-response",578,486709,"0.0-4.188-2.188","4sqdq9k0tqsmjo9",262,"1.csv","","null","resources/images/fishbone.png","null","",NA,NA,NA,NA,""
"image-keyboard-response",579,486779,"0.0-4.189-0.189","4sqdq9k0tqsmjo9",262,"1.csv","","69.1999999997206","resources/trios/L4T4A3.jpg","39","restless",0.6,0.9,0.4,0.51924807649059,"false"
"image-keyboard-response",580,487190,"0.0-4.189-1.189","4sqdq9k0tqsmjo9",262,"1.csv","","null","resources/maskTrios/BBA3.jpg","null","",NA,NA,NA,NA,""
"image-keyboard-response",581,488391,"0.0-4.189-2.189","4sqdq9k0tqsmjo9",262,"1.csv","","null","resources/images/fishbone.png","null","",NA,NA,NA,NA,""
"image-keyboard-response",582,488622,"0.0-4.190-0.190","4sqdq9k0tqsmjo9",262,"1.csv","","230.3000000002794","resources/trios/L4T4A3.jpg","38","restless",0.6,0.9,0.4,0.121600670561849,"true"
"image-keyboard-response",583,489030,"0.0-4.190-1.190","4sqdq9k0tqsmjo9",262,"1.csv","","null","resources/maskTrios/BT4B.jpg","null","",NA,NA,NA,NA,""
"image-keyboard-response",584,490232,"0.0-4.190-2.190","4sqdq9k0tqsmjo9",262,"1.csv","","null","resources/images/coin2.png","null","",NA,NA,NA,NA,""
"image-keyboard-response",585,490297,"0.0-4.191-0.191","4sqdq9k0tqsmjo9",262,"1.csv","","63.10000000009313","resources/trios/L4T4A3.jpg","38","restless",0.6,0.9,0.4,0.444397923027561,"true"
"image-keyboard-response",586,490700,"0.0-4.191-1.191","4sqdq9k0tqsmjo9",262,"1.csv","","null","resources/maskTrios/BT4B.jpg","null","",NA,NA,NA,NA,""
"image-keyboard-response",587,491913,"0.0-4.191-2.191","4sqdq9k0tqsmjo9",262,"1.csv","","null","resources/images/coin2.png","null","",NA,NA,NA,NA,""
"image-keyboard-response",588,492130,"0.0-4.192-0.192","4sqdq9k0tqsmjo9",262,"1.csv","","215.59999999962747","resources/trios/L4T4A3.jpg","39","restless",0.6,0.9,0.4,0.199988575468146,"true"
"image-keyboard-response",589,492536,"0.0-4.192-1.192","4sqdq9k0tqsmjo9",262,"1.csv","","null","resources/maskTrios/BBA3.jpg","null","",NA,NA,NA,NA,""
"image-keyboard-response",590,493740,"0.0-4.192-2.192","4sqdq9k0tqsmjo9",262,"1.csv","","null","resources/images/coin2.png","null","",NA,NA,NA,NA,""
"image-keyboard-response",591,493841,"0.0-4.193-0.193","4sqdq9k0tqsmjo9",262,"1.csv","","99.79999999981374","resources/trios/L4T4A3.jpg","37","restless",0.6,0.9,0.4,0.06675516459437,"true"
"image-keyboard-response",592,494244,"0.0-4.193-1.193","4sqdq9k0tqsmjo9",262,"1.csv","","null","resources/maskTrios/L4BB.jpg","null","",NA,NA,NA,NA,""
"image-keyboard-response",593,495448,"0.0-4.193-2.193","4sqdq9k0tqsmjo9",262,"1.csv","","null","resources/images/coin2.png","null","",NA,NA,NA,NA,""
"image-keyboard-response",594,495734,"0.0-4.194-0.194","4sqdq9k0tqsmjo9",262,"1.csv","","284.8000000002794","resources/trios/L4T4A3.jpg","37","restless",0.6,0.9,0.4,0.275206186309544,"true"
"image-keyboard-response",595,496135,"0.0-4.194-1.194","4sqdq9k0tqsmjo9",262,"1.csv","","null","resources/maskTrios/L4BB.jpg","null","",NA,NA,NA,NA,""
"image-keyboard-response",596,497352,"0.0-4.194-2.194","4sqdq9k0tqsmjo9",262,"1.csv","","null","resources/images/coin2.png","null","",NA,NA,NA,NA,""
"image-keyboard-response",597,497517,"0.0-4.195-0.195","4sqdq9k0tqsmjo9",262,"1.csv","","164","resources/trios/L4T4A3.jpg","37","restless",0.6,0.9,0.4,0.104889599916146,"true"
"image-keyboard-response",598,497929,"0.0-4.195-1.195","4sqdq9k0tqsmjo9",262,"1.csv","","null","resources/maskTrios/L4BB.jpg","null","",NA,NA,NA,NA,""
"image-keyboard-response",599,499131,"0.0-4.195-2.195","4sqdq9k0tqsmjo9",262,"1.csv","","null","resources/images/coin2.png","null","",NA,NA,NA,NA,""
"image-keyboard-response",600,499268,"0.0-4.196-0.196","4sqdq9k0tqsmjo9",262,"1.csv","","136.20000000018626","resources/trios/L4T4A3.jpg","37","restless",0.6,0.9,0.3,0.776961172901101,"false"
"image-keyboard-response",601,499676,"0.0-4.196-1.196","4sqdq9k0tqsmjo9",262,"1.csv","","null","resources/maskTrios/L4BB.jpg","null","",NA,NA,NA,NA,""
"image-keyboard-response",602,500889,"0.0-4.196-2.196","4sqdq9k0tqsmjo9",262,"1.csv","","null","resources/images/fishbone.png","null","",NA,NA,NA,NA,""
"image-keyboard-response",603,501031,"0.0-4.197-0.197","4sqdq9k0tqsmjo9",262,"1.csv","","140.60000000009313","resources/trios/L4T4A3.jpg","38","restless",0.5,0.9,0.3,0.912211609180599,"false"
"image-keyboard-response",604,501434,"0.0-4.197-1.197","4sqdq9k0tqsmjo9",262,"1.csv","","null","resources/maskTrios/BT4B.jpg","null","",NA,NA,NA,NA,""
"image-keyboard-response",605,502648,"0.0-4.197-2.197","4sqdq9k0tqsmjo9",262,"1.csv","","null","resources/images/fishbone.png","null","",NA,NA,NA,NA,""
"image-keyboard-response",606,502783,"0.0-4.198-0.198","4sqdq9k0tqsmjo9",262,"1.csv","","133.60000000009313","resources/trios/L4T4A3.jpg","37","restless",0.5,0.9,0.3,0.0194572852035351,"true"
"image-keyboard-response",607,503192,"0.0-4.198-1.198","4sqdq9k0tqsmjo9",262,"1.csv","","null","resources/maskTrios/L4BB.jpg","null","",NA,NA,NA,NA,""
"image-keyboard-response",608,504405,"0.0-4.198-2.198","4sqdq9k0tqsmjo9",262,"1.csv","","null","resources/images/coin2.png","null","",NA,NA,NA,NA,""
"image-keyboard-response",609,504477,"0.0-4.199-0.199","4sqdq9k0tqsmjo9",262,"1.csv","","70.60000000009313","resources/trios/L4T4A3.jpg","39","restless",0.4,0.9,0.3,0.539404045215893,"false"
"image-keyboard-response",610,504887,"0.0-4.199-1.199","4sqdq9k0tqsmjo9",262,"1.csv","","null","resources/maskTrios/BBA3.jpg","null","",NA,NA,NA,NA,""
"image-keyboard-response",611,506104,"0.0-4.199-2.199","4sqdq9k0tqsmjo9",262,"1.csv","","null","resources/images/fishbone.png","null","",NA,NA,NA,NA,""
"survey-text",612,532190,"0.0-5.0","4sqdq9k0tqsmjo9",262,"1.csv","","26082.5","","","",NA,NA,NA,NA,""
