"trial_type","trial_index","time_elapsed","internal_node_id","subject","participantCode","walkNumber","success","rt","stimulus","key_press","test_part","leftProb","midProb","rightProb","generatedNum","correct"
"pavlovia",0,1007,"0.0-0.0","hlsmo06vhrfpt8l",550,"74.csv","","","","","",NA,NA,NA,NA,""
"fullscreen",1,5065,"0.0-1.0","hlsmo06vhrfpt8l",550,"74.csv","true","","","","",NA,NA,NA,NA,""
"survey-html-form",2,24317,"0.0-2.0","hlsmo06vhrfpt8l",550,"74.csv","","19250","","","",NA,NA,NA,NA,""
"image-keyboard-response",3,32962,"0.0-3.0-0.0","hlsmo06vhrfpt8l",550,"74.csv","","8644.299999952316","resources/images/parrot_nobg.png","13","",NA,NA,NA,NA,""
"image-keyboard-response",4,35976,"0.0-3.0-1.0","hlsmo06vhrfpt8l",550,"74.csv","","null","resources/image_sets/111.png","null","",NA,NA,NA,NA,""
"image-keyboard-response",5,39271,"0.0-3.0-2.0","hlsmo06vhrfpt8l",550,"74.csv","","3294.9000000953674","resources/image_sets/left_highlight.png","37","",NA,NA,NA,NA,""
"image-keyboard-response",6,40559,"0.0-3.0-3.0","hlsmo06vhrfpt8l",550,"74.csv","","1286.2999999523163","resources/image_sets/mid_highlight.png","38","",NA,NA,NA,NA,""
"image-keyboard-response",7,40767,"0.0-3.0-4.0","hlsmo06vhrfpt8l",550,"74.csv","","205.70000004768372","resources/image_sets/right_highlight.png","39","",NA,NA,NA,NA,""
"image-keyboard-response",8,42467,"0.0-3.0-5.0","hlsmo06vhrfpt8l",550,"74.csv","","1699.4000000953674","resources/image_sets/111.png","13","",NA,NA,NA,NA,""
"image-keyboard-response",9,44258,"0.0-3.0-6.0","hlsmo06vhrfpt8l",550,"74.csv","","1790.5999999046326","resources/images/coin2.png","13","",NA,NA,NA,NA,""
"image-keyboard-response",10,45408,"0.0-3.0-7.0","hlsmo06vhrfpt8l",550,"74.csv","","1149.4000000953674","resources/images/fishbone.png","13","",NA,NA,NA,NA,""
"html-keyboard-response",11,48732,"0.0-3.0-8.0","hlsmo06vhrfpt8l",550,"74.csv","","3323.2999999523163","<p>You can track your coin total on the top right of your screen. </p><p>At the end of your journey you will be directed to a survey, so please click on the link before exiting the task</p><p>Press Enter to begin</p>","13","",NA,NA,NA,NA,""
"image-keyboard-response",12,50348,"0.0-4.0-0.0","hlsmo06vhrfpt8l",550,"74.csv","","1615.4000000953674","resources/trios/L1T4A3.jpg","38","restless",0.7,0.9,0.3,0.413785344140731,"true"
"image-keyboard-response",13,50756,"0.0-4.0-1.0","hlsmo06vhrfpt8l",550,"74.csv","","null","resources/maskTrios/BT4B.jpg","null","",NA,NA,NA,NA,""
"image-keyboard-response",14,51970,"0.0-4.0-2.0","hlsmo06vhrfpt8l",550,"74.csv","","null","resources/images/coin2.png","null","",NA,NA,NA,NA,""
"image-keyboard-response",15,53297,"0.0-4.1-0.1","hlsmo06vhrfpt8l",550,"74.csv","","1325.4000000953674","resources/trios/L1T4A3.jpg","38","restless",0.7,0.9,0.3,0.591939557512238,"true"
"image-keyboard-response",16,53705,"0.0-4.1-1.1","hlsmo06vhrfpt8l",550,"74.csv","","null","resources/maskTrios/BT4B.jpg","null","",NA,NA,NA,NA,""
"image-keyboard-response",17,54922,"0.0-4.1-2.1","hlsmo06vhrfpt8l",550,"74.csv","","null","resources/images/coin2.png","null","",NA,NA,NA,NA,""
"image-keyboard-response",18,55241,"0.0-4.2-0.2","hlsmo06vhrfpt8l",550,"74.csv","","317.5","resources/trios/L1T4A3.jpg","38","restless",0.7,0.9,0.3,0.659761458190838,"true"
"image-keyboard-response",19,55654,"0.0-4.2-1.2","hlsmo06vhrfpt8l",550,"74.csv","","null","resources/maskTrios/BT4B.jpg","null","",NA,NA,NA,NA,""
"image-keyboard-response",20,56863,"0.0-4.2-2.2","hlsmo06vhrfpt8l",550,"74.csv","","null","resources/images/coin2.png","null","",NA,NA,NA,NA,""
"image-keyboard-response",21,56981,"0.0-4.3-0.3","hlsmo06vhrfpt8l",550,"74.csv","","117.10000014305115","resources/trios/L1T4A3.jpg","38","restless",0.7,0.9,0.3,0.583831217873205,"true"
"image-keyboard-response",22,57398,"0.0-4.3-1.3","hlsmo06vhrfpt8l",550,"74.csv","","null","resources/maskTrios/BT4B.jpg","null","",NA,NA,NA,NA,""
"image-keyboard-response",23,58605,"0.0-4.3-2.3","hlsmo06vhrfpt8l",550,"74.csv","","null","resources/images/coin2.png","null","",NA,NA,NA,NA,""
"image-keyboard-response",24,59227,"0.0-4.4-0.4","hlsmo06vhrfpt8l",550,"74.csv","","620.3999998569489","resources/trios/L1T4A3.jpg","38","restless",0.7,0.9,0.2,0.639816293250514,"true"
"image-keyboard-response",25,59638,"0.0-4.4-1.4","hlsmo06vhrfpt8l",550,"74.csv","","null","resources/maskTrios/BT4B.jpg","null","",NA,NA,NA,NA,""
"image-keyboard-response",26,60846,"0.0-4.4-2.4","hlsmo06vhrfpt8l",550,"74.csv","","null","resources/images/coin2.png","null","",NA,NA,NA,NA,""
"image-keyboard-response",27,60910,"0.0-4.5-0.5","hlsmo06vhrfpt8l",550,"74.csv","","62.700000047683716","resources/trios/L1T4A3.jpg","38","restless",0.7,0.9,0.2,0.934905675204298,"false"
"image-keyboard-response",28,61311,"0.0-4.5-1.5","hlsmo06vhrfpt8l",550,"74.csv","","null","resources/maskTrios/BT4B.jpg","null","",NA,NA,NA,NA,""
"image-keyboard-response",29,62526,"0.0-4.5-2.5","hlsmo06vhrfpt8l",550,"74.csv","","null","resources/images/fishbone.png","null","",NA,NA,NA,NA,""
"image-keyboard-response",30,62931,"0.0-4.6-0.6","hlsmo06vhrfpt8l",550,"74.csv","","404.09999990463257","resources/trios/L1T4A3.jpg","37","restless",0.7,0.9,0.2,0.954006482586847,"false"
"image-keyboard-response",31,63346,"0.0-4.6-1.6","hlsmo06vhrfpt8l",550,"74.csv","","null","resources/maskTrios/L1BB.jpg","null","",NA,NA,NA,NA,""
"image-keyboard-response",32,64558,"0.0-4.6-2.6","hlsmo06vhrfpt8l",550,"74.csv","","null","resources/images/fishbone.png","null","",NA,NA,NA,NA,""
"image-keyboard-response",33,64576,"0.0-4.7-0.7","hlsmo06vhrfpt8l",550,"74.csv","","16.100000143051147","resources/trios/L1T4A3.jpg","38","restless",0.7,0.9,0.2,0.761810434809376,"true"
"image-keyboard-response",34,64978,"0.0-4.7-1.7","hlsmo06vhrfpt8l",550,"74.csv","","null","resources/maskTrios/BT4B.jpg","null","",NA,NA,NA,NA,""
"image-keyboard-response",35,66192,"0.0-4.7-2.7","hlsmo06vhrfpt8l",550,"74.csv","","null","resources/images/coin2.png","null","",NA,NA,NA,NA,""
"image-keyboard-response",36,66635,"0.0-4.8-0.8","hlsmo06vhrfpt8l",550,"74.csv","","441.2999999523163","resources/trios/L1T4A3.jpg","38","restless",0.7,0.9,0.2,0.765267614192197,"true"
"image-keyboard-response",37,67050,"0.0-4.8-1.8","hlsmo06vhrfpt8l",550,"74.csv","","null","resources/maskTrios/BT4B.jpg","null","",NA,NA,NA,NA,""
"image-keyboard-response",38,68262,"0.0-4.8-2.8","hlsmo06vhrfpt8l",550,"74.csv","","null","resources/images/coin2.png","null","",NA,NA,NA,NA,""
"image-keyboard-response",39,68576,"0.0-4.9-0.9","hlsmo06vhrfpt8l",550,"74.csv","","313.59999990463257","resources/trios/L1T4A3.jpg","38","restless",0.7,0.8,0.2,0.217641640600233,"true"
"image-keyboard-response",40,68981,"0.0-4.9-1.9","hlsmo06vhrfpt8l",550,"74.csv","","null","resources/maskTrios/BT4B.jpg","null","",NA,NA,NA,NA,""
"image-keyboard-response",41,70194,"0.0-4.9-2.9","hlsmo06vhrfpt8l",550,"74.csv","","null","resources/images/coin2.png","null","",NA,NA,NA,NA,""
"image-keyboard-response",42,70647,"0.0-4.10-0.10","hlsmo06vhrfpt8l",550,"74.csv","","451.5","resources/trios/L1T4A3.jpg","38","restless",0.7,0.8,0.2,0.30660028049924,"true"
"image-keyboard-response",43,71051,"0.0-4.10-1.10","hlsmo06vhrfpt8l",550,"74.csv","","null","resources/maskTrios/BT4B.jpg","null","",NA,NA,NA,NA,""
"image-keyboard-response",44,72259,"0.0-4.10-2.10","hlsmo06vhrfpt8l",550,"74.csv","","null","resources/images/coin2.png","null","",NA,NA,NA,NA,""
"image-keyboard-response",45,72276,"0.0-4.11-0.11","hlsmo06vhrfpt8l",550,"74.csv","","15.799999952316284","resources/trios/L1T4A3.jpg","38","restless",0.7,0.7,0.2,0.0482845123062581,"true"
"image-keyboard-response",46,72680,"0.0-4.11-1.11","hlsmo06vhrfpt8l",550,"74.csv","","null","resources/maskTrios/BT4B.jpg","null","",NA,NA,NA,NA,""
"image-keyboard-response",47,73892,"0.0-4.11-2.11","hlsmo06vhrfpt8l",550,"74.csv","","null","resources/images/coin2.png","null","",NA,NA,NA,NA,""
"image-keyboard-response",48,74412,"0.0-4.12-0.12","hlsmo06vhrfpt8l",550,"74.csv","","517.9000000953674","resources/trios/L1T4A3.jpg","38","restless",0.7,0.7,0.2,0.730893147302506,"false"
"image-keyboard-response",49,74821,"0.0-4.12-1.12","hlsmo06vhrfpt8l",550,"74.csv","","null","resources/maskTrios/BT4B.jpg","null","",NA,NA,NA,NA,""
"image-keyboard-response",50,76052,"0.0-4.12-2.12","hlsmo06vhrfpt8l",550,"74.csv","","null","resources/images/fishbone.png","null","",NA,NA,NA,NA,""
"image-keyboard-response",51,76318,"0.0-4.13-0.13","hlsmo06vhrfpt8l",550,"74.csv","","264.7999999523163","resources/trios/L1T4A3.jpg","39","restless",0.7,0.6,0.2,0.117557873252757,"true"
"image-keyboard-response",52,76735,"0.0-4.13-1.13","hlsmo06vhrfpt8l",550,"74.csv","","null","resources/maskTrios/BBA3.jpg","null","",NA,NA,NA,NA,""
"image-keyboard-response",53,77944,"0.0-4.13-2.13","hlsmo06vhrfpt8l",550,"74.csv","","null","resources/images/coin2.png","null","",NA,NA,NA,NA,""
"image-keyboard-response",54,77996,"0.0-4.14-0.14","hlsmo06vhrfpt8l",550,"74.csv","","50.200000047683716","resources/trios/L1T4A3.jpg","39","restless",0.7,0.6,0.2,0.421467944485294,"false"
"image-keyboard-response",55,78398,"0.0-4.14-1.14","hlsmo06vhrfpt8l",550,"74.csv","","null","resources/maskTrios/BBA3.jpg","null","",NA,NA,NA,NA,""
"image-keyboard-response",56,79606,"0.0-4.14-2.14","hlsmo06vhrfpt8l",550,"74.csv","","null","resources/images/fishbone.png","null","",NA,NA,NA,NA,""
"image-keyboard-response",57,79930,"0.0-4.15-0.15","hlsmo06vhrfpt8l",550,"74.csv","","323.2999999523163","resources/trios/L1T4A3.jpg","38","restless",0.7,0.6,0.2,0.926473512572235,"false"
"image-keyboard-response",58,80341,"0.0-4.15-1.15","hlsmo06vhrfpt8l",550,"74.csv","","null","resources/maskTrios/BT4B.jpg","null","",NA,NA,NA,NA,""
"image-keyboard-response",59,81542,"0.0-4.15-2.15","hlsmo06vhrfpt8l",550,"74.csv","","null","resources/images/fishbone.png","null","",NA,NA,NA,NA,""
"image-keyboard-response",60,81750,"0.0-4.16-0.16","hlsmo06vhrfpt8l",550,"74.csv","","206.79999995231628","resources/trios/L1T4A3.jpg","37","restless",0.7,0.6,0.2,0.0865820837237443,"true"
"image-keyboard-response",61,82162,"0.0-4.16-1.16","hlsmo06vhrfpt8l",550,"74.csv","","null","resources/maskTrios/L1BB.jpg","null","",NA,NA,NA,NA,""
"image-keyboard-response",62,83365,"0.0-4.16-2.16","hlsmo06vhrfpt8l",550,"74.csv","","null","resources/images/coin2.png","null","",NA,NA,NA,NA,""
"image-keyboard-response",63,83815,"0.0-4.17-0.17","hlsmo06vhrfpt8l",550,"74.csv","","449.2999999523163","resources/trios/L1T4A3.jpg","37","restless",0.7,0.6,0.2,0.872928609789442,"false"
"image-keyboard-response",64,84228,"0.0-4.17-1.17","hlsmo06vhrfpt8l",550,"74.csv","","null","resources/maskTrios/L1BB.jpg","null","",NA,NA,NA,NA,""
"image-keyboard-response",65,85429,"0.0-4.17-2.17","hlsmo06vhrfpt8l",550,"74.csv","","null","resources/images/fishbone.png","null","",NA,NA,NA,NA,""
"image-keyboard-response",66,85524,"0.0-4.18-0.18","hlsmo06vhrfpt8l",550,"74.csv","","94.09999990463257","resources/trios/L1T4A3.jpg","38","restless",0.7,0.6,0.2,0.0686907181548577,"true"
"image-keyboard-response",67,85939,"0.0-4.18-1.18","hlsmo06vhrfpt8l",550,"74.csv","","null","resources/maskTrios/BT4B.jpg","null","",NA,NA,NA,NA,""
"image-keyboard-response",68,87145,"0.0-4.18-2.18","hlsmo06vhrfpt8l",550,"74.csv","","null","resources/images/coin2.png","null","",NA,NA,NA,NA,""
"image-keyboard-response",69,87663,"0.0-4.19-0.19","hlsmo06vhrfpt8l",550,"74.csv","","516.7999999523163","resources/trios/L1T4A3.jpg","38","restless",0.7,0.6,0.2,0.913201872187922,"false"
"image-keyboard-response",70,88065,"0.0-4.19-1.19","hlsmo06vhrfpt8l",550,"74.csv","","null","resources/maskTrios/BT4B.jpg","null","",NA,NA,NA,NA,""
"image-keyboard-response",71,89281,"0.0-4.19-2.19","hlsmo06vhrfpt8l",550,"74.csv","","null","resources/images/fishbone.png","null","",NA,NA,NA,NA,""
"image-keyboard-response",72,89657,"0.0-4.20-0.20","hlsmo06vhrfpt8l",550,"74.csv","","374.09999990463257","resources/trios/L1T4A3.jpg","39","restless",0.7,0.6,0.2,0.882150730771164,"false"
"image-keyboard-response",73,90061,"0.0-4.20-1.20","hlsmo06vhrfpt8l",550,"74.csv","","null","resources/maskTrios/BBA3.jpg","null","",NA,NA,NA,NA,""
"image-keyboard-response",74,91272,"0.0-4.20-2.20","hlsmo06vhrfpt8l",550,"74.csv","","null","resources/images/fishbone.png","null","",NA,NA,NA,NA,""
"image-keyboard-response",75,91375,"0.0-4.21-0.21","hlsmo06vhrfpt8l",550,"74.csv","","102.19999980926514","resources/trios/L1T4A3.jpg","39","restless",0.7,0.5,0.2,0.102874787690875,"true"
"image-keyboard-response",76,91785,"0.0-4.21-1.21","hlsmo06vhrfpt8l",550,"74.csv","","null","resources/maskTrios/BBA3.jpg","null","",NA,NA,NA,NA,""
"image-keyboard-response",77,92990,"0.0-4.21-2.21","hlsmo06vhrfpt8l",550,"74.csv","","null","resources/images/coin2.png","null","",NA,NA,NA,NA,""
"image-keyboard-response",78,93029,"0.0-4.22-0.22","hlsmo06vhrfpt8l",550,"74.csv","","38.69999980926514","resources/trios/L1T4A3.jpg","39","restless",0.7,0.5,0.2,0.797420805282226,"false"
"image-keyboard-response",79,93440,"0.0-4.22-1.22","hlsmo06vhrfpt8l",550,"74.csv","","null","resources/maskTrios/BBA3.jpg","null","",NA,NA,NA,NA,""
"image-keyboard-response",80,94646,"0.0-4.22-2.22","hlsmo06vhrfpt8l",550,"74.csv","","null","resources/images/fishbone.png","null","",NA,NA,NA,NA,""
"image-keyboard-response",81,94656,"0.0-4.23-0.23","hlsmo06vhrfpt8l",550,"74.csv","","8.200000047683716","resources/trios/L1T4A3.jpg","37","restless",0.7,0.5,0.2,0.0330998408134127,"true"
"image-keyboard-response",82,95068,"0.0-4.23-1.23","hlsmo06vhrfpt8l",550,"74.csv","","null","resources/maskTrios/L1BB.jpg","null","",NA,NA,NA,NA,""
"image-keyboard-response",83,96281,"0.0-4.23-2.23","hlsmo06vhrfpt8l",550,"74.csv","","null","resources/images/coin2.png","null","",NA,NA,NA,NA,""
"image-keyboard-response",84,96904,"0.0-4.24-0.24","hlsmo06vhrfpt8l",550,"74.csv","","622.5","resources/trios/L1T4A3.jpg","37","restless",0.7,0.5,0.2,0.00928007692458421,"true"
"image-keyboard-response",85,97310,"0.0-4.24-1.24","hlsmo06vhrfpt8l",550,"74.csv","","null","resources/maskTrios/L1BB.jpg","null","",NA,NA,NA,NA,""
"image-keyboard-response",86,98524,"0.0-4.24-2.24","hlsmo06vhrfpt8l",550,"74.csv","","null","resources/images/coin2.png","null","",NA,NA,NA,NA,""
"image-keyboard-response",87,99048,"0.0-4.25-0.25","hlsmo06vhrfpt8l",550,"74.csv","","522.0999999046326","resources/trios/L1T4A3.jpg","37","restless",0.7,0.5,0.2,0.00958549356436045,"true"
"image-keyboard-response",88,99465,"0.0-4.25-1.25","hlsmo06vhrfpt8l",550,"74.csv","","null","resources/maskTrios/L1BB.jpg","null","",NA,NA,NA,NA,""
"image-keyboard-response",89,100670,"0.0-4.25-2.25","hlsmo06vhrfpt8l",550,"74.csv","","null","resources/images/coin2.png","null","",NA,NA,NA,NA,""
"image-keyboard-response",90,100672,"0.0-4.26-0.26","hlsmo06vhrfpt8l",550,"74.csv","","0.09999990463256836","resources/trios/L1T4A3.jpg","37","restless",0.7,0.5,0.2,0.6184723565664,"true"
"image-keyboard-response",91,101074,"0.0-4.26-1.26","hlsmo06vhrfpt8l",550,"74.csv","","null","resources/maskTrios/L1BB.jpg","null","",NA,NA,NA,NA,""
"image-keyboard-response",92,102280,"0.0-4.26-2.26","hlsmo06vhrfpt8l",550,"74.csv","","null","resources/images/coin2.png","null","",NA,NA,NA,NA,""
"image-keyboard-response",93,102435,"0.0-4.27-0.27","hlsmo06vhrfpt8l",550,"74.csv","","153.10000014305115","resources/trios/L1T4A3.jpg","37","restless",0.7,0.5,0.2,0.756475168186986,"false"
"image-keyboard-response",94,102841,"0.0-4.27-1.27","hlsmo06vhrfpt8l",550,"74.csv","","null","resources/maskTrios/L1BB.jpg","null","",NA,NA,NA,NA,""
"image-keyboard-response",95,104046,"0.0-4.27-2.27","hlsmo06vhrfpt8l",550,"74.csv","","null","resources/images/fishbone.png","null","",NA,NA,NA,NA,""
"image-keyboard-response",96,104479,"0.0-4.28-0.28","hlsmo06vhrfpt8l",550,"74.csv","","431.90000009536743","resources/trios/L1T4A3.jpg","38","restless",0.8,0.6,0.2,0.445989755628921,"true"
"image-keyboard-response",97,104888,"0.0-4.28-1.28","hlsmo06vhrfpt8l",550,"74.csv","","null","resources/maskTrios/BT4B.jpg","null","",NA,NA,NA,NA,""
"image-keyboard-response",98,106101,"0.0-4.28-2.28","hlsmo06vhrfpt8l",550,"74.csv","","null","resources/images/coin2.png","null","",NA,NA,NA,NA,""
"image-keyboard-response",99,106115,"0.0-4.29-0.29","hlsmo06vhrfpt8l",550,"74.csv","","13.299999952316284","resources/trios/L1T4A3.jpg","38","restless",0.8,0.6,0.3,0.327867835233842,"true"
"image-keyboard-response",100,106532,"0.0-4.29-1.29","hlsmo06vhrfpt8l",550,"74.csv","","null","resources/maskTrios/BT4B.jpg","null","",NA,NA,NA,NA,""
"image-keyboard-response",101,107737,"0.0-4.29-2.29","hlsmo06vhrfpt8l",550,"74.csv","","null","resources/images/coin2.png","null","",NA,NA,NA,NA,""
"image-keyboard-response",102,108165,"0.0-4.30-0.30","hlsmo06vhrfpt8l",550,"74.csv","","427.10000014305115","resources/trios/L1T4A3.jpg","38","restless",0.9,0.6,0.3,0.762156780905673,"false"
"image-keyboard-response",103,108569,"0.0-4.30-1.30","hlsmo06vhrfpt8l",550,"74.csv","","null","resources/maskTrios/BT4B.jpg","null","",NA,NA,NA,NA,""
"image-keyboard-response",104,109781,"0.0-4.30-2.30","hlsmo06vhrfpt8l",550,"74.csv","","null","resources/images/fishbone.png","null","",NA,NA,NA,NA,""
"image-keyboard-response",105,110252,"0.0-4.31-0.31","hlsmo06vhrfpt8l",550,"74.csv","","470","resources/trios/L1T4A3.jpg","38","restless",0.8,0.6,0.3,0.985948642522096,"false"
"image-keyboard-response",106,110667,"0.0-4.31-1.31","hlsmo06vhrfpt8l",550,"74.csv","","null","resources/maskTrios/BT4B.jpg","null","",NA,NA,NA,NA,""
"image-keyboard-response",107,111872,"0.0-4.31-2.31","hlsmo06vhrfpt8l",550,"74.csv","","null","resources/images/fishbone.png","null","",NA,NA,NA,NA,""
"image-keyboard-response",108,112035,"0.0-4.32-0.32","hlsmo06vhrfpt8l",550,"74.csv","","162.40000009536743","resources/trios/L1T4A3.jpg","39","restless",0.8,0.6,0.3,0.158384005983885,"true"
"image-keyboard-response",109,112448,"0.0-4.32-1.32","hlsmo06vhrfpt8l",550,"74.csv","","null","resources/maskTrios/BBA3.jpg","null","",NA,NA,NA,NA,""
"image-keyboard-response",110,113649,"0.0-4.32-2.32","hlsmo06vhrfpt8l",550,"74.csv","","null","resources/images/coin2.png","null","",NA,NA,NA,NA,""
"image-keyboard-response",111,113959,"0.0-4.33-0.33","hlsmo06vhrfpt8l",550,"74.csv","","309.2999999523163","resources/trios/L1T4A3.jpg","39","restless",0.8,0.5,0.3,0.738327824725299,"false"
"image-keyboard-response",112,114374,"0.0-4.33-1.33","hlsmo06vhrfpt8l",550,"74.csv","","null","resources/maskTrios/BBA3.jpg","null","",NA,NA,NA,NA,""
"image-keyboard-response",113,115590,"0.0-4.33-2.33","hlsmo06vhrfpt8l",550,"74.csv","","null","resources/images/fishbone.png","null","",NA,NA,NA,NA,""
"image-keyboard-response",114,116286,"0.0-4.34-0.34","hlsmo06vhrfpt8l",550,"74.csv","","694.9000000953674","resources/trios/L1T4A3.jpg","37","restless",0.7,0.5,0.3,0.512263559781336,"true"
"image-keyboard-response",115,116690,"0.0-4.34-1.34","hlsmo06vhrfpt8l",550,"74.csv","","null","resources/maskTrios/L1BB.jpg","null","",NA,NA,NA,NA,""
"image-keyboard-response",116,117898,"0.0-4.34-2.34","hlsmo06vhrfpt8l",550,"74.csv","","null","resources/images/coin2.png","null","",NA,NA,NA,NA,""
"image-keyboard-response",117,118705,"0.0-4.35-0.35","hlsmo06vhrfpt8l",550,"74.csv","","806.7999999523163","resources/trios/L1T4A3.jpg","37","restless",0.6,0.5,0.3,0.239939070710589,"true"
"image-keyboard-response",118,119113,"0.0-4.35-1.35","hlsmo06vhrfpt8l",550,"74.csv","","null","resources/maskTrios/L1BB.jpg","null","",NA,NA,NA,NA,""
"image-keyboard-response",119,120315,"0.0-4.35-2.35","hlsmo06vhrfpt8l",550,"74.csv","","null","resources/images/coin2.png","null","",NA,NA,NA,NA,""
"image-keyboard-response",120,120660,"0.0-4.36-0.36","hlsmo06vhrfpt8l",550,"74.csv","","344.2000000476837","resources/trios/L1T4A3.jpg","37","restless",0.6,0.5,0.3,0.77861734254204,"false"
"image-keyboard-response",121,121061,"0.0-4.36-1.36","hlsmo06vhrfpt8l",550,"74.csv","","null","resources/maskTrios/L1BB.jpg","null","",NA,NA,NA,NA,""
"image-keyboard-response",122,122265,"0.0-4.36-2.36","hlsmo06vhrfpt8l",550,"74.csv","","null","resources/images/fishbone.png","null","",NA,NA,NA,NA,""
"image-keyboard-response",123,122314,"0.0-4.37-0.37","hlsmo06vhrfpt8l",550,"74.csv","","47.60000014305115","resources/trios/L1T4A3.jpg","38","restless",0.6,0.5,0.3,0.143743698291708,"true"
"image-keyboard-response",124,122720,"0.0-4.37-1.37","hlsmo06vhrfpt8l",550,"74.csv","","null","resources/maskTrios/BT4B.jpg","null","",NA,NA,NA,NA,""
"image-keyboard-response",125,123930,"0.0-4.37-2.37","hlsmo06vhrfpt8l",550,"74.csv","","null","resources/images/coin2.png","null","",NA,NA,NA,NA,""
"image-keyboard-response",126,124388,"0.0-4.38-0.38","hlsmo06vhrfpt8l",550,"74.csv","","456.40000009536743","resources/trios/L1T4A3.jpg","38","restless",0.6,0.5,0.3,0.201801637691508,"true"
"image-keyboard-response",127,124799,"0.0-4.38-1.38","hlsmo06vhrfpt8l",550,"74.csv","","null","resources/maskTrios/BT4B.jpg","null","",NA,NA,NA,NA,""
"image-keyboard-response",128,126006,"0.0-4.38-2.38","hlsmo06vhrfpt8l",550,"74.csv","","null","resources/images/coin2.png","null","",NA,NA,NA,NA,""
"image-keyboard-response",129,126329,"0.0-4.39-0.39","hlsmo06vhrfpt8l",550,"74.csv","","322","resources/trios/L1T4A3.jpg","38","restless",0.6,0.5,0.2,0.377693724603093,"true"
"image-keyboard-response",130,126731,"0.0-4.39-1.39","hlsmo06vhrfpt8l",550,"74.csv","","null","resources/maskTrios/BT4B.jpg","null","",NA,NA,NA,NA,""
"image-keyboard-response",131,127936,"0.0-4.39-2.39","hlsmo06vhrfpt8l",550,"74.csv","","null","resources/images/coin2.png","null","",NA,NA,NA,NA,""
"image-keyboard-response",132,128389,"0.0-4.40-0.40","hlsmo06vhrfpt8l",550,"74.csv","","451.2999999523163","resources/trios/L1T4A3.jpg","38","restless",0.6,0.5,0.2,0.635775963761975,"false"
"image-keyboard-response",133,128795,"0.0-4.40-1.40","hlsmo06vhrfpt8l",550,"74.csv","","null","resources/maskTrios/BT4B.jpg","null","",NA,NA,NA,NA,""
"image-keyboard-response",134,130001,"0.0-4.40-2.40","hlsmo06vhrfpt8l",550,"74.csv","","null","resources/images/fishbone.png","null","",NA,NA,NA,NA,""
"image-keyboard-response",135,130045,"0.0-4.41-0.41","hlsmo06vhrfpt8l",550,"74.csv","","42.5","resources/trios/L1T4A3.jpg","39","restless",0.6,0.5,0.3,0.243273296386719,"true"
"image-keyboard-response",136,130451,"0.0-4.41-1.41","hlsmo06vhrfpt8l",550,"74.csv","","null","resources/maskTrios/BBA3.jpg","null","",NA,NA,NA,NA,""
"image-keyboard-response",137,131654,"0.0-4.41-2.41","hlsmo06vhrfpt8l",550,"74.csv","","null","resources/images/coin2.png","null","",NA,NA,NA,NA,""
"image-keyboard-response",138,131777,"0.0-4.42-0.42","hlsmo06vhrfpt8l",550,"74.csv","","122.19999980926514","resources/trios/L1T4A3.jpg","39","restless",0.6,0.5,0.3,0.491771089111958,"false"
"image-keyboard-response",139,132193,"0.0-4.42-1.42","hlsmo06vhrfpt8l",550,"74.csv","","null","resources/maskTrios/BBA3.jpg","null","",NA,NA,NA,NA,""
"image-keyboard-response",140,133394,"0.0-4.42-2.42","hlsmo06vhrfpt8l",550,"74.csv","","null","resources/images/fishbone.png","null","",NA,NA,NA,NA,""
"image-keyboard-response",141,133712,"0.0-4.43-0.43","hlsmo06vhrfpt8l",550,"74.csv","","317.5","resources/trios/L1T4A3.jpg","37","restless",0.6,0.4,0.3,0.410084415715649,"true"
"image-keyboard-response",142,134115,"0.0-4.43-1.43","hlsmo06vhrfpt8l",550,"74.csv","","null","resources/maskTrios/L1BB.jpg","null","",NA,NA,NA,NA,""
"image-keyboard-response",143,135320,"0.0-4.43-2.43","hlsmo06vhrfpt8l",550,"74.csv","","null","resources/images/coin2.png","null","",NA,NA,NA,NA,""
"image-keyboard-response",144,135525,"0.0-4.44-0.44","hlsmo06vhrfpt8l",550,"74.csv","","203.09999990463257","resources/trios/L1T4A3.jpg","37","restless",0.6,0.5,0.3,0.522902779051095,"true"
"image-keyboard-response",145,135928,"0.0-4.44-1.44","hlsmo06vhrfpt8l",550,"74.csv","","null","resources/maskTrios/L1BB.jpg","null","",NA,NA,NA,NA,""
"image-keyboard-response",146,137139,"0.0-4.44-2.44","hlsmo06vhrfpt8l",550,"74.csv","","null","resources/images/coin2.png","null","",NA,NA,NA,NA,""
"image-keyboard-response",147,137608,"0.0-4.45-0.45","hlsmo06vhrfpt8l",550,"74.csv","","467.69999980926514","resources/trios/L1T4A3.jpg","37","restless",0.6,0.5,0.3,0.0492262225208595,"true"
"image-keyboard-response",148,138018,"0.0-4.45-1.45","hlsmo06vhrfpt8l",550,"74.csv","","null","resources/maskTrios/L1BB.jpg","null","",NA,NA,NA,NA,""
"image-keyboard-response",149,139234,"0.0-4.45-2.45","hlsmo06vhrfpt8l",550,"74.csv","","null","resources/images/coin2.png","null","",NA,NA,NA,NA,""
"image-keyboard-response",150,139476,"0.0-4.46-0.46","hlsmo06vhrfpt8l",550,"74.csv","","240.90000009536743","resources/trios/L1T4A3.jpg","37","restless",0.6,0.5,0.3,0.0222577984264583,"true"
"image-keyboard-response",151,139889,"0.0-4.46-1.46","hlsmo06vhrfpt8l",550,"74.csv","","null","resources/maskTrios/L1BB.jpg","null","",NA,NA,NA,NA,""
"image-keyboard-response",152,141091,"0.0-4.46-2.46","hlsmo06vhrfpt8l",550,"74.csv","","null","resources/images/coin2.png","null","",NA,NA,NA,NA,""
"image-keyboard-response",153,141165,"0.0-4.47-0.47","hlsmo06vhrfpt8l",550,"74.csv","","72.89999985694885","resources/trios/L1T4A3.jpg","37","restless",0.6,0.5,0.3,0.599627663556255,"true"
"image-keyboard-response",154,141571,"0.0-4.47-1.47","hlsmo06vhrfpt8l",550,"74.csv","","null","resources/maskTrios/L1BB.jpg","null","",NA,NA,NA,NA,""
"image-keyboard-response",155,142775,"0.0-4.47-2.47","hlsmo06vhrfpt8l",550,"74.csv","","null","resources/images/coin2.png","null","",NA,NA,NA,NA,""
"image-keyboard-response",156,143196,"0.0-4.48-0.48","hlsmo06vhrfpt8l",550,"74.csv","","419.09999990463257","resources/trios/L1T4A3.jpg","37","restless",0.6,0.5,0.2,0.188415890407105,"true"
"image-keyboard-response",157,143602,"0.0-4.48-1.48","hlsmo06vhrfpt8l",550,"74.csv","","null","resources/maskTrios/L1BB.jpg","null","",NA,NA,NA,NA,""
"image-keyboard-response",158,144807,"0.0-4.48-2.48","hlsmo06vhrfpt8l",550,"74.csv","","null","resources/images/coin2.png","null","",NA,NA,NA,NA,""
"image-keyboard-response",159,145147,"0.0-4.49-0.49","hlsmo06vhrfpt8l",550,"74.csv","","338","resources/trios/L1T4A3.jpg","37","restless",0.6,0.5,0.2,0.115297592327015,"true"
"image-keyboard-response",160,145561,"0.0-4.49-1.49","hlsmo06vhrfpt8l",550,"74.csv","","null","resources/maskTrios/L1BB.jpg","null","",NA,NA,NA,NA,""
"image-keyboard-response",161,146776,"0.0-4.49-2.49","hlsmo06vhrfpt8l",550,"74.csv","","null","resources/images/coin2.png","null","",NA,NA,NA,NA,""
"image-keyboard-response",162,147518,"0.0-4.50-0.50","hlsmo06vhrfpt8l",550,"74.csv","","740.1999998092651","resources/trios/L1T4A3.jpg","37","restless",0.6,0.5,0.2,0.395576301269879,"true"
"image-keyboard-response",163,147929,"0.0-4.50-1.50","hlsmo06vhrfpt8l",550,"74.csv","","null","resources/maskTrios/L1BB.jpg","null","",NA,NA,NA,NA,""
"image-keyboard-response",164,149131,"0.0-4.50-2.50","hlsmo06vhrfpt8l",550,"74.csv","","null","resources/images/coin2.png","null","",NA,NA,NA,NA,""
"image-keyboard-response",165,149568,"0.0-4.51-0.51","hlsmo06vhrfpt8l",550,"74.csv","","435.2000000476837","resources/trios/L1T4A3.jpg","37","restless",0.6,0.5,0.2,0.04082967000991,"true"
"image-keyboard-response",166,149976,"0.0-4.51-1.51","hlsmo06vhrfpt8l",550,"74.csv","","null","resources/maskTrios/L1BB.jpg","null","",NA,NA,NA,NA,""
"image-keyboard-response",167,151180,"0.0-4.51-2.51","hlsmo06vhrfpt8l",550,"74.csv","","null","resources/images/coin2.png","null","",NA,NA,NA,NA,""
"image-keyboard-response",168,151215,"0.0-4.52-0.52","hlsmo06vhrfpt8l",550,"74.csv","","33.59999990463257","resources/trios/L1T4A3.jpg","37","restless",0.6,0.5,0.2,0.358844498405007,"true"
"image-keyboard-response",169,151620,"0.0-4.52-1.52","hlsmo06vhrfpt8l",550,"74.csv","","null","resources/maskTrios/L1BB.jpg","null","",NA,NA,NA,NA,""
"image-keyboard-response",170,152826,"0.0-4.52-2.52","hlsmo06vhrfpt8l",550,"74.csv","","null","resources/images/coin2.png","null","",NA,NA,NA,NA,""
"image-keyboard-response",171,152904,"0.0-4.53-0.53","hlsmo06vhrfpt8l",550,"74.csv","","77.09999990463257","resources/trios/L1T4A3.jpg","37","restless",0.6,0.5,0.2,0.695982392541418,"false"
"image-keyboard-response",172,153313,"0.0-4.53-1.53","hlsmo06vhrfpt8l",550,"74.csv","","null","resources/maskTrios/L1BB.jpg","null","",NA,NA,NA,NA,""
"image-keyboard-response",173,154519,"0.0-4.53-2.53","hlsmo06vhrfpt8l",550,"74.csv","","null","resources/images/fishbone.png","null","",NA,NA,NA,NA,""
"image-keyboard-response",174,154707,"0.0-4.54-0.54","hlsmo06vhrfpt8l",550,"74.csv","","186.89999985694885","resources/trios/L1T4A3.jpg","38","restless",0.6,0.5,0.2,0.301324315527494,"true"
"image-keyboard-response",175,155109,"0.0-4.54-1.54","hlsmo06vhrfpt8l",550,"74.csv","","null","resources/maskTrios/BT4B.jpg","null","",NA,NA,NA,NA,""
"image-keyboard-response",176,156323,"0.0-4.54-2.54","hlsmo06vhrfpt8l",550,"74.csv","","null","resources/images/coin2.png","null","",NA,NA,NA,NA,""
"image-keyboard-response",177,156541,"0.0-4.55-0.55","hlsmo06vhrfpt8l",550,"74.csv","","217.59999990463257","resources/trios/L1T4A3.jpg","38","restless",0.6,0.5,0.2,0.466217385522422,"true"
"image-keyboard-response",178,156947,"0.0-4.55-1.55","hlsmo06vhrfpt8l",550,"74.csv","","null","resources/maskTrios/BT4B.jpg","null","",NA,NA,NA,NA,""
"image-keyboard-response",179,158158,"0.0-4.55-2.55","hlsmo06vhrfpt8l",550,"74.csv","","null","resources/images/coin2.png","null","",NA,NA,NA,NA,""
"image-keyboard-response",180,158554,"0.0-4.56-0.56","hlsmo06vhrfpt8l",550,"74.csv","","395.09999990463257","resources/trios/L1T4A3.jpg","38","restless",0.6,0.5,0.2,0.264682148487237,"true"
"image-keyboard-response",181,158957,"0.0-4.56-1.56","hlsmo06vhrfpt8l",550,"74.csv","","null","resources/maskTrios/BT4B.jpg","null","",NA,NA,NA,NA,""
"image-keyboard-response",182,160162,"0.0-4.56-2.56","hlsmo06vhrfpt8l",550,"74.csv","","null","resources/images/coin2.png","null","",NA,NA,NA,NA,""
"image-keyboard-response",183,160384,"0.0-4.57-0.57","hlsmo06vhrfpt8l",550,"74.csv","","219.90000009536743","resources/trios/L1T4A3.jpg","38","restless",0.6,0.5,0.2,0.0212801826214588,"true"
"image-keyboard-response",184,160798,"0.0-4.57-1.57","hlsmo06vhrfpt8l",550,"74.csv","","null","resources/maskTrios/BT4B.jpg","null","",NA,NA,NA,NA,""
"image-keyboard-response",185,162012,"0.0-4.57-2.57","hlsmo06vhrfpt8l",550,"74.csv","","null","resources/images/coin2.png","null","",NA,NA,NA,NA,""
"image-keyboard-response",186,162269,"0.0-4.58-0.58","hlsmo06vhrfpt8l",550,"74.csv","","256.09999990463257","resources/trios/L1T4A3.jpg","38","restless",0.6,0.5,0.2,0.621706345593152,"false"
"image-keyboard-response",187,162683,"0.0-4.58-1.58","hlsmo06vhrfpt8l",550,"74.csv","","null","resources/maskTrios/BT4B.jpg","null","",NA,NA,NA,NA,""
"image-keyboard-response",188,163885,"0.0-4.58-2.58","hlsmo06vhrfpt8l",550,"74.csv","","null","resources/images/fishbone.png","null","",NA,NA,NA,NA,""
"image-keyboard-response",189,164117,"0.0-4.59-0.59","hlsmo06vhrfpt8l",550,"74.csv","","229.90000009536743","resources/trios/L1T4A3.jpg","39","restless",0.6,0.5,0.2,0.430971272066623,"false"
"image-keyboard-response",190,164530,"0.0-4.59-1.59","hlsmo06vhrfpt8l",550,"74.csv","","null","resources/maskTrios/BBA3.jpg","null","",NA,NA,NA,NA,""
"image-keyboard-response",191,165734,"0.0-4.59-2.59","hlsmo06vhrfpt8l",550,"74.csv","","null","resources/images/fishbone.png","null","",NA,NA,NA,NA,""
"image-keyboard-response",192,165915,"0.0-4.60-0.60","hlsmo06vhrfpt8l",550,"74.csv","","180.59999990463257","resources/trios/L1T4A3.jpg","37","restless",0.6,0.5,0.2,0.887842730451946,"false"
"image-keyboard-response",193,166318,"0.0-4.60-1.60","hlsmo06vhrfpt8l",550,"74.csv","","null","resources/maskTrios/L1BB.jpg","null","",NA,NA,NA,NA,""
"image-keyboard-response",194,167523,"0.0-4.60-2.60","hlsmo06vhrfpt8l",550,"74.csv","","null","resources/images/fishbone.png","null","",NA,NA,NA,NA,""
"image-keyboard-response",195,167526,"0.0-4.61-0.61","hlsmo06vhrfpt8l",550,"74.csv","","2.0999999046325684","resources/trios/L1T4A3.jpg","38","restless",0.6,0.5,0.2,0.568082537103316,"false"
"image-keyboard-response",196,167943,"0.0-4.61-1.61","hlsmo06vhrfpt8l",550,"74.csv","","null","resources/maskTrios/BT4B.jpg","null","",NA,NA,NA,NA,""
"image-keyboard-response",197,169157,"0.0-4.61-2.61","hlsmo06vhrfpt8l",550,"74.csv","","null","resources/images/fishbone.png","null","",NA,NA,NA,NA,""
"image-keyboard-response",198,169207,"0.0-4.62-0.62","hlsmo06vhrfpt8l",550,"74.csv","","49.69999980926514","resources/trios/L1T4A3.jpg","39","restless",0.6,0.5,0.2,0.614012606488666,"false"
"image-keyboard-response",199,169624,"0.0-4.62-1.62","hlsmo06vhrfpt8l",550,"74.csv","","null","resources/maskTrios/BBA3.jpg","null","",NA,NA,NA,NA,""
"image-keyboard-response",200,170834,"0.0-4.62-2.62","hlsmo06vhrfpt8l",550,"74.csv","","null","resources/images/fishbone.png","null","",NA,NA,NA,NA,""
"image-keyboard-response",201,170836,"0.0-4.63-0.63","hlsmo06vhrfpt8l",550,"74.csv","","0.6000001430511475","resources/trios/L1T4A3.jpg","39","restless",0.6,0.5,0.2,0.369985259209136,"false"
"image-keyboard-response",202,171244,"0.0-4.63-1.63","hlsmo06vhrfpt8l",550,"74.csv","","null","resources/maskTrios/BBA3.jpg","null","",NA,NA,NA,NA,""
"image-keyboard-response",203,172457,"0.0-4.63-2.63","hlsmo06vhrfpt8l",550,"74.csv","","null","resources/images/fishbone.png","null","",NA,NA,NA,NA,""
"image-keyboard-response",204,172612,"0.0-4.64-0.64","hlsmo06vhrfpt8l",550,"74.csv","","154.59999990463257","resources/trios/L1T4A3.jpg","38","restless",0.6,0.5,0.1,0.760740142280516,"false"
"image-keyboard-response",205,173016,"0.0-4.64-1.64","hlsmo06vhrfpt8l",550,"74.csv","","null","resources/maskTrios/BT4B.jpg","null","",NA,NA,NA,NA,""
"image-keyboard-response",206,174218,"0.0-4.64-2.64","hlsmo06vhrfpt8l",550,"74.csv","","null","resources/images/fishbone.png","null","",NA,NA,NA,NA,""
"image-keyboard-response",207,174503,"0.0-4.65-0.65","hlsmo06vhrfpt8l",550,"74.csv","","284","resources/trios/L1T4A3.jpg","38","restless",0.6,0.5,0.1,0.83959059726458,"false"
"image-keyboard-response",208,174908,"0.0-4.65-1.65","hlsmo06vhrfpt8l",550,"74.csv","","null","resources/maskTrios/BT4B.jpg","null","",NA,NA,NA,NA,""
"image-keyboard-response",209,176122,"0.0-4.65-2.65","hlsmo06vhrfpt8l",550,"74.csv","","null","resources/images/fishbone.png","null","",NA,NA,NA,NA,""
"image-keyboard-response",210,176398,"0.0-4.66-0.66","hlsmo06vhrfpt8l",550,"74.csv","","273.7999999523163","resources/trios/L1T4A3.jpg","37","restless",0.6,0.5,0.1,0.130694719377008,"true"
"image-keyboard-response",211,176801,"0.0-4.66-1.66","hlsmo06vhrfpt8l",550,"74.csv","","null","resources/maskTrios/L1BB.jpg","null","",NA,NA,NA,NA,""
"image-keyboard-response",212,178004,"0.0-4.66-2.66","hlsmo06vhrfpt8l",550,"74.csv","","null","resources/images/coin2.png","null","",NA,NA,NA,NA,""
"image-keyboard-response",213,178392,"0.0-4.67-0.67","hlsmo06vhrfpt8l",550,"74.csv","","386.2000000476837","resources/trios/L1T4A3.jpg","37","restless",0.6,0.5,0.1,0.091843506852602,"true"
"image-keyboard-response",214,178805,"0.0-4.67-1.67","hlsmo06vhrfpt8l",550,"74.csv","","null","resources/maskTrios/L1BB.jpg","null","",NA,NA,NA,NA,""
"image-keyboard-response",215,180011,"0.0-4.67-2.67","hlsmo06vhrfpt8l",550,"74.csv","","null","resources/images/coin2.png","null","",NA,NA,NA,NA,""
"image-keyboard-response",216,180330,"0.0-4.68-0.68","hlsmo06vhrfpt8l",550,"74.csv","","316.7999999523163","resources/trios/L1T4A3.jpg","37","restless",0.5,0.5,0.1,0.280034846347417,"true"
"image-keyboard-response",217,180733,"0.0-4.68-1.68","hlsmo06vhrfpt8l",550,"74.csv","","null","resources/maskTrios/L1BB.jpg","null","",NA,NA,NA,NA,""
"image-keyboard-response",218,181942,"0.0-4.68-2.68","hlsmo06vhrfpt8l",550,"74.csv","","null","resources/images/coin2.png","null","",NA,NA,NA,NA,""
"image-keyboard-response",219,182138,"0.0-4.69-0.69","hlsmo06vhrfpt8l",550,"74.csv","","194.59999990463257","resources/trios/L1T4A3.jpg","37","restless",0.5,0.5,0.1,0.061345539073417,"true"
"image-keyboard-response",220,182551,"0.0-4.69-1.69","hlsmo06vhrfpt8l",550,"74.csv","","null","resources/maskTrios/L1BB.jpg","null","",NA,NA,NA,NA,""
"image-keyboard-response",221,183762,"0.0-4.69-2.69","hlsmo06vhrfpt8l",550,"74.csv","","null","resources/images/coin2.png","null","",NA,NA,NA,NA,""
"image-keyboard-response",222,184079,"0.0-4.70-0.70","hlsmo06vhrfpt8l",550,"74.csv","","315.89999985694885","resources/trios/L1T4A3.jpg","37","restless",0.5,0.5,0.1,0.57398537941045,"false"
"image-keyboard-response",223,184485,"0.0-4.70-1.70","hlsmo06vhrfpt8l",550,"74.csv","","null","resources/maskTrios/L1BB.jpg","null","",NA,NA,NA,NA,""
"image-keyboard-response",224,185688,"0.0-4.70-2.70","hlsmo06vhrfpt8l",550,"74.csv","","null","resources/images/fishbone.png","null","",NA,NA,NA,NA,""
"image-keyboard-response",225,185699,"0.0-4.71-0.71","hlsmo06vhrfpt8l",550,"74.csv","","9.600000143051147","resources/trios/L1T4A3.jpg","38","restless",0.5,0.5,0.1,0.682592654750416,"false"
"image-keyboard-response",226,186109,"0.0-4.71-1.71","hlsmo06vhrfpt8l",550,"74.csv","","null","resources/maskTrios/BT4B.jpg","null","",NA,NA,NA,NA,""
"image-keyboard-response",227,187324,"0.0-4.71-2.71","hlsmo06vhrfpt8l",550,"74.csv","","null","resources/images/fishbone.png","null","",NA,NA,NA,NA,""
"image-keyboard-response",228,187545,"0.0-4.72-0.72","hlsmo06vhrfpt8l",550,"74.csv","","219.5","resources/trios/L1T4A3.jpg","38","restless",0.5,0.5,0.2,0.613479970767082,"false"
"image-keyboard-response",229,187951,"0.0-4.72-1.72","hlsmo06vhrfpt8l",550,"74.csv","","null","resources/maskTrios/BT4B.jpg","null","",NA,NA,NA,NA,""
"image-keyboard-response",230,189165,"0.0-4.72-2.72","hlsmo06vhrfpt8l",550,"74.csv","","null","resources/images/fishbone.png","null","",NA,NA,NA,NA,""
"image-keyboard-response",231,189184,"0.0-4.73-0.73","hlsmo06vhrfpt8l",550,"74.csv","","18.299999952316284","resources/trios/L1T4A3.jpg","38","restless",0.5,0.5,0.2,0.583191239835403,"false"
"image-keyboard-response",232,189586,"0.0-4.73-1.73","hlsmo06vhrfpt8l",550,"74.csv","","null","resources/maskTrios/BT4B.jpg","null","",NA,NA,NA,NA,""
"image-keyboard-response",233,190790,"0.0-4.73-2.73","hlsmo06vhrfpt8l",550,"74.csv","","null","resources/images/fishbone.png","null","",NA,NA,NA,NA,""
"image-keyboard-response",234,191058,"0.0-4.74-0.74","hlsmo06vhrfpt8l",550,"74.csv","","266.90000009536743","resources/trios/L1T4A3.jpg","39","restless",0.5,0.5,0.2,0.928429445949402,"false"
"image-keyboard-response",235,191463,"0.0-4.74-1.74","hlsmo06vhrfpt8l",550,"74.csv","","null","resources/maskTrios/BBA3.jpg","null","",NA,NA,NA,NA,""
"image-keyboard-response",236,192669,"0.0-4.74-2.74","hlsmo06vhrfpt8l",550,"74.csv","","null","resources/images/fishbone.png","null","",NA,NA,NA,NA,""
"image-keyboard-response",237,192871,"0.0-4.75-0.75","hlsmo06vhrfpt8l",550,"74.csv","","201.29999995231628","resources/trios/L1T4A3.jpg","39","restless",0.5,0.5,0.2,0.609348507871888,"false"
"image-keyboard-response",238,193285,"0.0-4.75-1.75","hlsmo06vhrfpt8l",550,"74.csv","","null","resources/maskTrios/BBA3.jpg","null","",NA,NA,NA,NA,""
"image-keyboard-response",239,194496,"0.0-4.75-2.75","hlsmo06vhrfpt8l",550,"74.csv","","null","resources/images/fishbone.png","null","",NA,NA,NA,NA,""
"image-keyboard-response",240,194598,"0.0-4.76-0.76","hlsmo06vhrfpt8l",550,"74.csv","","100.20000004768372","resources/trios/L1T4A3.jpg","39","restless",0.5,0.5,0.2,0.618225344234106,"false"
"image-keyboard-response",241,195010,"0.0-4.76-1.76","hlsmo06vhrfpt8l",550,"74.csv","","null","resources/maskTrios/BBA3.jpg","null","",NA,NA,NA,NA,""
"image-keyboard-response",242,196213,"0.0-4.76-2.76","hlsmo06vhrfpt8l",550,"74.csv","","null","resources/images/fishbone.png","null","",NA,NA,NA,NA,""
"image-keyboard-response",243,196289,"0.0-4.77-0.77","hlsmo06vhrfpt8l",550,"74.csv","","75.60000014305115","resources/trios/L1T4A3.jpg","37","restless",0.5,0.5,0.2,0.0472988636240788,"true"
"image-keyboard-response",244,196696,"0.0-4.77-1.77","hlsmo06vhrfpt8l",550,"74.csv","","null","resources/maskTrios/L1BB.jpg","null","",NA,NA,NA,NA,""
"image-keyboard-response",245,197907,"0.0-4.77-2.77","hlsmo06vhrfpt8l",550,"74.csv","","null","resources/images/coin2.png","null","",NA,NA,NA,NA,""
"image-keyboard-response",246,198304,"0.0-4.78-0.78","hlsmo06vhrfpt8l",550,"74.csv","","395.90000009536743","resources/trios/L1T4A3.jpg","37","restless",0.5,0.5,0.2,0.958822159160493,"false"
"image-keyboard-response",247,198709,"0.0-4.78-1.78","hlsmo06vhrfpt8l",550,"74.csv","","null","resources/maskTrios/L1BB.jpg","null","",NA,NA,NA,NA,""
"image-keyboard-response",248,199921,"0.0-4.78-2.78","hlsmo06vhrfpt8l",550,"74.csv","","null","resources/images/fishbone.png","null","",NA,NA,NA,NA,""
"image-keyboard-response",249,200152,"0.0-4.79-0.79","hlsmo06vhrfpt8l",550,"74.csv","","229","resources/trios/L1T4A3.jpg","37","restless",0.5,0.5,0.2,0.699748392836231,"false"
"image-keyboard-response",250,200560,"0.0-4.79-1.79","hlsmo06vhrfpt8l",550,"74.csv","","null","resources/maskTrios/L1BB.jpg","null","",NA,NA,NA,NA,""
"image-keyboard-response",251,201764,"0.0-4.79-2.79","hlsmo06vhrfpt8l",550,"74.csv","","null","resources/images/fishbone.png","null","",NA,NA,NA,NA,""
"image-keyboard-response",252,201834,"0.0-4.80-0.80","hlsmo06vhrfpt8l",550,"74.csv","","68.89999985694885","resources/trios/L1T4A3.jpg","37","restless",0.5,0.5,0.2,0.336422009316713,"true"
"image-keyboard-response",253,202247,"0.0-4.80-1.80","hlsmo06vhrfpt8l",550,"74.csv","","null","resources/maskTrios/L1BB.jpg","null","",NA,NA,NA,NA,""
"image-keyboard-response",254,203462,"0.0-4.80-2.80","hlsmo06vhrfpt8l",550,"74.csv","","null","resources/images/coin2.png","null","",NA,NA,NA,NA,""
"image-keyboard-response",255,203705,"0.0-4.81-0.81","hlsmo06vhrfpt8l",550,"74.csv","","241","resources/trios/L1T4A3.jpg","37","restless",0.5,0.5,0.2,0.184946825371139,"true"
"image-keyboard-response",256,204116,"0.0-4.81-1.81","hlsmo06vhrfpt8l",550,"74.csv","","null","resources/maskTrios/L1BB.jpg","null","",NA,NA,NA,NA,""
"image-keyboard-response",257,205330,"0.0-4.81-2.81","hlsmo06vhrfpt8l",550,"74.csv","","null","resources/images/coin2.png","null","",NA,NA,NA,NA,""
"image-keyboard-response",258,205523,"0.0-4.82-0.82","hlsmo06vhrfpt8l",550,"74.csv","","191.5","resources/trios/L1T4A3.jpg","37","restless",0.5,0.5,0.2,0.431730479530428,"true"
"image-keyboard-response",259,205937,"0.0-4.82-1.82","hlsmo06vhrfpt8l",550,"74.csv","","null","resources/maskTrios/L1BB.jpg","null","",NA,NA,NA,NA,""
"image-keyboard-response",260,207139,"0.0-4.82-2.82","hlsmo06vhrfpt8l",550,"74.csv","","null","resources/images/coin2.png","null","",NA,NA,NA,NA,""
"image-keyboard-response",261,207384,"0.0-4.83-0.83","hlsmo06vhrfpt8l",550,"74.csv","","244","resources/trios/L1T4A3.jpg","37","restless",0.5,0.5,0.2,0.860851995240371,"false"
"image-keyboard-response",262,207792,"0.0-4.83-1.83","hlsmo06vhrfpt8l",550,"74.csv","","null","resources/maskTrios/L1BB.jpg","null","",NA,NA,NA,NA,""
"image-keyboard-response",263,209003,"0.0-4.83-2.83","hlsmo06vhrfpt8l",550,"74.csv","","null","resources/images/fishbone.png","null","",NA,NA,NA,NA,""
"image-keyboard-response",264,209226,"0.0-4.84-0.84","hlsmo06vhrfpt8l",550,"74.csv","","221.90000009536743","resources/trios/L1T4A3.jpg","38","restless",0.5,0.4,0.2,0.263876943970655,"true"
"image-keyboard-response",265,209628,"0.0-4.84-1.84","hlsmo06vhrfpt8l",550,"74.csv","","null","resources/maskTrios/BT4B.jpg","null","",NA,NA,NA,NA,""
"image-keyboard-response",266,210841,"0.0-4.84-2.84","hlsmo06vhrfpt8l",550,"74.csv","","null","resources/images/coin2.png","null","",NA,NA,NA,NA,""
"image-keyboard-response",267,210949,"0.0-4.85-0.85","hlsmo06vhrfpt8l",550,"74.csv","","106.79999995231628","resources/trios/L1T4A3.jpg","38","restless",0.5,0.4,0.2,0.264958616826542,"true"
"image-keyboard-response",268,211365,"0.0-4.85-1.85","hlsmo06vhrfpt8l",550,"74.csv","","null","resources/maskTrios/BT4B.jpg","null","",NA,NA,NA,NA,""
"image-keyboard-response",269,212574,"0.0-4.85-2.85","hlsmo06vhrfpt8l",550,"74.csv","","null","resources/images/coin2.png","null","",NA,NA,NA,NA,""
"image-keyboard-response",270,212719,"0.0-4.86-0.86","hlsmo06vhrfpt8l",550,"74.csv","","143.30000019073486","resources/trios/L1T4A3.jpg","38","restless",0.5,0.4,0.2,0.199203016549328,"true"
"image-keyboard-response",271,213133,"0.0-4.86-1.86","hlsmo06vhrfpt8l",550,"74.csv","","null","resources/maskTrios/BT4B.jpg","null","",NA,NA,NA,NA,""
"image-keyboard-response",272,214337,"0.0-4.86-2.86","hlsmo06vhrfpt8l",550,"74.csv","","null","resources/images/coin2.png","null","",NA,NA,NA,NA,""
"image-keyboard-response",273,214613,"0.0-4.87-0.87","hlsmo06vhrfpt8l",550,"74.csv","","274.39999985694885","resources/trios/L1T4A3.jpg","38","restless",0.5,0.4,0.2,0.124076842299615,"true"
"image-keyboard-response",274,215027,"0.0-4.87-1.87","hlsmo06vhrfpt8l",550,"74.csv","","null","resources/maskTrios/BT4B.jpg","null","",NA,NA,NA,NA,""
"image-keyboard-response",275,216229,"0.0-4.87-2.87","hlsmo06vhrfpt8l",550,"74.csv","","null","resources/images/coin2.png","null","",NA,NA,NA,NA,""
"image-keyboard-response",276,216299,"0.0-4.88-0.88","hlsmo06vhrfpt8l",550,"74.csv","","68.70000004768372","resources/trios/L1T4A3.jpg","38","restless",0.5,0.4,0.2,0.757772002517407,"false"
"image-keyboard-response",277,216714,"0.0-4.88-1.88","hlsmo06vhrfpt8l",550,"74.csv","","null","resources/maskTrios/BT4B.jpg","null","",NA,NA,NA,NA,""
"image-keyboard-response",278,217927,"0.0-4.88-2.88","hlsmo06vhrfpt8l",550,"74.csv","","null","resources/images/fishbone.png","null","",NA,NA,NA,NA,""
"image-keyboard-response",279,218032,"0.0-4.89-0.89","hlsmo06vhrfpt8l",550,"74.csv","","103.90000009536743","resources/trios/L1T4A3.jpg","38","restless",0.5,0.4,0.2,0.429987266523609,"false"
"image-keyboard-response",280,218442,"0.0-4.89-1.89","hlsmo06vhrfpt8l",550,"74.csv","","null","resources/maskTrios/BT4B.jpg","null","",NA,NA,NA,NA,""
"image-keyboard-response",281,219648,"0.0-4.89-2.89","hlsmo06vhrfpt8l",550,"74.csv","","null","resources/images/fishbone.png","null","",NA,NA,NA,NA,""
"image-keyboard-response",282,220065,"0.0-4.90-0.90","hlsmo06vhrfpt8l",550,"74.csv","","414.90000009536743","resources/trios/L1T4A3.jpg","37","restless",0.5,0.5,0.2,0.206250373670877,"true"
"image-keyboard-response",283,220477,"0.0-4.90-1.90","hlsmo06vhrfpt8l",550,"74.csv","","null","resources/maskTrios/L1BB.jpg","null","",NA,NA,NA,NA,""
"image-keyboard-response",284,221691,"0.0-4.90-2.90","hlsmo06vhrfpt8l",550,"74.csv","","null","resources/images/coin2.png","null","",NA,NA,NA,NA,""
"image-keyboard-response",285,222066,"0.0-4.91-0.91","hlsmo06vhrfpt8l",550,"74.csv","","373.7999999523163","resources/trios/L1T4A3.jpg","37","restless",0.5,0.5,0.2,0.00114025409740792,"true"
"image-keyboard-response",286,222468,"0.0-4.91-1.91","hlsmo06vhrfpt8l",550,"74.csv","","null","resources/maskTrios/L1BB.jpg","null","",NA,NA,NA,NA,""
"image-keyboard-response",287,223671,"0.0-4.91-2.91","hlsmo06vhrfpt8l",550,"74.csv","","null","resources/images/coin2.png","null","",NA,NA,NA,NA,""
"image-keyboard-response",288,224188,"0.0-4.92-0.92","hlsmo06vhrfpt8l",550,"74.csv","","515.1999998092651","resources/trios/L1T4A3.jpg","37","restless",0.5,0.5,0.2,0.0244049391333669,"true"
"image-keyboard-response",289,224601,"0.0-4.92-1.92","hlsmo06vhrfpt8l",550,"74.csv","","null","resources/maskTrios/L1BB.jpg","null","",NA,NA,NA,NA,""
"image-keyboard-response",290,225809,"0.0-4.92-2.92","hlsmo06vhrfpt8l",550,"74.csv","","null","resources/images/coin2.png","null","",NA,NA,NA,NA,""
"image-keyboard-response",291,226021,"0.0-4.93-0.93","hlsmo06vhrfpt8l",550,"74.csv","","211.70000004768372","resources/trios/L1T4A3.jpg","37","restless",0.5,0.6,0.1,0.829679166399762,"false"
"image-keyboard-response",292,226430,"0.0-4.93-1.93","hlsmo06vhrfpt8l",550,"74.csv","","null","resources/maskTrios/L1BB.jpg","null","",NA,NA,NA,NA,""
"image-keyboard-response",293,227644,"0.0-4.93-2.93","hlsmo06vhrfpt8l",550,"74.csv","","null","resources/images/fishbone.png","null","",NA,NA,NA,NA,""
"image-keyboard-response",294,227812,"0.0-4.94-0.94","hlsmo06vhrfpt8l",550,"74.csv","","166.60000014305115","resources/trios/L1T4A3.jpg","39","restless",0.4,0.5,0.1,0.0823687396275512,"true"
"image-keyboard-response",295,228221,"0.0-4.94-1.94","hlsmo06vhrfpt8l",550,"74.csv","","null","resources/maskTrios/BBA3.jpg","null","",NA,NA,NA,NA,""
"image-keyboard-response",296,229429,"0.0-4.94-2.94","hlsmo06vhrfpt8l",550,"74.csv","","null","resources/images/coin2.png","null","",NA,NA,NA,NA,""
"image-keyboard-response",297,229784,"0.0-4.95-0.95","hlsmo06vhrfpt8l",550,"74.csv","","352.7000000476837","resources/trios/L1T4A3.jpg","39","restless",0.4,0.5,0.1,0.388861134142714,"false"
"image-keyboard-response",298,230201,"0.0-4.95-1.95","hlsmo06vhrfpt8l",550,"74.csv","","null","resources/maskTrios/BBA3.jpg","null","",NA,NA,NA,NA,""
"image-keyboard-response",299,231406,"0.0-4.95-2.95","hlsmo06vhrfpt8l",550,"74.csv","","null","resources/images/fishbone.png","null","",NA,NA,NA,NA,""
"image-keyboard-response",300,231719,"0.0-4.96-0.96","hlsmo06vhrfpt8l",550,"74.csv","","311.89999985694885","resources/trios/L1T4A3.jpg","38","restless",0.4,0.5,0.1,0.734832448595256,"false"
"image-keyboard-response",301,232123,"0.0-4.96-1.96","hlsmo06vhrfpt8l",550,"74.csv","","null","resources/maskTrios/BT4B.jpg","null","",NA,NA,NA,NA,""
"image-keyboard-response",302,233339,"0.0-4.96-2.96","hlsmo06vhrfpt8l",550,"74.csv","","null","resources/images/fishbone.png","null","",NA,NA,NA,NA,""
"image-keyboard-response",303,233367,"0.0-4.97-0.97","hlsmo06vhrfpt8l",550,"74.csv","","26.299999952316284","resources/trios/L1T4A3.jpg","37","restless",0.4,0.4,0.1,0.703647329516698,"false"
"image-keyboard-response",304,233774,"0.0-4.97-1.97","hlsmo06vhrfpt8l",550,"74.csv","","null","resources/maskTrios/L1BB.jpg","null","",NA,NA,NA,NA,""
"image-keyboard-response",305,234983,"0.0-4.97-2.97","hlsmo06vhrfpt8l",550,"74.csv","","null","resources/images/fishbone.png","null","",NA,NA,NA,NA,""
"image-keyboard-response",306,235065,"0.0-4.98-0.98","hlsmo06vhrfpt8l",550,"74.csv","","80.60000014305115","resources/trios/L1T4A3.jpg","37","restless",0.4,0.4,0.2,0.681394196318205,"false"
"image-keyboard-response",307,235472,"0.0-4.98-1.98","hlsmo06vhrfpt8l",550,"74.csv","","null","resources/maskTrios/L1BB.jpg","null","",NA,NA,NA,NA,""
"image-keyboard-response",308,236674,"0.0-4.98-2.98","hlsmo06vhrfpt8l",550,"74.csv","","null","resources/images/fishbone.png","null","",NA,NA,NA,NA,""
"image-keyboard-response",309,236713,"0.0-4.99-0.99","hlsmo06vhrfpt8l",550,"74.csv","","37.299999952316284","resources/trios/L1T4A3.jpg","37","restless",0.4,0.4,0.2,0.248972008449498,"true"
"image-keyboard-response",310,237129,"0.0-4.99-1.99","hlsmo06vhrfpt8l",550,"74.csv","","null","resources/maskTrios/L1BB.jpg","null","",NA,NA,NA,NA,""
"image-keyboard-response",311,238338,"0.0-4.99-2.99","hlsmo06vhrfpt8l",550,"74.csv","","null","resources/images/coin2.png","null","",NA,NA,NA,NA,""
"image-keyboard-response",312,238547,"0.0-4.100-0.100","hlsmo06vhrfpt8l",550,"74.csv","","207.5","resources/trios/L1T4A3.jpg","37","restless",0.4,0.4,0.2,0.557555467636203,"false"
"image-keyboard-response",313,238962,"0.0-4.100-1.100","hlsmo06vhrfpt8l",550,"74.csv","","null","resources/maskTrios/L1BB.jpg","null","",NA,NA,NA,NA,""
"image-keyboard-response",314,240168,"0.0-4.100-2.100","hlsmo06vhrfpt8l",550,"74.csv","","null","resources/images/fishbone.png","null","",NA,NA,NA,NA,""
"image-keyboard-response",315,240180,"0.0-4.101-0.101","hlsmo06vhrfpt8l",550,"74.csv","","9.799999952316284","resources/trios/L1T4A3.jpg","39","restless",0.3,0.4,0.2,0.725604969431243,"false"
"image-keyboard-response",316,240595,"0.0-4.101-1.101","hlsmo06vhrfpt8l",550,"74.csv","","null","resources/maskTrios/BBA3.jpg","null","",NA,NA,NA,NA,""
"image-keyboard-response",317,241798,"0.0-4.101-2.101","hlsmo06vhrfpt8l",550,"74.csv","","null","resources/images/fishbone.png","null","",NA,NA,NA,NA,""
"image-keyboard-response",318,241868,"0.0-4.102-0.102","hlsmo06vhrfpt8l",550,"74.csv","","68.90000009536743","resources/trios/L1T4A3.jpg","39","restless",0.3,0.4,0.3,0.273377454244698,"true"
"image-keyboard-response",319,242274,"0.0-4.102-1.102","hlsmo06vhrfpt8l",550,"74.csv","","null","resources/maskTrios/BBA3.jpg","null","",NA,NA,NA,NA,""
"image-keyboard-response",320,243481,"0.0-4.102-2.102","hlsmo06vhrfpt8l",550,"74.csv","","null","resources/images/coin2.png","null","",NA,NA,NA,NA,""
"image-keyboard-response",321,244122,"0.0-4.103-0.103","hlsmo06vhrfpt8l",550,"74.csv","","639.8999998569489","resources/trios/L1T4A3.jpg","39","restless",0.3,0.5,0.3,0.612141362618002,"false"
"image-keyboard-response",322,244537,"0.0-4.103-1.103","hlsmo06vhrfpt8l",550,"74.csv","","null","resources/maskTrios/BBA3.jpg","null","",NA,NA,NA,NA,""
"image-keyboard-response",323,245751,"0.0-4.103-2.103","hlsmo06vhrfpt8l",550,"74.csv","","null","resources/images/fishbone.png","null","",NA,NA,NA,NA,""
"image-keyboard-response",324,246463,"0.0-4.104-0.104","hlsmo06vhrfpt8l",550,"74.csv","","711.7999999523163","resources/trios/L1T4A3.jpg","38","restless",0.3,0.5,0.3,0.0363517029611911,"true"
"image-keyboard-response",325,246869,"0.0-4.104-1.104","hlsmo06vhrfpt8l",550,"74.csv","","null","resources/maskTrios/BT4B.jpg","null","",NA,NA,NA,NA,""
"image-keyboard-response",326,248085,"0.0-4.104-2.104","hlsmo06vhrfpt8l",550,"74.csv","","null","resources/images/coin2.png","null","",NA,NA,NA,NA,""
"image-keyboard-response",327,248372,"0.0-4.105-0.105","hlsmo06vhrfpt8l",550,"74.csv","","285.7000000476837","resources/trios/L1T4A3.jpg","38","restless",0.3,0.5,0.3,0.358650841822803,"true"
"image-keyboard-response",328,248788,"0.0-4.105-1.105","hlsmo06vhrfpt8l",550,"74.csv","","null","resources/maskTrios/BT4B.jpg","null","",NA,NA,NA,NA,""
"image-keyboard-response",329,250001,"0.0-4.105-2.105","hlsmo06vhrfpt8l",550,"74.csv","","null","resources/images/coin2.png","null","",NA,NA,NA,NA,""
"image-keyboard-response",330,250191,"0.0-4.106-0.106","hlsmo06vhrfpt8l",550,"74.csv","","188.69999980926514","resources/trios/L1T4A3.jpg","38","restless",0.3,0.5,0.3,0.579353787745826,"false"
"image-keyboard-response",331,250609,"0.0-4.106-1.106","hlsmo06vhrfpt8l",550,"74.csv","","null","resources/maskTrios/BT4B.jpg","null","",NA,NA,NA,NA,""
"image-keyboard-response",332,251821,"0.0-4.106-2.106","hlsmo06vhrfpt8l",550,"74.csv","","null","resources/images/fishbone.png","null","",NA,NA,NA,NA,""
"image-keyboard-response",333,251950,"0.0-4.107-0.107","hlsmo06vhrfpt8l",550,"74.csv","","127.5","resources/trios/L1T4A3.jpg","37","restless",0.3,0.5,0.4,0.928697793691301,"false"
"image-keyboard-response",334,252351,"0.0-4.107-1.107","hlsmo06vhrfpt8l",550,"74.csv","","null","resources/maskTrios/L1BB.jpg","null","",NA,NA,NA,NA,""
"image-keyboard-response",335,253561,"0.0-4.107-2.107","hlsmo06vhrfpt8l",550,"74.csv","","null","resources/images/fishbone.png","null","",NA,NA,NA,NA,""
"image-keyboard-response",336,253865,"0.0-4.108-0.108","hlsmo06vhrfpt8l",550,"74.csv","","303.2000000476837","resources/trios/L1T4A3.jpg","37","restless",0.3,0.5,0.4,0.982250734235177,"false"
"image-keyboard-response",337,254276,"0.0-4.108-1.108","hlsmo06vhrfpt8l",550,"74.csv","","null","resources/maskTrios/L1BB.jpg","null","",NA,NA,NA,NA,""
"image-keyboard-response",338,255485,"0.0-4.108-2.108","hlsmo06vhrfpt8l",550,"74.csv","","null","resources/images/fishbone.png","null","",NA,NA,NA,NA,""
"image-keyboard-response",339,255569,"0.0-4.109-0.109","hlsmo06vhrfpt8l",550,"74.csv","","82.39999985694885","resources/trios/L1T4A3.jpg","39","restless",0.3,0.5,0.4,0.665727434731482,"false"
"image-keyboard-response",340,255981,"0.0-4.109-1.109","hlsmo06vhrfpt8l",550,"74.csv","","null","resources/maskTrios/BBA3.jpg","null","",NA,NA,NA,NA,""
"image-keyboard-response",341,257196,"0.0-4.109-2.109","hlsmo06vhrfpt8l",550,"74.csv","","null","resources/images/fishbone.png","null","",NA,NA,NA,NA,""
"image-keyboard-response",342,257380,"0.0-4.110-0.110","hlsmo06vhrfpt8l",550,"74.csv","","181.5","resources/trios/L1T4A3.jpg","38","restless",0.3,0.5,0.4,0.750268940659125,"false"
"image-keyboard-response",343,257787,"0.0-4.110-1.110","hlsmo06vhrfpt8l",550,"74.csv","","null","resources/maskTrios/BT4B.jpg","null","",NA,NA,NA,NA,""
"image-keyboard-response",344,259001,"0.0-4.110-2.110","hlsmo06vhrfpt8l",550,"74.csv","","null","resources/images/fishbone.png","null","",NA,NA,NA,NA,""
"image-keyboard-response",345,259456,"0.0-4.111-0.111","hlsmo06vhrfpt8l",550,"74.csv","","453.7000000476837","resources/trios/L1T4A3.jpg","38","restless",0.3,0.5,0.4,0.944989273849767,"false"
"image-keyboard-response",346,259869,"0.0-4.111-1.111","hlsmo06vhrfpt8l",550,"74.csv","","null","resources/maskTrios/BT4B.jpg","null","",NA,NA,NA,NA,""
"image-keyboard-response",347,261081,"0.0-4.111-2.111","hlsmo06vhrfpt8l",550,"74.csv","","null","resources/images/fishbone.png","null","",NA,NA,NA,NA,""
"image-keyboard-response",348,261133,"0.0-4.112-0.112","hlsmo06vhrfpt8l",550,"74.csv","","51.5","resources/trios/L1T4A3.jpg","38","restless",0.3,0.5,0.5,0.116384121222439,"true"
"image-keyboard-response",349,261534,"0.0-4.112-1.112","hlsmo06vhrfpt8l",550,"74.csv","","null","resources/maskTrios/BT4B.jpg","null","",NA,NA,NA,NA,""
"image-keyboard-response",350,262747,"0.0-4.112-2.112","hlsmo06vhrfpt8l",550,"74.csv","","null","resources/images/coin2.png","null","",NA,NA,NA,NA,""
"image-keyboard-response",351,262880,"0.0-4.113-0.113","hlsmo06vhrfpt8l",550,"74.csv","","132.79999995231628","resources/trios/L1T4A3.jpg","38","restless",0.4,0.4,0.5,0.43898219004342,"false"
"image-keyboard-response",352,263289,"0.0-4.113-1.113","hlsmo06vhrfpt8l",550,"74.csv","","null","resources/maskTrios/BT4B.jpg","null","",NA,NA,NA,NA,""
"image-keyboard-response",353,264502,"0.0-4.113-2.113","hlsmo06vhrfpt8l",550,"74.csv","","null","resources/images/fishbone.png","null","",NA,NA,NA,NA,""
"image-keyboard-response",354,264746,"0.0-4.114-0.114","hlsmo06vhrfpt8l",550,"74.csv","","243.10000014305115","resources/trios/L1T4A3.jpg","37","restless",0.4,0.4,0.6,0.546009278077705,"false"
"image-keyboard-response",355,265159,"0.0-4.114-1.114","hlsmo06vhrfpt8l",550,"74.csv","","null","resources/maskTrios/L1BB.jpg","null","",NA,NA,NA,NA,""
"image-keyboard-response",356,266365,"0.0-4.114-2.114","hlsmo06vhrfpt8l",550,"74.csv","","null","resources/images/fishbone.png","null","",NA,NA,NA,NA,""
"image-keyboard-response",357,266485,"0.0-4.115-0.115","hlsmo06vhrfpt8l",550,"74.csv","","118.70000004768372","resources/trios/L1T4A3.jpg","37","restless",0.4,0.4,0.6,0.197944923282165,"true"
"image-keyboard-response",358,266898,"0.0-4.115-1.115","hlsmo06vhrfpt8l",550,"74.csv","","null","resources/maskTrios/L1BB.jpg","null","",NA,NA,NA,NA,""
"image-keyboard-response",359,268113,"0.0-4.115-2.115","hlsmo06vhrfpt8l",550,"74.csv","","null","resources/images/coin2.png","null","",NA,NA,NA,NA,""
"image-keyboard-response",360,268183,"0.0-4.116-0.116","hlsmo06vhrfpt8l",550,"74.csv","","68.79999995231628","resources/trios/L1T4A3.jpg","37","restless",0.4,0.4,0.6,0.256169431626979,"true"
"image-keyboard-response",361,268595,"0.0-4.116-1.116","hlsmo06vhrfpt8l",550,"74.csv","","null","resources/maskTrios/L1BB.jpg","null","",NA,NA,NA,NA,""
"image-keyboard-response",362,269800,"0.0-4.116-2.116","hlsmo06vhrfpt8l",550,"74.csv","","null","resources/images/coin2.png","null","",NA,NA,NA,NA,""
"image-keyboard-response",363,270125,"0.0-4.117-0.117","hlsmo06vhrfpt8l",550,"74.csv","","324.10000014305115","resources/trios/L1T4A3.jpg","37","restless",0.4,0.4,0.6,0.528406449280033,"false"
"image-keyboard-response",364,270531,"0.0-4.117-1.117","hlsmo06vhrfpt8l",550,"74.csv","","null","resources/maskTrios/L1BB.jpg","null","",NA,NA,NA,NA,""
"image-keyboard-response",365,271738,"0.0-4.117-2.117","hlsmo06vhrfpt8l",550,"74.csv","","null","resources/images/fishbone.png","null","",NA,NA,NA,NA,""
"image-keyboard-response",366,271803,"0.0-4.118-0.118","hlsmo06vhrfpt8l",550,"74.csv","","64.29999995231628","resources/trios/L1T4A3.jpg","37","restless",0.4,0.4,0.6,0.943437083934937,"false"
"image-keyboard-response",367,272210,"0.0-4.118-1.118","hlsmo06vhrfpt8l",550,"74.csv","","null","resources/maskTrios/L1BB.jpg","null","",NA,NA,NA,NA,""
"image-keyboard-response",368,273424,"0.0-4.118-2.118","hlsmo06vhrfpt8l",550,"74.csv","","null","resources/images/fishbone.png","null","",NA,NA,NA,NA,""
"image-keyboard-response",369,273553,"0.0-4.119-0.119","hlsmo06vhrfpt8l",550,"74.csv","","128.10000014305115","resources/trios/L1T4A3.jpg","39","restless",0.4,0.4,0.6,0.760721032646851,"false"
"image-keyboard-response",370,273970,"0.0-4.119-1.119","hlsmo06vhrfpt8l",550,"74.csv","","null","resources/maskTrios/BBA3.jpg","null","",NA,NA,NA,NA,""
"image-keyboard-response",371,275182,"0.0-4.119-2.119","hlsmo06vhrfpt8l",550,"74.csv","","null","resources/images/fishbone.png","null","",NA,NA,NA,NA,""
"image-keyboard-response",372,275234,"0.0-4.120-0.120","hlsmo06vhrfpt8l",550,"74.csv","","50.60000014305115","resources/trios/L1T4A3.jpg","39","restless",0.4,0.4,0.6,0.926933474261619,"false"
"image-keyboard-response",373,275646,"0.0-4.120-1.120","hlsmo06vhrfpt8l",550,"74.csv","","null","resources/maskTrios/BBA3.jpg","null","",NA,NA,NA,NA,""
"image-keyboard-response",374,276852,"0.0-4.120-2.120","hlsmo06vhrfpt8l",550,"74.csv","","null","resources/images/fishbone.png","null","",NA,NA,NA,NA,""
"image-keyboard-response",375,277066,"0.0-4.121-0.121","hlsmo06vhrfpt8l",550,"74.csv","","212.59999990463257","resources/trios/L1T4A3.jpg","39","restless",0.4,0.4,0.6,0.404292518944286,"true"
"image-keyboard-response",376,277480,"0.0-4.121-1.121","hlsmo06vhrfpt8l",550,"74.csv","","null","resources/maskTrios/BBA3.jpg","null","",NA,NA,NA,NA,""
"image-keyboard-response",377,278696,"0.0-4.121-2.121","hlsmo06vhrfpt8l",550,"74.csv","","null","resources/images/coin2.png","null","",NA,NA,NA,NA,""
"image-keyboard-response",378,278724,"0.0-4.122-0.122","hlsmo06vhrfpt8l",550,"74.csv","","26.09999990463257","resources/trios/L1T4A3.jpg","39","restless",0.4,0.4,0.7,0.646047683825504,"true"
"image-keyboard-response",379,279134,"0.0-4.122-1.122","hlsmo06vhrfpt8l",550,"74.csv","","null","resources/maskTrios/BBA3.jpg","null","",NA,NA,NA,NA,""
"image-keyboard-response",380,280339,"0.0-4.122-2.122","hlsmo06vhrfpt8l",550,"74.csv","","null","resources/images/coin2.png","null","",NA,NA,NA,NA,""
"image-keyboard-response",381,280606,"0.0-4.123-0.123","hlsmo06vhrfpt8l",550,"74.csv","","266.09999990463257","resources/trios/L1T4A3.jpg","39","restless",0.4,0.4,0.7,0.54366255246971,"true"
"image-keyboard-response",382,281009,"0.0-4.123-1.123","hlsmo06vhrfpt8l",550,"74.csv","","null","resources/maskTrios/BBA3.jpg","null","",NA,NA,NA,NA,""
"image-keyboard-response",383,282215,"0.0-4.123-2.123","hlsmo06vhrfpt8l",550,"74.csv","","null","resources/images/coin2.png","null","",NA,NA,NA,NA,""
"image-keyboard-response",384,282474,"0.0-4.124-0.124","hlsmo06vhrfpt8l",550,"74.csv","","258.40000009536743","resources/trios/L1T4A3.jpg","39","restless",0.4,0.4,0.7,0.453389399579296,"true"
"image-keyboard-response",385,282888,"0.0-4.124-1.124","hlsmo06vhrfpt8l",550,"74.csv","","null","resources/maskTrios/BBA3.jpg","null","",NA,NA,NA,NA,""
"image-keyboard-response",386,284090,"0.0-4.124-2.124","hlsmo06vhrfpt8l",550,"74.csv","","null","resources/images/coin2.png","null","",NA,NA,NA,NA,""
"image-keyboard-response",387,284353,"0.0-4.125-0.125","hlsmo06vhrfpt8l",550,"74.csv","","262.10000014305115","resources/trios/L1T4A3.jpg","39","restless",0.4,0.4,0.8,0.535886369565286,"true"
"image-keyboard-response",388,284763,"0.0-4.125-1.125","hlsmo06vhrfpt8l",550,"74.csv","","null","resources/maskTrios/BBA3.jpg","null","",NA,NA,NA,NA,""
"image-keyboard-response",389,285968,"0.0-4.125-2.125","hlsmo06vhrfpt8l",550,"74.csv","","null","resources/images/coin2.png","null","",NA,NA,NA,NA,""
"image-keyboard-response",390,286133,"0.0-4.126-0.126","hlsmo06vhrfpt8l",550,"74.csv","","164","resources/trios/L1T4A3.jpg","39","restless",0.4,0.5,0.8,0.613162354956287,"true"
"image-keyboard-response",391,286536,"0.0-4.126-1.126","hlsmo06vhrfpt8l",550,"74.csv","","null","resources/maskTrios/BBA3.jpg","null","",NA,NA,NA,NA,""
"image-keyboard-response",392,287745,"0.0-4.126-2.126","hlsmo06vhrfpt8l",550,"74.csv","","null","resources/images/coin2.png","null","",NA,NA,NA,NA,""
"image-keyboard-response",393,288026,"0.0-4.127-0.127","hlsmo06vhrfpt8l",550,"74.csv","","279.7999999523163","resources/trios/L1T4A3.jpg","39","restless",0.4,0.5,0.8,0.546066435717268,"true"
"image-keyboard-response",394,288430,"0.0-4.127-1.127","hlsmo06vhrfpt8l",550,"74.csv","","null","resources/maskTrios/BBA3.jpg","null","",NA,NA,NA,NA,""
"image-keyboard-response",395,289639,"0.0-4.127-2.127","hlsmo06vhrfpt8l",550,"74.csv","","null","resources/images/coin2.png","null","",NA,NA,NA,NA,""
"image-keyboard-response",396,289848,"0.0-4.128-0.128","hlsmo06vhrfpt8l",550,"74.csv","","208","resources/trios/L1T4A3.jpg","39","restless",0.4,0.5,0.9,0.880242057797856,"true"
"image-keyboard-response",397,290263,"0.0-4.128-1.128","hlsmo06vhrfpt8l",550,"74.csv","","null","resources/maskTrios/BBA3.jpg","null","",NA,NA,NA,NA,""
"image-keyboard-response",398,291471,"0.0-4.128-2.128","hlsmo06vhrfpt8l",550,"74.csv","","null","resources/images/coin2.png","null","",NA,NA,NA,NA,""
"image-keyboard-response",399,291561,"0.0-4.129-0.129","hlsmo06vhrfpt8l",550,"74.csv","","88.70000004768372","resources/trios/L1T4A3.jpg","39","restless",0.4,0.5,0.9,0.147931924824268,"true"
"image-keyboard-response",400,291969,"0.0-4.129-1.129","hlsmo06vhrfpt8l",550,"74.csv","","null","resources/maskTrios/BBA3.jpg","null","",NA,NA,NA,NA,""
"image-keyboard-response",401,293174,"0.0-4.129-2.129","hlsmo06vhrfpt8l",550,"74.csv","","null","resources/images/coin2.png","null","",NA,NA,NA,NA,""
"image-keyboard-response",402,293348,"0.0-4.130-0.130","hlsmo06vhrfpt8l",550,"74.csv","","173","resources/trios/L1T4A3.jpg","39","restless",0.4,0.5,0.9,0.949587035548378,"false"
"image-keyboard-response",403,293750,"0.0-4.130-1.130","hlsmo06vhrfpt8l",550,"74.csv","","null","resources/maskTrios/BBA3.jpg","null","",NA,NA,NA,NA,""
"image-keyboard-response",404,294954,"0.0-4.130-2.130","hlsmo06vhrfpt8l",550,"74.csv","","null","resources/images/fishbone.png","null","",NA,NA,NA,NA,""
"image-keyboard-response",405,295039,"0.0-4.131-0.131","hlsmo06vhrfpt8l",550,"74.csv","","83.20000004768372","resources/trios/L1T4A3.jpg","38","restless",0.4,0.5,0.9,0.228415161802393,"true"
"image-keyboard-response",406,295456,"0.0-4.131-1.131","hlsmo06vhrfpt8l",550,"74.csv","","null","resources/maskTrios/BT4B.jpg","null","",NA,NA,NA,NA,""
"image-keyboard-response",407,296661,"0.0-4.131-2.131","hlsmo06vhrfpt8l",550,"74.csv","","null","resources/images/coin2.png","null","",NA,NA,NA,NA,""
"image-keyboard-response",408,296692,"0.0-4.132-0.132","hlsmo06vhrfpt8l",550,"74.csv","","30.200000047683716","resources/trios/L1T4A3.jpg","38","restless",0.4,0.5,0.9,0.844716787717334,"false"
"image-keyboard-response",409,297109,"0.0-4.132-1.132","hlsmo06vhrfpt8l",550,"74.csv","","null","resources/maskTrios/BT4B.jpg","null","",NA,NA,NA,NA,""
"image-keyboard-response",410,298324,"0.0-4.132-2.132","hlsmo06vhrfpt8l",550,"74.csv","","null","resources/images/fishbone.png","null","",NA,NA,NA,NA,""
"image-keyboard-response",411,298392,"0.0-4.133-0.133","hlsmo06vhrfpt8l",550,"74.csv","","66.89999985694885","resources/trios/L1T4A3.jpg","37","restless",0.4,0.5,0.9,0.293989497218689,"true"
"image-keyboard-response",412,298795,"0.0-4.133-1.133","hlsmo06vhrfpt8l",550,"74.csv","","null","resources/maskTrios/L1BB.jpg","null","",NA,NA,NA,NA,""
"image-keyboard-response",413,300007,"0.0-4.133-2.133","hlsmo06vhrfpt8l",550,"74.csv","","null","resources/images/coin2.png","null","",NA,NA,NA,NA,""
"image-keyboard-response",414,300534,"0.0-4.134-0.134","hlsmo06vhrfpt8l",550,"74.csv","","526.0999999046326","resources/trios/L1T4A3.jpg","37","restless",0.4,0.5,0.9,0.689302257841929,"false"
"image-keyboard-response",415,300938,"0.0-4.134-1.134","hlsmo06vhrfpt8l",550,"74.csv","","null","resources/maskTrios/L1BB.jpg","null","",NA,NA,NA,NA,""
"image-keyboard-response",416,302141,"0.0-4.134-2.134","hlsmo06vhrfpt8l",550,"74.csv","","null","resources/images/fishbone.png","null","",NA,NA,NA,NA,""
"image-keyboard-response",417,302345,"0.0-4.135-0.135","hlsmo06vhrfpt8l",550,"74.csv","","203.10000014305115","resources/trios/L1T4A3.jpg","38","restless",0.4,0.5,0.9,0.487212604362023,"true"
"image-keyboard-response",418,302749,"0.0-4.135-1.135","hlsmo06vhrfpt8l",550,"74.csv","","null","resources/maskTrios/BT4B.jpg","null","",NA,NA,NA,NA,""
"image-keyboard-response",419,303960,"0.0-4.135-2.135","hlsmo06vhrfpt8l",550,"74.csv","","null","resources/images/coin2.png","null","",NA,NA,NA,NA,""
"image-keyboard-response",420,304458,"0.0-4.136-0.136","hlsmo06vhrfpt8l",550,"74.csv","","497.5","resources/trios/L1T4A3.jpg","38","restless",0.4,0.5,0.9,0.918590275753984,"false"
"image-keyboard-response",421,304866,"0.0-4.136-1.136","hlsmo06vhrfpt8l",550,"74.csv","","null","resources/maskTrios/BT4B.jpg","null","",NA,NA,NA,NA,""
"image-keyboard-response",422,306077,"0.0-4.136-2.136","hlsmo06vhrfpt8l",550,"74.csv","","null","resources/images/fishbone.png","null","",NA,NA,NA,NA,""
"image-keyboard-response",423,306259,"0.0-4.137-0.137","hlsmo06vhrfpt8l",550,"74.csv","","180.29999995231628","resources/trios/L1T4A3.jpg","38","restless",0.4,0.5,0.8,0.32425882058106,"true"
"image-keyboard-response",424,306675,"0.0-4.137-1.137","hlsmo06vhrfpt8l",550,"74.csv","","null","resources/maskTrios/BT4B.jpg","null","",NA,NA,NA,NA,""
"image-keyboard-response",425,307890,"0.0-4.137-2.137","hlsmo06vhrfpt8l",550,"74.csv","","null","resources/images/coin2.png","null","",NA,NA,NA,NA,""
"image-keyboard-response",426,308173,"0.0-4.138-0.138","hlsmo06vhrfpt8l",550,"74.csv","","282.40000009536743","resources/trios/L1T4A3.jpg","38","restless",0.4,0.5,0.8,0.275331159051775,"true"
"image-keyboard-response",427,308575,"0.0-4.138-1.138","hlsmo06vhrfpt8l",550,"74.csv","","null","resources/maskTrios/BT4B.jpg","null","",NA,NA,NA,NA,""
"image-keyboard-response",428,309785,"0.0-4.138-2.138","hlsmo06vhrfpt8l",550,"74.csv","","null","resources/images/coin2.png","null","",NA,NA,NA,NA,""
"image-keyboard-response",429,309992,"0.0-4.139-0.139","hlsmo06vhrfpt8l",550,"74.csv","","206.09999990463257","resources/trios/L1T4A3.jpg","38","restless",0.3,0.5,0.8,0.0528161175774686,"true"
"image-keyboard-response",430,310409,"0.0-4.139-1.139","hlsmo06vhrfpt8l",550,"74.csv","","null","resources/maskTrios/BT4B.jpg","null","",NA,NA,NA,NA,""
"image-keyboard-response",431,311618,"0.0-4.139-2.139","hlsmo06vhrfpt8l",550,"74.csv","","null","resources/images/coin2.png","null","",NA,NA,NA,NA,""
"image-keyboard-response",432,311884,"0.0-4.140-0.140","hlsmo06vhrfpt8l",550,"74.csv","","264.7000000476837","resources/trios/L1T4A3.jpg","38","restless",0.3,0.5,0.8,0.517764281346487,"false"
"image-keyboard-response",433,312291,"0.0-4.140-1.140","hlsmo06vhrfpt8l",550,"74.csv","","null","resources/maskTrios/BT4B.jpg","null","",NA,NA,NA,NA,""
"image-keyboard-response",434,313504,"0.0-4.140-2.140","hlsmo06vhrfpt8l",550,"74.csv","","null","resources/images/fishbone.png","null","",NA,NA,NA,NA,""
"image-keyboard-response",435,313681,"0.0-4.141-0.141","hlsmo06vhrfpt8l",550,"74.csv","","176.09999990463257","resources/trios/L1T4A3.jpg","38","restless",0.4,0.5,0.8,0.87740190242337,"false"
"image-keyboard-response",436,314097,"0.0-4.141-1.141","hlsmo06vhrfpt8l",550,"74.csv","","null","resources/maskTrios/BT4B.jpg","null","",NA,NA,NA,NA,""
"image-keyboard-response",437,315312,"0.0-4.141-2.141","hlsmo06vhrfpt8l",550,"74.csv","","null","resources/images/fishbone.png","null","",NA,NA,NA,NA,""
"image-keyboard-response",438,315337,"0.0-4.142-0.142","hlsmo06vhrfpt8l",550,"74.csv","","23.700000047683716","resources/trios/L1T4A3.jpg","39","restless",0.4,0.6,0.8,0.275168261769339,"true"
"image-keyboard-response",439,315752,"0.0-4.142-1.142","hlsmo06vhrfpt8l",550,"74.csv","","null","resources/maskTrios/BBA3.jpg","null","",NA,NA,NA,NA,""
"image-keyboard-response",440,316962,"0.0-4.142-2.142","hlsmo06vhrfpt8l",550,"74.csv","","null","resources/images/coin2.png","null","",NA,NA,NA,NA,""
"image-keyboard-response",441,317035,"0.0-4.143-0.143","hlsmo06vhrfpt8l",550,"74.csv","","71.70000004768372","resources/trios/L1T4A3.jpg","39","restless",0.4,0.6,0.8,0.576340598699959,"true"
"image-keyboard-response",442,317446,"0.0-4.143-1.143","hlsmo06vhrfpt8l",550,"74.csv","","null","resources/maskTrios/BBA3.jpg","null","",NA,NA,NA,NA,""
"image-keyboard-response",443,318655,"0.0-4.143-2.143","hlsmo06vhrfpt8l",550,"74.csv","","null","resources/images/coin2.png","null","",NA,NA,NA,NA,""
"image-keyboard-response",444,319035,"0.0-4.144-0.144","hlsmo06vhrfpt8l",550,"74.csv","","378.2000000476837","resources/trios/L1T4A3.jpg","39","restless",0.5,0.6,0.8,0.892158386979373,"false"
"image-keyboard-response",445,319450,"0.0-4.144-1.144","hlsmo06vhrfpt8l",550,"74.csv","","null","resources/maskTrios/BBA3.jpg","null","",NA,NA,NA,NA,""
"image-keyboard-response",446,320657,"0.0-4.144-2.144","hlsmo06vhrfpt8l",550,"74.csv","","null","resources/images/fishbone.png","null","",NA,NA,NA,NA,""
"image-keyboard-response",447,321320,"0.0-4.145-0.145","hlsmo06vhrfpt8l",550,"74.csv","","661.3999998569489","resources/trios/L1T4A3.jpg","39","restless",0.5,0.6,0.8,0.784991164047151,"true"
"image-keyboard-response",448,321724,"0.0-4.145-1.145","hlsmo06vhrfpt8l",550,"74.csv","","null","resources/maskTrios/BBA3.jpg","null","",NA,NA,NA,NA,""
"image-keyboard-response",449,322940,"0.0-4.145-2.145","hlsmo06vhrfpt8l",550,"74.csv","","null","resources/images/coin2.png","null","",NA,NA,NA,NA,""
"image-keyboard-response",450,325125,"0.0-4.146-0.146","hlsmo06vhrfpt8l",550,"74.csv","","2182.9000000953674","resources/trios/L1T4A3.jpg","39","restless",0.5,0.6,0.8,0.955140377829668,"false"
"image-keyboard-response",451,325539,"0.0-4.146-1.146","hlsmo06vhrfpt8l",550,"74.csv","","null","resources/maskTrios/BBA3.jpg","null","",NA,NA,NA,NA,""
"image-keyboard-response",452,326744,"0.0-4.146-2.146","hlsmo06vhrfpt8l",550,"74.csv","","null","resources/images/fishbone.png","null","",NA,NA,NA,NA,""
"image-keyboard-response",453,327290,"0.0-4.147-0.147","hlsmo06vhrfpt8l",550,"74.csv","","544.3999998569489","resources/trios/L1T4A3.jpg","37","restless",0.5,0.6,0.8,0.0572450054994651,"true"
"image-keyboard-response",454,327701,"0.0-4.147-1.147","hlsmo06vhrfpt8l",550,"74.csv","","null","resources/maskTrios/L1BB.jpg","null","",NA,NA,NA,NA,""
"image-keyboard-response",455,328916,"0.0-4.147-2.147","hlsmo06vhrfpt8l",550,"74.csv","","null","resources/images/coin2.png","null","",NA,NA,NA,NA,""
"image-keyboard-response",456,329047,"0.0-4.148-0.148","hlsmo06vhrfpt8l",550,"74.csv","","130.20000004768372","resources/trios/L1T4A3.jpg","37","restless",0.5,0.6,0.7,0.880725368225838,"false"
"image-keyboard-response",457,329459,"0.0-4.148-1.148","hlsmo06vhrfpt8l",550,"74.csv","","null","resources/maskTrios/L1BB.jpg","null","",NA,NA,NA,NA,""
"image-keyboard-response",458,330666,"0.0-4.148-2.148","hlsmo06vhrfpt8l",550,"74.csv","","null","resources/images/fishbone.png","null","",NA,NA,NA,NA,""
"image-keyboard-response",459,330801,"0.0-4.149-0.149","hlsmo06vhrfpt8l",550,"74.csv","","133.79999995231628","resources/trios/L1T4A3.jpg","38","restless",0.5,0.6,0.7,0.293748089776022,"true"
"image-keyboard-response",460,331210,"0.0-4.149-1.149","hlsmo06vhrfpt8l",550,"74.csv","","null","resources/maskTrios/BT4B.jpg","null","",NA,NA,NA,NA,""
"image-keyboard-response",461,332422,"0.0-4.149-2.149","hlsmo06vhrfpt8l",550,"74.csv","","null","resources/images/coin2.png","null","",NA,NA,NA,NA,""
"image-keyboard-response",462,332673,"0.0-4.150-0.150","hlsmo06vhrfpt8l",550,"74.csv","","249.70000004768372","resources/trios/L1T4A3.jpg","38","restless",0.4,0.6,0.7,0.133736390488535,"true"
"image-keyboard-response",463,333079,"0.0-4.150-1.150","hlsmo06vhrfpt8l",550,"74.csv","","null","resources/maskTrios/BT4B.jpg","null","",NA,NA,NA,NA,""
"image-keyboard-response",464,334292,"0.0-4.150-2.150","hlsmo06vhrfpt8l",550,"74.csv","","null","resources/images/coin2.png","null","",NA,NA,NA,NA,""
"image-keyboard-response",465,335220,"0.0-4.151-0.151","hlsmo06vhrfpt8l",550,"74.csv","","926.2000000476837","resources/trios/L1T4A3.jpg","38","restless",0.4,0.6,0.7,0.438814709187071,"true"
"image-keyboard-response",466,335628,"0.0-4.151-1.151","hlsmo06vhrfpt8l",550,"74.csv","","null","resources/maskTrios/BT4B.jpg","null","",NA,NA,NA,NA,""
"image-keyboard-response",467,336840,"0.0-4.151-2.151","hlsmo06vhrfpt8l",550,"74.csv","","null","resources/images/coin2.png","null","",NA,NA,NA,NA,""
"image-keyboard-response",468,337121,"0.0-4.152-0.152","hlsmo06vhrfpt8l",550,"74.csv","","279.89999985694885","resources/trios/L1T4A3.jpg","38","restless",0.4,0.6,0.7,0.77622925339179,"false"
"image-keyboard-response",469,337524,"0.0-4.152-1.152","hlsmo06vhrfpt8l",550,"74.csv","","null","resources/maskTrios/BT4B.jpg","null","",NA,NA,NA,NA,""
"image-keyboard-response",470,338726,"0.0-4.152-2.152","hlsmo06vhrfpt8l",550,"74.csv","","null","resources/images/fishbone.png","null","",NA,NA,NA,NA,""
"image-keyboard-response",471,338893,"0.0-4.153-0.153","hlsmo06vhrfpt8l",550,"74.csv","","165.39999985694885","resources/trios/L1T4A3.jpg","39","restless",0.4,0.6,0.7,0.0263073638449698,"true"
"image-keyboard-response",472,339306,"0.0-4.153-1.153","hlsmo06vhrfpt8l",550,"74.csv","","null","resources/maskTrios/BBA3.jpg","null","",NA,NA,NA,NA,""
"image-keyboard-response",473,340522,"0.0-4.153-2.153","hlsmo06vhrfpt8l",550,"74.csv","","null","resources/images/coin2.png","null","",NA,NA,NA,NA,""
"image-keyboard-response",474,341168,"0.0-4.154-0.154","hlsmo06vhrfpt8l",550,"74.csv","","645.7000000476837","resources/trios/L1T4A3.jpg","39","restless",0.4,0.6,0.7,0.974016580916603,"false"
"image-keyboard-response",475,341582,"0.0-4.154-1.154","hlsmo06vhrfpt8l",550,"74.csv","","null","resources/maskTrios/BBA3.jpg","null","",NA,NA,NA,NA,""
"image-keyboard-response",476,342796,"0.0-4.154-2.154","hlsmo06vhrfpt8l",550,"74.csv","","null","resources/images/fishbone.png","null","",NA,NA,NA,NA,""
"image-keyboard-response",477,343557,"0.0-4.155-0.155","hlsmo06vhrfpt8l",550,"74.csv","","759.5999999046326","resources/trios/L1T4A3.jpg","39","restless",0.4,0.6,0.7,0.679039624014266,"true"
"image-keyboard-response",478,343961,"0.0-4.155-1.155","hlsmo06vhrfpt8l",550,"74.csv","","null","resources/maskTrios/BBA3.jpg","null","",NA,NA,NA,NA,""
"image-keyboard-response",479,345175,"0.0-4.155-2.155","hlsmo06vhrfpt8l",550,"74.csv","","null","resources/images/coin2.png","null","",NA,NA,NA,NA,""
"image-keyboard-response",480,345202,"0.0-4.156-0.156","hlsmo06vhrfpt8l",550,"74.csv","","26.09999990463257","resources/trios/L1T4A3.jpg","39","restless",0.4,0.6,0.8,0.774746438866106,"true"
"image-keyboard-response",481,345615,"0.0-4.156-1.156","hlsmo06vhrfpt8l",550,"74.csv","","null","resources/maskTrios/BBA3.jpg","null","",NA,NA,NA,NA,""
"image-keyboard-response",482,346824,"0.0-4.156-2.156","hlsmo06vhrfpt8l",550,"74.csv","","null","resources/images/coin2.png","null","",NA,NA,NA,NA,""
"image-keyboard-response",483,347816,"0.0-4.157-0.157","hlsmo06vhrfpt8l",550,"74.csv","","989.5","resources/trios/L1T4A3.jpg","39","restless",0.4,0.6,0.8,0.775238300952787,"true"
"image-keyboard-response",484,348220,"0.0-4.157-1.157","hlsmo06vhrfpt8l",550,"74.csv","","null","resources/maskTrios/BBA3.jpg","null","",NA,NA,NA,NA,""
"image-keyboard-response",485,349427,"0.0-4.157-2.157","hlsmo06vhrfpt8l",550,"74.csv","","null","resources/images/coin2.png","null","",NA,NA,NA,NA,""
"image-keyboard-response",486,349586,"0.0-4.158-0.158","hlsmo06vhrfpt8l",550,"74.csv","","157.29999995231628","resources/trios/L1T4A3.jpg","39","restless",0.4,0.6,0.8,0.330707898051637,"true"
"image-keyboard-response",487,349995,"0.0-4.158-1.158","hlsmo06vhrfpt8l",550,"74.csv","","null","resources/maskTrios/BBA3.jpg","null","",NA,NA,NA,NA,""
"image-keyboard-response",488,351197,"0.0-4.158-2.158","hlsmo06vhrfpt8l",550,"74.csv","","null","resources/images/coin2.png","null","",NA,NA,NA,NA,""
"image-keyboard-response",489,352220,"0.0-4.159-0.159","hlsmo06vhrfpt8l",550,"74.csv","","1022.1999998092651","resources/trios/L1T4A3.jpg","39","restless",0.4,0.6,0.8,0.939214765836162,"false"
"image-keyboard-response",490,352631,"0.0-4.159-1.159","hlsmo06vhrfpt8l",550,"74.csv","","null","resources/maskTrios/BBA3.jpg","null","",NA,NA,NA,NA,""
"image-keyboard-response",491,353847,"0.0-4.159-2.159","hlsmo06vhrfpt8l",550,"74.csv","","null","resources/images/fishbone.png","null","",NA,NA,NA,NA,""
"image-keyboard-response",492,354141,"0.0-4.160-0.160","hlsmo06vhrfpt8l",550,"74.csv","","292.7000000476837","resources/trios/L1T4A3.jpg","38","restless",0.4,0.6,0.8,0.704558311475924,"false"
"image-keyboard-response",493,354554,"0.0-4.160-1.160","hlsmo06vhrfpt8l",550,"74.csv","","null","resources/maskTrios/BT4B.jpg","null","",NA,NA,NA,NA,""
"image-keyboard-response",494,355763,"0.0-4.160-2.160","hlsmo06vhrfpt8l",550,"74.csv","","null","resources/images/fishbone.png","null","",NA,NA,NA,NA,""
"image-keyboard-response",495,356575,"0.0-4.161-0.161","hlsmo06vhrfpt8l",550,"74.csv","","811.0999999046326","resources/trios/L1T4A3.jpg","37","restless",0.5,0.6,0.8,0.508890186323514,"false"
"image-keyboard-response",496,356988,"0.0-4.161-1.161","hlsmo06vhrfpt8l",550,"74.csv","","null","resources/maskTrios/L1BB.jpg","null","",NA,NA,NA,NA,""
"image-keyboard-response",497,358192,"0.0-4.161-2.161","hlsmo06vhrfpt8l",550,"74.csv","","null","resources/images/fishbone.png","null","",NA,NA,NA,NA,""
"image-keyboard-response",498,358896,"0.0-4.162-0.162","hlsmo06vhrfpt8l",550,"74.csv","","703","resources/trios/L1T4A3.jpg","38","restless",0.5,0.6,0.8,0.531598897837877,"true"
"image-keyboard-response",499,359300,"0.0-4.162-1.162","hlsmo06vhrfpt8l",550,"74.csv","","null","resources/maskTrios/BT4B.jpg","null","",NA,NA,NA,NA,""
"image-keyboard-response",500,360505,"0.0-4.162-2.162","hlsmo06vhrfpt8l",550,"74.csv","","null","resources/images/coin2.png","null","",NA,NA,NA,NA,""
"image-keyboard-response",501,361025,"0.0-4.163-0.163","hlsmo06vhrfpt8l",550,"74.csv","","518.2000000476837","resources/trios/L1T4A3.jpg","38","restless",0.5,0.6,0.7,0.172520476033744,"true"
"image-keyboard-response",502,361428,"0.0-4.163-1.163","hlsmo06vhrfpt8l",550,"74.csv","","null","resources/maskTrios/BT4B.jpg","null","",NA,NA,NA,NA,""
"image-keyboard-response",503,362644,"0.0-4.163-2.163","hlsmo06vhrfpt8l",550,"74.csv","","null","resources/images/coin2.png","null","",NA,NA,NA,NA,""
"image-keyboard-response",504,362982,"0.0-4.164-0.164","hlsmo06vhrfpt8l",550,"74.csv","","336.90000009536743","resources/trios/L1T4A3.jpg","38","restless",0.5,0.6,0.7,0.0677111191274751,"true"
"image-keyboard-response",505,363392,"0.0-4.164-1.164","hlsmo06vhrfpt8l",550,"74.csv","","null","resources/maskTrios/BT4B.jpg","null","",NA,NA,NA,NA,""
"image-keyboard-response",506,364594,"0.0-4.164-2.164","hlsmo06vhrfpt8l",550,"74.csv","","null","resources/images/coin2.png","null","",NA,NA,NA,NA,""
"image-keyboard-response",507,364719,"0.0-4.165-0.165","hlsmo06vhrfpt8l",550,"74.csv","","123.79999995231628","resources/trios/L1T4A3.jpg","38","restless",0.5,0.6,0.7,0.834854723507452,"false"
"image-keyboard-response",508,365128,"0.0-4.165-1.165","hlsmo06vhrfpt8l",550,"74.csv","","null","resources/maskTrios/BT4B.jpg","null","",NA,NA,NA,NA,""
"image-keyboard-response",509,366344,"0.0-4.165-2.165","hlsmo06vhrfpt8l",550,"74.csv","","null","resources/images/fishbone.png","null","",NA,NA,NA,NA,""
"image-keyboard-response",510,366456,"0.0-4.166-0.166","hlsmo06vhrfpt8l",550,"74.csv","","110.70000004768372","resources/trios/L1T4A3.jpg","39","restless",0.5,0.6,0.7,0.0470821124373155,"true"
"image-keyboard-response",511,366872,"0.0-4.166-1.166","hlsmo06vhrfpt8l",550,"74.csv","","null","resources/maskTrios/BBA3.jpg","null","",NA,NA,NA,NA,""
"image-keyboard-response",512,368081,"0.0-4.166-2.166","hlsmo06vhrfpt8l",550,"74.csv","","null","resources/images/coin2.png","null","",NA,NA,NA,NA,""
"image-keyboard-response",513,369150,"0.0-4.167-0.167","hlsmo06vhrfpt8l",550,"74.csv","","1068.6000001430511","resources/trios/L1T4A3.jpg","39","restless",0.5,0.6,0.7,0.106237778917038,"true"
"image-keyboard-response",514,369562,"0.0-4.167-1.167","hlsmo06vhrfpt8l",550,"74.csv","","null","resources/maskTrios/BBA3.jpg","null","",NA,NA,NA,NA,""
"image-keyboard-response",515,370766,"0.0-4.167-2.167","hlsmo06vhrfpt8l",550,"74.csv","","null","resources/images/coin2.png","null","",NA,NA,NA,NA,""
"image-keyboard-response",516,370963,"0.0-4.168-0.168","hlsmo06vhrfpt8l",550,"74.csv","","195.29999995231628","resources/trios/L1T4A3.jpg","39","restless",0.5,0.6,0.7,0.728196221897093,"false"
"image-keyboard-response",517,371379,"0.0-4.168-1.168","hlsmo06vhrfpt8l",550,"74.csv","","null","resources/maskTrios/BBA3.jpg","null","",NA,NA,NA,NA,""
"image-keyboard-response",518,372589,"0.0-4.168-2.168","hlsmo06vhrfpt8l",550,"74.csv","","null","resources/images/fishbone.png","null","",NA,NA,NA,NA,""
"image-keyboard-response",519,373611,"0.0-4.169-0.169","hlsmo06vhrfpt8l",550,"74.csv","","1020.4000000953674","resources/trios/L1T4A3.jpg","37","restless",0.5,0.6,0.7,0.985487619084404,"false"
"image-keyboard-response",520,374025,"0.0-4.169-1.169","hlsmo06vhrfpt8l",550,"74.csv","","null","resources/maskTrios/L1BB.jpg","null","",NA,NA,NA,NA,""
"image-keyboard-response",521,375238,"0.0-4.169-2.169","hlsmo06vhrfpt8l",550,"74.csv","","null","resources/images/fishbone.png","null","",NA,NA,NA,NA,""
"image-keyboard-response",522,376202,"0.0-4.170-0.170","hlsmo06vhrfpt8l",550,"74.csv","","963","resources/trios/L1T4A3.jpg","38","restless",0.5,0.6,0.8,0.0211657228721251,"true"
"image-keyboard-response",523,376616,"0.0-4.170-1.170","hlsmo06vhrfpt8l",550,"74.csv","","null","resources/maskTrios/BT4B.jpg","null","",NA,NA,NA,NA,""
"image-keyboard-response",524,377819,"0.0-4.170-2.170","hlsmo06vhrfpt8l",550,"74.csv","","null","resources/images/coin2.png","null","",NA,NA,NA,NA,""
"image-keyboard-response",525,377979,"0.0-4.171-0.171","hlsmo06vhrfpt8l",550,"74.csv","","158.20000004768372","resources/trios/L1T4A3.jpg","38","restless",0.5,0.6,0.8,0.23957697972611,"true"
"image-keyboard-response",526,378382,"0.0-4.171-1.171","hlsmo06vhrfpt8l",550,"74.csv","","null","resources/maskTrios/BT4B.jpg","null","",NA,NA,NA,NA,""
"image-keyboard-response",527,379584,"0.0-4.171-2.171","hlsmo06vhrfpt8l",550,"74.csv","","null","resources/images/coin2.png","null","",NA,NA,NA,NA,""
"image-keyboard-response",528,380292,"0.0-4.172-0.172","hlsmo06vhrfpt8l",550,"74.csv","","706.9000000953674","resources/trios/L1T4A3.jpg","38","restless",0.5,0.6,0.8,0.69179758680138,"false"
"image-keyboard-response",529,380695,"0.0-4.172-1.172","hlsmo06vhrfpt8l",550,"74.csv","","null","resources/maskTrios/BT4B.jpg","null","",NA,NA,NA,NA,""
"image-keyboard-response",530,381912,"0.0-4.172-2.172","hlsmo06vhrfpt8l",550,"74.csv","","null","resources/images/fishbone.png","null","",NA,NA,NA,NA,""
"image-keyboard-response",531,382014,"0.0-4.173-0.173","hlsmo06vhrfpt8l",550,"74.csv","","101.29999995231628","resources/trios/L1T4A3.jpg","39","restless",0.5,0.6,0.8,0.123732293313926,"true"
"image-keyboard-response",532,382422,"0.0-4.173-1.173","hlsmo06vhrfpt8l",550,"74.csv","","null","resources/maskTrios/BBA3.jpg","null","",NA,NA,NA,NA,""
"image-keyboard-response",533,383628,"0.0-4.173-2.173","hlsmo06vhrfpt8l",550,"74.csv","","null","resources/images/coin2.png","null","",NA,NA,NA,NA,""
"image-keyboard-response",534,383757,"0.0-4.174-0.174","hlsmo06vhrfpt8l",550,"74.csv","","126.70000004768372","resources/trios/L1T4A3.jpg","39","restless",0.5,0.6,0.8,0.417357170434284,"true"
"image-keyboard-response",535,384172,"0.0-4.174-1.174","hlsmo06vhrfpt8l",550,"74.csv","","null","resources/maskTrios/BBA3.jpg","null","",NA,NA,NA,NA,""
"image-keyboard-response",536,385376,"0.0-4.174-2.174","hlsmo06vhrfpt8l",550,"74.csv","","null","resources/images/coin2.png","null","",NA,NA,NA,NA,""
"image-keyboard-response",537,385411,"0.0-4.175-0.175","hlsmo06vhrfpt8l",550,"74.csv","","34","resources/trios/L1T4A3.jpg","39","restless",0.5,0.6,0.9,0.410736868363391,"true"
"image-keyboard-response",538,385826,"0.0-4.175-1.175","hlsmo06vhrfpt8l",550,"74.csv","","null","resources/maskTrios/BBA3.jpg","null","",NA,NA,NA,NA,""
"image-keyboard-response",539,387029,"0.0-4.175-2.175","hlsmo06vhrfpt8l",550,"74.csv","","null","resources/images/coin2.png","null","",NA,NA,NA,NA,""
"image-keyboard-response",540,387253,"0.0-4.176-0.176","hlsmo06vhrfpt8l",550,"74.csv","","222.09999990463257","resources/trios/L1T4A3.jpg","39","restless",0.5,0.6,0.9,0.441174614678487,"true"
"image-keyboard-response",541,387657,"0.0-4.176-1.176","hlsmo06vhrfpt8l",550,"74.csv","","null","resources/maskTrios/BBA3.jpg","null","",NA,NA,NA,NA,""
"image-keyboard-response",542,388864,"0.0-4.176-2.176","hlsmo06vhrfpt8l",550,"74.csv","","null","resources/images/coin2.png","null","",NA,NA,NA,NA,""
"image-keyboard-response",543,388953,"0.0-4.177-0.177","hlsmo06vhrfpt8l",550,"74.csv","","87.20000004768372","resources/trios/L1T4A3.jpg","39","restless",0.5,0.6,0.9,0.577518256622245,"true"
"image-keyboard-response",544,389367,"0.0-4.177-1.177","hlsmo06vhrfpt8l",550,"74.csv","","null","resources/maskTrios/BBA3.jpg","null","",NA,NA,NA,NA,""
"image-keyboard-response",545,390573,"0.0-4.177-2.177","hlsmo06vhrfpt8l",550,"74.csv","","null","resources/images/coin2.png","null","",NA,NA,NA,NA,""
"image-keyboard-response",546,390741,"0.0-4.178-0.178","hlsmo06vhrfpt8l",550,"74.csv","","165.79999995231628","resources/trios/L1T4A3.jpg","39","restless",0.5,0.6,0.9,0.94235567888766,"false"
"image-keyboard-response",547,391152,"0.0-4.178-1.178","hlsmo06vhrfpt8l",550,"74.csv","","null","resources/maskTrios/BBA3.jpg","null","",NA,NA,NA,NA,""
"image-keyboard-response",548,392355,"0.0-4.178-2.178","hlsmo06vhrfpt8l",550,"74.csv","","null","resources/images/fishbone.png","null","",NA,NA,NA,NA,""
"image-keyboard-response",549,392402,"0.0-4.179-0.179","hlsmo06vhrfpt8l",550,"74.csv","","46","resources/trios/L1T4A3.jpg","37","restless",0.5,0.6,0.9,0.154872849272272,"true"
"image-keyboard-response",550,392813,"0.0-4.179-1.179","hlsmo06vhrfpt8l",550,"74.csv","","null","resources/maskTrios/L1BB.jpg","null","",NA,NA,NA,NA,""
"image-keyboard-response",551,394028,"0.0-4.179-2.179","hlsmo06vhrfpt8l",550,"74.csv","","null","resources/images/coin2.png","null","",NA,NA,NA,NA,""
"image-keyboard-response",552,394171,"0.0-4.180-0.180","hlsmo06vhrfpt8l",550,"74.csv","","142.20000004768372","resources/trios/L1T4A3.jpg","37","restless",0.5,0.6,0.9,0.0678231119776265,"true"
"image-keyboard-response",553,394588,"0.0-4.180-1.180","hlsmo06vhrfpt8l",550,"74.csv","","null","resources/maskTrios/L1BB.jpg","null","",NA,NA,NA,NA,""
"image-keyboard-response",554,395800,"0.0-4.180-2.180","hlsmo06vhrfpt8l",550,"74.csv","","null","resources/images/coin2.png","null","",NA,NA,NA,NA,""
"image-keyboard-response",555,396081,"0.0-4.181-0.181","hlsmo06vhrfpt8l",550,"74.csv","","279.2000000476837","resources/trios/L1T4A3.jpg","37","restless",0.5,0.5,0.9,0.401271027409984,"true"
"image-keyboard-response",556,396486,"0.0-4.181-1.181","hlsmo06vhrfpt8l",550,"74.csv","","null","resources/maskTrios/L1BB.jpg","null","",NA,NA,NA,NA,""
"image-keyboard-response",557,397688,"0.0-4.181-2.181","hlsmo06vhrfpt8l",550,"74.csv","","null","resources/images/coin2.png","null","",NA,NA,NA,NA,""
"image-keyboard-response",558,397984,"0.0-4.182-0.182","hlsmo06vhrfpt8l",550,"74.csv","","294.2000000476837","resources/trios/L1T4A3.jpg","37","restless",0.5,0.5,0.9,0.372426288834002,"true"
"image-keyboard-response",559,398389,"0.0-4.182-1.182","hlsmo06vhrfpt8l",550,"74.csv","","null","resources/maskTrios/L1BB.jpg","null","",NA,NA,NA,NA,""
"image-keyboard-response",560,399603,"0.0-4.182-2.182","hlsmo06vhrfpt8l",550,"74.csv","","null","resources/images/coin2.png","null","",NA,NA,NA,NA,""
"image-keyboard-response",561,400421,"0.0-4.183-0.183","hlsmo06vhrfpt8l",550,"74.csv","","817.2999999523163","resources/trios/L1T4A3.jpg","37","restless",0.4,0.5,0.9,0.663584472483934,"false"
"image-keyboard-response",562,400829,"0.0-4.183-1.183","hlsmo06vhrfpt8l",550,"74.csv","","null","resources/maskTrios/L1BB.jpg","null","",NA,NA,NA,NA,""
"image-keyboard-response",563,402034,"0.0-4.183-2.183","hlsmo06vhrfpt8l",550,"74.csv","","null","resources/images/fishbone.png","null","",NA,NA,NA,NA,""
"image-keyboard-response",564,402343,"0.0-4.184-0.184","hlsmo06vhrfpt8l",550,"74.csv","","307.5","resources/trios/L1T4A3.jpg","38","restless",0.3,0.5,0.9,0.968707621236688,"false"
"image-keyboard-response",565,402752,"0.0-4.184-1.184","hlsmo06vhrfpt8l",550,"74.csv","","null","resources/maskTrios/BT4B.jpg","null","",NA,NA,NA,NA,""
"image-keyboard-response",566,403963,"0.0-4.184-2.184","hlsmo06vhrfpt8l",550,"74.csv","","null","resources/images/fishbone.png","null","",NA,NA,NA,NA,""
"image-keyboard-response",567,406286,"0.0-4.185-0.185","hlsmo06vhrfpt8l",550,"74.csv","","2321.899999856949","resources/trios/L1T4A3.jpg","38","restless",0.3,0.5,0.9,0.210558913428442,"true"
"image-keyboard-response",568,406697,"0.0-4.185-1.185","hlsmo06vhrfpt8l",550,"74.csv","","null","resources/maskTrios/BT4B.jpg","null","",NA,NA,NA,NA,""
"image-keyboard-response",569,407908,"0.0-4.185-2.185","hlsmo06vhrfpt8l",550,"74.csv","","null","resources/images/coin2.png","null","",NA,NA,NA,NA,""
"image-keyboard-response",570,408115,"0.0-4.186-0.186","hlsmo06vhrfpt8l",550,"74.csv","","204.79999995231628","resources/trios/L1T4A3.jpg","38","restless",0.3,0.5,0.9,0.381058545612507,"true"
"image-keyboard-response",571,408527,"0.0-4.186-1.186","hlsmo06vhrfpt8l",550,"74.csv","","null","resources/maskTrios/BT4B.jpg","null","",NA,NA,NA,NA,""
"image-keyboard-response",572,409742,"0.0-4.186-2.186","hlsmo06vhrfpt8l",550,"74.csv","","null","resources/images/coin2.png","null","",NA,NA,NA,NA,""
"image-keyboard-response",573,411472,"0.0-4.187-0.187","hlsmo06vhrfpt8l",550,"74.csv","","1728","resources/trios/L1T4A3.jpg","38","restless",0.3,0.4,0.9,0.535558109355934,"false"
"image-keyboard-response",574,411878,"0.0-4.187-1.187","hlsmo06vhrfpt8l",550,"74.csv","","null","resources/maskTrios/BT4B.jpg","null","",NA,NA,NA,NA,""
"image-keyboard-response",575,413081,"0.0-4.187-2.187","hlsmo06vhrfpt8l",550,"74.csv","","null","resources/images/fishbone.png","null","",NA,NA,NA,NA,""
"image-keyboard-response",576,413284,"0.0-4.188-0.188","hlsmo06vhrfpt8l",550,"74.csv","","201.70000004768372","resources/trios/L1T4A3.jpg","39","restless",0.3,0.4,0.8,0.643060053949566,"true"
"image-keyboard-response",577,413689,"0.0-4.188-1.188","hlsmo06vhrfpt8l",550,"74.csv","","null","resources/maskTrios/BBA3.jpg","null","",NA,NA,NA,NA,""
"image-keyboard-response",578,414902,"0.0-4.188-2.188","hlsmo06vhrfpt8l",550,"74.csv","","null","resources/images/coin2.png","null","",NA,NA,NA,NA,""
"image-keyboard-response",579,415208,"0.0-4.189-0.189","hlsmo06vhrfpt8l",550,"74.csv","","303.90000009536743","resources/trios/L1T4A3.jpg","39","restless",0.3,0.4,0.8,0.970655423440216,"false"
"image-keyboard-response",580,415617,"0.0-4.189-1.189","hlsmo06vhrfpt8l",550,"74.csv","","null","resources/maskTrios/BBA3.jpg","null","",NA,NA,NA,NA,""
"image-keyboard-response",581,416826,"0.0-4.189-2.189","hlsmo06vhrfpt8l",550,"74.csv","","null","resources/images/fishbone.png","null","",NA,NA,NA,NA,""
"image-keyboard-response",582,417288,"0.0-4.190-0.190","hlsmo06vhrfpt8l",550,"74.csv","","460.60000014305115","resources/trios/L1T4A3.jpg","37","restless",0.2,0.3,0.8,0.993079190962801,"false"
"image-keyboard-response",583,417701,"0.0-4.190-1.190","hlsmo06vhrfpt8l",550,"74.csv","","null","resources/maskTrios/L1BB.jpg","null","",NA,NA,NA,NA,""
"image-keyboard-response",584,418914,"0.0-4.190-2.190","hlsmo06vhrfpt8l",550,"74.csv","","null","resources/images/fishbone.png","null","",NA,NA,NA,NA,""
"image-keyboard-response",585,419301,"0.0-4.191-0.191","hlsmo06vhrfpt8l",550,"74.csv","","385.40000009536743","resources/trios/L1T4A3.jpg","37","restless",0.2,0.3,0.8,0.910912899770479,"false"
"image-keyboard-response",586,419708,"0.0-4.191-1.191","hlsmo06vhrfpt8l",550,"74.csv","","null","resources/maskTrios/L1BB.jpg","null","",NA,NA,NA,NA,""
"image-keyboard-response",587,420916,"0.0-4.191-2.191","hlsmo06vhrfpt8l",550,"74.csv","","null","resources/images/fishbone.png","null","",NA,NA,NA,NA,""
"image-keyboard-response",588,420918,"0.0-4.192-0.192","hlsmo06vhrfpt8l",550,"74.csv","","0.2999999523162842","resources/trios/L1T4A3.jpg","38","restless",0.2,0.4,0.8,0.196801078084432,"true"
"image-keyboard-response",589,421321,"0.0-4.192-1.192","hlsmo06vhrfpt8l",550,"74.csv","","null","resources/maskTrios/BT4B.jpg","null","",NA,NA,NA,NA,""
"image-keyboard-response",590,422530,"0.0-4.192-2.192","hlsmo06vhrfpt8l",550,"74.csv","","null","resources/images/coin2.png","null","",NA,NA,NA,NA,""
"image-keyboard-response",591,422620,"0.0-4.193-0.193","hlsmo06vhrfpt8l",550,"74.csv","","88.90000009536743","resources/trios/L1T4A3.jpg","38","restless",0.2,0.5,0.8,0.428003742735349,"true"
"image-keyboard-response",592,423036,"0.0-4.193-1.193","hlsmo06vhrfpt8l",550,"74.csv","","null","resources/maskTrios/BT4B.jpg","null","",NA,NA,NA,NA,""
"image-keyboard-response",593,424240,"0.0-4.193-2.193","hlsmo06vhrfpt8l",550,"74.csv","","null","resources/images/coin2.png","null","",NA,NA,NA,NA,""
"image-keyboard-response",594,424315,"0.0-4.194-0.194","hlsmo06vhrfpt8l",550,"74.csv","","73.29999995231628","resources/trios/L1T4A3.jpg","38","restless",0.2,0.5,0.8,0.0657621763054108,"true"
"image-keyboard-response",595,424724,"0.0-4.194-1.194","hlsmo06vhrfpt8l",550,"74.csv","","null","resources/maskTrios/BT4B.jpg","null","",NA,NA,NA,NA,""
"image-keyboard-response",596,425935,"0.0-4.194-2.194","hlsmo06vhrfpt8l",550,"74.csv","","null","resources/images/coin2.png","null","",NA,NA,NA,NA,""
"image-keyboard-response",597,426041,"0.0-4.195-0.195","hlsmo06vhrfpt8l",550,"74.csv","","104.79999995231628","resources/trios/L1T4A3.jpg","38","restless",0.2,0.5,0.8,0.159389238545268,"true"
"image-keyboard-response",598,426454,"0.0-4.195-1.195","hlsmo06vhrfpt8l",550,"74.csv","","null","resources/maskTrios/BT4B.jpg","null","",NA,NA,NA,NA,""
"image-keyboard-response",599,427660,"0.0-4.195-2.195","hlsmo06vhrfpt8l",550,"74.csv","","null","resources/images/coin2.png","null","",NA,NA,NA,NA,""
"image-keyboard-response",600,427693,"0.0-4.196-0.196","hlsmo06vhrfpt8l",550,"74.csv","","31.700000047683716","resources/trios/L1T4A3.jpg","38","restless",0.2,0.5,0.8,0.795866353332839,"false"
"image-keyboard-response",601,428098,"0.0-4.196-1.196","hlsmo06vhrfpt8l",550,"74.csv","","null","resources/maskTrios/BT4B.jpg","null","",NA,NA,NA,NA,""
"image-keyboard-response",602,429312,"0.0-4.196-2.196","hlsmo06vhrfpt8l",550,"74.csv","","null","resources/images/fishbone.png","null","",NA,NA,NA,NA,""
"image-keyboard-response",603,430176,"0.0-4.197-0.197","hlsmo06vhrfpt8l",550,"74.csv","","863.0999999046326","resources/trios/L1T4A3.jpg","39","restless",0.2,0.5,0.8,0.796686318071067,"true"
"image-keyboard-response",604,430589,"0.0-4.197-1.197","hlsmo06vhrfpt8l",550,"74.csv","","null","resources/maskTrios/BBA3.jpg","null","",NA,NA,NA,NA,""
"image-keyboard-response",605,431793,"0.0-4.197-2.197","hlsmo06vhrfpt8l",550,"74.csv","","null","resources/images/coin2.png","null","",NA,NA,NA,NA,""
"image-keyboard-response",606,432097,"0.0-4.198-0.198","hlsmo06vhrfpt8l",550,"74.csv","","303.09999990463257","resources/trios/L1T4A3.jpg","39","restless",0.2,0.4,0.8,0.765519398859296,"true"
"image-keyboard-response",607,432499,"0.0-4.198-1.198","hlsmo06vhrfpt8l",550,"74.csv","","null","resources/maskTrios/BBA3.jpg","null","",NA,NA,NA,NA,""
"image-keyboard-response",608,433715,"0.0-4.198-2.198","hlsmo06vhrfpt8l",550,"74.csv","","null","resources/images/coin2.png","null","",NA,NA,NA,NA,""
"image-keyboard-response",609,433749,"0.0-4.199-0.199","hlsmo06vhrfpt8l",550,"74.csv","","32.200000047683716","resources/trios/L1T4A3.jpg","39","restless",0.2,0.4,0.8,0.634019322742903,"true"
"image-keyboard-response",610,434154,"0.0-4.199-1.199","hlsmo06vhrfpt8l",550,"74.csv","","null","resources/maskTrios/BBA3.jpg","null","",NA,NA,NA,NA,""
"image-keyboard-response",611,435356,"0.0-4.199-2.199","hlsmo06vhrfpt8l",550,"74.csv","","null","resources/images/coin2.png","null","",NA,NA,NA,NA,""
