"trial_type","trial_index","time_elapsed","internal_node_id","subject","participantCode","walkNumber","success","rt","stimulus","key_press","test_part","leftProb","midProb","rightProb","generatedNum","correct"
"pavlovia",0,682,"0.0-0.0","8b5n280nvadpxfw",75,"53.csv","","","","","",NA,NA,NA,NA,""
"fullscreen",1,3499,"0.0-1.0","8b5n280nvadpxfw",75,"53.csv","true","","","","",NA,NA,NA,NA,""
"survey-html-form",2,21304,"0.0-2.0","8b5n280nvadpxfw",75,"53.csv","","17802","","","",NA,NA,NA,NA,""
"image-keyboard-response",3,33102,"0.0-3.0-0.0","8b5n280nvadpxfw",75,"53.csv","","11797.59999999404","resources/images/parrot_nobg.png","13","",NA,NA,NA,NA,""
"image-keyboard-response",4,36106,"0.0-3.0-1.0","8b5n280nvadpxfw",75,"53.csv","","null","resources/image_sets/111.png","null","",NA,NA,NA,NA,""
"image-keyboard-response",5,41823,"0.0-3.0-2.0","8b5n280nvadpxfw",75,"53.csv","","5716","resources/image_sets/left_highlight.png","37","",NA,NA,NA,NA,""
"image-keyboard-response",6,45326,"0.0-3.0-3.0","8b5n280nvadpxfw",75,"53.csv","","3501.199999988079","resources/image_sets/mid_highlight.png","38","",NA,NA,NA,NA,""
"image-keyboard-response",7,47080,"0.0-3.0-4.0","8b5n280nvadpxfw",75,"53.csv","","1752.4000000059605","resources/image_sets/right_highlight.png","39","",NA,NA,NA,NA,""
"image-keyboard-response",8,51688,"0.0-3.0-5.0","8b5n280nvadpxfw",75,"53.csv","","4606.5999999940395","resources/image_sets/111.png","13","",NA,NA,NA,NA,""
"image-keyboard-response",9,53289,"0.0-3.0-6.0","8b5n280nvadpxfw",75,"53.csv","","1600.4000000059605","resources/images/coin2.png","13","",NA,NA,NA,NA,""
"image-keyboard-response",10,54315,"0.0-3.0-7.0","8b5n280nvadpxfw",75,"53.csv","","1025.2999999821186","resources/images/fishbone.png","13","",NA,NA,NA,NA,""
"html-keyboard-response",11,56850,"0.0-3.0-8.0","8b5n280nvadpxfw",75,"53.csv","","2534","<p>You can track your coin total on the top right of your screen. </p><p>At the end of your journey you will be directed to a survey, so please click on the link before exiting the task</p><p>Press Enter to begin</p>","13","",NA,NA,NA,NA,""
"image-keyboard-response",12,60545,"0.0-4.0-0.0","8b5n280nvadpxfw",75,"53.csv","","3694","resources/trios/L1T2A2.jpg","37","restless",0.3,0.9,0.7,0.737246651418292,"false"
"image-keyboard-response",13,60953,"0.0-4.0-1.0","8b5n280nvadpxfw",75,"53.csv","","null","resources/maskTrios/L1BB.jpg","null","",NA,NA,NA,NA,""
"image-keyboard-response",14,62156,"0.0-4.0-2.0","8b5n280nvadpxfw",75,"53.csv","","null","resources/images/fishbone.png","null","",NA,NA,NA,NA,""
"image-keyboard-response",15,66234,"0.0-4.1-0.1","8b5n280nvadpxfw",75,"53.csv","","4075.199999988079","resources/trios/L1T2A2.jpg","38","restless",0.3,0.9,0.7,0.888912876333783,"true"
"image-keyboard-response",16,66642,"0.0-4.1-1.1","8b5n280nvadpxfw",75,"53.csv","","null","resources/maskTrios/BT2B.jpg","null","",NA,NA,NA,NA,""
"image-keyboard-response",17,67853,"0.0-4.1-2.1","8b5n280nvadpxfw",75,"53.csv","","null","resources/images/coin2.png","null","",NA,NA,NA,NA,""
"image-keyboard-response",18,68858,"0.0-4.2-0.2","8b5n280nvadpxfw",75,"53.csv","","1003.5","resources/trios/L1T2A2.jpg","38","restless",0.3,0.8,0.7,0.183333572036501,"true"
"image-keyboard-response",19,69264,"0.0-4.2-1.2","8b5n280nvadpxfw",75,"53.csv","","null","resources/maskTrios/BT2B.jpg","null","",NA,NA,NA,NA,""
"image-keyboard-response",20,70471,"0.0-4.2-2.2","8b5n280nvadpxfw",75,"53.csv","","null","resources/images/coin2.png","null","",NA,NA,NA,NA,""
"image-keyboard-response",21,71162,"0.0-4.3-0.3","8b5n280nvadpxfw",75,"53.csv","","688.9000000059605","resources/trios/L1T2A2.jpg","38","restless",0.3,0.8,0.7,0.156885528183841,"true"
"image-keyboard-response",22,71574,"0.0-4.3-1.3","8b5n280nvadpxfw",75,"53.csv","","null","resources/maskTrios/BT2B.jpg","null","",NA,NA,NA,NA,""
"image-keyboard-response",23,72780,"0.0-4.3-2.3","8b5n280nvadpxfw",75,"53.csv","","null","resources/images/coin2.png","null","",NA,NA,NA,NA,""
"image-keyboard-response",24,74290,"0.0-4.4-0.4","8b5n280nvadpxfw",75,"53.csv","","1507.7999999821186","resources/trios/L1T2A2.jpg","38","restless",0.3,0.8,0.7,0.988924631873113,"false"
"image-keyboard-response",25,74698,"0.0-4.4-1.4","8b5n280nvadpxfw",75,"53.csv","","null","resources/maskTrios/BT2B.jpg","null","",NA,NA,NA,NA,""
"image-keyboard-response",26,75902,"0.0-4.4-2.4","8b5n280nvadpxfw",75,"53.csv","","null","resources/images/fishbone.png","null","",NA,NA,NA,NA,""
"image-keyboard-response",27,77025,"0.0-4.5-0.5","8b5n280nvadpxfw",75,"53.csv","","1121.2000000178814","resources/trios/L1T2A2.jpg","39","restless",0.3,0.8,0.7,0.387905218560961,"true"
"image-keyboard-response",28,77431,"0.0-4.5-1.5","8b5n280nvadpxfw",75,"53.csv","","null","resources/maskTrios/BBA2.jpg","null","",NA,NA,NA,NA,""
"image-keyboard-response",29,78641,"0.0-4.5-2.5","8b5n280nvadpxfw",75,"53.csv","","null","resources/images/coin2.png","null","",NA,NA,NA,NA,""
"image-keyboard-response",30,79424,"0.0-4.6-0.6","8b5n280nvadpxfw",75,"53.csv","","780.5999999940395","resources/trios/L1T2A2.jpg","37","restless",0.3,0.8,0.7,0.380877663493637,"false"
"image-keyboard-response",31,79831,"0.0-4.6-1.6","8b5n280nvadpxfw",75,"53.csv","","null","resources/maskTrios/L1BB.jpg","null","",NA,NA,NA,NA,""
"image-keyboard-response",32,81041,"0.0-4.6-2.6","8b5n280nvadpxfw",75,"53.csv","","null","resources/images/fishbone.png","null","",NA,NA,NA,NA,""
"image-keyboard-response",33,82909,"0.0-4.7-0.7","8b5n280nvadpxfw",75,"53.csv","","1866.5","resources/trios/L1T2A2.jpg","38","restless",0.3,0.8,0.7,0.265614773993097,"true"
"image-keyboard-response",34,83315,"0.0-4.7-1.7","8b5n280nvadpxfw",75,"53.csv","","null","resources/maskTrios/BT2B.jpg","null","",NA,NA,NA,NA,""
"image-keyboard-response",35,84524,"0.0-4.7-2.7","8b5n280nvadpxfw",75,"53.csv","","null","resources/images/coin2.png","null","",NA,NA,NA,NA,""
"image-keyboard-response",36,86571,"0.0-4.8-0.8","8b5n280nvadpxfw",75,"53.csv","","2045.9000000059605","resources/trios/L1T2A2.jpg","39","restless",0.3,0.8,0.7,0.84831688440306,"false"
"image-keyboard-response",37,86975,"0.0-4.8-1.8","8b5n280nvadpxfw",75,"53.csv","","null","resources/maskTrios/BBA2.jpg","null","",NA,NA,NA,NA,""
"image-keyboard-response",38,88182,"0.0-4.8-2.8","8b5n280nvadpxfw",75,"53.csv","","null","resources/images/fishbone.png","null","",NA,NA,NA,NA,""
"image-keyboard-response",39,92578,"0.0-4.9-0.9","8b5n280nvadpxfw",75,"53.csv","","4394","resources/trios/L1T2A2.jpg","38","restless",0.3,0.8,0.7,0.538712071844617,"true"
"image-keyboard-response",40,92986,"0.0-4.9-1.9","8b5n280nvadpxfw",75,"53.csv","","null","resources/maskTrios/BT2B.jpg","null","",NA,NA,NA,NA,""
"image-keyboard-response",41,94194,"0.0-4.9-2.9","8b5n280nvadpxfw",75,"53.csv","","null","resources/images/coin2.png","null","",NA,NA,NA,NA,""
"image-keyboard-response",42,94759,"0.0-4.10-0.10","8b5n280nvadpxfw",75,"53.csv","","562.9000000059605","resources/trios/L1T2A2.jpg","38","restless",0.3,0.8,0.7,0.124822457456263,"true"
"image-keyboard-response",43,95165,"0.0-4.10-1.10","8b5n280nvadpxfw",75,"53.csv","","null","resources/maskTrios/BT2B.jpg","null","",NA,NA,NA,NA,""
"image-keyboard-response",44,96371,"0.0-4.10-2.10","8b5n280nvadpxfw",75,"53.csv","","null","resources/images/coin2.png","null","",NA,NA,NA,NA,""
"image-keyboard-response",45,97270,"0.0-4.11-0.11","8b5n280nvadpxfw",75,"53.csv","","897.9000000059605","resources/trios/L1T2A2.jpg","37","restless",0.3,0.8,0.7,0.769821620037407,"false"
"image-keyboard-response",46,97688,"0.0-4.11-1.11","8b5n280nvadpxfw",75,"53.csv","","null","resources/maskTrios/L1BB.jpg","null","",NA,NA,NA,NA,""
"image-keyboard-response",47,98894,"0.0-4.11-2.11","8b5n280nvadpxfw",75,"53.csv","","null","resources/images/fishbone.png","null","",NA,NA,NA,NA,""
"image-keyboard-response",48,99119,"0.0-4.12-0.12","8b5n280nvadpxfw",75,"53.csv","","223.2000000178814","resources/trios/L1T2A2.jpg","38","restless",0.3,0.8,0.7,0.0192787866446371,"true"
"image-keyboard-response",49,99527,"0.0-4.12-1.12","8b5n280nvadpxfw",75,"53.csv","","null","resources/maskTrios/BT2B.jpg","null","",NA,NA,NA,NA,""
"image-keyboard-response",50,100737,"0.0-4.12-2.12","8b5n280nvadpxfw",75,"53.csv","","null","resources/images/coin2.png","null","",NA,NA,NA,NA,""
"image-keyboard-response",51,100843,"0.0-4.13-0.13","8b5n280nvadpxfw",75,"53.csv","","104.30000001192093","resources/trios/L1T2A2.jpg","38","restless",0.3,0.8,0.8,0.902992304906174,"false"
"image-keyboard-response",52,101249,"0.0-4.13-1.13","8b5n280nvadpxfw",75,"53.csv","","null","resources/maskTrios/BT2B.jpg","null","",NA,NA,NA,NA,""
"image-keyboard-response",53,102454,"0.0-4.13-2.13","8b5n280nvadpxfw",75,"53.csv","","null","resources/images/fishbone.png","null","",NA,NA,NA,NA,""
"image-keyboard-response",54,103608,"0.0-4.14-0.14","8b5n280nvadpxfw",75,"53.csv","","1151.7999999821186","resources/trios/L1T2A2.jpg","37","restless",0.3,0.7,0.8,0.820965308899028,"false"
"image-keyboard-response",55,104018,"0.0-4.14-1.14","8b5n280nvadpxfw",75,"53.csv","","null","resources/maskTrios/L1BB.jpg","null","",NA,NA,NA,NA,""
"image-keyboard-response",56,105221,"0.0-4.14-2.14","8b5n280nvadpxfw",75,"53.csv","","null","resources/images/fishbone.png","null","",NA,NA,NA,NA,""
"image-keyboard-response",57,105419,"0.0-4.15-0.15","8b5n280nvadpxfw",75,"53.csv","","196.19999998807907","resources/trios/L1T2A2.jpg","39","restless",0.3,0.7,0.9,0.633336059033362,"true"
"image-keyboard-response",58,105822,"0.0-4.15-1.15","8b5n280nvadpxfw",75,"53.csv","","null","resources/maskTrios/BBA2.jpg","null","",NA,NA,NA,NA,""
"image-keyboard-response",59,107033,"0.0-4.15-2.15","8b5n280nvadpxfw",75,"53.csv","","null","resources/images/coin2.png","null","",NA,NA,NA,NA,""
"image-keyboard-response",60,107446,"0.0-4.16-0.16","8b5n280nvadpxfw",75,"53.csv","","411","resources/trios/L1T2A2.jpg","39","restless",0.3,0.7,0.9,0.363010736719863,"true"
"image-keyboard-response",61,107856,"0.0-4.16-1.16","8b5n280nvadpxfw",75,"53.csv","","null","resources/maskTrios/BBA2.jpg","null","",NA,NA,NA,NA,""
"image-keyboard-response",62,109072,"0.0-4.16-2.16","8b5n280nvadpxfw",75,"53.csv","","null","resources/images/coin2.png","null","",NA,NA,NA,NA,""
"image-keyboard-response",63,109415,"0.0-4.17-0.17","8b5n280nvadpxfw",75,"53.csv","","341.5","resources/trios/L1T2A2.jpg","38","restless",0.3,0.7,0.9,0.845866714463205,"false"
"image-keyboard-response",64,109827,"0.0-4.17-1.17","8b5n280nvadpxfw",75,"53.csv","","null","resources/maskTrios/BT2B.jpg","null","",NA,NA,NA,NA,""
"image-keyboard-response",65,111035,"0.0-4.17-2.17","8b5n280nvadpxfw",75,"53.csv","","null","resources/images/fishbone.png","null","",NA,NA,NA,NA,""
"image-keyboard-response",66,111045,"0.0-4.18-0.18","8b5n280nvadpxfw",75,"53.csv","","7.5999999940395355","resources/trios/L1T2A2.jpg","37","restless",0.3,0.7,0.8,0.493622972191405,"false"
"image-keyboard-response",67,111454,"0.0-4.18-1.18","8b5n280nvadpxfw",75,"53.csv","","null","resources/maskTrios/L1BB.jpg","null","",NA,NA,NA,NA,""
"image-keyboard-response",68,112664,"0.0-4.18-2.18","8b5n280nvadpxfw",75,"53.csv","","null","resources/images/fishbone.png","null","",NA,NA,NA,NA,""
"image-keyboard-response",69,112680,"0.0-4.19-0.19","8b5n280nvadpxfw",75,"53.csv","","14.800000011920929","resources/trios/L1T2A2.jpg","39","restless",0.3,0.7,0.8,0.68305653493791,"true"
"image-keyboard-response",70,113097,"0.0-4.19-1.19","8b5n280nvadpxfw",75,"53.csv","","null","resources/maskTrios/BBA2.jpg","null","",NA,NA,NA,NA,""
"image-keyboard-response",71,114306,"0.0-4.19-2.19","8b5n280nvadpxfw",75,"53.csv","","null","resources/images/coin2.png","null","",NA,NA,NA,NA,""
"image-keyboard-response",72,115514,"0.0-4.20-0.20","8b5n280nvadpxfw",75,"53.csv","","1205.4000000059605","resources/trios/L1T2A2.jpg","37","restless",0.3,0.7,0.8,0.948509458799866,"false"
"image-keyboard-response",73,115924,"0.0-4.20-1.20","8b5n280nvadpxfw",75,"53.csv","","null","resources/maskTrios/L1BB.jpg","null","",NA,NA,NA,NA,""
"image-keyboard-response",74,117138,"0.0-4.20-2.20","8b5n280nvadpxfw",75,"53.csv","","null","resources/images/fishbone.png","null","",NA,NA,NA,NA,""
"image-keyboard-response",75,117231,"0.0-4.21-0.21","8b5n280nvadpxfw",75,"53.csv","","91","resources/trios/L1T2A2.jpg","39","restless",0.3,0.7,0.7,0.620239110507408,"true"
"image-keyboard-response",76,117637,"0.0-4.21-1.21","8b5n280nvadpxfw",75,"53.csv","","null","resources/maskTrios/BBA2.jpg","null","",NA,NA,NA,NA,""
"image-keyboard-response",77,118841,"0.0-4.21-2.21","8b5n280nvadpxfw",75,"53.csv","","null","resources/images/coin2.png","null","",NA,NA,NA,NA,""
"image-keyboard-response",78,119130,"0.0-4.22-0.22","8b5n280nvadpxfw",75,"53.csv","","287.30000001192093","resources/trios/L1T2A2.jpg","39","restless",0.3,0.7,0.7,0.749523733927158,"false"
"image-keyboard-response",79,119543,"0.0-4.22-1.22","8b5n280nvadpxfw",75,"53.csv","","null","resources/maskTrios/BBA2.jpg","null","",NA,NA,NA,NA,""
"image-keyboard-response",80,120752,"0.0-4.22-2.22","8b5n280nvadpxfw",75,"53.csv","","null","resources/images/fishbone.png","null","",NA,NA,NA,NA,""
"image-keyboard-response",81,121164,"0.0-4.23-0.23","8b5n280nvadpxfw",75,"53.csv","","410.40000000596046","resources/trios/L1T2A2.jpg","37","restless",0.3,0.7,0.7,0.512727119936685,"false"
"image-keyboard-response",82,121568,"0.0-4.23-1.23","8b5n280nvadpxfw",75,"53.csv","","null","resources/maskTrios/L1BB.jpg","null","",NA,NA,NA,NA,""
"image-keyboard-response",83,122775,"0.0-4.23-2.23","8b5n280nvadpxfw",75,"53.csv","","null","resources/images/fishbone.png","null","",NA,NA,NA,NA,""
"image-keyboard-response",84,122805,"0.0-4.24-0.24","8b5n280nvadpxfw",75,"53.csv","","28","resources/trios/L1T2A2.jpg","38","restless",0.3,0.7,0.7,0.0249776749355801,"true"
"image-keyboard-response",85,123213,"0.0-4.24-1.24","8b5n280nvadpxfw",75,"53.csv","","null","resources/maskTrios/BT2B.jpg","null","",NA,NA,NA,NA,""
"image-keyboard-response",86,124425,"0.0-4.24-2.24","8b5n280nvadpxfw",75,"53.csv","","null","resources/images/coin2.png","null","",NA,NA,NA,NA,""
"image-keyboard-response",87,124894,"0.0-4.25-0.25","8b5n280nvadpxfw",75,"53.csv","","466.40000000596046","resources/trios/L1T2A2.jpg","38","restless",0.4,0.7,0.7,0.636519469604801,"true"
"image-keyboard-response",88,125306,"0.0-4.25-1.25","8b5n280nvadpxfw",75,"53.csv","","null","resources/maskTrios/BT2B.jpg","null","",NA,NA,NA,NA,""
"image-keyboard-response",89,126509,"0.0-4.25-2.25","8b5n280nvadpxfw",75,"53.csv","","null","resources/images/coin2.png","null","",NA,NA,NA,NA,""
"image-keyboard-response",90,126733,"0.0-4.26-0.26","8b5n280nvadpxfw",75,"53.csv","","221.90000000596046","resources/trios/L1T2A2.jpg","38","restless",0.4,0.7,0.7,0.176330668506468,"true"
"image-keyboard-response",91,127138,"0.0-4.26-1.26","8b5n280nvadpxfw",75,"53.csv","","null","resources/maskTrios/BT2B.jpg","null","",NA,NA,NA,NA,""
"image-keyboard-response",92,128348,"0.0-4.26-2.26","8b5n280nvadpxfw",75,"53.csv","","null","resources/images/coin2.png","null","",NA,NA,NA,NA,""
"image-keyboard-response",93,128557,"0.0-4.27-0.27","8b5n280nvadpxfw",75,"53.csv","","207.59999999403954","resources/trios/L1T2A2.jpg","38","restless",0.4,0.7,0.7,0.65420497019136,"true"
"image-keyboard-response",94,128965,"0.0-4.27-1.27","8b5n280nvadpxfw",75,"53.csv","","null","resources/maskTrios/BT2B.jpg","null","",NA,NA,NA,NA,""
"image-keyboard-response",95,130174,"0.0-4.27-2.27","8b5n280nvadpxfw",75,"53.csv","","null","resources/images/coin2.png","null","",NA,NA,NA,NA,""
"image-keyboard-response",96,130391,"0.0-4.28-0.28","8b5n280nvadpxfw",75,"53.csv","","215.30000001192093","resources/trios/L1T2A2.jpg","38","restless",0.4,0.7,0.7,0.368959803209213,"true"
"image-keyboard-response",97,130799,"0.0-4.28-1.28","8b5n280nvadpxfw",75,"53.csv","","null","resources/maskTrios/BT2B.jpg","null","",NA,NA,NA,NA,""
"image-keyboard-response",98,132007,"0.0-4.28-2.28","8b5n280nvadpxfw",75,"53.csv","","null","resources/images/coin2.png","null","",NA,NA,NA,NA,""
"image-keyboard-response",99,132111,"0.0-4.29-0.29","8b5n280nvadpxfw",75,"53.csv","","102.5","resources/trios/L1T2A2.jpg","38","restless",0.4,0.7,0.8,0.999934759518974,"false"
"image-keyboard-response",100,132527,"0.0-4.29-1.29","8b5n280nvadpxfw",75,"53.csv","","null","resources/maskTrios/BT2B.jpg","null","",NA,NA,NA,NA,""
"image-keyboard-response",101,133735,"0.0-4.29-2.29","8b5n280nvadpxfw",75,"53.csv","","null","resources/images/fishbone.png","null","",NA,NA,NA,NA,""
"image-keyboard-response",102,133788,"0.0-4.30-0.30","8b5n280nvadpxfw",75,"53.csv","","51.79999998211861","resources/trios/L1T2A2.jpg","37","restless",0.4,0.7,0.8,0.395118237077495,"true"
"image-keyboard-response",103,134192,"0.0-4.30-1.30","8b5n280nvadpxfw",75,"53.csv","","null","resources/maskTrios/L1BB.jpg","null","",NA,NA,NA,NA,""
"image-keyboard-response",104,135395,"0.0-4.30-2.30","8b5n280nvadpxfw",75,"53.csv","","null","resources/images/coin2.png","null","",NA,NA,NA,NA,""
"image-keyboard-response",105,135785,"0.0-4.31-0.31","8b5n280nvadpxfw",75,"53.csv","","388","resources/trios/L1T2A2.jpg","37","restless",0.4,0.7,0.8,0.703870979397885,"false"
"image-keyboard-response",106,136193,"0.0-4.31-1.31","8b5n280nvadpxfw",75,"53.csv","","null","resources/maskTrios/L1BB.jpg","null","",NA,NA,NA,NA,""
"image-keyboard-response",107,137408,"0.0-4.31-2.31","8b5n280nvadpxfw",75,"53.csv","","null","resources/images/fishbone.png","null","",NA,NA,NA,NA,""
"image-keyboard-response",108,137433,"0.0-4.32-0.32","8b5n280nvadpxfw",75,"53.csv","","23.200000017881393","resources/trios/L1T2A2.jpg","39","restless",0.4,0.7,0.8,0.71242203049756,"true"
"image-keyboard-response",109,137838,"0.0-4.32-1.32","8b5n280nvadpxfw",75,"53.csv","","null","resources/maskTrios/BBA2.jpg","null","",NA,NA,NA,NA,""
"image-keyboard-response",110,139057,"0.0-4.32-2.32","8b5n280nvadpxfw",75,"53.csv","","null","resources/images/coin2.png","null","",NA,NA,NA,NA,""
"image-keyboard-response",111,139473,"0.0-4.33-0.33","8b5n280nvadpxfw",75,"53.csv","","414","resources/trios/L1T2A2.jpg","39","restless",0.4,0.8,0.8,0.152457959043765,"true"
"image-keyboard-response",112,139890,"0.0-4.33-1.33","8b5n280nvadpxfw",75,"53.csv","","null","resources/maskTrios/BBA2.jpg","null","",NA,NA,NA,NA,""
"image-keyboard-response",113,141094,"0.0-4.33-2.33","8b5n280nvadpxfw",75,"53.csv","","null","resources/images/coin2.png","null","",NA,NA,NA,NA,""
"image-keyboard-response",114,141207,"0.0-4.34-0.34","8b5n280nvadpxfw",75,"53.csv","","112","resources/trios/L1T2A2.jpg","39","restless",0.4,0.7,0.8,0.82775241823542,"false"
"image-keyboard-response",115,141614,"0.0-4.34-1.34","8b5n280nvadpxfw",75,"53.csv","","null","resources/maskTrios/BBA2.jpg","null","",NA,NA,NA,NA,""
"image-keyboard-response",116,142816,"0.0-4.34-2.34","8b5n280nvadpxfw",75,"53.csv","","null","resources/images/fishbone.png","null","",NA,NA,NA,NA,""
"image-keyboard-response",117,142961,"0.0-4.35-0.35","8b5n280nvadpxfw",75,"53.csv","","142.89999997615814","resources/trios/L1T2A2.jpg","37","restless",0.4,0.7,0.8,0.871821259968045,"false"
"image-keyboard-response",118,143363,"0.0-4.35-1.35","8b5n280nvadpxfw",75,"53.csv","","null","resources/maskTrios/L1BB.jpg","null","",NA,NA,NA,NA,""
"image-keyboard-response",119,144567,"0.0-4.35-2.35","8b5n280nvadpxfw",75,"53.csv","","null","resources/images/fishbone.png","null","",NA,NA,NA,NA,""
"image-keyboard-response",120,144805,"0.0-4.36-0.36","8b5n280nvadpxfw",75,"53.csv","","235.7000000178814","resources/trios/L1T2A2.jpg","38","restless",0.4,0.6,0.8,0.967067713765608,"false"
"image-keyboard-response",121,145211,"0.0-4.36-1.36","8b5n280nvadpxfw",75,"53.csv","","null","resources/maskTrios/BT2B.jpg","null","",NA,NA,NA,NA,""
"image-keyboard-response",122,146428,"0.0-4.36-2.36","8b5n280nvadpxfw",75,"53.csv","","null","resources/images/fishbone.png","null","",NA,NA,NA,NA,""
"image-keyboard-response",123,146533,"0.0-4.37-0.37","8b5n280nvadpxfw",75,"53.csv","","103.5","resources/trios/L1T2A2.jpg","39","restless",0.4,0.6,0.8,0.466557446290284,"true"
"image-keyboard-response",124,146935,"0.0-4.37-1.37","8b5n280nvadpxfw",75,"53.csv","","null","resources/maskTrios/BBA2.jpg","null","",NA,NA,NA,NA,""
"image-keyboard-response",125,148138,"0.0-4.37-2.37","8b5n280nvadpxfw",75,"53.csv","","null","resources/images/coin2.png","null","",NA,NA,NA,NA,""
"image-keyboard-response",126,148337,"0.0-4.38-0.38","8b5n280nvadpxfw",75,"53.csv","","197.5","resources/trios/L1T2A2.jpg","39","restless",0.4,0.6,0.8,0.574340234454805,"true"
"image-keyboard-response",127,148767,"0.0-4.38-1.38","8b5n280nvadpxfw",75,"53.csv","","null","resources/maskTrios/BBA2.jpg","null","",NA,NA,NA,NA,""
"image-keyboard-response",128,149971,"0.0-4.38-2.38","8b5n280nvadpxfw",75,"53.csv","","null","resources/images/coin2.png","null","",NA,NA,NA,NA,""
"image-keyboard-response",129,150180,"0.0-4.39-0.39","8b5n280nvadpxfw",75,"53.csv","","207.09999999403954","resources/trios/L1T2A2.jpg","39","restless",0.3,0.6,0.8,0.879209675960479,"false"
"image-keyboard-response",130,150593,"0.0-4.39-1.39","8b5n280nvadpxfw",75,"53.csv","","null","resources/maskTrios/BBA2.jpg","null","",NA,NA,NA,NA,""
"image-keyboard-response",131,151796,"0.0-4.39-2.39","8b5n280nvadpxfw",75,"53.csv","","null","resources/images/fishbone.png","null","",NA,NA,NA,NA,""
"image-keyboard-response",132,151995,"0.0-4.40-0.40","8b5n280nvadpxfw",75,"53.csv","","196.09999999403954","resources/trios/L1T2A2.jpg","37","restless",0.3,0.5,0.8,0.989690761438488,"false"
"image-keyboard-response",133,152401,"0.0-4.40-1.40","8b5n280nvadpxfw",75,"53.csv","","null","resources/maskTrios/L1BB.jpg","null","",NA,NA,NA,NA,""
"image-keyboard-response",134,153605,"0.0-4.40-2.40","8b5n280nvadpxfw",75,"53.csv","","null","resources/images/fishbone.png","null","",NA,NA,NA,NA,""
"image-keyboard-response",135,153830,"0.0-4.41-0.41","8b5n280nvadpxfw",75,"53.csv","","223","resources/trios/L1T2A2.jpg","38","restless",0.3,0.5,0.7,0.892934331654375,"false"
"image-keyboard-response",136,154234,"0.0-4.41-1.41","8b5n280nvadpxfw",75,"53.csv","","null","resources/maskTrios/BT2B.jpg","null","",NA,NA,NA,NA,""
"image-keyboard-response",137,155441,"0.0-4.41-2.41","8b5n280nvadpxfw",75,"53.csv","","null","resources/images/fishbone.png","null","",NA,NA,NA,NA,""
"image-keyboard-response",138,155761,"0.0-4.42-0.42","8b5n280nvadpxfw",75,"53.csv","","318","resources/trios/L1T2A2.jpg","37","restless",0.3,0.5,0.7,0.352721268685684,"false"
"image-keyboard-response",139,156164,"0.0-4.42-1.42","8b5n280nvadpxfw",75,"53.csv","","null","resources/maskTrios/L1BB.jpg","null","",NA,NA,NA,NA,""
"image-keyboard-response",140,157369,"0.0-4.42-2.42","8b5n280nvadpxfw",75,"53.csv","","null","resources/images/fishbone.png","null","",NA,NA,NA,NA,""
"image-keyboard-response",141,157600,"0.0-4.43-0.43","8b5n280nvadpxfw",75,"53.csv","","227.40000000596046","resources/trios/L1T2A2.jpg","37","restless",0.3,0.5,0.7,0.43129226631919,"false"
"image-keyboard-response",142,158008,"0.0-4.43-1.43","8b5n280nvadpxfw",75,"53.csv","","null","resources/maskTrios/L1BB.jpg","null","",NA,NA,NA,NA,""
"image-keyboard-response",143,159211,"0.0-4.43-2.43","8b5n280nvadpxfw",75,"53.csv","","null","resources/images/fishbone.png","null","",NA,NA,NA,NA,""
"image-keyboard-response",144,159437,"0.0-4.44-0.44","8b5n280nvadpxfw",75,"53.csv","","224.30000001192093","resources/trios/L1T2A2.jpg","39","restless",0.3,0.5,0.7,0.206800007913073,"true"
"image-keyboard-response",145,159847,"0.0-4.44-1.44","8b5n280nvadpxfw",75,"53.csv","","null","resources/maskTrios/BBA2.jpg","null","",NA,NA,NA,NA,""
"image-keyboard-response",146,161051,"0.0-4.44-2.44","8b5n280nvadpxfw",75,"53.csv","","null","resources/images/coin2.png","null","",NA,NA,NA,NA,""
"image-keyboard-response",147,161138,"0.0-4.45-0.45","8b5n280nvadpxfw",75,"53.csv","","84.60000002384186","resources/trios/L1T2A2.jpg","39","restless",0.3,0.5,0.7,0.582283701978463,"true"
"image-keyboard-response",148,161548,"0.0-4.45-1.45","8b5n280nvadpxfw",75,"53.csv","","null","resources/maskTrios/BBA2.jpg","null","",NA,NA,NA,NA,""
"image-keyboard-response",149,162757,"0.0-4.45-2.45","8b5n280nvadpxfw",75,"53.csv","","null","resources/images/coin2.png","null","",NA,NA,NA,NA,""
"image-keyboard-response",150,162843,"0.0-4.46-0.46","8b5n280nvadpxfw",75,"53.csv","","83.30000001192093","resources/trios/L1T2A2.jpg","39","restless",0.3,0.5,0.7,0.508917542033633,"true"
"image-keyboard-response",151,163252,"0.0-4.46-1.46","8b5n280nvadpxfw",75,"53.csv","","null","resources/maskTrios/BBA2.jpg","null","",NA,NA,NA,NA,""
"image-keyboard-response",152,164459,"0.0-4.46-2.46","8b5n280nvadpxfw",75,"53.csv","","null","resources/images/coin2.png","null","",NA,NA,NA,NA,""
"image-keyboard-response",153,165178,"0.0-4.47-0.47","8b5n280nvadpxfw",75,"53.csv","","717.9000000059605","resources/trios/L1T2A2.jpg","39","restless",0.3,0.5,0.7,0.923187937246313,"false"
"image-keyboard-response",154,165596,"0.0-4.47-1.47","8b5n280nvadpxfw",75,"53.csv","","null","resources/maskTrios/BBA2.jpg","null","",NA,NA,NA,NA,""
"image-keyboard-response",155,166807,"0.0-4.47-2.47","8b5n280nvadpxfw",75,"53.csv","","null","resources/images/fishbone.png","null","",NA,NA,NA,NA,""
"image-keyboard-response",156,166891,"0.0-4.48-0.48","8b5n280nvadpxfw",75,"53.csv","","82.2999999821186","resources/trios/L1T2A2.jpg","38","restless",0.3,0.5,0.7,0.135475537715273,"true"
"image-keyboard-response",157,167299,"0.0-4.48-1.48","8b5n280nvadpxfw",75,"53.csv","","null","resources/maskTrios/BT2B.jpg","null","",NA,NA,NA,NA,""
"image-keyboard-response",158,168506,"0.0-4.48-2.48","8b5n280nvadpxfw",75,"53.csv","","null","resources/images/coin2.png","null","",NA,NA,NA,NA,""
"image-keyboard-response",159,168712,"0.0-4.49-0.49","8b5n280nvadpxfw",75,"53.csv","","204.59999999403954","resources/trios/L1T2A2.jpg","38","restless",0.3,0.5,0.7,0.379955873442805,"true"
"image-keyboard-response",160,169128,"0.0-4.49-1.49","8b5n280nvadpxfw",75,"53.csv","","null","resources/maskTrios/BT2B.jpg","null","",NA,NA,NA,NA,""
"image-keyboard-response",161,170335,"0.0-4.49-2.49","8b5n280nvadpxfw",75,"53.csv","","null","resources/images/coin2.png","null","",NA,NA,NA,NA,""
"image-keyboard-response",162,170699,"0.0-4.50-0.50","8b5n280nvadpxfw",75,"53.csv","","361.7000000178814","resources/trios/L1T2A2.jpg","38","restless",0.3,0.4,0.7,0.329070062807258,"true"
"image-keyboard-response",163,171105,"0.0-4.50-1.50","8b5n280nvadpxfw",75,"53.csv","","null","resources/maskTrios/BT2B.jpg","null","",NA,NA,NA,NA,""
"image-keyboard-response",164,172309,"0.0-4.50-2.50","8b5n280nvadpxfw",75,"53.csv","","null","resources/images/coin2.png","null","",NA,NA,NA,NA,""
"image-keyboard-response",165,172859,"0.0-4.51-0.51","8b5n280nvadpxfw",75,"53.csv","","548.5999999940395","resources/trios/L1T2A2.jpg","38","restless",0.3,0.4,0.7,0.871069520085356,"false"
"image-keyboard-response",166,173277,"0.0-4.51-1.51","8b5n280nvadpxfw",75,"53.csv","","null","resources/maskTrios/BT2B.jpg","null","",NA,NA,NA,NA,""
"image-keyboard-response",167,174479,"0.0-4.51-2.51","8b5n280nvadpxfw",75,"53.csv","","null","resources/images/fishbone.png","null","",NA,NA,NA,NA,""
"image-keyboard-response",168,174933,"0.0-4.52-0.52","8b5n280nvadpxfw",75,"53.csv","","452.09999999403954","resources/trios/L1T2A2.jpg","37","restless",0.3,0.4,0.7,0.182829308428699,"true"
"image-keyboard-response",169,175339,"0.0-4.52-1.52","8b5n280nvadpxfw",75,"53.csv","","null","resources/maskTrios/L1BB.jpg","null","",NA,NA,NA,NA,""
"image-keyboard-response",170,176554,"0.0-4.52-2.52","8b5n280nvadpxfw",75,"53.csv","","null","resources/images/coin2.png","null","",NA,NA,NA,NA,""
"image-keyboard-response",171,176629,"0.0-4.53-0.53","8b5n280nvadpxfw",75,"53.csv","","71.2999999821186","resources/trios/L1T2A2.jpg","37","restless",0.3,0.4,0.7,0.573493784179655,"false"
"image-keyboard-response",172,177040,"0.0-4.53-1.53","8b5n280nvadpxfw",75,"53.csv","","null","resources/maskTrios/L1BB.jpg","null","",NA,NA,NA,NA,""
"image-keyboard-response",173,178246,"0.0-4.53-2.53","8b5n280nvadpxfw",75,"53.csv","","null","resources/images/fishbone.png","null","",NA,NA,NA,NA,""
"image-keyboard-response",174,178565,"0.0-4.54-0.54","8b5n280nvadpxfw",75,"53.csv","","317.30000001192093","resources/trios/L1T2A2.jpg","39","restless",0.3,0.3,0.7,0.792658572090307,"false"
"image-keyboard-response",175,178980,"0.0-4.54-1.54","8b5n280nvadpxfw",75,"53.csv","","null","resources/maskTrios/BBA2.jpg","null","",NA,NA,NA,NA,""
"image-keyboard-response",176,180187,"0.0-4.54-2.54","8b5n280nvadpxfw",75,"53.csv","","null","resources/images/fishbone.png","null","",NA,NA,NA,NA,""
"image-keyboard-response",177,180402,"0.0-4.55-0.55","8b5n280nvadpxfw",75,"53.csv","","214","resources/trios/L1T2A2.jpg","38","restless",0.3,0.3,0.7,0.5142697801769,"false"
"image-keyboard-response",178,180805,"0.0-4.55-1.55","8b5n280nvadpxfw",75,"53.csv","","null","resources/maskTrios/BT2B.jpg","null","",NA,NA,NA,NA,""
"image-keyboard-response",179,182015,"0.0-4.55-2.55","8b5n280nvadpxfw",75,"53.csv","","null","resources/images/fishbone.png","null","",NA,NA,NA,NA,""
"image-keyboard-response",180,182125,"0.0-4.56-0.56","8b5n280nvadpxfw",75,"53.csv","","108.09999999403954","resources/trios/L1T2A2.jpg","38","restless",0.3,0.3,0.7,0.346437931334037,"false"
"image-keyboard-response",181,182535,"0.0-4.56-1.56","8b5n280nvadpxfw",75,"53.csv","","null","resources/maskTrios/BT2B.jpg","null","",NA,NA,NA,NA,""
"image-keyboard-response",182,183744,"0.0-4.56-2.56","8b5n280nvadpxfw",75,"53.csv","","null","resources/images/fishbone.png","null","",NA,NA,NA,NA,""
"image-keyboard-response",183,184075,"0.0-4.57-0.57","8b5n280nvadpxfw",75,"53.csv","","329.30000001192093","resources/trios/L1T2A2.jpg","37","restless",0.4,0.3,0.7,0.237708384910799,"true"
"image-keyboard-response",184,184481,"0.0-4.57-1.57","8b5n280nvadpxfw",75,"53.csv","","null","resources/maskTrios/L1BB.jpg","null","",NA,NA,NA,NA,""
"image-keyboard-response",185,185691,"0.0-4.57-2.57","8b5n280nvadpxfw",75,"53.csv","","null","resources/images/coin2.png","null","",NA,NA,NA,NA,""
"image-keyboard-response",186,187604,"0.0-4.58-0.58","8b5n280nvadpxfw",75,"53.csv","","1910.5999999940395","resources/trios/L1T2A2.jpg","37","restless",0.4,0.3,0.7,0.891253849794392,"false"
"image-keyboard-response",187,188013,"0.0-4.58-1.58","8b5n280nvadpxfw",75,"53.csv","","null","resources/maskTrios/L1BB.jpg","null","",NA,NA,NA,NA,""
"image-keyboard-response",188,189228,"0.0-4.58-2.58","8b5n280nvadpxfw",75,"53.csv","","null","resources/images/fishbone.png","null","",NA,NA,NA,NA,""
"image-keyboard-response",189,189788,"0.0-4.59-0.59","8b5n280nvadpxfw",75,"53.csv","","557.2000000178814","resources/trios/L1T2A2.jpg","39","restless",0.4,0.3,0.7,0.823578822209125,"false"
"image-keyboard-response",190,190203,"0.0-4.59-1.59","8b5n280nvadpxfw",75,"53.csv","","null","resources/maskTrios/BBA2.jpg","null","",NA,NA,NA,NA,""
"image-keyboard-response",191,191407,"0.0-4.59-2.59","8b5n280nvadpxfw",75,"53.csv","","null","resources/images/fishbone.png","null","",NA,NA,NA,NA,""
"image-keyboard-response",192,192125,"0.0-4.60-0.60","8b5n280nvadpxfw",75,"53.csv","","716.2000000178814","resources/trios/L1T2A2.jpg","38","restless",0.4,0.3,0.7,0.688755286288784,"false"
"image-keyboard-response",193,192527,"0.0-4.60-1.60","8b5n280nvadpxfw",75,"53.csv","","null","resources/maskTrios/BT2B.jpg","null","",NA,NA,NA,NA,""
"image-keyboard-response",194,193737,"0.0-4.60-2.60","8b5n280nvadpxfw",75,"53.csv","","null","resources/images/fishbone.png","null","",NA,NA,NA,NA,""
"image-keyboard-response",195,194103,"0.0-4.61-0.61","8b5n280nvadpxfw",75,"53.csv","","361.7000000178814","resources/trios/L1T2A2.jpg","37","restless",0.4,0.3,0.7,0.647243464304499,"false"
"image-keyboard-response",196,194507,"0.0-4.61-1.61","8b5n280nvadpxfw",75,"53.csv","","null","resources/maskTrios/L1BB.jpg","null","",NA,NA,NA,NA,""
"image-keyboard-response",197,195717,"0.0-4.61-2.61","8b5n280nvadpxfw",75,"53.csv","","null","resources/images/fishbone.png","null","",NA,NA,NA,NA,""
"image-keyboard-response",198,196031,"0.0-4.62-0.62","8b5n280nvadpxfw",75,"53.csv","","312.10000002384186","resources/trios/L1T2A2.jpg","39","restless",0.4,0.4,0.7,0.458015178962425,"true"
"image-keyboard-response",199,196449,"0.0-4.62-1.62","8b5n280nvadpxfw",75,"53.csv","","null","resources/maskTrios/BBA2.jpg","null","",NA,NA,NA,NA,""
"image-keyboard-response",200,197668,"0.0-4.62-2.62","8b5n280nvadpxfw",75,"53.csv","","null","resources/images/coin2.png","null","",NA,NA,NA,NA,""
"image-keyboard-response",201,197875,"0.0-4.63-0.63","8b5n280nvadpxfw",75,"53.csv","","205.19999998807907","resources/trios/L1T2A2.jpg","39","restless",0.4,0.4,0.7,0.904762762592891,"false"
"image-keyboard-response",202,198284,"0.0-4.63-1.63","8b5n280nvadpxfw",75,"53.csv","","null","resources/maskTrios/BBA2.jpg","null","",NA,NA,NA,NA,""
"image-keyboard-response",203,199494,"0.0-4.63-2.63","8b5n280nvadpxfw",75,"53.csv","","null","resources/images/fishbone.png","null","",NA,NA,NA,NA,""
"image-keyboard-response",204,200016,"0.0-4.64-0.64","8b5n280nvadpxfw",75,"53.csv","","520.0999999940395","resources/trios/L1T2A2.jpg","38","restless",0.4,0.4,0.7,0.0159935960326143,"true"
"image-keyboard-response",205,200423,"0.0-4.64-1.64","8b5n280nvadpxfw",75,"53.csv","","null","resources/maskTrios/BT2B.jpg","null","",NA,NA,NA,NA,""
"image-keyboard-response",206,201634,"0.0-4.64-2.64","8b5n280nvadpxfw",75,"53.csv","","null","resources/images/coin2.png","null","",NA,NA,NA,NA,""
"image-keyboard-response",207,201764,"0.0-4.65-0.65","8b5n280nvadpxfw",75,"53.csv","","128.7000000178814","resources/trios/L1T2A2.jpg","38","restless",0.4,0.4,0.7,0.979463817061288,"false"
"image-keyboard-response",208,202171,"0.0-4.65-1.65","8b5n280nvadpxfw",75,"53.csv","","null","resources/maskTrios/BT2B.jpg","null","",NA,NA,NA,NA,""
"image-keyboard-response",209,203385,"0.0-4.65-2.65","8b5n280nvadpxfw",75,"53.csv","","null","resources/images/fishbone.png","null","",NA,NA,NA,NA,""
"image-keyboard-response",210,203459,"0.0-4.66-0.66","8b5n280nvadpxfw",75,"53.csv","","72.09999999403954","resources/trios/L1T2A2.jpg","37","restless",0.4,0.4,0.7,0.658841704271364,"false"
"image-keyboard-response",211,203874,"0.0-4.66-1.66","8b5n280nvadpxfw",75,"53.csv","","null","resources/maskTrios/L1BB.jpg","null","",NA,NA,NA,NA,""
"image-keyboard-response",212,205082,"0.0-4.66-2.66","8b5n280nvadpxfw",75,"53.csv","","null","resources/images/fishbone.png","null","",NA,NA,NA,NA,""
"image-keyboard-response",213,205203,"0.0-4.67-0.67","8b5n280nvadpxfw",75,"53.csv","","118.59999999403954","resources/trios/L1T2A2.jpg","38","restless",0.4,0.4,0.6,0.166278676659233,"true"
"image-keyboard-response",214,205607,"0.0-4.67-1.67","8b5n280nvadpxfw",75,"53.csv","","null","resources/maskTrios/BT2B.jpg","null","",NA,NA,NA,NA,""
"image-keyboard-response",215,206824,"0.0-4.67-2.67","8b5n280nvadpxfw",75,"53.csv","","null","resources/images/coin2.png","null","",NA,NA,NA,NA,""
"image-keyboard-response",216,207047,"0.0-4.68-0.68","8b5n280nvadpxfw",75,"53.csv","","221.2999999821186","resources/trios/L1T2A2.jpg","38","restless",0.4,0.4,0.6,0.0557337539595912,"true"
"image-keyboard-response",217,207457,"0.0-4.68-1.68","8b5n280nvadpxfw",75,"53.csv","","null","resources/maskTrios/BT2B.jpg","null","",NA,NA,NA,NA,""
"image-keyboard-response",218,208662,"0.0-4.68-2.68","8b5n280nvadpxfw",75,"53.csv","","null","resources/images/coin2.png","null","",NA,NA,NA,NA,""
"image-keyboard-response",219,208743,"0.0-4.69-0.69","8b5n280nvadpxfw",75,"53.csv","","79.2999999821186","resources/trios/L1T2A2.jpg","38","restless",0.4,0.4,0.7,0.033583657622414,"true"
"image-keyboard-response",220,209159,"0.0-4.69-1.69","8b5n280nvadpxfw",75,"53.csv","","null","resources/maskTrios/BT2B.jpg","null","",NA,NA,NA,NA,""
"image-keyboard-response",221,210364,"0.0-4.69-2.69","8b5n280nvadpxfw",75,"53.csv","","null","resources/images/coin2.png","null","",NA,NA,NA,NA,""
"image-keyboard-response",222,211035,"0.0-4.70-0.70","8b5n280nvadpxfw",75,"53.csv","","668.7000000178814","resources/trios/L1T2A2.jpg","38","restless",0.4,0.4,0.7,0.879397594233094,"false"
"image-keyboard-response",223,211447,"0.0-4.70-1.70","8b5n280nvadpxfw",75,"53.csv","","null","resources/maskTrios/BT2B.jpg","null","",NA,NA,NA,NA,""
"image-keyboard-response",224,212656,"0.0-4.70-2.70","8b5n280nvadpxfw",75,"53.csv","","null","resources/images/fishbone.png","null","",NA,NA,NA,NA,""
"image-keyboard-response",225,212834,"0.0-4.71-0.71","8b5n280nvadpxfw",75,"53.csv","","176.5","resources/trios/L1T2A2.jpg","37","restless",0.4,0.4,0.7,0.493229052248595,"false"
"image-keyboard-response",226,213247,"0.0-4.71-1.71","8b5n280nvadpxfw",75,"53.csv","","null","resources/maskTrios/L1BB.jpg","null","",NA,NA,NA,NA,""
"image-keyboard-response",227,214456,"0.0-4.71-2.71","8b5n280nvadpxfw",75,"53.csv","","null","resources/images/fishbone.png","null","",NA,NA,NA,NA,""
"image-keyboard-response",228,214743,"0.0-4.72-0.72","8b5n280nvadpxfw",75,"53.csv","","285.30000001192093","resources/trios/L1T2A2.jpg","39","restless",0.4,0.4,0.7,0.454477868736279,"true"
"image-keyboard-response",229,215152,"0.0-4.72-1.72","8b5n280nvadpxfw",75,"53.csv","","null","resources/maskTrios/BBA2.jpg","null","",NA,NA,NA,NA,""
"image-keyboard-response",230,216359,"0.0-4.72-2.72","8b5n280nvadpxfw",75,"53.csv","","null","resources/images/coin2.png","null","",NA,NA,NA,NA,""
"image-keyboard-response",231,216490,"0.0-4.73-0.73","8b5n280nvadpxfw",75,"53.csv","","129.5","resources/trios/L1T2A2.jpg","39","restless",0.4,0.3,0.6,0.120011380114614,"true"
"image-keyboard-response",232,216898,"0.0-4.73-1.73","8b5n280nvadpxfw",75,"53.csv","","null","resources/maskTrios/BBA2.jpg","null","",NA,NA,NA,NA,""
"image-keyboard-response",233,218101,"0.0-4.73-2.73","8b5n280nvadpxfw",75,"53.csv","","null","resources/images/coin2.png","null","",NA,NA,NA,NA,""
"image-keyboard-response",234,218873,"0.0-4.74-0.74","8b5n280nvadpxfw",75,"53.csv","","770.2000000178814","resources/trios/L1T2A2.jpg","39","restless",0.4,0.3,0.6,0.186432481310716,"true"
"image-keyboard-response",235,219284,"0.0-4.74-1.74","8b5n280nvadpxfw",75,"53.csv","","null","resources/maskTrios/BBA2.jpg","null","",NA,NA,NA,NA,""
"image-keyboard-response",236,220494,"0.0-4.74-2.74","8b5n280nvadpxfw",75,"53.csv","","null","resources/images/coin2.png","null","",NA,NA,NA,NA,""
"image-keyboard-response",237,220919,"0.0-4.75-0.75","8b5n280nvadpxfw",75,"53.csv","","423.59999999403954","resources/trios/L1T2A2.jpg","39","restless",0.4,0.3,0.6,0.00654120808727132,"true"
"image-keyboard-response",238,221334,"0.0-4.75-1.75","8b5n280nvadpxfw",75,"53.csv","","null","resources/maskTrios/BBA2.jpg","null","",NA,NA,NA,NA,""
"image-keyboard-response",239,222538,"0.0-4.75-2.75","8b5n280nvadpxfw",75,"53.csv","","null","resources/images/coin2.png","null","",NA,NA,NA,NA,""
"image-keyboard-response",240,222739,"0.0-4.76-0.76","8b5n280nvadpxfw",75,"53.csv","","199.60000002384186","resources/trios/L1T2A2.jpg","39","restless",0.3,0.3,0.6,0.232406525477593,"true"
"image-keyboard-response",241,223151,"0.0-4.76-1.76","8b5n280nvadpxfw",75,"53.csv","","null","resources/maskTrios/BBA2.jpg","null","",NA,NA,NA,NA,""
"image-keyboard-response",242,224354,"0.0-4.76-2.76","8b5n280nvadpxfw",75,"53.csv","","null","resources/images/coin2.png","null","",NA,NA,NA,NA,""
"image-keyboard-response",243,224823,"0.0-4.77-0.77","8b5n280nvadpxfw",75,"53.csv","","466.89999997615814","resources/trios/L1T2A2.jpg","39","restless",0.3,0.3,0.5,0.403382288528288,"true"
"image-keyboard-response",244,225232,"0.0-4.77-1.77","8b5n280nvadpxfw",75,"53.csv","","null","resources/maskTrios/BBA2.jpg","null","",NA,NA,NA,NA,""
"image-keyboard-response",245,226437,"0.0-4.77-2.77","8b5n280nvadpxfw",75,"53.csv","","null","resources/images/coin2.png","null","",NA,NA,NA,NA,""
"image-keyboard-response",246,226763,"0.0-4.78-0.78","8b5n280nvadpxfw",75,"53.csv","","324.30000001192093","resources/trios/L1T2A2.jpg","39","restless",0.3,0.3,0.4,0.417636985658802,"false"
"image-keyboard-response",247,227171,"0.0-4.78-1.78","8b5n280nvadpxfw",75,"53.csv","","null","resources/maskTrios/BBA2.jpg","null","",NA,NA,NA,NA,""
"image-keyboard-response",248,228376,"0.0-4.78-2.78","8b5n280nvadpxfw",75,"53.csv","","null","resources/images/fishbone.png","null","",NA,NA,NA,NA,""
"image-keyboard-response",249,228791,"0.0-4.79-0.79","8b5n280nvadpxfw",75,"53.csv","","412.2999999821186","resources/trios/L1T2A2.jpg","38","restless",0.3,0.3,0.4,0.835522719031581,"false"
"image-keyboard-response",250,229208,"0.0-4.79-1.79","8b5n280nvadpxfw",75,"53.csv","","null","resources/maskTrios/BT2B.jpg","null","",NA,NA,NA,NA,""
"image-keyboard-response",251,230417,"0.0-4.79-2.79","8b5n280nvadpxfw",75,"53.csv","","null","resources/images/fishbone.png","null","",NA,NA,NA,NA,""
"image-keyboard-response",252,230929,"0.0-4.80-0.80","8b5n280nvadpxfw",75,"53.csv","","510.69999998807907","resources/trios/L1T2A2.jpg","38","restless",0.3,0.4,0.4,0.706520735706086,"false"
"image-keyboard-response",253,231347,"0.0-4.80-1.80","8b5n280nvadpxfw",75,"53.csv","","null","resources/maskTrios/BT2B.jpg","null","",NA,NA,NA,NA,""
"image-keyboard-response",254,232549,"0.0-4.80-2.80","8b5n280nvadpxfw",75,"53.csv","","null","resources/images/fishbone.png","null","",NA,NA,NA,NA,""
"image-keyboard-response",255,232990,"0.0-4.81-0.81","8b5n280nvadpxfw",75,"53.csv","","439.09999999403954","resources/trios/L1T2A2.jpg","37","restless",0.3,0.4,0.4,0.703240494388145,"false"
"image-keyboard-response",256,233395,"0.0-4.81-1.81","8b5n280nvadpxfw",75,"53.csv","","null","resources/maskTrios/L1BB.jpg","null","",NA,NA,NA,NA,""
"image-keyboard-response",257,234597,"0.0-4.81-2.81","8b5n280nvadpxfw",75,"53.csv","","null","resources/images/fishbone.png","null","",NA,NA,NA,NA,""
"image-keyboard-response",258,234978,"0.0-4.82-0.82","8b5n280nvadpxfw",75,"53.csv","","380.09999999403954","resources/trios/L1T2A2.jpg","39","restless",0.4,0.4,0.4,0.63830737060977,"false"
"image-keyboard-response",259,235388,"0.0-4.82-1.82","8b5n280nvadpxfw",75,"53.csv","","null","resources/maskTrios/BBA2.jpg","null","",NA,NA,NA,NA,""
"image-keyboard-response",260,236604,"0.0-4.82-2.82","8b5n280nvadpxfw",75,"53.csv","","null","resources/images/fishbone.png","null","",NA,NA,NA,NA,""
"image-keyboard-response",261,236642,"0.0-4.83-0.83","8b5n280nvadpxfw",75,"53.csv","","36.599999994039536","resources/trios/L1T2A2.jpg","38","restless",0.5,0.4,0.4,0.573746761108492,"false"
"image-keyboard-response",262,237045,"0.0-4.83-1.83","8b5n280nvadpxfw",75,"53.csv","","null","resources/maskTrios/BT2B.jpg","null","",NA,NA,NA,NA,""
"image-keyboard-response",263,238250,"0.0-4.83-2.83","8b5n280nvadpxfw",75,"53.csv","","null","resources/images/fishbone.png","null","",NA,NA,NA,NA,""
"image-keyboard-response",264,238612,"0.0-4.84-0.84","8b5n280nvadpxfw",75,"53.csv","","360.5","resources/trios/L1T2A2.jpg","37","restless",0.5,0.4,0.4,0.596130731234109,"false"
"image-keyboard-response",265,239018,"0.0-4.84-1.84","8b5n280nvadpxfw",75,"53.csv","","null","resources/maskTrios/L1BB.jpg","null","",NA,NA,NA,NA,""
"image-keyboard-response",266,240227,"0.0-4.84-2.84","8b5n280nvadpxfw",75,"53.csv","","null","resources/images/fishbone.png","null","",NA,NA,NA,NA,""
"image-keyboard-response",267,240503,"0.0-4.85-0.85","8b5n280nvadpxfw",75,"53.csv","","275","resources/trios/L1T2A2.jpg","39","restless",0.5,0.4,0.4,0.927553555986538,"false"
"image-keyboard-response",268,240914,"0.0-4.85-1.85","8b5n280nvadpxfw",75,"53.csv","","null","resources/maskTrios/BBA2.jpg","null","",NA,NA,NA,NA,""
"image-keyboard-response",269,242116,"0.0-4.85-2.85","8b5n280nvadpxfw",75,"53.csv","","null","resources/images/fishbone.png","null","",NA,NA,NA,NA,""
"image-keyboard-response",270,242757,"0.0-4.86-0.86","8b5n280nvadpxfw",75,"53.csv","","638.5999999940395","resources/trios/L1T2A2.jpg","38","restless",0.5,0.5,0.4,0.411301284099421,"true"
"image-keyboard-response",271,243163,"0.0-4.86-1.86","8b5n280nvadpxfw",75,"53.csv","","null","resources/maskTrios/BT2B.jpg","null","",NA,NA,NA,NA,""
"image-keyboard-response",272,244365,"0.0-4.86-2.86","8b5n280nvadpxfw",75,"53.csv","","null","resources/images/coin2.png","null","",NA,NA,NA,NA,""
"image-keyboard-response",273,244552,"0.0-4.87-0.87","8b5n280nvadpxfw",75,"53.csv","","185.30000001192093","resources/trios/L1T2A2.jpg","38","restless",0.5,0.5,0.4,0.0327810886357793,"true"
"image-keyboard-response",274,244963,"0.0-4.87-1.87","8b5n280nvadpxfw",75,"53.csv","","null","resources/maskTrios/BT2B.jpg","null","",NA,NA,NA,NA,""
"image-keyboard-response",275,246166,"0.0-4.87-2.87","8b5n280nvadpxfw",75,"53.csv","","null","resources/images/coin2.png","null","",NA,NA,NA,NA,""
"image-keyboard-response",276,246773,"0.0-4.88-0.88","8b5n280nvadpxfw",75,"53.csv","","605.5999999940395","resources/trios/L1T2A2.jpg","38","restless",0.5,0.6,0.4,0.0458538184500379,"true"
"image-keyboard-response",277,247182,"0.0-4.88-1.88","8b5n280nvadpxfw",75,"53.csv","","null","resources/maskTrios/BT2B.jpg","null","",NA,NA,NA,NA,""
"image-keyboard-response",278,248392,"0.0-4.88-2.88","8b5n280nvadpxfw",75,"53.csv","","null","resources/images/coin2.png","null","",NA,NA,NA,NA,""
"image-keyboard-response",279,248455,"0.0-4.89-0.89","8b5n280nvadpxfw",75,"53.csv","","60.70000001788139","resources/trios/L1T2A2.jpg","38","restless",0.5,0.7,0.4,0.116165147978416,"true"
"image-keyboard-response",280,248873,"0.0-4.89-1.89","8b5n280nvadpxfw",75,"53.csv","","null","resources/maskTrios/BT2B.jpg","null","",NA,NA,NA,NA,""
"image-keyboard-response",281,250088,"0.0-4.89-2.89","8b5n280nvadpxfw",75,"53.csv","","null","resources/images/coin2.png","null","",NA,NA,NA,NA,""
"image-keyboard-response",282,250188,"0.0-4.90-0.90","8b5n280nvadpxfw",75,"53.csv","","98.39999997615814","resources/trios/L1T2A2.jpg","38","restless",0.5,0.7,0.4,0.430784869798771,"true"
"image-keyboard-response",283,250599,"0.0-4.90-1.90","8b5n280nvadpxfw",75,"53.csv","","null","resources/maskTrios/BT2B.jpg","null","",NA,NA,NA,NA,""
"image-keyboard-response",284,251808,"0.0-4.90-2.90","8b5n280nvadpxfw",75,"53.csv","","null","resources/images/coin2.png","null","",NA,NA,NA,NA,""
"image-keyboard-response",285,252318,"0.0-4.91-0.91","8b5n280nvadpxfw",75,"53.csv","","508.80000001192093","resources/trios/L1T2A2.jpg","38","restless",0.5,0.7,0.4,0.630362772507795,"true"
"image-keyboard-response",286,252722,"0.0-4.91-1.91","8b5n280nvadpxfw",75,"53.csv","","null","resources/maskTrios/BT2B.jpg","null","",NA,NA,NA,NA,""
"image-keyboard-response",287,253936,"0.0-4.91-2.91","8b5n280nvadpxfw",75,"53.csv","","null","resources/images/coin2.png","null","",NA,NA,NA,NA,""
"image-keyboard-response",288,254042,"0.0-4.92-0.92","8b5n280nvadpxfw",75,"53.csv","","104.7000000178814","resources/trios/L1T2A2.jpg","38","restless",0.6,0.7,0.4,0.81498434358967,"false"
"image-keyboard-response",289,254450,"0.0-4.92-1.92","8b5n280nvadpxfw",75,"53.csv","","null","resources/maskTrios/BT2B.jpg","null","",NA,NA,NA,NA,""
"image-keyboard-response",290,255656,"0.0-4.92-2.92","8b5n280nvadpxfw",75,"53.csv","","null","resources/images/fishbone.png","null","",NA,NA,NA,NA,""
"image-keyboard-response",291,256161,"0.0-4.93-0.93","8b5n280nvadpxfw",75,"53.csv","","503.19999998807907","resources/trios/L1T2A2.jpg","39","restless",0.6,0.6,0.4,0.688574416108154,"false"
"image-keyboard-response",292,256563,"0.0-4.93-1.93","8b5n280nvadpxfw",75,"53.csv","","null","resources/maskTrios/BBA2.jpg","null","",NA,NA,NA,NA,""
"image-keyboard-response",293,257772,"0.0-4.93-2.93","8b5n280nvadpxfw",75,"53.csv","","null","resources/images/fishbone.png","null","",NA,NA,NA,NA,""
"image-keyboard-response",294,257792,"0.0-4.94-0.94","8b5n280nvadpxfw",75,"53.csv","","18.900000005960464","resources/trios/L1T2A2.jpg","37","restless",0.6,0.6,0.4,0.0620219635629513,"true"
"image-keyboard-response",295,258200,"0.0-4.94-1.94","8b5n280nvadpxfw",75,"53.csv","","null","resources/maskTrios/L1BB.jpg","null","",NA,NA,NA,NA,""
"image-keyboard-response",296,259405,"0.0-4.94-2.94","8b5n280nvadpxfw",75,"53.csv","","null","resources/images/coin2.png","null","",NA,NA,NA,NA,""
"image-keyboard-response",297,259603,"0.0-4.95-0.95","8b5n280nvadpxfw",75,"53.csv","","195.7000000178814","resources/trios/L1T2A2.jpg","37","restless",0.6,0.6,0.4,0.308855754747478,"true"
"image-keyboard-response",298,260021,"0.0-4.95-1.95","8b5n280nvadpxfw",75,"53.csv","","null","resources/maskTrios/L1BB.jpg","null","",NA,NA,NA,NA,""
"image-keyboard-response",299,261236,"0.0-4.95-2.95","8b5n280nvadpxfw",75,"53.csv","","null","resources/images/coin2.png","null","",NA,NA,NA,NA,""
"image-keyboard-response",300,261270,"0.0-4.96-0.96","8b5n280nvadpxfw",75,"53.csv","","32.19999998807907","resources/trios/L1T2A2.jpg","37","restless",0.6,0.6,0.4,0.223466931973841,"true"
"image-keyboard-response",301,261687,"0.0-4.96-1.96","8b5n280nvadpxfw",75,"53.csv","","null","resources/maskTrios/L1BB.jpg","null","",NA,NA,NA,NA,""
"image-keyboard-response",302,262895,"0.0-4.96-2.96","8b5n280nvadpxfw",75,"53.csv","","null","resources/images/coin2.png","null","",NA,NA,NA,NA,""
"image-keyboard-response",303,263065,"0.0-4.97-0.97","8b5n280nvadpxfw",75,"53.csv","","168.09999999403954","resources/trios/L1T2A2.jpg","37","restless",0.6,0.6,0.4,0.479408402253747,"true"
"image-keyboard-response",304,263471,"0.0-4.97-1.97","8b5n280nvadpxfw",75,"53.csv","","null","resources/maskTrios/L1BB.jpg","null","",NA,NA,NA,NA,""
"image-keyboard-response",305,264672,"0.0-4.97-2.97","8b5n280nvadpxfw",75,"53.csv","","null","resources/images/coin2.png","null","",NA,NA,NA,NA,""
"image-keyboard-response",306,265289,"0.0-4.98-0.98","8b5n280nvadpxfw",75,"53.csv","","615.2999999821186","resources/trios/L1T2A2.jpg","37","restless",0.6,0.6,0.4,0.313890191587269,"true"
"image-keyboard-response",307,265695,"0.0-4.98-1.98","8b5n280nvadpxfw",75,"53.csv","","null","resources/maskTrios/L1BB.jpg","null","",NA,NA,NA,NA,""
"image-keyboard-response",308,266913,"0.0-4.98-2.98","8b5n280nvadpxfw",75,"53.csv","","null","resources/images/coin2.png","null","",NA,NA,NA,NA,""
"image-keyboard-response",309,267052,"0.0-4.99-0.99","8b5n280nvadpxfw",75,"53.csv","","137.5","resources/trios/L1T2A2.jpg","37","restless",0.6,0.6,0.4,0.861899035385873,"false"
"image-keyboard-response",310,267466,"0.0-4.99-1.99","8b5n280nvadpxfw",75,"53.csv","","null","resources/maskTrios/L1BB.jpg","null","",NA,NA,NA,NA,""
"image-keyboard-response",311,268677,"0.0-4.99-2.99","8b5n280nvadpxfw",75,"53.csv","","null","resources/images/fishbone.png","null","",NA,NA,NA,NA,""
"image-keyboard-response",312,268869,"0.0-4.100-0.100","8b5n280nvadpxfw",75,"53.csv","","190.19999998807907","resources/trios/L1T2A2.jpg","38","restless",0.7,0.6,0.4,0.924702778860925,"false"
"image-keyboard-response",313,269274,"0.0-4.100-1.100","8b5n280nvadpxfw",75,"53.csv","","null","resources/maskTrios/BT2B.jpg","null","",NA,NA,NA,NA,""
"image-keyboard-response",314,270492,"0.0-4.100-2.100","8b5n280nvadpxfw",75,"53.csv","","null","resources/images/fishbone.png","null","",NA,NA,NA,NA,""
"image-keyboard-response",315,270529,"0.0-4.101-0.101","8b5n280nvadpxfw",75,"53.csv","","35.099999994039536","resources/trios/L1T2A2.jpg","38","restless",0.7,0.5,0.4,0.779874490611008,"false"
"image-keyboard-response",316,270938,"0.0-4.101-1.101","8b5n280nvadpxfw",75,"53.csv","","null","resources/maskTrios/BT2B.jpg","null","",NA,NA,NA,NA,""
"image-keyboard-response",317,272148,"0.0-4.101-2.101","8b5n280nvadpxfw",75,"53.csv","","null","resources/images/fishbone.png","null","",NA,NA,NA,NA,""
"image-keyboard-response",318,272195,"0.0-4.102-0.102","8b5n280nvadpxfw",75,"53.csv","","45.400000005960464","resources/trios/L1T2A2.jpg","39","restless",0.8,0.5,0.3,0.280833312983891,"true"
"image-keyboard-response",319,272605,"0.0-4.102-1.102","8b5n280nvadpxfw",75,"53.csv","","null","resources/maskTrios/BBA2.jpg","null","",NA,NA,NA,NA,""
"image-keyboard-response",320,273809,"0.0-4.102-2.102","8b5n280nvadpxfw",75,"53.csv","","null","resources/images/coin2.png","null","",NA,NA,NA,NA,""
"image-keyboard-response",321,274050,"0.0-4.103-0.103","8b5n280nvadpxfw",75,"53.csv","","239.09999999403954","resources/trios/L1T2A2.jpg","39","restless",0.8,0.5,0.2,0.589477411739907,"false"
"image-keyboard-response",322,274458,"0.0-4.103-1.103","8b5n280nvadpxfw",75,"53.csv","","null","resources/maskTrios/BBA2.jpg","null","",NA,NA,NA,NA,""
"image-keyboard-response",323,275667,"0.0-4.103-2.103","8b5n280nvadpxfw",75,"53.csv","","null","resources/images/fishbone.png","null","",NA,NA,NA,NA,""
"image-keyboard-response",324,275698,"0.0-4.104-0.104","8b5n280nvadpxfw",75,"53.csv","","30","resources/trios/L1T2A2.jpg","37","restless",0.8,0.5,0.2,0.874859817640496,"false"
"image-keyboard-response",325,276104,"0.0-4.104-1.104","8b5n280nvadpxfw",75,"53.csv","","null","resources/maskTrios/L1BB.jpg","null","",NA,NA,NA,NA,""
"image-keyboard-response",326,277309,"0.0-4.104-2.104","8b5n280nvadpxfw",75,"53.csv","","null","resources/images/fishbone.png","null","",NA,NA,NA,NA,""
"image-keyboard-response",327,277418,"0.0-4.105-0.105","8b5n280nvadpxfw",75,"53.csv","","107.90000000596046","resources/trios/L1T2A2.jpg","38","restless",0.8,0.5,0.2,0.0695408119180347,"true"
"image-keyboard-response",328,277827,"0.0-4.105-1.105","8b5n280nvadpxfw",75,"53.csv","","null","resources/maskTrios/BT2B.jpg","null","",NA,NA,NA,NA,""
"image-keyboard-response",329,279031,"0.0-4.105-2.105","8b5n280nvadpxfw",75,"53.csv","","null","resources/images/coin2.png","null","",NA,NA,NA,NA,""
"image-keyboard-response",330,279381,"0.0-4.106-0.106","8b5n280nvadpxfw",75,"53.csv","","349.40000000596046","resources/trios/L1T2A2.jpg","38","restless",0.7,0.5,0.2,0.400528589261099,"true"
"image-keyboard-response",331,279785,"0.0-4.106-1.106","8b5n280nvadpxfw",75,"53.csv","","null","resources/maskTrios/BT2B.jpg","null","",NA,NA,NA,NA,""
"image-keyboard-response",332,280996,"0.0-4.106-2.106","8b5n280nvadpxfw",75,"53.csv","","null","resources/images/coin2.png","null","",NA,NA,NA,NA,""
"image-keyboard-response",333,281030,"0.0-4.107-0.107","8b5n280nvadpxfw",75,"53.csv","","32","resources/trios/L1T2A2.jpg","38","restless",0.7,0.5,0.2,0.934558967040583,"false"
"image-keyboard-response",334,281433,"0.0-4.107-1.107","8b5n280nvadpxfw",75,"53.csv","","null","resources/maskTrios/BT2B.jpg","null","",NA,NA,NA,NA,""
"image-keyboard-response",335,282636,"0.0-4.107-2.107","8b5n280nvadpxfw",75,"53.csv","","null","resources/images/fishbone.png","null","",NA,NA,NA,NA,""
"image-keyboard-response",336,282640,"0.0-4.108-0.108","8b5n280nvadpxfw",75,"53.csv","","1.9000000059604645","resources/trios/L1T2A2.jpg","39","restless",0.7,0.5,0.2,0.659666252922774,"false"
"image-keyboard-response",337,283044,"0.0-4.108-1.108","8b5n280nvadpxfw",75,"53.csv","","null","resources/maskTrios/BBA2.jpg","null","",NA,NA,NA,NA,""
"image-keyboard-response",338,284252,"0.0-4.108-2.108","8b5n280nvadpxfw",75,"53.csv","","null","resources/images/fishbone.png","null","",NA,NA,NA,NA,""
"image-keyboard-response",339,284526,"0.0-4.109-0.109","8b5n280nvadpxfw",75,"53.csv","","272.39999997615814","resources/trios/L1T2A2.jpg","37","restless",0.6,0.5,0.3,0.724832790112309,"false"
"image-keyboard-response",340,284935,"0.0-4.109-1.109","8b5n280nvadpxfw",75,"53.csv","","null","resources/maskTrios/L1BB.jpg","null","",NA,NA,NA,NA,""
"image-keyboard-response",341,286144,"0.0-4.109-2.109","8b5n280nvadpxfw",75,"53.csv","","null","resources/images/fishbone.png","null","",NA,NA,NA,NA,""
"image-keyboard-response",342,286307,"0.0-4.110-0.110","8b5n280nvadpxfw",75,"53.csv","","161.2999999821186","resources/trios/L1T2A2.jpg","38","restless",0.6,0.5,0.3,0.176613992083722,"true"
"image-keyboard-response",343,286717,"0.0-4.110-1.110","8b5n280nvadpxfw",75,"53.csv","","null","resources/maskTrios/BT2B.jpg","null","",NA,NA,NA,NA,""
"image-keyboard-response",344,287925,"0.0-4.110-2.110","8b5n280nvadpxfw",75,"53.csv","","null","resources/images/coin2.png","null","",NA,NA,NA,NA,""
"image-keyboard-response",345,287937,"0.0-4.111-0.111","8b5n280nvadpxfw",75,"53.csv","","10.400000005960464","resources/trios/L1T2A2.jpg","38","restless",0.6,0.5,0.3,0.0994263199145256,"true"
"image-keyboard-response",346,288353,"0.0-4.111-1.111","8b5n280nvadpxfw",75,"53.csv","","null","resources/maskTrios/BT2B.jpg","null","",NA,NA,NA,NA,""
"image-keyboard-response",347,289562,"0.0-4.111-2.111","8b5n280nvadpxfw",75,"53.csv","","null","resources/images/coin2.png","null","",NA,NA,NA,NA,""
"image-keyboard-response",348,291118,"0.0-4.112-0.112","8b5n280nvadpxfw",75,"53.csv","","1554.0999999940395","resources/trios/L1T2A2.jpg","38","restless",0.6,0.5,0.3,0.601871579626716,"false"
"image-keyboard-response",349,291528,"0.0-4.112-1.112","8b5n280nvadpxfw",75,"53.csv","","null","resources/maskTrios/BT2B.jpg","null","",NA,NA,NA,NA,""
"image-keyboard-response",350,292732,"0.0-4.112-2.112","8b5n280nvadpxfw",75,"53.csv","","null","resources/images/fishbone.png","null","",NA,NA,NA,NA,""
"image-keyboard-response",351,292854,"0.0-4.113-0.113","8b5n280nvadpxfw",75,"53.csv","","119.69999998807907","resources/trios/L1T2A2.jpg","39","restless",0.6,0.5,0.3,0.261097774521917,"true"
"image-keyboard-response",352,293263,"0.0-4.113-1.113","8b5n280nvadpxfw",75,"53.csv","","null","resources/maskTrios/BBA2.jpg","null","",NA,NA,NA,NA,""
"image-keyboard-response",353,294471,"0.0-4.113-2.113","8b5n280nvadpxfw",75,"53.csv","","null","resources/images/coin2.png","null","",NA,NA,NA,NA,""
"image-keyboard-response",354,295036,"0.0-4.114-0.114","8b5n280nvadpxfw",75,"53.csv","","563.1999999880791","resources/trios/L1T2A2.jpg","39","restless",0.6,0.5,0.3,0.0935078052591294,"true"
"image-keyboard-response",355,295443,"0.0-4.114-1.114","8b5n280nvadpxfw",75,"53.csv","","null","resources/maskTrios/BBA2.jpg","null","",NA,NA,NA,NA,""
"image-keyboard-response",356,296658,"0.0-4.114-2.114","8b5n280nvadpxfw",75,"53.csv","","null","resources/images/coin2.png","null","",NA,NA,NA,NA,""
"image-keyboard-response",357,296895,"0.0-4.115-0.115","8b5n280nvadpxfw",75,"53.csv","","235.09999999403954","resources/trios/L1T2A2.jpg","39","restless",0.6,0.5,0.3,0.368864343780774,"false"
"image-keyboard-response",358,297298,"0.0-4.115-1.115","8b5n280nvadpxfw",75,"53.csv","","null","resources/maskTrios/BBA2.jpg","null","",NA,NA,NA,NA,""
"image-keyboard-response",359,298515,"0.0-4.115-2.115","8b5n280nvadpxfw",75,"53.csv","","null","resources/images/fishbone.png","null","",NA,NA,NA,NA,""
"image-keyboard-response",360,298664,"0.0-4.116-0.116","8b5n280nvadpxfw",75,"53.csv","","147.90000000596046","resources/trios/L1T2A2.jpg","38","restless",0.6,0.5,0.3,0.69821449173946,"false"
"image-keyboard-response",361,299074,"0.0-4.116-1.116","8b5n280nvadpxfw",75,"53.csv","","null","resources/maskTrios/BT2B.jpg","null","",NA,NA,NA,NA,""
"image-keyboard-response",362,300280,"0.0-4.116-2.116","8b5n280nvadpxfw",75,"53.csv","","null","resources/images/fishbone.png","null","",NA,NA,NA,NA,""
"image-keyboard-response",363,301161,"0.0-4.117-0.117","8b5n280nvadpxfw",75,"53.csv","","879.2999999821186","resources/trios/L1T2A2.jpg","37","restless",0.6,0.5,0.3,0.569796802272023,"true"
"image-keyboard-response",364,301577,"0.0-4.117-1.117","8b5n280nvadpxfw",75,"53.csv","","null","resources/maskTrios/L1BB.jpg","null","",NA,NA,NA,NA,""
"image-keyboard-response",365,302780,"0.0-4.117-2.117","8b5n280nvadpxfw",75,"53.csv","","null","resources/images/coin2.png","null","",NA,NA,NA,NA,""
"image-keyboard-response",366,302997,"0.0-4.118-0.118","8b5n280nvadpxfw",75,"53.csv","","215.19999998807907","resources/trios/L1T2A2.jpg","37","restless",0.6,0.5,0.3,0.0856512538386414,"true"
"image-keyboard-response",367,303407,"0.0-4.118-1.118","8b5n280nvadpxfw",75,"53.csv","","null","resources/maskTrios/L1BB.jpg","null","",NA,NA,NA,NA,""
"image-keyboard-response",368,304618,"0.0-4.118-2.118","8b5n280nvadpxfw",75,"53.csv","","null","resources/images/coin2.png","null","",NA,NA,NA,NA,""
"image-keyboard-response",369,304763,"0.0-4.119-0.119","8b5n280nvadpxfw",75,"53.csv","","142.30000001192093","resources/trios/L1T2A2.jpg","37","restless",0.6,0.5,0.3,0.514595592343356,"true"
"image-keyboard-response",370,305168,"0.0-4.119-1.119","8b5n280nvadpxfw",75,"53.csv","","null","resources/maskTrios/L1BB.jpg","null","",NA,NA,NA,NA,""
"image-keyboard-response",371,306374,"0.0-4.119-2.119","8b5n280nvadpxfw",75,"53.csv","","null","resources/images/coin2.png","null","",NA,NA,NA,NA,""
"image-keyboard-response",372,306508,"0.0-4.120-0.120","8b5n280nvadpxfw",75,"53.csv","","132.5","resources/trios/L1T2A2.jpg","37","restless",0.6,0.5,0.3,0.422383872804601,"true"
"image-keyboard-response",373,306913,"0.0-4.120-1.120","8b5n280nvadpxfw",75,"53.csv","","null","resources/maskTrios/L1BB.jpg","null","",NA,NA,NA,NA,""
"image-keyboard-response",374,308116,"0.0-4.120-2.120","8b5n280nvadpxfw",75,"53.csv","","null","resources/images/coin2.png","null","",NA,NA,NA,NA,""
"image-keyboard-response",375,308781,"0.0-4.121-0.121","8b5n280nvadpxfw",75,"53.csv","","663.3999999761581","resources/trios/L1T2A2.jpg","37","restless",0.6,0.5,0.3,0.402423857338535,"true"
"image-keyboard-response",376,309184,"0.0-4.121-1.121","8b5n280nvadpxfw",75,"53.csv","","null","resources/maskTrios/L1BB.jpg","null","",NA,NA,NA,NA,""
"image-keyboard-response",377,310388,"0.0-4.121-2.121","8b5n280nvadpxfw",75,"53.csv","","null","resources/images/coin2.png","null","",NA,NA,NA,NA,""
"image-keyboard-response",378,311178,"0.0-4.122-0.122","8b5n280nvadpxfw",75,"53.csv","","788.4000000059605","resources/trios/L1T2A2.jpg","37","restless",0.6,0.5,0.3,0.38638989100859,"true"
"image-keyboard-response",379,311588,"0.0-4.122-1.122","8b5n280nvadpxfw",75,"53.csv","","null","resources/maskTrios/L1BB.jpg","null","",NA,NA,NA,NA,""
"image-keyboard-response",380,312797,"0.0-4.122-2.122","8b5n280nvadpxfw",75,"53.csv","","null","resources/images/coin2.png","null","",NA,NA,NA,NA,""
"image-keyboard-response",381,313346,"0.0-4.123-0.123","8b5n280nvadpxfw",75,"53.csv","","547.5999999940395","resources/trios/L1T2A2.jpg","37","restless",0.6,0.5,0.3,0.103375344571646,"true"
"image-keyboard-response",382,313756,"0.0-4.123-1.123","8b5n280nvadpxfw",75,"53.csv","","null","resources/maskTrios/L1BB.jpg","null","",NA,NA,NA,NA,""
"image-keyboard-response",383,314958,"0.0-4.123-2.123","8b5n280nvadpxfw",75,"53.csv","","null","resources/images/coin2.png","null","",NA,NA,NA,NA,""
"image-keyboard-response",384,315167,"0.0-4.124-0.124","8b5n280nvadpxfw",75,"53.csv","","206.30000001192093","resources/trios/L1T2A2.jpg","37","restless",0.6,0.5,0.3,0.742022867485647,"false"
"image-keyboard-response",385,315570,"0.0-4.124-1.124","8b5n280nvadpxfw",75,"53.csv","","null","resources/maskTrios/L1BB.jpg","null","",NA,NA,NA,NA,""
"image-keyboard-response",386,316779,"0.0-4.124-2.124","8b5n280nvadpxfw",75,"53.csv","","null","resources/images/fishbone.png","null","",NA,NA,NA,NA,""
"image-keyboard-response",387,316961,"0.0-4.125-0.125","8b5n280nvadpxfw",75,"53.csv","","180","resources/trios/L1T2A2.jpg","38","restless",0.6,0.5,0.2,0.198128847555128,"true"
"image-keyboard-response",388,317367,"0.0-4.125-1.125","8b5n280nvadpxfw",75,"53.csv","","null","resources/maskTrios/BT2B.jpg","null","",NA,NA,NA,NA,""
"image-keyboard-response",389,318572,"0.0-4.125-2.125","8b5n280nvadpxfw",75,"53.csv","","null","resources/images/coin2.png","null","",NA,NA,NA,NA,""
"image-keyboard-response",390,318712,"0.0-4.126-0.126","8b5n280nvadpxfw",75,"53.csv","","137.90000000596046","resources/trios/L1T2A2.jpg","38","restless",0.6,0.5,0.2,0.879213545087067,"false"
"image-keyboard-response",391,319117,"0.0-4.126-1.126","8b5n280nvadpxfw",75,"53.csv","","null","resources/maskTrios/BT2B.jpg","null","",NA,NA,NA,NA,""
"image-keyboard-response",392,320329,"0.0-4.126-2.126","8b5n280nvadpxfw",75,"53.csv","","null","resources/images/fishbone.png","null","",NA,NA,NA,NA,""
"image-keyboard-response",393,320405,"0.0-4.127-0.127","8b5n280nvadpxfw",75,"53.csv","","72.80000001192093","resources/trios/L1T2A2.jpg","39","restless",0.6,0.5,0.2,0.124233207329004,"true"
"image-keyboard-response",394,320810,"0.0-4.127-1.127","8b5n280nvadpxfw",75,"53.csv","","null","resources/maskTrios/BBA2.jpg","null","",NA,NA,NA,NA,""
"image-keyboard-response",395,322021,"0.0-4.127-2.127","8b5n280nvadpxfw",75,"53.csv","","null","resources/images/coin2.png","null","",NA,NA,NA,NA,""
"image-keyboard-response",396,322129,"0.0-4.128-0.128","8b5n280nvadpxfw",75,"53.csv","","105.7999999821186","resources/trios/L1T2A2.jpg","39","restless",0.6,0.5,0.2,0.272368915170506,"false"
"image-keyboard-response",397,322533,"0.0-4.128-1.128","8b5n280nvadpxfw",75,"53.csv","","null","resources/maskTrios/BBA2.jpg","null","",NA,NA,NA,NA,""
"image-keyboard-response",398,323742,"0.0-4.128-2.128","8b5n280nvadpxfw",75,"53.csv","","null","resources/images/fishbone.png","null","",NA,NA,NA,NA,""
"image-keyboard-response",399,323946,"0.0-4.129-0.129","8b5n280nvadpxfw",75,"53.csv","","202.59999999403954","resources/trios/L1T2A2.jpg","38","restless",0.6,0.5,0.2,0.00263444135162572,"true"
"image-keyboard-response",400,324362,"0.0-4.129-1.129","8b5n280nvadpxfw",75,"53.csv","","null","resources/maskTrios/BT2B.jpg","null","",NA,NA,NA,NA,""
"image-keyboard-response",401,325575,"0.0-4.129-2.129","8b5n280nvadpxfw",75,"53.csv","","null","resources/images/coin2.png","null","",NA,NA,NA,NA,""
"image-keyboard-response",402,325788,"0.0-4.130-0.130","8b5n280nvadpxfw",75,"53.csv","","211.2000000178814","resources/trios/L1T2A2.jpg","37","restless",0.5,0.5,0.2,0.323989654724028,"true"
"image-keyboard-response",403,326196,"0.0-4.130-1.130","8b5n280nvadpxfw",75,"53.csv","","null","resources/maskTrios/L1BB.jpg","null","",NA,NA,NA,NA,""
"image-keyboard-response",404,327407,"0.0-4.130-2.130","8b5n280nvadpxfw",75,"53.csv","","null","resources/images/coin2.png","null","",NA,NA,NA,NA,""
"image-keyboard-response",405,327723,"0.0-4.131-0.131","8b5n280nvadpxfw",75,"53.csv","","314","resources/trios/L1T2A2.jpg","39","restless",0.5,0.5,0.2,0.793708326876555,"false"
"image-keyboard-response",406,328130,"0.0-4.131-1.131","8b5n280nvadpxfw",75,"53.csv","","null","resources/maskTrios/BBA2.jpg","null","",NA,NA,NA,NA,""
"image-keyboard-response",407,329340,"0.0-4.131-2.131","8b5n280nvadpxfw",75,"53.csv","","null","resources/images/fishbone.png","null","",NA,NA,NA,NA,""
"image-keyboard-response",408,329719,"0.0-4.132-0.132","8b5n280nvadpxfw",75,"53.csv","","375.69999998807907","resources/trios/L1T2A2.jpg","38","restless",0.5,0.5,0.2,0.423287522711784,"true"
"image-keyboard-response",409,330125,"0.0-4.132-1.132","8b5n280nvadpxfw",75,"53.csv","","null","resources/maskTrios/BT2B.jpg","null","",NA,NA,NA,NA,""
"image-keyboard-response",410,331333,"0.0-4.132-2.132","8b5n280nvadpxfw",75,"53.csv","","null","resources/images/coin2.png","null","",NA,NA,NA,NA,""
"image-keyboard-response",411,331698,"0.0-4.133-0.133","8b5n280nvadpxfw",75,"53.csv","","362.7999999821186","resources/trios/L1T2A2.jpg","38","restless",0.5,0.5,0.2,0.586983558226601,"false"
"image-keyboard-response",412,332107,"0.0-4.133-1.133","8b5n280nvadpxfw",75,"53.csv","","null","resources/maskTrios/BT2B.jpg","null","",NA,NA,NA,NA,""
"image-keyboard-response",413,333308,"0.0-4.133-2.133","8b5n280nvadpxfw",75,"53.csv","","null","resources/images/fishbone.png","null","",NA,NA,NA,NA,""
"image-keyboard-response",414,333329,"0.0-4.134-0.134","8b5n280nvadpxfw",75,"53.csv","","18.799999982118607","resources/trios/L1T2A2.jpg","37","restless",0.5,0.5,0.2,0.813566288332966,"false"
"image-keyboard-response",415,333739,"0.0-4.134-1.134","8b5n280nvadpxfw",75,"53.csv","","null","resources/maskTrios/L1BB.jpg","null","",NA,NA,NA,NA,""
"image-keyboard-response",416,334940,"0.0-4.134-2.134","8b5n280nvadpxfw",75,"53.csv","","null","resources/images/fishbone.png","null","",NA,NA,NA,NA,""
"image-keyboard-response",417,334985,"0.0-4.135-0.135","8b5n280nvadpxfw",75,"53.csv","","42.599999994039536","resources/trios/L1T2A2.jpg","39","restless",0.5,0.5,0.2,0.871573860996604,"false"
"image-keyboard-response",418,335393,"0.0-4.135-1.135","8b5n280nvadpxfw",75,"53.csv","","null","resources/maskTrios/BBA2.jpg","null","",NA,NA,NA,NA,""
"image-keyboard-response",419,336600,"0.0-4.135-2.135","8b5n280nvadpxfw",75,"53.csv","","null","resources/images/fishbone.png","null","",NA,NA,NA,NA,""
"image-keyboard-response",420,337144,"0.0-4.136-0.136","8b5n280nvadpxfw",75,"53.csv","","542.3000000119209","resources/trios/L1T2A2.jpg","38","restless",0.5,0.5,0.2,0.0733736360611528,"true"
"image-keyboard-response",421,337551,"0.0-4.136-1.136","8b5n280nvadpxfw",75,"53.csv","","null","resources/maskTrios/BT2B.jpg","null","",NA,NA,NA,NA,""
"image-keyboard-response",422,338758,"0.0-4.136-2.136","8b5n280nvadpxfw",75,"53.csv","","null","resources/images/coin2.png","null","",NA,NA,NA,NA,""
"image-keyboard-response",423,338880,"0.0-4.137-0.137","8b5n280nvadpxfw",75,"53.csv","","119.59999999403954","resources/trios/L1T2A2.jpg","38","restless",0.5,0.5,0.2,0.367053533286548,"true"
"image-keyboard-response",424,339286,"0.0-4.137-1.137","8b5n280nvadpxfw",75,"53.csv","","null","resources/maskTrios/BT2B.jpg","null","",NA,NA,NA,NA,""
"image-keyboard-response",425,340490,"0.0-4.137-2.137","8b5n280nvadpxfw",75,"53.csv","","null","resources/images/coin2.png","null","",NA,NA,NA,NA,""
"image-keyboard-response",426,340802,"0.0-4.138-0.138","8b5n280nvadpxfw",75,"53.csv","","310.30000001192093","resources/trios/L1T2A2.jpg","38","restless",0.5,0.5,0.3,0.721561572628904,"false"
"image-keyboard-response",427,341208,"0.0-4.138-1.138","8b5n280nvadpxfw",75,"53.csv","","null","resources/maskTrios/BT2B.jpg","null","",NA,NA,NA,NA,""
"image-keyboard-response",428,342414,"0.0-4.138-2.138","8b5n280nvadpxfw",75,"53.csv","","null","resources/images/fishbone.png","null","",NA,NA,NA,NA,""
"image-keyboard-response",429,342778,"0.0-4.139-0.139","8b5n280nvadpxfw",75,"53.csv","","362.19999998807907","resources/trios/L1T2A2.jpg","37","restless",0.5,0.5,0.3,0.749151934597377,"false"
"image-keyboard-response",430,343193,"0.0-4.139-1.139","8b5n280nvadpxfw",75,"53.csv","","null","resources/maskTrios/L1BB.jpg","null","",NA,NA,NA,NA,""
"image-keyboard-response",431,344402,"0.0-4.139-2.139","8b5n280nvadpxfw",75,"53.csv","","null","resources/images/fishbone.png","null","",NA,NA,NA,NA,""
"image-keyboard-response",432,344892,"0.0-4.140-0.140","8b5n280nvadpxfw",75,"53.csv","","488","resources/trios/L1T2A2.jpg","39","restless",0.5,0.5,0.3,0.277116853696982,"true"
"image-keyboard-response",433,345301,"0.0-4.140-1.140","8b5n280nvadpxfw",75,"53.csv","","null","resources/maskTrios/BBA2.jpg","null","",NA,NA,NA,NA,""
"image-keyboard-response",434,346518,"0.0-4.140-2.140","8b5n280nvadpxfw",75,"53.csv","","null","resources/images/coin2.png","null","",NA,NA,NA,NA,""
"image-keyboard-response",435,346710,"0.0-4.141-0.141","8b5n280nvadpxfw",75,"53.csv","","189.89999997615814","resources/trios/L1T2A2.jpg","39","restless",0.5,0.5,0.3,0.471270131928622,"false"
"image-keyboard-response",436,347116,"0.0-4.141-1.141","8b5n280nvadpxfw",75,"53.csv","","null","resources/maskTrios/BBA2.jpg","null","",NA,NA,NA,NA,""
"image-keyboard-response",437,348322,"0.0-4.141-2.141","8b5n280nvadpxfw",75,"53.csv","","null","resources/images/fishbone.png","null","",NA,NA,NA,NA,""
"image-keyboard-response",438,348938,"0.0-4.142-0.142","8b5n280nvadpxfw",75,"53.csv","","614.5","resources/trios/L1T2A2.jpg","37","restless",0.5,0.5,0.3,0.954834944561792,"false"
"image-keyboard-response",439,349352,"0.0-4.142-1.142","8b5n280nvadpxfw",75,"53.csv","","null","resources/maskTrios/L1BB.jpg","null","",NA,NA,NA,NA,""
"image-keyboard-response",440,350561,"0.0-4.142-2.142","8b5n280nvadpxfw",75,"53.csv","","null","resources/images/fishbone.png","null","",NA,NA,NA,NA,""
"image-keyboard-response",441,350768,"0.0-4.143-0.143","8b5n280nvadpxfw",75,"53.csv","","205.19999998807907","resources/trios/L1T2A2.jpg","39","restless",0.5,0.5,0.3,0.913817968376223,"false"
"image-keyboard-response",442,351178,"0.0-4.143-1.143","8b5n280nvadpxfw",75,"53.csv","","null","resources/maskTrios/BBA2.jpg","null","",NA,NA,NA,NA,""
"image-keyboard-response",443,352386,"0.0-4.143-2.143","8b5n280nvadpxfw",75,"53.csv","","null","resources/images/fishbone.png","null","",NA,NA,NA,NA,""
"image-keyboard-response",444,352826,"0.0-4.144-0.144","8b5n280nvadpxfw",75,"53.csv","","438.40000000596046","resources/trios/L1T2A2.jpg","38","restless",0.5,0.5,0.3,0.33129110032343,"true"
"image-keyboard-response",445,353233,"0.0-4.144-1.144","8b5n280nvadpxfw",75,"53.csv","","null","resources/maskTrios/BT2B.jpg","null","",NA,NA,NA,NA,""
"image-keyboard-response",446,354443,"0.0-4.144-2.144","8b5n280nvadpxfw",75,"53.csv","","null","resources/images/coin2.png","null","",NA,NA,NA,NA,""
"image-keyboard-response",447,354462,"0.0-4.145-0.145","8b5n280nvadpxfw",75,"53.csv","","16.80000001192093","resources/trios/L1T2A2.jpg","38","restless",0.6,0.5,0.3,0.680194294083429,"false"
"image-keyboard-response",448,354864,"0.0-4.145-1.145","8b5n280nvadpxfw",75,"53.csv","","null","resources/maskTrios/BT2B.jpg","null","",NA,NA,NA,NA,""
"image-keyboard-response",449,356071,"0.0-4.145-2.145","8b5n280nvadpxfw",75,"53.csv","","null","resources/images/fishbone.png","null","",NA,NA,NA,NA,""
"image-keyboard-response",450,356100,"0.0-4.146-0.146","8b5n280nvadpxfw",75,"53.csv","","26.799999982118607","resources/trios/L1T2A2.jpg","39","restless",0.6,0.5,0.3,0.815778399799561,"false"
"image-keyboard-response",451,356503,"0.0-4.146-1.146","8b5n280nvadpxfw",75,"53.csv","","null","resources/maskTrios/BBA2.jpg","null","",NA,NA,NA,NA,""
"image-keyboard-response",452,357708,"0.0-4.146-2.146","8b5n280nvadpxfw",75,"53.csv","","null","resources/images/fishbone.png","null","",NA,NA,NA,NA,""
"image-keyboard-response",453,357714,"0.0-4.147-0.147","8b5n280nvadpxfw",75,"53.csv","","4.300000011920929","resources/trios/L1T2A2.jpg","37","restless",0.6,0.5,0.3,0.920471529509625,"false"
"image-keyboard-response",454,358131,"0.0-4.147-1.147","8b5n280nvadpxfw",75,"53.csv","","null","resources/maskTrios/L1BB.jpg","null","",NA,NA,NA,NA,""
"image-keyboard-response",455,359339,"0.0-4.147-2.147","8b5n280nvadpxfw",75,"53.csv","","null","resources/images/fishbone.png","null","",NA,NA,NA,NA,""
"image-keyboard-response",456,359789,"0.0-4.148-0.148","8b5n280nvadpxfw",75,"53.csv","","447.2999999821186","resources/trios/L1T2A2.jpg","38","restless",0.6,0.5,0.3,0.881287419021789,"false"
"image-keyboard-response",457,360196,"0.0-4.148-1.148","8b5n280nvadpxfw",75,"53.csv","","null","resources/maskTrios/BT2B.jpg","null","",NA,NA,NA,NA,""
"image-keyboard-response",458,361401,"0.0-4.148-2.148","8b5n280nvadpxfw",75,"53.csv","","null","resources/images/fishbone.png","null","",NA,NA,NA,NA,""
"image-keyboard-response",459,361617,"0.0-4.149-0.149","8b5n280nvadpxfw",75,"53.csv","","213.90000000596046","resources/trios/L1T2A2.jpg","39","restless",0.6,0.6,0.3,0.186617989542857,"true"
"image-keyboard-response",460,362028,"0.0-4.149-1.149","8b5n280nvadpxfw",75,"53.csv","","null","resources/maskTrios/BBA2.jpg","null","",NA,NA,NA,NA,""
"image-keyboard-response",461,363234,"0.0-4.149-2.149","8b5n280nvadpxfw",75,"53.csv","","null","resources/images/coin2.png","null","",NA,NA,NA,NA,""
"image-keyboard-response",462,363474,"0.0-4.150-0.150","8b5n280nvadpxfw",75,"53.csv","","238.5","resources/trios/L1T2A2.jpg","39","restless",0.6,0.6,0.3,0.342783915262989,"false"
"image-keyboard-response",463,363891,"0.0-4.150-1.150","8b5n280nvadpxfw",75,"53.csv","","null","resources/maskTrios/BBA2.jpg","null","",NA,NA,NA,NA,""
"image-keyboard-response",464,365100,"0.0-4.150-2.150","8b5n280nvadpxfw",75,"53.csv","","null","resources/images/fishbone.png","null","",NA,NA,NA,NA,""
"image-keyboard-response",465,365282,"0.0-4.151-0.151","8b5n280nvadpxfw",75,"53.csv","","180.40000000596046","resources/trios/L1T2A2.jpg","38","restless",0.6,0.6,0.3,0.072510817161491,"true"
"image-keyboard-response",466,365688,"0.0-4.151-1.151","8b5n280nvadpxfw",75,"53.csv","","null","resources/maskTrios/BT2B.jpg","null","",NA,NA,NA,NA,""
"image-keyboard-response",467,366892,"0.0-4.151-2.151","8b5n280nvadpxfw",75,"53.csv","","null","resources/images/coin2.png","null","",NA,NA,NA,NA,""
"image-keyboard-response",468,367134,"0.0-4.152-0.152","8b5n280nvadpxfw",75,"53.csv","","240","resources/trios/L1T2A2.jpg","38","restless",0.6,0.6,0.3,0.153047398218817,"true"
"image-keyboard-response",469,367538,"0.0-4.152-1.152","8b5n280nvadpxfw",75,"53.csv","","null","resources/maskTrios/BT2B.jpg","null","",NA,NA,NA,NA,""
"image-keyboard-response",470,368750,"0.0-4.152-2.152","8b5n280nvadpxfw",75,"53.csv","","null","resources/images/coin2.png","null","",NA,NA,NA,NA,""
"image-keyboard-response",471,368922,"0.0-4.153-0.153","8b5n280nvadpxfw",75,"53.csv","","169.80000001192093","resources/trios/L1T2A2.jpg","38","restless",0.6,0.5,0.3,0.74972941547417,"false"
"image-keyboard-response",472,369334,"0.0-4.153-1.153","8b5n280nvadpxfw",75,"53.csv","","null","resources/maskTrios/BT2B.jpg","null","",NA,NA,NA,NA,""
"image-keyboard-response",473,370542,"0.0-4.153-2.153","8b5n280nvadpxfw",75,"53.csv","","null","resources/images/fishbone.png","null","",NA,NA,NA,NA,""
"image-keyboard-response",474,370893,"0.0-4.154-0.154","8b5n280nvadpxfw",75,"53.csv","","349.2000000178814","resources/trios/L1T2A2.jpg","37","restless",0.6,0.5,0.3,0.330338217484154,"true"
"image-keyboard-response",475,371308,"0.0-4.154-1.154","8b5n280nvadpxfw",75,"53.csv","","null","resources/maskTrios/L1BB.jpg","null","",NA,NA,NA,NA,""
"image-keyboard-response",476,372512,"0.0-4.154-2.154","8b5n280nvadpxfw",75,"53.csv","","null","resources/images/coin2.png","null","",NA,NA,NA,NA,""
"image-keyboard-response",477,372649,"0.0-4.155-0.155","8b5n280nvadpxfw",75,"53.csv","","134.30000001192093","resources/trios/L1T2A2.jpg","39","restless",0.6,0.5,0.3,0.614277691728485,"false"
"image-keyboard-response",478,373052,"0.0-4.155-1.155","8b5n280nvadpxfw",75,"53.csv","","null","resources/maskTrios/BBA2.jpg","null","",NA,NA,NA,NA,""
"image-keyboard-response",479,374261,"0.0-4.155-2.155","8b5n280nvadpxfw",75,"53.csv","","null","resources/images/fishbone.png","null","",NA,NA,NA,NA,""
"image-keyboard-response",480,374360,"0.0-4.156-0.156","8b5n280nvadpxfw",75,"53.csv","","99","resources/trios/L1T2A2.jpg","38","restless",0.7,0.5,0.3,0.926537465626585,"false"
"image-keyboard-response",481,374769,"0.0-4.156-1.156","8b5n280nvadpxfw",75,"53.csv","","null","resources/maskTrios/BT2B.jpg","null","",NA,NA,NA,NA,""
"image-keyboard-response",482,375977,"0.0-4.156-2.156","8b5n280nvadpxfw",75,"53.csv","","null","resources/images/fishbone.png","null","",NA,NA,NA,NA,""
"image-keyboard-response",483,376224,"0.0-4.157-0.157","8b5n280nvadpxfw",75,"53.csv","","245.09999999403954","resources/trios/L1T2A2.jpg","37","restless",0.7,0.5,0.3,0.674937824080087,"true"
"image-keyboard-response",484,376633,"0.0-4.157-1.157","8b5n280nvadpxfw",75,"53.csv","","null","resources/maskTrios/L1BB.jpg","null","",NA,NA,NA,NA,""
"image-keyboard-response",485,377845,"0.0-4.157-2.157","8b5n280nvadpxfw",75,"53.csv","","null","resources/images/coin2.png","null","",NA,NA,NA,NA,""
"image-keyboard-response",486,377975,"0.0-4.158-0.158","8b5n280nvadpxfw",75,"53.csv","","128.19999998807907","resources/trios/L1T2A2.jpg","37","restless",0.8,0.5,0.3,0.226155483019787,"true"
"image-keyboard-response",487,378393,"0.0-4.158-1.158","8b5n280nvadpxfw",75,"53.csv","","null","resources/maskTrios/L1BB.jpg","null","",NA,NA,NA,NA,""
"image-keyboard-response",488,379611,"0.0-4.158-2.158","8b5n280nvadpxfw",75,"53.csv","","null","resources/images/coin2.png","null","",NA,NA,NA,NA,""
"image-keyboard-response",489,379712,"0.0-4.159-0.159","8b5n280nvadpxfw",75,"53.csv","","98.80000001192093","resources/trios/L1T2A2.jpg","37","restless",0.8,0.5,0.3,0.950542832771378,"false"
"image-keyboard-response",490,380121,"0.0-4.159-1.159","8b5n280nvadpxfw",75,"53.csv","","null","resources/maskTrios/L1BB.jpg","null","",NA,NA,NA,NA,""
"image-keyboard-response",491,381330,"0.0-4.159-2.159","8b5n280nvadpxfw",75,"53.csv","","null","resources/images/fishbone.png","null","",NA,NA,NA,NA,""
"image-keyboard-response",492,381543,"0.0-4.160-0.160","8b5n280nvadpxfw",75,"53.csv","","211.59999999403954","resources/trios/L1T2A2.jpg","38","restless",0.9,0.5,0.3,0.633126445845115,"false"
"image-keyboard-response",493,381950,"0.0-4.160-1.160","8b5n280nvadpxfw",75,"53.csv","","null","resources/maskTrios/BT2B.jpg","null","",NA,NA,NA,NA,""
"image-keyboard-response",494,383158,"0.0-4.160-2.160","8b5n280nvadpxfw",75,"53.csv","","null","resources/images/fishbone.png","null","",NA,NA,NA,NA,""
"image-keyboard-response",495,383357,"0.0-4.161-0.161","8b5n280nvadpxfw",75,"53.csv","","196.90000000596046","resources/trios/L1T2A2.jpg","39","restless",0.9,0.5,0.3,0.755780387909609,"false"
"image-keyboard-response",496,383772,"0.0-4.161-1.161","8b5n280nvadpxfw",75,"53.csv","","null","resources/maskTrios/BBA2.jpg","null","",NA,NA,NA,NA,""
"image-keyboard-response",497,384974,"0.0-4.161-2.161","8b5n280nvadpxfw",75,"53.csv","","null","resources/images/fishbone.png","null","",NA,NA,NA,NA,""
"image-keyboard-response",498,385407,"0.0-4.162-0.162","8b5n280nvadpxfw",75,"53.csv","","431.19999998807907","resources/trios/L1T2A2.jpg","37","restless",0.9,0.5,0.3,0.557414233631402,"true"
"image-keyboard-response",499,385818,"0.0-4.162-1.162","8b5n280nvadpxfw",75,"53.csv","","null","resources/maskTrios/L1BB.jpg","null","",NA,NA,NA,NA,""
"image-keyboard-response",500,387026,"0.0-4.162-2.162","8b5n280nvadpxfw",75,"53.csv","","null","resources/images/coin2.png","null","",NA,NA,NA,NA,""
"image-keyboard-response",501,387118,"0.0-4.163-0.163","8b5n280nvadpxfw",75,"53.csv","","90.2999999821186","resources/trios/L1T2A2.jpg","37","restless",0.9,0.5,0.4,0.880946347715789,"true"
"image-keyboard-response",502,387523,"0.0-4.163-1.163","8b5n280nvadpxfw",75,"53.csv","","null","resources/maskTrios/L1BB.jpg","null","",NA,NA,NA,NA,""
"image-keyboard-response",503,388726,"0.0-4.163-2.163","8b5n280nvadpxfw",75,"53.csv","","null","resources/images/coin2.png","null","",NA,NA,NA,NA,""
"image-keyboard-response",504,389108,"0.0-4.164-0.164","8b5n280nvadpxfw",75,"53.csv","","379.19999998807907","resources/trios/L1T2A2.jpg","37","restless",0.9,0.5,0.4,0.973848757994291,"false"
"image-keyboard-response",505,389518,"0.0-4.164-1.164","8b5n280nvadpxfw",75,"53.csv","","null","resources/maskTrios/L1BB.jpg","null","",NA,NA,NA,NA,""
"image-keyboard-response",506,390722,"0.0-4.164-2.164","8b5n280nvadpxfw",75,"53.csv","","null","resources/images/fishbone.png","null","",NA,NA,NA,NA,""
"image-keyboard-response",507,391294,"0.0-4.165-0.165","8b5n280nvadpxfw",75,"53.csv","","570.3000000119209","resources/trios/L1T2A2.jpg","39","restless",0.9,0.5,0.4,0.969697472270749,"false"
"image-keyboard-response",508,391697,"0.0-4.165-1.165","8b5n280nvadpxfw",75,"53.csv","","null","resources/maskTrios/BBA2.jpg","null","",NA,NA,NA,NA,""
"image-keyboard-response",509,392905,"0.0-4.165-2.165","8b5n280nvadpxfw",75,"53.csv","","null","resources/images/fishbone.png","null","",NA,NA,NA,NA,""
"image-keyboard-response",510,393448,"0.0-4.166-0.166","8b5n280nvadpxfw",75,"53.csv","","540.8000000119209","resources/trios/L1T2A2.jpg","38","restless",0.9,0.5,0.4,0.67040614736625,"false"
"image-keyboard-response",511,393851,"0.0-4.166-1.166","8b5n280nvadpxfw",75,"53.csv","","null","resources/maskTrios/BT2B.jpg","null","",NA,NA,NA,NA,""
"image-keyboard-response",512,395059,"0.0-4.166-2.166","8b5n280nvadpxfw",75,"53.csv","","null","resources/images/fishbone.png","null","",NA,NA,NA,NA,""
"image-keyboard-response",513,395162,"0.0-4.167-0.167","8b5n280nvadpxfw",75,"53.csv","","101","resources/trios/L1T2A2.jpg","37","restless",0.8,0.5,0.4,0.377636753448899,"true"
"image-keyboard-response",514,395568,"0.0-4.167-1.167","8b5n280nvadpxfw",75,"53.csv","","null","resources/maskTrios/L1BB.jpg","null","",NA,NA,NA,NA,""
"image-keyboard-response",515,396775,"0.0-4.167-2.167","8b5n280nvadpxfw",75,"53.csv","","null","resources/images/coin2.png","null","",NA,NA,NA,NA,""
"image-keyboard-response",516,396907,"0.0-4.168-0.168","8b5n280nvadpxfw",75,"53.csv","","130.7999999821186","resources/trios/L1T2A2.jpg","37","restless",0.8,0.5,0.4,0.182596933345001,"true"
"image-keyboard-response",517,397320,"0.0-4.168-1.168","8b5n280nvadpxfw",75,"53.csv","","null","resources/maskTrios/L1BB.jpg","null","",NA,NA,NA,NA,""
"image-keyboard-response",518,398530,"0.0-4.168-2.168","8b5n280nvadpxfw",75,"53.csv","","null","resources/images/coin2.png","null","",NA,NA,NA,NA,""
"image-keyboard-response",519,398770,"0.0-4.169-0.169","8b5n280nvadpxfw",75,"53.csv","","238.30000001192093","resources/trios/L1T2A2.jpg","37","restless",0.8,0.5,0.5,0.0628458436876143,"true"
"image-keyboard-response",520,399174,"0.0-4.169-1.169","8b5n280nvadpxfw",75,"53.csv","","null","resources/maskTrios/L1BB.jpg","null","",NA,NA,NA,NA,""
"image-keyboard-response",521,400382,"0.0-4.169-2.169","8b5n280nvadpxfw",75,"53.csv","","null","resources/images/coin2.png","null","",NA,NA,NA,NA,""
"image-keyboard-response",522,400715,"0.0-4.170-0.170","8b5n280nvadpxfw",75,"53.csv","","331.40000000596046","resources/trios/L1T2A2.jpg","37","restless",0.8,0.5,0.5,0.775578576902983,"true"
"image-keyboard-response",523,401125,"0.0-4.170-1.170","8b5n280nvadpxfw",75,"53.csv","","null","resources/maskTrios/L1BB.jpg","null","",NA,NA,NA,NA,""
"image-keyboard-response",524,402336,"0.0-4.170-2.170","8b5n280nvadpxfw",75,"53.csv","","null","resources/images/coin2.png","null","",NA,NA,NA,NA,""
"image-keyboard-response",525,402636,"0.0-4.171-0.171","8b5n280nvadpxfw",75,"53.csv","","298.39999997615814","resources/trios/L1T2A2.jpg","37","restless",0.8,0.5,0.5,0.992630120423025,"false"
"image-keyboard-response",526,403047,"0.0-4.171-1.171","8b5n280nvadpxfw",75,"53.csv","","null","resources/maskTrios/L1BB.jpg","null","",NA,NA,NA,NA,""
"image-keyboard-response",527,404264,"0.0-4.171-2.171","8b5n280nvadpxfw",75,"53.csv","","null","resources/images/fishbone.png","null","",NA,NA,NA,NA,""
"image-keyboard-response",528,404901,"0.0-4.172-0.172","8b5n280nvadpxfw",75,"53.csv","","635.1000000238419","resources/trios/L1T2A2.jpg","39","restless",0.8,0.4,0.5,0.268745461068968,"true"
"image-keyboard-response",529,405308,"0.0-4.172-1.172","8b5n280nvadpxfw",75,"53.csv","","null","resources/maskTrios/BBA2.jpg","null","",NA,NA,NA,NA,""
"image-keyboard-response",530,406515,"0.0-4.172-2.172","8b5n280nvadpxfw",75,"53.csv","","null","resources/images/coin2.png","null","",NA,NA,NA,NA,""
"image-keyboard-response",531,406829,"0.0-4.173-0.173","8b5n280nvadpxfw",75,"53.csv","","311.80000001192093","resources/trios/L1T2A2.jpg","39","restless",0.8,0.4,0.5,0.216103840419887,"true"
"image-keyboard-response",532,407234,"0.0-4.173-1.173","8b5n280nvadpxfw",75,"53.csv","","null","resources/maskTrios/BBA2.jpg","null","",NA,NA,NA,NA,""
"image-keyboard-response",533,408439,"0.0-4.173-2.173","8b5n280nvadpxfw",75,"53.csv","","null","resources/images/coin2.png","null","",NA,NA,NA,NA,""
"image-keyboard-response",534,408616,"0.0-4.174-0.174","8b5n280nvadpxfw",75,"53.csv","","174.30000001192093","resources/trios/L1T2A2.jpg","39","restless",0.8,0.4,0.5,0.75812073656455,"false"
"image-keyboard-response",535,409020,"0.0-4.174-1.174","8b5n280nvadpxfw",75,"53.csv","","null","resources/maskTrios/BBA2.jpg","null","",NA,NA,NA,NA,""
"image-keyboard-response",536,410221,"0.0-4.174-2.174","8b5n280nvadpxfw",75,"53.csv","","null","resources/images/fishbone.png","null","",NA,NA,NA,NA,""
"image-keyboard-response",537,410495,"0.0-4.175-0.175","8b5n280nvadpxfw",75,"53.csv","","272","resources/trios/L1T2A2.jpg","38","restless",0.8,0.4,0.5,0.15962315838687,"true"
"image-keyboard-response",538,410908,"0.0-4.175-1.175","8b5n280nvadpxfw",75,"53.csv","","null","resources/maskTrios/BT2B.jpg","null","",NA,NA,NA,NA,""
"image-keyboard-response",539,412118,"0.0-4.175-2.175","8b5n280nvadpxfw",75,"53.csv","","null","resources/images/coin2.png","null","",NA,NA,NA,NA,""
"image-keyboard-response",540,412217,"0.0-4.176-0.176","8b5n280nvadpxfw",75,"53.csv","","97.2000000178814","resources/trios/L1T2A2.jpg","38","restless",0.8,0.4,0.5,0.550634001677963,"false"
"image-keyboard-response",541,412623,"0.0-4.176-1.176","8b5n280nvadpxfw",75,"53.csv","","null","resources/maskTrios/BT2B.jpg","null","",NA,NA,NA,NA,""
"image-keyboard-response",542,413830,"0.0-4.176-2.176","8b5n280nvadpxfw",75,"53.csv","","null","resources/images/fishbone.png","null","",NA,NA,NA,NA,""
"image-keyboard-response",543,413855,"0.0-4.177-0.177","8b5n280nvadpxfw",75,"53.csv","","23.299999982118607","resources/trios/L1T2A2.jpg","37","restless",0.8,0.4,0.5,0.574469118416324,"true"
"image-keyboard-response",544,414269,"0.0-4.177-1.177","8b5n280nvadpxfw",75,"53.csv","","null","resources/maskTrios/L1BB.jpg","null","",NA,NA,NA,NA,""
"image-keyboard-response",545,415475,"0.0-4.177-2.177","8b5n280nvadpxfw",75,"53.csv","","null","resources/images/coin2.png","null","",NA,NA,NA,NA,""
"image-keyboard-response",546,415962,"0.0-4.178-0.178","8b5n280nvadpxfw",75,"53.csv","","484.80000001192093","resources/trios/L1T2A2.jpg","37","restless",0.7,0.4,0.5,0.426690341723298,"true"
"image-keyboard-response",547,416375,"0.0-4.178-1.178","8b5n280nvadpxfw",75,"53.csv","","null","resources/maskTrios/L1BB.jpg","null","",NA,NA,NA,NA,""
"image-keyboard-response",548,417583,"0.0-4.178-2.178","8b5n280nvadpxfw",75,"53.csv","","null","resources/images/coin2.png","null","",NA,NA,NA,NA,""
"image-keyboard-response",549,417670,"0.0-4.179-0.179","8b5n280nvadpxfw",75,"53.csv","","85.10000002384186","resources/trios/L1T2A2.jpg","37","restless",0.7,0.4,0.5,0.293901660102068,"true"
"image-keyboard-response",550,418081,"0.0-4.179-1.179","8b5n280nvadpxfw",75,"53.csv","","null","resources/maskTrios/L1BB.jpg","null","",NA,NA,NA,NA,""
"image-keyboard-response",551,419291,"0.0-4.179-2.179","8b5n280nvadpxfw",75,"53.csv","","null","resources/images/coin2.png","null","",NA,NA,NA,NA,""
"image-keyboard-response",552,419681,"0.0-4.180-0.180","8b5n280nvadpxfw",75,"53.csv","","387.60000002384186","resources/trios/L1T2A2.jpg","37","restless",0.7,0.4,0.5,0.339646982414471,"true"
"image-keyboard-response",553,420088,"0.0-4.180-1.180","8b5n280nvadpxfw",75,"53.csv","","null","resources/maskTrios/L1BB.jpg","null","",NA,NA,NA,NA,""
"image-keyboard-response",554,421293,"0.0-4.180-2.180","8b5n280nvadpxfw",75,"53.csv","","null","resources/images/coin2.png","null","",NA,NA,NA,NA,""
"image-keyboard-response",555,421306,"0.0-4.181-0.181","8b5n280nvadpxfw",75,"53.csv","","10.799999982118607","resources/trios/L1T2A2.jpg","39","restless",0.7,0.4,0.5,0.127357682706199,"true"
"image-keyboard-response",556,421719,"0.0-4.181-1.181","8b5n280nvadpxfw",75,"53.csv","","null","resources/maskTrios/BBA2.jpg","null","",NA,NA,NA,NA,""
"image-keyboard-response",557,422929,"0.0-4.181-2.181","8b5n280nvadpxfw",75,"53.csv","","null","resources/images/coin2.png","null","",NA,NA,NA,NA,""
"image-keyboard-response",558,423242,"0.0-4.182-0.182","8b5n280nvadpxfw",75,"53.csv","","311.09999999403954","resources/trios/L1T2A2.jpg","39","restless",0.7,0.4,0.5,0.675969136792126,"false"
"image-keyboard-response",559,423658,"0.0-4.182-1.182","8b5n280nvadpxfw",75,"53.csv","","null","resources/maskTrios/BBA2.jpg","null","",NA,NA,NA,NA,""
"image-keyboard-response",560,424862,"0.0-4.182-2.182","8b5n280nvadpxfw",75,"53.csv","","null","resources/images/fishbone.png","null","",NA,NA,NA,NA,""
"image-keyboard-response",561,425125,"0.0-4.183-0.183","8b5n280nvadpxfw",75,"53.csv","","260.89999997615814","resources/trios/L1T2A2.jpg","38","restless",0.7,0.5,0.5,0.516663858229404,"false"
"image-keyboard-response",562,425535,"0.0-4.183-1.183","8b5n280nvadpxfw",75,"53.csv","","null","resources/maskTrios/BT2B.jpg","null","",NA,NA,NA,NA,""
"image-keyboard-response",563,426739,"0.0-4.183-2.183","8b5n280nvadpxfw",75,"53.csv","","null","resources/images/fishbone.png","null","",NA,NA,NA,NA,""
"image-keyboard-response",564,427072,"0.0-4.184-0.184","8b5n280nvadpxfw",75,"53.csv","","331.19999998807907","resources/trios/L1T2A2.jpg","37","restless",0.7,0.5,0.5,0.671232662139148,"true"
"image-keyboard-response",565,427482,"0.0-4.184-1.184","8b5n280nvadpxfw",75,"53.csv","","null","resources/maskTrios/L1BB.jpg","null","",NA,NA,NA,NA,""
"image-keyboard-response",566,428686,"0.0-4.184-2.184","8b5n280nvadpxfw",75,"53.csv","","null","resources/images/coin2.png","null","",NA,NA,NA,NA,""
"image-keyboard-response",567,428871,"0.0-4.185-0.185","8b5n280nvadpxfw",75,"53.csv","","183.90000000596046","resources/trios/L1T2A2.jpg","37","restless",0.7,0.5,0.5,0.359314286247852,"true"
"image-keyboard-response",568,429278,"0.0-4.185-1.185","8b5n280nvadpxfw",75,"53.csv","","null","resources/maskTrios/L1BB.jpg","null","",NA,NA,NA,NA,""
"image-keyboard-response",569,430483,"0.0-4.185-2.185","8b5n280nvadpxfw",75,"53.csv","","null","resources/images/coin2.png","null","",NA,NA,NA,NA,""
"image-keyboard-response",570,430800,"0.0-4.186-0.186","8b5n280nvadpxfw",75,"53.csv","","315.5","resources/trios/L1T2A2.jpg","37","restless",0.7,0.5,0.5,0.481952721605686,"true"
"image-keyboard-response",571,431210,"0.0-4.186-1.186","8b5n280nvadpxfw",75,"53.csv","","null","resources/maskTrios/L1BB.jpg","null","",NA,NA,NA,NA,""
"image-keyboard-response",572,432417,"0.0-4.186-2.186","8b5n280nvadpxfw",75,"53.csv","","null","resources/images/coin2.png","null","",NA,NA,NA,NA,""
"image-keyboard-response",573,432648,"0.0-4.187-0.187","8b5n280nvadpxfw",75,"53.csv","","229.69999998807907","resources/trios/L1T2A2.jpg","37","restless",0.7,0.5,0.5,0.125940005192923,"true"
"image-keyboard-response",574,433058,"0.0-4.187-1.187","8b5n280nvadpxfw",75,"53.csv","","null","resources/maskTrios/L1BB.jpg","null","",NA,NA,NA,NA,""
"image-keyboard-response",575,434265,"0.0-4.187-2.187","8b5n280nvadpxfw",75,"53.csv","","null","resources/images/coin2.png","null","",NA,NA,NA,NA,""
"image-keyboard-response",576,434580,"0.0-4.188-0.188","8b5n280nvadpxfw",75,"53.csv","","312.5","resources/trios/L1T2A2.jpg","37","restless",0.6,0.5,0.5,0.139503184831548,"true"
"image-keyboard-response",577,434990,"0.0-4.188-1.188","8b5n280nvadpxfw",75,"53.csv","","null","resources/maskTrios/L1BB.jpg","null","",NA,NA,NA,NA,""
"image-keyboard-response",578,436195,"0.0-4.188-2.188","8b5n280nvadpxfw",75,"53.csv","","null","resources/images/coin2.png","null","",NA,NA,NA,NA,""
"image-keyboard-response",579,436442,"0.0-4.189-0.189","8b5n280nvadpxfw",75,"53.csv","","245.40000000596046","resources/trios/L1T2A2.jpg","37","restless",0.6,0.5,0.5,0.525102584588259,"true"
"image-keyboard-response",580,436851,"0.0-4.189-1.189","8b5n280nvadpxfw",75,"53.csv","","null","resources/maskTrios/L1BB.jpg","null","",NA,NA,NA,NA,""
"image-keyboard-response",581,438055,"0.0-4.189-2.189","8b5n280nvadpxfw",75,"53.csv","","null","resources/images/coin2.png","null","",NA,NA,NA,NA,""
"image-keyboard-response",582,438334,"0.0-4.190-0.190","8b5n280nvadpxfw",75,"53.csv","","276.7999999821186","resources/trios/L1T2A2.jpg","37","restless",0.6,0.5,0.5,0.766575176684985,"false"
"image-keyboard-response",583,438738,"0.0-4.190-1.190","8b5n280nvadpxfw",75,"53.csv","","null","resources/maskTrios/L1BB.jpg","null","",NA,NA,NA,NA,""
"image-keyboard-response",584,439944,"0.0-4.190-2.190","8b5n280nvadpxfw",75,"53.csv","","null","resources/images/fishbone.png","null","",NA,NA,NA,NA,""
"image-keyboard-response",585,440228,"0.0-4.191-0.191","8b5n280nvadpxfw",75,"53.csv","","281.90000000596046","resources/trios/L1T2A2.jpg","39","restless",0.6,0.5,0.5,0.0446529219643335,"true"
"image-keyboard-response",586,440638,"0.0-4.191-1.191","8b5n280nvadpxfw",75,"53.csv","","null","resources/maskTrios/BBA2.jpg","null","",NA,NA,NA,NA,""
"image-keyboard-response",587,441840,"0.0-4.191-2.191","8b5n280nvadpxfw",75,"53.csv","","null","resources/images/coin2.png","null","",NA,NA,NA,NA,""
"image-keyboard-response",588,442353,"0.0-4.192-0.192","8b5n280nvadpxfw",75,"53.csv","","510.30000001192093","resources/trios/L1T2A2.jpg","39","restless",0.6,0.5,0.6,0.594729612042449,"true"
"image-keyboard-response",589,442767,"0.0-4.192-1.192","8b5n280nvadpxfw",75,"53.csv","","null","resources/maskTrios/BBA2.jpg","null","",NA,NA,NA,NA,""
"image-keyboard-response",590,443969,"0.0-4.192-2.192","8b5n280nvadpxfw",75,"53.csv","","null","resources/images/coin2.png","null","",NA,NA,NA,NA,""
"image-keyboard-response",591,444215,"0.0-4.193-0.193","8b5n280nvadpxfw",75,"53.csv","","244.2999999821186","resources/trios/L1T2A2.jpg","39","restless",0.5,0.6,0.6,0.153017458839838,"true"
"image-keyboard-response",592,444625,"0.0-4.193-1.193","8b5n280nvadpxfw",75,"53.csv","","null","resources/maskTrios/BBA2.jpg","null","",NA,NA,NA,NA,""
"image-keyboard-response",593,445842,"0.0-4.193-2.193","8b5n280nvadpxfw",75,"53.csv","","null","resources/images/coin2.png","null","",NA,NA,NA,NA,""
"image-keyboard-response",594,445950,"0.0-4.194-0.194","8b5n280nvadpxfw",75,"53.csv","","105.5","resources/trios/L1T2A2.jpg","39","restless",0.5,0.6,0.6,0.950819649952253,"false"
"image-keyboard-response",595,446351,"0.0-4.194-1.194","8b5n280nvadpxfw",75,"53.csv","","null","resources/maskTrios/BBA2.jpg","null","",NA,NA,NA,NA,""
"image-keyboard-response",596,447568,"0.0-4.194-2.194","8b5n280nvadpxfw",75,"53.csv","","null","resources/images/fishbone.png","null","",NA,NA,NA,NA,""
"image-keyboard-response",597,447867,"0.0-4.195-0.195","8b5n280nvadpxfw",75,"53.csv","","297.69999998807907","resources/trios/L1T2A2.jpg","38","restless",0.5,0.6,0.6,0.791006690903658,"false"
"image-keyboard-response",598,448272,"0.0-4.195-1.195","8b5n280nvadpxfw",75,"53.csv","","null","resources/maskTrios/BT2B.jpg","null","",NA,NA,NA,NA,""
"image-keyboard-response",599,449479,"0.0-4.195-2.195","8b5n280nvadpxfw",75,"53.csv","","null","resources/images/fishbone.png","null","",NA,NA,NA,NA,""
"image-keyboard-response",600,449781,"0.0-4.196-0.196","8b5n280nvadpxfw",75,"53.csv","","299.90000000596046","resources/trios/L1T2A2.jpg","37","restless",0.5,0.6,0.6,0.600820450731114,"false"
"image-keyboard-response",601,450194,"0.0-4.196-1.196","8b5n280nvadpxfw",75,"53.csv","","null","resources/maskTrios/L1BB.jpg","null","",NA,NA,NA,NA,""
"image-keyboard-response",602,451401,"0.0-4.196-2.196","8b5n280nvadpxfw",75,"53.csv","","null","resources/images/fishbone.png","null","",NA,NA,NA,NA,""
"image-keyboard-response",603,451712,"0.0-4.197-0.197","8b5n280nvadpxfw",75,"53.csv","","309.40000000596046","resources/trios/L1T2A2.jpg","39","restless",0.5,0.6,0.6,0.562774624064481,"true"
"image-keyboard-response",604,452125,"0.0-4.197-1.197","8b5n280nvadpxfw",75,"53.csv","","null","resources/maskTrios/BBA2.jpg","null","",NA,NA,NA,NA,""
"image-keyboard-response",605,453332,"0.0-4.197-2.197","8b5n280nvadpxfw",75,"53.csv","","null","resources/images/coin2.png","null","",NA,NA,NA,NA,""
"image-keyboard-response",606,453874,"0.0-4.198-0.198","8b5n280nvadpxfw",75,"53.csv","","539.5999999940395","resources/trios/L1T2A2.jpg","39","restless",0.5,0.6,0.6,0.291319337885432,"true"
"image-keyboard-response",607,454278,"0.0-4.198-1.198","8b5n280nvadpxfw",75,"53.csv","","null","resources/maskTrios/BBA2.jpg","null","",NA,NA,NA,NA,""
"image-keyboard-response",608,455492,"0.0-4.198-2.198","8b5n280nvadpxfw",75,"53.csv","","null","resources/images/coin2.png","null","",NA,NA,NA,NA,""
"image-keyboard-response",609,455678,"0.0-4.199-0.199","8b5n280nvadpxfw",75,"53.csv","","184.7000000178814","resources/trios/L1T2A2.jpg","39","restless",0.5,0.6,0.6,0.913962592933125,"false"
"image-keyboard-response",610,456083,"0.0-4.199-1.199","8b5n280nvadpxfw",75,"53.csv","","null","resources/maskTrios/BBA2.jpg","null","",NA,NA,NA,NA,""
"image-keyboard-response",611,457286,"0.0-4.199-2.199","8b5n280nvadpxfw",75,"53.csv","","null","resources/images/fishbone.png","null","",NA,NA,NA,NA,""
"survey-text",612,518397,"0.0-5.0","8b5n280nvadpxfw",75,"53.csv","","61106.20000001788","","","",NA,NA,NA,NA,""
