"trial_type","trial_index","time_elapsed","internal_node_id","subject","participantCode","walkNumber","success","rt","stimulus","key_press","test_part","leftProb","midProb","rightProb","generatedNum","correct"
"pavlovia",0,1596,"0.0-0.0","1v452ja587ru5xz",608,"115.csv","","","","","",NA,NA,NA,NA,""
"fullscreen",1,5036,"0.0-1.0","1v452ja587ru5xz",608,"115.csv","true","","","","",NA,NA,NA,NA,""
"survey-html-form",2,14648,"0.0-2.0","1v452ja587ru5xz",608,"115.csv","","9610.60000038147","","","",NA,NA,NA,NA,""
"image-keyboard-response",3,24514,"0.0-3.0-0.0","1v452ja587ru5xz",608,"115.csv","","9865.69999885559","resources/images/parrot_nobg.png","13","",NA,NA,NA,NA,""
"image-keyboard-response",4,27525,"0.0-3.0-1.0","1v452ja587ru5xz",608,"115.csv","","null","resources/image_sets/111.png","null","",NA,NA,NA,NA,""
"image-keyboard-response",5,35718,"0.0-3.0-2.0","1v452ja587ru5xz",608,"115.csv","","8191.89999961853","resources/image_sets/left_highlight.png","37","",NA,NA,NA,NA,""
"image-keyboard-response",6,37741,"0.0-3.0-3.0","1v452ja587ru5xz",608,"115.csv","","2021.7999992370605","resources/image_sets/mid_highlight.png","38","",NA,NA,NA,NA,""
"image-keyboard-response",7,39027,"0.0-3.0-4.0","1v452ja587ru5xz",608,"115.csv","","1285","resources/image_sets/right_highlight.png","39","",NA,NA,NA,NA,""
"image-keyboard-response",8,46194,"0.0-3.0-5.0","1v452ja587ru5xz",608,"115.csv","","7166.39999961853","resources/image_sets/111.png","13","",NA,NA,NA,NA,""
"image-keyboard-response",9,49446,"0.0-3.0-6.0","1v452ja587ru5xz",608,"115.csv","","3251.3999996185303","resources/images/coin2.png","13","",NA,NA,NA,NA,""
"image-keyboard-response",10,51196,"0.0-3.0-7.0","1v452ja587ru5xz",608,"115.csv","","1748.7999992370605","resources/images/fishbone.png","13","",NA,NA,NA,NA,""
"html-keyboard-response",11,55177,"0.0-3.0-8.0","1v452ja587ru5xz",608,"115.csv","","3980.300001144409","<p>You can track your coin total on the top right of your screen. </p><p>At the end of your journey you will be directed to a survey, so please click on the link before exiting the task</p><p>Press Enter to begin</p>","13","",NA,NA,NA,NA,""
"image-keyboard-response",12,62805,"0.0-4.0-0.0","1v452ja587ru5xz",608,"115.csv","","7618.60000038147","resources/trios/L1T4A2.jpg","38","restless",0.7,0.9,0.3,0.650815256599389,"true"
"image-keyboard-response",13,63216,"0.0-4.0-1.0","1v452ja587ru5xz",608,"115.csv","","null","resources/maskTrios/BT4B.jpg","null","",NA,NA,NA,NA,""
"image-keyboard-response",14,64421,"0.0-4.0-2.0","1v452ja587ru5xz",608,"115.csv","","null","resources/images/coin2.png","null","",NA,NA,NA,NA,""
"image-keyboard-response",15,69595,"0.0-4.1-0.1","1v452ja587ru5xz",608,"115.csv","","5171.700000762939","resources/trios/L1T4A2.jpg","38","restless",0.7,0.8,0.3,0.762194174844765,"true"
"image-keyboard-response",16,69999,"0.0-4.1-1.1","1v452ja587ru5xz",608,"115.csv","","null","resources/maskTrios/BT4B.jpg","null","",NA,NA,NA,NA,""
"image-keyboard-response",17,71214,"0.0-4.1-2.1","1v452ja587ru5xz",608,"115.csv","","null","resources/images/coin2.png","null","",NA,NA,NA,NA,""
"image-keyboard-response",18,74345,"0.0-4.2-0.2","1v452ja587ru5xz",608,"115.csv","","3129.8999996185303","resources/trios/L1T4A2.jpg","38","restless",0.7,0.8,0.3,0.802232504986611,"false"
"image-keyboard-response",19,74748,"0.0-4.2-1.2","1v452ja587ru5xz",608,"115.csv","","null","resources/maskTrios/BT4B.jpg","null","",NA,NA,NA,NA,""
"image-keyboard-response",20,75963,"0.0-4.2-2.2","1v452ja587ru5xz",608,"115.csv","","null","resources/images/fishbone.png","null","",NA,NA,NA,NA,""
"image-keyboard-response",21,78036,"0.0-4.3-0.3","1v452ja587ru5xz",608,"115.csv","","2071.3999996185303","resources/trios/L1T4A2.jpg","37","restless",0.7,0.8,0.3,0.467816924510166,"true"
"image-keyboard-response",22,78447,"0.0-4.3-1.3","1v452ja587ru5xz",608,"115.csv","","null","resources/maskTrios/L1BB.jpg","null","",NA,NA,NA,NA,""
"image-keyboard-response",23,79652,"0.0-4.3-2.3","1v452ja587ru5xz",608,"115.csv","","null","resources/images/coin2.png","null","",NA,NA,NA,NA,""
"image-keyboard-response",24,84133,"0.0-4.4-0.4","1v452ja587ru5xz",608,"115.csv","","4479.89999961853","resources/trios/L1T4A2.jpg","39","restless",0.7,0.8,0.2,0.0185079317364185,"true"
"image-keyboard-response",25,84543,"0.0-4.4-1.4","1v452ja587ru5xz",608,"115.csv","","null","resources/maskTrios/BBA2.jpg","null","",NA,NA,NA,NA,""
"image-keyboard-response",26,85753,"0.0-4.4-2.4","1v452ja587ru5xz",608,"115.csv","","null","resources/images/coin2.png","null","",NA,NA,NA,NA,""
"image-keyboard-response",27,86284,"0.0-4.5-0.5","1v452ja587ru5xz",608,"115.csv","","529.7000007629395","resources/trios/L1T4A2.jpg","39","restless",0.7,0.8,0.3,0.803626970845647,"false"
"image-keyboard-response",28,86703,"0.0-4.5-1.5","1v452ja587ru5xz",608,"115.csv","","null","resources/maskTrios/BBA2.jpg","null","",NA,NA,NA,NA,""
"image-keyboard-response",29,87908,"0.0-4.5-2.5","1v452ja587ru5xz",608,"115.csv","","null","resources/images/fishbone.png","null","",NA,NA,NA,NA,""
"image-keyboard-response",30,89647,"0.0-4.6-0.6","1v452ja587ru5xz",608,"115.csv","","1737.3999996185303","resources/trios/L1T4A2.jpg","38","restless",0.7,0.8,0.3,0.581164648044619,"true"
"image-keyboard-response",31,90063,"0.0-4.6-1.6","1v452ja587ru5xz",608,"115.csv","","null","resources/maskTrios/BT4B.jpg","null","",NA,NA,NA,NA,""
"image-keyboard-response",32,91274,"0.0-4.6-2.6","1v452ja587ru5xz",608,"115.csv","","null","resources/images/coin2.png","null","",NA,NA,NA,NA,""
"image-keyboard-response",33,92965,"0.0-4.7-0.7","1v452ja587ru5xz",608,"115.csv","","1690.400001525879","resources/trios/L1T4A2.jpg","38","restless",0.7,0.8,0.3,0.691319828124169,"true"
"image-keyboard-response",34,93373,"0.0-4.7-1.7","1v452ja587ru5xz",608,"115.csv","","null","resources/maskTrios/BT4B.jpg","null","",NA,NA,NA,NA,""
"image-keyboard-response",35,94579,"0.0-4.7-2.7","1v452ja587ru5xz",608,"115.csv","","null","resources/images/coin2.png","null","",NA,NA,NA,NA,""
"image-keyboard-response",36,96678,"0.0-4.8-0.8","1v452ja587ru5xz",608,"115.csv","","2097.2999992370605","resources/trios/L1T4A2.jpg","37","restless",0.7,0.8,0.3,0.550303920532688,"true"
"image-keyboard-response",37,97081,"0.0-4.8-1.8","1v452ja587ru5xz",608,"115.csv","","null","resources/maskTrios/L1BB.jpg","null","",NA,NA,NA,NA,""
"image-keyboard-response",38,98286,"0.0-4.8-2.8","1v452ja587ru5xz",608,"115.csv","","null","resources/images/coin2.png","null","",NA,NA,NA,NA,""
"image-keyboard-response",39,98985,"0.0-4.9-0.9","1v452ja587ru5xz",608,"115.csv","","698.1999988555908","resources/trios/L1T4A2.jpg","37","restless",0.7,0.8,0.4,0.0570552169456102,"true"
"image-keyboard-response",40,99390,"0.0-4.9-1.9","1v452ja587ru5xz",608,"115.csv","","null","resources/maskTrios/L1BB.jpg","null","",NA,NA,NA,NA,""
"image-keyboard-response",41,100598,"0.0-4.9-2.9","1v452ja587ru5xz",608,"115.csv","","null","resources/images/coin2.png","null","",NA,NA,NA,NA,""
"image-keyboard-response",42,101360,"0.0-4.10-0.10","1v452ja587ru5xz",608,"115.csv","","760","resources/trios/L1T4A2.jpg","39","restless",0.7,0.8,0.4,0.503641433439804,"false"
"image-keyboard-response",43,101764,"0.0-4.10-1.10","1v452ja587ru5xz",608,"115.csv","","null","resources/maskTrios/BBA2.jpg","null","",NA,NA,NA,NA,""
"image-keyboard-response",44,102973,"0.0-4.10-2.10","1v452ja587ru5xz",608,"115.csv","","null","resources/images/fishbone.png","null","",NA,NA,NA,NA,""
"image-keyboard-response",45,103926,"0.0-4.11-0.11","1v452ja587ru5xz",608,"115.csv","","952.3999996185303","resources/trios/L1T4A2.jpg","38","restless",0.7,0.7,0.5,0.272054382652032,"true"
"image-keyboard-response",46,104338,"0.0-4.11-1.11","1v452ja587ru5xz",608,"115.csv","","null","resources/maskTrios/BT4B.jpg","null","",NA,NA,NA,NA,""
"image-keyboard-response",47,105543,"0.0-4.11-2.11","1v452ja587ru5xz",608,"115.csv","","null","resources/images/coin2.png","null","",NA,NA,NA,NA,""
"image-keyboard-response",48,105918,"0.0-4.12-0.12","1v452ja587ru5xz",608,"115.csv","","372.8000011444092","resources/trios/L1T4A2.jpg","38","restless",0.7,0.7,0.5,0.21602789026169,"true"
"image-keyboard-response",49,106331,"0.0-4.12-1.12","1v452ja587ru5xz",608,"115.csv","","null","resources/maskTrios/BT4B.jpg","null","",NA,NA,NA,NA,""
"image-keyboard-response",50,107532,"0.0-4.12-2.12","1v452ja587ru5xz",608,"115.csv","","null","resources/images/coin2.png","null","",NA,NA,NA,NA,""
"image-keyboard-response",51,108250,"0.0-4.13-0.13","1v452ja587ru5xz",608,"115.csv","","716.6000003814697","resources/trios/L1T4A2.jpg","37","restless",0.7,0.7,0.5,0.853433940040511,"false"
"image-keyboard-response",52,108663,"0.0-4.13-1.13","1v452ja587ru5xz",608,"115.csv","","null","resources/maskTrios/L1BB.jpg","null","",NA,NA,NA,NA,""
"image-keyboard-response",53,109871,"0.0-4.13-2.13","1v452ja587ru5xz",608,"115.csv","","null","resources/images/fishbone.png","null","",NA,NA,NA,NA,""
"image-keyboard-response",54,110356,"0.0-4.14-0.14","1v452ja587ru5xz",608,"115.csv","","483.79999923706055","resources/trios/L1T4A2.jpg","38","restless",0.7,0.7,0.5,0.734998701748667,"false"
"image-keyboard-response",55,110763,"0.0-4.14-1.14","1v452ja587ru5xz",608,"115.csv","","null","resources/maskTrios/BT4B.jpg","null","",NA,NA,NA,NA,""
"image-keyboard-response",56,111973,"0.0-4.14-2.14","1v452ja587ru5xz",608,"115.csv","","null","resources/images/fishbone.png","null","",NA,NA,NA,NA,""
"image-keyboard-response",57,114318,"0.0-4.15-0.15","1v452ja587ru5xz",608,"115.csv","","2343.300001144409","resources/trios/L1T4A2.jpg","38","restless",0.7,0.7,0.5,0.232580618363969,"true"
"image-keyboard-response",58,114729,"0.0-4.15-1.15","1v452ja587ru5xz",608,"115.csv","","null","resources/maskTrios/BT4B.jpg","null","",NA,NA,NA,NA,""
"image-keyboard-response",59,115933,"0.0-4.15-2.15","1v452ja587ru5xz",608,"115.csv","","null","resources/images/coin2.png","null","",NA,NA,NA,NA,""
"image-keyboard-response",60,116717,"0.0-4.16-0.16","1v452ja587ru5xz",608,"115.csv","","782.6000003814697","resources/trios/L1T4A2.jpg","38","restless",0.7,0.7,0.5,0.12829854196165,"true"
"image-keyboard-response",61,117124,"0.0-4.16-1.16","1v452ja587ru5xz",608,"115.csv","","null","resources/maskTrios/BT4B.jpg","null","",NA,NA,NA,NA,""
"image-keyboard-response",62,118328,"0.0-4.16-2.16","1v452ja587ru5xz",608,"115.csv","","null","resources/images/coin2.png","null","",NA,NA,NA,NA,""
"image-keyboard-response",63,118828,"0.0-4.17-0.17","1v452ja587ru5xz",608,"115.csv","","499.4000015258789","resources/trios/L1T4A2.jpg","37","restless",0.7,0.7,0.5,0.602910061771023,"true"
"image-keyboard-response",64,119239,"0.0-4.17-1.17","1v452ja587ru5xz",608,"115.csv","","null","resources/maskTrios/L1BB.jpg","null","",NA,NA,NA,NA,""
"image-keyboard-response",65,120452,"0.0-4.17-2.17","1v452ja587ru5xz",608,"115.csv","","null","resources/images/coin2.png","null","",NA,NA,NA,NA,""
"image-keyboard-response",66,120929,"0.0-4.18-0.18","1v452ja587ru5xz",608,"115.csv","","475.79999923706055","resources/trios/L1T4A2.jpg","37","restless",0.7,0.7,0.5,0.762406384511639,"false"
"image-keyboard-response",67,121334,"0.0-4.18-1.18","1v452ja587ru5xz",608,"115.csv","","null","resources/maskTrios/L1BB.jpg","null","",NA,NA,NA,NA,""
"image-keyboard-response",68,122548,"0.0-4.18-2.18","1v452ja587ru5xz",608,"115.csv","","null","resources/images/fishbone.png","null","",NA,NA,NA,NA,""
"image-keyboard-response",69,123016,"0.0-4.19-0.19","1v452ja587ru5xz",608,"115.csv","","470.8000011444092","resources/trios/L1T4A2.jpg","38","restless",0.7,0.7,0.5,0.502220926210986,"true"
"image-keyboard-response",70,123424,"0.0-4.19-1.19","1v452ja587ru5xz",608,"115.csv","","null","resources/maskTrios/BT4B.jpg","null","",NA,NA,NA,NA,""
"image-keyboard-response",71,124635,"0.0-4.19-2.19","1v452ja587ru5xz",608,"115.csv","","null","resources/images/coin2.png","null","",NA,NA,NA,NA,""
"image-keyboard-response",72,125755,"0.0-4.20-0.20","1v452ja587ru5xz",608,"115.csv","","1119","resources/trios/L1T4A2.jpg","39","restless",0.7,0.7,0.5,0.016861860912802,"true"
"image-keyboard-response",73,126158,"0.0-4.20-1.20","1v452ja587ru5xz",608,"115.csv","","null","resources/maskTrios/BBA2.jpg","null","",NA,NA,NA,NA,""
"image-keyboard-response",74,127362,"0.0-4.20-2.20","1v452ja587ru5xz",608,"115.csv","","null","resources/images/coin2.png","null","",NA,NA,NA,NA,""
"image-keyboard-response",75,128676,"0.0-4.21-0.21","1v452ja587ru5xz",608,"115.csv","","1313.5","resources/trios/L1T4A2.jpg","38","restless",0.7,0.7,0.5,0.157579848986165,"true"
"image-keyboard-response",76,129093,"0.0-4.21-1.21","1v452ja587ru5xz",608,"115.csv","","null","resources/maskTrios/BT4B.jpg","null","",NA,NA,NA,NA,""
"image-keyboard-response",77,130299,"0.0-4.21-2.21","1v452ja587ru5xz",608,"115.csv","","null","resources/images/coin2.png","null","",NA,NA,NA,NA,""
"image-keyboard-response",78,130746,"0.0-4.22-0.22","1v452ja587ru5xz",608,"115.csv","","445.6000003814697","resources/trios/L1T4A2.jpg","38","restless",0.7,0.7,0.5,0.0694850240116467,"true"
"image-keyboard-response",79,131151,"0.0-4.22-1.22","1v452ja587ru5xz",608,"115.csv","","null","resources/maskTrios/BT4B.jpg","null","",NA,NA,NA,NA,""
"image-keyboard-response",80,132359,"0.0-4.22-2.22","1v452ja587ru5xz",608,"115.csv","","null","resources/images/coin2.png","null","",NA,NA,NA,NA,""
"image-keyboard-response",81,133187,"0.0-4.23-0.23","1v452ja587ru5xz",608,"115.csv","","826.4000015258789","resources/trios/L1T4A2.jpg","37","restless",0.7,0.7,0.5,0.862965136574817,"false"
"image-keyboard-response",82,133593,"0.0-4.23-1.23","1v452ja587ru5xz",608,"115.csv","","null","resources/maskTrios/L1BB.jpg","null","",NA,NA,NA,NA,""
"image-keyboard-response",83,134796,"0.0-4.23-2.23","1v452ja587ru5xz",608,"115.csv","","null","resources/images/fishbone.png","null","",NA,NA,NA,NA,""
"image-keyboard-response",84,135312,"0.0-4.24-0.24","1v452ja587ru5xz",608,"115.csv","","514.8000011444092","resources/trios/L1T4A2.jpg","39","restless",0.8,0.7,0.5,0.758225063135849,"false"
"image-keyboard-response",85,135726,"0.0-4.24-1.24","1v452ja587ru5xz",608,"115.csv","","null","resources/maskTrios/BBA2.jpg","null","",NA,NA,NA,NA,""
"image-keyboard-response",86,136932,"0.0-4.24-2.24","1v452ja587ru5xz",608,"115.csv","","null","resources/images/fishbone.png","null","",NA,NA,NA,NA,""
"image-keyboard-response",87,137259,"0.0-4.25-0.25","1v452ja587ru5xz",608,"115.csv","","325.70000076293945","resources/trios/L1T4A2.jpg","38","restless",0.8,0.7,0.5,0.192837973079194,"true"
"image-keyboard-response",88,137661,"0.0-4.25-1.25","1v452ja587ru5xz",608,"115.csv","","null","resources/maskTrios/BT4B.jpg","null","",NA,NA,NA,NA,""
"image-keyboard-response",89,138876,"0.0-4.25-2.25","1v452ja587ru5xz",608,"115.csv","","null","resources/images/coin2.png","null","",NA,NA,NA,NA,""
"image-keyboard-response",90,139339,"0.0-4.26-0.26","1v452ja587ru5xz",608,"115.csv","","461.6000003814697","resources/trios/L1T4A2.jpg","38","restless",0.8,0.7,0.5,0.17852721672611,"true"
"image-keyboard-response",91,139740,"0.0-4.26-1.26","1v452ja587ru5xz",608,"115.csv","","null","resources/maskTrios/BT4B.jpg","null","",NA,NA,NA,NA,""
"image-keyboard-response",92,140951,"0.0-4.26-2.26","1v452ja587ru5xz",608,"115.csv","","null","resources/images/coin2.png","null","",NA,NA,NA,NA,""
"image-keyboard-response",93,141367,"0.0-4.27-0.27","1v452ja587ru5xz",608,"115.csv","","414","resources/trios/L1T4A2.jpg","37","restless",0.8,0.7,0.5,0.784045371906418,"true"
"image-keyboard-response",94,141777,"0.0-4.27-1.27","1v452ja587ru5xz",608,"115.csv","","null","resources/maskTrios/L1BB.jpg","null","",NA,NA,NA,NA,""
"image-keyboard-response",95,142985,"0.0-4.27-2.27","1v452ja587ru5xz",608,"115.csv","","null","resources/images/coin2.png","null","",NA,NA,NA,NA,""
"image-keyboard-response",96,146328,"0.0-4.28-0.28","1v452ja587ru5xz",608,"115.csv","","3342.599998474121","resources/trios/L1T4A2.jpg","37","restless",0.8,0.7,0.5,0.338333080325177,"true"
"image-keyboard-response",97,146735,"0.0-4.28-1.28","1v452ja587ru5xz",608,"115.csv","","null","resources/maskTrios/L1BB.jpg","null","",NA,NA,NA,NA,""
"image-keyboard-response",98,147940,"0.0-4.28-2.28","1v452ja587ru5xz",608,"115.csv","","null","resources/images/coin2.png","null","",NA,NA,NA,NA,""
"image-keyboard-response",99,148473,"0.0-4.29-0.29","1v452ja587ru5xz",608,"115.csv","","531.3999996185303","resources/trios/L1T4A2.jpg","39","restless",0.9,0.7,0.5,0.0521215457770849,"true"
"image-keyboard-response",100,148884,"0.0-4.29-1.29","1v452ja587ru5xz",608,"115.csv","","null","resources/maskTrios/BBA2.jpg","null","",NA,NA,NA,NA,""
"image-keyboard-response",101,150094,"0.0-4.29-2.29","1v452ja587ru5xz",608,"115.csv","","null","resources/images/coin2.png","null","",NA,NA,NA,NA,""
"image-keyboard-response",102,150770,"0.0-4.30-0.30","1v452ja587ru5xz",608,"115.csv","","674.8999996185303","resources/trios/L1T4A2.jpg","38","restless",0.9,0.7,0.5,0.207664245011026,"true"
"image-keyboard-response",103,151177,"0.0-4.30-1.30","1v452ja587ru5xz",608,"115.csv","","null","resources/maskTrios/BT4B.jpg","null","",NA,NA,NA,NA,""
"image-keyboard-response",104,152385,"0.0-4.30-2.30","1v452ja587ru5xz",608,"115.csv","","null","resources/images/coin2.png","null","",NA,NA,NA,NA,""
"image-keyboard-response",105,152858,"0.0-4.31-0.31","1v452ja587ru5xz",608,"115.csv","","471.79999923706055","resources/trios/L1T4A2.jpg","38","restless",0.9,0.7,0.5,0.452811793421771,"true"
"image-keyboard-response",106,153269,"0.0-4.31-1.31","1v452ja587ru5xz",608,"115.csv","","null","resources/maskTrios/BT4B.jpg","null","",NA,NA,NA,NA,""
"image-keyboard-response",107,154489,"0.0-4.31-2.31","1v452ja587ru5xz",608,"115.csv","","null","resources/images/coin2.png","null","",NA,NA,NA,NA,""
"image-keyboard-response",108,155552,"0.0-4.32-0.32","1v452ja587ru5xz",608,"115.csv","","1061.7000007629395","resources/trios/L1T4A2.jpg","37","restless",0.9,0.7,0.5,0.915330394572159,"false"
"image-keyboard-response",109,155964,"0.0-4.32-1.32","1v452ja587ru5xz",608,"115.csv","","null","resources/maskTrios/L1BB.jpg","null","",NA,NA,NA,NA,""
"image-keyboard-response",110,157174,"0.0-4.32-2.32","1v452ja587ru5xz",608,"115.csv","","null","resources/images/fishbone.png","null","",NA,NA,NA,NA,""
"image-keyboard-response",111,157545,"0.0-4.33-0.33","1v452ja587ru5xz",608,"115.csv","","369.3000011444092","resources/trios/L1T4A2.jpg","37","restless",0.9,0.6,0.5,0.0186562309165355,"true"
"image-keyboard-response",112,157949,"0.0-4.33-1.33","1v452ja587ru5xz",608,"115.csv","","null","resources/maskTrios/L1BB.jpg","null","",NA,NA,NA,NA,""
"image-keyboard-response",113,159164,"0.0-4.33-2.33","1v452ja587ru5xz",608,"115.csv","","null","resources/images/coin2.png","null","",NA,NA,NA,NA,""
"image-keyboard-response",114,159555,"0.0-4.34-0.34","1v452ja587ru5xz",608,"115.csv","","389.6999988555908","resources/trios/L1T4A2.jpg","37","restless",0.9,0.6,0.5,0.807818052279542,"true"
"image-keyboard-response",115,159969,"0.0-4.34-1.34","1v452ja587ru5xz",608,"115.csv","","null","resources/maskTrios/L1BB.jpg","null","",NA,NA,NA,NA,""
"image-keyboard-response",116,161185,"0.0-4.34-2.34","1v452ja587ru5xz",608,"115.csv","","null","resources/images/coin2.png","null","",NA,NA,NA,NA,""
"image-keyboard-response",117,161721,"0.0-4.35-0.35","1v452ja587ru5xz",608,"115.csv","","535.2000007629395","resources/trios/L1T4A2.jpg","39","restless",0.9,0.6,0.5,0.212852865655114,"true"
"image-keyboard-response",118,162135,"0.0-4.35-1.35","1v452ja587ru5xz",608,"115.csv","","null","resources/maskTrios/BBA2.jpg","null","",NA,NA,NA,NA,""
"image-keyboard-response",119,163344,"0.0-4.35-2.35","1v452ja587ru5xz",608,"115.csv","","null","resources/images/coin2.png","null","",NA,NA,NA,NA,""
"image-keyboard-response",120,163950,"0.0-4.36-0.36","1v452ja587ru5xz",608,"115.csv","","605","resources/trios/L1T4A2.jpg","38","restless",0.9,0.6,0.5,0.437710920830153,"true"
"image-keyboard-response",121,164359,"0.0-4.36-1.36","1v452ja587ru5xz",608,"115.csv","","null","resources/maskTrios/BT4B.jpg","null","",NA,NA,NA,NA,""
"image-keyboard-response",122,165567,"0.0-4.36-2.36","1v452ja587ru5xz",608,"115.csv","","null","resources/images/coin2.png","null","",NA,NA,NA,NA,""
"image-keyboard-response",123,166230,"0.0-4.37-0.37","1v452ja587ru5xz",608,"115.csv","","661.8000011444092","resources/trios/L1T4A2.jpg","38","restless",0.9,0.6,0.5,0.223183990536906,"true"
"image-keyboard-response",124,166640,"0.0-4.37-1.37","1v452ja587ru5xz",608,"115.csv","","null","resources/maskTrios/BT4B.jpg","null","",NA,NA,NA,NA,""
"image-keyboard-response",125,167854,"0.0-4.37-2.37","1v452ja587ru5xz",608,"115.csv","","null","resources/images/coin2.png","null","",NA,NA,NA,NA,""
"image-keyboard-response",126,168173,"0.0-4.38-0.38","1v452ja587ru5xz",608,"115.csv","","317","resources/trios/L1T4A2.jpg","38","restless",0.9,0.6,0.5,0.250473387069146,"true"
"image-keyboard-response",127,168574,"0.0-4.38-1.38","1v452ja587ru5xz",608,"115.csv","","null","resources/maskTrios/BT4B.jpg","null","",NA,NA,NA,NA,""
"image-keyboard-response",128,169783,"0.0-4.38-2.38","1v452ja587ru5xz",608,"115.csv","","null","resources/images/coin2.png","null","",NA,NA,NA,NA,""
"image-keyboard-response",129,170178,"0.0-4.39-0.39","1v452ja587ru5xz",608,"115.csv","","393.6999988555908","resources/trios/L1T4A2.jpg","37","restless",0.9,0.6,0.6,0.0583717568206272,"true"
"image-keyboard-response",130,170579,"0.0-4.39-1.39","1v452ja587ru5xz",608,"115.csv","","null","resources/maskTrios/L1BB.jpg","null","",NA,NA,NA,NA,""
"image-keyboard-response",131,171785,"0.0-4.39-2.39","1v452ja587ru5xz",608,"115.csv","","null","resources/images/coin2.png","null","",NA,NA,NA,NA,""
"image-keyboard-response",132,172202,"0.0-4.40-0.40","1v452ja587ru5xz",608,"115.csv","","413.6000003814697","resources/trios/L1T4A2.jpg","37","restless",0.9,0.6,0.6,0.580405166759204,"true"
"image-keyboard-response",133,172619,"0.0-4.40-1.40","1v452ja587ru5xz",608,"115.csv","","null","resources/maskTrios/L1BB.jpg","null","",NA,NA,NA,NA,""
"image-keyboard-response",134,173833,"0.0-4.40-2.40","1v452ja587ru5xz",608,"115.csv","","null","resources/images/coin2.png","null","",NA,NA,NA,NA,""
"image-keyboard-response",135,174434,"0.0-4.41-0.41","1v452ja587ru5xz",608,"115.csv","","600.1000003814697","resources/trios/L1T4A2.jpg","39","restless",0.9,0.6,0.6,0.100672513125517,"true"
"image-keyboard-response",136,174848,"0.0-4.41-1.41","1v452ja587ru5xz",608,"115.csv","","null","resources/maskTrios/BBA2.jpg","null","",NA,NA,NA,NA,""
"image-keyboard-response",137,176056,"0.0-4.41-2.41","1v452ja587ru5xz",608,"115.csv","","null","resources/images/coin2.png","null","",NA,NA,NA,NA,""
"image-keyboard-response",138,176459,"0.0-4.42-0.42","1v452ja587ru5xz",608,"115.csv","","402.3000011444092","resources/trios/L1T4A2.jpg","38","restless",0.9,0.6,0.6,0.233663997207431,"true"
"image-keyboard-response",139,176869,"0.0-4.42-1.42","1v452ja587ru5xz",608,"115.csv","","null","resources/maskTrios/BT4B.jpg","null","",NA,NA,NA,NA,""
"image-keyboard-response",140,178085,"0.0-4.42-2.42","1v452ja587ru5xz",608,"115.csv","","null","resources/images/coin2.png","null","",NA,NA,NA,NA,""
"image-keyboard-response",141,178383,"0.0-4.43-0.43","1v452ja587ru5xz",608,"115.csv","","297.20000076293945","resources/trios/L1T4A2.jpg","38","restless",0.9,0.6,0.5,0.157602626574826,"true"
"image-keyboard-response",142,178792,"0.0-4.43-1.43","1v452ja587ru5xz",608,"115.csv","","null","resources/maskTrios/BT4B.jpg","null","",NA,NA,NA,NA,""
"image-keyboard-response",143,180001,"0.0-4.43-2.43","1v452ja587ru5xz",608,"115.csv","","null","resources/images/coin2.png","null","",NA,NA,NA,NA,""
"image-keyboard-response",144,180337,"0.0-4.44-0.44","1v452ja587ru5xz",608,"115.csv","","335.1999988555908","resources/trios/L1T4A2.jpg","38","restless",0.9,0.6,0.5,0.484300110150263,"true"
"image-keyboard-response",145,180740,"0.0-4.44-1.44","1v452ja587ru5xz",608,"115.csv","","null","resources/maskTrios/BT4B.jpg","null","",NA,NA,NA,NA,""
"image-keyboard-response",146,181948,"0.0-4.44-2.44","1v452ja587ru5xz",608,"115.csv","","null","resources/images/coin2.png","null","",NA,NA,NA,NA,""
"image-keyboard-response",147,182491,"0.0-4.45-0.45","1v452ja587ru5xz",608,"115.csv","","542.6000003814697","resources/trios/L1T4A2.jpg","37","restless",0.9,0.6,0.6,0.593577790563855,"true"
"image-keyboard-response",148,182905,"0.0-4.45-1.45","1v452ja587ru5xz",608,"115.csv","","null","resources/maskTrios/L1BB.jpg","null","",NA,NA,NA,NA,""
"image-keyboard-response",149,184119,"0.0-4.45-2.45","1v452ja587ru5xz",608,"115.csv","","null","resources/images/coin2.png","null","",NA,NA,NA,NA,""
"image-keyboard-response",150,184490,"0.0-4.46-0.46","1v452ja587ru5xz",608,"115.csv","","370.6000003814697","resources/trios/L1T4A2.jpg","37","restless",0.9,0.6,0.6,0.443079611213224,"true"
"image-keyboard-response",151,184904,"0.0-4.46-1.46","1v452ja587ru5xz",608,"115.csv","","null","resources/maskTrios/L1BB.jpg","null","",NA,NA,NA,NA,""
"image-keyboard-response",152,186113,"0.0-4.46-2.46","1v452ja587ru5xz",608,"115.csv","","null","resources/images/coin2.png","null","",NA,NA,NA,NA,""
"image-keyboard-response",153,186568,"0.0-4.47-0.47","1v452ja587ru5xz",608,"115.csv","","454.3000011444092","resources/trios/L1T4A2.jpg","39","restless",0.8,0.6,0.6,0.672484014495004,"false"
"image-keyboard-response",154,186972,"0.0-4.47-1.47","1v452ja587ru5xz",608,"115.csv","","null","resources/maskTrios/BBA2.jpg","null","",NA,NA,NA,NA,""
"image-keyboard-response",155,188189,"0.0-4.47-2.47","1v452ja587ru5xz",608,"115.csv","","null","resources/images/fishbone.png","null","",NA,NA,NA,NA,""
"image-keyboard-response",156,189403,"0.0-4.48-0.48","1v452ja587ru5xz",608,"115.csv","","1212.3999996185303","resources/trios/L1T4A2.jpg","38","restless",0.9,0.6,0.6,0.235243898430435,"true"
"image-keyboard-response",157,189813,"0.0-4.48-1.48","1v452ja587ru5xz",608,"115.csv","","null","resources/maskTrios/BT4B.jpg","null","",NA,NA,NA,NA,""
"image-keyboard-response",158,191024,"0.0-4.48-2.48","1v452ja587ru5xz",608,"115.csv","","null","resources/images/coin2.png","null","",NA,NA,NA,NA,""
"image-keyboard-response",159,191366,"0.0-4.49-0.49","1v452ja587ru5xz",608,"115.csv","","341.1000003814697","resources/trios/L1T4A2.jpg","38","restless",0.8,0.6,0.6,0.108130118137002,"true"
"image-keyboard-response",160,191768,"0.0-4.49-1.49","1v452ja587ru5xz",608,"115.csv","","null","resources/maskTrios/BT4B.jpg","null","",NA,NA,NA,NA,""
"image-keyboard-response",161,192974,"0.0-4.49-2.49","1v452ja587ru5xz",608,"115.csv","","null","resources/images/coin2.png","null","",NA,NA,NA,NA,""
"image-keyboard-response",162,194421,"0.0-4.50-0.50","1v452ja587ru5xz",608,"115.csv","","1446.3999996185303","resources/trios/L1T4A2.jpg","37","restless",0.8,0.6,0.6,0.615656975822927,"true"
"image-keyboard-response",163,194831,"0.0-4.50-1.50","1v452ja587ru5xz",608,"115.csv","","null","resources/maskTrios/L1BB.jpg","null","",NA,NA,NA,NA,""
"image-keyboard-response",164,196043,"0.0-4.50-2.50","1v452ja587ru5xz",608,"115.csv","","null","resources/images/coin2.png","null","",NA,NA,NA,NA,""
"image-keyboard-response",165,196518,"0.0-4.51-0.51","1v452ja587ru5xz",608,"115.csv","","474.20000076293945","resources/trios/L1T4A2.jpg","37","restless",0.8,0.6,0.6,0.362180431325079,"true"
"image-keyboard-response",166,196925,"0.0-4.51-1.51","1v452ja587ru5xz",608,"115.csv","","null","resources/maskTrios/L1BB.jpg","null","",NA,NA,NA,NA,""
"image-keyboard-response",167,198129,"0.0-4.51-2.51","1v452ja587ru5xz",608,"115.csv","","null","resources/images/coin2.png","null","",NA,NA,NA,NA,""
"image-keyboard-response",168,198546,"0.0-4.52-0.52","1v452ja587ru5xz",608,"115.csv","","416.20000076293945","resources/trios/L1T4A2.jpg","39","restless",0.8,0.5,0.6,0.169750713146797,"true"
"image-keyboard-response",169,198948,"0.0-4.52-1.52","1v452ja587ru5xz",608,"115.csv","","null","resources/maskTrios/BBA2.jpg","null","",NA,NA,NA,NA,""
"image-keyboard-response",170,200152,"0.0-4.52-2.52","1v452ja587ru5xz",608,"115.csv","","null","resources/images/coin2.png","null","",NA,NA,NA,NA,""
"image-keyboard-response",171,200586,"0.0-4.53-0.53","1v452ja587ru5xz",608,"115.csv","","432.29999923706055","resources/trios/L1T4A2.jpg","38","restless",0.8,0.5,0.6,0.280346322476292,"true"
"image-keyboard-response",172,201004,"0.0-4.53-1.53","1v452ja587ru5xz",608,"115.csv","","null","resources/maskTrios/BT4B.jpg","null","",NA,NA,NA,NA,""
"image-keyboard-response",173,202218,"0.0-4.53-2.53","1v452ja587ru5xz",608,"115.csv","","null","resources/images/coin2.png","null","",NA,NA,NA,NA,""
"image-keyboard-response",174,202577,"0.0-4.54-0.54","1v452ja587ru5xz",608,"115.csv","","358.29999923706055","resources/trios/L1T4A2.jpg","38","restless",0.8,0.5,0.6,0.513799434488304,"false"
"image-keyboard-response",175,202993,"0.0-4.54-1.54","1v452ja587ru5xz",608,"115.csv","","null","resources/maskTrios/BT4B.jpg","null","",NA,NA,NA,NA,""
"image-keyboard-response",176,204200,"0.0-4.54-2.54","1v452ja587ru5xz",608,"115.csv","","null","resources/images/fishbone.png","null","",NA,NA,NA,NA,""
"image-keyboard-response",177,204565,"0.0-4.55-0.55","1v452ja587ru5xz",608,"115.csv","","363.6000003814697","resources/trios/L1T4A2.jpg","37","restless",0.8,0.5,0.6,0.360993536938153,"true"
"image-keyboard-response",178,204972,"0.0-4.55-1.55","1v452ja587ru5xz",608,"115.csv","","null","resources/maskTrios/L1BB.jpg","null","",NA,NA,NA,NA,""
"image-keyboard-response",179,206173,"0.0-4.55-2.55","1v452ja587ru5xz",608,"115.csv","","null","resources/images/coin2.png","null","",NA,NA,NA,NA,""
"image-keyboard-response",180,207434,"0.0-4.56-0.56","1v452ja587ru5xz",608,"115.csv","","1259.099998474121","resources/trios/L1T4A2.jpg","39","restless",0.8,0.5,0.6,0.374576976508515,"true"
"image-keyboard-response",181,207840,"0.0-4.56-1.56","1v452ja587ru5xz",608,"115.csv","","null","resources/maskTrios/BBA2.jpg","null","",NA,NA,NA,NA,""
"image-keyboard-response",182,209052,"0.0-4.56-2.56","1v452ja587ru5xz",608,"115.csv","","null","resources/images/coin2.png","null","",NA,NA,NA,NA,""
"image-keyboard-response",183,209424,"0.0-4.57-0.57","1v452ja587ru5xz",608,"115.csv","","371.29999923706055","resources/trios/L1T4A2.jpg","38","restless",0.8,0.5,0.6,0.917209062163791,"false"
"image-keyboard-response",184,209833,"0.0-4.57-1.57","1v452ja587ru5xz",608,"115.csv","","null","resources/maskTrios/BT4B.jpg","null","",NA,NA,NA,NA,""
"image-keyboard-response",185,211039,"0.0-4.57-2.57","1v452ja587ru5xz",608,"115.csv","","null","resources/images/fishbone.png","null","",NA,NA,NA,NA,""
"image-keyboard-response",186,212358,"0.0-4.58-0.58","1v452ja587ru5xz",608,"115.csv","","1318","resources/trios/L1T4A2.jpg","37","restless",0.8,0.5,0.6,0.790089913113914,"true"
"image-keyboard-response",187,212763,"0.0-4.58-1.58","1v452ja587ru5xz",608,"115.csv","","null","resources/maskTrios/L1BB.jpg","null","",NA,NA,NA,NA,""
"image-keyboard-response",188,213973,"0.0-4.58-2.58","1v452ja587ru5xz",608,"115.csv","","null","resources/images/coin2.png","null","",NA,NA,NA,NA,""
"image-keyboard-response",189,217094,"0.0-4.59-0.59","1v452ja587ru5xz",608,"115.csv","","3118.7999992370605","resources/trios/L1T4A2.jpg","37","restless",0.8,0.5,0.6,0.670524990525355,"true"
"image-keyboard-response",190,217500,"0.0-4.59-1.59","1v452ja587ru5xz",608,"115.csv","","null","resources/maskTrios/L1BB.jpg","null","",NA,NA,NA,NA,""
"image-keyboard-response",191,218710,"0.0-4.59-2.59","1v452ja587ru5xz",608,"115.csv","","null","resources/images/coin2.png","null","",NA,NA,NA,NA,""
"image-keyboard-response",192,220565,"0.0-4.60-0.60","1v452ja587ru5xz",608,"115.csv","","1854.2000007629395","resources/trios/L1T4A2.jpg","39","restless",0.8,0.5,0.6,0.724963997319105,"false"
"image-keyboard-response",193,220978,"0.0-4.60-1.60","1v452ja587ru5xz",608,"115.csv","","null","resources/maskTrios/BBA2.jpg","null","",NA,NA,NA,NA,""
"image-keyboard-response",194,222182,"0.0-4.60-2.60","1v452ja587ru5xz",608,"115.csv","","null","resources/images/fishbone.png","null","",NA,NA,NA,NA,""
"image-keyboard-response",195,222864,"0.0-4.61-0.61","1v452ja587ru5xz",608,"115.csv","","680.8999996185303","resources/trios/L1T4A2.jpg","38","restless",0.7,0.5,0.6,0.256830453347711,"true"
"image-keyboard-response",196,223273,"0.0-4.61-1.61","1v452ja587ru5xz",608,"115.csv","","null","resources/maskTrios/BT4B.jpg","null","",NA,NA,NA,NA,""
"image-keyboard-response",197,224478,"0.0-4.61-2.61","1v452ja587ru5xz",608,"115.csv","","null","resources/images/coin2.png","null","",NA,NA,NA,NA,""
"image-keyboard-response",198,224890,"0.0-4.62-0.62","1v452ja587ru5xz",608,"115.csv","","410.4000015258789","resources/trios/L1T4A2.jpg","38","restless",0.7,0.5,0.6,0.480771770585586,"true"
"image-keyboard-response",199,225300,"0.0-4.62-1.62","1v452ja587ru5xz",608,"115.csv","","null","resources/maskTrios/BT4B.jpg","null","",NA,NA,NA,NA,""
"image-keyboard-response",200,226501,"0.0-4.62-2.62","1v452ja587ru5xz",608,"115.csv","","null","resources/images/coin2.png","null","",NA,NA,NA,NA,""
"image-keyboard-response",201,227081,"0.0-4.63-0.63","1v452ja587ru5xz",608,"115.csv","","578.3999996185303","resources/trios/L1T4A2.jpg","37","restless",0.7,0.5,0.6,0.791521117117885,"false"
"image-keyboard-response",202,227485,"0.0-4.63-1.63","1v452ja587ru5xz",608,"115.csv","","null","resources/maskTrios/L1BB.jpg","null","",NA,NA,NA,NA,""
"image-keyboard-response",203,228690,"0.0-4.63-2.63","1v452ja587ru5xz",608,"115.csv","","null","resources/images/fishbone.png","null","",NA,NA,NA,NA,""
"image-keyboard-response",204,229180,"0.0-4.64-0.64","1v452ja587ru5xz",608,"115.csv","","489.5","resources/trios/L1T4A2.jpg","37","restless",0.7,0.4,0.6,0.918186582871211,"false"
"image-keyboard-response",205,229589,"0.0-4.64-1.64","1v452ja587ru5xz",608,"115.csv","","null","resources/maskTrios/L1BB.jpg","null","",NA,NA,NA,NA,""
"image-keyboard-response",206,230802,"0.0-4.64-2.64","1v452ja587ru5xz",608,"115.csv","","null","resources/images/fishbone.png","null","",NA,NA,NA,NA,""
"image-keyboard-response",207,231160,"0.0-4.65-0.65","1v452ja587ru5xz",608,"115.csv","","356.79999923706055","resources/trios/L1T4A2.jpg","38","restless",0.7,0.4,0.6,0.965068911558827,"false"
"image-keyboard-response",208,231573,"0.0-4.65-1.65","1v452ja587ru5xz",608,"115.csv","","null","resources/maskTrios/BT4B.jpg","null","",NA,NA,NA,NA,""
"image-keyboard-response",209,232786,"0.0-4.65-2.65","1v452ja587ru5xz",608,"115.csv","","null","resources/images/fishbone.png","null","",NA,NA,NA,NA,""
"image-keyboard-response",210,233267,"0.0-4.66-0.66","1v452ja587ru5xz",608,"115.csv","","479.79999923706055","resources/trios/L1T4A2.jpg","38","restless",0.7,0.4,0.6,0.671585116275502,"false"
"image-keyboard-response",211,233673,"0.0-4.66-1.66","1v452ja587ru5xz",608,"115.csv","","null","resources/maskTrios/BT4B.jpg","null","",NA,NA,NA,NA,""
"image-keyboard-response",212,234884,"0.0-4.66-2.66","1v452ja587ru5xz",608,"115.csv","","null","resources/images/fishbone.png","null","",NA,NA,NA,NA,""
"image-keyboard-response",213,235190,"0.0-4.67-0.67","1v452ja587ru5xz",608,"115.csv","","304.3999996185303","resources/trios/L1T4A2.jpg","39","restless",0.7,0.4,0.6,0.56260721251504,"true"
"image-keyboard-response",214,235603,"0.0-4.67-1.67","1v452ja587ru5xz",608,"115.csv","","null","resources/maskTrios/BBA2.jpg","null","",NA,NA,NA,NA,""
"image-keyboard-response",215,236810,"0.0-4.67-2.67","1v452ja587ru5xz",608,"115.csv","","null","resources/images/coin2.png","null","",NA,NA,NA,NA,""
"image-keyboard-response",216,237625,"0.0-4.68-0.68","1v452ja587ru5xz",608,"115.csv","","813.3999996185303","resources/trios/L1T4A2.jpg","38","restless",0.7,0.4,0.7,0.129304817759833,"true"
"image-keyboard-response",217,238039,"0.0-4.68-1.68","1v452ja587ru5xz",608,"115.csv","","null","resources/maskTrios/BT4B.jpg","null","",NA,NA,NA,NA,""
"image-keyboard-response",218,239248,"0.0-4.68-2.68","1v452ja587ru5xz",608,"115.csv","","null","resources/images/coin2.png","null","",NA,NA,NA,NA,""
"image-keyboard-response",219,239547,"0.0-4.69-0.69","1v452ja587ru5xz",608,"115.csv","","297.3999996185303","resources/trios/L1T4A2.jpg","38","restless",0.7,0.4,0.7,0.893906911203896,"false"
"image-keyboard-response",220,239951,"0.0-4.69-1.69","1v452ja587ru5xz",608,"115.csv","","null","resources/maskTrios/BT4B.jpg","null","",NA,NA,NA,NA,""
"image-keyboard-response",221,241161,"0.0-4.69-2.69","1v452ja587ru5xz",608,"115.csv","","null","resources/images/fishbone.png","null","",NA,NA,NA,NA,""
"image-keyboard-response",222,241556,"0.0-4.70-0.70","1v452ja587ru5xz",608,"115.csv","","394.20000076293945","resources/trios/L1T4A2.jpg","37","restless",0.7,0.4,0.7,0.746886131199301,"false"
"image-keyboard-response",223,241969,"0.0-4.70-1.70","1v452ja587ru5xz",608,"115.csv","","null","resources/maskTrios/L1BB.jpg","null","",NA,NA,NA,NA,""
"image-keyboard-response",224,243173,"0.0-4.70-2.70","1v452ja587ru5xz",608,"115.csv","","null","resources/images/fishbone.png","null","",NA,NA,NA,NA,""
"image-keyboard-response",225,243480,"0.0-4.71-0.71","1v452ja587ru5xz",608,"115.csv","","305.1000003814697","resources/trios/L1T4A2.jpg","39","restless",0.7,0.4,0.6,0.663451228624377,"false"
"image-keyboard-response",226,243889,"0.0-4.71-1.71","1v452ja587ru5xz",608,"115.csv","","null","resources/maskTrios/BBA2.jpg","null","",NA,NA,NA,NA,""
"image-keyboard-response",227,245093,"0.0-4.71-2.71","1v452ja587ru5xz",608,"115.csv","","null","resources/images/fishbone.png","null","",NA,NA,NA,NA,""
"image-keyboard-response",228,245486,"0.0-4.72-0.72","1v452ja587ru5xz",608,"115.csv","","392","resources/trios/L1T4A2.jpg","38","restless",0.7,0.4,0.6,0.483652864413598,"false"
"image-keyboard-response",229,245894,"0.0-4.72-1.72","1v452ja587ru5xz",608,"115.csv","","null","resources/maskTrios/BT4B.jpg","null","",NA,NA,NA,NA,""
"image-keyboard-response",230,247102,"0.0-4.72-2.72","1v452ja587ru5xz",608,"115.csv","","null","resources/images/fishbone.png","null","",NA,NA,NA,NA,""
"image-keyboard-response",231,247902,"0.0-4.73-0.73","1v452ja587ru5xz",608,"115.csv","","798.5","resources/trios/L1T4A2.jpg","38","restless",0.7,0.4,0.6,0.655660075683774,"false"
"image-keyboard-response",232,248316,"0.0-4.73-1.73","1v452ja587ru5xz",608,"115.csv","","null","resources/maskTrios/BT4B.jpg","null","",NA,NA,NA,NA,""
"image-keyboard-response",233,249522,"0.0-4.73-2.73","1v452ja587ru5xz",608,"115.csv","","null","resources/images/fishbone.png","null","",NA,NA,NA,NA,""
"image-keyboard-response",234,249791,"0.0-4.74-0.74","1v452ja587ru5xz",608,"115.csv","","267.6000003814697","resources/trios/L1T4A2.jpg","38","restless",0.7,0.4,0.6,0.131393809561315,"true"
"image-keyboard-response",235,250200,"0.0-4.74-1.74","1v452ja587ru5xz",608,"115.csv","","null","resources/maskTrios/BT4B.jpg","null","",NA,NA,NA,NA,""
"image-keyboard-response",236,251413,"0.0-4.74-2.74","1v452ja587ru5xz",608,"115.csv","","null","resources/images/coin2.png","null","",NA,NA,NA,NA,""
"image-keyboard-response",237,251803,"0.0-4.75-0.75","1v452ja587ru5xz",608,"115.csv","","389.3999996185303","resources/trios/L1T4A2.jpg","38","restless",0.7,0.4,0.6,0.983369940824295,"false"
"image-keyboard-response",238,252207,"0.0-4.75-1.75","1v452ja587ru5xz",608,"115.csv","","null","resources/maskTrios/BT4B.jpg","null","",NA,NA,NA,NA,""
"image-keyboard-response",239,253410,"0.0-4.75-2.75","1v452ja587ru5xz",608,"115.csv","","null","resources/images/fishbone.png","null","",NA,NA,NA,NA,""
"image-keyboard-response",240,253840,"0.0-4.76-0.76","1v452ja587ru5xz",608,"115.csv","","429.3999996185303","resources/trios/L1T4A2.jpg","37","restless",0.7,0.4,0.6,0.533705926994353,"true"
"image-keyboard-response",241,254249,"0.0-4.76-1.76","1v452ja587ru5xz",608,"115.csv","","null","resources/maskTrios/L1BB.jpg","null","",NA,NA,NA,NA,""
"image-keyboard-response",242,255462,"0.0-4.76-2.76","1v452ja587ru5xz",608,"115.csv","","null","resources/images/coin2.png","null","",NA,NA,NA,NA,""
"image-keyboard-response",243,255792,"0.0-4.77-0.77","1v452ja587ru5xz",608,"115.csv","","329","resources/trios/L1T4A2.jpg","37","restless",0.6,0.4,0.6,0.265059385601841,"true"
"image-keyboard-response",244,256203,"0.0-4.77-1.77","1v452ja587ru5xz",608,"115.csv","","null","resources/maskTrios/L1BB.jpg","null","",NA,NA,NA,NA,""
"image-keyboard-response",245,257413,"0.0-4.77-2.77","1v452ja587ru5xz",608,"115.csv","","null","resources/images/coin2.png","null","",NA,NA,NA,NA,""
"image-keyboard-response",246,258395,"0.0-4.78-0.78","1v452ja587ru5xz",608,"115.csv","","981.1000003814697","resources/trios/L1T4A2.jpg","39","restless",0.6,0.4,0.6,0.0740302785357205,"true"
"image-keyboard-response",247,258803,"0.0-4.78-1.78","1v452ja587ru5xz",608,"115.csv","","null","resources/maskTrios/BBA2.jpg","null","",NA,NA,NA,NA,""
"image-keyboard-response",248,260013,"0.0-4.78-2.78","1v452ja587ru5xz",608,"115.csv","","null","resources/images/coin2.png","null","",NA,NA,NA,NA,""
"image-keyboard-response",249,261103,"0.0-4.79-0.79","1v452ja587ru5xz",608,"115.csv","","1088.8000011444092","resources/trios/L1T4A2.jpg","38","restless",0.5,0.4,0.6,0.868638649100074,"false"
"image-keyboard-response",250,261514,"0.0-4.79-1.79","1v452ja587ru5xz",608,"115.csv","","null","resources/maskTrios/BT4B.jpg","null","",NA,NA,NA,NA,""
"image-keyboard-response",251,262724,"0.0-4.79-2.79","1v452ja587ru5xz",608,"115.csv","","null","resources/images/fishbone.png","null","",NA,NA,NA,NA,""
"image-keyboard-response",252,263052,"0.0-4.80-0.80","1v452ja587ru5xz",608,"115.csv","","326.8999996185303","resources/trios/L1T4A2.jpg","38","restless",0.4,0.4,0.6,0.996777435181945,"false"
"image-keyboard-response",253,263461,"0.0-4.80-1.80","1v452ja587ru5xz",608,"115.csv","","null","resources/maskTrios/BT4B.jpg","null","",NA,NA,NA,NA,""
"image-keyboard-response",254,264672,"0.0-4.80-2.80","1v452ja587ru5xz",608,"115.csv","","null","resources/images/fishbone.png","null","",NA,NA,NA,NA,""
"image-keyboard-response",255,264925,"0.0-4.81-0.81","1v452ja587ru5xz",608,"115.csv","","251.79999923706055","resources/trios/L1T4A2.jpg","39","restless",0.4,0.4,0.6,0.521409030996226,"true"
"image-keyboard-response",256,265340,"0.0-4.81-1.81","1v452ja587ru5xz",608,"115.csv","","null","resources/maskTrios/BBA2.jpg","null","",NA,NA,NA,NA,""
"image-keyboard-response",257,266552,"0.0-4.81-2.81","1v452ja587ru5xz",608,"115.csv","","null","resources/images/coin2.png","null","",NA,NA,NA,NA,""
"image-keyboard-response",258,267197,"0.0-4.82-0.82","1v452ja587ru5xz",608,"115.csv","","644.2999992370605","resources/trios/L1T4A2.jpg","38","restless",0.4,0.4,0.6,0.554038019939463,"false"
"image-keyboard-response",259,267607,"0.0-4.82-1.82","1v452ja587ru5xz",608,"115.csv","","null","resources/maskTrios/BT4B.jpg","null","",NA,NA,NA,NA,""
"image-keyboard-response",260,268814,"0.0-4.82-2.82","1v452ja587ru5xz",608,"115.csv","","null","resources/images/fishbone.png","null","",NA,NA,NA,NA,""
"image-keyboard-response",261,269105,"0.0-4.83-0.83","1v452ja587ru5xz",608,"115.csv","","290","resources/trios/L1T4A2.jpg","39","restless",0.4,0.4,0.6,0.455342196106178,"true"
"image-keyboard-response",262,269518,"0.0-4.83-1.83","1v452ja587ru5xz",608,"115.csv","","null","resources/maskTrios/BBA2.jpg","null","",NA,NA,NA,NA,""
"image-keyboard-response",263,270723,"0.0-4.83-2.83","1v452ja587ru5xz",608,"115.csv","","null","resources/images/coin2.png","null","",NA,NA,NA,NA,""
"image-keyboard-response",264,271248,"0.0-4.84-0.84","1v452ja587ru5xz",608,"115.csv","","522.8999996185303","resources/trios/L1T4A2.jpg","38","restless",0.3,0.4,0.5,0.00806117015409225,"true"
"image-keyboard-response",265,271656,"0.0-4.84-1.84","1v452ja587ru5xz",608,"115.csv","","null","resources/maskTrios/BT4B.jpg","null","",NA,NA,NA,NA,""
"image-keyboard-response",266,272873,"0.0-4.84-2.84","1v452ja587ru5xz",608,"115.csv","","null","resources/images/coin2.png","null","",NA,NA,NA,NA,""
"image-keyboard-response",267,273550,"0.0-4.85-0.85","1v452ja587ru5xz",608,"115.csv","","675.3999996185303","resources/trios/L1T4A2.jpg","37","restless",0.3,0.5,0.5,0.153901946486237,"true"
"image-keyboard-response",268,273954,"0.0-4.85-1.85","1v452ja587ru5xz",608,"115.csv","","null","resources/maskTrios/L1BB.jpg","null","",NA,NA,NA,NA,""
"image-keyboard-response",269,275156,"0.0-4.85-2.85","1v452ja587ru5xz",608,"115.csv","","null","resources/images/coin2.png","null","",NA,NA,NA,NA,""
"image-keyboard-response",270,275549,"0.0-4.86-0.86","1v452ja587ru5xz",608,"115.csv","","390.79999923706055","resources/trios/L1T4A2.jpg","37","restless",0.3,0.5,0.5,0.172475157413459,"true"
"image-keyboard-response",271,275953,"0.0-4.86-1.86","1v452ja587ru5xz",608,"115.csv","","null","resources/maskTrios/L1BB.jpg","null","",NA,NA,NA,NA,""
"image-keyboard-response",272,277164,"0.0-4.86-2.86","1v452ja587ru5xz",608,"115.csv","","null","resources/images/coin2.png","null","",NA,NA,NA,NA,""
"image-keyboard-response",273,277571,"0.0-4.87-0.87","1v452ja587ru5xz",608,"115.csv","","406.3999996185303","resources/trios/L1T4A2.jpg","39","restless",0.3,0.5,0.5,0.637576900100082,"false"
"image-keyboard-response",274,277975,"0.0-4.87-1.87","1v452ja587ru5xz",608,"115.csv","","null","resources/maskTrios/BBA2.jpg","null","",NA,NA,NA,NA,""
"image-keyboard-response",275,279180,"0.0-4.87-2.87","1v452ja587ru5xz",608,"115.csv","","null","resources/images/fishbone.png","null","",NA,NA,NA,NA,""
"image-keyboard-response",276,279456,"0.0-4.88-0.88","1v452ja587ru5xz",608,"115.csv","","275.0999984741211","resources/trios/L1T4A2.jpg","37","restless",0.3,0.5,0.5,0.580488309450079,"false"
"image-keyboard-response",277,279861,"0.0-4.88-1.88","1v452ja587ru5xz",608,"115.csv","","null","resources/maskTrios/L1BB.jpg","null","",NA,NA,NA,NA,""
"image-keyboard-response",278,281076,"0.0-4.88-2.88","1v452ja587ru5xz",608,"115.csv","","null","resources/images/fishbone.png","null","",NA,NA,NA,NA,""
"image-keyboard-response",279,281371,"0.0-4.89-0.89","1v452ja587ru5xz",608,"115.csv","","294.70000076293945","resources/trios/L1T4A2.jpg","39","restless",0.3,0.5,0.5,0.973647507236773,"false"
"image-keyboard-response",280,281785,"0.0-4.89-1.89","1v452ja587ru5xz",608,"115.csv","","null","resources/maskTrios/BBA2.jpg","null","",NA,NA,NA,NA,""
"image-keyboard-response",281,282987,"0.0-4.89-2.89","1v452ja587ru5xz",608,"115.csv","","null","resources/images/fishbone.png","null","",NA,NA,NA,NA,""
"image-keyboard-response",282,283247,"0.0-4.90-0.90","1v452ja587ru5xz",608,"115.csv","","259.3999996185303","resources/trios/L1T4A2.jpg","38","restless",0.3,0.5,0.5,0.33993304150536,"true"
"image-keyboard-response",283,283658,"0.0-4.90-1.90","1v452ja587ru5xz",608,"115.csv","","null","resources/maskTrios/BT4B.jpg","null","",NA,NA,NA,NA,""
"image-keyboard-response",284,284874,"0.0-4.90-2.90","1v452ja587ru5xz",608,"115.csv","","null","resources/images/coin2.png","null","",NA,NA,NA,NA,""
"image-keyboard-response",285,285222,"0.0-4.91-0.91","1v452ja587ru5xz",608,"115.csv","","346.8999996185303","resources/trios/L1T4A2.jpg","38","restless",0.3,0.5,0.5,0.0323474869602816,"true"
"image-keyboard-response",286,285631,"0.0-4.91-1.91","1v452ja587ru5xz",608,"115.csv","","null","resources/maskTrios/BT4B.jpg","null","",NA,NA,NA,NA,""
"image-keyboard-response",287,286848,"0.0-4.91-2.91","1v452ja587ru5xz",608,"115.csv","","null","resources/images/coin2.png","null","",NA,NA,NA,NA,""
"image-keyboard-response",288,288399,"0.0-4.92-0.92","1v452ja587ru5xz",608,"115.csv","","1550","resources/trios/L1T4A2.jpg","38","restless",0.3,0.5,0.5,0.507413630781955,"false"
"image-keyboard-response",289,288803,"0.0-4.92-1.92","1v452ja587ru5xz",608,"115.csv","","null","resources/maskTrios/BT4B.jpg","null","",NA,NA,NA,NA,""
"image-keyboard-response",290,290009,"0.0-4.92-2.92","1v452ja587ru5xz",608,"115.csv","","null","resources/images/fishbone.png","null","",NA,NA,NA,NA,""
"image-keyboard-response",291,290817,"0.0-4.93-0.93","1v452ja587ru5xz",608,"115.csv","","806","resources/trios/L1T4A2.jpg","37","restless",0.3,0.5,0.5,0.061663659777724,"true"
"image-keyboard-response",292,291223,"0.0-4.93-1.93","1v452ja587ru5xz",608,"115.csv","","null","resources/maskTrios/L1BB.jpg","null","",NA,NA,NA,NA,""
"image-keyboard-response",293,292439,"0.0-4.93-2.93","1v452ja587ru5xz",608,"115.csv","","null","resources/images/coin2.png","null","",NA,NA,NA,NA,""
"image-keyboard-response",294,293186,"0.0-4.94-0.94","1v452ja587ru5xz",608,"115.csv","","746.2000007629395","resources/trios/L1T4A2.jpg","37","restless",0.3,0.5,0.5,0.793167427137781,"false"
"image-keyboard-response",295,293589,"0.0-4.94-1.94","1v452ja587ru5xz",608,"115.csv","","null","resources/maskTrios/L1BB.jpg","null","",NA,NA,NA,NA,""
"image-keyboard-response",296,294802,"0.0-4.94-2.94","1v452ja587ru5xz",608,"115.csv","","null","resources/images/fishbone.png","null","",NA,NA,NA,NA,""
"image-keyboard-response",297,295140,"0.0-4.95-0.95","1v452ja587ru5xz",608,"115.csv","","337.1999988555908","resources/trios/L1T4A2.jpg","39","restless",0.3,0.5,0.5,0.874311941974273,"false"
"image-keyboard-response",298,295549,"0.0-4.95-1.95","1v452ja587ru5xz",608,"115.csv","","null","resources/maskTrios/BBA2.jpg","null","",NA,NA,NA,NA,""
"image-keyboard-response",299,296752,"0.0-4.95-2.95","1v452ja587ru5xz",608,"115.csv","","null","resources/images/fishbone.png","null","",NA,NA,NA,NA,""
"image-keyboard-response",300,297037,"0.0-4.96-0.96","1v452ja587ru5xz",608,"115.csv","","283.5","resources/trios/L1T4A2.jpg","38","restless",0.3,0.4,0.5,0.299422344291137,"true"
"image-keyboard-response",301,297453,"0.0-4.96-1.96","1v452ja587ru5xz",608,"115.csv","","null","resources/maskTrios/BT4B.jpg","null","",NA,NA,NA,NA,""
"image-keyboard-response",302,298663,"0.0-4.96-2.96","1v452ja587ru5xz",608,"115.csv","","null","resources/images/coin2.png","null","",NA,NA,NA,NA,""
"image-keyboard-response",303,299176,"0.0-4.97-0.97","1v452ja587ru5xz",608,"115.csv","","511.20000076293945","resources/trios/L1T4A2.jpg","38","restless",0.3,0.4,0.5,0.30525758050696,"true"
"image-keyboard-response",304,299582,"0.0-4.97-1.97","1v452ja587ru5xz",608,"115.csv","","null","resources/maskTrios/BT4B.jpg","null","",NA,NA,NA,NA,""
"image-keyboard-response",305,300784,"0.0-4.97-2.97","1v452ja587ru5xz",608,"115.csv","","null","resources/images/coin2.png","null","",NA,NA,NA,NA,""
"image-keyboard-response",306,301098,"0.0-4.98-0.98","1v452ja587ru5xz",608,"115.csv","","313","resources/trios/L1T4A2.jpg","38","restless",0.3,0.4,0.5,0.4378652714078,"false"
"image-keyboard-response",307,301502,"0.0-4.98-1.98","1v452ja587ru5xz",608,"115.csv","","null","resources/maskTrios/BT4B.jpg","null","",NA,NA,NA,NA,""
"image-keyboard-response",308,302712,"0.0-4.98-2.98","1v452ja587ru5xz",608,"115.csv","","null","resources/images/fishbone.png","null","",NA,NA,NA,NA,""
"image-keyboard-response",309,302994,"0.0-4.99-0.99","1v452ja587ru5xz",608,"115.csv","","280.79999923706055","resources/trios/L1T4A2.jpg","37","restless",0.3,0.4,0.5,0.748406927821486,"false"
"image-keyboard-response",310,303400,"0.0-4.99-1.99","1v452ja587ru5xz",608,"115.csv","","null","resources/maskTrios/L1BB.jpg","null","",NA,NA,NA,NA,""
"image-keyboard-response",311,304603,"0.0-4.99-2.99","1v452ja587ru5xz",608,"115.csv","","null","resources/images/fishbone.png","null","",NA,NA,NA,NA,""
"image-keyboard-response",312,305383,"0.0-4.100-0.100","1v452ja587ru5xz",608,"115.csv","","784.2000007629395","resources/trios/L1T4A2.jpg","39","restless",0.3,0.4,0.5,0.177227797007528,"true"
"image-keyboard-response",313,305793,"0.0-4.100-1.100","1v452ja587ru5xz",608,"115.csv","","null","resources/maskTrios/BBA2.jpg","null","",NA,NA,NA,NA,""
"image-keyboard-response",314,307003,"0.0-4.100-2.100","1v452ja587ru5xz",608,"115.csv","","null","resources/images/coin2.png","null","",NA,NA,NA,NA,""
"image-keyboard-response",315,307531,"0.0-4.101-0.101","1v452ja587ru5xz",608,"115.csv","","527.7999992370605","resources/trios/L1T4A2.jpg","39","restless",0.3,0.4,0.5,0.0951845158549867,"true"
"image-keyboard-response",316,307936,"0.0-4.101-1.101","1v452ja587ru5xz",608,"115.csv","","null","resources/maskTrios/BBA2.jpg","null","",NA,NA,NA,NA,""
"image-keyboard-response",317,309137,"0.0-4.101-2.101","1v452ja587ru5xz",608,"115.csv","","null","resources/images/coin2.png","null","",NA,NA,NA,NA,""
"image-keyboard-response",318,309413,"0.0-4.102-0.102","1v452ja587ru5xz",608,"115.csv","","274.8999996185303","resources/trios/L1T4A2.jpg","38","restless",0.3,0.4,0.5,0.61042987523482,"false"
"image-keyboard-response",319,309818,"0.0-4.102-1.102","1v452ja587ru5xz",608,"115.csv","","null","resources/maskTrios/BT4B.jpg","null","",NA,NA,NA,NA,""
"image-keyboard-response",320,311020,"0.0-4.102-2.102","1v452ja587ru5xz",608,"115.csv","","null","resources/images/fishbone.png","null","",NA,NA,NA,NA,""
"image-keyboard-response",321,311249,"0.0-4.103-0.103","1v452ja587ru5xz",608,"115.csv","","228.39999961853027","resources/trios/L1T4A2.jpg","39","restless",0.3,0.4,0.5,0.307558714915426,"true"
"image-keyboard-response",322,311661,"0.0-4.103-1.103","1v452ja587ru5xz",608,"115.csv","","null","resources/maskTrios/BBA2.jpg","null","",NA,NA,NA,NA,""
"image-keyboard-response",323,312870,"0.0-4.103-2.103","1v452ja587ru5xz",608,"115.csv","","null","resources/images/coin2.png","null","",NA,NA,NA,NA,""
"image-keyboard-response",324,313226,"0.0-4.104-0.104","1v452ja587ru5xz",608,"115.csv","","354.5999984741211","resources/trios/L1T4A2.jpg","38","restless",0.3,0.4,0.6,0.165175292477636,"true"
"image-keyboard-response",325,313642,"0.0-4.104-1.104","1v452ja587ru5xz",608,"115.csv","","null","resources/maskTrios/BT4B.jpg","null","",NA,NA,NA,NA,""
"image-keyboard-response",326,314845,"0.0-4.104-2.104","1v452ja587ru5xz",608,"115.csv","","null","resources/images/coin2.png","null","",NA,NA,NA,NA,""
"image-keyboard-response",327,315144,"0.0-4.105-0.105","1v452ja587ru5xz",608,"115.csv","","298.3000011444092","resources/trios/L1T4A2.jpg","38","restless",0.3,0.4,0.6,0.467889308045804,"false"
"image-keyboard-response",328,315560,"0.0-4.105-1.105","1v452ja587ru5xz",608,"115.csv","","null","resources/maskTrios/BT4B.jpg","null","",NA,NA,NA,NA,""
"image-keyboard-response",329,316770,"0.0-4.105-2.105","1v452ja587ru5xz",608,"115.csv","","null","resources/images/fishbone.png","null","",NA,NA,NA,NA,""
"image-keyboard-response",330,317824,"0.0-4.106-0.106","1v452ja587ru5xz",608,"115.csv","","1053.3999996185303","resources/trios/L1T4A2.jpg","37","restless",0.3,0.4,0.7,0.827035775347065,"false"
"image-keyboard-response",331,318229,"0.0-4.106-1.106","1v452ja587ru5xz",608,"115.csv","","null","resources/maskTrios/L1BB.jpg","null","",NA,NA,NA,NA,""
"image-keyboard-response",332,319444,"0.0-4.106-2.106","1v452ja587ru5xz",608,"115.csv","","null","resources/images/fishbone.png","null","",NA,NA,NA,NA,""
"image-keyboard-response",333,319833,"0.0-4.107-0.107","1v452ja587ru5xz",608,"115.csv","","388","resources/trios/L1T4A2.jpg","39","restless",0.3,0.4,0.7,0.532291733490954,"true"
"image-keyboard-response",334,320248,"0.0-4.107-1.107","1v452ja587ru5xz",608,"115.csv","","null","resources/maskTrios/BBA2.jpg","null","",NA,NA,NA,NA,""
"image-keyboard-response",335,321452,"0.0-4.107-2.107","1v452ja587ru5xz",608,"115.csv","","null","resources/images/coin2.png","null","",NA,NA,NA,NA,""
"image-keyboard-response",336,321841,"0.0-4.108-0.108","1v452ja587ru5xz",608,"115.csv","","387.6999988555908","resources/trios/L1T4A2.jpg","39","restless",0.3,0.4,0.7,0.769166525871847,"false"
"image-keyboard-response",337,322248,"0.0-4.108-1.108","1v452ja587ru5xz",608,"115.csv","","null","resources/maskTrios/BBA2.jpg","null","",NA,NA,NA,NA,""
"image-keyboard-response",338,323458,"0.0-4.108-2.108","1v452ja587ru5xz",608,"115.csv","","null","resources/images/fishbone.png","null","",NA,NA,NA,NA,""
"image-keyboard-response",339,324440,"0.0-4.109-0.109","1v452ja587ru5xz",608,"115.csv","","981.1999988555908","resources/trios/L1T4A2.jpg","38","restless",0.3,0.4,0.6,0.586105347807401,"false"
"image-keyboard-response",340,324858,"0.0-4.109-1.109","1v452ja587ru5xz",608,"115.csv","","null","resources/maskTrios/BT4B.jpg","null","",NA,NA,NA,NA,""
"image-keyboard-response",341,326059,"0.0-4.109-2.109","1v452ja587ru5xz",608,"115.csv","","null","resources/images/fishbone.png","null","",NA,NA,NA,NA,""
"image-keyboard-response",342,326661,"0.0-4.110-0.110","1v452ja587ru5xz",608,"115.csv","","601.8999996185303","resources/trios/L1T4A2.jpg","37","restless",0.3,0.4,0.6,0.0134391978529029,"true"
"image-keyboard-response",343,327075,"0.0-4.110-1.110","1v452ja587ru5xz",608,"115.csv","","null","resources/maskTrios/L1BB.jpg","null","",NA,NA,NA,NA,""
"image-keyboard-response",344,328277,"0.0-4.110-2.110","1v452ja587ru5xz",608,"115.csv","","null","resources/images/coin2.png","null","",NA,NA,NA,NA,""
"image-keyboard-response",345,328666,"0.0-4.111-0.111","1v452ja587ru5xz",608,"115.csv","","388.29999923706055","resources/trios/L1T4A2.jpg","37","restless",0.3,0.4,0.7,0.741900018188533,"false"
"image-keyboard-response",346,329068,"0.0-4.111-1.111","1v452ja587ru5xz",608,"115.csv","","null","resources/maskTrios/L1BB.jpg","null","",NA,NA,NA,NA,""
"image-keyboard-response",347,330281,"0.0-4.111-2.111","1v452ja587ru5xz",608,"115.csv","","null","resources/images/fishbone.png","null","",NA,NA,NA,NA,""
"image-keyboard-response",348,330779,"0.0-4.112-0.112","1v452ja587ru5xz",608,"115.csv","","497.3000011444092","resources/trios/L1T4A2.jpg","39","restless",0.3,0.4,0.7,0.950949965138784,"false"
"image-keyboard-response",349,331188,"0.0-4.112-1.112","1v452ja587ru5xz",608,"115.csv","","null","resources/maskTrios/BBA2.jpg","null","",NA,NA,NA,NA,""
"image-keyboard-response",350,332396,"0.0-4.112-2.112","1v452ja587ru5xz",608,"115.csv","","null","resources/images/fishbone.png","null","",NA,NA,NA,NA,""
"image-keyboard-response",351,332686,"0.0-4.113-0.113","1v452ja587ru5xz",608,"115.csv","","288.29999923706055","resources/trios/L1T4A2.jpg","38","restless",0.3,0.4,0.7,0.941856355407159,"false"
"image-keyboard-response",352,333092,"0.0-4.113-1.113","1v452ja587ru5xz",608,"115.csv","","null","resources/maskTrios/BT4B.jpg","null","",NA,NA,NA,NA,""
"image-keyboard-response",353,334308,"0.0-4.113-2.113","1v452ja587ru5xz",608,"115.csv","","null","resources/images/fishbone.png","null","",NA,NA,NA,NA,""
"image-keyboard-response",354,334590,"0.0-4.114-0.114","1v452ja587ru5xz",608,"115.csv","","280.5","resources/trios/L1T4A2.jpg","38","restless",0.3,0.4,0.7,0.463307568580663,"false"
"image-keyboard-response",355,334998,"0.0-4.114-1.114","1v452ja587ru5xz",608,"115.csv","","null","resources/maskTrios/BT4B.jpg","null","",NA,NA,NA,NA,""
"image-keyboard-response",356,336207,"0.0-4.114-2.114","1v452ja587ru5xz",608,"115.csv","","null","resources/images/fishbone.png","null","",NA,NA,NA,NA,""
"image-keyboard-response",357,336446,"0.0-4.115-0.115","1v452ja587ru5xz",608,"115.csv","","236.9000015258789","resources/trios/L1T4A2.jpg","37","restless",0.3,0.4,0.7,0.361151868074998,"false"
"image-keyboard-response",358,336856,"0.0-4.115-1.115","1v452ja587ru5xz",608,"115.csv","","null","resources/maskTrios/L1BB.jpg","null","",NA,NA,NA,NA,""
"image-keyboard-response",359,338062,"0.0-4.115-2.115","1v452ja587ru5xz",608,"115.csv","","null","resources/images/fishbone.png","null","",NA,NA,NA,NA,""
"image-keyboard-response",360,338363,"0.0-4.116-0.116","1v452ja587ru5xz",608,"115.csv","","299.8000011444092","resources/trios/L1T4A2.jpg","39","restless",0.3,0.4,0.7,0.154150372714524,"true"
"image-keyboard-response",361,338768,"0.0-4.116-1.116","1v452ja587ru5xz",608,"115.csv","","null","resources/maskTrios/BBA2.jpg","null","",NA,NA,NA,NA,""
"image-keyboard-response",362,339973,"0.0-4.116-2.116","1v452ja587ru5xz",608,"115.csv","","null","resources/images/coin2.png","null","",NA,NA,NA,NA,""
"image-keyboard-response",363,340449,"0.0-4.117-0.117","1v452ja587ru5xz",608,"115.csv","","474.6000003814697","resources/trios/L1T4A2.jpg","39","restless",0.3,0.4,0.7,0.809985783263901,"false"
"image-keyboard-response",364,340856,"0.0-4.117-1.117","1v452ja587ru5xz",608,"115.csv","","null","resources/maskTrios/BBA2.jpg","null","",NA,NA,NA,NA,""
"image-keyboard-response",365,342068,"0.0-4.117-2.117","1v452ja587ru5xz",608,"115.csv","","null","resources/images/fishbone.png","null","",NA,NA,NA,NA,""
"image-keyboard-response",366,342361,"0.0-4.118-0.118","1v452ja587ru5xz",608,"115.csv","","292","resources/trios/L1T4A2.jpg","37","restless",0.3,0.4,0.7,0.841555407048887,"false"
"image-keyboard-response",367,342768,"0.0-4.118-1.118","1v452ja587ru5xz",608,"115.csv","","null","resources/maskTrios/L1BB.jpg","null","",NA,NA,NA,NA,""
"image-keyboard-response",368,343983,"0.0-4.118-2.118","1v452ja587ru5xz",608,"115.csv","","null","resources/images/fishbone.png","null","",NA,NA,NA,NA,""
"image-keyboard-response",369,344273,"0.0-4.119-0.119","1v452ja587ru5xz",608,"115.csv","","289.1999988555908","resources/trios/L1T4A2.jpg","38","restless",0.4,0.4,0.7,0.886286228026959,"false"
"image-keyboard-response",370,344683,"0.0-4.119-1.119","1v452ja587ru5xz",608,"115.csv","","null","resources/maskTrios/BT4B.jpg","null","",NA,NA,NA,NA,""
"image-keyboard-response",371,345890,"0.0-4.119-2.119","1v452ja587ru5xz",608,"115.csv","","null","resources/images/fishbone.png","null","",NA,NA,NA,NA,""
"image-keyboard-response",372,346182,"0.0-4.120-0.120","1v452ja587ru5xz",608,"115.csv","","290.6999988555908","resources/trios/L1T4A2.jpg","39","restless",0.3,0.4,0.7,0.540964735836201,"true"
"image-keyboard-response",373,346583,"0.0-4.120-1.120","1v452ja587ru5xz",608,"115.csv","","null","resources/maskTrios/BBA2.jpg","null","",NA,NA,NA,NA,""
"image-keyboard-response",374,347796,"0.0-4.120-2.120","1v452ja587ru5xz",608,"115.csv","","null","resources/images/coin2.png","null","",NA,NA,NA,NA,""
"image-keyboard-response",375,348473,"0.0-4.121-0.121","1v452ja587ru5xz",608,"115.csv","","675","resources/trios/L1T4A2.jpg","39","restless",0.3,0.4,0.7,0.681409303047029,"true"
"image-keyboard-response",376,348883,"0.0-4.121-1.121","1v452ja587ru5xz",608,"115.csv","","null","resources/maskTrios/BBA2.jpg","null","",NA,NA,NA,NA,""
"image-keyboard-response",377,350096,"0.0-4.121-2.121","1v452ja587ru5xz",608,"115.csv","","null","resources/images/coin2.png","null","",NA,NA,NA,NA,""
"image-keyboard-response",378,351060,"0.0-4.122-0.122","1v452ja587ru5xz",608,"115.csv","","961.8999996185303","resources/trios/L1T4A2.jpg","37","restless",0.3,0.4,0.8,0.399470617528599,"false"
"image-keyboard-response",379,351466,"0.0-4.122-1.122","1v452ja587ru5xz",608,"115.csv","","null","resources/maskTrios/L1BB.jpg","null","",NA,NA,NA,NA,""
"image-keyboard-response",380,352669,"0.0-4.122-2.122","1v452ja587ru5xz",608,"115.csv","","null","resources/images/fishbone.png","null","",NA,NA,NA,NA,""
"image-keyboard-response",381,352906,"0.0-4.123-0.123","1v452ja587ru5xz",608,"115.csv","","235.39999961853027","resources/trios/L1T4A2.jpg","39","restless",0.3,0.4,0.8,0.573456320619274,"true"
"image-keyboard-response",382,353318,"0.0-4.123-1.123","1v452ja587ru5xz",608,"115.csv","","null","resources/maskTrios/BBA2.jpg","null","",NA,NA,NA,NA,""
"image-keyboard-response",383,354531,"0.0-4.123-2.123","1v452ja587ru5xz",608,"115.csv","","null","resources/images/coin2.png","null","",NA,NA,NA,NA,""
"image-keyboard-response",384,354865,"0.0-4.124-0.124","1v452ja587ru5xz",608,"115.csv","","332.5999984741211","resources/trios/L1T4A2.jpg","37","restless",0.3,0.4,0.8,0.306225178472786,"false"
"image-keyboard-response",385,355267,"0.0-4.124-1.124","1v452ja587ru5xz",608,"115.csv","","null","resources/maskTrios/L1BB.jpg","null","",NA,NA,NA,NA,""
"image-keyboard-response",386,356478,"0.0-4.124-2.124","1v452ja587ru5xz",608,"115.csv","","null","resources/images/fishbone.png","null","",NA,NA,NA,NA,""
"image-keyboard-response",387,356777,"0.0-4.125-0.125","1v452ja587ru5xz",608,"115.csv","","298.0999984741211","resources/trios/L1T4A2.jpg","39","restless",0.3,0.4,0.8,0.907891683139395,"false"
"image-keyboard-response",388,357183,"0.0-4.125-1.125","1v452ja587ru5xz",608,"115.csv","","null","resources/maskTrios/BBA2.jpg","null","",NA,NA,NA,NA,""
"image-keyboard-response",389,358386,"0.0-4.125-2.125","1v452ja587ru5xz",608,"115.csv","","null","resources/images/fishbone.png","null","",NA,NA,NA,NA,""
"image-keyboard-response",390,358636,"0.0-4.126-0.126","1v452ja587ru5xz",608,"115.csv","","248.60000038146973","resources/trios/L1T4A2.jpg","38","restless",0.3,0.4,0.8,0.394022139972724,"true"
"image-keyboard-response",391,359047,"0.0-4.126-1.126","1v452ja587ru5xz",608,"115.csv","","null","resources/maskTrios/BT4B.jpg","null","",NA,NA,NA,NA,""
"image-keyboard-response",392,360262,"0.0-4.126-2.126","1v452ja587ru5xz",608,"115.csv","","null","resources/images/coin2.png","null","",NA,NA,NA,NA,""
"image-keyboard-response",393,360701,"0.0-4.127-0.127","1v452ja587ru5xz",608,"115.csv","","437.6000003814697","resources/trios/L1T4A2.jpg","38","restless",0.3,0.4,0.7,0.276693205092929,"true"
"image-keyboard-response",394,361107,"0.0-4.127-1.127","1v452ja587ru5xz",608,"115.csv","","null","resources/maskTrios/BT4B.jpg","null","",NA,NA,NA,NA,""
"image-keyboard-response",395,362317,"0.0-4.127-2.127","1v452ja587ru5xz",608,"115.csv","","null","resources/images/coin2.png","null","",NA,NA,NA,NA,""
"image-keyboard-response",396,363799,"0.0-4.128-0.128","1v452ja587ru5xz",608,"115.csv","","1480.6999988555908","resources/trios/L1T4A2.jpg","38","restless",0.3,0.4,0.6,0.296934265080834,"true"
"image-keyboard-response",397,364208,"0.0-4.128-1.128","1v452ja587ru5xz",608,"115.csv","","null","resources/maskTrios/BT4B.jpg","null","",NA,NA,NA,NA,""
"image-keyboard-response",398,365419,"0.0-4.128-2.128","1v452ja587ru5xz",608,"115.csv","","null","resources/images/coin2.png","null","",NA,NA,NA,NA,""
"image-keyboard-response",399,366293,"0.0-4.129-0.129","1v452ja587ru5xz",608,"115.csv","","873.1000003814697","resources/trios/L1T4A2.jpg","37","restless",0.3,0.5,0.6,0.664721964150675,"false"
"image-keyboard-response",400,366703,"0.0-4.129-1.129","1v452ja587ru5xz",608,"115.csv","","null","resources/maskTrios/L1BB.jpg","null","",NA,NA,NA,NA,""
"image-keyboard-response",401,367922,"0.0-4.129-2.129","1v452ja587ru5xz",608,"115.csv","","null","resources/images/fishbone.png","null","",NA,NA,NA,NA,""
"image-keyboard-response",402,368196,"0.0-4.130-0.130","1v452ja587ru5xz",608,"115.csv","","272.4000015258789","resources/trios/L1T4A2.jpg","38","restless",0.3,0.5,0.6,0.686424369184474,"false"
"image-keyboard-response",403,368598,"0.0-4.130-1.130","1v452ja587ru5xz",608,"115.csv","","null","resources/maskTrios/BT4B.jpg","null","",NA,NA,NA,NA,""
"image-keyboard-response",404,369802,"0.0-4.130-2.130","1v452ja587ru5xz",608,"115.csv","","null","resources/images/fishbone.png","null","",NA,NA,NA,NA,""
"image-keyboard-response",405,370113,"0.0-4.131-0.131","1v452ja587ru5xz",608,"115.csv","","310.1000003814697","resources/trios/L1T4A2.jpg","39","restless",0.3,0.5,0.6,0.0915011814098885,"true"
"image-keyboard-response",406,370522,"0.0-4.131-1.131","1v452ja587ru5xz",608,"115.csv","","null","resources/maskTrios/BBA2.jpg","null","",NA,NA,NA,NA,""
"image-keyboard-response",407,371724,"0.0-4.131-2.131","1v452ja587ru5xz",608,"115.csv","","null","resources/images/coin2.png","null","",NA,NA,NA,NA,""
"image-keyboard-response",408,373110,"0.0-4.132-0.132","1v452ja587ru5xz",608,"115.csv","","1384.8999996185303","resources/trios/L1T4A2.jpg","39","restless",0.2,0.5,0.6,0.893500286407755,"false"
"image-keyboard-response",409,373523,"0.0-4.132-1.132","1v452ja587ru5xz",608,"115.csv","","null","resources/maskTrios/BBA2.jpg","null","",NA,NA,NA,NA,""
"image-keyboard-response",410,374727,"0.0-4.132-2.132","1v452ja587ru5xz",608,"115.csv","","null","resources/images/fishbone.png","null","",NA,NA,NA,NA,""
"image-keyboard-response",411,375062,"0.0-4.133-0.133","1v452ja587ru5xz",608,"115.csv","","333.20000076293945","resources/trios/L1T4A2.jpg","38","restless",0.2,0.5,0.6,0.232860899155375,"true"
"image-keyboard-response",412,375464,"0.0-4.133-1.133","1v452ja587ru5xz",608,"115.csv","","null","resources/maskTrios/BT4B.jpg","null","",NA,NA,NA,NA,""
"image-keyboard-response",413,376668,"0.0-4.133-2.133","1v452ja587ru5xz",608,"115.csv","","null","resources/images/coin2.png","null","",NA,NA,NA,NA,""
"image-keyboard-response",414,377721,"0.0-4.134-0.134","1v452ja587ru5xz",608,"115.csv","","1051","resources/trios/L1T4A2.jpg","38","restless",0.2,0.5,0.6,0.82981375834942,"false"
"image-keyboard-response",415,378133,"0.0-4.134-1.134","1v452ja587ru5xz",608,"115.csv","","null","resources/maskTrios/BT4B.jpg","null","",NA,NA,NA,NA,""
"image-keyboard-response",416,379338,"0.0-4.134-2.134","1v452ja587ru5xz",608,"115.csv","","null","resources/images/fishbone.png","null","",NA,NA,NA,NA,""
"image-keyboard-response",417,380144,"0.0-4.135-0.135","1v452ja587ru5xz",608,"115.csv","","805","resources/trios/L1T4A2.jpg","37","restless",0.2,0.5,0.6,0.73164958736441,"false"
"image-keyboard-response",418,380551,"0.0-4.135-1.135","1v452ja587ru5xz",608,"115.csv","","null","resources/maskTrios/L1BB.jpg","null","",NA,NA,NA,NA,""
"image-keyboard-response",419,381757,"0.0-4.135-2.135","1v452ja587ru5xz",608,"115.csv","","null","resources/images/fishbone.png","null","",NA,NA,NA,NA,""
"image-keyboard-response",420,382069,"0.0-4.136-0.136","1v452ja587ru5xz",608,"115.csv","","310.8999996185303","resources/trios/L1T4A2.jpg","39","restless",0.2,0.5,0.6,0.632619222025781,"false"
"image-keyboard-response",421,382471,"0.0-4.136-1.136","1v452ja587ru5xz",608,"115.csv","","null","resources/maskTrios/BBA2.jpg","null","",NA,NA,NA,NA,""
"image-keyboard-response",422,383676,"0.0-4.136-2.136","1v452ja587ru5xz",608,"115.csv","","null","resources/images/fishbone.png","null","",NA,NA,NA,NA,""
"image-keyboard-response",423,384025,"0.0-4.137-0.137","1v452ja587ru5xz",608,"115.csv","","348.1999988555908","resources/trios/L1T4A2.jpg","38","restless",0.2,0.5,0.6,0.79914437160776,"false"
"image-keyboard-response",424,384436,"0.0-4.137-1.137","1v452ja587ru5xz",608,"115.csv","","null","resources/maskTrios/BT4B.jpg","null","",NA,NA,NA,NA,""
"image-keyboard-response",425,385642,"0.0-4.137-2.137","1v452ja587ru5xz",608,"115.csv","","null","resources/images/fishbone.png","null","",NA,NA,NA,NA,""
"image-keyboard-response",426,385923,"0.0-4.138-0.138","1v452ja587ru5xz",608,"115.csv","","280.5","resources/trios/L1T4A2.jpg","39","restless",0.2,0.5,0.6,0.535419587614824,"true"
"image-keyboard-response",427,386332,"0.0-4.138-1.138","1v452ja587ru5xz",608,"115.csv","","null","resources/maskTrios/BBA2.jpg","null","",NA,NA,NA,NA,""
"image-keyboard-response",428,387547,"0.0-4.138-2.138","1v452ja587ru5xz",608,"115.csv","","null","resources/images/coin2.png","null","",NA,NA,NA,NA,""
"image-keyboard-response",429,388007,"0.0-4.139-0.139","1v452ja587ru5xz",608,"115.csv","","458.79999923706055","resources/trios/L1T4A2.jpg","39","restless",0.2,0.5,0.6,0.253666661924413,"true"
"image-keyboard-response",430,388417,"0.0-4.139-1.139","1v452ja587ru5xz",608,"115.csv","","null","resources/maskTrios/BBA2.jpg","null","",NA,NA,NA,NA,""
"image-keyboard-response",431,389621,"0.0-4.139-2.139","1v452ja587ru5xz",608,"115.csv","","null","resources/images/coin2.png","null","",NA,NA,NA,NA,""
"image-keyboard-response",432,390823,"0.0-4.140-0.140","1v452ja587ru5xz",608,"115.csv","","1200.8999996185303","resources/trios/L1T4A2.jpg","39","restless",0.2,0.4,0.5,0.0402242248464415,"true"
"image-keyboard-response",433,391227,"0.0-4.140-1.140","1v452ja587ru5xz",608,"115.csv","","null","resources/maskTrios/BBA2.jpg","null","",NA,NA,NA,NA,""
"image-keyboard-response",434,392439,"0.0-4.140-2.140","1v452ja587ru5xz",608,"115.csv","","null","resources/images/coin2.png","null","",NA,NA,NA,NA,""
"image-keyboard-response",435,393834,"0.0-4.141-0.141","1v452ja587ru5xz",608,"115.csv","","1393.1000003814697","resources/trios/L1T4A2.jpg","38","restless",0.2,0.4,0.5,0.503138031290068,"false"
"image-keyboard-response",436,394244,"0.0-4.141-1.141","1v452ja587ru5xz",608,"115.csv","","null","resources/maskTrios/BT4B.jpg","null","",NA,NA,NA,NA,""
"image-keyboard-response",437,395448,"0.0-4.141-2.141","1v452ja587ru5xz",608,"115.csv","","null","resources/images/fishbone.png","null","",NA,NA,NA,NA,""
"image-keyboard-response",438,395844,"0.0-4.142-0.142","1v452ja587ru5xz",608,"115.csv","","394.8999996185303","resources/trios/L1T4A2.jpg","37","restless",0.2,0.4,0.5,0.650881489490406,"false"
"image-keyboard-response",439,396245,"0.0-4.142-1.142","1v452ja587ru5xz",608,"115.csv","","null","resources/maskTrios/L1BB.jpg","null","",NA,NA,NA,NA,""
"image-keyboard-response",440,397460,"0.0-4.142-2.142","1v452ja587ru5xz",608,"115.csv","","null","resources/images/fishbone.png","null","",NA,NA,NA,NA,""
"image-keyboard-response",441,397804,"0.0-4.143-0.143","1v452ja587ru5xz",608,"115.csv","","343.20000076293945","resources/trios/L1T4A2.jpg","39","restless",0.2,0.4,0.4,0.891002698600156,"false"
"image-keyboard-response",442,398212,"0.0-4.143-1.143","1v452ja587ru5xz",608,"115.csv","","null","resources/maskTrios/BBA2.jpg","null","",NA,NA,NA,NA,""
"image-keyboard-response",443,399419,"0.0-4.143-2.143","1v452ja587ru5xz",608,"115.csv","","null","resources/images/fishbone.png","null","",NA,NA,NA,NA,""
"image-keyboard-response",444,399934,"0.0-4.144-0.144","1v452ja587ru5xz",608,"115.csv","","514.6000003814697","resources/trios/L1T4A2.jpg","38","restless",0.2,0.4,0.4,0.851752156944347,"false"
"image-keyboard-response",445,400336,"0.0-4.144-1.144","1v452ja587ru5xz",608,"115.csv","","null","resources/maskTrios/BT4B.jpg","null","",NA,NA,NA,NA,""
"image-keyboard-response",446,401543,"0.0-4.144-2.144","1v452ja587ru5xz",608,"115.csv","","null","resources/images/fishbone.png","null","",NA,NA,NA,NA,""
"image-keyboard-response",447,401838,"0.0-4.145-0.145","1v452ja587ru5xz",608,"115.csv","","293.29999923706055","resources/trios/L1T4A2.jpg","37","restless",0.2,0.4,0.4,0.567254215374491,"false"
"image-keyboard-response",448,402242,"0.0-4.145-1.145","1v452ja587ru5xz",608,"115.csv","","null","resources/maskTrios/L1BB.jpg","null","",NA,NA,NA,NA,""
"image-keyboard-response",449,403452,"0.0-4.145-2.145","1v452ja587ru5xz",608,"115.csv","","null","resources/images/fishbone.png","null","",NA,NA,NA,NA,""
"image-keyboard-response",450,403734,"0.0-4.146-0.146","1v452ja587ru5xz",608,"115.csv","","280.70000076293945","resources/trios/L1T4A2.jpg","39","restless",0.3,0.4,0.4,0.544329843897156,"false"
"image-keyboard-response",451,404152,"0.0-4.146-1.146","1v452ja587ru5xz",608,"115.csv","","null","resources/maskTrios/BBA2.jpg","null","",NA,NA,NA,NA,""
"image-keyboard-response",452,405360,"0.0-4.146-2.146","1v452ja587ru5xz",608,"115.csv","","null","resources/images/fishbone.png","null","",NA,NA,NA,NA,""
"image-keyboard-response",453,405598,"0.0-4.147-0.147","1v452ja587ru5xz",608,"115.csv","","236.4000015258789","resources/trios/L1T4A2.jpg","39","restless",0.3,0.4,0.4,0.126219935777899,"true"
"image-keyboard-response",454,406005,"0.0-4.147-1.147","1v452ja587ru5xz",608,"115.csv","","null","resources/maskTrios/BBA2.jpg","null","",NA,NA,NA,NA,""
"image-keyboard-response",455,407210,"0.0-4.147-2.147","1v452ja587ru5xz",608,"115.csv","","null","resources/images/coin2.png","null","",NA,NA,NA,NA,""
"image-keyboard-response",456,407627,"0.0-4.148-0.148","1v452ja587ru5xz",608,"115.csv","","414.79999923706055","resources/trios/L1T4A2.jpg","39","restless",0.3,0.5,0.4,0.321197314768825,"true"
"image-keyboard-response",457,408038,"0.0-4.148-1.148","1v452ja587ru5xz",608,"115.csv","","null","resources/maskTrios/BBA2.jpg","null","",NA,NA,NA,NA,""
"image-keyboard-response",458,409252,"0.0-4.148-2.148","1v452ja587ru5xz",608,"115.csv","","null","resources/images/coin2.png","null","",NA,NA,NA,NA,""
"image-keyboard-response",459,409629,"0.0-4.149-0.149","1v452ja587ru5xz",608,"115.csv","","375.8999996185303","resources/trios/L1T4A2.jpg","39","restless",0.2,0.5,0.4,0.772101426301095,"false"
"image-keyboard-response",460,410032,"0.0-4.149-1.149","1v452ja587ru5xz",608,"115.csv","","null","resources/maskTrios/BBA2.jpg","null","",NA,NA,NA,NA,""
"image-keyboard-response",461,411241,"0.0-4.149-2.149","1v452ja587ru5xz",608,"115.csv","","null","resources/images/fishbone.png","null","",NA,NA,NA,NA,""
"image-keyboard-response",462,411735,"0.0-4.150-0.150","1v452ja587ru5xz",608,"115.csv","","492.8999996185303","resources/trios/L1T4A2.jpg","38","restless",0.2,0.6,0.4,0.314938444777225,"true"
"image-keyboard-response",463,412137,"0.0-4.150-1.150","1v452ja587ru5xz",608,"115.csv","","null","resources/maskTrios/BT4B.jpg","null","",NA,NA,NA,NA,""
"image-keyboard-response",464,413340,"0.0-4.150-2.150","1v452ja587ru5xz",608,"115.csv","","null","resources/images/coin2.png","null","",NA,NA,NA,NA,""
"image-keyboard-response",465,413786,"0.0-4.151-0.151","1v452ja587ru5xz",608,"115.csv","","445.3999996185303","resources/trios/L1T4A2.jpg","38","restless",0.2,0.6,0.4,0.128472273594072,"true"
"image-keyboard-response",466,414195,"0.0-4.151-1.151","1v452ja587ru5xz",608,"115.csv","","null","resources/maskTrios/BT4B.jpg","null","",NA,NA,NA,NA,""
"image-keyboard-response",467,415408,"0.0-4.151-2.151","1v452ja587ru5xz",608,"115.csv","","null","resources/images/coin2.png","null","",NA,NA,NA,NA,""
"image-keyboard-response",468,416444,"0.0-4.152-0.152","1v452ja587ru5xz",608,"115.csv","","1035","resources/trios/L1T4A2.jpg","37","restless",0.2,0.6,0.4,0.316948803358591,"false"
"image-keyboard-response",469,416862,"0.0-4.152-1.152","1v452ja587ru5xz",608,"115.csv","","null","resources/maskTrios/L1BB.jpg","null","",NA,NA,NA,NA,""
"image-keyboard-response",470,418071,"0.0-4.152-2.152","1v452ja587ru5xz",608,"115.csv","","null","resources/images/fishbone.png","null","",NA,NA,NA,NA,""
"image-keyboard-response",471,418411,"0.0-4.153-0.153","1v452ja587ru5xz",608,"115.csv","","338.70000076293945","resources/trios/L1T4A2.jpg","38","restless",0.2,0.6,0.5,0.761061809065788,"false"
"image-keyboard-response",472,418818,"0.0-4.153-1.153","1v452ja587ru5xz",608,"115.csv","","null","resources/maskTrios/BT4B.jpg","null","",NA,NA,NA,NA,""
"image-keyboard-response",473,420030,"0.0-4.153-2.153","1v452ja587ru5xz",608,"115.csv","","null","resources/images/fishbone.png","null","",NA,NA,NA,NA,""
"image-keyboard-response",474,420377,"0.0-4.154-0.154","1v452ja587ru5xz",608,"115.csv","","345.70000076293945","resources/trios/L1T4A2.jpg","39","restless",0.2,0.6,0.5,0.782038707752606,"false"
"image-keyboard-response",475,420780,"0.0-4.154-1.154","1v452ja587ru5xz",608,"115.csv","","null","resources/maskTrios/BBA2.jpg","null","",NA,NA,NA,NA,""
"image-keyboard-response",476,421983,"0.0-4.154-2.154","1v452ja587ru5xz",608,"115.csv","","null","resources/images/fishbone.png","null","",NA,NA,NA,NA,""
"image-keyboard-response",477,422288,"0.0-4.155-0.155","1v452ja587ru5xz",608,"115.csv","","304.0999984741211","resources/trios/L1T4A2.jpg","39","restless",0.2,0.6,0.5,0.925181539341908,"false"
"image-keyboard-response",478,422692,"0.0-4.155-1.155","1v452ja587ru5xz",608,"115.csv","","null","resources/maskTrios/BBA2.jpg","null","",NA,NA,NA,NA,""
"image-keyboard-response",479,423902,"0.0-4.155-2.155","1v452ja587ru5xz",608,"115.csv","","null","resources/images/fishbone.png","null","",NA,NA,NA,NA,""
"image-keyboard-response",480,424203,"0.0-4.156-0.156","1v452ja587ru5xz",608,"115.csv","","300.3999996185303","resources/trios/L1T4A2.jpg","38","restless",0.2,0.6,0.5,0.136470954923349,"true"
"image-keyboard-response",481,424610,"0.0-4.156-1.156","1v452ja587ru5xz",608,"115.csv","","null","resources/maskTrios/BT4B.jpg","null","",NA,NA,NA,NA,""
"image-keyboard-response",482,425822,"0.0-4.156-2.156","1v452ja587ru5xz",608,"115.csv","","null","resources/images/coin2.png","null","",NA,NA,NA,NA,""
"image-keyboard-response",483,426261,"0.0-4.157-0.157","1v452ja587ru5xz",608,"115.csv","","438.29999923706055","resources/trios/L1T4A2.jpg","38","restless",0.2,0.6,0.5,0.0888605512830949,"true"
"image-keyboard-response",484,426669,"0.0-4.157-1.157","1v452ja587ru5xz",608,"115.csv","","null","resources/maskTrios/BT4B.jpg","null","",NA,NA,NA,NA,""
"image-keyboard-response",485,427875,"0.0-4.157-2.157","1v452ja587ru5xz",608,"115.csv","","null","resources/images/coin2.png","null","",NA,NA,NA,NA,""
"image-keyboard-response",486,429043,"0.0-4.158-0.158","1v452ja587ru5xz",608,"115.csv","","1167.7000007629395","resources/trios/L1T4A2.jpg","38","restless",0.2,0.6,0.5,0.976239835229081,"false"
"image-keyboard-response",487,429445,"0.0-4.158-1.158","1v452ja587ru5xz",608,"115.csv","","null","resources/maskTrios/BT4B.jpg","null","",NA,NA,NA,NA,""
"image-keyboard-response",488,430659,"0.0-4.158-2.158","1v452ja587ru5xz",608,"115.csv","","null","resources/images/fishbone.png","null","",NA,NA,NA,NA,""
"image-keyboard-response",489,430976,"0.0-4.159-0.159","1v452ja587ru5xz",608,"115.csv","","316.6000003814697","resources/trios/L1T4A2.jpg","39","restless",0.2,0.6,0.5,0.259575436427234,"true"
"image-keyboard-response",490,431391,"0.0-4.159-1.159","1v452ja587ru5xz",608,"115.csv","","null","resources/maskTrios/BBA2.jpg","null","",NA,NA,NA,NA,""
"image-keyboard-response",491,432600,"0.0-4.159-2.159","1v452ja587ru5xz",608,"115.csv","","null","resources/images/coin2.png","null","",NA,NA,NA,NA,""
"image-keyboard-response",492,435139,"0.0-4.160-0.160","1v452ja587ru5xz",608,"115.csv","","2538.1000003814697","resources/trios/L1T4A2.jpg","39","restless",0.2,0.6,0.5,0.432020513578895,"true"
"image-keyboard-response",493,435545,"0.0-4.160-1.160","1v452ja587ru5xz",608,"115.csv","","null","resources/maskTrios/BBA2.jpg","null","",NA,NA,NA,NA,""
"image-keyboard-response",494,436747,"0.0-4.160-2.160","1v452ja587ru5xz",608,"115.csv","","null","resources/images/coin2.png","null","",NA,NA,NA,NA,""
"image-keyboard-response",495,437085,"0.0-4.161-0.161","1v452ja587ru5xz",608,"115.csv","","336.29999923706055","resources/trios/L1T4A2.jpg","39","restless",0.2,0.6,0.5,0.383011743094458,"true"
"image-keyboard-response",496,437494,"0.0-4.161-1.161","1v452ja587ru5xz",608,"115.csv","","null","resources/maskTrios/BBA2.jpg","null","",NA,NA,NA,NA,""
"image-keyboard-response",497,438704,"0.0-4.161-2.161","1v452ja587ru5xz",608,"115.csv","","null","resources/images/coin2.png","null","",NA,NA,NA,NA,""
"image-keyboard-response",498,439288,"0.0-4.162-0.162","1v452ja587ru5xz",608,"115.csv","","583.6000003814697","resources/trios/L1T4A2.jpg","38","restless",0.2,0.6,0.5,0.6404832932704,"false"
"image-keyboard-response",499,439702,"0.0-4.162-1.162","1v452ja587ru5xz",608,"115.csv","","null","resources/maskTrios/BT4B.jpg","null","",NA,NA,NA,NA,""
"image-keyboard-response",500,440911,"0.0-4.162-2.162","1v452ja587ru5xz",608,"115.csv","","null","resources/images/fishbone.png","null","",NA,NA,NA,NA,""
"image-keyboard-response",501,442739,"0.0-4.163-0.163","1v452ja587ru5xz",608,"115.csv","","1826.6999988555908","resources/trios/L1T4A2.jpg","38","restless",0.2,0.6,0.5,0.450742914506733,"true"
"image-keyboard-response",502,443148,"0.0-4.163-1.163","1v452ja587ru5xz",608,"115.csv","","null","resources/maskTrios/BT4B.jpg","null","",NA,NA,NA,NA,""
"image-keyboard-response",503,444357,"0.0-4.163-2.163","1v452ja587ru5xz",608,"115.csv","","null","resources/images/coin2.png","null","",NA,NA,NA,NA,""
"image-keyboard-response",504,445219,"0.0-4.164-0.164","1v452ja587ru5xz",608,"115.csv","","861.1000003814697","resources/trios/L1T4A2.jpg","38","restless",0.2,0.6,0.5,0.552522469310147,"true"
"image-keyboard-response",505,445630,"0.0-4.164-1.164","1v452ja587ru5xz",608,"115.csv","","null","resources/maskTrios/BT4B.jpg","null","",NA,NA,NA,NA,""
"image-keyboard-response",506,446831,"0.0-4.164-2.164","1v452ja587ru5xz",608,"115.csv","","null","resources/images/coin2.png","null","",NA,NA,NA,NA,""
"image-keyboard-response",507,447896,"0.0-4.165-0.165","1v452ja587ru5xz",608,"115.csv","","1064.1000003814697","resources/trios/L1T4A2.jpg","39","restless",0.2,0.6,0.6,0.729618615921216,"false"
"image-keyboard-response",508,448297,"0.0-4.165-1.165","1v452ja587ru5xz",608,"115.csv","","null","resources/maskTrios/BBA2.jpg","null","",NA,NA,NA,NA,""
"image-keyboard-response",509,449502,"0.0-4.165-2.165","1v452ja587ru5xz",608,"115.csv","","null","resources/images/fishbone.png","null","",NA,NA,NA,NA,""
"image-keyboard-response",510,450047,"0.0-4.166-0.166","1v452ja587ru5xz",608,"115.csv","","543","resources/trios/L1T4A2.jpg","39","restless",0.2,0.6,0.6,0.834074070100729,"false"
"image-keyboard-response",511,450462,"0.0-4.166-1.166","1v452ja587ru5xz",608,"115.csv","","null","resources/maskTrios/BBA2.jpg","null","",NA,NA,NA,NA,""
"image-keyboard-response",512,451672,"0.0-4.166-2.166","1v452ja587ru5xz",608,"115.csv","","null","resources/images/fishbone.png","null","",NA,NA,NA,NA,""
"image-keyboard-response",513,452011,"0.0-4.167-0.167","1v452ja587ru5xz",608,"115.csv","","338","resources/trios/L1T4A2.jpg","39","restless",0.2,0.6,0.6,0.165538027096321,"true"
"image-keyboard-response",514,452422,"0.0-4.167-1.167","1v452ja587ru5xz",608,"115.csv","","null","resources/maskTrios/BBA2.jpg","null","",NA,NA,NA,NA,""
"image-keyboard-response",515,453630,"0.0-4.167-2.167","1v452ja587ru5xz",608,"115.csv","","null","resources/images/coin2.png","null","",NA,NA,NA,NA,""
"image-keyboard-response",516,454674,"0.0-4.168-0.168","1v452ja587ru5xz",608,"115.csv","","1042.3000011444092","resources/trios/L1T4A2.jpg","39","restless",0.2,0.6,0.6,0.372950002344376,"true"
"image-keyboard-response",517,455075,"0.0-4.168-1.168","1v452ja587ru5xz",608,"115.csv","","null","resources/maskTrios/BBA2.jpg","null","",NA,NA,NA,NA,""
"image-keyboard-response",518,456285,"0.0-4.168-2.168","1v452ja587ru5xz",608,"115.csv","","null","resources/images/coin2.png","null","",NA,NA,NA,NA,""
"image-keyboard-response",519,456912,"0.0-4.169-0.169","1v452ja587ru5xz",608,"115.csv","","625.7000007629395","resources/trios/L1T4A2.jpg","39","restless",0.2,0.6,0.6,0.0592463630221736,"true"
"image-keyboard-response",520,457324,"0.0-4.169-1.169","1v452ja587ru5xz",608,"115.csv","","null","resources/maskTrios/BBA2.jpg","null","",NA,NA,NA,NA,""
"image-keyboard-response",521,458527,"0.0-4.169-2.169","1v452ja587ru5xz",608,"115.csv","","null","resources/images/coin2.png","null","",NA,NA,NA,NA,""
"image-keyboard-response",522,459098,"0.0-4.170-0.170","1v452ja587ru5xz",608,"115.csv","","569.8000011444092","resources/trios/L1T4A2.jpg","37","restless",0.2,0.6,0.6,0.807173345816217,"false"
"image-keyboard-response",523,459502,"0.0-4.170-1.170","1v452ja587ru5xz",608,"115.csv","","null","resources/maskTrios/L1BB.jpg","null","",NA,NA,NA,NA,""
"image-keyboard-response",524,460710,"0.0-4.170-2.170","1v452ja587ru5xz",608,"115.csv","","null","resources/images/fishbone.png","null","",NA,NA,NA,NA,""
"image-keyboard-response",525,461472,"0.0-4.171-0.171","1v452ja587ru5xz",608,"115.csv","","760.6000003814697","resources/trios/L1T4A2.jpg","39","restless",0.3,0.6,0.7,0.901882066032156,"false"
"image-keyboard-response",526,461880,"0.0-4.171-1.171","1v452ja587ru5xz",608,"115.csv","","null","resources/maskTrios/BBA2.jpg","null","",NA,NA,NA,NA,""
"image-keyboard-response",527,463084,"0.0-4.171-2.171","1v452ja587ru5xz",608,"115.csv","","null","resources/images/fishbone.png","null","",NA,NA,NA,NA,""
"image-keyboard-response",528,463862,"0.0-4.172-0.172","1v452ja587ru5xz",608,"115.csv","","776.3000011444092","resources/trios/L1T4A2.jpg","38","restless",0.3,0.6,0.7,0.827314570050812,"false"
"image-keyboard-response",529,464275,"0.0-4.172-1.172","1v452ja587ru5xz",608,"115.csv","","null","resources/maskTrios/BT4B.jpg","null","",NA,NA,NA,NA,""
"image-keyboard-response",530,465480,"0.0-4.172-2.172","1v452ja587ru5xz",608,"115.csv","","null","resources/images/fishbone.png","null","",NA,NA,NA,NA,""
"image-keyboard-response",531,465758,"0.0-4.173-0.173","1v452ja587ru5xz",608,"115.csv","","276.79999923706055","resources/trios/L1T4A2.jpg","37","restless",0.4,0.6,0.7,0.530466553693104,"false"
"image-keyboard-response",532,466167,"0.0-4.173-1.173","1v452ja587ru5xz",608,"115.csv","","null","resources/maskTrios/L1BB.jpg","null","",NA,NA,NA,NA,""
"image-keyboard-response",533,467376,"0.0-4.173-2.173","1v452ja587ru5xz",608,"115.csv","","null","resources/images/fishbone.png","null","",NA,NA,NA,NA,""
"image-keyboard-response",534,467676,"0.0-4.174-0.174","1v452ja587ru5xz",608,"115.csv","","298.3999996185303","resources/trios/L1T4A2.jpg","39","restless",0.4,0.6,0.7,0.905574655084985,"false"
"image-keyboard-response",535,468085,"0.0-4.174-1.174","1v452ja587ru5xz",608,"115.csv","","null","resources/maskTrios/BBA2.jpg","null","",NA,NA,NA,NA,""
"image-keyboard-response",536,469301,"0.0-4.174-2.174","1v452ja587ru5xz",608,"115.csv","","null","resources/images/fishbone.png","null","",NA,NA,NA,NA,""
"image-keyboard-response",537,469560,"0.0-4.175-0.175","1v452ja587ru5xz",608,"115.csv","","256.8000011444092","resources/trios/L1T4A2.jpg","39","restless",0.4,0.6,0.7,0.433282591269792,"true"
"image-keyboard-response",538,469968,"0.0-4.175-1.175","1v452ja587ru5xz",608,"115.csv","","null","resources/maskTrios/BBA2.jpg","null","",NA,NA,NA,NA,""
"image-keyboard-response",539,471172,"0.0-4.175-2.175","1v452ja587ru5xz",608,"115.csv","","null","resources/images/coin2.png","null","",NA,NA,NA,NA,""
"image-keyboard-response",540,471500,"0.0-4.176-0.176","1v452ja587ru5xz",608,"115.csv","","326.5","resources/trios/L1T4A2.jpg","39","restless",0.4,0.6,0.7,0.856850809530329,"false"
"image-keyboard-response",541,471910,"0.0-4.176-1.176","1v452ja587ru5xz",608,"115.csv","","null","resources/maskTrios/BBA2.jpg","null","",NA,NA,NA,NA,""
"image-keyboard-response",542,473122,"0.0-4.176-2.176","1v452ja587ru5xz",608,"115.csv","","null","resources/images/fishbone.png","null","",NA,NA,NA,NA,""
"image-keyboard-response",543,473512,"0.0-4.177-0.177","1v452ja587ru5xz",608,"115.csv","","389","resources/trios/L1T4A2.jpg","38","restless",0.4,0.6,0.7,0.435651758994412,"true"
"image-keyboard-response",544,473915,"0.0-4.177-1.177","1v452ja587ru5xz",608,"115.csv","","null","resources/maskTrios/BT4B.jpg","null","",NA,NA,NA,NA,""
"image-keyboard-response",545,475124,"0.0-4.177-2.177","1v452ja587ru5xz",608,"115.csv","","null","resources/images/coin2.png","null","",NA,NA,NA,NA,""
"image-keyboard-response",546,475525,"0.0-4.178-0.178","1v452ja587ru5xz",608,"115.csv","","399.3999996185303","resources/trios/L1T4A2.jpg","38","restless",0.4,0.6,0.7,0.0151821799215603,"true"
"image-keyboard-response",547,475940,"0.0-4.178-1.178","1v452ja587ru5xz",608,"115.csv","","null","resources/maskTrios/BT4B.jpg","null","",NA,NA,NA,NA,""
"image-keyboard-response",548,477151,"0.0-4.178-2.178","1v452ja587ru5xz",608,"115.csv","","null","resources/images/coin2.png","null","",NA,NA,NA,NA,""
"image-keyboard-response",549,477437,"0.0-4.179-0.179","1v452ja587ru5xz",608,"115.csv","","284.5","resources/trios/L1T4A2.jpg","38","restless",0.4,0.6,0.7,0.218600584600431,"true"
"image-keyboard-response",550,477851,"0.0-4.179-1.179","1v452ja587ru5xz",608,"115.csv","","null","resources/maskTrios/BT4B.jpg","null","",NA,NA,NA,NA,""
"image-keyboard-response",551,479059,"0.0-4.179-2.179","1v452ja587ru5xz",608,"115.csv","","null","resources/images/coin2.png","null","",NA,NA,NA,NA,""
"image-keyboard-response",552,479750,"0.0-4.180-0.180","1v452ja587ru5xz",608,"115.csv","","689.8000011444092","resources/trios/L1T4A2.jpg","39","restless",0.4,0.6,0.7,0.113437980757119,"true"
"image-keyboard-response",553,480162,"0.0-4.180-1.180","1v452ja587ru5xz",608,"115.csv","","null","resources/maskTrios/BBA2.jpg","null","",NA,NA,NA,NA,""
"image-keyboard-response",554,481366,"0.0-4.180-2.180","1v452ja587ru5xz",608,"115.csv","","null","resources/images/coin2.png","null","",NA,NA,NA,NA,""
"image-keyboard-response",555,481936,"0.0-4.181-0.181","1v452ja587ru5xz",608,"115.csv","","568.8999996185303","resources/trios/L1T4A2.jpg","39","restless",0.4,0.6,0.7,0.573987022810972,"true"
"image-keyboard-response",556,482338,"0.0-4.181-1.181","1v452ja587ru5xz",608,"115.csv","","null","resources/maskTrios/BBA2.jpg","null","",NA,NA,NA,NA,""
"image-keyboard-response",557,483551,"0.0-4.181-2.181","1v452ja587ru5xz",608,"115.csv","","null","resources/images/coin2.png","null","",NA,NA,NA,NA,""
"image-keyboard-response",558,484050,"0.0-4.182-0.182","1v452ja587ru5xz",608,"115.csv","","497.70000076293945","resources/trios/L1T4A2.jpg","39","restless",0.4,0.6,0.7,0.506272863030443,"true"
"image-keyboard-response",559,484451,"0.0-4.182-1.182","1v452ja587ru5xz",608,"115.csv","","null","resources/maskTrios/BBA2.jpg","null","",NA,NA,NA,NA,""
"image-keyboard-response",560,485663,"0.0-4.182-2.182","1v452ja587ru5xz",608,"115.csv","","null","resources/images/coin2.png","null","",NA,NA,NA,NA,""
"image-keyboard-response",561,486252,"0.0-4.183-0.183","1v452ja587ru5xz",608,"115.csv","","589.6000003814697","resources/trios/L1T4A2.jpg","38","restless",0.4,0.6,0.7,0.977487047632007,"false"
"image-keyboard-response",562,486657,"0.0-4.183-1.183","1v452ja587ru5xz",608,"115.csv","","null","resources/maskTrios/BT4B.jpg","null","",NA,NA,NA,NA,""
"image-keyboard-response",563,487865,"0.0-4.183-2.183","1v452ja587ru5xz",608,"115.csv","","null","resources/images/fishbone.png","null","",NA,NA,NA,NA,""
"image-keyboard-response",564,488312,"0.0-4.184-0.184","1v452ja587ru5xz",608,"115.csv","","445.8999996185303","resources/trios/L1T4A2.jpg","39","restless",0.4,0.6,0.7,0.312567271302586,"true"
"image-keyboard-response",565,488713,"0.0-4.184-1.184","1v452ja587ru5xz",608,"115.csv","","null","resources/maskTrios/BBA2.jpg","null","",NA,NA,NA,NA,""
"image-keyboard-response",566,489916,"0.0-4.184-2.184","1v452ja587ru5xz",608,"115.csv","","null","resources/images/coin2.png","null","",NA,NA,NA,NA,""
"image-keyboard-response",567,490563,"0.0-4.185-0.185","1v452ja587ru5xz",608,"115.csv","","646.3000011444092","resources/trios/L1T4A2.jpg","39","restless",0.4,0.6,0.6,0.845476113789177,"false"
"image-keyboard-response",568,490971,"0.0-4.185-1.185","1v452ja587ru5xz",608,"115.csv","","null","resources/maskTrios/BBA2.jpg","null","",NA,NA,NA,NA,""
"image-keyboard-response",569,492174,"0.0-4.185-2.185","1v452ja587ru5xz",608,"115.csv","","null","resources/images/fishbone.png","null","",NA,NA,NA,NA,""
"image-keyboard-response",570,492513,"0.0-4.186-0.186","1v452ja587ru5xz",608,"115.csv","","337.8999996185303","resources/trios/L1T4A2.jpg","37","restless",0.4,0.6,0.6,0.0994417908864611,"true"
"image-keyboard-response",571,492929,"0.0-4.186-1.186","1v452ja587ru5xz",608,"115.csv","","null","resources/maskTrios/L1BB.jpg","null","",NA,NA,NA,NA,""
"image-keyboard-response",572,494132,"0.0-4.186-2.186","1v452ja587ru5xz",608,"115.csv","","null","resources/images/coin2.png","null","",NA,NA,NA,NA,""
"image-keyboard-response",573,495002,"0.0-4.187-0.187","1v452ja587ru5xz",608,"115.csv","","868.2000007629395","resources/trios/L1T4A2.jpg","37","restless",0.5,0.6,0.6,0.761718105866359,"false"
"image-keyboard-response",574,495416,"0.0-4.187-1.187","1v452ja587ru5xz",608,"115.csv","","null","resources/maskTrios/L1BB.jpg","null","",NA,NA,NA,NA,""
"image-keyboard-response",575,496624,"0.0-4.187-2.187","1v452ja587ru5xz",608,"115.csv","","null","resources/images/fishbone.png","null","",NA,NA,NA,NA,""
"image-keyboard-response",576,497037,"0.0-4.188-0.188","1v452ja587ru5xz",608,"115.csv","","412.79999923706055","resources/trios/L1T4A2.jpg","39","restless",0.5,0.5,0.6,0.971346704807606,"false"
"image-keyboard-response",577,497449,"0.0-4.188-1.188","1v452ja587ru5xz",608,"115.csv","","null","resources/maskTrios/BBA2.jpg","null","",NA,NA,NA,NA,""
"image-keyboard-response",578,498660,"0.0-4.188-2.188","1v452ja587ru5xz",608,"115.csv","","null","resources/images/fishbone.png","null","",NA,NA,NA,NA,""
"image-keyboard-response",579,499002,"0.0-4.189-0.189","1v452ja587ru5xz",608,"115.csv","","340.5999984741211","resources/trios/L1T4A2.jpg","39","restless",0.5,0.5,0.6,0.464199831107809,"true"
"image-keyboard-response",580,499410,"0.0-4.189-1.189","1v452ja587ru5xz",608,"115.csv","","null","resources/maskTrios/BBA2.jpg","null","",NA,NA,NA,NA,""
"image-keyboard-response",581,500616,"0.0-4.189-2.189","1v452ja587ru5xz",608,"115.csv","","null","resources/images/coin2.png","null","",NA,NA,NA,NA,""
"image-keyboard-response",582,500956,"0.0-4.190-0.190","1v452ja587ru5xz",608,"115.csv","","338.6999988555908","resources/trios/L1T4A2.jpg","39","restless",0.5,0.5,0.6,0.877360595588645,"false"
"image-keyboard-response",583,501364,"0.0-4.190-1.190","1v452ja587ru5xz",608,"115.csv","","null","resources/maskTrios/BBA2.jpg","null","",NA,NA,NA,NA,""
"image-keyboard-response",584,502574,"0.0-4.190-2.190","1v452ja587ru5xz",608,"115.csv","","null","resources/images/fishbone.png","null","",NA,NA,NA,NA,""
"image-keyboard-response",585,502879,"0.0-4.191-0.191","1v452ja587ru5xz",608,"115.csv","","304.5","resources/trios/L1T4A2.jpg","38","restless",0.5,0.5,0.6,0.475635378555679,"true"
"image-keyboard-response",586,503294,"0.0-4.191-1.191","1v452ja587ru5xz",608,"115.csv","","null","resources/maskTrios/BT4B.jpg","null","",NA,NA,NA,NA,""
"image-keyboard-response",587,504499,"0.0-4.191-2.191","1v452ja587ru5xz",608,"115.csv","","null","resources/images/coin2.png","null","",NA,NA,NA,NA,""
"image-keyboard-response",588,504921,"0.0-4.192-0.192","1v452ja587ru5xz",608,"115.csv","","421.29999923706055","resources/trios/L1T4A2.jpg","38","restless",0.5,0.5,0.6,0.350866223714806,"true"
"image-keyboard-response",589,505326,"0.0-4.192-1.192","1v452ja587ru5xz",608,"115.csv","","null","resources/maskTrios/BT4B.jpg","null","",NA,NA,NA,NA,""
"image-keyboard-response",590,506530,"0.0-4.192-2.192","1v452ja587ru5xz",608,"115.csv","","null","resources/images/coin2.png","null","",NA,NA,NA,NA,""
"image-keyboard-response",591,506832,"0.0-4.193-0.193","1v452ja587ru5xz",608,"115.csv","","301.3999996185303","resources/trios/L1T4A2.jpg","38","restless",0.5,0.5,0.6,0.0468881136915154,"true"
"image-keyboard-response",592,507244,"0.0-4.193-1.193","1v452ja587ru5xz",608,"115.csv","","null","resources/maskTrios/BT4B.jpg","null","",NA,NA,NA,NA,""
"image-keyboard-response",593,508452,"0.0-4.193-2.193","1v452ja587ru5xz",608,"115.csv","","null","resources/images/coin2.png","null","",NA,NA,NA,NA,""
"image-keyboard-response",594,509837,"0.0-4.194-0.194","1v452ja587ru5xz",608,"115.csv","","1384.599998474121","resources/trios/L1T4A2.jpg","37","restless",0.5,0.5,0.6,0.574664959054185,"false"
"image-keyboard-response",595,510248,"0.0-4.194-1.194","1v452ja587ru5xz",608,"115.csv","","null","resources/maskTrios/L1BB.jpg","null","",NA,NA,NA,NA,""
"image-keyboard-response",596,511458,"0.0-4.194-2.194","1v452ja587ru5xz",608,"115.csv","","null","resources/images/fishbone.png","null","",NA,NA,NA,NA,""
"image-keyboard-response",597,511881,"0.0-4.195-0.195","1v452ja587ru5xz",608,"115.csv","","422.20000076293945","resources/trios/L1T4A2.jpg","39","restless",0.5,0.5,0.6,0.537208304013269,"true"
"image-keyboard-response",598,512291,"0.0-4.195-1.195","1v452ja587ru5xz",608,"115.csv","","null","resources/maskTrios/BBA2.jpg","null","",NA,NA,NA,NA,""
"image-keyboard-response",599,513500,"0.0-4.195-2.195","1v452ja587ru5xz",608,"115.csv","","null","resources/images/coin2.png","null","",NA,NA,NA,NA,""
"image-keyboard-response",600,513879,"0.0-4.196-0.196","1v452ja587ru5xz",608,"115.csv","","377.9000015258789","resources/trios/L1T4A2.jpg","39","restless",0.5,0.5,0.7,0.382691572426446,"true"
"image-keyboard-response",601,514287,"0.0-4.196-1.196","1v452ja587ru5xz",608,"115.csv","","null","resources/maskTrios/BBA2.jpg","null","",NA,NA,NA,NA,""
"image-keyboard-response",602,515488,"0.0-4.196-2.196","1v452ja587ru5xz",608,"115.csv","","null","resources/images/coin2.png","null","",NA,NA,NA,NA,""
"image-keyboard-response",603,515853,"0.0-4.197-0.197","1v452ja587ru5xz",608,"115.csv","","363.4000015258789","resources/trios/L1T4A2.jpg","39","restless",0.5,0.5,0.7,0.178294749774286,"true"
"image-keyboard-response",604,516265,"0.0-4.197-1.197","1v452ja587ru5xz",608,"115.csv","","null","resources/maskTrios/BBA2.jpg","null","",NA,NA,NA,NA,""
"image-keyboard-response",605,517478,"0.0-4.197-2.197","1v452ja587ru5xz",608,"115.csv","","null","resources/images/coin2.png","null","",NA,NA,NA,NA,""
"image-keyboard-response",606,520272,"0.0-4.198-0.198","1v452ja587ru5xz",608,"115.csv","","2793.300001144409","resources/trios/L1T4A2.jpg","38","restless",0.5,0.5,0.7,0.136570215186526,"true"
"image-keyboard-response",607,520680,"0.0-4.198-1.198","1v452ja587ru5xz",608,"115.csv","","null","resources/maskTrios/BT4B.jpg","null","",NA,NA,NA,NA,""
