"trial_type","trial_index","time_elapsed","internal_node_id","subject","participantCode","walkNumber","success","rt","stimulus","key_press","test_part","leftProb","midProb","rightProb","generatedNum","correct"
"pavlovia",0,1330,"0.0-0.0","mgr2la5rnnmtkv4",456,"76.csv","","","","","",NA,NA,NA,NA,""
"fullscreen",1,7674,"0.0-1.0","mgr2la5rnnmtkv4",456,"76.csv","true","","","","",NA,NA,NA,NA,""
"survey-html-form",2,14991,"0.0-2.0","mgr2la5rnnmtkv4",456,"76.csv","","7315.600000023842","","","",NA,NA,NA,NA,""
"image-keyboard-response",3,30164,"0.0-3.0-0.0","mgr2la5rnnmtkv4",456,"76.csv","","15172.200000047684","resources/images/parrot_nobg.png","13","",NA,NA,NA,NA,""
"image-keyboard-response",4,33168,"0.0-3.0-1.0","mgr2la5rnnmtkv4",456,"76.csv","","null","resources/image_sets/111.png","null","",NA,NA,NA,NA,""
"image-keyboard-response",5,40260,"0.0-3.0-2.0","mgr2la5rnnmtkv4",456,"76.csv","","7091.399999976158","resources/image_sets/left_highlight.png","37","",NA,NA,NA,NA,""
"image-keyboard-response",6,48524,"0.0-3.0-3.0","mgr2la5rnnmtkv4",456,"76.csv","","8263.5","resources/image_sets/mid_highlight.png","38","",NA,NA,NA,NA,""
"image-keyboard-response",7,56020,"0.0-3.0-4.0","mgr2la5rnnmtkv4",456,"76.csv","","7495.5","resources/image_sets/right_highlight.png","39","",NA,NA,NA,NA,""
"image-keyboard-response",8,59683,"0.0-3.0-5.0","mgr2la5rnnmtkv4",456,"76.csv","","3663.600000023842","resources/image_sets/111.png","13","",NA,NA,NA,NA,""
"image-keyboard-response",9,63107,"0.0-3.0-6.0","mgr2la5rnnmtkv4",456,"76.csv","","3423.600000023842","resources/images/coin2.png","13","",NA,NA,NA,NA,""
"image-keyboard-response",10,65267,"0.0-3.0-7.0","mgr2la5rnnmtkv4",456,"76.csv","","2159.7000000476837","resources/images/fishbone.png","13","",NA,NA,NA,NA,""
"html-keyboard-response",11,70355,"0.0-3.0-8.0","mgr2la5rnnmtkv4",456,"76.csv","","5087.5","<p>You can track your coin total on the top right of your screen. </p><p>At the end of your journey you will be directed to a survey, so please click on the link before exiting the task</p><p>Press Enter to begin</p>","13","",NA,NA,NA,NA,""
"image-keyboard-response",12,71835,"0.0-4.0-0.0","mgr2la5rnnmtkv4",456,"76.csv","","1478.8999999761581","resources/trios/L1T4A3.jpg","37","restless",0.7,0.9,0.3,0.798882695680487,"false"
"image-keyboard-response",13,72239,"0.0-4.0-1.0","mgr2la5rnnmtkv4",456,"76.csv","","null","resources/maskTrios/L1BB.jpg","null","",NA,NA,NA,NA,""
"image-keyboard-response",14,73455,"0.0-4.0-2.0","mgr2la5rnnmtkv4",456,"76.csv","","null","resources/images/fishbone.png","null","",NA,NA,NA,NA,""
"image-keyboard-response",15,77211,"0.0-4.1-0.1","mgr2la5rnnmtkv4",456,"76.csv","","3755.7999999523163","resources/trios/L1T4A3.jpg","38","restless",0.7,0.9,0.3,0.858262744366098,"true"
"image-keyboard-response",16,77626,"0.0-4.1-1.1","mgr2la5rnnmtkv4",456,"76.csv","","null","resources/maskTrios/BT4B.jpg","null","",NA,NA,NA,NA,""
"image-keyboard-response",17,78840,"0.0-4.1-2.1","mgr2la5rnnmtkv4",456,"76.csv","","null","resources/images/coin2.png","null","",NA,NA,NA,NA,""
"image-keyboard-response",18,80403,"0.0-4.2-0.2","mgr2la5rnnmtkv4",456,"76.csv","","1562.6999999284744","resources/trios/L1T4A3.jpg","38","restless",0.7,0.9,0.3,0.289052455845119,"true"
"image-keyboard-response",19,80817,"0.0-4.2-1.2","mgr2la5rnnmtkv4",456,"76.csv","","null","resources/maskTrios/BT4B.jpg","null","",NA,NA,NA,NA,""
"image-keyboard-response",20,82029,"0.0-4.2-2.2","mgr2la5rnnmtkv4",456,"76.csv","","null","resources/images/coin2.png","null","",NA,NA,NA,NA,""
"image-keyboard-response",21,82747,"0.0-4.3-0.3","mgr2la5rnnmtkv4",456,"76.csv","","717.6000000238419","resources/trios/L1T4A3.jpg","38","restless",0.7,0.9,0.3,0.118914163457737,"true"
"image-keyboard-response",22,83156,"0.0-4.3-1.3","mgr2la5rnnmtkv4",456,"76.csv","","null","resources/maskTrios/BT4B.jpg","null","",NA,NA,NA,NA,""
"image-keyboard-response",23,84372,"0.0-4.3-2.3","mgr2la5rnnmtkv4",456,"76.csv","","null","resources/images/coin2.png","null","",NA,NA,NA,NA,""
"image-keyboard-response",24,85107,"0.0-4.4-0.4","mgr2la5rnnmtkv4",456,"76.csv","","734.8999999761581","resources/trios/L1T4A3.jpg","38","restless",0.7,0.9,0.3,0.326336892228555,"true"
"image-keyboard-response",25,85515,"0.0-4.4-1.4","mgr2la5rnnmtkv4",456,"76.csv","","null","resources/maskTrios/BT4B.jpg","null","",NA,NA,NA,NA,""
"image-keyboard-response",26,86727,"0.0-4.4-2.4","mgr2la5rnnmtkv4",456,"76.csv","","null","resources/images/coin2.png","null","",NA,NA,NA,NA,""
"image-keyboard-response",27,87475,"0.0-4.5-0.5","mgr2la5rnnmtkv4",456,"76.csv","","747.6000000238419","resources/trios/L1T4A3.jpg","38","restless",0.7,0.8,0.3,0.925806503059296,"false"
"image-keyboard-response",28,87883,"0.0-4.5-1.5","mgr2la5rnnmtkv4",456,"76.csv","","null","resources/maskTrios/BT4B.jpg","null","",NA,NA,NA,NA,""
"image-keyboard-response",29,89092,"0.0-4.5-2.5","mgr2la5rnnmtkv4",456,"76.csv","","null","resources/images/fishbone.png","null","",NA,NA,NA,NA,""
"image-keyboard-response",30,89779,"0.0-4.6-0.6","mgr2la5rnnmtkv4",456,"76.csv","","686.5","resources/trios/L1T4A3.jpg","38","restless",0.7,0.8,0.3,0.463086844992868,"true"
"image-keyboard-response",31,90193,"0.0-4.6-1.6","mgr2la5rnnmtkv4",456,"76.csv","","null","resources/maskTrios/BT4B.jpg","null","",NA,NA,NA,NA,""
"image-keyboard-response",32,91403,"0.0-4.6-2.6","mgr2la5rnnmtkv4",456,"76.csv","","null","resources/images/coin2.png","null","",NA,NA,NA,NA,""
"image-keyboard-response",33,91931,"0.0-4.7-0.7","mgr2la5rnnmtkv4",456,"76.csv","","527.6999999284744","resources/trios/L1T4A3.jpg","38","restless",0.7,0.8,0.3,0.93101080233871,"false"
"image-keyboard-response",34,92334,"0.0-4.7-1.7","mgr2la5rnnmtkv4",456,"76.csv","","null","resources/maskTrios/BT4B.jpg","null","",NA,NA,NA,NA,""
"image-keyboard-response",35,93535,"0.0-4.7-2.7","mgr2la5rnnmtkv4",456,"76.csv","","null","resources/images/fishbone.png","null","",NA,NA,NA,NA,""
"image-keyboard-response",36,93923,"0.0-4.8-0.8","mgr2la5rnnmtkv4",456,"76.csv","","387.2999999523163","resources/trios/L1T4A3.jpg","38","restless",0.7,0.7,0.3,0.541676208964545,"true"
"image-keyboard-response",37,94337,"0.0-4.8-1.8","mgr2la5rnnmtkv4",456,"76.csv","","null","resources/maskTrios/BT4B.jpg","null","",NA,NA,NA,NA,""
"image-keyboard-response",38,95545,"0.0-4.8-2.8","mgr2la5rnnmtkv4",456,"76.csv","","null","resources/images/coin2.png","null","",NA,NA,NA,NA,""
"image-keyboard-response",39,95851,"0.0-4.9-0.9","mgr2la5rnnmtkv4",456,"76.csv","","305.89999997615814","resources/trios/L1T4A3.jpg","38","restless",0.7,0.7,0.3,0.226056883734024,"true"
"image-keyboard-response",40,96258,"0.0-4.9-1.9","mgr2la5rnnmtkv4",456,"76.csv","","null","resources/maskTrios/BT4B.jpg","null","",NA,NA,NA,NA,""
"image-keyboard-response",41,97459,"0.0-4.9-2.9","mgr2la5rnnmtkv4",456,"76.csv","","null","resources/images/coin2.png","null","",NA,NA,NA,NA,""
"image-keyboard-response",42,97627,"0.0-4.10-0.10","mgr2la5rnnmtkv4",456,"76.csv","","167.39999997615814","resources/trios/L1T4A3.jpg","38","restless",0.7,0.7,0.3,0.550390366374172,"true"
"image-keyboard-response",43,98034,"0.0-4.10-1.10","mgr2la5rnnmtkv4",456,"76.csv","","null","resources/maskTrios/BT4B.jpg","null","",NA,NA,NA,NA,""
"image-keyboard-response",44,99239,"0.0-4.10-2.10","mgr2la5rnnmtkv4",456,"76.csv","","null","resources/images/coin2.png","null","",NA,NA,NA,NA,""
"image-keyboard-response",45,99387,"0.0-4.11-0.11","mgr2la5rnnmtkv4",456,"76.csv","","147.69999992847443","resources/trios/L1T4A3.jpg","38","restless",0.7,0.6,0.3,0.196167324611771,"true"
"image-keyboard-response",46,99789,"0.0-4.11-1.11","mgr2la5rnnmtkv4",456,"76.csv","","null","resources/maskTrios/BT4B.jpg","null","",NA,NA,NA,NA,""
"image-keyboard-response",47,101005,"0.0-4.11-2.11","mgr2la5rnnmtkv4",456,"76.csv","","null","resources/images/coin2.png","null","",NA,NA,NA,NA,""
"image-keyboard-response",48,101035,"0.0-4.12-0.12","mgr2la5rnnmtkv4",456,"76.csv","","30.100000023841858","resources/trios/L1T4A3.jpg","38","restless",0.7,0.6,0.3,0.451488413090605,"true"
"image-keyboard-response",49,101443,"0.0-4.12-1.12","mgr2la5rnnmtkv4",456,"76.csv","","null","resources/maskTrios/BT4B.jpg","null","",NA,NA,NA,NA,""
"image-keyboard-response",50,102648,"0.0-4.12-2.12","mgr2la5rnnmtkv4",456,"76.csv","","null","resources/images/coin2.png","null","",NA,NA,NA,NA,""
"image-keyboard-response",51,102819,"0.0-4.13-0.13","mgr2la5rnnmtkv4",456,"76.csv","","170.40000009536743","resources/trios/L1T4A3.jpg","38","restless",0.8,0.7,0.3,0.496041948993934,"true"
"image-keyboard-response",52,103222,"0.0-4.13-1.13","mgr2la5rnnmtkv4",456,"76.csv","","null","resources/maskTrios/BT4B.jpg","null","",NA,NA,NA,NA,""
"image-keyboard-response",53,104425,"0.0-4.13-2.13","mgr2la5rnnmtkv4",456,"76.csv","","null","resources/images/coin2.png","null","",NA,NA,NA,NA,""
"image-keyboard-response",54,104475,"0.0-4.14-0.14","mgr2la5rnnmtkv4",456,"76.csv","","49.5","resources/trios/L1T4A3.jpg","38","restless",0.8,0.7,0.3,0.278560706284635,"true"
"image-keyboard-response",55,104888,"0.0-4.14-1.14","mgr2la5rnnmtkv4",456,"76.csv","","null","resources/maskTrios/BT4B.jpg","null","",NA,NA,NA,NA,""
"image-keyboard-response",56,106088,"0.0-4.14-2.14","mgr2la5rnnmtkv4",456,"76.csv","","null","resources/images/coin2.png","null","",NA,NA,NA,NA,""
"image-keyboard-response",57,106931,"0.0-4.15-0.15","mgr2la5rnnmtkv4",456,"76.csv","","842.1999999284744","resources/trios/L1T4A3.jpg","38","restless",0.8,0.7,0.3,0.0630344697984302,"true"
"image-keyboard-response",58,107335,"0.0-4.15-1.15","mgr2la5rnnmtkv4",456,"76.csv","","null","resources/maskTrios/BT4B.jpg","null","",NA,NA,NA,NA,""
"image-keyboard-response",59,108546,"0.0-4.15-2.15","mgr2la5rnnmtkv4",456,"76.csv","","null","resources/images/coin2.png","null","",NA,NA,NA,NA,""
"image-keyboard-response",60,108803,"0.0-4.16-0.16","mgr2la5rnnmtkv4",456,"76.csv","","256.59999990463257","resources/trios/L1T4A3.jpg","38","restless",0.8,0.7,0.3,0.307518886153096,"true"
"image-keyboard-response",61,109210,"0.0-4.16-1.16","mgr2la5rnnmtkv4",456,"76.csv","","null","resources/maskTrios/BT4B.jpg","null","",NA,NA,NA,NA,""
"image-keyboard-response",62,110420,"0.0-4.16-2.16","mgr2la5rnnmtkv4",456,"76.csv","","null","resources/images/coin2.png","null","",NA,NA,NA,NA,""
"image-keyboard-response",63,110555,"0.0-4.17-0.17","mgr2la5rnnmtkv4",456,"76.csv","","134.60000002384186","resources/trios/L1T4A3.jpg","38","restless",0.8,0.7,0.3,0.606904232432866,"true"
"image-keyboard-response",64,110956,"0.0-4.17-1.17","mgr2la5rnnmtkv4",456,"76.csv","","null","resources/maskTrios/BT4B.jpg","null","",NA,NA,NA,NA,""
"image-keyboard-response",65,112157,"0.0-4.17-2.17","mgr2la5rnnmtkv4",456,"76.csv","","null","resources/images/coin2.png","null","",NA,NA,NA,NA,""
"image-keyboard-response",66,112275,"0.0-4.18-0.18","mgr2la5rnnmtkv4",456,"76.csv","","117.89999997615814","resources/trios/L1T4A3.jpg","38","restless",0.8,0.7,0.2,0.177342641231421,"true"
"image-keyboard-response",67,112683,"0.0-4.18-1.18","mgr2la5rnnmtkv4",456,"76.csv","","null","resources/maskTrios/BT4B.jpg","null","",NA,NA,NA,NA,""
"image-keyboard-response",68,113887,"0.0-4.18-2.18","mgr2la5rnnmtkv4",456,"76.csv","","null","resources/images/coin2.png","null","",NA,NA,NA,NA,""
"image-keyboard-response",69,113907,"0.0-4.19-0.19","mgr2la5rnnmtkv4",456,"76.csv","","19.199999928474426","resources/trios/L1T4A3.jpg","38","restless",0.8,0.7,0.2,0.609686363490342,"true"
"image-keyboard-response",70,114310,"0.0-4.19-1.19","mgr2la5rnnmtkv4",456,"76.csv","","null","resources/maskTrios/BT4B.jpg","null","",NA,NA,NA,NA,""
"image-keyboard-response",71,115514,"0.0-4.19-2.19","mgr2la5rnnmtkv4",456,"76.csv","","null","resources/images/coin2.png","null","",NA,NA,NA,NA,""
"image-keyboard-response",72,115579,"0.0-4.20-0.20","mgr2la5rnnmtkv4",456,"76.csv","","64.79999995231628","resources/trios/L1T4A3.jpg","38","restless",0.7,0.7,0.2,0.739361375091387,"false"
"image-keyboard-response",73,115985,"0.0-4.20-1.20","mgr2la5rnnmtkv4",456,"76.csv","","null","resources/maskTrios/BT4B.jpg","null","",NA,NA,NA,NA,""
"image-keyboard-response",74,117188,"0.0-4.20-2.20","mgr2la5rnnmtkv4",456,"76.csv","","null","resources/images/fishbone.png","null","",NA,NA,NA,NA,""
"image-keyboard-response",75,117379,"0.0-4.21-0.21","mgr2la5rnnmtkv4",456,"76.csv","","191","resources/trios/L1T4A3.jpg","38","restless",0.7,0.7,0.3,0.125736877696847,"true"
"image-keyboard-response",76,117785,"0.0-4.21-1.21","mgr2la5rnnmtkv4",456,"76.csv","","null","resources/maskTrios/BT4B.jpg","null","",NA,NA,NA,NA,""
"image-keyboard-response",77,118989,"0.0-4.21-2.21","mgr2la5rnnmtkv4",456,"76.csv","","null","resources/images/coin2.png","null","",NA,NA,NA,NA,""
"image-keyboard-response",78,119099,"0.0-4.22-0.22","mgr2la5rnnmtkv4",456,"76.csv","","109.5","resources/trios/L1T4A3.jpg","38","restless",0.7,0.7,0.3,0.751839544314117,"false"
"image-keyboard-response",79,119506,"0.0-4.22-1.22","mgr2la5rnnmtkv4",456,"76.csv","","null","resources/maskTrios/BT4B.jpg","null","",NA,NA,NA,NA,""
"image-keyboard-response",80,120709,"0.0-4.22-2.22","mgr2la5rnnmtkv4",456,"76.csv","","null","resources/images/fishbone.png","null","",NA,NA,NA,NA,""
"image-keyboard-response",81,120883,"0.0-4.23-0.23","mgr2la5rnnmtkv4",456,"76.csv","","173.59999990463257","resources/trios/L1T4A3.jpg","38","restless",0.7,0.6,0.3,0.320656109667384,"true"
"image-keyboard-response",82,121296,"0.0-4.23-1.23","mgr2la5rnnmtkv4",456,"76.csv","","null","resources/maskTrios/BT4B.jpg","null","",NA,NA,NA,NA,""
"image-keyboard-response",83,122502,"0.0-4.23-2.23","mgr2la5rnnmtkv4",456,"76.csv","","null","resources/images/coin2.png","null","",NA,NA,NA,NA,""
"image-keyboard-response",84,122556,"0.0-4.24-0.24","mgr2la5rnnmtkv4",456,"76.csv","","53.199999928474426","resources/trios/L1T4A3.jpg","38","restless",0.7,0.6,0.3,0.330546893235847,"true"
"image-keyboard-response",85,122961,"0.0-4.24-1.24","mgr2la5rnnmtkv4",456,"76.csv","","null","resources/maskTrios/BT4B.jpg","null","",NA,NA,NA,NA,""
"image-keyboard-response",86,124163,"0.0-4.24-2.24","mgr2la5rnnmtkv4",456,"76.csv","","null","resources/images/coin2.png","null","",NA,NA,NA,NA,""
"image-keyboard-response",87,124412,"0.0-4.25-0.25","mgr2la5rnnmtkv4",456,"76.csv","","247.5","resources/trios/L1T4A3.jpg","38","restless",0.7,0.6,0.3,0.806447412733571,"false"
"image-keyboard-response",88,124820,"0.0-4.25-1.25","mgr2la5rnnmtkv4",456,"76.csv","","null","resources/maskTrios/BT4B.jpg","null","",NA,NA,NA,NA,""
"image-keyboard-response",89,126030,"0.0-4.25-2.25","mgr2la5rnnmtkv4",456,"76.csv","","null","resources/images/fishbone.png","null","",NA,NA,NA,NA,""
"image-keyboard-response",90,127332,"0.0-4.26-0.26","mgr2la5rnnmtkv4",456,"76.csv","","1300.6999999284744","resources/trios/L1T4A3.jpg","37","restless",0.7,0.6,0.3,0.453948426663319,"true"
"image-keyboard-response",91,127737,"0.0-4.26-1.26","mgr2la5rnnmtkv4",456,"76.csv","","null","resources/maskTrios/L1BB.jpg","null","",NA,NA,NA,NA,""
"image-keyboard-response",92,128953,"0.0-4.26-2.26","mgr2la5rnnmtkv4",456,"76.csv","","null","resources/images/coin2.png","null","",NA,NA,NA,NA,""
"image-keyboard-response",93,129324,"0.0-4.27-0.27","mgr2la5rnnmtkv4",456,"76.csv","","370","resources/trios/L1T4A3.jpg","37","restless",0.7,0.6,0.3,0.726034903517226,"false"
"image-keyboard-response",94,129735,"0.0-4.27-1.27","mgr2la5rnnmtkv4",456,"76.csv","","null","resources/maskTrios/L1BB.jpg","null","",NA,NA,NA,NA,""
"image-keyboard-response",95,130949,"0.0-4.27-2.27","mgr2la5rnnmtkv4",456,"76.csv","","null","resources/images/fishbone.png","null","",NA,NA,NA,NA,""
"image-keyboard-response",96,131075,"0.0-4.28-0.28","mgr2la5rnnmtkv4",456,"76.csv","","126.30000007152557","resources/trios/L1T4A3.jpg","39","restless",0.7,0.5,0.3,0.21527321116291,"true"
"image-keyboard-response",97,131490,"0.0-4.28-1.28","mgr2la5rnnmtkv4",456,"76.csv","","null","resources/maskTrios/BBA3.jpg","null","",NA,NA,NA,NA,""
"image-keyboard-response",98,132700,"0.0-4.28-2.28","mgr2la5rnnmtkv4",456,"76.csv","","null","resources/images/coin2.png","null","",NA,NA,NA,NA,""
"image-keyboard-response",99,133068,"0.0-4.29-0.29","mgr2la5rnnmtkv4",456,"76.csv","","367","resources/trios/L1T4A3.jpg","39","restless",0.7,0.5,0.3,0.439378198547314,"false"
"image-keyboard-response",100,133474,"0.0-4.29-1.29","mgr2la5rnnmtkv4",456,"76.csv","","null","resources/maskTrios/BBA3.jpg","null","",NA,NA,NA,NA,""
"image-keyboard-response",101,134684,"0.0-4.29-2.29","mgr2la5rnnmtkv4",456,"76.csv","","null","resources/images/fishbone.png","null","",NA,NA,NA,NA,""
"image-keyboard-response",102,134747,"0.0-4.30-0.30","mgr2la5rnnmtkv4",456,"76.csv","","62.799999952316284","resources/trios/L1T4A3.jpg","38","restless",0.7,0.5,0.3,0.0348642966917316,"true"
"image-keyboard-response",103,135159,"0.0-4.30-1.30","mgr2la5rnnmtkv4",456,"76.csv","","null","resources/maskTrios/BT4B.jpg","null","",NA,NA,NA,NA,""
"image-keyboard-response",104,136360,"0.0-4.30-2.30","mgr2la5rnnmtkv4",456,"76.csv","","null","resources/images/coin2.png","null","",NA,NA,NA,NA,""
"image-keyboard-response",105,136379,"0.0-4.31-0.31","mgr2la5rnnmtkv4",456,"76.csv","","18.5","resources/trios/L1T4A3.jpg","38","restless",0.7,0.5,0.3,0.638381182014377,"false"
"image-keyboard-response",106,136785,"0.0-4.31-1.31","mgr2la5rnnmtkv4",456,"76.csv","","null","resources/maskTrios/BT4B.jpg","null","",NA,NA,NA,NA,""
"image-keyboard-response",107,137996,"0.0-4.31-2.31","mgr2la5rnnmtkv4",456,"76.csv","","null","resources/images/fishbone.png","null","",NA,NA,NA,NA,""
"image-keyboard-response",108,138147,"0.0-4.32-0.32","mgr2la5rnnmtkv4",456,"76.csv","","150.90000009536743","resources/trios/L1T4A3.jpg","38","restless",0.7,0.5,0.3,0.0974530865481993,"true"
"image-keyboard-response",109,138564,"0.0-4.32-1.32","mgr2la5rnnmtkv4",456,"76.csv","","null","resources/maskTrios/BT4B.jpg","null","",NA,NA,NA,NA,""
"image-keyboard-response",110,139767,"0.0-4.32-2.32","mgr2la5rnnmtkv4",456,"76.csv","","null","resources/images/coin2.png","null","",NA,NA,NA,NA,""
"image-keyboard-response",111,139899,"0.0-4.33-0.33","mgr2la5rnnmtkv4",456,"76.csv","","131.59999990463257","resources/trios/L1T4A3.jpg","38","restless",0.7,0.5,0.3,0.22747911348877,"true"
"image-keyboard-response",112,140301,"0.0-4.33-1.33","mgr2la5rnnmtkv4",456,"76.csv","","null","resources/maskTrios/BT4B.jpg","null","",NA,NA,NA,NA,""
"image-keyboard-response",113,141512,"0.0-4.33-2.33","mgr2la5rnnmtkv4",456,"76.csv","","null","resources/images/coin2.png","null","",NA,NA,NA,NA,""
"image-keyboard-response",114,141579,"0.0-4.34-0.34","mgr2la5rnnmtkv4",456,"76.csv","","66.90000009536743","resources/trios/L1T4A3.jpg","38","restless",0.7,0.5,0.3,0.840886805396269,"false"
"image-keyboard-response",115,141985,"0.0-4.34-1.34","mgr2la5rnnmtkv4",456,"76.csv","","null","resources/maskTrios/BT4B.jpg","null","",NA,NA,NA,NA,""
"image-keyboard-response",116,143187,"0.0-4.34-2.34","mgr2la5rnnmtkv4",456,"76.csv","","null","resources/images/fishbone.png","null","",NA,NA,NA,NA,""
"image-keyboard-response",117,143308,"0.0-4.35-0.35","mgr2la5rnnmtkv4",456,"76.csv","","119.60000002384186","resources/trios/L1T4A3.jpg","38","restless",0.8,0.5,0.3,0.0395087553528972,"true"
"image-keyboard-response",118,143712,"0.0-4.35-1.35","mgr2la5rnnmtkv4",456,"76.csv","","null","resources/maskTrios/BT4B.jpg","null","",NA,NA,NA,NA,""
"image-keyboard-response",119,144927,"0.0-4.35-2.35","mgr2la5rnnmtkv4",456,"76.csv","","null","resources/images/coin2.png","null","",NA,NA,NA,NA,""
"image-keyboard-response",120,145067,"0.0-4.36-0.36","mgr2la5rnnmtkv4",456,"76.csv","","139.79999995231628","resources/trios/L1T4A3.jpg","38","restless",0.8,0.5,0.3,0.0873776811654101,"true"
"image-keyboard-response",121,145476,"0.0-4.36-1.36","mgr2la5rnnmtkv4",456,"76.csv","","null","resources/maskTrios/BT4B.jpg","null","",NA,NA,NA,NA,""
"image-keyboard-response",122,146690,"0.0-4.36-2.36","mgr2la5rnnmtkv4",456,"76.csv","","null","resources/images/coin2.png","null","",NA,NA,NA,NA,""
"image-keyboard-response",123,147099,"0.0-4.37-0.37","mgr2la5rnnmtkv4",456,"76.csv","","409","resources/trios/L1T4A3.jpg","38","restless",0.8,0.5,0.3,0.393015365551775,"true"
"image-keyboard-response",124,147511,"0.0-4.37-1.37","mgr2la5rnnmtkv4",456,"76.csv","","null","resources/maskTrios/BT4B.jpg","null","",NA,NA,NA,NA,""
"image-keyboard-response",125,148720,"0.0-4.37-2.37","mgr2la5rnnmtkv4",456,"76.csv","","null","resources/images/coin2.png","null","",NA,NA,NA,NA,""
"image-keyboard-response",126,148860,"0.0-4.38-0.38","mgr2la5rnnmtkv4",456,"76.csv","","138.60000002384186","resources/trios/L1T4A3.jpg","38","restless",0.7,0.5,0.3,0.478820395973714,"true"
"image-keyboard-response",127,149264,"0.0-4.38-1.38","mgr2la5rnnmtkv4",456,"76.csv","","null","resources/maskTrios/BT4B.jpg","null","",NA,NA,NA,NA,""
"image-keyboard-response",128,150477,"0.0-4.38-2.38","mgr2la5rnnmtkv4",456,"76.csv","","null","resources/images/coin2.png","null","",NA,NA,NA,NA,""
"image-keyboard-response",129,150499,"0.0-4.39-0.39","mgr2la5rnnmtkv4",456,"76.csv","","22","resources/trios/L1T4A3.jpg","38","restless",0.7,0.4,0.3,0.900665030282417,"false"
"image-keyboard-response",130,150909,"0.0-4.39-1.39","mgr2la5rnnmtkv4",456,"76.csv","","null","resources/maskTrios/BT4B.jpg","null","",NA,NA,NA,NA,""
"image-keyboard-response",131,152112,"0.0-4.39-2.39","mgr2la5rnnmtkv4",456,"76.csv","","null","resources/images/fishbone.png","null","",NA,NA,NA,NA,""
"image-keyboard-response",132,152212,"0.0-4.40-0.40","mgr2la5rnnmtkv4",456,"76.csv","","98.69999992847443","resources/trios/L1T4A3.jpg","38","restless",0.7,0.4,0.3,0.0886844054758957,"true"
"image-keyboard-response",133,152620,"0.0-4.40-1.40","mgr2la5rnnmtkv4",456,"76.csv","","null","resources/maskTrios/BT4B.jpg","null","",NA,NA,NA,NA,""
"image-keyboard-response",134,153823,"0.0-4.40-2.40","mgr2la5rnnmtkv4",456,"76.csv","","null","resources/images/coin2.png","null","",NA,NA,NA,NA,""
"image-keyboard-response",135,153835,"0.0-4.41-0.41","mgr2la5rnnmtkv4",456,"76.csv","","12","resources/trios/L1T4A3.jpg","38","restless",0.7,0.4,0.4,0.382101288919351,"true"
"image-keyboard-response",136,154250,"0.0-4.41-1.41","mgr2la5rnnmtkv4",456,"76.csv","","null","resources/maskTrios/BT4B.jpg","null","",NA,NA,NA,NA,""
"image-keyboard-response",137,155451,"0.0-4.41-2.41","mgr2la5rnnmtkv4",456,"76.csv","","null","resources/images/coin2.png","null","",NA,NA,NA,NA,""
"image-keyboard-response",138,155667,"0.0-4.42-0.42","mgr2la5rnnmtkv4",456,"76.csv","","215.5","resources/trios/L1T4A3.jpg","38","restless",0.7,0.4,0.4,0.811190064117466,"false"
"image-keyboard-response",139,156080,"0.0-4.42-1.42","mgr2la5rnnmtkv4",456,"76.csv","","null","resources/maskTrios/BT4B.jpg","null","",NA,NA,NA,NA,""
"image-keyboard-response",140,157293,"0.0-4.42-2.42","mgr2la5rnnmtkv4",456,"76.csv","","null","resources/images/fishbone.png","null","",NA,NA,NA,NA,""
"image-keyboard-response",141,157299,"0.0-4.43-0.43","mgr2la5rnnmtkv4",456,"76.csv","","5.799999952316284","resources/trios/L1T4A3.jpg","38","restless",0.7,0.4,0.4,0.119535318245713,"true"
"image-keyboard-response",142,157707,"0.0-4.43-1.43","mgr2la5rnnmtkv4",456,"76.csv","","null","resources/maskTrios/BT4B.jpg","null","",NA,NA,NA,NA,""
"image-keyboard-response",143,158915,"0.0-4.43-2.43","mgr2la5rnnmtkv4",456,"76.csv","","null","resources/images/coin2.png","null","",NA,NA,NA,NA,""
"image-keyboard-response",144,159027,"0.0-4.44-0.44","mgr2la5rnnmtkv4",456,"76.csv","","111.5","resources/trios/L1T4A3.jpg","38","restless",0.7,0.4,0.4,0.665929394812272,"false"
"image-keyboard-response",145,159429,"0.0-4.44-1.44","mgr2la5rnnmtkv4",456,"76.csv","","null","resources/maskTrios/BT4B.jpg","null","",NA,NA,NA,NA,""
"image-keyboard-response",146,160639,"0.0-4.44-2.44","mgr2la5rnnmtkv4",456,"76.csv","","null","resources/images/fishbone.png","null","",NA,NA,NA,NA,""
"image-keyboard-response",147,160708,"0.0-4.45-0.45","mgr2la5rnnmtkv4",456,"76.csv","","67.70000004768372","resources/trios/L1T4A3.jpg","38","restless",0.7,0.4,0.4,0.758735872676326,"false"
"image-keyboard-response",148,161115,"0.0-4.45-1.45","mgr2la5rnnmtkv4",456,"76.csv","","null","resources/maskTrios/BT4B.jpg","null","",NA,NA,NA,NA,""
"image-keyboard-response",149,162316,"0.0-4.45-2.45","mgr2la5rnnmtkv4",456,"76.csv","","null","resources/images/fishbone.png","null","",NA,NA,NA,NA,""
"image-keyboard-response",150,162491,"0.0-4.46-0.46","mgr2la5rnnmtkv4",456,"76.csv","","174.69999992847443","resources/trios/L1T4A3.jpg","39","restless",0.7,0.4,0.4,0.137927137217124,"true"
"image-keyboard-response",151,162899,"0.0-4.46-1.46","mgr2la5rnnmtkv4",456,"76.csv","","null","resources/maskTrios/BBA3.jpg","null","",NA,NA,NA,NA,""
"image-keyboard-response",152,164107,"0.0-4.46-2.46","mgr2la5rnnmtkv4",456,"76.csv","","null","resources/images/coin2.png","null","",NA,NA,NA,NA,""
"image-keyboard-response",153,164179,"0.0-4.47-0.47","mgr2la5rnnmtkv4",456,"76.csv","","71.60000002384186","resources/trios/L1T4A3.jpg","39","restless",0.7,0.4,0.4,0.0323096546909372,"true"
"image-keyboard-response",154,164582,"0.0-4.47-1.47","mgr2la5rnnmtkv4",456,"76.csv","","null","resources/maskTrios/BBA3.jpg","null","",NA,NA,NA,NA,""
"image-keyboard-response",155,165788,"0.0-4.47-2.47","mgr2la5rnnmtkv4",456,"76.csv","","null","resources/images/coin2.png","null","",NA,NA,NA,NA,""
"image-keyboard-response",156,165979,"0.0-4.48-0.48","mgr2la5rnnmtkv4",456,"76.csv","","191.20000004768372","resources/trios/L1T4A3.jpg","39","restless",0.7,0.4,0.4,0.436203633264508,"false"
"image-keyboard-response",157,166385,"0.0-4.48-1.48","mgr2la5rnnmtkv4",456,"76.csv","","null","resources/maskTrios/BBA3.jpg","null","",NA,NA,NA,NA,""
"image-keyboard-response",158,167590,"0.0-4.48-2.48","mgr2la5rnnmtkv4",456,"76.csv","","null","resources/images/fishbone.png","null","",NA,NA,NA,NA,""
"image-keyboard-response",159,168100,"0.0-4.49-0.49","mgr2la5rnnmtkv4",456,"76.csv","","509.60000002384186","resources/trios/L1T4A3.jpg","37","restless",0.7,0.5,0.4,0.813905372796333,"false"
"image-keyboard-response",160,168501,"0.0-4.49-1.49","mgr2la5rnnmtkv4",456,"76.csv","","null","resources/maskTrios/L1BB.jpg","null","",NA,NA,NA,NA,""
"image-keyboard-response",161,169712,"0.0-4.49-2.49","mgr2la5rnnmtkv4",456,"76.csv","","null","resources/images/fishbone.png","null","",NA,NA,NA,NA,""
"image-keyboard-response",162,169820,"0.0-4.50-0.50","mgr2la5rnnmtkv4",456,"76.csv","","106.69999992847443","resources/trios/L1T4A3.jpg","38","restless",0.7,0.4,0.4,0.537065834887158,"false"
"image-keyboard-response",163,170226,"0.0-4.50-1.50","mgr2la5rnnmtkv4",456,"76.csv","","null","resources/maskTrios/BT4B.jpg","null","",NA,NA,NA,NA,""
"image-keyboard-response",164,171435,"0.0-4.50-2.50","mgr2la5rnnmtkv4",456,"76.csv","","null","resources/images/fishbone.png","null","",NA,NA,NA,NA,""
"image-keyboard-response",165,171899,"0.0-4.51-0.51","mgr2la5rnnmtkv4",456,"76.csv","","463.39999997615814","resources/trios/L1T4A3.jpg","38","restless",0.7,0.4,0.4,0.768386781542383,"false"
"image-keyboard-response",166,172315,"0.0-4.51-1.51","mgr2la5rnnmtkv4",456,"76.csv","","null","resources/maskTrios/BT4B.jpg","null","",NA,NA,NA,NA,""
"image-keyboard-response",167,173527,"0.0-4.51-2.51","mgr2la5rnnmtkv4",456,"76.csv","","null","resources/images/fishbone.png","null","",NA,NA,NA,NA,""
"image-keyboard-response",168,173828,"0.0-4.52-0.52","mgr2la5rnnmtkv4",456,"76.csv","","299.6999999284744","resources/trios/L1T4A3.jpg","39","restless",0.7,0.4,0.4,0.917242017971707,"false"
"image-keyboard-response",169,174233,"0.0-4.52-1.52","mgr2la5rnnmtkv4",456,"76.csv","","null","resources/maskTrios/BBA3.jpg","null","",NA,NA,NA,NA,""
"image-keyboard-response",170,175444,"0.0-4.52-2.52","mgr2la5rnnmtkv4",456,"76.csv","","null","resources/images/fishbone.png","null","",NA,NA,NA,NA,""
"image-keyboard-response",171,175715,"0.0-4.53-0.53","mgr2la5rnnmtkv4",456,"76.csv","","270.6999999284744","resources/trios/L1T4A3.jpg","38","restless",0.7,0.4,0.4,0.17333651223915,"true"
"image-keyboard-response",172,176119,"0.0-4.53-1.53","mgr2la5rnnmtkv4",456,"76.csv","","null","resources/maskTrios/BT4B.jpg","null","",NA,NA,NA,NA,""
"image-keyboard-response",173,177328,"0.0-4.53-2.53","mgr2la5rnnmtkv4",456,"76.csv","","null","resources/images/coin2.png","null","",NA,NA,NA,NA,""
"image-keyboard-response",174,177555,"0.0-4.54-0.54","mgr2la5rnnmtkv4",456,"76.csv","","226.79999995231628","resources/trios/L1T4A3.jpg","38","restless",0.7,0.4,0.4,0.2578186775718,"true"
"image-keyboard-response",175,177970,"0.0-4.54-1.54","mgr2la5rnnmtkv4",456,"76.csv","","null","resources/maskTrios/BT4B.jpg","null","",NA,NA,NA,NA,""
"image-keyboard-response",176,179174,"0.0-4.54-2.54","mgr2la5rnnmtkv4",456,"76.csv","","null","resources/images/coin2.png","null","",NA,NA,NA,NA,""
"image-keyboard-response",177,179347,"0.0-4.55-0.55","mgr2la5rnnmtkv4",456,"76.csv","","173","resources/trios/L1T4A3.jpg","38","restless",0.7,0.4,0.4,0.771273372350139,"false"
"image-keyboard-response",178,179755,"0.0-4.55-1.55","mgr2la5rnnmtkv4",456,"76.csv","","null","resources/maskTrios/BT4B.jpg","null","",NA,NA,NA,NA,""
"image-keyboard-response",179,180961,"0.0-4.55-2.55","mgr2la5rnnmtkv4",456,"76.csv","","null","resources/images/fishbone.png","null","",NA,NA,NA,NA,""
"image-keyboard-response",180,181027,"0.0-4.56-0.56","mgr2la5rnnmtkv4",456,"76.csv","","65.30000007152557","resources/trios/L1T4A3.jpg","38","restless",0.7,0.4,0.4,0.981460563872086,"false"
"image-keyboard-response",181,181435,"0.0-4.56-1.56","mgr2la5rnnmtkv4",456,"76.csv","","null","resources/maskTrios/BT4B.jpg","null","",NA,NA,NA,NA,""
"image-keyboard-response",182,182641,"0.0-4.56-2.56","mgr2la5rnnmtkv4",456,"76.csv","","null","resources/images/fishbone.png","null","",NA,NA,NA,NA,""
"image-keyboard-response",183,182707,"0.0-4.57-0.57","mgr2la5rnnmtkv4",456,"76.csv","","65.79999995231628","resources/trios/L1T4A3.jpg","38","restless",0.7,0.4,0.4,0.963186615779032,"false"
"image-keyboard-response",184,183112,"0.0-4.57-1.57","mgr2la5rnnmtkv4",456,"76.csv","","null","resources/maskTrios/BT4B.jpg","null","",NA,NA,NA,NA,""
"image-keyboard-response",185,184313,"0.0-4.57-2.57","mgr2la5rnnmtkv4",456,"76.csv","","null","resources/images/fishbone.png","null","",NA,NA,NA,NA,""
"image-keyboard-response",186,184435,"0.0-4.58-0.58","mgr2la5rnnmtkv4",456,"76.csv","","121.90000009536743","resources/trios/L1T4A3.jpg","38","restless",0.7,0.4,0.4,0.396244573604899,"true"
"image-keyboard-response",187,184842,"0.0-4.58-1.58","mgr2la5rnnmtkv4",456,"76.csv","","null","resources/maskTrios/BT4B.jpg","null","",NA,NA,NA,NA,""
"image-keyboard-response",188,186049,"0.0-4.58-2.58","mgr2la5rnnmtkv4",456,"76.csv","","null","resources/images/coin2.png","null","",NA,NA,NA,NA,""
"image-keyboard-response",189,186195,"0.0-4.59-0.59","mgr2la5rnnmtkv4",456,"76.csv","","145.59999990463257","resources/trios/L1T4A3.jpg","38","restless",0.6,0.4,0.4,0.46816681357379,"false"
"image-keyboard-response",190,186601,"0.0-4.59-1.59","mgr2la5rnnmtkv4",456,"76.csv","","null","resources/maskTrios/BT4B.jpg","null","",NA,NA,NA,NA,""
"image-keyboard-response",191,187803,"0.0-4.59-2.59","mgr2la5rnnmtkv4",456,"76.csv","","null","resources/images/fishbone.png","null","",NA,NA,NA,NA,""
"image-keyboard-response",192,187939,"0.0-4.60-0.60","mgr2la5rnnmtkv4",456,"76.csv","","135.59999990463257","resources/trios/L1T4A3.jpg","38","restless",0.6,0.4,0.4,0.413591641721565,"false"
"image-keyboard-response",193,188350,"0.0-4.60-1.60","mgr2la5rnnmtkv4",456,"76.csv","","null","resources/maskTrios/BT4B.jpg","null","",NA,NA,NA,NA,""
"image-keyboard-response",194,189552,"0.0-4.60-2.60","mgr2la5rnnmtkv4",456,"76.csv","","null","resources/images/fishbone.png","null","",NA,NA,NA,NA,""
"image-keyboard-response",195,189691,"0.0-4.61-0.61","mgr2la5rnnmtkv4",456,"76.csv","","138.5","resources/trios/L1T4A3.jpg","38","restless",0.6,0.4,0.4,0.524920260687281,"false"
"image-keyboard-response",196,190103,"0.0-4.61-1.61","mgr2la5rnnmtkv4",456,"76.csv","","null","resources/maskTrios/BT4B.jpg","null","",NA,NA,NA,NA,""
"image-keyboard-response",197,191313,"0.0-4.61-2.61","mgr2la5rnnmtkv4",456,"76.csv","","null","resources/images/fishbone.png","null","",NA,NA,NA,NA,""
"image-keyboard-response",198,191355,"0.0-4.62-0.62","mgr2la5rnnmtkv4",456,"76.csv","","41.59999990463257","resources/trios/L1T4A3.jpg","38","restless",0.6,0.4,0.3,0.420183676575631,"false"
"image-keyboard-response",199,191760,"0.0-4.62-1.62","mgr2la5rnnmtkv4",456,"76.csv","","null","resources/maskTrios/BT4B.jpg","null","",NA,NA,NA,NA,""
"image-keyboard-response",200,192962,"0.0-4.62-2.62","mgr2la5rnnmtkv4",456,"76.csv","","null","resources/images/fishbone.png","null","",NA,NA,NA,NA,""
"image-keyboard-response",201,194123,"0.0-4.63-0.63","mgr2la5rnnmtkv4",456,"76.csv","","1160.5","resources/trios/L1T4A3.jpg","37","restless",0.5,0.4,0.3,0.885729950470803,"false"
"image-keyboard-response",202,194525,"0.0-4.63-1.63","mgr2la5rnnmtkv4",456,"76.csv","","null","resources/maskTrios/L1BB.jpg","null","",NA,NA,NA,NA,""
"image-keyboard-response",203,195730,"0.0-4.63-2.63","mgr2la5rnnmtkv4",456,"76.csv","","null","resources/images/fishbone.png","null","",NA,NA,NA,NA,""
"image-keyboard-response",204,195732,"0.0-4.64-0.64","mgr2la5rnnmtkv4",456,"76.csv","","0.6999999284744263","resources/trios/L1T4A3.jpg","37","restless",0.5,0.4,0.3,0.888624123625875,"false"
"image-keyboard-response",205,196138,"0.0-4.64-1.64","mgr2la5rnnmtkv4",456,"76.csv","","null","resources/maskTrios/L1BB.jpg","null","",NA,NA,NA,NA,""
"image-keyboard-response",206,197348,"0.0-4.64-2.64","mgr2la5rnnmtkv4",456,"76.csv","","null","resources/images/fishbone.png","null","",NA,NA,NA,NA,""
"image-keyboard-response",207,197851,"0.0-4.65-0.65","mgr2la5rnnmtkv4",456,"76.csv","","503.1999999284744","resources/trios/L1T4A3.jpg","39","restless",0.6,0.4,0.3,0.150692959907762,"true"
"image-keyboard-response",208,198261,"0.0-4.65-1.65","mgr2la5rnnmtkv4",456,"76.csv","","null","resources/maskTrios/BBA3.jpg","null","",NA,NA,NA,NA,""
"image-keyboard-response",209,199474,"0.0-4.65-2.65","mgr2la5rnnmtkv4",456,"76.csv","","null","resources/images/coin2.png","null","",NA,NA,NA,NA,""
"image-keyboard-response",210,200172,"0.0-4.66-0.66","mgr2la5rnnmtkv4",456,"76.csv","","697.3000000715256","resources/trios/L1T4A3.jpg","39","restless",0.6,0.4,0.3,0.124175953572736,"true"
"image-keyboard-response",211,200582,"0.0-4.66-1.66","mgr2la5rnnmtkv4",456,"76.csv","","null","resources/maskTrios/BBA3.jpg","null","",NA,NA,NA,NA,""
"image-keyboard-response",212,201794,"0.0-4.66-2.66","mgr2la5rnnmtkv4",456,"76.csv","","null","resources/images/coin2.png","null","",NA,NA,NA,NA,""
"image-keyboard-response",213,201875,"0.0-4.67-0.67","mgr2la5rnnmtkv4",456,"76.csv","","81.20000004768372","resources/trios/L1T4A3.jpg","39","restless",0.6,0.4,0.3,0.0159499455160828,"true"
"image-keyboard-response",214,202288,"0.0-4.67-1.67","mgr2la5rnnmtkv4",456,"76.csv","","null","resources/maskTrios/BBA3.jpg","null","",NA,NA,NA,NA,""
"image-keyboard-response",215,203503,"0.0-4.67-2.67","mgr2la5rnnmtkv4",456,"76.csv","","null","resources/images/coin2.png","null","",NA,NA,NA,NA,""
"image-keyboard-response",216,203652,"0.0-4.68-0.68","mgr2la5rnnmtkv4",456,"76.csv","","147.89999997615814","resources/trios/L1T4A3.jpg","39","restless",0.6,0.4,0.3,0.329645569692032,"false"
"image-keyboard-response",217,204055,"0.0-4.68-1.68","mgr2la5rnnmtkv4",456,"76.csv","","null","resources/maskTrios/BBA3.jpg","null","",NA,NA,NA,NA,""
"image-keyboard-response",218,205265,"0.0-4.68-2.68","mgr2la5rnnmtkv4",456,"76.csv","","null","resources/images/fishbone.png","null","",NA,NA,NA,NA,""
"image-keyboard-response",219,205339,"0.0-4.69-0.69","mgr2la5rnnmtkv4",456,"76.csv","","74.19999992847443","resources/trios/L1T4A3.jpg","39","restless",0.6,0.4,0.3,0.802425007738101,"false"
"image-keyboard-response",220,205749,"0.0-4.69-1.69","mgr2la5rnnmtkv4",456,"76.csv","","null","resources/maskTrios/BBA3.jpg","null","",NA,NA,NA,NA,""
"image-keyboard-response",221,206955,"0.0-4.69-2.69","mgr2la5rnnmtkv4",456,"76.csv","","null","resources/images/fishbone.png","null","",NA,NA,NA,NA,""
"image-keyboard-response",222,207163,"0.0-4.70-0.70","mgr2la5rnnmtkv4",456,"76.csv","","207.5","resources/trios/L1T4A3.jpg","38","restless",0.5,0.4,0.3,0.0227332855339932,"true"
"image-keyboard-response",223,207569,"0.0-4.70-1.70","mgr2la5rnnmtkv4",456,"76.csv","","null","resources/maskTrios/BT4B.jpg","null","",NA,NA,NA,NA,""
"image-keyboard-response",224,208782,"0.0-4.70-2.70","mgr2la5rnnmtkv4",456,"76.csv","","null","resources/images/coin2.png","null","",NA,NA,NA,NA,""
"image-keyboard-response",225,208939,"0.0-4.71-0.71","mgr2la5rnnmtkv4",456,"76.csv","","156.5","resources/trios/L1T4A3.jpg","37","restless",0.5,0.4,0.3,0.376190780453467,"true"
"image-keyboard-response",226,209343,"0.0-4.71-1.71","mgr2la5rnnmtkv4",456,"76.csv","","null","resources/maskTrios/L1BB.jpg","null","",NA,NA,NA,NA,""
"image-keyboard-response",227,210551,"0.0-4.71-2.71","mgr2la5rnnmtkv4",456,"76.csv","","null","resources/images/coin2.png","null","",NA,NA,NA,NA,""
"image-keyboard-response",228,210908,"0.0-4.72-0.72","mgr2la5rnnmtkv4",456,"76.csv","","356","resources/trios/L1T4A3.jpg","39","restless",0.5,0.4,0.3,0.636599353045203,"false"
"image-keyboard-response",229,211320,"0.0-4.72-1.72","mgr2la5rnnmtkv4",456,"76.csv","","null","resources/maskTrios/BBA3.jpg","null","",NA,NA,NA,NA,""
"image-keyboard-response",230,212527,"0.0-4.72-2.72","mgr2la5rnnmtkv4",456,"76.csv","","null","resources/images/fishbone.png","null","",NA,NA,NA,NA,""
"image-keyboard-response",231,212868,"0.0-4.73-0.73","mgr2la5rnnmtkv4",456,"76.csv","","340.10000002384186","resources/trios/L1T4A3.jpg","38","restless",0.5,0.4,0.3,0.192422261849012,"true"
"image-keyboard-response",232,213282,"0.0-4.73-1.73","mgr2la5rnnmtkv4",456,"76.csv","","null","resources/maskTrios/BT4B.jpg","null","",NA,NA,NA,NA,""
"image-keyboard-response",233,214485,"0.0-4.73-2.73","mgr2la5rnnmtkv4",456,"76.csv","","null","resources/images/coin2.png","null","",NA,NA,NA,NA,""
"image-keyboard-response",234,214827,"0.0-4.74-0.74","mgr2la5rnnmtkv4",456,"76.csv","","341.59999990463257","resources/trios/L1T4A3.jpg","37","restless",0.5,0.4,0.4,0.638716814561581,"false"
"image-keyboard-response",235,215235,"0.0-4.74-1.74","mgr2la5rnnmtkv4",456,"76.csv","","null","resources/maskTrios/L1BB.jpg","null","",NA,NA,NA,NA,""
"image-keyboard-response",236,216436,"0.0-4.74-2.74","mgr2la5rnnmtkv4",456,"76.csv","","null","resources/images/fishbone.png","null","",NA,NA,NA,NA,""
"image-keyboard-response",237,216867,"0.0-4.75-0.75","mgr2la5rnnmtkv4",456,"76.csv","","431.10000002384186","resources/trios/L1T4A3.jpg","38","restless",0.5,0.4,0.4,0.626126315653724,"false"
"image-keyboard-response",238,217278,"0.0-4.75-1.75","mgr2la5rnnmtkv4",456,"76.csv","","null","resources/maskTrios/BT4B.jpg","null","",NA,NA,NA,NA,""
"image-keyboard-response",239,218484,"0.0-4.75-2.75","mgr2la5rnnmtkv4",456,"76.csv","","null","resources/images/fishbone.png","null","",NA,NA,NA,NA,""
"image-keyboard-response",240,218691,"0.0-4.76-0.76","mgr2la5rnnmtkv4",456,"76.csv","","207.29999995231628","resources/trios/L1T4A3.jpg","39","restless",0.5,0.4,0.4,0.0131323249866508,"true"
"image-keyboard-response",241,219099,"0.0-4.76-1.76","mgr2la5rnnmtkv4",456,"76.csv","","null","resources/maskTrios/BBA3.jpg","null","",NA,NA,NA,NA,""
"image-keyboard-response",242,220300,"0.0-4.76-2.76","mgr2la5rnnmtkv4",456,"76.csv","","null","resources/images/coin2.png","null","",NA,NA,NA,NA,""
"image-keyboard-response",243,221580,"0.0-4.77-0.77","mgr2la5rnnmtkv4",456,"76.csv","","1279","resources/trios/L1T4A3.jpg","39","restless",0.5,0.4,0.4,0.575757852796405,"false"
"image-keyboard-response",244,221987,"0.0-4.77-1.77","mgr2la5rnnmtkv4",456,"76.csv","","null","resources/maskTrios/BBA3.jpg","null","",NA,NA,NA,NA,""
"image-keyboard-response",245,223201,"0.0-4.77-2.77","mgr2la5rnnmtkv4",456,"76.csv","","null","resources/images/fishbone.png","null","",NA,NA,NA,NA,""
"image-keyboard-response",246,223331,"0.0-4.78-0.78","mgr2la5rnnmtkv4",456,"76.csv","","129.39999997615814","resources/trios/L1T4A3.jpg","37","restless",0.5,0.4,0.4,0.523818126350075,"false"
"image-keyboard-response",247,223748,"0.0-4.78-1.78","mgr2la5rnnmtkv4",456,"76.csv","","null","resources/maskTrios/L1BB.jpg","null","",NA,NA,NA,NA,""
"image-keyboard-response",248,224957,"0.0-4.78-2.78","mgr2la5rnnmtkv4",456,"76.csv","","null","resources/images/fishbone.png","null","",NA,NA,NA,NA,""
"image-keyboard-response",249,224979,"0.0-4.79-0.79","mgr2la5rnnmtkv4",456,"76.csv","","22.300000071525574","resources/trios/L1T4A3.jpg","37","restless",0.6,0.4,0.5,0.264769098505381,"true"
"image-keyboard-response",250,225382,"0.0-4.79-1.79","mgr2la5rnnmtkv4",456,"76.csv","","null","resources/maskTrios/L1BB.jpg","null","",NA,NA,NA,NA,""
"image-keyboard-response",251,226588,"0.0-4.79-2.79","mgr2la5rnnmtkv4",456,"76.csv","","null","resources/images/coin2.png","null","",NA,NA,NA,NA,""
"image-keyboard-response",252,226667,"0.0-4.80-0.80","mgr2la5rnnmtkv4",456,"76.csv","","79.10000002384186","resources/trios/L1T4A3.jpg","39","restless",0.6,0.4,0.5,0.130559421316977,"true"
"image-keyboard-response",253,227075,"0.0-4.80-1.80","mgr2la5rnnmtkv4",456,"76.csv","","null","resources/maskTrios/BBA3.jpg","null","",NA,NA,NA,NA,""
"image-keyboard-response",254,228283,"0.0-4.80-2.80","mgr2la5rnnmtkv4",456,"76.csv","","null","resources/images/coin2.png","null","",NA,NA,NA,NA,""
"image-keyboard-response",255,228332,"0.0-4.81-0.81","mgr2la5rnnmtkv4",456,"76.csv","","48.39999997615814","resources/trios/L1T4A3.jpg","38","restless",0.6,0.4,0.5,0.910471222504203,"false"
"image-keyboard-response",256,228745,"0.0-4.81-1.81","mgr2la5rnnmtkv4",456,"76.csv","","null","resources/maskTrios/BT4B.jpg","null","",NA,NA,NA,NA,""
"image-keyboard-response",257,229954,"0.0-4.81-2.81","mgr2la5rnnmtkv4",456,"76.csv","","null","resources/images/fishbone.png","null","",NA,NA,NA,NA,""
"image-keyboard-response",258,230075,"0.0-4.82-0.82","mgr2la5rnnmtkv4",456,"76.csv","","120.69999992847443","resources/trios/L1T4A3.jpg","38","restless",0.7,0.4,0.5,0.956160472614768,"false"
"image-keyboard-response",259,230489,"0.0-4.82-1.82","mgr2la5rnnmtkv4",456,"76.csv","","null","resources/maskTrios/BT4B.jpg","null","",NA,NA,NA,NA,""
"image-keyboard-response",260,231703,"0.0-4.82-2.82","mgr2la5rnnmtkv4",456,"76.csv","","null","resources/images/fishbone.png","null","",NA,NA,NA,NA,""
"image-keyboard-response",261,231779,"0.0-4.83-0.83","mgr2la5rnnmtkv4",456,"76.csv","","75.90000009536743","resources/trios/L1T4A3.jpg","38","restless",0.7,0.4,0.5,0.116748411324685,"true"
"image-keyboard-response",262,232187,"0.0-4.83-1.83","mgr2la5rnnmtkv4",456,"76.csv","","null","resources/maskTrios/BT4B.jpg","null","",NA,NA,NA,NA,""
"image-keyboard-response",263,233397,"0.0-4.83-2.83","mgr2la5rnnmtkv4",456,"76.csv","","null","resources/images/coin2.png","null","",NA,NA,NA,NA,""
"image-keyboard-response",264,233508,"0.0-4.84-0.84","mgr2la5rnnmtkv4",456,"76.csv","","110.10000002384186","resources/trios/L1T4A3.jpg","38","restless",0.7,0.4,0.5,0.00453864522047631,"true"
"image-keyboard-response",265,233921,"0.0-4.84-1.84","mgr2la5rnnmtkv4",456,"76.csv","","null","resources/maskTrios/BT4B.jpg","null","",NA,NA,NA,NA,""
"image-keyboard-response",266,235130,"0.0-4.84-2.84","mgr2la5rnnmtkv4",456,"76.csv","","null","resources/images/coin2.png","null","",NA,NA,NA,NA,""
"image-keyboard-response",267,235275,"0.0-4.85-0.85","mgr2la5rnnmtkv4",456,"76.csv","","145","resources/trios/L1T4A3.jpg","38","restless",0.7,0.4,0.5,0.440383063881741,"false"
"image-keyboard-response",268,235688,"0.0-4.85-1.85","mgr2la5rnnmtkv4",456,"76.csv","","null","resources/maskTrios/BT4B.jpg","null","",NA,NA,NA,NA,""
"image-keyboard-response",269,236894,"0.0-4.85-2.85","mgr2la5rnnmtkv4",456,"76.csv","","null","resources/images/fishbone.png","null","",NA,NA,NA,NA,""
"image-keyboard-response",270,236900,"0.0-4.86-0.86","mgr2la5rnnmtkv4",456,"76.csv","","4.699999928474426","resources/trios/L1T4A3.jpg","39","restless",0.7,0.4,0.5,0.807787006592802,"false"
"image-keyboard-response",271,237307,"0.0-4.86-1.86","mgr2la5rnnmtkv4",456,"76.csv","","null","resources/maskTrios/BBA3.jpg","null","",NA,NA,NA,NA,""
"image-keyboard-response",272,238512,"0.0-4.86-2.86","mgr2la5rnnmtkv4",456,"76.csv","","null","resources/images/fishbone.png","null","",NA,NA,NA,NA,""
"image-keyboard-response",273,238556,"0.0-4.87-0.87","mgr2la5rnnmtkv4",456,"76.csv","","43.10000002384186","resources/trios/L1T4A3.jpg","37","restless",0.7,0.4,0.5,0.261533082328202,"true"
"image-keyboard-response",274,238965,"0.0-4.87-1.87","mgr2la5rnnmtkv4",456,"76.csv","","null","resources/maskTrios/L1BB.jpg","null","",NA,NA,NA,NA,""
"image-keyboard-response",275,240169,"0.0-4.87-2.87","mgr2la5rnnmtkv4",456,"76.csv","","null","resources/images/coin2.png","null","",NA,NA,NA,NA,""
"image-keyboard-response",276,240179,"0.0-4.88-0.88","mgr2la5rnnmtkv4",456,"76.csv","","9.799999952316284","resources/trios/L1T4A3.jpg","37","restless",0.7,0.4,0.5,0.492169846236886,"true"
"image-keyboard-response",277,240581,"0.0-4.88-1.88","mgr2la5rnnmtkv4",456,"76.csv","","null","resources/maskTrios/L1BB.jpg","null","",NA,NA,NA,NA,""
"image-keyboard-response",278,241797,"0.0-4.88-2.88","mgr2la5rnnmtkv4",456,"76.csv","","null","resources/images/coin2.png","null","",NA,NA,NA,NA,""
"image-keyboard-response",279,241852,"0.0-4.89-0.89","mgr2la5rnnmtkv4",456,"76.csv","","54.5","resources/trios/L1T4A3.jpg","38","restless",0.7,0.4,0.5,0.227433488679764,"true"
"image-keyboard-response",280,242260,"0.0-4.89-1.89","mgr2la5rnnmtkv4",456,"76.csv","","null","resources/maskTrios/BT4B.jpg","null","",NA,NA,NA,NA,""
"image-keyboard-response",281,243465,"0.0-4.89-2.89","mgr2la5rnnmtkv4",456,"76.csv","","null","resources/images/coin2.png","null","",NA,NA,NA,NA,""
"image-keyboard-response",282,243699,"0.0-4.90-0.90","mgr2la5rnnmtkv4",456,"76.csv","","233.60000002384186","resources/trios/L1T4A3.jpg","38","restless",0.7,0.4,0.5,0.109911617046426,"true"
"image-keyboard-response",283,244107,"0.0-4.90-1.90","mgr2la5rnnmtkv4",456,"76.csv","","null","resources/maskTrios/BT4B.jpg","null","",NA,NA,NA,NA,""
"image-keyboard-response",284,245312,"0.0-4.90-2.90","mgr2la5rnnmtkv4",456,"76.csv","","null","resources/images/coin2.png","null","",NA,NA,NA,NA,""
"image-keyboard-response",285,245403,"0.0-4.91-0.91","mgr2la5rnnmtkv4",456,"76.csv","","90.70000004768372","resources/trios/L1T4A3.jpg","37","restless",0.7,0.4,0.5,0.648248160798427,"true"
"image-keyboard-response",286,245815,"0.0-4.91-1.91","mgr2la5rnnmtkv4",456,"76.csv","","null","resources/maskTrios/L1BB.jpg","null","",NA,NA,NA,NA,""
"image-keyboard-response",287,247022,"0.0-4.91-2.91","mgr2la5rnnmtkv4",456,"76.csv","","null","resources/images/coin2.png","null","",NA,NA,NA,NA,""
"image-keyboard-response",288,247060,"0.0-4.92-0.92","mgr2la5rnnmtkv4",456,"76.csv","","37.299999952316284","resources/trios/L1T4A3.jpg","37","restless",0.7,0.4,0.5,0.906893969908763,"false"
"image-keyboard-response",289,247468,"0.0-4.92-1.92","mgr2la5rnnmtkv4",456,"76.csv","","null","resources/maskTrios/L1BB.jpg","null","",NA,NA,NA,NA,""
"image-keyboard-response",290,248669,"0.0-4.92-2.92","mgr2la5rnnmtkv4",456,"76.csv","","null","resources/images/fishbone.png","null","",NA,NA,NA,NA,""
"image-keyboard-response",291,248747,"0.0-4.93-0.93","mgr2la5rnnmtkv4",456,"76.csv","","77.70000004768372","resources/trios/L1T4A3.jpg","37","restless",0.7,0.4,0.5,0.11467138882955,"true"
"image-keyboard-response",292,249154,"0.0-4.93-1.93","mgr2la5rnnmtkv4",456,"76.csv","","null","resources/maskTrios/L1BB.jpg","null","",NA,NA,NA,NA,""
"image-keyboard-response",293,250355,"0.0-4.93-2.93","mgr2la5rnnmtkv4",456,"76.csv","","null","resources/images/coin2.png","null","",NA,NA,NA,NA,""
"image-keyboard-response",294,250427,"0.0-4.94-0.94","mgr2la5rnnmtkv4",456,"76.csv","","71.5","resources/trios/L1T4A3.jpg","37","restless",0.7,0.5,0.5,0.71793894577053,"false"
"image-keyboard-response",295,250835,"0.0-4.94-1.94","mgr2la5rnnmtkv4",456,"76.csv","","null","resources/maskTrios/L1BB.jpg","null","",NA,NA,NA,NA,""
"image-keyboard-response",296,252039,"0.0-4.94-2.94","mgr2la5rnnmtkv4",456,"76.csv","","null","resources/images/fishbone.png","null","",NA,NA,NA,NA,""
"image-keyboard-response",297,252459,"0.0-4.95-0.95","mgr2la5rnnmtkv4",456,"76.csv","","420.2000000476837","resources/trios/L1T4A3.jpg","39","restless",0.7,0.5,0.5,0.106486672569835,"true"
"image-keyboard-response",298,252866,"0.0-4.95-1.95","mgr2la5rnnmtkv4",456,"76.csv","","null","resources/maskTrios/BBA3.jpg","null","",NA,NA,NA,NA,""
"image-keyboard-response",299,254075,"0.0-4.95-2.95","mgr2la5rnnmtkv4",456,"76.csv","","null","resources/images/coin2.png","null","",NA,NA,NA,NA,""
"image-keyboard-response",300,254219,"0.0-4.96-0.96","mgr2la5rnnmtkv4",456,"76.csv","","143.60000002384186","resources/trios/L1T4A3.jpg","39","restless",0.7,0.5,0.5,0.868524645705538,"false"
"image-keyboard-response",301,254622,"0.0-4.96-1.96","mgr2la5rnnmtkv4",456,"76.csv","","null","resources/maskTrios/BBA3.jpg","null","",NA,NA,NA,NA,""
"image-keyboard-response",302,255824,"0.0-4.96-2.96","mgr2la5rnnmtkv4",456,"76.csv","","null","resources/images/fishbone.png","null","",NA,NA,NA,NA,""
"image-keyboard-response",303,255963,"0.0-4.97-0.97","mgr2la5rnnmtkv4",456,"76.csv","","138.70000004768372","resources/trios/L1T4A3.jpg","39","restless",0.7,0.5,0.5,0.781891454717914,"false"
"image-keyboard-response",304,256375,"0.0-4.97-1.97","mgr2la5rnnmtkv4",456,"76.csv","","null","resources/maskTrios/BBA3.jpg","null","",NA,NA,NA,NA,""
"image-keyboard-response",305,257588,"0.0-4.97-2.97","mgr2la5rnnmtkv4",456,"76.csv","","null","resources/images/fishbone.png","null","",NA,NA,NA,NA,""
"image-keyboard-response",306,257763,"0.0-4.98-0.98","mgr2la5rnnmtkv4",456,"76.csv","","174.60000002384186","resources/trios/L1T4A3.jpg","39","restless",0.7,0.5,0.5,0.847952570386288,"false"
"image-keyboard-response",307,258172,"0.0-4.98-1.98","mgr2la5rnnmtkv4",456,"76.csv","","null","resources/maskTrios/BBA3.jpg","null","",NA,NA,NA,NA,""
"image-keyboard-response",308,259380,"0.0-4.98-2.98","mgr2la5rnnmtkv4",456,"76.csv","","null","resources/images/fishbone.png","null","",NA,NA,NA,NA,""
"image-keyboard-response",309,259427,"0.0-4.99-0.99","mgr2la5rnnmtkv4",456,"76.csv","","47","resources/trios/L1T4A3.jpg","38","restless",0.7,0.5,0.5,0.657015150166138,"false"
"image-keyboard-response",310,259836,"0.0-4.99-1.99","mgr2la5rnnmtkv4",456,"76.csv","","null","resources/maskTrios/BT4B.jpg","null","",NA,NA,NA,NA,""
"image-keyboard-response",311,261049,"0.0-4.99-2.99","mgr2la5rnnmtkv4",456,"76.csv","","null","resources/images/fishbone.png","null","",NA,NA,NA,NA,""
"image-keyboard-response",312,261059,"0.0-4.100-0.100","mgr2la5rnnmtkv4",456,"76.csv","","9.600000023841858","resources/trios/L1T4A3.jpg","39","restless",0.7,0.5,0.5,0.534683447233351,"false"
"image-keyboard-response",313,261465,"0.0-4.100-1.100","mgr2la5rnnmtkv4",456,"76.csv","","null","resources/maskTrios/BBA3.jpg","null","",NA,NA,NA,NA,""
"image-keyboard-response",314,262681,"0.0-4.100-2.100","mgr2la5rnnmtkv4",456,"76.csv","","null","resources/images/fishbone.png","null","",NA,NA,NA,NA,""
"image-keyboard-response",315,262715,"0.0-4.101-0.101","mgr2la5rnnmtkv4",456,"76.csv","","34.200000047683716","resources/trios/L1T4A3.jpg","39","restless",0.7,0.5,0.5,0.734937733111288,"false"
"image-keyboard-response",316,263124,"0.0-4.101-1.101","mgr2la5rnnmtkv4",456,"76.csv","","null","resources/maskTrios/BBA3.jpg","null","",NA,NA,NA,NA,""
"image-keyboard-response",317,264339,"0.0-4.101-2.101","mgr2la5rnnmtkv4",456,"76.csv","","null","resources/images/fishbone.png","null","",NA,NA,NA,NA,""
"image-keyboard-response",318,266459,"0.0-4.102-0.102","mgr2la5rnnmtkv4",456,"76.csv","","2120.100000023842","resources/trios/L1T4A3.jpg","37","restless",0.7,0.5,0.5,0.335250976704807,"true"
"image-keyboard-response",319,266868,"0.0-4.102-1.102","mgr2la5rnnmtkv4",456,"76.csv","","null","resources/maskTrios/L1BB.jpg","null","",NA,NA,NA,NA,""
"image-keyboard-response",320,268079,"0.0-4.102-2.102","mgr2la5rnnmtkv4",456,"76.csv","","null","resources/images/coin2.png","null","",NA,NA,NA,NA,""
"image-keyboard-response",321,268387,"0.0-4.103-0.103","mgr2la5rnnmtkv4",456,"76.csv","","308.1999999284744","resources/trios/L1T4A3.jpg","37","restless",0.6,0.5,0.4,0.522667251672843,"true"
"image-keyboard-response",322,268795,"0.0-4.103-1.103","mgr2la5rnnmtkv4",456,"76.csv","","null","resources/maskTrios/L1BB.jpg","null","",NA,NA,NA,NA,""
"image-keyboard-response",323,270010,"0.0-4.103-2.103","mgr2la5rnnmtkv4",456,"76.csv","","null","resources/images/coin2.png","null","",NA,NA,NA,NA,""
"image-keyboard-response",324,270307,"0.0-4.104-0.104","mgr2la5rnnmtkv4",456,"76.csv","","296.6999999284744","resources/trios/L1T4A3.jpg","37","restless",0.6,0.5,0.4,0.979679816944657,"false"
"image-keyboard-response",325,270721,"0.0-4.104-1.104","mgr2la5rnnmtkv4",456,"76.csv","","null","resources/maskTrios/L1BB.jpg","null","",NA,NA,NA,NA,""
"image-keyboard-response",326,271924,"0.0-4.104-2.104","mgr2la5rnnmtkv4",456,"76.csv","","null","resources/images/fishbone.png","null","",NA,NA,NA,NA,""
"image-keyboard-response",327,272268,"0.0-4.105-0.105","mgr2la5rnnmtkv4",456,"76.csv","","342.60000002384186","resources/trios/L1T4A3.jpg","37","restless",0.6,0.5,0.4,0.152743588047825,"true"
"image-keyboard-response",328,272679,"0.0-4.105-1.105","mgr2la5rnnmtkv4",456,"76.csv","","null","resources/maskTrios/L1BB.jpg","null","",NA,NA,NA,NA,""
"image-keyboard-response",329,273881,"0.0-4.105-2.105","mgr2la5rnnmtkv4",456,"76.csv","","null","resources/images/coin2.png","null","",NA,NA,NA,NA,""
"image-keyboard-response",330,302563,"0.0-4.106-0.106","mgr2la5rnnmtkv4",456,"76.csv","","28682.299999952316","resources/trios/L1T4A3.jpg","39","restless",0.5,0.5,0.4,0.303069396977925,"true"
"image-keyboard-response",331,302972,"0.0-4.106-1.106","mgr2la5rnnmtkv4",456,"76.csv","","null","resources/maskTrios/BBA3.jpg","null","",NA,NA,NA,NA,""
"image-keyboard-response",332,304182,"0.0-4.106-2.106","mgr2la5rnnmtkv4",456,"76.csv","","null","resources/images/coin2.png","null","",NA,NA,NA,NA,""
"image-keyboard-response",333,304611,"0.0-4.107-0.107","mgr2la5rnnmtkv4",456,"76.csv","","428.1999999284744","resources/trios/L1T4A3.jpg","39","restless",0.5,0.5,0.4,0.994173482773126,"false"
"image-keyboard-response",334,305020,"0.0-4.107-1.107","mgr2la5rnnmtkv4",456,"76.csv","","null","resources/maskTrios/BBA3.jpg","null","",NA,NA,NA,NA,""
"image-keyboard-response",335,306225,"0.0-4.107-2.107","mgr2la5rnnmtkv4",456,"76.csv","","null","resources/images/fishbone.png","null","",NA,NA,NA,NA,""
"image-keyboard-response",336,306579,"0.0-4.108-0.108","mgr2la5rnnmtkv4",456,"76.csv","","353.8000000715256","resources/trios/L1T4A3.jpg","38","restless",0.5,0.5,0.4,0.729901273790732,"false"
"image-keyboard-response",337,306986,"0.0-4.108-1.108","mgr2la5rnnmtkv4",456,"76.csv","","null","resources/maskTrios/BT4B.jpg","null","",NA,NA,NA,NA,""
"image-keyboard-response",338,308195,"0.0-4.108-2.108","mgr2la5rnnmtkv4",456,"76.csv","","null","resources/images/fishbone.png","null","",NA,NA,NA,NA,""
"image-keyboard-response",339,308419,"0.0-4.109-0.109","mgr2la5rnnmtkv4",456,"76.csv","","223.20000004768372","resources/trios/L1T4A3.jpg","37","restless",0.5,0.5,0.4,0.796936120044094,"false"
"image-keyboard-response",340,308833,"0.0-4.109-1.109","mgr2la5rnnmtkv4",456,"76.csv","","null","resources/maskTrios/L1BB.jpg","null","",NA,NA,NA,NA,""
"image-keyboard-response",341,310036,"0.0-4.109-2.109","mgr2la5rnnmtkv4",456,"76.csv","","null","resources/images/fishbone.png","null","",NA,NA,NA,NA,""
"image-keyboard-response",342,310275,"0.0-4.110-0.110","mgr2la5rnnmtkv4",456,"76.csv","","238.79999995231628","resources/trios/L1T4A3.jpg","39","restless",0.5,0.4,0.4,0.207573185633868,"true"
"image-keyboard-response",343,310684,"0.0-4.110-1.110","mgr2la5rnnmtkv4",456,"76.csv","","null","resources/maskTrios/BBA3.jpg","null","",NA,NA,NA,NA,""
"image-keyboard-response",344,311900,"0.0-4.110-2.110","mgr2la5rnnmtkv4",456,"76.csv","","null","resources/images/coin2.png","null","",NA,NA,NA,NA,""
"image-keyboard-response",345,312003,"0.0-4.111-0.111","mgr2la5rnnmtkv4",456,"76.csv","","102.80000007152557","resources/trios/L1T4A3.jpg","39","restless",0.5,0.4,0.4,0.172689265563913,"true"
"image-keyboard-response",346,312413,"0.0-4.111-1.111","mgr2la5rnnmtkv4",456,"76.csv","","null","resources/maskTrios/BBA3.jpg","null","",NA,NA,NA,NA,""
"image-keyboard-response",347,313615,"0.0-4.111-2.111","mgr2la5rnnmtkv4",456,"76.csv","","null","resources/images/coin2.png","null","",NA,NA,NA,NA,""
"image-keyboard-response",348,315395,"0.0-4.112-0.112","mgr2la5rnnmtkv4",456,"76.csv","","1780","resources/trios/L1T4A3.jpg","39","restless",0.5,0.4,0.4,0.57378143750632,"false"
"image-keyboard-response",349,315806,"0.0-4.112-1.112","mgr2la5rnnmtkv4",456,"76.csv","","null","resources/maskTrios/BBA3.jpg","null","",NA,NA,NA,NA,""
"image-keyboard-response",350,317010,"0.0-4.112-2.112","mgr2la5rnnmtkv4",456,"76.csv","","null","resources/images/fishbone.png","null","",NA,NA,NA,NA,""
"image-keyboard-response",351,355451,"0.0-4.113-0.113","mgr2la5rnnmtkv4",456,"76.csv","","38440.89999997616","resources/trios/L1T4A3.jpg","38","restless",0.5,0.4,0.4,0.930525614457871,"false"
"image-keyboard-response",352,355860,"0.0-4.113-1.113","mgr2la5rnnmtkv4",456,"76.csv","","null","resources/maskTrios/BT4B.jpg","null","",NA,NA,NA,NA,""
"image-keyboard-response",353,357072,"0.0-4.113-2.113","mgr2la5rnnmtkv4",456,"76.csv","","null","resources/images/fishbone.png","null","",NA,NA,NA,NA,""
"image-keyboard-response",354,357267,"0.0-4.114-0.114","mgr2la5rnnmtkv4",456,"76.csv","","194.30000007152557","resources/trios/L1T4A3.jpg","38","restless",0.5,0.5,0.4,0.286549997954464,"true"
"image-keyboard-response",355,357668,"0.0-4.114-1.114","mgr2la5rnnmtkv4",456,"76.csv","","null","resources/maskTrios/BT4B.jpg","null","",NA,NA,NA,NA,""
"image-keyboard-response",356,358880,"0.0-4.114-2.114","mgr2la5rnnmtkv4",456,"76.csv","","null","resources/images/coin2.png","null","",NA,NA,NA,NA,""
"image-keyboard-response",357,359019,"0.0-4.115-0.115","mgr2la5rnnmtkv4",456,"76.csv","","138.5","resources/trios/L1T4A3.jpg","38","restless",0.5,0.5,0.3,0.903961536587063,"false"
"image-keyboard-response",358,359432,"0.0-4.115-1.115","mgr2la5rnnmtkv4",456,"76.csv","","null","resources/maskTrios/BT4B.jpg","null","",NA,NA,NA,NA,""
"image-keyboard-response",359,360636,"0.0-4.115-2.115","mgr2la5rnnmtkv4",456,"76.csv","","null","resources/images/fishbone.png","null","",NA,NA,NA,NA,""
"image-keyboard-response",360,360707,"0.0-4.116-0.116","mgr2la5rnnmtkv4",456,"76.csv","","70.39999997615814","resources/trios/L1T4A3.jpg","38","restless",0.5,0.5,0.4,0.815883456831016,"false"
"image-keyboard-response",361,361109,"0.0-4.116-1.116","mgr2la5rnnmtkv4",456,"76.csv","","null","resources/maskTrios/BT4B.jpg","null","",NA,NA,NA,NA,""
"image-keyboard-response",362,362313,"0.0-4.116-2.116","mgr2la5rnnmtkv4",456,"76.csv","","null","resources/images/fishbone.png","null","",NA,NA,NA,NA,""
"image-keyboard-response",363,363019,"0.0-4.117-0.117","mgr2la5rnnmtkv4",456,"76.csv","","705.8000000715256","resources/trios/L1T4A3.jpg","38","restless",0.5,0.5,0.4,0.355454806762549,"true"
"image-keyboard-response",364,363426,"0.0-4.117-1.117","mgr2la5rnnmtkv4",456,"76.csv","","null","resources/maskTrios/BT4B.jpg","null","",NA,NA,NA,NA,""
"image-keyboard-response",365,364627,"0.0-4.117-2.117","mgr2la5rnnmtkv4",456,"76.csv","","null","resources/images/coin2.png","null","",NA,NA,NA,NA,""
"image-keyboard-response",366,365923,"0.0-4.118-0.118","mgr2la5rnnmtkv4",456,"76.csv","","1295.5","resources/trios/L1T4A3.jpg","38","restless",0.5,0.5,0.4,0.552928797819513,"false"
"image-keyboard-response",367,366326,"0.0-4.118-1.118","mgr2la5rnnmtkv4",456,"76.csv","","null","resources/maskTrios/BT4B.jpg","null","",NA,NA,NA,NA,""
"image-keyboard-response",368,367530,"0.0-4.118-2.118","mgr2la5rnnmtkv4",456,"76.csv","","null","resources/images/fishbone.png","null","",NA,NA,NA,NA,""
"image-keyboard-response",369,367771,"0.0-4.119-0.119","mgr2la5rnnmtkv4",456,"76.csv","","240","resources/trios/L1T4A3.jpg","38","restless",0.5,0.5,0.4,0.333554235200859,"true"
"image-keyboard-response",370,368187,"0.0-4.119-1.119","mgr2la5rnnmtkv4",456,"76.csv","","null","resources/maskTrios/BT4B.jpg","null","",NA,NA,NA,NA,""
"image-keyboard-response",371,369398,"0.0-4.119-2.119","mgr2la5rnnmtkv4",456,"76.csv","","null","resources/images/coin2.png","null","",NA,NA,NA,NA,""
"image-keyboard-response",372,369499,"0.0-4.120-0.120","mgr2la5rnnmtkv4",456,"76.csv","","100.10000002384186","resources/trios/L1T4A3.jpg","38","restless",0.5,0.5,0.5,0.249972808978326,"true"
"image-keyboard-response",373,369907,"0.0-4.120-1.120","mgr2la5rnnmtkv4",456,"76.csv","","null","resources/maskTrios/BT4B.jpg","null","",NA,NA,NA,NA,""
"image-keyboard-response",374,371111,"0.0-4.120-2.120","mgr2la5rnnmtkv4",456,"76.csv","","null","resources/images/coin2.png","null","",NA,NA,NA,NA,""
"image-keyboard-response",375,371115,"0.0-4.121-0.121","mgr2la5rnnmtkv4",456,"76.csv","","3.200000047683716","resources/trios/L1T4A3.jpg","38","restless",0.5,0.5,0.5,0.84889567021482,"false"
"image-keyboard-response",376,371526,"0.0-4.121-1.121","mgr2la5rnnmtkv4",456,"76.csv","","null","resources/maskTrios/BT4B.jpg","null","",NA,NA,NA,NA,""
"image-keyboard-response",377,372735,"0.0-4.121-2.121","mgr2la5rnnmtkv4",456,"76.csv","","null","resources/images/fishbone.png","null","",NA,NA,NA,NA,""
"image-keyboard-response",378,372787,"0.0-4.122-0.122","mgr2la5rnnmtkv4",456,"76.csv","","51.5","resources/trios/L1T4A3.jpg","38","restless",0.5,0.5,0.5,0.772694237298178,"false"
"image-keyboard-response",379,373196,"0.0-4.122-1.122","mgr2la5rnnmtkv4",456,"76.csv","","null","resources/maskTrios/BT4B.jpg","null","",NA,NA,NA,NA,""
"image-keyboard-response",380,374401,"0.0-4.122-2.122","mgr2la5rnnmtkv4",456,"76.csv","","null","resources/images/fishbone.png","null","",NA,NA,NA,NA,""
"image-keyboard-response",381,374515,"0.0-4.123-0.123","mgr2la5rnnmtkv4",456,"76.csv","","113.40000009536743","resources/trios/L1T4A3.jpg","38","restless",0.5,0.5,0.5,0.713208589205702,"false"
"image-keyboard-response",382,374929,"0.0-4.123-1.123","mgr2la5rnnmtkv4",456,"76.csv","","null","resources/maskTrios/BT4B.jpg","null","",NA,NA,NA,NA,""
"image-keyboard-response",383,376139,"0.0-4.123-2.123","mgr2la5rnnmtkv4",456,"76.csv","","null","resources/images/fishbone.png","null","",NA,NA,NA,NA,""
"image-keyboard-response",384,376283,"0.0-4.124-0.124","mgr2la5rnnmtkv4",456,"76.csv","","143.29999995231628","resources/trios/L1T4A3.jpg","38","restless",0.5,0.5,0.5,0.0343364741530707,"true"
"image-keyboard-response",385,376699,"0.0-4.124-1.124","mgr2la5rnnmtkv4",456,"76.csv","","null","resources/maskTrios/BT4B.jpg","null","",NA,NA,NA,NA,""
"image-keyboard-response",386,377906,"0.0-4.124-2.124","mgr2la5rnnmtkv4",456,"76.csv","","null","resources/images/coin2.png","null","",NA,NA,NA,NA,""
"image-keyboard-response",387,382243,"0.0-4.125-0.125","mgr2la5rnnmtkv4",456,"76.csv","","4336.5","resources/trios/L1T4A3.jpg","38","restless",0.5,0.5,0.5,0.986713716313228,"false"
"image-keyboard-response",388,382647,"0.0-4.125-1.125","mgr2la5rnnmtkv4",456,"76.csv","","null","resources/maskTrios/BT4B.jpg","null","",NA,NA,NA,NA,""
"image-keyboard-response",389,383862,"0.0-4.125-2.125","mgr2la5rnnmtkv4",456,"76.csv","","null","resources/images/fishbone.png","null","",NA,NA,NA,NA,""
"image-keyboard-response",390,384139,"0.0-4.126-0.126","mgr2la5rnnmtkv4",456,"76.csv","","276.7000000476837","resources/trios/L1T4A3.jpg","38","restless",0.5,0.5,0.5,0.624569379090852,"false"
"image-keyboard-response",391,384553,"0.0-4.126-1.126","mgr2la5rnnmtkv4",456,"76.csv","","null","resources/maskTrios/BT4B.jpg","null","",NA,NA,NA,NA,""
"image-keyboard-response",392,385765,"0.0-4.126-2.126","mgr2la5rnnmtkv4",456,"76.csv","","null","resources/images/fishbone.png","null","",NA,NA,NA,NA,""
"image-keyboard-response",393,385979,"0.0-4.127-0.127","mgr2la5rnnmtkv4",456,"76.csv","","212.80000007152557","resources/trios/L1T4A3.jpg","38","restless",0.5,0.5,0.5,0.548943139509207,"false"
"image-keyboard-response",394,386386,"0.0-4.127-1.127","mgr2la5rnnmtkv4",456,"76.csv","","null","resources/maskTrios/BT4B.jpg","null","",NA,NA,NA,NA,""
"image-keyboard-response",395,387593,"0.0-4.127-2.127","mgr2la5rnnmtkv4",456,"76.csv","","null","resources/images/fishbone.png","null","",NA,NA,NA,NA,""
"image-keyboard-response",396,387747,"0.0-4.128-0.128","mgr2la5rnnmtkv4",456,"76.csv","","152.90000009536743","resources/trios/L1T4A3.jpg","38","restless",0.5,0.5,0.5,0.308680997274992,"true"
"image-keyboard-response",397,388155,"0.0-4.128-1.128","mgr2la5rnnmtkv4",456,"76.csv","","null","resources/maskTrios/BT4B.jpg","null","",NA,NA,NA,NA,""
"image-keyboard-response",398,389357,"0.0-4.128-2.128","mgr2la5rnnmtkv4",456,"76.csv","","null","resources/images/coin2.png","null","",NA,NA,NA,NA,""
"image-keyboard-response",399,389491,"0.0-4.129-0.129","mgr2la5rnnmtkv4",456,"76.csv","","133.60000002384186","resources/trios/L1T4A3.jpg","38","restless",0.5,0.5,0.6,0.955604654024143,"false"
"image-keyboard-response",400,389899,"0.0-4.129-1.129","mgr2la5rnnmtkv4",456,"76.csv","","null","resources/maskTrios/BT4B.jpg","null","",NA,NA,NA,NA,""
"image-keyboard-response",401,391103,"0.0-4.129-2.129","mgr2la5rnnmtkv4",456,"76.csv","","null","resources/images/fishbone.png","null","",NA,NA,NA,NA,""
"image-keyboard-response",402,391339,"0.0-4.130-0.130","mgr2la5rnnmtkv4",456,"76.csv","","235.20000004768372","resources/trios/L1T4A3.jpg","38","restless",0.5,0.5,0.6,0.576934570658818,"false"
"image-keyboard-response",403,391740,"0.0-4.130-1.130","mgr2la5rnnmtkv4",456,"76.csv","","null","resources/maskTrios/BT4B.jpg","null","",NA,NA,NA,NA,""
"image-keyboard-response",404,392948,"0.0-4.130-2.130","mgr2la5rnnmtkv4",456,"76.csv","","null","resources/images/fishbone.png","null","",NA,NA,NA,NA,""
"image-keyboard-response",405,393291,"0.0-4.131-0.131","mgr2la5rnnmtkv4",456,"76.csv","","342.39999997615814","resources/trios/L1T4A3.jpg","38","restless",0.5,0.5,0.6,0.29619342734001,"true"
"image-keyboard-response",406,393693,"0.0-4.131-1.131","mgr2la5rnnmtkv4",456,"76.csv","","null","resources/maskTrios/BT4B.jpg","null","",NA,NA,NA,NA,""
"image-keyboard-response",407,394894,"0.0-4.131-2.131","mgr2la5rnnmtkv4",456,"76.csv","","null","resources/images/coin2.png","null","",NA,NA,NA,NA,""
"image-keyboard-response",408,395283,"0.0-4.132-0.132","mgr2la5rnnmtkv4",456,"76.csv","","388","resources/trios/L1T4A3.jpg","38","restless",0.5,0.5,0.6,0.169960328375672,"true"
"image-keyboard-response",409,395699,"0.0-4.132-1.132","mgr2la5rnnmtkv4",456,"76.csv","","null","resources/maskTrios/BT4B.jpg","null","",NA,NA,NA,NA,""
"image-keyboard-response",410,396911,"0.0-4.132-2.132","mgr2la5rnnmtkv4",456,"76.csv","","null","resources/images/coin2.png","null","",NA,NA,NA,NA,""
"image-keyboard-response",411,396963,"0.0-4.133-0.133","mgr2la5rnnmtkv4",456,"76.csv","","51.699999928474426","resources/trios/L1T4A3.jpg","38","restless",0.5,0.5,0.7,0.674938574893202,"false"
"image-keyboard-response",412,397369,"0.0-4.133-1.133","mgr2la5rnnmtkv4",456,"76.csv","","null","resources/maskTrios/BT4B.jpg","null","",NA,NA,NA,NA,""
"image-keyboard-response",413,398573,"0.0-4.133-2.133","mgr2la5rnnmtkv4",456,"76.csv","","null","resources/images/fishbone.png","null","",NA,NA,NA,NA,""
"image-keyboard-response",414,398715,"0.0-4.134-0.134","mgr2la5rnnmtkv4",456,"76.csv","","141","resources/trios/L1T4A3.jpg","38","restless",0.5,0.5,0.7,0.38558062184976,"true"
"image-keyboard-response",415,399130,"0.0-4.134-1.134","mgr2la5rnnmtkv4",456,"76.csv","","null","resources/maskTrios/BT4B.jpg","null","",NA,NA,NA,NA,""
"image-keyboard-response",416,400344,"0.0-4.134-2.134","mgr2la5rnnmtkv4",456,"76.csv","","null","resources/images/coin2.png","null","",NA,NA,NA,NA,""
"image-keyboard-response",417,400379,"0.0-4.135-0.135","mgr2la5rnnmtkv4",456,"76.csv","","34.10000002384186","resources/trios/L1T4A3.jpg","38","restless",0.5,0.5,0.7,0.530410696681839,"false"
"image-keyboard-response",418,400792,"0.0-4.135-1.135","mgr2la5rnnmtkv4",456,"76.csv","","null","resources/maskTrios/BT4B.jpg","null","",NA,NA,NA,NA,""
"image-keyboard-response",419,401998,"0.0-4.135-2.135","mgr2la5rnnmtkv4",456,"76.csv","","null","resources/images/fishbone.png","null","",NA,NA,NA,NA,""
"image-keyboard-response",420,402051,"0.0-4.136-0.136","mgr2la5rnnmtkv4",456,"76.csv","","52.60000002384186","resources/trios/L1T4A3.jpg","38","restless",0.4,0.5,0.7,0.524693006638374,"false"
"image-keyboard-response",421,402466,"0.0-4.136-1.136","mgr2la5rnnmtkv4",456,"76.csv","","null","resources/maskTrios/BT4B.jpg","null","",NA,NA,NA,NA,""
"image-keyboard-response",422,403675,"0.0-4.136-2.136","mgr2la5rnnmtkv4",456,"76.csv","","null","resources/images/fishbone.png","null","",NA,NA,NA,NA,""
"image-keyboard-response",423,403819,"0.0-4.137-0.137","mgr2la5rnnmtkv4",456,"76.csv","","143.20000004768372","resources/trios/L1T4A3.jpg","38","restless",0.4,0.5,0.7,0.157933944531577,"true"
"image-keyboard-response",424,404225,"0.0-4.137-1.137","mgr2la5rnnmtkv4",456,"76.csv","","null","resources/maskTrios/BT4B.jpg","null","",NA,NA,NA,NA,""
"image-keyboard-response",425,405428,"0.0-4.137-2.137","mgr2la5rnnmtkv4",456,"76.csv","","null","resources/images/coin2.png","null","",NA,NA,NA,NA,""
"image-keyboard-response",426,405571,"0.0-4.138-0.138","mgr2la5rnnmtkv4",456,"76.csv","","141.70000004768372","resources/trios/L1T4A3.jpg","38","restless",0.4,0.5,0.7,0.697208104098439,"false"
"image-keyboard-response",427,405976,"0.0-4.138-1.138","mgr2la5rnnmtkv4",456,"76.csv","","null","resources/maskTrios/BT4B.jpg","null","",NA,NA,NA,NA,""
"image-keyboard-response",428,407180,"0.0-4.138-2.138","mgr2la5rnnmtkv4",456,"76.csv","","null","resources/images/fishbone.png","null","",NA,NA,NA,NA,""
"image-keyboard-response",429,407379,"0.0-4.139-0.139","mgr2la5rnnmtkv4",456,"76.csv","","198.39999997615814","resources/trios/L1T4A3.jpg","38","restless",0.4,0.5,0.8,0.168995675976018,"true"
"image-keyboard-response",430,407780,"0.0-4.139-1.139","mgr2la5rnnmtkv4",456,"76.csv","","null","resources/maskTrios/BT4B.jpg","null","",NA,NA,NA,NA,""
"image-keyboard-response",431,408987,"0.0-4.139-2.139","mgr2la5rnnmtkv4",456,"76.csv","","null","resources/images/coin2.png","null","",NA,NA,NA,NA,""
"image-keyboard-response",432,409043,"0.0-4.140-0.140","mgr2la5rnnmtkv4",456,"76.csv","","54.700000047683716","resources/trios/L1T4A3.jpg","38","restless",0.4,0.4,0.7,0.985476582141417,"false"
"image-keyboard-response",433,409458,"0.0-4.140-1.140","mgr2la5rnnmtkv4",456,"76.csv","","null","resources/maskTrios/BT4B.jpg","null","",NA,NA,NA,NA,""
"image-keyboard-response",434,410661,"0.0-4.140-2.140","mgr2la5rnnmtkv4",456,"76.csv","","null","resources/images/fishbone.png","null","",NA,NA,NA,NA,""
"image-keyboard-response",435,410963,"0.0-4.141-0.141","mgr2la5rnnmtkv4",456,"76.csv","","301.39999997615814","resources/trios/L1T4A3.jpg","38","restless",0.4,0.4,0.7,0.996889649629405,"false"
"image-keyboard-response",436,411364,"0.0-4.141-1.141","mgr2la5rnnmtkv4",456,"76.csv","","null","resources/maskTrios/BT4B.jpg","null","",NA,NA,NA,NA,""
"image-keyboard-response",437,412571,"0.0-4.141-2.141","mgr2la5rnnmtkv4",456,"76.csv","","null","resources/images/fishbone.png","null","",NA,NA,NA,NA,""
"image-keyboard-response",438,412755,"0.0-4.142-0.142","mgr2la5rnnmtkv4",456,"76.csv","","183.20000004768372","resources/trios/L1T4A3.jpg","38","restless",0.4,0.4,0.7,0.3121193094546,"true"
"image-keyboard-response",439,413156,"0.0-4.142-1.142","mgr2la5rnnmtkv4",456,"76.csv","","null","resources/maskTrios/BT4B.jpg","null","",NA,NA,NA,NA,""
"image-keyboard-response",440,414368,"0.0-4.142-2.142","mgr2la5rnnmtkv4",456,"76.csv","","null","resources/images/coin2.png","null","",NA,NA,NA,NA,""
"image-keyboard-response",441,414563,"0.0-4.143-0.143","mgr2la5rnnmtkv4",456,"76.csv","","193.70000004768372","resources/trios/L1T4A3.jpg","38","restless",0.4,0.3,0.7,0.0876990493360197,"true"
"image-keyboard-response",442,414966,"0.0-4.143-1.143","mgr2la5rnnmtkv4",456,"76.csv","","null","resources/maskTrios/BT4B.jpg","null","",NA,NA,NA,NA,""
"image-keyboard-response",443,416173,"0.0-4.143-2.143","mgr2la5rnnmtkv4",456,"76.csv","","null","resources/images/coin2.png","null","",NA,NA,NA,NA,""
"image-keyboard-response",444,416187,"0.0-4.144-0.144","mgr2la5rnnmtkv4",456,"76.csv","","13.200000047683716","resources/trios/L1T4A3.jpg","38","restless",0.4,0.3,0.7,0.38559617249867,"false"
"image-keyboard-response",445,416600,"0.0-4.144-1.144","mgr2la5rnnmtkv4",456,"76.csv","","null","resources/maskTrios/BT4B.jpg","null","",NA,NA,NA,NA,""
"image-keyboard-response",446,417814,"0.0-4.144-2.144","mgr2la5rnnmtkv4",456,"76.csv","","null","resources/images/fishbone.png","null","",NA,NA,NA,NA,""
"image-keyboard-response",447,417875,"0.0-4.145-0.145","mgr2la5rnnmtkv4",456,"76.csv","","60.5","resources/trios/L1T4A3.jpg","38","restless",0.4,0.3,0.7,0.730163079825273,"false"
"image-keyboard-response",448,418291,"0.0-4.145-1.145","mgr2la5rnnmtkv4",456,"76.csv","","null","resources/maskTrios/BT4B.jpg","null","",NA,NA,NA,NA,""
"image-keyboard-response",449,419500,"0.0-4.145-2.145","mgr2la5rnnmtkv4",456,"76.csv","","null","resources/images/fishbone.png","null","",NA,NA,NA,NA,""
"image-keyboard-response",450,419507,"0.0-4.146-0.146","mgr2la5rnnmtkv4",456,"76.csv","","5.899999976158142","resources/trios/L1T4A3.jpg","38","restless",0.4,0.3,0.7,0.360035844407259,"false"
"image-keyboard-response",451,419913,"0.0-4.146-1.146","mgr2la5rnnmtkv4",456,"76.csv","","null","resources/maskTrios/BT4B.jpg","null","",NA,NA,NA,NA,""
"image-keyboard-response",452,421119,"0.0-4.146-2.146","mgr2la5rnnmtkv4",456,"76.csv","","null","resources/images/fishbone.png","null","",NA,NA,NA,NA,""
"image-keyboard-response",453,421179,"0.0-4.147-0.147","mgr2la5rnnmtkv4",456,"76.csv","","58.60000002384186","resources/trios/L1T4A3.jpg","38","restless",0.4,0.2,0.6,0.48452277754339,"false"
"image-keyboard-response",454,421592,"0.0-4.147-1.147","mgr2la5rnnmtkv4",456,"76.csv","","null","resources/maskTrios/BT4B.jpg","null","",NA,NA,NA,NA,""
"image-keyboard-response",455,422795,"0.0-4.147-2.147","mgr2la5rnnmtkv4",456,"76.csv","","null","resources/images/fishbone.png","null","",NA,NA,NA,NA,""
"image-keyboard-response",456,422859,"0.0-4.148-0.148","mgr2la5rnnmtkv4",456,"76.csv","","63.5","resources/trios/L1T4A3.jpg","38","restless",0.4,0.2,0.6,0.894694554319888,"false"
"image-keyboard-response",457,423270,"0.0-4.148-1.148","mgr2la5rnnmtkv4",456,"76.csv","","null","resources/maskTrios/BT4B.jpg","null","",NA,NA,NA,NA,""
"image-keyboard-response",458,424476,"0.0-4.148-2.148","mgr2la5rnnmtkv4",456,"76.csv","","null","resources/images/fishbone.png","null","",NA,NA,NA,NA,""
"image-keyboard-response",459,424523,"0.0-4.149-0.149","mgr2la5rnnmtkv4",456,"76.csv","","46.700000047683716","resources/trios/L1T4A3.jpg","38","restless",0.4,0.2,0.6,0.902630795917681,"false"
"image-keyboard-response",460,424932,"0.0-4.149-1.149","mgr2la5rnnmtkv4",456,"76.csv","","null","resources/maskTrios/BT4B.jpg","null","",NA,NA,NA,NA,""
"image-keyboard-response",461,426144,"0.0-4.149-2.149","mgr2la5rnnmtkv4",456,"76.csv","","null","resources/images/fishbone.png","null","",NA,NA,NA,NA,""
"image-keyboard-response",462,426195,"0.0-4.150-0.150","mgr2la5rnnmtkv4",456,"76.csv","","50.39999997615814","resources/trios/L1T4A3.jpg","38","restless",0.4,0.1,0.6,0.625901583341566,"false"
"image-keyboard-response",463,426602,"0.0-4.150-1.150","mgr2la5rnnmtkv4",456,"76.csv","","null","resources/maskTrios/BT4B.jpg","null","",NA,NA,NA,NA,""
"image-keyboard-response",464,427808,"0.0-4.150-2.150","mgr2la5rnnmtkv4",456,"76.csv","","null","resources/images/fishbone.png","null","",NA,NA,NA,NA,""
"image-keyboard-response",465,427867,"0.0-4.151-0.151","mgr2la5rnnmtkv4",456,"76.csv","","58.200000047683716","resources/trios/L1T4A3.jpg","38","restless",0.4,0.1,0.6,0.544522607688875,"false"
"image-keyboard-response",466,428279,"0.0-4.151-1.151","mgr2la5rnnmtkv4",456,"76.csv","","null","resources/maskTrios/BT4B.jpg","null","",NA,NA,NA,NA,""
"image-keyboard-response",467,429487,"0.0-4.151-2.151","mgr2la5rnnmtkv4",456,"76.csv","","null","resources/images/fishbone.png","null","",NA,NA,NA,NA,""
"image-keyboard-response",468,429531,"0.0-4.152-0.152","mgr2la5rnnmtkv4",456,"76.csv","","43.89999997615814","resources/trios/L1T4A3.jpg","38","restless",0.4,0.1,0.6,0.732374799290271,"false"
"image-keyboard-response",469,429936,"0.0-4.152-1.152","mgr2la5rnnmtkv4",456,"76.csv","","null","resources/maskTrios/BT4B.jpg","null","",NA,NA,NA,NA,""
"image-keyboard-response",470,431139,"0.0-4.152-2.152","mgr2la5rnnmtkv4",456,"76.csv","","null","resources/images/fishbone.png","null","",NA,NA,NA,NA,""
"image-keyboard-response",471,431619,"0.0-4.153-0.153","mgr2la5rnnmtkv4",456,"76.csv","","479.10000002384186","resources/trios/L1T4A3.jpg","38","restless",0.4,0.1,0.7,0.0899086841619641,"true"
"image-keyboard-response",472,432036,"0.0-4.153-1.153","mgr2la5rnnmtkv4",456,"76.csv","","null","resources/maskTrios/BT4B.jpg","null","",NA,NA,NA,NA,""
"image-keyboard-response",473,433247,"0.0-4.153-2.153","mgr2la5rnnmtkv4",456,"76.csv","","null","resources/images/coin2.png","null","",NA,NA,NA,NA,""
"image-keyboard-response",474,433539,"0.0-4.154-0.154","mgr2la5rnnmtkv4",456,"76.csv","","291.3000000715256","resources/trios/L1T4A3.jpg","38","restless",0.4,0.1,0.7,0.00711918364807596,"true"
"image-keyboard-response",475,433951,"0.0-4.154-1.154","mgr2la5rnnmtkv4",456,"76.csv","","null","resources/maskTrios/BT4B.jpg","null","",NA,NA,NA,NA,""
"image-keyboard-response",476,435152,"0.0-4.154-2.154","mgr2la5rnnmtkv4",456,"76.csv","","null","resources/images/coin2.png","null","",NA,NA,NA,NA,""
"image-keyboard-response",477,435347,"0.0-4.155-0.155","mgr2la5rnnmtkv4",456,"76.csv","","194.60000002384186","resources/trios/L1T4A3.jpg","38","restless",0.4,0.1,0.7,0.712859743823159,"false"
"image-keyboard-response",478,435749,"0.0-4.155-1.155","mgr2la5rnnmtkv4",456,"76.csv","","null","resources/maskTrios/BT4B.jpg","null","",NA,NA,NA,NA,""
"image-keyboard-response",479,436952,"0.0-4.155-2.155","mgr2la5rnnmtkv4",456,"76.csv","","null","resources/images/fishbone.png","null","",NA,NA,NA,NA,""
"image-keyboard-response",480,437107,"0.0-4.156-0.156","mgr2la5rnnmtkv4",456,"76.csv","","154.30000007152557","resources/trios/L1T4A3.jpg","38","restless",0.4,0.2,0.7,0.732706366398571,"false"
"image-keyboard-response",481,437510,"0.0-4.156-1.156","mgr2la5rnnmtkv4",456,"76.csv","","null","resources/maskTrios/BT4B.jpg","null","",NA,NA,NA,NA,""
"image-keyboard-response",482,438715,"0.0-4.156-2.156","mgr2la5rnnmtkv4",456,"76.csv","","null","resources/images/fishbone.png","null","",NA,NA,NA,NA,""
"image-keyboard-response",483,438891,"0.0-4.157-0.157","mgr2la5rnnmtkv4",456,"76.csv","","175.39999997615814","resources/trios/L1T4A3.jpg","38","restless",0.5,0.3,0.7,0.74863711837757,"false"
"image-keyboard-response",484,439301,"0.0-4.157-1.157","mgr2la5rnnmtkv4",456,"76.csv","","null","resources/maskTrios/BT4B.jpg","null","",NA,NA,NA,NA,""
"image-keyboard-response",485,440507,"0.0-4.157-2.157","mgr2la5rnnmtkv4",456,"76.csv","","null","resources/images/fishbone.png","null","",NA,NA,NA,NA,""
"image-keyboard-response",486,440555,"0.0-4.158-0.158","mgr2la5rnnmtkv4",456,"76.csv","","47.60000002384186","resources/trios/L1T4A3.jpg","38","restless",0.5,0.3,0.7,0.625794630859438,"false"
"image-keyboard-response",487,440965,"0.0-4.158-1.158","mgr2la5rnnmtkv4",456,"76.csv","","null","resources/maskTrios/BT4B.jpg","null","",NA,NA,NA,NA,""
"image-keyboard-response",488,442169,"0.0-4.158-2.158","mgr2la5rnnmtkv4",456,"76.csv","","null","resources/images/fishbone.png","null","",NA,NA,NA,NA,""
"image-keyboard-response",489,442371,"0.0-4.159-0.159","mgr2la5rnnmtkv4",456,"76.csv","","201.70000004768372","resources/trios/L1T4A3.jpg","38","restless",0.5,0.3,0.7,0.893739309155139,"false"
"image-keyboard-response",490,442782,"0.0-4.159-1.159","mgr2la5rnnmtkv4",456,"76.csv","","null","resources/maskTrios/BT4B.jpg","null","",NA,NA,NA,NA,""
"image-keyboard-response",491,443995,"0.0-4.159-2.159","mgr2la5rnnmtkv4",456,"76.csv","","null","resources/images/fishbone.png","null","",NA,NA,NA,NA,""
"image-keyboard-response",492,444195,"0.0-4.160-0.160","mgr2la5rnnmtkv4",456,"76.csv","","199.39999997615814","resources/trios/L1T4A3.jpg","38","restless",0.5,0.3,0.6,0.707605465069363,"false"
"image-keyboard-response",493,444602,"0.0-4.160-1.160","mgr2la5rnnmtkv4",456,"76.csv","","null","resources/maskTrios/BT4B.jpg","null","",NA,NA,NA,NA,""
"image-keyboard-response",494,445812,"0.0-4.160-2.160","mgr2la5rnnmtkv4",456,"76.csv","","null","resources/images/fishbone.png","null","",NA,NA,NA,NA,""
"image-keyboard-response",495,445851,"0.0-4.161-0.161","mgr2la5rnnmtkv4",456,"76.csv","","38.10000002384186","resources/trios/L1T4A3.jpg","38","restless",0.5,0.4,0.6,0.70271406632106,"false"
"image-keyboard-response",496,446265,"0.0-4.161-1.161","mgr2la5rnnmtkv4",456,"76.csv","","null","resources/maskTrios/BT4B.jpg","null","",NA,NA,NA,NA,""
"image-keyboard-response",497,447468,"0.0-4.161-2.161","mgr2la5rnnmtkv4",456,"76.csv","","null","resources/images/fishbone.png","null","",NA,NA,NA,NA,""
"image-keyboard-response",498,447619,"0.0-4.162-0.162","mgr2la5rnnmtkv4",456,"76.csv","","151.10000002384186","resources/trios/L1T4A3.jpg","38","restless",0.5,0.4,0.6,0.318006571660351,"true"
"image-keyboard-response",499,448030,"0.0-4.162-1.162","mgr2la5rnnmtkv4",456,"76.csv","","null","resources/maskTrios/BT4B.jpg","null","",NA,NA,NA,NA,""
"image-keyboard-response",500,449243,"0.0-4.162-2.162","mgr2la5rnnmtkv4",456,"76.csv","","null","resources/images/coin2.png","null","",NA,NA,NA,NA,""
"image-keyboard-response",501,449363,"0.0-4.163-0.163","mgr2la5rnnmtkv4",456,"76.csv","","119.89999997615814","resources/trios/L1T4A3.jpg","38","restless",0.6,0.4,0.6,0.603959113578097,"false"
"image-keyboard-response",502,449774,"0.0-4.163-1.163","mgr2la5rnnmtkv4",456,"76.csv","","null","resources/maskTrios/BT4B.jpg","null","",NA,NA,NA,NA,""
"image-keyboard-response",503,450987,"0.0-4.163-2.163","mgr2la5rnnmtkv4",456,"76.csv","","null","resources/images/fishbone.png","null","",NA,NA,NA,NA,""
"image-keyboard-response",504,451067,"0.0-4.164-0.164","mgr2la5rnnmtkv4",456,"76.csv","","79.30000007152557","resources/trios/L1T4A3.jpg","38","restless",0.6,0.4,0.6,0.20944271654289,"true"
"image-keyboard-response",505,451471,"0.0-4.164-1.164","mgr2la5rnnmtkv4",456,"76.csv","","null","resources/maskTrios/BT4B.jpg","null","",NA,NA,NA,NA,""
"image-keyboard-response",506,452677,"0.0-4.164-2.164","mgr2la5rnnmtkv4",456,"76.csv","","null","resources/images/coin2.png","null","",NA,NA,NA,NA,""
"image-keyboard-response",507,452763,"0.0-4.165-0.165","mgr2la5rnnmtkv4",456,"76.csv","","85.80000007152557","resources/trios/L1T4A3.jpg","38","restless",0.6,0.3,0.6,0.348144717275524,"false"
"image-keyboard-response",508,453169,"0.0-4.165-1.165","mgr2la5rnnmtkv4",456,"76.csv","","null","resources/maskTrios/BT4B.jpg","null","",NA,NA,NA,NA,""
"image-keyboard-response",509,454377,"0.0-4.165-2.165","mgr2la5rnnmtkv4",456,"76.csv","","null","resources/images/fishbone.png","null","",NA,NA,NA,NA,""
"image-keyboard-response",510,454435,"0.0-4.166-0.166","mgr2la5rnnmtkv4",456,"76.csv","","57.800000071525574","resources/trios/L1T4A3.jpg","38","restless",0.6,0.3,0.6,0.378462973648737,"false"
"image-keyboard-response",511,454848,"0.0-4.166-1.166","mgr2la5rnnmtkv4",456,"76.csv","","null","resources/maskTrios/BT4B.jpg","null","",NA,NA,NA,NA,""
"image-keyboard-response",512,456056,"0.0-4.166-2.166","mgr2la5rnnmtkv4",456,"76.csv","","null","resources/images/fishbone.png","null","",NA,NA,NA,NA,""
"image-keyboard-response",513,456107,"0.0-4.167-0.167","mgr2la5rnnmtkv4",456,"76.csv","","50.300000071525574","resources/trios/L1T4A3.jpg","38","restless",0.7,0.3,0.6,0.291274069147845,"true"
"image-keyboard-response",514,456520,"0.0-4.167-1.167","mgr2la5rnnmtkv4",456,"76.csv","","null","resources/maskTrios/BT4B.jpg","null","",NA,NA,NA,NA,""
"image-keyboard-response",515,457723,"0.0-4.167-2.167","mgr2la5rnnmtkv4",456,"76.csv","","null","resources/images/coin2.png","null","",NA,NA,NA,NA,""
"image-keyboard-response",516,457979,"0.0-4.168-0.168","mgr2la5rnnmtkv4",456,"76.csv","","255.29999995231628","resources/trios/L1T4A3.jpg","38","restless",0.7,0.3,0.6,0.156237025962929,"true"
"image-keyboard-response",517,458382,"0.0-4.168-1.168","mgr2la5rnnmtkv4",456,"76.csv","","null","resources/maskTrios/BT4B.jpg","null","",NA,NA,NA,NA,""
"image-keyboard-response",518,459585,"0.0-4.168-2.168","mgr2la5rnnmtkv4",456,"76.csv","","null","resources/images/coin2.png","null","",NA,NA,NA,NA,""
"image-keyboard-response",519,459763,"0.0-4.169-0.169","mgr2la5rnnmtkv4",456,"76.csv","","177.30000007152557","resources/trios/L1T4A3.jpg","38","restless",0.7,0.4,0.6,0.714481359108826,"false"
"image-keyboard-response",520,460174,"0.0-4.169-1.169","mgr2la5rnnmtkv4",456,"76.csv","","null","resources/maskTrios/BT4B.jpg","null","",NA,NA,NA,NA,""
"image-keyboard-response",521,461387,"0.0-4.169-2.169","mgr2la5rnnmtkv4",456,"76.csv","","null","resources/images/fishbone.png","null","",NA,NA,NA,NA,""
"image-keyboard-response",522,462251,"0.0-4.170-0.170","mgr2la5rnnmtkv4",456,"76.csv","","863.3999999761581","resources/trios/L1T4A3.jpg","38","restless",0.7,0.4,0.6,0.777759071405562,"false"
"image-keyboard-response",523,462657,"0.0-4.170-1.170","mgr2la5rnnmtkv4",456,"76.csv","","null","resources/maskTrios/BT4B.jpg","null","",NA,NA,NA,NA,""
"image-keyboard-response",524,463870,"0.0-4.170-2.170","mgr2la5rnnmtkv4",456,"76.csv","","null","resources/images/fishbone.png","null","",NA,NA,NA,NA,""
"image-keyboard-response",525,463971,"0.0-4.171-0.171","mgr2la5rnnmtkv4",456,"76.csv","","100.10000002384186","resources/trios/L1T4A3.jpg","38","restless",0.7,0.4,0.6,0.493790940540592,"false"
"image-keyboard-response",526,464384,"0.0-4.171-1.171","mgr2la5rnnmtkv4",456,"76.csv","","null","resources/maskTrios/BT4B.jpg","null","",NA,NA,NA,NA,""
"image-keyboard-response",527,465589,"0.0-4.171-2.171","mgr2la5rnnmtkv4",456,"76.csv","","null","resources/images/fishbone.png","null","",NA,NA,NA,NA,""
"image-keyboard-response",528,465819,"0.0-4.172-0.172","mgr2la5rnnmtkv4",456,"76.csv","","229.39999997615814","resources/trios/L1T4A3.jpg","38","restless",0.7,0.4,0.6,0.346837967638447,"true"
"image-keyboard-response",529,466233,"0.0-4.172-1.172","mgr2la5rnnmtkv4",456,"76.csv","","null","resources/maskTrios/BT4B.jpg","null","",NA,NA,NA,NA,""
"image-keyboard-response",530,467442,"0.0-4.172-2.172","mgr2la5rnnmtkv4",456,"76.csv","","null","resources/images/coin2.png","null","",NA,NA,NA,NA,""
"image-keyboard-response",531,467571,"0.0-4.173-0.173","mgr2la5rnnmtkv4",456,"76.csv","","128.60000002384186","resources/trios/L1T4A3.jpg","38","restless",0.7,0.4,0.6,0.247717449196145,"true"
"image-keyboard-response",532,467981,"0.0-4.173-1.173","mgr2la5rnnmtkv4",456,"76.csv","","null","resources/maskTrios/BT4B.jpg","null","",NA,NA,NA,NA,""
"image-keyboard-response",533,469197,"0.0-4.173-2.173","mgr2la5rnnmtkv4",456,"76.csv","","null","resources/images/coin2.png","null","",NA,NA,NA,NA,""
"image-keyboard-response",534,469435,"0.0-4.174-0.174","mgr2la5rnnmtkv4",456,"76.csv","","237.80000007152557","resources/trios/L1T4A3.jpg","38","restless",0.7,0.4,0.6,0.198563845710112,"true"
"image-keyboard-response",535,469847,"0.0-4.174-1.174","mgr2la5rnnmtkv4",456,"76.csv","","null","resources/maskTrios/BT4B.jpg","null","",NA,NA,NA,NA,""
"image-keyboard-response",536,471059,"0.0-4.174-2.174","mgr2la5rnnmtkv4",456,"76.csv","","null","resources/images/coin2.png","null","",NA,NA,NA,NA,""
"image-keyboard-response",537,471219,"0.0-4.175-0.175","mgr2la5rnnmtkv4",456,"76.csv","","159.70000004768372","resources/trios/L1T4A3.jpg","38","restless",0.6,0.3,0.6,0.797727561059417,"false"
"image-keyboard-response",538,471622,"0.0-4.175-1.175","mgr2la5rnnmtkv4",456,"76.csv","","null","resources/maskTrios/BT4B.jpg","null","",NA,NA,NA,NA,""
"image-keyboard-response",539,472832,"0.0-4.175-2.175","mgr2la5rnnmtkv4",456,"76.csv","","null","resources/images/fishbone.png","null","",NA,NA,NA,NA,""
"image-keyboard-response",540,472947,"0.0-4.176-0.176","mgr2la5rnnmtkv4",456,"76.csv","","114.30000007152557","resources/trios/L1T4A3.jpg","38","restless",0.6,0.3,0.6,0.327266519893674,"false"
"image-keyboard-response",541,473351,"0.0-4.176-1.176","mgr2la5rnnmtkv4",456,"76.csv","","null","resources/maskTrios/BT4B.jpg","null","",NA,NA,NA,NA,""
"image-keyboard-response",542,474555,"0.0-4.176-2.176","mgr2la5rnnmtkv4",456,"76.csv","","null","resources/images/fishbone.png","null","",NA,NA,NA,NA,""
"image-keyboard-response",543,474635,"0.0-4.177-0.177","mgr2la5rnnmtkv4",456,"76.csv","","79.39999997615814","resources/trios/L1T4A3.jpg","38","restless",0.6,0.3,0.6,0.824260519746536,"false"
"image-keyboard-response",544,475051,"0.0-4.177-1.177","mgr2la5rnnmtkv4",456,"76.csv","","null","resources/maskTrios/BT4B.jpg","null","",NA,NA,NA,NA,""
"image-keyboard-response",545,476255,"0.0-4.177-2.177","mgr2la5rnnmtkv4",456,"76.csv","","null","resources/images/fishbone.png","null","",NA,NA,NA,NA,""
"image-keyboard-response",546,476387,"0.0-4.178-0.178","mgr2la5rnnmtkv4",456,"76.csv","","131.80000007152557","resources/trios/L1T4A3.jpg","38","restless",0.6,0.3,0.6,0.142908840731482,"true"
"image-keyboard-response",547,476792,"0.0-4.178-1.178","mgr2la5rnnmtkv4",456,"76.csv","","null","resources/maskTrios/BT4B.jpg","null","",NA,NA,NA,NA,""
"image-keyboard-response",548,477999,"0.0-4.178-2.178","mgr2la5rnnmtkv4",456,"76.csv","","null","resources/images/coin2.png","null","",NA,NA,NA,NA,""
"image-keyboard-response",549,478131,"0.0-4.179-0.179","mgr2la5rnnmtkv4",456,"76.csv","","131.20000004768372","resources/trios/L1T4A3.jpg","38","restless",0.6,0.3,0.6,0.647492287769028,"false"
"image-keyboard-response",550,478546,"0.0-4.179-1.179","mgr2la5rnnmtkv4",456,"76.csv","","null","resources/maskTrios/BT4B.jpg","null","",NA,NA,NA,NA,""
"image-keyboard-response",551,479747,"0.0-4.179-2.179","mgr2la5rnnmtkv4",456,"76.csv","","null","resources/images/fishbone.png","null","",NA,NA,NA,NA,""
"image-keyboard-response",552,479755,"0.0-4.180-0.180","mgr2la5rnnmtkv4",456,"76.csv","","7.200000047683716","resources/trios/L1T4A3.jpg","38","restless",0.6,0.3,0.6,0.507574009246636,"false"
"image-keyboard-response",553,480170,"0.0-4.180-1.180","mgr2la5rnnmtkv4",456,"76.csv","","null","resources/maskTrios/BT4B.jpg","null","",NA,NA,NA,NA,""
"image-keyboard-response",554,481379,"0.0-4.180-2.180","mgr2la5rnnmtkv4",456,"76.csv","","null","resources/images/fishbone.png","null","",NA,NA,NA,NA,""
"image-keyboard-response",555,481635,"0.0-4.181-0.181","mgr2la5rnnmtkv4",456,"76.csv","","255.39999997615814","resources/trios/L1T4A3.jpg","38","restless",0.6,0.3,0.6,0.0162138875086135,"true"
"image-keyboard-response",556,482048,"0.0-4.181-1.181","mgr2la5rnnmtkv4",456,"76.csv","","null","resources/maskTrios/BT4B.jpg","null","",NA,NA,NA,NA,""
"image-keyboard-response",557,483258,"0.0-4.181-2.181","mgr2la5rnnmtkv4",456,"76.csv","","null","resources/images/coin2.png","null","",NA,NA,NA,NA,""
"image-keyboard-response",558,483387,"0.0-4.182-0.182","mgr2la5rnnmtkv4",456,"76.csv","","128.40000009536743","resources/trios/L1T4A3.jpg","38","restless",0.6,0.3,0.6,0.17024749796356,"true"
"image-keyboard-response",559,483798,"0.0-4.182-1.182","mgr2la5rnnmtkv4",456,"76.csv","","null","resources/maskTrios/BT4B.jpg","null","",NA,NA,NA,NA,""
"image-keyboard-response",560,485000,"0.0-4.182-2.182","mgr2la5rnnmtkv4",456,"76.csv","","null","resources/images/coin2.png","null","",NA,NA,NA,NA,""
"image-keyboard-response",561,485091,"0.0-4.183-0.183","mgr2la5rnnmtkv4",456,"76.csv","","90.5","resources/trios/L1T4A3.jpg","38","restless",0.6,0.3,0.6,0.907539377227435,"false"
"image-keyboard-response",562,485496,"0.0-4.183-1.183","mgr2la5rnnmtkv4",456,"76.csv","","null","resources/maskTrios/BT4B.jpg","null","",NA,NA,NA,NA,""
"image-keyboard-response",563,486700,"0.0-4.183-2.183","mgr2la5rnnmtkv4",456,"76.csv","","null","resources/images/fishbone.png","null","",NA,NA,NA,NA,""
"image-keyboard-response",564,486723,"0.0-4.184-0.184","mgr2la5rnnmtkv4",456,"76.csv","","22.600000023841858","resources/trios/L1T4A3.jpg","38","restless",0.6,0.4,0.7,0.181775371702113,"true"
"image-keyboard-response",565,487132,"0.0-4.184-1.184","mgr2la5rnnmtkv4",456,"76.csv","","null","resources/maskTrios/BT4B.jpg","null","",NA,NA,NA,NA,""
"image-keyboard-response",566,488347,"0.0-4.184-2.184","mgr2la5rnnmtkv4",456,"76.csv","","null","resources/images/coin2.png","null","",NA,NA,NA,NA,""
"image-keyboard-response",567,488491,"0.0-4.185-0.185","mgr2la5rnnmtkv4",456,"76.csv","","143.60000002384186","resources/trios/L1T4A3.jpg","38","restless",0.6,0.4,0.7,0.226475628172103,"true"
"image-keyboard-response",568,488907,"0.0-4.185-1.185","mgr2la5rnnmtkv4",456,"76.csv","","null","resources/maskTrios/BT4B.jpg","null","",NA,NA,NA,NA,""
"image-keyboard-response",569,490112,"0.0-4.185-2.185","mgr2la5rnnmtkv4",456,"76.csv","","null","resources/images/coin2.png","null","",NA,NA,NA,NA,""
"image-keyboard-response",570,490219,"0.0-4.186-0.186","mgr2la5rnnmtkv4",456,"76.csv","","106.39999997615814","resources/trios/L1T4A3.jpg","38","restless",0.6,0.4,0.7,0.354443707440887,"true"
"image-keyboard-response",571,490629,"0.0-4.186-1.186","mgr2la5rnnmtkv4",456,"76.csv","","null","resources/maskTrios/BT4B.jpg","null","",NA,NA,NA,NA,""
"image-keyboard-response",572,491835,"0.0-4.186-2.186","mgr2la5rnnmtkv4",456,"76.csv","","null","resources/images/coin2.png","null","",NA,NA,NA,NA,""
"image-keyboard-response",573,492107,"0.0-4.187-0.187","mgr2la5rnnmtkv4",456,"76.csv","","271.5","resources/trios/L1T4A3.jpg","38","restless",0.6,0.4,0.7,0.482519561521243,"false"
"image-keyboard-response",574,492524,"0.0-4.187-1.187","mgr2la5rnnmtkv4",456,"76.csv","","null","resources/maskTrios/BT4B.jpg","null","",NA,NA,NA,NA,""
"image-keyboard-response",575,493735,"0.0-4.187-2.187","mgr2la5rnnmtkv4",456,"76.csv","","null","resources/images/fishbone.png","null","",NA,NA,NA,NA,""
"image-keyboard-response",576,493795,"0.0-4.188-0.188","mgr2la5rnnmtkv4",456,"76.csv","","59.700000047683716","resources/trios/L1T4A3.jpg","38","restless",0.6,0.4,0.7,0.32902125824959,"true"
"image-keyboard-response",577,494199,"0.0-4.188-1.188","mgr2la5rnnmtkv4",456,"76.csv","","null","resources/maskTrios/BT4B.jpg","null","",NA,NA,NA,NA,""
"image-keyboard-response",578,495409,"0.0-4.188-2.188","mgr2la5rnnmtkv4",456,"76.csv","","null","resources/images/coin2.png","null","",NA,NA,NA,NA,""
"image-keyboard-response",579,495459,"0.0-4.189-0.189","mgr2la5rnnmtkv4",456,"76.csv","","49.299999952316284","resources/trios/L1T4A3.jpg","38","restless",0.6,0.4,0.7,0.870983628925365,"false"
"image-keyboard-response",580,495860,"0.0-4.189-1.189","mgr2la5rnnmtkv4",456,"76.csv","","null","resources/maskTrios/BT4B.jpg","null","",NA,NA,NA,NA,""
"image-keyboard-response",581,497065,"0.0-4.189-2.189","mgr2la5rnnmtkv4",456,"76.csv","","null","resources/images/fishbone.png","null","",NA,NA,NA,NA,""
"image-keyboard-response",582,497147,"0.0-4.190-0.190","mgr2la5rnnmtkv4",456,"76.csv","","81.60000002384186","resources/trios/L1T4A3.jpg","38","restless",0.6,0.4,0.7,0.819615347765833,"false"
"image-keyboard-response",583,497555,"0.0-4.190-1.190","mgr2la5rnnmtkv4",456,"76.csv","","null","resources/maskTrios/BT4B.jpg","null","",NA,NA,NA,NA,""
"image-keyboard-response",584,498763,"0.0-4.190-2.190","mgr2la5rnnmtkv4",456,"76.csv","","null","resources/images/fishbone.png","null","",NA,NA,NA,NA,""
"image-keyboard-response",585,498843,"0.0-4.191-0.191","mgr2la5rnnmtkv4",456,"76.csv","","80.10000002384186","resources/trios/L1T4A3.jpg","38","restless",0.6,0.4,0.7,0.603384870649006,"false"
"image-keyboard-response",586,499256,"0.0-4.191-1.191","mgr2la5rnnmtkv4",456,"76.csv","","null","resources/maskTrios/BT4B.jpg","null","",NA,NA,NA,NA,""
"image-keyboard-response",587,500467,"0.0-4.191-2.191","mgr2la5rnnmtkv4",456,"76.csv","","null","resources/images/fishbone.png","null","",NA,NA,NA,NA,""
"image-keyboard-response",588,500683,"0.0-4.192-0.192","mgr2la5rnnmtkv4",456,"76.csv","","215.30000007152557","resources/trios/L1T4A3.jpg","38","restless",0.6,0.4,0.7,0.180890466999601,"true"
"image-keyboard-response",589,501093,"0.0-4.192-1.192","mgr2la5rnnmtkv4",456,"76.csv","","null","resources/maskTrios/BT4B.jpg","null","",NA,NA,NA,NA,""
"image-keyboard-response",590,502304,"0.0-4.192-2.192","mgr2la5rnnmtkv4",456,"76.csv","","null","resources/images/coin2.png","null","",NA,NA,NA,NA,""
"image-keyboard-response",591,502459,"0.0-4.193-0.193","mgr2la5rnnmtkv4",456,"76.csv","","155.20000004768372","resources/trios/L1T4A3.jpg","38","restless",0.6,0.4,0.7,0.34204005542758,"true"
"image-keyboard-response",592,502865,"0.0-4.193-1.193","mgr2la5rnnmtkv4",456,"76.csv","","null","resources/maskTrios/BT4B.jpg","null","",NA,NA,NA,NA,""
"image-keyboard-response",593,504072,"0.0-4.193-2.193","mgr2la5rnnmtkv4",456,"76.csv","","null","resources/images/coin2.png","null","",NA,NA,NA,NA,""
"image-keyboard-response",594,504187,"0.0-4.194-0.194","mgr2la5rnnmtkv4",456,"76.csv","","114.5","resources/trios/L1T4A3.jpg","38","restless",0.6,0.4,0.7,0.233480758761406,"true"
"image-keyboard-response",595,504600,"0.0-4.194-1.194","mgr2la5rnnmtkv4",456,"76.csv","","null","resources/maskTrios/BT4B.jpg","null","",NA,NA,NA,NA,""
"image-keyboard-response",596,505806,"0.0-4.194-2.194","mgr2la5rnnmtkv4",456,"76.csv","","null","resources/images/coin2.png","null","",NA,NA,NA,NA,""
"image-keyboard-response",597,506251,"0.0-4.195-0.195","mgr2la5rnnmtkv4",456,"76.csv","","445.2000000476837","resources/trios/L1T4A3.jpg","38","restless",0.6,0.5,0.7,0.0526972514755693,"true"
"image-keyboard-response",598,506654,"0.0-4.195-1.195","mgr2la5rnnmtkv4",456,"76.csv","","null","resources/maskTrios/BT4B.jpg","null","",NA,NA,NA,NA,""
"image-keyboard-response",599,507866,"0.0-4.195-2.195","mgr2la5rnnmtkv4",456,"76.csv","","null","resources/images/coin2.png","null","",NA,NA,NA,NA,""
"image-keyboard-response",600,507875,"0.0-4.196-0.196","mgr2la5rnnmtkv4",456,"76.csv","","8.5","resources/trios/L1T4A3.jpg","38","restless",0.6,0.5,0.7,0.175097538829823,"true"
"image-keyboard-response",601,508280,"0.0-4.196-1.196","mgr2la5rnnmtkv4",456,"76.csv","","null","resources/maskTrios/BT4B.jpg","null","",NA,NA,NA,NA,""
"image-keyboard-response",602,509490,"0.0-4.196-2.196","mgr2la5rnnmtkv4",456,"76.csv","","null","resources/images/coin2.png","null","",NA,NA,NA,NA,""
"image-keyboard-response",603,509571,"0.0-4.197-0.197","mgr2la5rnnmtkv4",456,"76.csv","","80.39999997615814","resources/trios/L1T4A3.jpg","38","restless",0.6,0.6,0.7,0.0754008788892471,"true"
"image-keyboard-response",604,509980,"0.0-4.197-1.197","mgr2la5rnnmtkv4",456,"76.csv","","null","resources/maskTrios/BT4B.jpg","null","",NA,NA,NA,NA,""
"image-keyboard-response",605,511191,"0.0-4.197-2.197","mgr2la5rnnmtkv4",456,"76.csv","","null","resources/images/coin2.png","null","",NA,NA,NA,NA,""
"image-keyboard-response",606,511235,"0.0-4.198-0.198","mgr2la5rnnmtkv4",456,"76.csv","","44","resources/trios/L1T4A3.jpg","38","restless",0.6,0.6,0.7,0.533481654160336,"true"
"image-keyboard-response",607,511645,"0.0-4.198-1.198","mgr2la5rnnmtkv4",456,"76.csv","","null","resources/maskTrios/BT4B.jpg","null","",NA,NA,NA,NA,""
"image-keyboard-response",608,512855,"0.0-4.198-2.198","mgr2la5rnnmtkv4",456,"76.csv","","null","resources/images/coin2.png","null","",NA,NA,NA,NA,""
"image-keyboard-response",609,512859,"0.0-4.199-0.199","mgr2la5rnnmtkv4",456,"76.csv","","3.899999976158142","resources/trios/L1T4A3.jpg","38","restless",0.6,0.6,0.7,0.0829336727055834,"true"
"image-keyboard-response",610,513266,"0.0-4.199-1.199","mgr2la5rnnmtkv4",456,"76.csv","","null","resources/maskTrios/BT4B.jpg","null","",NA,NA,NA,NA,""
"image-keyboard-response",611,514470,"0.0-4.199-2.199","mgr2la5rnnmtkv4",456,"76.csv","","null","resources/images/coin2.png","null","",NA,NA,NA,NA,""
