"trial_type","trial_index","time_elapsed","internal_node_id","subject","participantCode","walkNumber","success","rt","stimulus","key_press","test_part","leftProb","midProb","rightProb","generatedNum","correct"
"pavlovia",0,5547,"0.0-0.0","bk21mtrr1vro0o2",793,"25.csv","","","","","",NA,NA,NA,NA,""
"fullscreen",1,9807,"0.0-1.0","bk21mtrr1vro0o2",793,"25.csv","true","","","","",NA,NA,NA,NA,""
"survey-html-form",2,49157,"0.0-2.0","bk21mtrr1vro0o2",793,"25.csv","","39347.70000001788","","","",NA,NA,NA,NA,""
"image-keyboard-response",3,111589,"0.0-3.0-0.0","bk21mtrr1vro0o2",793,"25.csv","","62430.70000001788","resources/images/parrot_nobg.png","13","",NA,NA,NA,NA,""
"image-keyboard-response",4,114603,"0.0-3.0-1.0","bk21mtrr1vro0o2",793,"25.csv","","null","resources/image_sets/111.png","null","",NA,NA,NA,NA,""
"image-keyboard-response",5,148625,"0.0-3.0-2.0","bk21mtrr1vro0o2",793,"25.csv","","34027","resources/image_sets/left_highlight.png","37","",NA,NA,NA,NA,""
"image-keyboard-response",6,152153,"0.0-3.0-3.0","bk21mtrr1vro0o2",793,"25.csv","","3527.5","resources/image_sets/mid_highlight.png","38","",NA,NA,NA,NA,""
"image-keyboard-response",7,153189,"0.0-3.0-4.0","bk21mtrr1vro0o2",793,"25.csv","","1035","resources/image_sets/right_highlight.png","39","",NA,NA,NA,NA,""
"image-keyboard-response",8,156538,"0.0-3.0-5.0","bk21mtrr1vro0o2",793,"25.csv","","3348.7000000178814","resources/image_sets/111.png","13","",NA,NA,NA,NA,""
"image-keyboard-response",9,161923,"0.0-3.0-6.0","bk21mtrr1vro0o2",793,"25.csv","","5384.300000011921","resources/images/coin2.png","13","",NA,NA,NA,NA,""
"image-keyboard-response",10,164632,"0.0-3.0-7.0","bk21mtrr1vro0o2",793,"25.csv","","2707.800000011921","resources/images/fishbone.png","13","",NA,NA,NA,NA,""
"html-keyboard-response",11,172782,"0.0-3.0-8.0","bk21mtrr1vro0o2",793,"25.csv","","8149.800000011921","<p>You can track your coin total on the top right of your screen. </p><p>At the end of your journey you will be directed to a survey, so please click on the link before exiting the task</p><p>Press Enter to begin</p>","13","",NA,NA,NA,NA,""
"image-keyboard-response",12,175201,"0.0-4.0-0.0","bk21mtrr1vro0o2",793,"25.csv","","2417.5","resources/trios/L1T2A2.jpg","38","restless",0.7,0.3,0.9,0.612407562104264,"false"
"image-keyboard-response",13,175607,"0.0-4.0-1.0","bk21mtrr1vro0o2",793,"25.csv","","null","resources/maskTrios/BT2B.jpg","null","",NA,NA,NA,NA,""
"image-keyboard-response",14,176815,"0.0-4.0-2.0","bk21mtrr1vro0o2",793,"25.csv","","null","resources/images/fishbone.png","null","",NA,NA,NA,NA,""
"image-keyboard-response",15,178379,"0.0-4.1-0.1","bk21mtrr1vro0o2",793,"25.csv","","1563.300000011921","resources/trios/L1T2A2.jpg","37","restless",0.7,0.3,0.9,0.771144886006058,"false"
"image-keyboard-response",16,178792,"0.0-4.1-1.1","bk21mtrr1vro0o2",793,"25.csv","","null","resources/maskTrios/L1BB.jpg","null","",NA,NA,NA,NA,""
"image-keyboard-response",17,179999,"0.0-4.1-2.1","bk21mtrr1vro0o2",793,"25.csv","","null","resources/images/fishbone.png","null","",NA,NA,NA,NA,""
"image-keyboard-response",18,181298,"0.0-4.2-0.2","bk21mtrr1vro0o2",793,"25.csv","","1298.2999999821186","resources/trios/L1T2A2.jpg","39","restless",0.7,0.3,0.9,0.614282062265991,"true"
"image-keyboard-response",19,181711,"0.0-4.2-1.2","bk21mtrr1vro0o2",793,"25.csv","","null","resources/maskTrios/BBA2.jpg","null","",NA,NA,NA,NA,""
"image-keyboard-response",20,182916,"0.0-4.2-2.2","bk21mtrr1vro0o2",793,"25.csv","","null","resources/images/coin2.png","null","",NA,NA,NA,NA,""
"image-keyboard-response",21,185001,"0.0-4.3-0.3","bk21mtrr1vro0o2",793,"25.csv","","2084.2000000178814","resources/trios/L1T2A2.jpg","38","restless",0.7,0.3,0.9,0.363233800046924,"false"
"image-keyboard-response",22,185411,"0.0-4.3-1.3","bk21mtrr1vro0o2",793,"25.csv","","null","resources/maskTrios/BT2B.jpg","null","",NA,NA,NA,NA,""
"image-keyboard-response",23,186619,"0.0-4.3-2.3","bk21mtrr1vro0o2",793,"25.csv","","null","resources/images/fishbone.png","null","",NA,NA,NA,NA,""
"image-keyboard-response",24,188195,"0.0-4.4-0.4","bk21mtrr1vro0o2",793,"25.csv","","1575","resources/trios/L1T2A2.jpg","39","restless",0.6,0.3,0.9,0.0836568932838169,"true"
"image-keyboard-response",25,188597,"0.0-4.4-1.4","bk21mtrr1vro0o2",793,"25.csv","","null","resources/maskTrios/BBA2.jpg","null","",NA,NA,NA,NA,""
"image-keyboard-response",26,189804,"0.0-4.4-2.4","bk21mtrr1vro0o2",793,"25.csv","","null","resources/images/coin2.png","null","",NA,NA,NA,NA,""
"image-keyboard-response",27,190879,"0.0-4.5-0.5","bk21mtrr1vro0o2",793,"25.csv","","1074.199999988079","resources/trios/L1T2A2.jpg","39","restless",0.6,0.3,0.9,0.645747345613557,"true"
"image-keyboard-response",28,191295,"0.0-4.5-1.5","bk21mtrr1vro0o2",793,"25.csv","","null","resources/maskTrios/BBA2.jpg","null","",NA,NA,NA,NA,""
"image-keyboard-response",29,192503,"0.0-4.5-2.5","bk21mtrr1vro0o2",793,"25.csv","","null","resources/images/coin2.png","null","",NA,NA,NA,NA,""
"image-keyboard-response",30,193256,"0.0-4.6-0.6","bk21mtrr1vro0o2",793,"25.csv","","752.5999999940395","resources/trios/L1T2A2.jpg","39","restless",0.6,0.3,0.9,0.817141304164651,"true"
"image-keyboard-response",31,193662,"0.0-4.6-1.6","bk21mtrr1vro0o2",793,"25.csv","","null","resources/maskTrios/BBA2.jpg","null","",NA,NA,NA,NA,""
"image-keyboard-response",32,194872,"0.0-4.6-2.6","bk21mtrr1vro0o2",793,"25.csv","","null","resources/images/coin2.png","null","",NA,NA,NA,NA,""
"image-keyboard-response",33,195360,"0.0-4.7-0.7","bk21mtrr1vro0o2",793,"25.csv","","487","resources/trios/L1T2A2.jpg","39","restless",0.6,0.3,0.9,0.613846778621471,"true"
"image-keyboard-response",34,195772,"0.0-4.7-1.7","bk21mtrr1vro0o2",793,"25.csv","","null","resources/maskTrios/BBA2.jpg","null","",NA,NA,NA,NA,""
"image-keyboard-response",35,196974,"0.0-4.7-2.7","bk21mtrr1vro0o2",793,"25.csv","","null","resources/images/coin2.png","null","",NA,NA,NA,NA,""
"image-keyboard-response",36,197542,"0.0-4.8-0.8","bk21mtrr1vro0o2",793,"25.csv","","566.8000000119209","resources/trios/L1T2A2.jpg","39","restless",0.6,0.3,0.9,0.459821175899781,"true"
"image-keyboard-response",37,197954,"0.0-4.8-1.8","bk21mtrr1vro0o2",793,"25.csv","","null","resources/maskTrios/BBA2.jpg","null","",NA,NA,NA,NA,""
"image-keyboard-response",38,199170,"0.0-4.8-2.8","bk21mtrr1vro0o2",793,"25.csv","","null","resources/images/coin2.png","null","",NA,NA,NA,NA,""
"image-keyboard-response",39,199627,"0.0-4.9-0.9","bk21mtrr1vro0o2",793,"25.csv","","456.2999999821186","resources/trios/L1T2A2.jpg","39","restless",0.6,0.3,0.8,0.450261741129933,"true"
"image-keyboard-response",40,200036,"0.0-4.9-1.9","bk21mtrr1vro0o2",793,"25.csv","","null","resources/maskTrios/BBA2.jpg","null","",NA,NA,NA,NA,""
"image-keyboard-response",41,201241,"0.0-4.9-2.9","bk21mtrr1vro0o2",793,"25.csv","","null","resources/images/coin2.png","null","",NA,NA,NA,NA,""
"image-keyboard-response",42,201838,"0.0-4.10-0.10","bk21mtrr1vro0o2",793,"25.csv","","596","resources/trios/L1T2A2.jpg","39","restless",0.6,0.3,0.8,0.0721270175764803,"true"
"image-keyboard-response",43,202250,"0.0-4.10-1.10","bk21mtrr1vro0o2",793,"25.csv","","null","resources/maskTrios/BBA2.jpg","null","",NA,NA,NA,NA,""
"image-keyboard-response",44,203452,"0.0-4.10-2.10","bk21mtrr1vro0o2",793,"25.csv","","null","resources/images/coin2.png","null","",NA,NA,NA,NA,""
"image-keyboard-response",45,203969,"0.0-4.11-0.11","bk21mtrr1vro0o2",793,"25.csv","","515.5999999940395","resources/trios/L1T2A2.jpg","39","restless",0.6,0.3,0.8,0.771724697161079,"true"
"image-keyboard-response",46,204382,"0.0-4.11-1.11","bk21mtrr1vro0o2",793,"25.csv","","null","resources/maskTrios/BBA2.jpg","null","",NA,NA,NA,NA,""
"image-keyboard-response",47,205586,"0.0-4.11-2.11","bk21mtrr1vro0o2",793,"25.csv","","null","resources/images/coin2.png","null","",NA,NA,NA,NA,""
"image-keyboard-response",48,206022,"0.0-4.12-0.12","bk21mtrr1vro0o2",793,"25.csv","","435.09999999403954","resources/trios/L1T2A2.jpg","39","restless",0.6,0.3,0.8,0.169417412329417,"true"
"image-keyboard-response",49,206434,"0.0-4.12-1.12","bk21mtrr1vro0o2",793,"25.csv","","null","resources/maskTrios/BBA2.jpg","null","",NA,NA,NA,NA,""
"image-keyboard-response",50,207639,"0.0-4.12-2.12","bk21mtrr1vro0o2",793,"25.csv","","null","resources/images/coin2.png","null","",NA,NA,NA,NA,""
"image-keyboard-response",51,208312,"0.0-4.13-0.13","bk21mtrr1vro0o2",793,"25.csv","","672.9000000059605","resources/trios/L1T2A2.jpg","39","restless",0.6,0.3,0.7,0.615189710796118,"true"
"image-keyboard-response",52,208726,"0.0-4.13-1.13","bk21mtrr1vro0o2",793,"25.csv","","null","resources/maskTrios/BBA2.jpg","null","",NA,NA,NA,NA,""
"image-keyboard-response",53,209937,"0.0-4.13-2.13","bk21mtrr1vro0o2",793,"25.csv","","null","resources/images/coin2.png","null","",NA,NA,NA,NA,""
"image-keyboard-response",54,210280,"0.0-4.14-0.14","bk21mtrr1vro0o2",793,"25.csv","","343","resources/trios/L1T2A2.jpg","39","restless",0.6,0.3,0.7,0.711487767458081,"false"
"image-keyboard-response",55,210689,"0.0-4.14-1.14","bk21mtrr1vro0o2",793,"25.csv","","null","resources/maskTrios/BBA2.jpg","null","",NA,NA,NA,NA,""
"image-keyboard-response",56,211896,"0.0-4.14-2.14","bk21mtrr1vro0o2",793,"25.csv","","null","resources/images/fishbone.png","null","",NA,NA,NA,NA,""
"image-keyboard-response",57,212295,"0.0-4.15-0.15","bk21mtrr1vro0o2",793,"25.csv","","398","resources/trios/L1T2A2.jpg","38","restless",0.6,0.3,0.8,0.338998813965158,"false"
"image-keyboard-response",58,212697,"0.0-4.15-1.15","bk21mtrr1vro0o2",793,"25.csv","","null","resources/maskTrios/BT2B.jpg","null","",NA,NA,NA,NA,""
"image-keyboard-response",59,213905,"0.0-4.15-2.15","bk21mtrr1vro0o2",793,"25.csv","","null","resources/images/fishbone.png","null","",NA,NA,NA,NA,""
"image-keyboard-response",60,214420,"0.0-4.16-0.16","bk21mtrr1vro0o2",793,"25.csv","","515","resources/trios/L1T2A2.jpg","37","restless",0.6,0.3,0.8,0.597044859045747,"true"
"image-keyboard-response",61,214830,"0.0-4.16-1.16","bk21mtrr1vro0o2",793,"25.csv","","null","resources/maskTrios/L1BB.jpg","null","",NA,NA,NA,NA,""
"image-keyboard-response",62,216038,"0.0-4.16-2.16","bk21mtrr1vro0o2",793,"25.csv","","null","resources/images/coin2.png","null","",NA,NA,NA,NA,""
"image-keyboard-response",63,216401,"0.0-4.17-0.17","bk21mtrr1vro0o2",793,"25.csv","","361.69999998807907","resources/trios/L1T2A2.jpg","37","restless",0.6,0.3,0.8,0.737785444842401,"false"
"image-keyboard-response",64,216805,"0.0-4.17-1.17","bk21mtrr1vro0o2",793,"25.csv","","null","resources/maskTrios/L1BB.jpg","null","",NA,NA,NA,NA,""
"image-keyboard-response",65,218016,"0.0-4.17-2.17","bk21mtrr1vro0o2",793,"25.csv","","null","resources/images/fishbone.png","null","",NA,NA,NA,NA,""
"image-keyboard-response",66,218595,"0.0-4.18-0.18","bk21mtrr1vro0o2",793,"25.csv","","576.7999999821186","resources/trios/L1T2A2.jpg","38","restless",0.6,0.3,0.8,0.533992956413884,"false"
"image-keyboard-response",67,219004,"0.0-4.18-1.18","bk21mtrr1vro0o2",793,"25.csv","","null","resources/maskTrios/BT2B.jpg","null","",NA,NA,NA,NA,""
"image-keyboard-response",68,220213,"0.0-4.18-2.18","bk21mtrr1vro0o2",793,"25.csv","","null","resources/images/fishbone.png","null","",NA,NA,NA,NA,""
"image-keyboard-response",69,220482,"0.0-4.19-0.19","bk21mtrr1vro0o2",793,"25.csv","","268.09999999403954","resources/trios/L1T2A2.jpg","39","restless",0.6,0.3,0.8,0.780314003349767,"true"
"image-keyboard-response",70,220887,"0.0-4.19-1.19","bk21mtrr1vro0o2",793,"25.csv","","null","resources/maskTrios/BBA2.jpg","null","",NA,NA,NA,NA,""
"image-keyboard-response",71,222095,"0.0-4.19-2.19","bk21mtrr1vro0o2",793,"25.csv","","null","resources/images/coin2.png","null","",NA,NA,NA,NA,""
"image-keyboard-response",72,222614,"0.0-4.20-0.20","bk21mtrr1vro0o2",793,"25.csv","","517.3000000119209","resources/trios/L1T2A2.jpg","39","restless",0.6,0.3,0.8,0.188437426046,"true"
"image-keyboard-response",73,223021,"0.0-4.20-1.20","bk21mtrr1vro0o2",793,"25.csv","","null","resources/maskTrios/BBA2.jpg","null","",NA,NA,NA,NA,""
"image-keyboard-response",74,224230,"0.0-4.20-2.20","bk21mtrr1vro0o2",793,"25.csv","","null","resources/images/coin2.png","null","",NA,NA,NA,NA,""
"image-keyboard-response",75,224734,"0.0-4.21-0.21","bk21mtrr1vro0o2",793,"25.csv","","503.19999998807907","resources/trios/L1T2A2.jpg","39","restless",0.6,0.3,0.8,0.271574137169557,"true"
"image-keyboard-response",76,225140,"0.0-4.21-1.21","bk21mtrr1vro0o2",793,"25.csv","","null","resources/maskTrios/BBA2.jpg","null","",NA,NA,NA,NA,""
"image-keyboard-response",77,226347,"0.0-4.21-2.21","bk21mtrr1vro0o2",793,"25.csv","","null","resources/images/coin2.png","null","",NA,NA,NA,NA,""
"image-keyboard-response",78,227009,"0.0-4.22-0.22","bk21mtrr1vro0o2",793,"25.csv","","660.8000000119209","resources/trios/L1T2A2.jpg","39","restless",0.6,0.3,0.8,0.766589334645326,"true"
"image-keyboard-response",79,227415,"0.0-4.22-1.22","bk21mtrr1vro0o2",793,"25.csv","","null","resources/maskTrios/BBA2.jpg","null","",NA,NA,NA,NA,""
"image-keyboard-response",80,228622,"0.0-4.22-2.22","bk21mtrr1vro0o2",793,"25.csv","","null","resources/images/coin2.png","null","",NA,NA,NA,NA,""
"image-keyboard-response",81,229153,"0.0-4.23-0.23","bk21mtrr1vro0o2",793,"25.csv","","530.0999999940395","resources/trios/L1T2A2.jpg","39","restless",0.6,0.3,0.8,0.500089393741873,"true"
"image-keyboard-response",82,229565,"0.0-4.23-1.23","bk21mtrr1vro0o2",793,"25.csv","","null","resources/maskTrios/BBA2.jpg","null","",NA,NA,NA,NA,""
"image-keyboard-response",83,230773,"0.0-4.23-2.23","bk21mtrr1vro0o2",793,"25.csv","","null","resources/images/coin2.png","null","",NA,NA,NA,NA,""
"image-keyboard-response",84,231188,"0.0-4.24-0.24","bk21mtrr1vro0o2",793,"25.csv","","414.30000001192093","resources/trios/L1T2A2.jpg","39","restless",0.6,0.4,0.8,0.318763924491074,"true"
"image-keyboard-response",85,231589,"0.0-4.24-1.24","bk21mtrr1vro0o2",793,"25.csv","","null","resources/maskTrios/BBA2.jpg","null","",NA,NA,NA,NA,""
"image-keyboard-response",86,232796,"0.0-4.24-2.24","bk21mtrr1vro0o2",793,"25.csv","","null","resources/images/coin2.png","null","",NA,NA,NA,NA,""
"image-keyboard-response",87,233227,"0.0-4.25-0.25","bk21mtrr1vro0o2",793,"25.csv","","430.09999999403954","resources/trios/L1T2A2.jpg","39","restless",0.6,0.4,0.8,0.802553560771078,"false"
"image-keyboard-response",88,233629,"0.0-4.25-1.25","bk21mtrr1vro0o2",793,"25.csv","","null","resources/maskTrios/BBA2.jpg","null","",NA,NA,NA,NA,""
"image-keyboard-response",89,234837,"0.0-4.25-2.25","bk21mtrr1vro0o2",793,"25.csv","","null","resources/images/fishbone.png","null","",NA,NA,NA,NA,""
"image-keyboard-response",90,235192,"0.0-4.26-0.26","bk21mtrr1vro0o2",793,"25.csv","","354.40000000596046","resources/trios/L1T2A2.jpg","37","restless",0.6,0.4,0.8,0.420093996639451,"true"
"image-keyboard-response",91,235607,"0.0-4.26-1.26","bk21mtrr1vro0o2",793,"25.csv","","null","resources/maskTrios/L1BB.jpg","null","",NA,NA,NA,NA,""
"image-keyboard-response",92,236813,"0.0-4.26-2.26","bk21mtrr1vro0o2",793,"25.csv","","null","resources/images/coin2.png","null","",NA,NA,NA,NA,""
"image-keyboard-response",93,237052,"0.0-4.27-0.27","bk21mtrr1vro0o2",793,"25.csv","","238.5","resources/trios/L1T2A2.jpg","39","restless",0.6,0.4,0.8,0.144888397198814,"true"
"image-keyboard-response",94,237456,"0.0-4.27-1.27","bk21mtrr1vro0o2",793,"25.csv","","null","resources/maskTrios/BBA2.jpg","null","",NA,NA,NA,NA,""
"image-keyboard-response",95,238663,"0.0-4.27-2.27","bk21mtrr1vro0o2",793,"25.csv","","null","resources/images/coin2.png","null","",NA,NA,NA,NA,""
"image-keyboard-response",96,239180,"0.0-4.28-0.28","bk21mtrr1vro0o2",793,"25.csv","","515.4000000059605","resources/trios/L1T2A2.jpg","39","restless",0.6,0.3,0.8,0.668116819462428,"true"
"image-keyboard-response",97,239589,"0.0-4.28-1.28","bk21mtrr1vro0o2",793,"25.csv","","null","resources/maskTrios/BBA2.jpg","null","",NA,NA,NA,NA,""
"image-keyboard-response",98,240797,"0.0-4.28-2.28","bk21mtrr1vro0o2",793,"25.csv","","null","resources/images/coin2.png","null","",NA,NA,NA,NA,""
"image-keyboard-response",99,241148,"0.0-4.29-0.29","bk21mtrr1vro0o2",793,"25.csv","","350.60000002384186","resources/trios/L1T2A2.jpg","39","restless",0.6,0.4,0.8,0.722242725968811,"true"
"image-keyboard-response",100,241555,"0.0-4.29-1.29","bk21mtrr1vro0o2",793,"25.csv","","null","resources/maskTrios/BBA2.jpg","null","",NA,NA,NA,NA,""
"image-keyboard-response",101,242758,"0.0-4.29-2.29","bk21mtrr1vro0o2",793,"25.csv","","null","resources/images/coin2.png","null","",NA,NA,NA,NA,""
"image-keyboard-response",102,243254,"0.0-4.30-0.30","bk21mtrr1vro0o2",793,"25.csv","","495.40000000596046","resources/trios/L1T2A2.jpg","39","restless",0.6,0.4,0.8,0.562397241094697,"true"
"image-keyboard-response",103,243669,"0.0-4.30-1.30","bk21mtrr1vro0o2",793,"25.csv","","null","resources/maskTrios/BBA2.jpg","null","",NA,NA,NA,NA,""
"image-keyboard-response",104,244876,"0.0-4.30-2.30","bk21mtrr1vro0o2",793,"25.csv","","null","resources/images/coin2.png","null","",NA,NA,NA,NA,""
"image-keyboard-response",105,245174,"0.0-4.31-0.31","bk21mtrr1vro0o2",793,"25.csv","","297.40000000596046","resources/trios/L1T2A2.jpg","39","restless",0.5,0.4,0.7,0.949480831792485,"false"
"image-keyboard-response",106,245580,"0.0-4.31-1.31","bk21mtrr1vro0o2",793,"25.csv","","null","resources/maskTrios/BBA2.jpg","null","",NA,NA,NA,NA,""
"image-keyboard-response",107,246789,"0.0-4.31-2.31","bk21mtrr1vro0o2",793,"25.csv","","null","resources/images/fishbone.png","null","",NA,NA,NA,NA,""
"image-keyboard-response",108,247078,"0.0-4.32-0.32","bk21mtrr1vro0o2",793,"25.csv","","288.5","resources/trios/L1T2A2.jpg","37","restless",0.5,0.4,0.7,0.819584244727923,"false"
"image-keyboard-response",109,247485,"0.0-4.32-1.32","bk21mtrr1vro0o2",793,"25.csv","","null","resources/maskTrios/L1BB.jpg","null","",NA,NA,NA,NA,""
"image-keyboard-response",110,248688,"0.0-4.32-2.32","bk21mtrr1vro0o2",793,"25.csv","","null","resources/images/fishbone.png","null","",NA,NA,NA,NA,""
"image-keyboard-response",111,249094,"0.0-4.33-0.33","bk21mtrr1vro0o2",793,"25.csv","","405.80000001192093","resources/trios/L1T2A2.jpg","38","restless",0.5,0.4,0.7,0.145297311028624,"true"
"image-keyboard-response",112,249501,"0.0-4.33-1.33","bk21mtrr1vro0o2",793,"25.csv","","null","resources/maskTrios/BT2B.jpg","null","",NA,NA,NA,NA,""
"image-keyboard-response",113,250710,"0.0-4.33-2.33","bk21mtrr1vro0o2",793,"25.csv","","null","resources/images/coin2.png","null","",NA,NA,NA,NA,""
"image-keyboard-response",114,250927,"0.0-4.34-0.34","bk21mtrr1vro0o2",793,"25.csv","","216.2999999821186","resources/trios/L1T2A2.jpg","39","restless",0.5,0.4,0.7,0.539346900951193,"true"
"image-keyboard-response",115,251338,"0.0-4.34-1.34","bk21mtrr1vro0o2",793,"25.csv","","null","resources/maskTrios/BBA2.jpg","null","",NA,NA,NA,NA,""
"image-keyboard-response",116,252546,"0.0-4.34-2.34","bk21mtrr1vro0o2",793,"25.csv","","null","resources/images/coin2.png","null","",NA,NA,NA,NA,""
"image-keyboard-response",117,253043,"0.0-4.35-0.35","bk21mtrr1vro0o2",793,"25.csv","","496","resources/trios/L1T2A2.jpg","39","restless",0.5,0.5,0.7,0.68136675425804,"true"
"image-keyboard-response",118,253455,"0.0-4.35-1.35","bk21mtrr1vro0o2",793,"25.csv","","null","resources/maskTrios/BBA2.jpg","null","",NA,NA,NA,NA,""
"image-keyboard-response",119,254663,"0.0-4.35-2.35","bk21mtrr1vro0o2",793,"25.csv","","null","resources/images/coin2.png","null","",NA,NA,NA,NA,""
"image-keyboard-response",120,255025,"0.0-4.36-0.36","bk21mtrr1vro0o2",793,"25.csv","","361.5","resources/trios/L1T2A2.jpg","39","restless",0.5,0.5,0.7,0.0995469097943311,"true"
"image-keyboard-response",121,255431,"0.0-4.36-1.36","bk21mtrr1vro0o2",793,"25.csv","","null","resources/maskTrios/BBA2.jpg","null","",NA,NA,NA,NA,""
"image-keyboard-response",122,256637,"0.0-4.36-2.36","bk21mtrr1vro0o2",793,"25.csv","","null","resources/images/coin2.png","null","",NA,NA,NA,NA,""
"image-keyboard-response",123,257018,"0.0-4.37-0.37","bk21mtrr1vro0o2",793,"25.csv","","379.7999999821186","resources/trios/L1T2A2.jpg","39","restless",0.5,0.5,0.7,0.245166570446194,"true"
"image-keyboard-response",124,257423,"0.0-4.37-1.37","bk21mtrr1vro0o2",793,"25.csv","","null","resources/maskTrios/BBA2.jpg","null","",NA,NA,NA,NA,""
"image-keyboard-response",125,258631,"0.0-4.37-2.37","bk21mtrr1vro0o2",793,"25.csv","","null","resources/images/coin2.png","null","",NA,NA,NA,NA,""
"image-keyboard-response",126,258971,"0.0-4.38-0.38","bk21mtrr1vro0o2",793,"25.csv","","339.90000000596046","resources/trios/L1T2A2.jpg","39","restless",0.5,0.5,0.7,0.135918587180334,"true"
"image-keyboard-response",127,259385,"0.0-4.38-1.38","bk21mtrr1vro0o2",793,"25.csv","","null","resources/maskTrios/BBA2.jpg","null","",NA,NA,NA,NA,""
"image-keyboard-response",128,260593,"0.0-4.38-2.38","bk21mtrr1vro0o2",793,"25.csv","","null","resources/images/coin2.png","null","",NA,NA,NA,NA,""
"image-keyboard-response",129,261028,"0.0-4.39-0.39","bk21mtrr1vro0o2",793,"25.csv","","434.30000001192093","resources/trios/L1T2A2.jpg","39","restless",0.5,0.5,0.7,0.652473829429819,"true"
"image-keyboard-response",130,261444,"0.0-4.39-1.39","bk21mtrr1vro0o2",793,"25.csv","","null","resources/maskTrios/BBA2.jpg","null","",NA,NA,NA,NA,""
"image-keyboard-response",131,262648,"0.0-4.39-2.39","bk21mtrr1vro0o2",793,"25.csv","","null","resources/images/coin2.png","null","",NA,NA,NA,NA,""
"image-keyboard-response",132,263086,"0.0-4.40-0.40","bk21mtrr1vro0o2",793,"25.csv","","436.59999999403954","resources/trios/L1T2A2.jpg","39","restless",0.5,0.5,0.7,0.317542182051801,"true"
"image-keyboard-response",133,263494,"0.0-4.40-1.40","bk21mtrr1vro0o2",793,"25.csv","","null","resources/maskTrios/BBA2.jpg","null","",NA,NA,NA,NA,""
"image-keyboard-response",134,264702,"0.0-4.40-2.40","bk21mtrr1vro0o2",793,"25.csv","","null","resources/images/coin2.png","null","",NA,NA,NA,NA,""
"image-keyboard-response",135,264995,"0.0-4.41-0.41","bk21mtrr1vro0o2",793,"25.csv","","292.10000002384186","resources/trios/L1T2A2.jpg","39","restless",0.5,0.5,0.7,0.129103552862698,"true"
"image-keyboard-response",136,265409,"0.0-4.41-1.41","bk21mtrr1vro0o2",793,"25.csv","","null","resources/maskTrios/BBA2.jpg","null","",NA,NA,NA,NA,""
"image-keyboard-response",137,266617,"0.0-4.41-2.41","bk21mtrr1vro0o2",793,"25.csv","","null","resources/images/coin2.png","null","",NA,NA,NA,NA,""
"image-keyboard-response",138,266878,"0.0-4.42-0.42","bk21mtrr1vro0o2",793,"25.csv","","259.59999999403954","resources/trios/L1T2A2.jpg","39","restless",0.5,0.5,0.7,0.82854383895609,"false"
"image-keyboard-response",139,267291,"0.0-4.42-1.42","bk21mtrr1vro0o2",793,"25.csv","","null","resources/maskTrios/BBA2.jpg","null","",NA,NA,NA,NA,""
"image-keyboard-response",140,268497,"0.0-4.42-2.42","bk21mtrr1vro0o2",793,"25.csv","","null","resources/images/fishbone.png","null","",NA,NA,NA,NA,""
"image-keyboard-response",141,268831,"0.0-4.43-0.43","bk21mtrr1vro0o2",793,"25.csv","","333.19999998807907","resources/trios/L1T2A2.jpg","37","restless",0.5,0.5,0.7,0.494646982127368,"true"
"image-keyboard-response",142,269235,"0.0-4.43-1.43","bk21mtrr1vro0o2",793,"25.csv","","null","resources/maskTrios/L1BB.jpg","null","",NA,NA,NA,NA,""
"image-keyboard-response",143,270444,"0.0-4.43-2.43","bk21mtrr1vro0o2",793,"25.csv","","null","resources/images/coin2.png","null","",NA,NA,NA,NA,""
"image-keyboard-response",144,270711,"0.0-4.44-0.44","bk21mtrr1vro0o2",793,"25.csv","","266.40000000596046","resources/trios/L1T2A2.jpg","39","restless",0.5,0.5,0.7,0.0317817146091059,"true"
"image-keyboard-response",145,271124,"0.0-4.44-1.44","bk21mtrr1vro0o2",793,"25.csv","","null","resources/maskTrios/BBA2.jpg","null","",NA,NA,NA,NA,""
"image-keyboard-response",146,272327,"0.0-4.44-2.44","bk21mtrr1vro0o2",793,"25.csv","","null","resources/images/coin2.png","null","",NA,NA,NA,NA,""
"image-keyboard-response",147,272640,"0.0-4.45-0.45","bk21mtrr1vro0o2",793,"25.csv","","313","resources/trios/L1T2A2.jpg","39","restless",0.5,0.5,0.7,0.34385114384351,"true"
"image-keyboard-response",148,273047,"0.0-4.45-1.45","bk21mtrr1vro0o2",793,"25.csv","","null","resources/maskTrios/BBA2.jpg","null","",NA,NA,NA,NA,""
"image-keyboard-response",149,274255,"0.0-4.45-2.45","bk21mtrr1vro0o2",793,"25.csv","","null","resources/images/coin2.png","null","",NA,NA,NA,NA,""
"image-keyboard-response",150,274593,"0.0-4.46-0.46","bk21mtrr1vro0o2",793,"25.csv","","337.2999999821186","resources/trios/L1T2A2.jpg","39","restless",0.5,0.6,0.6,0.226125677782702,"true"
"image-keyboard-response",151,275010,"0.0-4.46-1.46","bk21mtrr1vro0o2",793,"25.csv","","null","resources/maskTrios/BBA2.jpg","null","",NA,NA,NA,NA,""
"image-keyboard-response",152,276217,"0.0-4.46-2.46","bk21mtrr1vro0o2",793,"25.csv","","null","resources/images/coin2.png","null","",NA,NA,NA,NA,""
"image-keyboard-response",153,276536,"0.0-4.47-0.47","bk21mtrr1vro0o2",793,"25.csv","","318.19999998807907","resources/trios/L1T2A2.jpg","39","restless",0.5,0.6,0.7,0.824936873093236,"false"
"image-keyboard-response",154,276953,"0.0-4.47-1.47","bk21mtrr1vro0o2",793,"25.csv","","null","resources/maskTrios/BBA2.jpg","null","",NA,NA,NA,NA,""
"image-keyboard-response",155,278161,"0.0-4.47-2.47","bk21mtrr1vro0o2",793,"25.csv","","null","resources/images/fishbone.png","null","",NA,NA,NA,NA,""
"image-keyboard-response",156,279290,"0.0-4.48-0.48","bk21mtrr1vro0o2",793,"25.csv","","1126.800000011921","resources/trios/L1T2A2.jpg","38","restless",0.5,0.6,0.7,0.703442068437008,"false"
"image-keyboard-response",157,279702,"0.0-4.48-1.48","bk21mtrr1vro0o2",793,"25.csv","","null","resources/maskTrios/BT2B.jpg","null","",NA,NA,NA,NA,""
"image-keyboard-response",158,280907,"0.0-4.48-2.48","bk21mtrr1vro0o2",793,"25.csv","","null","resources/images/fishbone.png","null","",NA,NA,NA,NA,""
"image-keyboard-response",159,281228,"0.0-4.49-0.49","bk21mtrr1vro0o2",793,"25.csv","","320.40000000596046","resources/trios/L1T2A2.jpg","37","restless",0.5,0.6,0.7,0.316228006261469,"true"
"image-keyboard-response",160,281643,"0.0-4.49-1.49","bk21mtrr1vro0o2",793,"25.csv","","null","resources/maskTrios/L1BB.jpg","null","",NA,NA,NA,NA,""
"image-keyboard-response",161,282851,"0.0-4.49-2.49","bk21mtrr1vro0o2",793,"25.csv","","null","resources/images/coin2.png","null","",NA,NA,NA,NA,""
"image-keyboard-response",162,283066,"0.0-4.50-0.50","bk21mtrr1vro0o2",793,"25.csv","","214.09999999403954","resources/trios/L1T2A2.jpg","39","restless",0.4,0.6,0.7,0.885609914273842,"false"
"image-keyboard-response",163,283483,"0.0-4.50-1.50","bk21mtrr1vro0o2",793,"25.csv","","null","resources/maskTrios/BBA2.jpg","null","",NA,NA,NA,NA,""
"image-keyboard-response",164,284687,"0.0-4.50-2.50","bk21mtrr1vro0o2",793,"25.csv","","null","resources/images/fishbone.png","null","",NA,NA,NA,NA,""
"image-keyboard-response",165,285023,"0.0-4.51-0.51","bk21mtrr1vro0o2",793,"25.csv","","335.2000000178814","resources/trios/L1T2A2.jpg","38","restless",0.4,0.6,0.7,0.979881898094727,"false"
"image-keyboard-response",166,285440,"0.0-4.51-1.51","bk21mtrr1vro0o2",793,"25.csv","","null","resources/maskTrios/BT2B.jpg","null","",NA,NA,NA,NA,""
"image-keyboard-response",167,286648,"0.0-4.51-2.51","bk21mtrr1vro0o2",793,"25.csv","","null","resources/images/fishbone.png","null","",NA,NA,NA,NA,""
"image-keyboard-response",168,286872,"0.0-4.52-0.52","bk21mtrr1vro0o2",793,"25.csv","","223.09999999403954","resources/trios/L1T2A2.jpg","39","restless",0.4,0.6,0.7,0.670584731523067,"true"
"image-keyboard-response",169,287287,"0.0-4.52-1.52","bk21mtrr1vro0o2",793,"25.csv","","null","resources/maskTrios/BBA2.jpg","null","",NA,NA,NA,NA,""
"image-keyboard-response",170,288500,"0.0-4.52-2.52","bk21mtrr1vro0o2",793,"25.csv","","null","resources/images/coin2.png","null","",NA,NA,NA,NA,""
"image-keyboard-response",171,288692,"0.0-4.53-0.53","bk21mtrr1vro0o2",793,"25.csv","","191.59999999403954","resources/trios/L1T2A2.jpg","39","restless",0.5,0.5,0.6,0.741441105664821,"false"
"image-keyboard-response",172,289095,"0.0-4.53-1.53","bk21mtrr1vro0o2",793,"25.csv","","null","resources/maskTrios/BBA2.jpg","null","",NA,NA,NA,NA,""
"image-keyboard-response",173,290303,"0.0-4.53-2.53","bk21mtrr1vro0o2",793,"25.csv","","null","resources/images/fishbone.png","null","",NA,NA,NA,NA,""
"image-keyboard-response",174,290730,"0.0-4.54-0.54","bk21mtrr1vro0o2",793,"25.csv","","426.19999998807907","resources/trios/L1T2A2.jpg","37","restless",0.5,0.5,0.6,0.323289732494764,"true"
"image-keyboard-response",175,291135,"0.0-4.54-1.54","bk21mtrr1vro0o2",793,"25.csv","","null","resources/maskTrios/L1BB.jpg","null","",NA,NA,NA,NA,""
"image-keyboard-response",176,292344,"0.0-4.54-2.54","bk21mtrr1vro0o2",793,"25.csv","","null","resources/images/coin2.png","null","",NA,NA,NA,NA,""
"image-keyboard-response",177,292598,"0.0-4.55-0.55","bk21mtrr1vro0o2",793,"25.csv","","253.40000000596046","resources/trios/L1T2A2.jpg","37","restless",0.5,0.5,0.6,0.173625366714804,"true"
"image-keyboard-response",178,293002,"0.0-4.55-1.55","bk21mtrr1vro0o2",793,"25.csv","","null","resources/maskTrios/L1BB.jpg","null","",NA,NA,NA,NA,""
"image-keyboard-response",179,294211,"0.0-4.55-2.55","bk21mtrr1vro0o2",793,"25.csv","","null","resources/images/coin2.png","null","",NA,NA,NA,NA,""
"image-keyboard-response",180,294494,"0.0-4.56-0.56","bk21mtrr1vro0o2",793,"25.csv","","282.7000000178814","resources/trios/L1T2A2.jpg","37","restless",0.5,0.5,0.6,0.935888731590732,"false"
"image-keyboard-response",181,294899,"0.0-4.56-1.56","bk21mtrr1vro0o2",793,"25.csv","","null","resources/maskTrios/L1BB.jpg","null","",NA,NA,NA,NA,""
"image-keyboard-response",182,296110,"0.0-4.56-2.56","bk21mtrr1vro0o2",793,"25.csv","","null","resources/images/fishbone.png","null","",NA,NA,NA,NA,""
"image-keyboard-response",183,296417,"0.0-4.57-0.57","bk21mtrr1vro0o2",793,"25.csv","","307","resources/trios/L1T2A2.jpg","38","restless",0.5,0.5,0.6,0.701350183055892,"false"
"image-keyboard-response",184,296831,"0.0-4.57-1.57","bk21mtrr1vro0o2",793,"25.csv","","null","resources/maskTrios/BT2B.jpg","null","",NA,NA,NA,NA,""
"image-keyboard-response",185,298039,"0.0-4.57-2.57","bk21mtrr1vro0o2",793,"25.csv","","null","resources/images/fishbone.png","null","",NA,NA,NA,NA,""
"image-keyboard-response",186,298219,"0.0-4.58-0.58","bk21mtrr1vro0o2",793,"25.csv","","179.30000001192093","resources/trios/L1T2A2.jpg","39","restless",0.5,0.5,0.6,0.493139012944911,"true"
"image-keyboard-response",187,298627,"0.0-4.58-1.58","bk21mtrr1vro0o2",793,"25.csv","","null","resources/maskTrios/BBA2.jpg","null","",NA,NA,NA,NA,""
"image-keyboard-response",188,299828,"0.0-4.58-2.58","bk21mtrr1vro0o2",793,"25.csv","","null","resources/images/coin2.png","null","",NA,NA,NA,NA,""
"image-keyboard-response",189,300040,"0.0-4.59-0.59","bk21mtrr1vro0o2",793,"25.csv","","211.2999999821186","resources/trios/L1T2A2.jpg","39","restless",0.5,0.5,0.5,0.0455303327244163,"true"
"image-keyboard-response",190,300455,"0.0-4.59-1.59","bk21mtrr1vro0o2",793,"25.csv","","null","resources/maskTrios/BBA2.jpg","null","",NA,NA,NA,NA,""
"image-keyboard-response",191,301662,"0.0-4.59-2.59","bk21mtrr1vro0o2",793,"25.csv","","null","resources/images/coin2.png","null","",NA,NA,NA,NA,""
"image-keyboard-response",192,301891,"0.0-4.60-0.60","bk21mtrr1vro0o2",793,"25.csv","","228.19999998807907","resources/trios/L1T2A2.jpg","39","restless",0.5,0.5,0.5,0.309697462442101,"true"
"image-keyboard-response",193,302307,"0.0-4.60-1.60","bk21mtrr1vro0o2",793,"25.csv","","null","resources/maskTrios/BBA2.jpg","null","",NA,NA,NA,NA,""
"image-keyboard-response",194,303512,"0.0-4.60-2.60","bk21mtrr1vro0o2",793,"25.csv","","null","resources/images/coin2.png","null","",NA,NA,NA,NA,""
"image-keyboard-response",195,303650,"0.0-4.61-0.61","bk21mtrr1vro0o2",793,"25.csv","","136.2999999821186","resources/trios/L1T2A2.jpg","39","restless",0.5,0.5,0.5,0.991670893280588,"false"
"image-keyboard-response",196,304064,"0.0-4.61-1.61","bk21mtrr1vro0o2",793,"25.csv","","null","resources/maskTrios/BBA2.jpg","null","",NA,NA,NA,NA,""
"image-keyboard-response",197,305273,"0.0-4.61-2.61","bk21mtrr1vro0o2",793,"25.csv","","null","resources/images/fishbone.png","null","",NA,NA,NA,NA,""
"image-keyboard-response",198,305518,"0.0-4.62-0.62","bk21mtrr1vro0o2",793,"25.csv","","244.69999998807907","resources/trios/L1T2A2.jpg","38","restless",0.5,0.5,0.5,0.301669839468395,"true"
"image-keyboard-response",199,305930,"0.0-4.62-1.62","bk21mtrr1vro0o2",793,"25.csv","","null","resources/maskTrios/BT2B.jpg","null","",NA,NA,NA,NA,""
"image-keyboard-response",200,307138,"0.0-4.62-2.62","bk21mtrr1vro0o2",793,"25.csv","","null","resources/images/coin2.png","null","",NA,NA,NA,NA,""
"image-keyboard-response",201,307344,"0.0-4.63-0.63","bk21mtrr1vro0o2",793,"25.csv","","205.7999999821186","resources/trios/L1T2A2.jpg","38","restless",0.5,0.5,0.5,0.606060516898304,"false"
"image-keyboard-response",202,307756,"0.0-4.63-1.63","bk21mtrr1vro0o2",793,"25.csv","","null","resources/maskTrios/BT2B.jpg","null","",NA,NA,NA,NA,""
"image-keyboard-response",203,308959,"0.0-4.63-2.63","bk21mtrr1vro0o2",793,"25.csv","","null","resources/images/fishbone.png","null","",NA,NA,NA,NA,""
"image-keyboard-response",204,309048,"0.0-4.64-0.64","bk21mtrr1vro0o2",793,"25.csv","","88.5","resources/trios/L1T2A2.jpg","37","restless",0.5,0.5,0.5,0.375575327046107,"true"
"image-keyboard-response",205,309459,"0.0-4.64-1.64","bk21mtrr1vro0o2",793,"25.csv","","null","resources/maskTrios/L1BB.jpg","null","",NA,NA,NA,NA,""
"image-keyboard-response",206,310669,"0.0-4.64-2.64","bk21mtrr1vro0o2",793,"25.csv","","null","resources/images/coin2.png","null","",NA,NA,NA,NA,""
"image-keyboard-response",207,310928,"0.0-4.65-0.65","bk21mtrr1vro0o2",793,"25.csv","","258.39999997615814","resources/trios/L1T2A2.jpg","39","restless",0.5,0.5,0.5,0.779735600519178,"false"
"image-keyboard-response",208,311343,"0.0-4.65-1.65","bk21mtrr1vro0o2",793,"25.csv","","null","resources/maskTrios/BBA2.jpg","null","",NA,NA,NA,NA,""
"image-keyboard-response",209,312552,"0.0-4.65-2.65","bk21mtrr1vro0o2",793,"25.csv","","null","resources/images/fishbone.png","null","",NA,NA,NA,NA,""
"image-keyboard-response",210,312954,"0.0-4.66-0.66","bk21mtrr1vro0o2",793,"25.csv","","401.5","resources/trios/L1T2A2.jpg","37","restless",0.4,0.5,0.5,0.919846259362269,"false"
"image-keyboard-response",211,313369,"0.0-4.66-1.66","bk21mtrr1vro0o2",793,"25.csv","","null","resources/maskTrios/L1BB.jpg","null","",NA,NA,NA,NA,""
"image-keyboard-response",212,314577,"0.0-4.66-2.66","bk21mtrr1vro0o2",793,"25.csv","","null","resources/images/fishbone.png","null","",NA,NA,NA,NA,""
"image-keyboard-response",213,315050,"0.0-4.67-0.67","bk21mtrr1vro0o2",793,"25.csv","","472.2000000178814","resources/trios/L1T2A2.jpg","38","restless",0.4,0.5,0.4,0.615911095560084,"false"
"image-keyboard-response",214,315457,"0.0-4.67-1.67","bk21mtrr1vro0o2",793,"25.csv","","null","resources/maskTrios/BT2B.jpg","null","",NA,NA,NA,NA,""
"image-keyboard-response",215,316664,"0.0-4.67-2.67","bk21mtrr1vro0o2",793,"25.csv","","null","resources/images/fishbone.png","null","",NA,NA,NA,NA,""
"image-keyboard-response",216,316932,"0.0-4.68-0.68","bk21mtrr1vro0o2",793,"25.csv","","266.2000000178814","resources/trios/L1T2A2.jpg","39","restless",0.4,0.6,0.4,0.739673111133587,"false"
"image-keyboard-response",217,317338,"0.0-4.68-1.68","bk21mtrr1vro0o2",793,"25.csv","","null","resources/maskTrios/BBA2.jpg","null","",NA,NA,NA,NA,""
"image-keyboard-response",218,318546,"0.0-4.68-2.68","bk21mtrr1vro0o2",793,"25.csv","","null","resources/images/fishbone.png","null","",NA,NA,NA,NA,""
"image-keyboard-response",219,318794,"0.0-4.69-0.69","bk21mtrr1vro0o2",793,"25.csv","","247.2000000178814","resources/trios/L1T2A2.jpg","39","restless",0.4,0.6,0.4,0.58923606156267,"false"
"image-keyboard-response",220,319205,"0.0-4.69-1.69","bk21mtrr1vro0o2",793,"25.csv","","null","resources/maskTrios/BBA2.jpg","null","",NA,NA,NA,NA,""
"image-keyboard-response",221,320413,"0.0-4.69-2.69","bk21mtrr1vro0o2",793,"25.csv","","null","resources/images/fishbone.png","null","",NA,NA,NA,NA,""
"image-keyboard-response",222,320781,"0.0-4.70-0.70","bk21mtrr1vro0o2",793,"25.csv","","366.30000001192093","resources/trios/L1T2A2.jpg","37","restless",0.3,0.6,0.4,0.413891083445255,"false"
"image-keyboard-response",223,321197,"0.0-4.70-1.70","bk21mtrr1vro0o2",793,"25.csv","","null","resources/maskTrios/L1BB.jpg","null","",NA,NA,NA,NA,""
"image-keyboard-response",224,322403,"0.0-4.70-2.70","bk21mtrr1vro0o2",793,"25.csv","","null","resources/images/fishbone.png","null","",NA,NA,NA,NA,""
"image-keyboard-response",225,322761,"0.0-4.71-0.71","bk21mtrr1vro0o2",793,"25.csv","","357.2999999821186","resources/trios/L1T2A2.jpg","38","restless",0.3,0.6,0.3,0.110414905634995,"true"
"image-keyboard-response",226,323173,"0.0-4.71-1.71","bk21mtrr1vro0o2",793,"25.csv","","null","resources/maskTrios/BT2B.jpg","null","",NA,NA,NA,NA,""
"image-keyboard-response",227,324381,"0.0-4.71-2.71","bk21mtrr1vro0o2",793,"25.csv","","null","resources/images/coin2.png","null","",NA,NA,NA,NA,""
"image-keyboard-response",228,325002,"0.0-4.72-0.72","bk21mtrr1vro0o2",793,"25.csv","","620","resources/trios/L1T2A2.jpg","38","restless",0.3,0.6,0.3,0.355531408844644,"true"
"image-keyboard-response",229,325417,"0.0-4.72-1.72","bk21mtrr1vro0o2",793,"25.csv","","null","resources/maskTrios/BT2B.jpg","null","",NA,NA,NA,NA,""
"image-keyboard-response",230,326625,"0.0-4.72-2.72","bk21mtrr1vro0o2",793,"25.csv","","null","resources/images/coin2.png","null","",NA,NA,NA,NA,""
"image-keyboard-response",231,327165,"0.0-4.73-0.73","bk21mtrr1vro0o2",793,"25.csv","","539","resources/trios/L1T2A2.jpg","38","restless",0.3,0.7,0.3,0.743392647873288,"false"
"image-keyboard-response",232,327566,"0.0-4.73-1.73","bk21mtrr1vro0o2",793,"25.csv","","null","resources/maskTrios/BT2B.jpg","null","",NA,NA,NA,NA,""
"image-keyboard-response",233,328774,"0.0-4.73-2.73","bk21mtrr1vro0o2",793,"25.csv","","null","resources/images/fishbone.png","null","",NA,NA,NA,NA,""
"image-keyboard-response",234,329105,"0.0-4.74-0.74","bk21mtrr1vro0o2",793,"25.csv","","340.90000000596046","resources/trios/L1T2A2.jpg","39","restless",0.3,0.7,0.2,0.553297449392379,"false"
"image-keyboard-response",235,329517,"0.0-4.74-1.74","bk21mtrr1vro0o2",793,"25.csv","","null","resources/maskTrios/BBA2.jpg","null","",NA,NA,NA,NA,""
"image-keyboard-response",236,330724,"0.0-4.74-2.74","bk21mtrr1vro0o2",793,"25.csv","","null","resources/images/fishbone.png","null","",NA,NA,NA,NA,""
"image-keyboard-response",237,331092,"0.0-4.75-0.75","bk21mtrr1vro0o2",793,"25.csv","","366.90000000596046","resources/trios/L1T2A2.jpg","37","restless",0.2,0.7,0.2,0.258785642781218,"false"
"image-keyboard-response",238,331499,"0.0-4.75-1.75","bk21mtrr1vro0o2",793,"25.csv","","null","resources/maskTrios/L1BB.jpg","null","",NA,NA,NA,NA,""
"image-keyboard-response",239,332701,"0.0-4.75-2.75","bk21mtrr1vro0o2",793,"25.csv","","null","resources/images/fishbone.png","null","",NA,NA,NA,NA,""
"image-keyboard-response",240,333104,"0.0-4.76-0.76","bk21mtrr1vro0o2",793,"25.csv","","401.60000002384186","resources/trios/L1T2A2.jpg","38","restless",0.2,0.7,0.2,0.639736006370665,"true"
"image-keyboard-response",241,333516,"0.0-4.76-1.76","bk21mtrr1vro0o2",793,"25.csv","","null","resources/maskTrios/BT2B.jpg","null","",NA,NA,NA,NA,""
"image-keyboard-response",242,334725,"0.0-4.76-2.76","bk21mtrr1vro0o2",793,"25.csv","","null","resources/images/coin2.png","null","",NA,NA,NA,NA,""
"image-keyboard-response",243,335031,"0.0-4.77-0.77","bk21mtrr1vro0o2",793,"25.csv","","305.7999999821186","resources/trios/L1T2A2.jpg","38","restless",0.2,0.7,0.2,0.792304757428996,"false"
"image-keyboard-response",244,335447,"0.0-4.77-1.77","bk21mtrr1vro0o2",793,"25.csv","","null","resources/maskTrios/BT2B.jpg","null","",NA,NA,NA,NA,""
"image-keyboard-response",245,336655,"0.0-4.77-2.77","bk21mtrr1vro0o2",793,"25.csv","","null","resources/images/fishbone.png","null","",NA,NA,NA,NA,""
"image-keyboard-response",246,336938,"0.0-4.78-0.78","bk21mtrr1vro0o2",793,"25.csv","","282.40000000596046","resources/trios/L1T2A2.jpg","37","restless",0.3,0.7,0.1,0.139286566858581,"true"
"image-keyboard-response",247,337346,"0.0-4.78-1.78","bk21mtrr1vro0o2",793,"25.csv","","null","resources/maskTrios/L1BB.jpg","null","",NA,NA,NA,NA,""
"image-keyboard-response",248,338551,"0.0-4.78-2.78","bk21mtrr1vro0o2",793,"25.csv","","null","resources/images/coin2.png","null","",NA,NA,NA,NA,""
"image-keyboard-response",249,338841,"0.0-4.79-0.79","bk21mtrr1vro0o2",793,"25.csv","","289.60000002384186","resources/trios/L1T2A2.jpg","39","restless",0.3,0.7,0.1,0.169327211932465,"false"
"image-keyboard-response",250,339243,"0.0-4.79-1.79","bk21mtrr1vro0o2",793,"25.csv","","null","resources/maskTrios/BBA2.jpg","null","",NA,NA,NA,NA,""
"image-keyboard-response",251,340451,"0.0-4.79-2.79","bk21mtrr1vro0o2",793,"25.csv","","null","resources/images/fishbone.png","null","",NA,NA,NA,NA,""
"image-keyboard-response",252,342624,"0.0-4.80-0.80","bk21mtrr1vro0o2",793,"25.csv","","2172.800000011921","resources/trios/L1T2A2.jpg","37","restless",0.2,0.7,0.1,0.830190714981038,"false"
"image-keyboard-response",253,343039,"0.0-4.80-1.80","bk21mtrr1vro0o2",793,"25.csv","","null","resources/maskTrios/L1BB.jpg","null","",NA,NA,NA,NA,""
"image-keyboard-response",254,344247,"0.0-4.80-2.80","bk21mtrr1vro0o2",793,"25.csv","","null","resources/images/fishbone.png","null","",NA,NA,NA,NA,""
"image-keyboard-response",255,350877,"0.0-4.81-0.81","bk21mtrr1vro0o2",793,"25.csv","","6628.800000011921","resources/trios/L1T2A2.jpg","38","restless",0.2,0.7,0.1,0.0224705887149663,"true"
"image-keyboard-response",256,351290,"0.0-4.81-1.81","bk21mtrr1vro0o2",793,"25.csv","","null","resources/maskTrios/BT2B.jpg","null","",NA,NA,NA,NA,""
"image-keyboard-response",257,352494,"0.0-4.81-2.81","bk21mtrr1vro0o2",793,"25.csv","","null","resources/images/coin2.png","null","",NA,NA,NA,NA,""
"image-keyboard-response",258,353296,"0.0-4.82-0.82","bk21mtrr1vro0o2",793,"25.csv","","801.3000000119209","resources/trios/L1T2A2.jpg","37","restless",0.2,0.7,0.1,0.303830894747867,"false"
"image-keyboard-response",259,353704,"0.0-4.82-1.82","bk21mtrr1vro0o2",793,"25.csv","","null","resources/maskTrios/L1BB.jpg","null","",NA,NA,NA,NA,""
"image-keyboard-response",260,354912,"0.0-4.82-2.82","bk21mtrr1vro0o2",793,"25.csv","","null","resources/images/fishbone.png","null","",NA,NA,NA,NA,""
"image-keyboard-response",261,355887,"0.0-4.83-0.83","bk21mtrr1vro0o2",793,"25.csv","","974.1999999880791","resources/trios/L1T2A2.jpg","39","restless",0.2,0.7,0.1,0.82126468654035,"false"
"image-keyboard-response",262,356293,"0.0-4.83-1.83","bk21mtrr1vro0o2",793,"25.csv","","null","resources/maskTrios/BBA2.jpg","null","",NA,NA,NA,NA,""
"image-keyboard-response",263,357501,"0.0-4.83-2.83","bk21mtrr1vro0o2",793,"25.csv","","null","resources/images/fishbone.png","null","",NA,NA,NA,NA,""
"image-keyboard-response",264,357714,"0.0-4.84-0.84","bk21mtrr1vro0o2",793,"25.csv","","212.09999999403954","resources/trios/L1T2A2.jpg","38","restless",0.2,0.7,0.1,0.200801730439347,"true"
"image-keyboard-response",265,358128,"0.0-4.84-1.84","bk21mtrr1vro0o2",793,"25.csv","","null","resources/maskTrios/BT2B.jpg","null","",NA,NA,NA,NA,""
"image-keyboard-response",266,359335,"0.0-4.84-2.84","bk21mtrr1vro0o2",793,"25.csv","","null","resources/images/coin2.png","null","",NA,NA,NA,NA,""
"image-keyboard-response",267,359654,"0.0-4.85-0.85","bk21mtrr1vro0o2",793,"25.csv","","317.90000000596046","resources/trios/L1T2A2.jpg","37","restless",0.2,0.7,0.1,0.827169932602201,"false"
"image-keyboard-response",268,360058,"0.0-4.85-1.85","bk21mtrr1vro0o2",793,"25.csv","","null","resources/maskTrios/L1BB.jpg","null","",NA,NA,NA,NA,""
"image-keyboard-response",269,361267,"0.0-4.85-2.85","bk21mtrr1vro0o2",793,"25.csv","","null","resources/images/fishbone.png","null","",NA,NA,NA,NA,""
"image-keyboard-response",270,361738,"0.0-4.86-0.86","bk21mtrr1vro0o2",793,"25.csv","","471","resources/trios/L1T2A2.jpg","39","restless",0.2,0.7,0.1,0.837449179568345,"false"
"image-keyboard-response",271,362151,"0.0-4.86-1.86","bk21mtrr1vro0o2",793,"25.csv","","null","resources/maskTrios/BBA2.jpg","null","",NA,NA,NA,NA,""
"image-keyboard-response",272,363353,"0.0-4.86-2.86","bk21mtrr1vro0o2",793,"25.csv","","null","resources/images/fishbone.png","null","",NA,NA,NA,NA,""
"image-keyboard-response",273,364798,"0.0-4.87-0.87","bk21mtrr1vro0o2",793,"25.csv","","1444.0999999940395","resources/trios/L1T2A2.jpg","38","restless",0.2,0.7,0.1,0.382489281554945,"true"
"image-keyboard-response",274,365203,"0.0-4.87-1.87","bk21mtrr1vro0o2",793,"25.csv","","null","resources/maskTrios/BT2B.jpg","null","",NA,NA,NA,NA,""
"image-keyboard-response",275,366411,"0.0-4.87-2.87","bk21mtrr1vro0o2",793,"25.csv","","null","resources/images/coin2.png","null","",NA,NA,NA,NA,""
"image-keyboard-response",276,366955,"0.0-4.88-0.88","bk21mtrr1vro0o2",793,"25.csv","","542.6999999880791","resources/trios/L1T2A2.jpg","37","restless",0.2,0.7,0.2,0.4151666379076,"false"
"image-keyboard-response",277,367367,"0.0-4.88-1.88","bk21mtrr1vro0o2",793,"25.csv","","null","resources/maskTrios/L1BB.jpg","null","",NA,NA,NA,NA,""
"image-keyboard-response",278,368576,"0.0-4.88-2.88","bk21mtrr1vro0o2",793,"25.csv","","null","resources/images/fishbone.png","null","",NA,NA,NA,NA,""
"image-keyboard-response",279,368857,"0.0-4.89-0.89","bk21mtrr1vro0o2",793,"25.csv","","279.89999997615814","resources/trios/L1T2A2.jpg","39","restless",0.2,0.7,0.2,0.663139749007585,"false"
"image-keyboard-response",280,369268,"0.0-4.89-1.89","bk21mtrr1vro0o2",793,"25.csv","","null","resources/maskTrios/BBA2.jpg","null","",NA,NA,NA,NA,""
"image-keyboard-response",281,370476,"0.0-4.89-2.89","bk21mtrr1vro0o2",793,"25.csv","","null","resources/images/fishbone.png","null","",NA,NA,NA,NA,""
"image-keyboard-response",282,370797,"0.0-4.90-0.90","bk21mtrr1vro0o2",793,"25.csv","","320.5","resources/trios/L1T2A2.jpg","38","restless",0.2,0.7,0.2,0.536954335556001,"true"
"image-keyboard-response",283,371212,"0.0-4.90-1.90","bk21mtrr1vro0o2",793,"25.csv","","null","resources/maskTrios/BT2B.jpg","null","",NA,NA,NA,NA,""
"image-keyboard-response",284,372419,"0.0-4.90-2.90","bk21mtrr1vro0o2",793,"25.csv","","null","resources/images/coin2.png","null","",NA,NA,NA,NA,""
"image-keyboard-response",285,372587,"0.0-4.91-0.91","bk21mtrr1vro0o2",793,"25.csv","","167.09999999403954","resources/trios/L1T2A2.jpg","38","restless",0.2,0.7,0.2,0.963072928654383,"false"
"image-keyboard-response",286,373002,"0.0-4.91-1.91","bk21mtrr1vro0o2",793,"25.csv","","null","resources/maskTrios/BT2B.jpg","null","",NA,NA,NA,NA,""
"image-keyboard-response",287,374210,"0.0-4.91-2.91","bk21mtrr1vro0o2",793,"25.csv","","null","resources/images/fishbone.png","null","",NA,NA,NA,NA,""
"image-keyboard-response",288,374421,"0.0-4.92-0.92","bk21mtrr1vro0o2",793,"25.csv","","210","resources/trios/L1T2A2.jpg","37","restless",0.2,0.7,0.2,0.985682418957277,"false"
"image-keyboard-response",289,374837,"0.0-4.92-1.92","bk21mtrr1vro0o2",793,"25.csv","","null","resources/maskTrios/L1BB.jpg","null","",NA,NA,NA,NA,""
"image-keyboard-response",290,376045,"0.0-4.92-2.92","bk21mtrr1vro0o2",793,"25.csv","","null","resources/images/fishbone.png","null","",NA,NA,NA,NA,""
"image-keyboard-response",291,376636,"0.0-4.93-0.93","bk21mtrr1vro0o2",793,"25.csv","","589.6999999880791","resources/trios/L1T2A2.jpg","37","restless",0.2,0.6,0.2,0.131412731162564,"true"
"image-keyboard-response",292,377049,"0.0-4.93-1.93","bk21mtrr1vro0o2",793,"25.csv","","null","resources/maskTrios/L1BB.jpg","null","",NA,NA,NA,NA,""
"image-keyboard-response",293,378258,"0.0-4.93-2.93","bk21mtrr1vro0o2",793,"25.csv","","null","resources/images/coin2.png","null","",NA,NA,NA,NA,""
"image-keyboard-response",294,378638,"0.0-4.94-0.94","bk21mtrr1vro0o2",793,"25.csv","","379.7999999821186","resources/trios/L1T2A2.jpg","38","restless",0.2,0.6,0.2,0.27774369592757,"true"
"image-keyboard-response",295,379044,"0.0-4.94-1.94","bk21mtrr1vro0o2",793,"25.csv","","null","resources/maskTrios/BT2B.jpg","null","",NA,NA,NA,NA,""
"image-keyboard-response",296,380251,"0.0-4.94-2.94","bk21mtrr1vro0o2",793,"25.csv","","null","resources/images/coin2.png","null","",NA,NA,NA,NA,""
"image-keyboard-response",297,380555,"0.0-4.95-0.95","bk21mtrr1vro0o2",793,"25.csv","","302.59999999403954","resources/trios/L1T2A2.jpg","39","restless",0.2,0.7,0.2,0.214060885927011,"false"
"image-keyboard-response",298,380958,"0.0-4.95-1.95","bk21mtrr1vro0o2",793,"25.csv","","null","resources/maskTrios/BBA2.jpg","null","",NA,NA,NA,NA,""
"image-keyboard-response",299,382163,"0.0-4.95-2.95","bk21mtrr1vro0o2",793,"25.csv","","null","resources/images/fishbone.png","null","",NA,NA,NA,NA,""
"image-keyboard-response",300,382421,"0.0-4.96-0.96","bk21mtrr1vro0o2",793,"25.csv","","256.69999998807907","resources/trios/L1T2A2.jpg","38","restless",0.2,0.7,0.2,0.196335819945494,"true"
"image-keyboard-response",301,382824,"0.0-4.96-1.96","bk21mtrr1vro0o2",793,"25.csv","","null","resources/maskTrios/BT2B.jpg","null","",NA,NA,NA,NA,""
"image-keyboard-response",302,384032,"0.0-4.96-2.96","bk21mtrr1vro0o2",793,"25.csv","","null","resources/images/coin2.png","null","",NA,NA,NA,NA,""
"image-keyboard-response",303,384340,"0.0-4.97-0.97","bk21mtrr1vro0o2",793,"25.csv","","307.2000000178814","resources/trios/L1T2A2.jpg","37","restless",0.2,0.7,0.2,0.0405268824163838,"true"
"image-keyboard-response",304,384755,"0.0-4.97-1.97","bk21mtrr1vro0o2",793,"25.csv","","null","resources/maskTrios/L1BB.jpg","null","",NA,NA,NA,NA,""
"image-keyboard-response",305,385962,"0.0-4.97-2.97","bk21mtrr1vro0o2",793,"25.csv","","null","resources/images/coin2.png","null","",NA,NA,NA,NA,""
"image-keyboard-response",306,386467,"0.0-4.98-0.98","bk21mtrr1vro0o2",793,"25.csv","","504.5","resources/trios/L1T2A2.jpg","37","restless",0.2,0.7,0.2,0.47059840043818,"false"
"image-keyboard-response",307,386872,"0.0-4.98-1.98","bk21mtrr1vro0o2",793,"25.csv","","null","resources/maskTrios/L1BB.jpg","null","",NA,NA,NA,NA,""
"image-keyboard-response",308,388077,"0.0-4.98-2.98","bk21mtrr1vro0o2",793,"25.csv","","null","resources/images/fishbone.png","null","",NA,NA,NA,NA,""
"image-keyboard-response",309,388445,"0.0-4.99-0.99","bk21mtrr1vro0o2",793,"25.csv","","367.40000000596046","resources/trios/L1T2A2.jpg","39","restless",0.2,0.7,0.2,0.129655277446362,"true"
"image-keyboard-response",310,388847,"0.0-4.99-1.99","bk21mtrr1vro0o2",793,"25.csv","","null","resources/maskTrios/BBA2.jpg","null","",NA,NA,NA,NA,""
"image-keyboard-response",311,390067,"0.0-4.99-2.99","bk21mtrr1vro0o2",793,"25.csv","","null","resources/images/coin2.png","null","",NA,NA,NA,NA,""
"image-keyboard-response",312,390849,"0.0-4.100-0.100","bk21mtrr1vro0o2",793,"25.csv","","781.8000000119209","resources/trios/L1T2A2.jpg","38","restless",0.2,0.7,0.2,0.219668356868346,"true"
"image-keyboard-response",313,391265,"0.0-4.100-1.100","bk21mtrr1vro0o2",793,"25.csv","","null","resources/maskTrios/BT2B.jpg","null","",NA,NA,NA,NA,""
"image-keyboard-response",314,392467,"0.0-4.100-2.100","bk21mtrr1vro0o2",793,"25.csv","","null","resources/images/coin2.png","null","",NA,NA,NA,NA,""
"image-keyboard-response",315,392943,"0.0-4.101-0.101","bk21mtrr1vro0o2",793,"25.csv","","474.7000000178814","resources/trios/L1T2A2.jpg","37","restless",0.2,0.7,0.2,0.607879486213154,"false"
"image-keyboard-response",316,393347,"0.0-4.101-1.101","bk21mtrr1vro0o2",793,"25.csv","","null","resources/maskTrios/L1BB.jpg","null","",NA,NA,NA,NA,""
"image-keyboard-response",317,394551,"0.0-4.101-2.101","bk21mtrr1vro0o2",793,"25.csv","","null","resources/images/fishbone.png","null","",NA,NA,NA,NA,""
"image-keyboard-response",318,395097,"0.0-4.102-0.102","bk21mtrr1vro0o2",793,"25.csv","","545.8000000119209","resources/trios/L1T2A2.jpg","38","restless",0.2,0.6,0.2,0.242739844920037,"true"
"image-keyboard-response",319,395512,"0.0-4.102-1.102","bk21mtrr1vro0o2",793,"25.csv","","null","resources/maskTrios/BT2B.jpg","null","",NA,NA,NA,NA,""
"image-keyboard-response",320,396718,"0.0-4.102-2.102","bk21mtrr1vro0o2",793,"25.csv","","null","resources/images/coin2.png","null","",NA,NA,NA,NA,""
"image-keyboard-response",321,397884,"0.0-4.103-0.103","bk21mtrr1vro0o2",793,"25.csv","","1164.7999999821186","resources/trios/L1T2A2.jpg","39","restless",0.2,0.6,0.2,0.817488333461627,"false"
"image-keyboard-response",322,398300,"0.0-4.103-1.103","bk21mtrr1vro0o2",793,"25.csv","","null","resources/maskTrios/BBA2.jpg","null","",NA,NA,NA,NA,""
"image-keyboard-response",323,399511,"0.0-4.103-2.103","bk21mtrr1vro0o2",793,"25.csv","","null","resources/images/fishbone.png","null","",NA,NA,NA,NA,""
"image-keyboard-response",324,403955,"0.0-4.104-0.104","bk21mtrr1vro0o2",793,"25.csv","","4442.9000000059605","resources/trios/L1T2A2.jpg","38","restless",0.2,0.6,0.2,0.614100210172322,"false"
"image-keyboard-response",325,404356,"0.0-4.104-1.104","bk21mtrr1vro0o2",793,"25.csv","","null","resources/maskTrios/BT2B.jpg","null","",NA,NA,NA,NA,""
"image-keyboard-response",326,405564,"0.0-4.104-2.104","bk21mtrr1vro0o2",793,"25.csv","","null","resources/images/fishbone.png","null","",NA,NA,NA,NA,""
"image-keyboard-response",327,407860,"0.0-4.105-0.105","bk21mtrr1vro0o2",793,"25.csv","","2294.800000011921","resources/trios/L1T2A2.jpg","37","restless",0.2,0.6,0.2,0.838354185106493,"false"
"image-keyboard-response",328,408276,"0.0-4.105-1.105","bk21mtrr1vro0o2",793,"25.csv","","null","resources/maskTrios/L1BB.jpg","null","",NA,NA,NA,NA,""
"image-keyboard-response",329,409484,"0.0-4.105-2.105","bk21mtrr1vro0o2",793,"25.csv","","null","resources/images/fishbone.png","null","",NA,NA,NA,NA,""
"image-keyboard-response",330,409978,"0.0-4.106-0.106","bk21mtrr1vro0o2",793,"25.csv","","493","resources/trios/L1T2A2.jpg","39","restless",0.2,0.6,0.2,0.766686602417023,"false"
"image-keyboard-response",331,410394,"0.0-4.106-1.106","bk21mtrr1vro0o2",793,"25.csv","","null","resources/maskTrios/BBA2.jpg","null","",NA,NA,NA,NA,""
"image-keyboard-response",332,411602,"0.0-4.106-2.106","bk21mtrr1vro0o2",793,"25.csv","","null","resources/images/fishbone.png","null","",NA,NA,NA,NA,""
"image-keyboard-response",333,411898,"0.0-4.107-0.107","bk21mtrr1vro0o2",793,"25.csv","","295.59999999403954","resources/trios/L1T2A2.jpg","38","restless",0.2,0.6,0.2,0.780217114817913,"false"
"image-keyboard-response",334,412309,"0.0-4.107-1.107","bk21mtrr1vro0o2",793,"25.csv","","null","resources/maskTrios/BT2B.jpg","null","",NA,NA,NA,NA,""
"image-keyboard-response",335,413517,"0.0-4.107-2.107","bk21mtrr1vro0o2",793,"25.csv","","null","resources/images/fishbone.png","null","",NA,NA,NA,NA,""
"image-keyboard-response",336,413871,"0.0-4.108-0.108","bk21mtrr1vro0o2",793,"25.csv","","353.40000000596046","resources/trios/L1T2A2.jpg","37","restless",0.2,0.6,0.2,0.85843610427402,"false"
"image-keyboard-response",337,414286,"0.0-4.108-1.108","bk21mtrr1vro0o2",793,"25.csv","","null","resources/maskTrios/L1BB.jpg","null","",NA,NA,NA,NA,""
"image-keyboard-response",338,415493,"0.0-4.108-2.108","bk21mtrr1vro0o2",793,"25.csv","","null","resources/images/fishbone.png","null","",NA,NA,NA,NA,""
"image-keyboard-response",339,415923,"0.0-4.109-0.109","bk21mtrr1vro0o2",793,"25.csv","","428.19999998807907","resources/trios/L1T2A2.jpg","38","restless",0.2,0.6,0.3,0.113343795684837,"true"
"image-keyboard-response",340,416324,"0.0-4.109-1.109","bk21mtrr1vro0o2",793,"25.csv","","null","resources/maskTrios/BT2B.jpg","null","",NA,NA,NA,NA,""
"image-keyboard-response",341,417531,"0.0-4.109-2.109","bk21mtrr1vro0o2",793,"25.csv","","null","resources/images/coin2.png","null","",NA,NA,NA,NA,""
"image-keyboard-response",342,418013,"0.0-4.110-0.110","bk21mtrr1vro0o2",793,"25.csv","","481.19999998807907","resources/trios/L1T2A2.jpg","39","restless",0.3,0.6,0.3,0.348249654180999,"false"
"image-keyboard-response",343,418426,"0.0-4.110-1.110","bk21mtrr1vro0o2",793,"25.csv","","null","resources/maskTrios/BBA2.jpg","null","",NA,NA,NA,NA,""
"image-keyboard-response",344,419633,"0.0-4.110-2.110","bk21mtrr1vro0o2",793,"25.csv","","null","resources/images/fishbone.png","null","",NA,NA,NA,NA,""
"image-keyboard-response",345,420025,"0.0-4.111-0.111","bk21mtrr1vro0o2",793,"25.csv","","390.69999998807907","resources/trios/L1T2A2.jpg","37","restless",0.3,0.7,0.3,0.476912687142074,"false"
"image-keyboard-response",346,420435,"0.0-4.111-1.111","bk21mtrr1vro0o2",793,"25.csv","","null","resources/maskTrios/L1BB.jpg","null","",NA,NA,NA,NA,""
"image-keyboard-response",347,421643,"0.0-4.111-2.111","bk21mtrr1vro0o2",793,"25.csv","","null","resources/images/fishbone.png","null","",NA,NA,NA,NA,""
"image-keyboard-response",348,422048,"0.0-4.112-0.112","bk21mtrr1vro0o2",793,"25.csv","","403.90000000596046","resources/trios/L1T2A2.jpg","38","restless",0.3,0.6,0.3,0.735160782148669,"false"
"image-keyboard-response",349,422450,"0.0-4.112-1.112","bk21mtrr1vro0o2",793,"25.csv","","null","resources/maskTrios/BT2B.jpg","null","",NA,NA,NA,NA,""
"image-keyboard-response",350,423667,"0.0-4.112-2.112","bk21mtrr1vro0o2",793,"25.csv","","null","resources/images/fishbone.png","null","",NA,NA,NA,NA,""
"image-keyboard-response",351,424167,"0.0-4.113-0.113","bk21mtrr1vro0o2",793,"25.csv","","499.40000000596046","resources/trios/L1T2A2.jpg","38","restless",0.3,0.6,0.3,0.867168075078726,"false"
"image-keyboard-response",352,424581,"0.0-4.113-1.113","bk21mtrr1vro0o2",793,"25.csv","","null","resources/maskTrios/BT2B.jpg","null","",NA,NA,NA,NA,""
"image-keyboard-response",353,425784,"0.0-4.113-2.113","bk21mtrr1vro0o2",793,"25.csv","","null","resources/images/fishbone.png","null","",NA,NA,NA,NA,""
"image-keyboard-response",354,426290,"0.0-4.114-0.114","bk21mtrr1vro0o2",793,"25.csv","","504.30000001192093","resources/trios/L1T2A2.jpg","39","restless",0.3,0.6,0.3,0.991938024426065,"false"
"image-keyboard-response",355,426698,"0.0-4.114-1.114","bk21mtrr1vro0o2",793,"25.csv","","null","resources/maskTrios/BBA2.jpg","null","",NA,NA,NA,NA,""
"image-keyboard-response",356,427902,"0.0-4.114-2.114","bk21mtrr1vro0o2",793,"25.csv","","null","resources/images/fishbone.png","null","",NA,NA,NA,NA,""
"image-keyboard-response",357,428296,"0.0-4.115-0.115","bk21mtrr1vro0o2",793,"25.csv","","392.90000000596046","resources/trios/L1T2A2.jpg","37","restless",0.3,0.6,0.3,0.965950507593205,"false"
"image-keyboard-response",358,428700,"0.0-4.115-1.115","bk21mtrr1vro0o2",793,"25.csv","","null","resources/maskTrios/L1BB.jpg","null","",NA,NA,NA,NA,""
"image-keyboard-response",359,429909,"0.0-4.115-2.115","bk21mtrr1vro0o2",793,"25.csv","","null","resources/images/fishbone.png","null","",NA,NA,NA,NA,""
"image-keyboard-response",360,430277,"0.0-4.116-0.116","bk21mtrr1vro0o2",793,"25.csv","","367.80000001192093","resources/trios/L1T2A2.jpg","38","restless",0.3,0.6,0.3,0.955358787189353,"false"
"image-keyboard-response",361,430694,"0.0-4.116-1.116","bk21mtrr1vro0o2",793,"25.csv","","null","resources/maskTrios/BT2B.jpg","null","",NA,NA,NA,NA,""
"image-keyboard-response",362,431901,"0.0-4.116-2.116","bk21mtrr1vro0o2",793,"25.csv","","null","resources/images/fishbone.png","null","",NA,NA,NA,NA,""
"image-keyboard-response",363,432376,"0.0-4.117-0.117","bk21mtrr1vro0o2",793,"25.csv","","474.2999999821186","resources/trios/L1T2A2.jpg","39","restless",0.3,0.6,0.3,0.135269989202812,"true"
"image-keyboard-response",364,432781,"0.0-4.117-1.117","bk21mtrr1vro0o2",793,"25.csv","","null","resources/maskTrios/BBA2.jpg","null","",NA,NA,NA,NA,""
"image-keyboard-response",365,433989,"0.0-4.117-2.117","bk21mtrr1vro0o2",793,"25.csv","","null","resources/images/coin2.png","null","",NA,NA,NA,NA,""
"image-keyboard-response",366,434956,"0.0-4.118-0.118","bk21mtrr1vro0o2",793,"25.csv","","965.7999999821186","resources/trios/L1T2A2.jpg","37","restless",0.3,0.6,0.4,0.496665312405216,"false"
"image-keyboard-response",367,435360,"0.0-4.118-1.118","bk21mtrr1vro0o2",793,"25.csv","","null","resources/maskTrios/L1BB.jpg","null","",NA,NA,NA,NA,""
"image-keyboard-response",368,436577,"0.0-4.118-2.118","bk21mtrr1vro0o2",793,"25.csv","","null","resources/images/fishbone.png","null","",NA,NA,NA,NA,""
"image-keyboard-response",369,436584,"0.0-4.119-0.119","bk21mtrr1vro0o2",793,"25.csv","","5.9000000059604645","resources/trios/L1T2A2.jpg","38","restless",0.4,0.6,0.4,0.845183214648071,"false"
"image-keyboard-response",370,436998,"0.0-4.119-1.119","bk21mtrr1vro0o2",793,"25.csv","","null","resources/maskTrios/BT2B.jpg","null","",NA,NA,NA,NA,""
"image-keyboard-response",371,438209,"0.0-4.119-2.119","bk21mtrr1vro0o2",793,"25.csv","","null","resources/images/fishbone.png","null","",NA,NA,NA,NA,""
"image-keyboard-response",372,438563,"0.0-4.120-0.120","bk21mtrr1vro0o2",793,"25.csv","","353.90000000596046","resources/trios/L1T2A2.jpg","39","restless",0.4,0.6,0.3,0.0860012108314172,"true"
"image-keyboard-response",373,438976,"0.0-4.120-1.120","bk21mtrr1vro0o2",793,"25.csv","","null","resources/maskTrios/BBA2.jpg","null","",NA,NA,NA,NA,""
"image-keyboard-response",374,440184,"0.0-4.120-2.120","bk21mtrr1vro0o2",793,"25.csv","","null","resources/images/coin2.png","null","",NA,NA,NA,NA,""
"image-keyboard-response",375,440463,"0.0-4.121-0.121","bk21mtrr1vro0o2",793,"25.csv","","278.59999999403954","resources/trios/L1T2A2.jpg","39","restless",0.4,0.5,0.3,0.0284390106880548,"true"
"image-keyboard-response",376,440875,"0.0-4.121-1.121","bk21mtrr1vro0o2",793,"25.csv","","null","resources/maskTrios/BBA2.jpg","null","",NA,NA,NA,NA,""
"image-keyboard-response",377,442083,"0.0-4.121-2.121","bk21mtrr1vro0o2",793,"25.csv","","null","resources/images/coin2.png","null","",NA,NA,NA,NA,""
"image-keyboard-response",378,442517,"0.0-4.122-0.122","bk21mtrr1vro0o2",793,"25.csv","","433.19999998807907","resources/trios/L1T2A2.jpg","37","restless",0.4,0.5,0.3,0.942210019942011,"false"
"image-keyboard-response",379,442928,"0.0-4.122-1.122","bk21mtrr1vro0o2",793,"25.csv","","null","resources/maskTrios/L1BB.jpg","null","",NA,NA,NA,NA,""
"image-keyboard-response",380,444138,"0.0-4.122-2.122","bk21mtrr1vro0o2",793,"25.csv","","null","resources/images/fishbone.png","null","",NA,NA,NA,NA,""
"image-keyboard-response",381,444397,"0.0-4.123-0.123","bk21mtrr1vro0o2",793,"25.csv","","257.90000000596046","resources/trios/L1T2A2.jpg","39","restless",0.4,0.5,0.2,0.797345129256081,"false"
"image-keyboard-response",382,444812,"0.0-4.123-1.123","bk21mtrr1vro0o2",793,"25.csv","","null","resources/maskTrios/BBA2.jpg","null","",NA,NA,NA,NA,""
"image-keyboard-response",383,446021,"0.0-4.123-2.123","bk21mtrr1vro0o2",793,"25.csv","","null","resources/images/fishbone.png","null","",NA,NA,NA,NA,""
"image-keyboard-response",384,446250,"0.0-4.124-0.124","bk21mtrr1vro0o2",793,"25.csv","","228.60000002384186","resources/trios/L1T2A2.jpg","39","restless",0.4,0.5,0.2,0.940879862148568,"false"
"image-keyboard-response",385,446655,"0.0-4.124-1.124","bk21mtrr1vro0o2",793,"25.csv","","null","resources/maskTrios/BBA2.jpg","null","",NA,NA,NA,NA,""
"image-keyboard-response",386,447857,"0.0-4.124-2.124","bk21mtrr1vro0o2",793,"25.csv","","null","resources/images/fishbone.png","null","",NA,NA,NA,NA,""
"image-keyboard-response",387,448281,"0.0-4.125-0.125","bk21mtrr1vro0o2",793,"25.csv","","423.59999999403954","resources/trios/L1T2A2.jpg","38","restless",0.4,0.5,0.2,0.365101379356895,"true"
"image-keyboard-response",388,448687,"0.0-4.125-1.125","bk21mtrr1vro0o2",793,"25.csv","","null","resources/maskTrios/BT2B.jpg","null","",NA,NA,NA,NA,""
"image-keyboard-response",389,449895,"0.0-4.125-2.125","bk21mtrr1vro0o2",793,"25.csv","","null","resources/images/coin2.png","null","",NA,NA,NA,NA,""
"image-keyboard-response",390,450303,"0.0-4.126-0.126","bk21mtrr1vro0o2",793,"25.csv","","416.60000002384186","resources/trios/L1T2A2.jpg","38","restless",0.4,0.5,0.2,0.927642657911347,"false"
"image-keyboard-response",391,450717,"0.0-4.126-1.126","bk21mtrr1vro0o2",793,"25.csv","","null","resources/maskTrios/BT2B.jpg","null","",NA,NA,NA,NA,""
"image-keyboard-response",392,451925,"0.0-4.126-2.126","bk21mtrr1vro0o2",793,"25.csv","","null","resources/images/fishbone.png","null","",NA,NA,NA,NA,""
"image-keyboard-response",393,452731,"0.0-4.127-0.127","bk21mtrr1vro0o2",793,"25.csv","","805.2999999821186","resources/trios/L1T2A2.jpg","39","restless",0.4,0.5,0.2,0.615673581552677,"false"
"image-keyboard-response",394,453147,"0.0-4.127-1.127","bk21mtrr1vro0o2",793,"25.csv","","null","resources/maskTrios/BBA2.jpg","null","",NA,NA,NA,NA,""
"image-keyboard-response",395,454358,"0.0-4.127-2.127","bk21mtrr1vro0o2",793,"25.csv","","null","resources/images/fishbone.png","null","",NA,NA,NA,NA,""
"image-keyboard-response",396,454711,"0.0-4.128-0.128","bk21mtrr1vro0o2",793,"25.csv","","352.40000000596046","resources/trios/L1T2A2.jpg","37","restless",0.4,0.6,0.2,0.613493453376186,"false"
"image-keyboard-response",397,455125,"0.0-4.128-1.128","bk21mtrr1vro0o2",793,"25.csv","","null","resources/maskTrios/L1BB.jpg","null","",NA,NA,NA,NA,""
"image-keyboard-response",398,456333,"0.0-4.128-2.128","bk21mtrr1vro0o2",793,"25.csv","","null","resources/images/fishbone.png","null","",NA,NA,NA,NA,""
"image-keyboard-response",399,457131,"0.0-4.129-0.129","bk21mtrr1vro0o2",793,"25.csv","","797.4000000059605","resources/trios/L1T2A2.jpg","37","restless",0.4,0.7,0.2,0.774746567852434,"false"
"image-keyboard-response",400,457542,"0.0-4.129-1.129","bk21mtrr1vro0o2",793,"25.csv","","null","resources/maskTrios/L1BB.jpg","null","",NA,NA,NA,NA,""
"image-keyboard-response",401,458750,"0.0-4.129-2.129","bk21mtrr1vro0o2",793,"25.csv","","null","resources/images/fishbone.png","null","",NA,NA,NA,NA,""
"image-keyboard-response",402,459368,"0.0-4.130-0.130","bk21mtrr1vro0o2",793,"25.csv","","617","resources/trios/L1T2A2.jpg","39","restless",0.4,0.8,0.2,0.312877513479066,"false"
"image-keyboard-response",403,459769,"0.0-4.130-1.130","bk21mtrr1vro0o2",793,"25.csv","","null","resources/maskTrios/BBA2.jpg","null","",NA,NA,NA,NA,""
"image-keyboard-response",404,460977,"0.0-4.130-2.130","bk21mtrr1vro0o2",793,"25.csv","","null","resources/images/fishbone.png","null","",NA,NA,NA,NA,""
"image-keyboard-response",405,461430,"0.0-4.131-0.131","bk21mtrr1vro0o2",793,"25.csv","","453","resources/trios/L1T2A2.jpg","37","restless",0.4,0.9,0.2,0.948450800785476,"false"
"image-keyboard-response",406,461841,"0.0-4.131-1.131","bk21mtrr1vro0o2",793,"25.csv","","null","resources/maskTrios/L1BB.jpg","null","",NA,NA,NA,NA,""
"image-keyboard-response",407,463049,"0.0-4.131-2.131","bk21mtrr1vro0o2",793,"25.csv","","null","resources/images/fishbone.png","null","",NA,NA,NA,NA,""
"image-keyboard-response",408,463311,"0.0-4.132-0.132","bk21mtrr1vro0o2",793,"25.csv","","261.40000000596046","resources/trios/L1T2A2.jpg","38","restless",0.4,0.9,0.2,0.409838521944024,"true"
"image-keyboard-response",409,463722,"0.0-4.132-1.132","bk21mtrr1vro0o2",793,"25.csv","","null","resources/maskTrios/BT2B.jpg","null","",NA,NA,NA,NA,""
"image-keyboard-response",410,464930,"0.0-4.132-2.132","bk21mtrr1vro0o2",793,"25.csv","","null","resources/images/coin2.png","null","",NA,NA,NA,NA,""
"image-keyboard-response",411,465330,"0.0-4.133-0.133","bk21mtrr1vro0o2",793,"25.csv","","398.90000000596046","resources/trios/L1T2A2.jpg","38","restless",0.4,0.8,0.2,0.498674615208861,"true"
"image-keyboard-response",412,465747,"0.0-4.133-1.133","bk21mtrr1vro0o2",793,"25.csv","","null","resources/maskTrios/BT2B.jpg","null","",NA,NA,NA,NA,""
"image-keyboard-response",413,466955,"0.0-4.133-2.133","bk21mtrr1vro0o2",793,"25.csv","","null","resources/images/coin2.png","null","",NA,NA,NA,NA,""
"image-keyboard-response",414,467321,"0.0-4.134-0.134","bk21mtrr1vro0o2",793,"25.csv","","365.30000001192093","resources/trios/L1T2A2.jpg","38","restless",0.4,0.8,0.2,0.650331779755754,"true"
"image-keyboard-response",415,467723,"0.0-4.134-1.134","bk21mtrr1vro0o2",793,"25.csv","","null","resources/maskTrios/BT2B.jpg","null","",NA,NA,NA,NA,""
"image-keyboard-response",416,468932,"0.0-4.134-2.134","bk21mtrr1vro0o2",793,"25.csv","","null","resources/images/coin2.png","null","",NA,NA,NA,NA,""
"image-keyboard-response",417,469219,"0.0-4.135-0.135","bk21mtrr1vro0o2",793,"25.csv","","285.90000000596046","resources/trios/L1T2A2.jpg","39","restless",0.5,0.8,0.3,0.348758493892794,"false"
"image-keyboard-response",418,469621,"0.0-4.135-1.135","bk21mtrr1vro0o2",793,"25.csv","","null","resources/maskTrios/BBA2.jpg","null","",NA,NA,NA,NA,""
"image-keyboard-response",419,470829,"0.0-4.135-2.135","bk21mtrr1vro0o2",793,"25.csv","","null","resources/images/fishbone.png","null","",NA,NA,NA,NA,""
"image-keyboard-response",420,471045,"0.0-4.136-0.136","bk21mtrr1vro0o2",793,"25.csv","","214.80000001192093","resources/trios/L1T2A2.jpg","37","restless",0.5,0.8,0.3,0.746808367628871,"false"
"image-keyboard-response",421,471456,"0.0-4.136-1.136","bk21mtrr1vro0o2",793,"25.csv","","null","resources/maskTrios/L1BB.jpg","null","",NA,NA,NA,NA,""
"image-keyboard-response",422,472666,"0.0-4.136-2.136","bk21mtrr1vro0o2",793,"25.csv","","null","resources/images/fishbone.png","null","",NA,NA,NA,NA,""
"image-keyboard-response",423,473095,"0.0-4.137-0.137","bk21mtrr1vro0o2",793,"25.csv","","428.09999999403954","resources/trios/L1T2A2.jpg","38","restless",0.5,0.8,0.4,0.796884095007001,"true"
"image-keyboard-response",424,473499,"0.0-4.137-1.137","bk21mtrr1vro0o2",793,"25.csv","","null","resources/maskTrios/BT2B.jpg","null","",NA,NA,NA,NA,""
"image-keyboard-response",425,474702,"0.0-4.137-2.137","bk21mtrr1vro0o2",793,"25.csv","","null","resources/images/coin2.png","null","",NA,NA,NA,NA,""
"image-keyboard-response",426,475720,"0.0-4.138-0.138","bk21mtrr1vro0o2",793,"25.csv","","1016.6000000238419","resources/trios/L1T2A2.jpg","38","restless",0.5,0.8,0.4,0.53449283281336,"true"
"image-keyboard-response",427,476132,"0.0-4.138-1.138","bk21mtrr1vro0o2",793,"25.csv","","null","resources/maskTrios/BT2B.jpg","null","",NA,NA,NA,NA,""
"image-keyboard-response",428,477340,"0.0-4.138-2.138","bk21mtrr1vro0o2",793,"25.csv","","null","resources/images/coin2.png","null","",NA,NA,NA,NA,""
"image-keyboard-response",429,477762,"0.0-4.139-0.139","bk21mtrr1vro0o2",793,"25.csv","","421.80000001192093","resources/trios/L1T2A2.jpg","39","restless",0.5,0.8,0.4,0.624339779812413,"false"
"image-keyboard-response",430,478172,"0.0-4.139-1.139","bk21mtrr1vro0o2",793,"25.csv","","null","resources/maskTrios/BBA2.jpg","null","",NA,NA,NA,NA,""
"image-keyboard-response",431,479379,"0.0-4.139-2.139","bk21mtrr1vro0o2",793,"25.csv","","null","resources/images/fishbone.png","null","",NA,NA,NA,NA,""
"image-keyboard-response",432,479695,"0.0-4.140-0.140","bk21mtrr1vro0o2",793,"25.csv","","315.40000000596046","resources/trios/L1T2A2.jpg","38","restless",0.5,0.8,0.4,0.71396133805403,"true"
"image-keyboard-response",433,480102,"0.0-4.140-1.140","bk21mtrr1vro0o2",793,"25.csv","","null","resources/maskTrios/BT2B.jpg","null","",NA,NA,NA,NA,""
"image-keyboard-response",434,481311,"0.0-4.140-2.140","bk21mtrr1vro0o2",793,"25.csv","","null","resources/images/coin2.png","null","",NA,NA,NA,NA,""
"image-keyboard-response",435,482451,"0.0-4.141-0.141","bk21mtrr1vro0o2",793,"25.csv","","1139.2999999821186","resources/trios/L1T2A2.jpg","37","restless",0.5,0.7,0.4,0.329167950171423,"true"
"image-keyboard-response",436,482864,"0.0-4.141-1.141","bk21mtrr1vro0o2",793,"25.csv","","null","resources/maskTrios/L1BB.jpg","null","",NA,NA,NA,NA,""
"image-keyboard-response",437,484071,"0.0-4.141-2.141","bk21mtrr1vro0o2",793,"25.csv","","null","resources/images/coin2.png","null","",NA,NA,NA,NA,""
"image-keyboard-response",438,485979,"0.0-4.142-0.142","bk21mtrr1vro0o2",793,"25.csv","","1906.4000000059605","resources/trios/L1T2A2.jpg","38","restless",0.5,0.7,0.4,0.705126928039114,"false"
"image-keyboard-response",439,486393,"0.0-4.142-1.142","bk21mtrr1vro0o2",793,"25.csv","","null","resources/maskTrios/BT2B.jpg","null","",NA,NA,NA,NA,""
"image-keyboard-response",440,487599,"0.0-4.142-2.142","bk21mtrr1vro0o2",793,"25.csv","","null","resources/images/fishbone.png","null","",NA,NA,NA,NA,""
"image-keyboard-response",441,488213,"0.0-4.143-0.143","bk21mtrr1vro0o2",793,"25.csv","","613.3000000119209","resources/trios/L1T2A2.jpg","39","restless",0.5,0.6,0.4,0.42567611345259,"false"
"image-keyboard-response",442,488625,"0.0-4.143-1.143","bk21mtrr1vro0o2",793,"25.csv","","null","resources/maskTrios/BBA2.jpg","null","",NA,NA,NA,NA,""
"image-keyboard-response",443,489827,"0.0-4.143-2.143","bk21mtrr1vro0o2",793,"25.csv","","null","resources/images/fishbone.png","null","",NA,NA,NA,NA,""
"image-keyboard-response",444,490624,"0.0-4.144-0.144","bk21mtrr1vro0o2",793,"25.csv","","796.1999999880791","resources/trios/L1T2A2.jpg","37","restless",0.5,0.6,0.4,0.633712459733073,"false"
"image-keyboard-response",445,491034,"0.0-4.144-1.144","bk21mtrr1vro0o2",793,"25.csv","","null","resources/maskTrios/L1BB.jpg","null","",NA,NA,NA,NA,""
"image-keyboard-response",446,492242,"0.0-4.144-2.144","bk21mtrr1vro0o2",793,"25.csv","","null","resources/images/fishbone.png","null","",NA,NA,NA,NA,""
"image-keyboard-response",447,492869,"0.0-4.145-0.145","bk21mtrr1vro0o2",793,"25.csv","","626","resources/trios/L1T2A2.jpg","38","restless",0.5,0.6,0.5,0.276903839721566,"true"
"image-keyboard-response",448,493278,"0.0-4.145-1.145","bk21mtrr1vro0o2",793,"25.csv","","null","resources/maskTrios/BT2B.jpg","null","",NA,NA,NA,NA,""
"image-keyboard-response",449,494485,"0.0-4.145-2.145","bk21mtrr1vro0o2",793,"25.csv","","null","resources/images/coin2.png","null","",NA,NA,NA,NA,""
"image-keyboard-response",450,494793,"0.0-4.146-0.146","bk21mtrr1vro0o2",793,"25.csv","","306.69999998807907","resources/trios/L1T2A2.jpg","39","restless",0.5,0.5,0.5,0.64305584702037,"false"
"image-keyboard-response",451,495208,"0.0-4.146-1.146","bk21mtrr1vro0o2",793,"25.csv","","null","resources/maskTrios/BBA2.jpg","null","",NA,NA,NA,NA,""
"image-keyboard-response",452,496416,"0.0-4.146-2.146","bk21mtrr1vro0o2",793,"25.csv","","null","resources/images/fishbone.png","null","",NA,NA,NA,NA,""
"image-keyboard-response",453,496828,"0.0-4.147-0.147","bk21mtrr1vro0o2",793,"25.csv","","411.09999999403954","resources/trios/L1T2A2.jpg","38","restless",0.5,0.5,0.5,0.766767005501971,"false"
"image-keyboard-response",454,497237,"0.0-4.147-1.147","bk21mtrr1vro0o2",793,"25.csv","","null","resources/maskTrios/BT2B.jpg","null","",NA,NA,NA,NA,""
"image-keyboard-response",455,498439,"0.0-4.147-2.147","bk21mtrr1vro0o2",793,"25.csv","","null","resources/images/fishbone.png","null","",NA,NA,NA,NA,""
"image-keyboard-response",456,498685,"0.0-4.148-0.148","bk21mtrr1vro0o2",793,"25.csv","","245.30000001192093","resources/trios/L1T2A2.jpg","37","restless",0.5,0.4,0.5,0.125396832069834,"true"
"image-keyboard-response",457,499097,"0.0-4.148-1.148","bk21mtrr1vro0o2",793,"25.csv","","null","resources/maskTrios/L1BB.jpg","null","",NA,NA,NA,NA,""
"image-keyboard-response",458,500304,"0.0-4.148-2.148","bk21mtrr1vro0o2",793,"25.csv","","null","resources/images/coin2.png","null","",NA,NA,NA,NA,""
"image-keyboard-response",459,500936,"0.0-4.149-0.149","bk21mtrr1vro0o2",793,"25.csv","","630.7999999821186","resources/trios/L1T2A2.jpg","37","restless",0.5,0.4,0.6,0.563437885112608,"false"
"image-keyboard-response",460,501340,"0.0-4.149-1.149","bk21mtrr1vro0o2",793,"25.csv","","null","resources/maskTrios/L1BB.jpg","null","",NA,NA,NA,NA,""
"image-keyboard-response",461,502548,"0.0-4.149-2.149","bk21mtrr1vro0o2",793,"25.csv","","null","resources/images/fishbone.png","null","",NA,NA,NA,NA,""
"image-keyboard-response",462,502918,"0.0-4.150-0.150","bk21mtrr1vro0o2",793,"25.csv","","368.80000001192093","resources/trios/L1T2A2.jpg","39","restless",0.5,0.4,0.6,0.676984932193416,"false"
"image-keyboard-response",463,503333,"0.0-4.150-1.150","bk21mtrr1vro0o2",793,"25.csv","","null","resources/maskTrios/BBA2.jpg","null","",NA,NA,NA,NA,""
"image-keyboard-response",464,504541,"0.0-4.150-2.150","bk21mtrr1vro0o2",793,"25.csv","","null","resources/images/fishbone.png","null","",NA,NA,NA,NA,""
"image-keyboard-response",465,504902,"0.0-4.151-0.151","bk21mtrr1vro0o2",793,"25.csv","","360.59999999403954","resources/trios/L1T2A2.jpg","38","restless",0.5,0.4,0.6,0.450349002619649,"false"
"image-keyboard-response",466,505316,"0.0-4.151-1.151","bk21mtrr1vro0o2",793,"25.csv","","null","resources/maskTrios/BT2B.jpg","null","",NA,NA,NA,NA,""
"image-keyboard-response",467,506518,"0.0-4.151-2.151","bk21mtrr1vro0o2",793,"25.csv","","null","resources/images/fishbone.png","null","",NA,NA,NA,NA,""
"image-keyboard-response",468,506746,"0.0-4.152-0.152","bk21mtrr1vro0o2",793,"25.csv","","227.7999999821186","resources/trios/L1T2A2.jpg","39","restless",0.5,0.4,0.6,0.530922365289709,"true"
"image-keyboard-response",469,507160,"0.0-4.152-1.152","bk21mtrr1vro0o2",793,"25.csv","","null","resources/maskTrios/BBA2.jpg","null","",NA,NA,NA,NA,""
"image-keyboard-response",470,508368,"0.0-4.152-2.152","bk21mtrr1vro0o2",793,"25.csv","","null","resources/images/coin2.png","null","",NA,NA,NA,NA,""
"image-keyboard-response",471,508847,"0.0-4.153-0.153","bk21mtrr1vro0o2",793,"25.csv","","478.30000001192093","resources/trios/L1T2A2.jpg","39","restless",0.5,0.4,0.6,0.643203926852744,"false"
"image-keyboard-response",472,509263,"0.0-4.153-1.153","bk21mtrr1vro0o2",793,"25.csv","","null","resources/maskTrios/BBA2.jpg","null","",NA,NA,NA,NA,""
"image-keyboard-response",473,510481,"0.0-4.153-2.153","bk21mtrr1vro0o2",793,"25.csv","","null","resources/images/fishbone.png","null","",NA,NA,NA,NA,""
"image-keyboard-response",474,510972,"0.0-4.154-0.154","bk21mtrr1vro0o2",793,"25.csv","","491","resources/trios/L1T2A2.jpg","38","restless",0.5,0.4,0.6,0.425691274598758,"false"
"image-keyboard-response",475,511376,"0.0-4.154-1.154","bk21mtrr1vro0o2",793,"25.csv","","null","resources/maskTrios/BT2B.jpg","null","",NA,NA,NA,NA,""
"image-keyboard-response",476,512584,"0.0-4.154-2.154","bk21mtrr1vro0o2",793,"25.csv","","null","resources/images/fishbone.png","null","",NA,NA,NA,NA,""
"image-keyboard-response",477,512959,"0.0-4.155-0.155","bk21mtrr1vro0o2",793,"25.csv","","374.7999999821186","resources/trios/L1T2A2.jpg","38","restless",0.5,0.4,0.5,0.468721110627164,"false"
"image-keyboard-response",478,513372,"0.0-4.155-1.155","bk21mtrr1vro0o2",793,"25.csv","","null","resources/maskTrios/BT2B.jpg","null","",NA,NA,NA,NA,""
"image-keyboard-response",479,514576,"0.0-4.155-2.155","bk21mtrr1vro0o2",793,"25.csv","","null","resources/images/fishbone.png","null","",NA,NA,NA,NA,""
"image-keyboard-response",480,514832,"0.0-4.156-0.156","bk21mtrr1vro0o2",793,"25.csv","","255.90000000596046","resources/trios/L1T2A2.jpg","39","restless",0.5,0.4,0.5,0.397860183523841,"true"
"image-keyboard-response",481,515234,"0.0-4.156-1.156","bk21mtrr1vro0o2",793,"25.csv","","null","resources/maskTrios/BBA2.jpg","null","",NA,NA,NA,NA,""
"image-keyboard-response",482,516441,"0.0-4.156-2.156","bk21mtrr1vro0o2",793,"25.csv","","null","resources/images/coin2.png","null","",NA,NA,NA,NA,""
"image-keyboard-response",483,516951,"0.0-4.157-0.157","bk21mtrr1vro0o2",793,"25.csv","","508.80000001192093","resources/trios/L1T2A2.jpg","37","restless",0.5,0.4,0.5,0.589217423125652,"false"
"image-keyboard-response",484,517367,"0.0-4.157-1.157","bk21mtrr1vro0o2",793,"25.csv","","null","resources/maskTrios/L1BB.jpg","null","",NA,NA,NA,NA,""
"image-keyboard-response",485,518575,"0.0-4.157-2.157","bk21mtrr1vro0o2",793,"25.csv","","null","resources/images/fishbone.png","null","",NA,NA,NA,NA,""
"image-keyboard-response",486,519117,"0.0-4.158-0.158","bk21mtrr1vro0o2",793,"25.csv","","541.3000000119209","resources/trios/L1T2A2.jpg","39","restless",0.5,0.4,0.5,0.966531047460368,"false"
"image-keyboard-response",487,519532,"0.0-4.158-1.158","bk21mtrr1vro0o2",793,"25.csv","","null","resources/maskTrios/BBA2.jpg","null","",NA,NA,NA,NA,""
"image-keyboard-response",488,520739,"0.0-4.158-2.158","bk21mtrr1vro0o2",793,"25.csv","","null","resources/images/fishbone.png","null","",NA,NA,NA,NA,""
"image-keyboard-response",489,521120,"0.0-4.159-0.159","bk21mtrr1vro0o2",793,"25.csv","","379.5","resources/trios/L1T2A2.jpg","38","restless",0.5,0.4,0.5,0.774401891763387,"false"
"image-keyboard-response",490,521524,"0.0-4.159-1.159","bk21mtrr1vro0o2",793,"25.csv","","null","resources/maskTrios/BT2B.jpg","null","",NA,NA,NA,NA,""
"image-keyboard-response",491,522733,"0.0-4.159-2.159","bk21mtrr1vro0o2",793,"25.csv","","null","resources/images/fishbone.png","null","",NA,NA,NA,NA,""
"image-keyboard-response",492,523219,"0.0-4.160-0.160","bk21mtrr1vro0o2",793,"25.csv","","485","resources/trios/L1T2A2.jpg","37","restless",0.5,0.4,0.5,0.765588519002342,"false"
"image-keyboard-response",493,523633,"0.0-4.160-1.160","bk21mtrr1vro0o2",793,"25.csv","","null","resources/maskTrios/L1BB.jpg","null","",NA,NA,NA,NA,""
"image-keyboard-response",494,524835,"0.0-4.160-2.160","bk21mtrr1vro0o2",793,"25.csv","","null","resources/images/fishbone.png","null","",NA,NA,NA,NA,""
"image-keyboard-response",495,525272,"0.0-4.161-0.161","bk21mtrr1vro0o2",793,"25.csv","","435.90000000596046","resources/trios/L1T2A2.jpg","38","restless",0.5,0.4,0.5,0.426576624448335,"false"
"image-keyboard-response",496,525684,"0.0-4.161-1.161","bk21mtrr1vro0o2",793,"25.csv","","null","resources/maskTrios/BT2B.jpg","null","",NA,NA,NA,NA,""
"image-keyboard-response",497,526888,"0.0-4.161-2.161","bk21mtrr1vro0o2",793,"25.csv","","null","resources/images/fishbone.png","null","",NA,NA,NA,NA,""
"image-keyboard-response",498,527446,"0.0-4.162-0.162","bk21mtrr1vro0o2",793,"25.csv","","556.9000000059605","resources/trios/L1T2A2.jpg","39","restless",0.5,0.4,0.5,0.322510216360694,"true"
"image-keyboard-response",499,527848,"0.0-4.162-1.162","bk21mtrr1vro0o2",793,"25.csv","","null","resources/maskTrios/BBA2.jpg","null","",NA,NA,NA,NA,""
"image-keyboard-response",500,529052,"0.0-4.162-2.162","bk21mtrr1vro0o2",793,"25.csv","","null","resources/images/coin2.png","null","",NA,NA,NA,NA,""
"image-keyboard-response",501,540522,"0.0-4.163-0.163","bk21mtrr1vro0o2",793,"25.csv","","11469.700000017881","resources/trios/L1T2A2.jpg","37","restless",0.5,0.4,0.5,0.749132090750502,"false"
"image-keyboard-response",502,540924,"0.0-4.163-1.163","bk21mtrr1vro0o2",793,"25.csv","","null","resources/maskTrios/L1BB.jpg","null","",NA,NA,NA,NA,""
"image-keyboard-response",503,542132,"0.0-4.163-2.163","bk21mtrr1vro0o2",793,"25.csv","","null","resources/images/fishbone.png","null","",NA,NA,NA,NA,""
"image-keyboard-response",504,542415,"0.0-4.164-0.164","bk21mtrr1vro0o2",793,"25.csv","","281.90000000596046","resources/trios/L1T2A2.jpg","38","restless",0.6,0.4,0.5,0.812306888742313,"false"
"image-keyboard-response",505,542824,"0.0-4.164-1.164","bk21mtrr1vro0o2",793,"25.csv","","null","resources/maskTrios/BT2B.jpg","null","",NA,NA,NA,NA,""
"image-keyboard-response",506,544028,"0.0-4.164-2.164","bk21mtrr1vro0o2",793,"25.csv","","null","resources/images/fishbone.png","null","",NA,NA,NA,NA,""
"image-keyboard-response",507,544653,"0.0-4.165-0.165","bk21mtrr1vro0o2",793,"25.csv","","624.5","resources/trios/L1T2A2.jpg","37","restless",0.6,0.4,0.5,0.350331241707726,"true"
"image-keyboard-response",508,545057,"0.0-4.165-1.165","bk21mtrr1vro0o2",793,"25.csv","","null","resources/maskTrios/L1BB.jpg","null","",NA,NA,NA,NA,""
"image-keyboard-response",509,546258,"0.0-4.165-2.165","bk21mtrr1vro0o2",793,"25.csv","","null","resources/images/coin2.png","null","",NA,NA,NA,NA,""
"image-keyboard-response",510,546731,"0.0-4.166-0.166","bk21mtrr1vro0o2",793,"25.csv","","472.19999998807907","resources/trios/L1T2A2.jpg","39","restless",0.6,0.4,0.5,0.160204044497953,"true"
"image-keyboard-response",511,547139,"0.0-4.166-1.166","bk21mtrr1vro0o2",793,"25.csv","","null","resources/maskTrios/BBA2.jpg","null","",NA,NA,NA,NA,""
"image-keyboard-response",512,548344,"0.0-4.166-2.166","bk21mtrr1vro0o2",793,"25.csv","","null","resources/images/coin2.png","null","",NA,NA,NA,NA,""
"image-keyboard-response",513,548548,"0.0-4.167-0.167","bk21mtrr1vro0o2",793,"25.csv","","203.09999999403954","resources/trios/L1T2A2.jpg","38","restless",0.6,0.4,0.5,0.350580499493904,"true"
"image-keyboard-response",514,548956,"0.0-4.167-1.167","bk21mtrr1vro0o2",793,"25.csv","","null","resources/maskTrios/BT2B.jpg","null","",NA,NA,NA,NA,""
"image-keyboard-response",515,550163,"0.0-4.167-2.167","bk21mtrr1vro0o2",793,"25.csv","","null","resources/images/coin2.png","null","",NA,NA,NA,NA,""
"image-keyboard-response",516,550424,"0.0-4.168-0.168","bk21mtrr1vro0o2",793,"25.csv","","259.30000001192093","resources/trios/L1T2A2.jpg","37","restless",0.6,0.4,0.5,0.523330824013731,"true"
"image-keyboard-response",517,550836,"0.0-4.168-1.168","bk21mtrr1vro0o2",793,"25.csv","","null","resources/maskTrios/L1BB.jpg","null","",NA,NA,NA,NA,""
"image-keyboard-response",518,552043,"0.0-4.168-2.168","bk21mtrr1vro0o2",793,"25.csv","","null","resources/images/coin2.png","null","",NA,NA,NA,NA,""
"image-keyboard-response",519,552425,"0.0-4.169-0.169","bk21mtrr1vro0o2",793,"25.csv","","380.5","resources/trios/L1T2A2.jpg","39","restless",0.6,0.4,0.5,0.978496894901666,"false"
"image-keyboard-response",520,552829,"0.0-4.169-1.169","bk21mtrr1vro0o2",793,"25.csv","","null","resources/maskTrios/BBA2.jpg","null","",NA,NA,NA,NA,""
"image-keyboard-response",521,554037,"0.0-4.169-2.169","bk21mtrr1vro0o2",793,"25.csv","","null","resources/images/fishbone.png","null","",NA,NA,NA,NA,""
"image-keyboard-response",522,554088,"0.0-4.170-0.170","bk21mtrr1vro0o2",793,"25.csv","","50.599999994039536","resources/trios/L1T2A2.jpg","38","restless",0.6,0.4,0.4,0.709172815120038,"false"
"image-keyboard-response",523,554491,"0.0-4.170-1.170","bk21mtrr1vro0o2",793,"25.csv","","null","resources/maskTrios/BT2B.jpg","null","",NA,NA,NA,NA,""
"image-keyboard-response",524,555700,"0.0-4.170-2.170","bk21mtrr1vro0o2",793,"25.csv","","null","resources/images/fishbone.png","null","",NA,NA,NA,NA,""
"image-keyboard-response",525,556273,"0.0-4.171-0.171","bk21mtrr1vro0o2",793,"25.csv","","571.5","resources/trios/L1T2A2.jpg","39","restless",0.6,0.4,0.4,0.392132773069202,"true"
"image-keyboard-response",526,556674,"0.0-4.171-1.171","bk21mtrr1vro0o2",793,"25.csv","","null","resources/maskTrios/BBA2.jpg","null","",NA,NA,NA,NA,""
"image-keyboard-response",527,557882,"0.0-4.171-2.171","bk21mtrr1vro0o2",793,"25.csv","","null","resources/images/coin2.png","null","",NA,NA,NA,NA,""
"image-keyboard-response",528,558111,"0.0-4.172-0.172","bk21mtrr1vro0o2",793,"25.csv","","229.09999999403954","resources/trios/L1T2A2.jpg","38","restless",0.6,0.4,0.4,0.867411227000659,"false"
"image-keyboard-response",529,558518,"0.0-4.172-1.172","bk21mtrr1vro0o2",793,"25.csv","","null","resources/maskTrios/BT2B.jpg","null","",NA,NA,NA,NA,""
"image-keyboard-response",530,559734,"0.0-4.172-2.172","bk21mtrr1vro0o2",793,"25.csv","","null","resources/images/fishbone.png","null","",NA,NA,NA,NA,""
"image-keyboard-response",531,560039,"0.0-4.173-0.173","bk21mtrr1vro0o2",793,"25.csv","","304.2999999821186","resources/trios/L1T2A2.jpg","37","restless",0.6,0.3,0.4,0.435390873188485,"true"
"image-keyboard-response",532,560440,"0.0-4.173-1.173","bk21mtrr1vro0o2",793,"25.csv","","null","resources/maskTrios/L1BB.jpg","null","",NA,NA,NA,NA,""
"image-keyboard-response",533,561646,"0.0-4.173-2.173","bk21mtrr1vro0o2",793,"25.csv","","null","resources/images/coin2.png","null","",NA,NA,NA,NA,""
"image-keyboard-response",534,561936,"0.0-4.174-0.174","bk21mtrr1vro0o2",793,"25.csv","","288.59999999403954","resources/trios/L1T2A2.jpg","39","restless",0.6,0.3,0.4,0.407508311433276,"false"
"image-keyboard-response",535,562353,"0.0-4.174-1.174","bk21mtrr1vro0o2",793,"25.csv","","null","resources/maskTrios/BBA2.jpg","null","",NA,NA,NA,NA,""
"image-keyboard-response",536,563562,"0.0-4.174-2.174","bk21mtrr1vro0o2",793,"25.csv","","null","resources/images/fishbone.png","null","",NA,NA,NA,NA,""
"image-keyboard-response",537,563585,"0.0-4.175-0.175","bk21mtrr1vro0o2",793,"25.csv","","22.5","resources/trios/L1T2A2.jpg","38","restless",0.7,0.2,0.4,0.115604762159711,"true"
"image-keyboard-response",538,564001,"0.0-4.175-1.175","bk21mtrr1vro0o2",793,"25.csv","","null","resources/maskTrios/BT2B.jpg","null","",NA,NA,NA,NA,""
"image-keyboard-response",539,565209,"0.0-4.175-2.175","bk21mtrr1vro0o2",793,"25.csv","","null","resources/images/coin2.png","null","",NA,NA,NA,NA,""
"image-keyboard-response",540,565879,"0.0-4.176-0.176","bk21mtrr1vro0o2",793,"25.csv","","668.8000000119209","resources/trios/L1T2A2.jpg","37","restless",0.7,0.2,0.4,0.785381248674537,"false"
"image-keyboard-response",541,566291,"0.0-4.176-1.176","bk21mtrr1vro0o2",793,"25.csv","","null","resources/maskTrios/L1BB.jpg","null","",NA,NA,NA,NA,""
"image-keyboard-response",542,567499,"0.0-4.176-2.176","bk21mtrr1vro0o2",793,"25.csv","","null","resources/images/fishbone.png","null","",NA,NA,NA,NA,""
"image-keyboard-response",543,567793,"0.0-4.177-0.177","bk21mtrr1vro0o2",793,"25.csv","","293.39999997615814","resources/trios/L1T2A2.jpg","38","restless",0.7,0.2,0.4,0.449439856916793,"false"
"image-keyboard-response",544,568196,"0.0-4.177-1.177","bk21mtrr1vro0o2",793,"25.csv","","null","resources/maskTrios/BT2B.jpg","null","",NA,NA,NA,NA,""
"image-keyboard-response",545,569398,"0.0-4.177-2.177","bk21mtrr1vro0o2",793,"25.csv","","null","resources/images/fishbone.png","null","",NA,NA,NA,NA,""
"image-keyboard-response",546,569600,"0.0-4.178-0.178","bk21mtrr1vro0o2",793,"25.csv","","201.7999999821186","resources/trios/L1T2A2.jpg","37","restless",0.6,0.2,0.4,0.470239717910431,"true"
"image-keyboard-response",547,570009,"0.0-4.178-1.178","bk21mtrr1vro0o2",793,"25.csv","","null","resources/maskTrios/L1BB.jpg","null","",NA,NA,NA,NA,""
"image-keyboard-response",548,571217,"0.0-4.178-2.178","bk21mtrr1vro0o2",793,"25.csv","","null","resources/images/coin2.png","null","",NA,NA,NA,NA,""
"image-keyboard-response",549,571469,"0.0-4.179-0.179","bk21mtrr1vro0o2",793,"25.csv","","251.09999999403954","resources/trios/L1T2A2.jpg","39","restless",0.6,0.2,0.4,0.0850864163631755,"true"
"image-keyboard-response",550,571877,"0.0-4.179-1.179","bk21mtrr1vro0o2",793,"25.csv","","null","resources/maskTrios/BBA2.jpg","null","",NA,NA,NA,NA,""
"image-keyboard-response",551,573082,"0.0-4.179-2.179","bk21mtrr1vro0o2",793,"25.csv","","null","resources/images/coin2.png","null","",NA,NA,NA,NA,""
"image-keyboard-response",552,573430,"0.0-4.180-0.180","bk21mtrr1vro0o2",793,"25.csv","","347.5","resources/trios/L1T2A2.jpg","38","restless",0.5,0.2,0.4,0.523944893123089,"false"
"image-keyboard-response",553,573836,"0.0-4.180-1.180","bk21mtrr1vro0o2",793,"25.csv","","null","resources/maskTrios/BT2B.jpg","null","",NA,NA,NA,NA,""
"image-keyboard-response",554,575044,"0.0-4.180-2.180","bk21mtrr1vro0o2",793,"25.csv","","null","resources/images/fishbone.png","null","",NA,NA,NA,NA,""
"image-keyboard-response",555,575192,"0.0-4.181-0.181","bk21mtrr1vro0o2",793,"25.csv","","146.80000001192093","resources/trios/L1T2A2.jpg","37","restless",0.5,0.2,0.4,0.526885259908113,"false"
"image-keyboard-response",556,575608,"0.0-4.181-1.181","bk21mtrr1vro0o2",793,"25.csv","","null","resources/maskTrios/L1BB.jpg","null","",NA,NA,NA,NA,""
"image-keyboard-response",557,576816,"0.0-4.181-2.181","bk21mtrr1vro0o2",793,"25.csv","","null","resources/images/fishbone.png","null","",NA,NA,NA,NA,""
"image-keyboard-response",558,576955,"0.0-4.182-0.182","bk21mtrr1vro0o2",793,"25.csv","","138.09999999403954","resources/trios/L1T2A2.jpg","39","restless",0.5,0.3,0.4,0.617459023675197,"false"
"image-keyboard-response",559,577358,"0.0-4.182-1.182","bk21mtrr1vro0o2",793,"25.csv","","null","resources/maskTrios/BBA2.jpg","null","",NA,NA,NA,NA,""
"image-keyboard-response",560,578575,"0.0-4.182-2.182","bk21mtrr1vro0o2",793,"25.csv","","null","resources/images/fishbone.png","null","",NA,NA,NA,NA,""
"image-keyboard-response",561,578882,"0.0-4.183-0.183","bk21mtrr1vro0o2",793,"25.csv","","306.5","resources/trios/L1T2A2.jpg","38","restless",0.5,0.3,0.4,0.0714487584221433,"true"
"image-keyboard-response",562,579295,"0.0-4.183-1.183","bk21mtrr1vro0o2",793,"25.csv","","null","resources/maskTrios/BT2B.jpg","null","",NA,NA,NA,NA,""
"image-keyboard-response",563,580503,"0.0-4.183-2.183","bk21mtrr1vro0o2",793,"25.csv","","null","resources/images/coin2.png","null","",NA,NA,NA,NA,""
"image-keyboard-response",564,580727,"0.0-4.184-0.184","bk21mtrr1vro0o2",793,"25.csv","","223.19999998807907","resources/trios/L1T2A2.jpg","37","restless",0.5,0.3,0.4,0.785903547873068,"false"
"image-keyboard-response",565,581129,"0.0-4.184-1.184","bk21mtrr1vro0o2",793,"25.csv","","null","resources/maskTrios/L1BB.jpg","null","",NA,NA,NA,NA,""
"image-keyboard-response",566,582338,"0.0-4.184-2.184","bk21mtrr1vro0o2",793,"25.csv","","null","resources/images/fishbone.png","null","",NA,NA,NA,NA,""
"image-keyboard-response",567,582561,"0.0-4.185-0.185","bk21mtrr1vro0o2",793,"25.csv","","221.59999999403954","resources/trios/L1T2A2.jpg","38","restless",0.5,0.3,0.4,0.108833695381099,"true"
"image-keyboard-response",568,582965,"0.0-4.185-1.185","bk21mtrr1vro0o2",793,"25.csv","","null","resources/maskTrios/BT2B.jpg","null","",NA,NA,NA,NA,""
"image-keyboard-response",569,584173,"0.0-4.185-2.185","bk21mtrr1vro0o2",793,"25.csv","","null","resources/images/coin2.png","null","",NA,NA,NA,NA,""
"image-keyboard-response",570,584297,"0.0-4.186-0.186","bk21mtrr1vro0o2",793,"25.csv","","122.80000001192093","resources/trios/L1T2A2.jpg","38","restless",0.5,0.3,0.4,0.195231748512148,"true"
"image-keyboard-response",571,584706,"0.0-4.186-1.186","bk21mtrr1vro0o2",793,"25.csv","","null","resources/maskTrios/BT2B.jpg","null","",NA,NA,NA,NA,""
"image-keyboard-response",572,585914,"0.0-4.186-2.186","bk21mtrr1vro0o2",793,"25.csv","","null","resources/images/coin2.png","null","",NA,NA,NA,NA,""
"image-keyboard-response",573,586086,"0.0-4.187-0.187","bk21mtrr1vro0o2",793,"25.csv","","171.5","resources/trios/L1T2A2.jpg","38","restless",0.5,0.3,0.4,0.89333237849603,"false"
"image-keyboard-response",574,586493,"0.0-4.187-1.187","bk21mtrr1vro0o2",793,"25.csv","","null","resources/maskTrios/BT2B.jpg","null","",NA,NA,NA,NA,""
"image-keyboard-response",575,587703,"0.0-4.187-2.187","bk21mtrr1vro0o2",793,"25.csv","","null","resources/images/fishbone.png","null","",NA,NA,NA,NA,""
"image-keyboard-response",576,587849,"0.0-4.188-0.188","bk21mtrr1vro0o2",793,"25.csv","","145.09999999403954","resources/trios/L1T2A2.jpg","39","restless",0.5,0.3,0.4,0.756130776081978,"false"
"image-keyboard-response",577,588253,"0.0-4.188-1.188","bk21mtrr1vro0o2",793,"25.csv","","null","resources/maskTrios/BBA2.jpg","null","",NA,NA,NA,NA,""
"image-keyboard-response",578,589461,"0.0-4.188-2.188","bk21mtrr1vro0o2",793,"25.csv","","null","resources/images/fishbone.png","null","",NA,NA,NA,NA,""
"image-keyboard-response",579,589480,"0.0-4.189-0.189","bk21mtrr1vro0o2",793,"25.csv","","18.599999994039536","resources/trios/L1T2A2.jpg","38","restless",0.5,0.3,0.4,0.540733262279639,"false"
"image-keyboard-response",580,589885,"0.0-4.189-1.189","bk21mtrr1vro0o2",793,"25.csv","","null","resources/maskTrios/BT2B.jpg","null","",NA,NA,NA,NA,""
"image-keyboard-response",581,591092,"0.0-4.189-2.189","bk21mtrr1vro0o2",793,"25.csv","","null","resources/images/fishbone.png","null","",NA,NA,NA,NA,""
"image-keyboard-response",582,591231,"0.0-4.190-0.190","bk21mtrr1vro0o2",793,"25.csv","","137.40000000596046","resources/trios/L1T2A2.jpg","39","restless",0.5,0.2,0.4,0.783477602508318,"false"
"image-keyboard-response",583,591641,"0.0-4.190-1.190","bk21mtrr1vro0o2",793,"25.csv","","null","resources/maskTrios/BBA2.jpg","null","",NA,NA,NA,NA,""
"image-keyboard-response",584,592849,"0.0-4.190-2.190","bk21mtrr1vro0o2",793,"25.csv","","null","resources/images/fishbone.png","null","",NA,NA,NA,NA,""
"image-keyboard-response",585,592925,"0.0-4.191-0.191","bk21mtrr1vro0o2",793,"25.csv","","74.90000000596046","resources/trios/L1T2A2.jpg","37","restless",0.5,0.2,0.4,0.0652915080091538,"true"
"image-keyboard-response",586,593335,"0.0-4.191-1.191","bk21mtrr1vro0o2",793,"25.csv","","null","resources/maskTrios/L1BB.jpg","null","",NA,NA,NA,NA,""
"image-keyboard-response",587,594543,"0.0-4.191-2.191","bk21mtrr1vro0o2",793,"25.csv","","null","resources/images/coin2.png","null","",NA,NA,NA,NA,""
"image-keyboard-response",588,594778,"0.0-4.192-0.192","bk21mtrr1vro0o2",793,"25.csv","","234.2999999821186","resources/trios/L1T2A2.jpg","37","restless",0.5,0.2,0.4,0.930853484944944,"false"
"image-keyboard-response",589,595187,"0.0-4.192-1.192","bk21mtrr1vro0o2",793,"25.csv","","null","resources/maskTrios/L1BB.jpg","null","",NA,NA,NA,NA,""
"image-keyboard-response",590,596395,"0.0-4.192-2.192","bk21mtrr1vro0o2",793,"25.csv","","null","resources/images/fishbone.png","null","",NA,NA,NA,NA,""
"image-keyboard-response",591,596400,"0.0-4.193-0.193","bk21mtrr1vro0o2",793,"25.csv","","4.200000017881393","resources/trios/L1T2A2.jpg","39","restless",0.5,0.2,0.4,0.190831056500381,"true"
"image-keyboard-response",592,596803,"0.0-4.193-1.193","bk21mtrr1vro0o2",793,"25.csv","","null","resources/maskTrios/BBA2.jpg","null","",NA,NA,NA,NA,""
"image-keyboard-response",593,598011,"0.0-4.193-2.193","bk21mtrr1vro0o2",793,"25.csv","","null","resources/images/coin2.png","null","",NA,NA,NA,NA,""
"image-keyboard-response",594,598245,"0.0-4.194-0.194","bk21mtrr1vro0o2",793,"25.csv","","232.7999999821186","resources/trios/L1T2A2.jpg","39","restless",0.6,0.3,0.4,0.166998327236959,"true"
"image-keyboard-response",595,598653,"0.0-4.194-1.194","bk21mtrr1vro0o2",793,"25.csv","","null","resources/maskTrios/BBA2.jpg","null","",NA,NA,NA,NA,""
"image-keyboard-response",596,599862,"0.0-4.194-2.194","bk21mtrr1vro0o2",793,"25.csv","","null","resources/images/coin2.png","null","",NA,NA,NA,NA,""
"image-keyboard-response",597,600175,"0.0-4.195-0.195","bk21mtrr1vro0o2",793,"25.csv","","312.09999999403954","resources/trios/L1T2A2.jpg","39","restless",0.6,0.3,0.4,0.821244402199475,"false"
"image-keyboard-response",598,600585,"0.0-4.195-1.195","bk21mtrr1vro0o2",793,"25.csv","","null","resources/maskTrios/BBA2.jpg","null","",NA,NA,NA,NA,""
"image-keyboard-response",599,601794,"0.0-4.195-2.195","bk21mtrr1vro0o2",793,"25.csv","","null","resources/images/fishbone.png","null","",NA,NA,NA,NA,""
"image-keyboard-response",600,601836,"0.0-4.196-0.196","bk21mtrr1vro0o2",793,"25.csv","","40.599999994039536","resources/trios/L1T2A2.jpg","37","restless",0.6,0.4,0.4,0.629184482030931,"false"
"image-keyboard-response",601,602248,"0.0-4.196-1.196","bk21mtrr1vro0o2",793,"25.csv","","null","resources/maskTrios/L1BB.jpg","null","",NA,NA,NA,NA,""
"image-keyboard-response",602,603456,"0.0-4.196-2.196","bk21mtrr1vro0o2",793,"25.csv","","null","resources/images/fishbone.png","null","",NA,NA,NA,NA,""
"image-keyboard-response",603,603551,"0.0-4.197-0.197","bk21mtrr1vro0o2",793,"25.csv","","93.60000002384186","resources/trios/L1T2A2.jpg","38","restless",0.6,0.4,0.4,0.173174022574857,"true"
"image-keyboard-response",604,603958,"0.0-4.197-1.197","bk21mtrr1vro0o2",793,"25.csv","","null","resources/maskTrios/BT2B.jpg","null","",NA,NA,NA,NA,""
"image-keyboard-response",605,605166,"0.0-4.197-2.197","bk21mtrr1vro0o2",793,"25.csv","","null","resources/images/coin2.png","null","",NA,NA,NA,NA,""
"image-keyboard-response",606,605463,"0.0-4.198-0.198","bk21mtrr1vro0o2",793,"25.csv","","296","resources/trios/L1T2A2.jpg","38","restless",0.6,0.4,0.4,0.895169105999663,"false"
"image-keyboard-response",607,605876,"0.0-4.198-1.198","bk21mtrr1vro0o2",793,"25.csv","","null","resources/maskTrios/BT2B.jpg","null","",NA,NA,NA,NA,""
"image-keyboard-response",608,607080,"0.0-4.198-2.198","bk21mtrr1vro0o2",793,"25.csv","","null","resources/images/fishbone.png","null","",NA,NA,NA,NA,""
"image-keyboard-response",609,607128,"0.0-4.199-0.199","bk21mtrr1vro0o2",793,"25.csv","","47","resources/trios/L1T2A2.jpg","39","restless",0.6,0.5,0.4,0.577998210630523,"false"
"image-keyboard-response",610,607533,"0.0-4.199-1.199","bk21mtrr1vro0o2",793,"25.csv","","null","resources/maskTrios/BBA2.jpg","null","",NA,NA,NA,NA,""
"image-keyboard-response",611,608743,"0.0-4.199-2.199","bk21mtrr1vro0o2",793,"25.csv","","null","resources/images/fishbone.png","null","",NA,NA,NA,NA,""
