"trial_type","trial_index","time_elapsed","internal_node_id","subject","participantCode","walkNumber","success","rt","stimulus","key_press","test_part","leftProb","midProb","rightProb","generatedNum","correct"
"pavlovia",0,1015,"0.0-0.0","t0x6vxx70vsqmdh",139,"92.csv","","","","","",NA,NA,NA,NA,""
"fullscreen",1,4286,"0.0-1.0","t0x6vxx70vsqmdh",139,"92.csv","true","","","","",NA,NA,NA,NA,""
"survey-html-form",2,12237,"0.0-2.0","t0x6vxx70vsqmdh",139,"92.csv","","7950","","","",NA,NA,NA,NA,""
"image-keyboard-response",3,24312,"0.0-3.0-0.0","t0x6vxx70vsqmdh",139,"92.csv","","12070","resources/images/parrot_nobg.png","13","",NA,NA,NA,NA,""
"image-keyboard-response",4,27316,"0.0-3.0-1.0","t0x6vxx70vsqmdh",139,"92.csv","","null","resources/image_sets/111.png","null","",NA,NA,NA,NA,""
"image-keyboard-response",5,29554,"0.0-3.0-2.0","t0x6vxx70vsqmdh",139,"92.csv","","2237","resources/image_sets/left_highlight.png","37","",NA,NA,NA,NA,""
"image-keyboard-response",6,30473,"0.0-3.0-3.0","t0x6vxx70vsqmdh",139,"92.csv","","917","resources/image_sets/mid_highlight.png","38","",NA,NA,NA,NA,""
"image-keyboard-response",7,31127,"0.0-3.0-4.0","t0x6vxx70vsqmdh",139,"92.csv","","653","resources/image_sets/right_highlight.png","39","",NA,NA,NA,NA,""
"image-keyboard-response",8,33280,"0.0-3.0-5.0","t0x6vxx70vsqmdh",139,"92.csv","","2152","resources/image_sets/111.png","13","",NA,NA,NA,NA,""
"image-keyboard-response",9,34852,"0.0-3.0-6.0","t0x6vxx70vsqmdh",139,"92.csv","","1571","resources/images/coin2.png","13","",NA,NA,NA,NA,""
"image-keyboard-response",10,35918,"0.0-3.0-7.0","t0x6vxx70vsqmdh",139,"92.csv","","1065","resources/images/fishbone.png","13","",NA,NA,NA,NA,""
"html-keyboard-response",11,40461,"0.0-3.0-8.0","t0x6vxx70vsqmdh",139,"92.csv","","4542","<p>You can track your coin total on the top right of your screen. </p><p>At the end of your journey you will be directed to a survey, so please click on the link before exiting the task</p><p>Press Enter to begin</p>","13","",NA,NA,NA,NA,""
"image-keyboard-response",12,42365,"0.0-4.0-0.0","t0x6vxx70vsqmdh",139,"92.csv","","1902","resources/trios/L1T2A3.jpg","37","restless",0.9,0.7,0.3,0.256194830258491,"true"
"image-keyboard-response",13,42770,"0.0-4.0-1.0","t0x6vxx70vsqmdh",139,"92.csv","","null","resources/maskTrios/L1BB.jpg","null","",NA,NA,NA,NA,""
"image-keyboard-response",14,43974,"0.0-4.0-2.0","t0x6vxx70vsqmdh",139,"92.csv","","null","resources/images/coin2.png","null","",NA,NA,NA,NA,""
"image-keyboard-response",15,44638,"0.0-4.1-0.1","t0x6vxx70vsqmdh",139,"92.csv","","662","resources/trios/L1T2A3.jpg","38","restless",0.9,0.7,0.3,0.90377878790923,"false"
"image-keyboard-response",16,45042,"0.0-4.1-1.1","t0x6vxx70vsqmdh",139,"92.csv","","null","resources/maskTrios/BT2B.jpg","null","",NA,NA,NA,NA,""
"image-keyboard-response",17,46246,"0.0-4.1-2.1","t0x6vxx70vsqmdh",139,"92.csv","","null","resources/images/fishbone.png","null","",NA,NA,NA,NA,""
"image-keyboard-response",18,46520,"0.0-4.2-0.2","t0x6vxx70vsqmdh",139,"92.csv","","273.0000000000073","resources/trios/L1T2A3.jpg","39","restless",0.9,0.7,0.3,0.248833074280423,"true"
"image-keyboard-response",19,46924,"0.0-4.2-1.2","t0x6vxx70vsqmdh",139,"92.csv","","null","resources/maskTrios/BBA3.jpg","null","",NA,NA,NA,NA,""
"image-keyboard-response",20,48127,"0.0-4.2-2.2","t0x6vxx70vsqmdh",139,"92.csv","","null","resources/images/coin2.png","null","",NA,NA,NA,NA,""
"image-keyboard-response",21,49608,"0.0-4.3-0.3","t0x6vxx70vsqmdh",139,"92.csv","","1479","resources/trios/L1T2A3.jpg","37","restless",0.9,0.7,0.3,0.516726945088658,"true"
"image-keyboard-response",22,50011,"0.0-4.3-1.3","t0x6vxx70vsqmdh",139,"92.csv","","null","resources/maskTrios/L1BB.jpg","null","",NA,NA,NA,NA,""
"image-keyboard-response",23,51214,"0.0-4.3-2.3","t0x6vxx70vsqmdh",139,"92.csv","","null","resources/images/coin2.png","null","",NA,NA,NA,NA,""
"image-keyboard-response",24,51651,"0.0-4.4-0.4","t0x6vxx70vsqmdh",139,"92.csv","","434.9999999999927","resources/trios/L1T2A3.jpg","39","restless",0.9,0.7,0.3,0.597600341485537,"false"
"image-keyboard-response",25,52054,"0.0-4.4-1.4","t0x6vxx70vsqmdh",139,"92.csv","","null","resources/maskTrios/BBA3.jpg","null","",NA,NA,NA,NA,""
"image-keyboard-response",26,53265,"0.0-4.4-2.4","t0x6vxx70vsqmdh",139,"92.csv","","null","resources/images/fishbone.png","null","",NA,NA,NA,NA,""
"image-keyboard-response",27,53563,"0.0-4.5-0.5","t0x6vxx70vsqmdh",139,"92.csv","","296","resources/trios/L1T2A3.jpg","37","restless",0.8,0.7,0.3,0.375957838402646,"true"
"image-keyboard-response",28,53966,"0.0-4.5-1.5","t0x6vxx70vsqmdh",139,"92.csv","","null","resources/maskTrios/L1BB.jpg","null","",NA,NA,NA,NA,""
"image-keyboard-response",29,55170,"0.0-4.5-2.5","t0x6vxx70vsqmdh",139,"92.csv","","null","resources/images/coin2.png","null","",NA,NA,NA,NA,""
"image-keyboard-response",30,55241,"0.0-4.6-0.6","t0x6vxx70vsqmdh",139,"92.csv","","70","resources/trios/L1T2A3.jpg","37","restless",0.8,0.7,0.3,0.179246093116291,"true"
"image-keyboard-response",31,55643,"0.0-4.6-1.6","t0x6vxx70vsqmdh",139,"92.csv","","null","resources/maskTrios/L1BB.jpg","null","",NA,NA,NA,NA,""
"image-keyboard-response",32,56846,"0.0-4.6-2.6","t0x6vxx70vsqmdh",139,"92.csv","","null","resources/images/coin2.png","null","",NA,NA,NA,NA,""
"image-keyboard-response",33,56880,"0.0-4.7-0.7","t0x6vxx70vsqmdh",139,"92.csv","","33","resources/trios/L1T2A3.jpg","37","restless",0.8,0.7,0.3,0.553554533265097,"true"
"image-keyboard-response",34,57284,"0.0-4.7-1.7","t0x6vxx70vsqmdh",139,"92.csv","","null","resources/maskTrios/L1BB.jpg","null","",NA,NA,NA,NA,""
"image-keyboard-response",35,58485,"0.0-4.7-2.7","t0x6vxx70vsqmdh",139,"92.csv","","null","resources/images/coin2.png","null","",NA,NA,NA,NA,""
"image-keyboard-response",36,58489,"0.0-4.8-0.8","t0x6vxx70vsqmdh",139,"92.csv","","2","resources/trios/L1T2A3.jpg","37","restless",0.8,0.7,0.3,0.994279010983149,"false"
"image-keyboard-response",37,58893,"0.0-4.8-1.8","t0x6vxx70vsqmdh",139,"92.csv","","null","resources/maskTrios/L1BB.jpg","null","",NA,NA,NA,NA,""
"image-keyboard-response",38,60098,"0.0-4.8-2.8","t0x6vxx70vsqmdh",139,"92.csv","","null","resources/images/fishbone.png","null","",NA,NA,NA,NA,""
"image-keyboard-response",39,60375,"0.0-4.9-0.9","t0x6vxx70vsqmdh",139,"92.csv","","275","resources/trios/L1T2A3.jpg","39","restless",0.7,0.7,0.3,0.736355383170511,"false"
"image-keyboard-response",40,60779,"0.0-4.9-1.9","t0x6vxx70vsqmdh",139,"92.csv","","null","resources/maskTrios/BBA3.jpg","null","",NA,NA,NA,NA,""
"image-keyboard-response",41,61982,"0.0-4.9-2.9","t0x6vxx70vsqmdh",139,"92.csv","","null","resources/images/fishbone.png","null","",NA,NA,NA,NA,""
"image-keyboard-response",42,62193,"0.0-4.10-0.10","t0x6vxx70vsqmdh",139,"92.csv","","209.99999999998545","resources/trios/L1T2A3.jpg","38","restless",0.7,0.7,0.2,0.556192176262324,"true"
"image-keyboard-response",43,62596,"0.0-4.10-1.10","t0x6vxx70vsqmdh",139,"92.csv","","null","resources/maskTrios/BT2B.jpg","null","",NA,NA,NA,NA,""
"image-keyboard-response",44,63799,"0.0-4.10-2.10","t0x6vxx70vsqmdh",139,"92.csv","","null","resources/images/coin2.png","null","",NA,NA,NA,NA,""
"image-keyboard-response",45,63971,"0.0-4.11-0.11","t0x6vxx70vsqmdh",139,"92.csv","","170","resources/trios/L1T2A3.jpg","38","restless",0.6,0.7,0.2,0.656921051508817,"true"
"image-keyboard-response",46,64374,"0.0-4.11-1.11","t0x6vxx70vsqmdh",139,"92.csv","","null","resources/maskTrios/BT2B.jpg","null","",NA,NA,NA,NA,""
"image-keyboard-response",47,65578,"0.0-4.11-2.11","t0x6vxx70vsqmdh",139,"92.csv","","null","resources/images/coin2.png","null","",NA,NA,NA,NA,""
"image-keyboard-response",48,66188,"0.0-4.12-0.12","t0x6vxx70vsqmdh",139,"92.csv","","609","resources/trios/L1T2A3.jpg","38","restless",0.6,0.7,0.2,0.112653570663153,"true"
"image-keyboard-response",49,66591,"0.0-4.12-1.12","t0x6vxx70vsqmdh",139,"92.csv","","null","resources/maskTrios/BT2B.jpg","null","",NA,NA,NA,NA,""
"image-keyboard-response",50,67795,"0.0-4.12-2.12","t0x6vxx70vsqmdh",139,"92.csv","","null","resources/images/coin2.png","null","",NA,NA,NA,NA,""
"image-keyboard-response",51,68108,"0.0-4.13-0.13","t0x6vxx70vsqmdh",139,"92.csv","","312.00000000001455","resources/trios/L1T2A3.jpg","38","restless",0.6,0.7,0.2,0.296837654230797,"true"
"image-keyboard-response",52,68511,"0.0-4.13-1.13","t0x6vxx70vsqmdh",139,"92.csv","","null","resources/maskTrios/BT2B.jpg","null","",NA,NA,NA,NA,""
"image-keyboard-response",53,69715,"0.0-4.13-2.13","t0x6vxx70vsqmdh",139,"92.csv","","null","resources/images/coin2.png","null","",NA,NA,NA,NA,""
"image-keyboard-response",54,70024,"0.0-4.14-0.14","t0x6vxx70vsqmdh",139,"92.csv","","308","resources/trios/L1T2A3.jpg","38","restless",0.6,0.7,0.2,0.0232964456570223,"true"
"image-keyboard-response",55,70427,"0.0-4.14-1.14","t0x6vxx70vsqmdh",139,"92.csv","","null","resources/maskTrios/BT2B.jpg","null","",NA,NA,NA,NA,""
"image-keyboard-response",56,71631,"0.0-4.14-2.14","t0x6vxx70vsqmdh",139,"92.csv","","null","resources/images/coin2.png","null","",NA,NA,NA,NA,""
"image-keyboard-response",57,71902,"0.0-4.15-0.15","t0x6vxx70vsqmdh",139,"92.csv","","269.99999999998545","resources/trios/L1T2A3.jpg","38","restless",0.6,0.7,0.2,0.811046413418801,"false"
"image-keyboard-response",58,72306,"0.0-4.15-1.15","t0x6vxx70vsqmdh",139,"92.csv","","null","resources/maskTrios/BT2B.jpg","null","",NA,NA,NA,NA,""
"image-keyboard-response",59,73509,"0.0-4.15-2.15","t0x6vxx70vsqmdh",139,"92.csv","","null","resources/images/fishbone.png","null","",NA,NA,NA,NA,""
"image-keyboard-response",60,75008,"0.0-4.16-0.16","t0x6vxx70vsqmdh",139,"92.csv","","1497.9999999999854","resources/trios/L1T2A3.jpg","39","restless",0.6,0.7,0.2,0.474686683472207,"false"
"image-keyboard-response",61,75412,"0.0-4.16-1.16","t0x6vxx70vsqmdh",139,"92.csv","","null","resources/maskTrios/BBA3.jpg","null","",NA,NA,NA,NA,""
"image-keyboard-response",62,76615,"0.0-4.16-2.16","t0x6vxx70vsqmdh",139,"92.csv","","null","resources/images/fishbone.png","null","",NA,NA,NA,NA,""
"image-keyboard-response",63,76933,"0.0-4.17-0.17","t0x6vxx70vsqmdh",139,"92.csv","","314","resources/trios/L1T2A3.jpg","37","restless",0.6,0.7,0.2,0.946509211058558,"false"
"image-keyboard-response",64,77336,"0.0-4.17-1.17","t0x6vxx70vsqmdh",139,"92.csv","","null","resources/maskTrios/L1BB.jpg","null","",NA,NA,NA,NA,""
"image-keyboard-response",65,78540,"0.0-4.17-2.17","t0x6vxx70vsqmdh",139,"92.csv","","null","resources/images/fishbone.png","null","",NA,NA,NA,NA,""
"image-keyboard-response",66,78805,"0.0-4.18-0.18","t0x6vxx70vsqmdh",139,"92.csv","","265","resources/trios/L1T2A3.jpg","38","restless",0.5,0.7,0.2,0.339856689543377,"true"
"image-keyboard-response",67,79209,"0.0-4.18-1.18","t0x6vxx70vsqmdh",139,"92.csv","","null","resources/maskTrios/BT2B.jpg","null","",NA,NA,NA,NA,""
"image-keyboard-response",68,80412,"0.0-4.18-2.18","t0x6vxx70vsqmdh",139,"92.csv","","null","resources/images/coin2.png","null","",NA,NA,NA,NA,""
"image-keyboard-response",69,80456,"0.0-4.19-0.19","t0x6vxx70vsqmdh",139,"92.csv","","43","resources/trios/L1T2A3.jpg","38","restless",0.5,0.7,0.2,0.636179654137682,"true"
"image-keyboard-response",70,80859,"0.0-4.19-1.19","t0x6vxx70vsqmdh",139,"92.csv","","null","resources/maskTrios/BT2B.jpg","null","",NA,NA,NA,NA,""
"image-keyboard-response",71,82063,"0.0-4.19-2.19","t0x6vxx70vsqmdh",139,"92.csv","","null","resources/images/coin2.png","null","",NA,NA,NA,NA,""
"image-keyboard-response",72,82226,"0.0-4.20-0.20","t0x6vxx70vsqmdh",139,"92.csv","","163","resources/trios/L1T2A3.jpg","38","restless",0.4,0.7,0.2,0.999856483755093,"false"
"image-keyboard-response",73,82630,"0.0-4.20-1.20","t0x6vxx70vsqmdh",139,"92.csv","","null","resources/maskTrios/BT2B.jpg","null","",NA,NA,NA,NA,""
"image-keyboard-response",74,83832,"0.0-4.20-2.20","t0x6vxx70vsqmdh",139,"92.csv","","null","resources/images/fishbone.png","null","",NA,NA,NA,NA,""
"image-keyboard-response",75,84160,"0.0-4.21-0.21","t0x6vxx70vsqmdh",139,"92.csv","","326","resources/trios/L1T2A3.jpg","39","restless",0.4,0.7,0.2,0.456434720394231,"false"
"image-keyboard-response",76,84564,"0.0-4.21-1.21","t0x6vxx70vsqmdh",139,"92.csv","","null","resources/maskTrios/BBA3.jpg","null","",NA,NA,NA,NA,""
"image-keyboard-response",77,85767,"0.0-4.21-2.21","t0x6vxx70vsqmdh",139,"92.csv","","null","resources/images/fishbone.png","null","",NA,NA,NA,NA,""
"image-keyboard-response",78,86030,"0.0-4.22-0.22","t0x6vxx70vsqmdh",139,"92.csv","","263","resources/trios/L1T2A3.jpg","39","restless",0.4,0.7,0.2,0.946011992489205,"false"
"image-keyboard-response",79,86434,"0.0-4.22-1.22","t0x6vxx70vsqmdh",139,"92.csv","","null","resources/maskTrios/BBA3.jpg","null","",NA,NA,NA,NA,""
"image-keyboard-response",80,87637,"0.0-4.22-2.22","t0x6vxx70vsqmdh",139,"92.csv","","null","resources/images/fishbone.png","null","",NA,NA,NA,NA,""
"image-keyboard-response",81,87779,"0.0-4.23-0.23","t0x6vxx70vsqmdh",139,"92.csv","","141","resources/trios/L1T2A3.jpg","38","restless",0.4,0.7,0.2,0.259593089889644,"true"
"image-keyboard-response",82,88182,"0.0-4.23-1.23","t0x6vxx70vsqmdh",139,"92.csv","","null","resources/maskTrios/BT2B.jpg","null","",NA,NA,NA,NA,""
"image-keyboard-response",83,89385,"0.0-4.23-2.23","t0x6vxx70vsqmdh",139,"92.csv","","null","resources/images/coin2.png","null","",NA,NA,NA,NA,""
"image-keyboard-response",84,89720,"0.0-4.24-0.24","t0x6vxx70vsqmdh",139,"92.csv","","333","resources/trios/L1T2A3.jpg","38","restless",0.4,0.7,0.2,0.486984689028826,"true"
"image-keyboard-response",85,90122,"0.0-4.24-1.24","t0x6vxx70vsqmdh",139,"92.csv","","null","resources/maskTrios/BT2B.jpg","null","",NA,NA,NA,NA,""
"image-keyboard-response",86,91324,"0.0-4.24-2.24","t0x6vxx70vsqmdh",139,"92.csv","","null","resources/images/coin2.png","null","",NA,NA,NA,NA,""
"image-keyboard-response",87,91362,"0.0-4.25-0.25","t0x6vxx70vsqmdh",139,"92.csv","","37.00000000001455","resources/trios/L1T2A3.jpg","38","restless",0.4,0.7,0.1,0.416083148495514,"true"
"image-keyboard-response",88,91763,"0.0-4.25-1.25","t0x6vxx70vsqmdh",139,"92.csv","","null","resources/maskTrios/BT2B.jpg","null","",NA,NA,NA,NA,""
"image-keyboard-response",89,92967,"0.0-4.25-2.25","t0x6vxx70vsqmdh",139,"92.csv","","null","resources/images/coin2.png","null","",NA,NA,NA,NA,""
"image-keyboard-response",90,93162,"0.0-4.26-0.26","t0x6vxx70vsqmdh",139,"92.csv","","194","resources/trios/L1T2A3.jpg","38","restless",0.4,0.6,0.1,0.322115538296179,"true"
"image-keyboard-response",91,93567,"0.0-4.26-1.26","t0x6vxx70vsqmdh",139,"92.csv","","null","resources/maskTrios/BT2B.jpg","null","",NA,NA,NA,NA,""
"image-keyboard-response",92,94771,"0.0-4.26-2.26","t0x6vxx70vsqmdh",139,"92.csv","","null","resources/images/coin2.png","null","",NA,NA,NA,NA,""
"image-keyboard-response",93,94916,"0.0-4.27-0.27","t0x6vxx70vsqmdh",139,"92.csv","","142.99999999998545","resources/trios/L1T2A3.jpg","38","restless",0.4,0.6,0.1,0.563226778002658,"true"
"image-keyboard-response",94,95319,"0.0-4.27-1.27","t0x6vxx70vsqmdh",139,"92.csv","","null","resources/maskTrios/BT2B.jpg","null","",NA,NA,NA,NA,""
"image-keyboard-response",95,96523,"0.0-4.27-2.27","t0x6vxx70vsqmdh",139,"92.csv","","null","resources/images/coin2.png","null","",NA,NA,NA,NA,""
"image-keyboard-response",96,96607,"0.0-4.28-0.28","t0x6vxx70vsqmdh",139,"92.csv","","83","resources/trios/L1T2A3.jpg","38","restless",0.4,0.6,0.1,0.921576843435346,"false"
"image-keyboard-response",97,97009,"0.0-4.28-1.28","t0x6vxx70vsqmdh",139,"92.csv","","null","resources/maskTrios/BT2B.jpg","null","",NA,NA,NA,NA,""
"image-keyboard-response",98,98212,"0.0-4.28-2.28","t0x6vxx70vsqmdh",139,"92.csv","","null","resources/images/fishbone.png","null","",NA,NA,NA,NA,""
"image-keyboard-response",99,98518,"0.0-4.29-0.29","t0x6vxx70vsqmdh",139,"92.csv","","305","resources/trios/L1T2A3.jpg","37","restless",0.4,0.6,0.1,0.299158438771477,"true"
"image-keyboard-response",100,98921,"0.0-4.29-1.29","t0x6vxx70vsqmdh",139,"92.csv","","null","resources/maskTrios/L1BB.jpg","null","",NA,NA,NA,NA,""
"image-keyboard-response",101,100124,"0.0-4.29-2.29","t0x6vxx70vsqmdh",139,"92.csv","","null","resources/images/coin2.png","null","",NA,NA,NA,NA,""
"image-keyboard-response",102,100294,"0.0-4.30-0.30","t0x6vxx70vsqmdh",139,"92.csv","","170","resources/trios/L1T2A3.jpg","37","restless",0.4,0.6,0.1,0.067099384306742,"true"
"image-keyboard-response",103,100698,"0.0-4.30-1.30","t0x6vxx70vsqmdh",139,"92.csv","","null","resources/maskTrios/L1BB.jpg","null","",NA,NA,NA,NA,""
"image-keyboard-response",104,101901,"0.0-4.30-2.30","t0x6vxx70vsqmdh",139,"92.csv","","null","resources/images/coin2.png","null","",NA,NA,NA,NA,""
"image-keyboard-response",105,102047,"0.0-4.31-0.31","t0x6vxx70vsqmdh",139,"92.csv","","145","resources/trios/L1T2A3.jpg","37","restless",0.4,0.6,0.1,0.546640512641235,"false"
"image-keyboard-response",106,102451,"0.0-4.31-1.31","t0x6vxx70vsqmdh",139,"92.csv","","null","resources/maskTrios/L1BB.jpg","null","",NA,NA,NA,NA,""
"image-keyboard-response",107,103654,"0.0-4.31-2.31","t0x6vxx70vsqmdh",139,"92.csv","","null","resources/images/fishbone.png","null","",NA,NA,NA,NA,""
"image-keyboard-response",108,104032,"0.0-4.32-0.32","t0x6vxx70vsqmdh",139,"92.csv","","377.00000000001455","resources/trios/L1T2A3.jpg","38","restless",0.4,0.6,0.2,0.692943336653572,"false"
"image-keyboard-response",109,104436,"0.0-4.32-1.32","t0x6vxx70vsqmdh",139,"92.csv","","null","resources/maskTrios/BT2B.jpg","null","",NA,NA,NA,NA,""
"image-keyboard-response",110,105638,"0.0-4.32-2.32","t0x6vxx70vsqmdh",139,"92.csv","","null","resources/images/fishbone.png","null","",NA,NA,NA,NA,""
"image-keyboard-response",111,106020,"0.0-4.33-0.33","t0x6vxx70vsqmdh",139,"92.csv","","381","resources/trios/L1T2A3.jpg","39","restless",0.4,0.6,0.2,0.767199336720403,"false"
"image-keyboard-response",112,106424,"0.0-4.33-1.33","t0x6vxx70vsqmdh",139,"92.csv","","null","resources/maskTrios/BBA3.jpg","null","",NA,NA,NA,NA,""
"image-keyboard-response",113,107627,"0.0-4.33-2.33","t0x6vxx70vsqmdh",139,"92.csv","","null","resources/images/fishbone.png","null","",NA,NA,NA,NA,""
"image-keyboard-response",114,108089,"0.0-4.34-0.34","t0x6vxx70vsqmdh",139,"92.csv","","461","resources/trios/L1T2A3.jpg","38","restless",0.4,0.6,0.2,0.705322977647043,"false"
"image-keyboard-response",115,108491,"0.0-4.34-1.34","t0x6vxx70vsqmdh",139,"92.csv","","null","resources/maskTrios/BT2B.jpg","null","",NA,NA,NA,NA,""
"image-keyboard-response",116,109694,"0.0-4.34-2.34","t0x6vxx70vsqmdh",139,"92.csv","","null","resources/images/fishbone.png","null","",NA,NA,NA,NA,""
"image-keyboard-response",117,109925,"0.0-4.35-0.35","t0x6vxx70vsqmdh",139,"92.csv","","230","resources/trios/L1T2A3.jpg","39","restless",0.4,0.6,0.2,0.657797971767053,"false"
"image-keyboard-response",118,110328,"0.0-4.35-1.35","t0x6vxx70vsqmdh",139,"92.csv","","null","resources/maskTrios/BBA3.jpg","null","",NA,NA,NA,NA,""
"image-keyboard-response",119,111532,"0.0-4.35-2.35","t0x6vxx70vsqmdh",139,"92.csv","","null","resources/images/fishbone.png","null","",NA,NA,NA,NA,""
"image-keyboard-response",120,111746,"0.0-4.36-0.36","t0x6vxx70vsqmdh",139,"92.csv","","213.00000000001455","resources/trios/L1T2A3.jpg","37","restless",0.5,0.6,0.3,0.623983323172834,"false"
"image-keyboard-response",121,112148,"0.0-4.36-1.36","t0x6vxx70vsqmdh",139,"92.csv","","null","resources/maskTrios/L1BB.jpg","null","",NA,NA,NA,NA,""
"image-keyboard-response",122,113351,"0.0-4.36-2.36","t0x6vxx70vsqmdh",139,"92.csv","","null","resources/images/fishbone.png","null","",NA,NA,NA,NA,""
"image-keyboard-response",123,113597,"0.0-4.37-0.37","t0x6vxx70vsqmdh",139,"92.csv","","245","resources/trios/L1T2A3.jpg","37","restless",0.5,0.6,0.3,0.713446339478454,"false"
"image-keyboard-response",124,114000,"0.0-4.37-1.37","t0x6vxx70vsqmdh",139,"92.csv","","null","resources/maskTrios/L1BB.jpg","null","",NA,NA,NA,NA,""
"image-keyboard-response",125,115203,"0.0-4.37-2.37","t0x6vxx70vsqmdh",139,"92.csv","","null","resources/images/fishbone.png","null","",NA,NA,NA,NA,""
"image-keyboard-response",126,115332,"0.0-4.38-0.38","t0x6vxx70vsqmdh",139,"92.csv","","128","resources/trios/L1T2A3.jpg","38","restless",0.5,0.6,0.3,0.558267740880871,"true"
"image-keyboard-response",127,115736,"0.0-4.38-1.38","t0x6vxx70vsqmdh",139,"92.csv","","null","resources/maskTrios/BT2B.jpg","null","",NA,NA,NA,NA,""
"image-keyboard-response",128,116939,"0.0-4.38-2.38","t0x6vxx70vsqmdh",139,"92.csv","","null","resources/images/coin2.png","null","",NA,NA,NA,NA,""
"image-keyboard-response",129,117157,"0.0-4.39-0.39","t0x6vxx70vsqmdh",139,"92.csv","","215.00000000001455","resources/trios/L1T2A3.jpg","38","restless",0.5,0.6,0.3,0.583412475135112,"true"
"image-keyboard-response",130,117559,"0.0-4.39-1.39","t0x6vxx70vsqmdh",139,"92.csv","","null","resources/maskTrios/BT2B.jpg","null","",NA,NA,NA,NA,""
"image-keyboard-response",131,118762,"0.0-4.39-2.39","t0x6vxx70vsqmdh",139,"92.csv","","null","resources/images/coin2.png","null","",NA,NA,NA,NA,""
"image-keyboard-response",132,119007,"0.0-4.40-0.40","t0x6vxx70vsqmdh",139,"92.csv","","241.99999999998545","resources/trios/L1T2A3.jpg","38","restless",0.5,0.6,0.3,0.367114412750682,"true"
"image-keyboard-response",133,119411,"0.0-4.40-1.40","t0x6vxx70vsqmdh",139,"92.csv","","null","resources/maskTrios/BT2B.jpg","null","",NA,NA,NA,NA,""
"image-keyboard-response",134,120614,"0.0-4.40-2.40","t0x6vxx70vsqmdh",139,"92.csv","","null","resources/images/coin2.png","null","",NA,NA,NA,NA,""
"image-keyboard-response",135,120833,"0.0-4.41-0.41","t0x6vxx70vsqmdh",139,"92.csv","","217.99999999998545","resources/trios/L1T2A3.jpg","38","restless",0.5,0.6,0.3,0.839362723846406,"false"
"image-keyboard-response",136,121235,"0.0-4.41-1.41","t0x6vxx70vsqmdh",139,"92.csv","","null","resources/maskTrios/BT2B.jpg","null","",NA,NA,NA,NA,""
"image-keyboard-response",137,122438,"0.0-4.41-2.41","t0x6vxx70vsqmdh",139,"92.csv","","null","resources/images/fishbone.png","null","",NA,NA,NA,NA,""
"image-keyboard-response",138,122487,"0.0-4.42-0.42","t0x6vxx70vsqmdh",139,"92.csv","","48.00000000001455","resources/trios/L1T2A3.jpg","39","restless",0.5,0.6,0.3,0.782129701422829,"false"
"image-keyboard-response",139,122889,"0.0-4.42-1.42","t0x6vxx70vsqmdh",139,"92.csv","","null","resources/maskTrios/BBA3.jpg","null","",NA,NA,NA,NA,""
"image-keyboard-response",140,124092,"0.0-4.42-2.42","t0x6vxx70vsqmdh",139,"92.csv","","null","resources/images/fishbone.png","null","",NA,NA,NA,NA,""
"image-keyboard-response",141,125247,"0.0-4.43-0.43","t0x6vxx70vsqmdh",139,"92.csv","","1155","resources/trios/L1T2A3.jpg","38","restless",0.5,0.6,0.3,0.433162753178404,"true"
"image-keyboard-response",142,125651,"0.0-4.43-1.43","t0x6vxx70vsqmdh",139,"92.csv","","null","resources/maskTrios/BT2B.jpg","null","",NA,NA,NA,NA,""
"image-keyboard-response",143,126854,"0.0-4.43-2.43","t0x6vxx70vsqmdh",139,"92.csv","","null","resources/images/coin2.png","null","",NA,NA,NA,NA,""
"image-keyboard-response",144,127081,"0.0-4.44-0.44","t0x6vxx70vsqmdh",139,"92.csv","","226","resources/trios/L1T2A3.jpg","38","restless",0.5,0.6,0.2,0.626929810596934,"false"
"image-keyboard-response",145,127484,"0.0-4.44-1.44","t0x6vxx70vsqmdh",139,"92.csv","","null","resources/maskTrios/BT2B.jpg","null","",NA,NA,NA,NA,""
"image-keyboard-response",146,128687,"0.0-4.44-2.44","t0x6vxx70vsqmdh",139,"92.csv","","null","resources/images/fishbone.png","null","",NA,NA,NA,NA,""
"image-keyboard-response",147,129212,"0.0-4.45-0.45","t0x6vxx70vsqmdh",139,"92.csv","","524","resources/trios/L1T2A3.jpg","37","restless",0.5,0.6,0.2,0.818127759679314,"false"
"image-keyboard-response",148,129615,"0.0-4.45-1.45","t0x6vxx70vsqmdh",139,"92.csv","","null","resources/maskTrios/L1BB.jpg","null","",NA,NA,NA,NA,""
"image-keyboard-response",149,130818,"0.0-4.45-2.45","t0x6vxx70vsqmdh",139,"92.csv","","null","resources/images/fishbone.png","null","",NA,NA,NA,NA,""
"image-keyboard-response",150,131156,"0.0-4.46-0.46","t0x6vxx70vsqmdh",139,"92.csv","","337","resources/trios/L1T2A3.jpg","38","restless",0.5,0.6,0.2,0.225772932424798,"true"
"image-keyboard-response",151,131559,"0.0-4.46-1.46","t0x6vxx70vsqmdh",139,"92.csv","","null","resources/maskTrios/BT2B.jpg","null","",NA,NA,NA,NA,""
"image-keyboard-response",152,132762,"0.0-4.46-2.46","t0x6vxx70vsqmdh",139,"92.csv","","null","resources/images/coin2.png","null","",NA,NA,NA,NA,""
"image-keyboard-response",153,133012,"0.0-4.47-0.47","t0x6vxx70vsqmdh",139,"92.csv","","248","resources/trios/L1T2A3.jpg","38","restless",0.5,0.5,0.2,0.791433453658716,"false"
"image-keyboard-response",154,133415,"0.0-4.47-1.47","t0x6vxx70vsqmdh",139,"92.csv","","null","resources/maskTrios/BT2B.jpg","null","",NA,NA,NA,NA,""
"image-keyboard-response",155,134620,"0.0-4.47-2.47","t0x6vxx70vsqmdh",139,"92.csv","","null","resources/images/fishbone.png","null","",NA,NA,NA,NA,""
"image-keyboard-response",156,134773,"0.0-4.48-0.48","t0x6vxx70vsqmdh",139,"92.csv","","151","resources/trios/L1T2A3.jpg","39","restless",0.5,0.5,0.2,0.188629964472659,"true"
"image-keyboard-response",157,135177,"0.0-4.48-1.48","t0x6vxx70vsqmdh",139,"92.csv","","null","resources/maskTrios/BBA3.jpg","null","",NA,NA,NA,NA,""
"image-keyboard-response",158,136378,"0.0-4.48-2.48","t0x6vxx70vsqmdh",139,"92.csv","","null","resources/images/coin2.png","null","",NA,NA,NA,NA,""
"image-keyboard-response",159,136676,"0.0-4.49-0.49","t0x6vxx70vsqmdh",139,"92.csv","","297","resources/trios/L1T2A3.jpg","39","restless",0.5,0.5,0.2,0.748686611940177,"false"
"image-keyboard-response",160,137080,"0.0-4.49-1.49","t0x6vxx70vsqmdh",139,"92.csv","","null","resources/maskTrios/BBA3.jpg","null","",NA,NA,NA,NA,""
"image-keyboard-response",161,138283,"0.0-4.49-2.49","t0x6vxx70vsqmdh",139,"92.csv","","null","resources/images/fishbone.png","null","",NA,NA,NA,NA,""
"image-keyboard-response",162,138770,"0.0-4.50-0.50","t0x6vxx70vsqmdh",139,"92.csv","","486","resources/trios/L1T2A3.jpg","37","restless",0.5,0.5,0.3,0.120795862906844,"true"
"image-keyboard-response",163,139174,"0.0-4.50-1.50","t0x6vxx70vsqmdh",139,"92.csv","","null","resources/maskTrios/L1BB.jpg","null","",NA,NA,NA,NA,""
"image-keyboard-response",164,140377,"0.0-4.50-2.50","t0x6vxx70vsqmdh",139,"92.csv","","null","resources/images/coin2.png","null","",NA,NA,NA,NA,""
"image-keyboard-response",165,140661,"0.0-4.51-0.51","t0x6vxx70vsqmdh",139,"92.csv","","283","resources/trios/L1T2A3.jpg","37","restless",0.5,0.5,0.4,0.324515388481914,"true"
"image-keyboard-response",166,141064,"0.0-4.51-1.51","t0x6vxx70vsqmdh",139,"92.csv","","null","resources/maskTrios/L1BB.jpg","null","",NA,NA,NA,NA,""
"image-keyboard-response",167,142268,"0.0-4.51-2.51","t0x6vxx70vsqmdh",139,"92.csv","","null","resources/images/coin2.png","null","",NA,NA,NA,NA,""
"image-keyboard-response",168,142547,"0.0-4.52-0.52","t0x6vxx70vsqmdh",139,"92.csv","","278","resources/trios/L1T2A3.jpg","37","restless",0.5,0.6,0.4,0.57891393061101,"false"
"image-keyboard-response",169,142950,"0.0-4.52-1.52","t0x6vxx70vsqmdh",139,"92.csv","","null","resources/maskTrios/L1BB.jpg","null","",NA,NA,NA,NA,""
"image-keyboard-response",170,144153,"0.0-4.52-2.52","t0x6vxx70vsqmdh",139,"92.csv","","null","resources/images/fishbone.png","null","",NA,NA,NA,NA,""
"image-keyboard-response",171,144609,"0.0-4.53-0.53","t0x6vxx70vsqmdh",139,"92.csv","","455","resources/trios/L1T2A3.jpg","38","restless",0.5,0.6,0.4,0.603513990789895,"false"
"image-keyboard-response",172,145013,"0.0-4.53-1.53","t0x6vxx70vsqmdh",139,"92.csv","","null","resources/maskTrios/BT2B.jpg","null","",NA,NA,NA,NA,""
"image-keyboard-response",173,146214,"0.0-4.53-2.53","t0x6vxx70vsqmdh",139,"92.csv","","null","resources/images/fishbone.png","null","",NA,NA,NA,NA,""
"image-keyboard-response",174,146420,"0.0-4.54-0.54","t0x6vxx70vsqmdh",139,"92.csv","","205","resources/trios/L1T2A3.jpg","37","restless",0.6,0.6,0.4,0.221685890812621,"true"
"image-keyboard-response",175,146823,"0.0-4.54-1.54","t0x6vxx70vsqmdh",139,"92.csv","","null","resources/maskTrios/L1BB.jpg","null","",NA,NA,NA,NA,""
"image-keyboard-response",176,148027,"0.0-4.54-2.54","t0x6vxx70vsqmdh",139,"92.csv","","null","resources/images/coin2.png","null","",NA,NA,NA,NA,""
"image-keyboard-response",177,148214,"0.0-4.55-0.55","t0x6vxx70vsqmdh",139,"92.csv","","184","resources/trios/L1T2A3.jpg","37","restless",0.6,0.7,0.4,0.0692934843151403,"true"
"image-keyboard-response",178,148617,"0.0-4.55-1.55","t0x6vxx70vsqmdh",139,"92.csv","","null","resources/maskTrios/L1BB.jpg","null","",NA,NA,NA,NA,""
"image-keyboard-response",179,149821,"0.0-4.55-2.55","t0x6vxx70vsqmdh",139,"92.csv","","null","resources/images/coin2.png","null","",NA,NA,NA,NA,""
"image-keyboard-response",180,149905,"0.0-4.56-0.56","t0x6vxx70vsqmdh",139,"92.csv","","83","resources/trios/L1T2A3.jpg","37","restless",0.6,0.7,0.4,0.231588001827674,"true"
"image-keyboard-response",181,150308,"0.0-4.56-1.56","t0x6vxx70vsqmdh",139,"92.csv","","null","resources/maskTrios/L1BB.jpg","null","",NA,NA,NA,NA,""
"image-keyboard-response",182,151511,"0.0-4.56-2.56","t0x6vxx70vsqmdh",139,"92.csv","","null","resources/images/coin2.png","null","",NA,NA,NA,NA,""
"image-keyboard-response",183,151568,"0.0-4.57-0.57","t0x6vxx70vsqmdh",139,"92.csv","","55","resources/trios/L1T2A3.jpg","37","restless",0.6,0.7,0.4,0.383468994487179,"true"
"image-keyboard-response",184,151971,"0.0-4.57-1.57","t0x6vxx70vsqmdh",139,"92.csv","","null","resources/maskTrios/L1BB.jpg","null","",NA,NA,NA,NA,""
"image-keyboard-response",185,153175,"0.0-4.57-2.57","t0x6vxx70vsqmdh",139,"92.csv","","null","resources/images/coin2.png","null","",NA,NA,NA,NA,""
"image-keyboard-response",186,153359,"0.0-4.58-0.58","t0x6vxx70vsqmdh",139,"92.csv","","182.9999999999709","resources/trios/L1T2A3.jpg","37","restless",0.6,0.7,0.3,0.100975639242959,"true"
"image-keyboard-response",187,153763,"0.0-4.58-1.58","t0x6vxx70vsqmdh",139,"92.csv","","null","resources/maskTrios/L1BB.jpg","null","",NA,NA,NA,NA,""
"image-keyboard-response",188,154967,"0.0-4.58-2.58","t0x6vxx70vsqmdh",139,"92.csv","","null","resources/images/coin2.png","null","",NA,NA,NA,NA,""
"image-keyboard-response",189,156752,"0.0-4.59-0.59","t0x6vxx70vsqmdh",139,"92.csv","","1783.999999999971","resources/trios/L1T2A3.jpg","37","restless",0.6,0.7,0.3,0.476897162062917,"true"
"image-keyboard-response",190,157156,"0.0-4.59-1.59","t0x6vxx70vsqmdh",139,"92.csv","","null","resources/maskTrios/L1BB.jpg","null","",NA,NA,NA,NA,""
"image-keyboard-response",191,158359,"0.0-4.59-2.59","t0x6vxx70vsqmdh",139,"92.csv","","null","resources/images/coin2.png","null","",NA,NA,NA,NA,""
"image-keyboard-response",192,158644,"0.0-4.60-0.60","t0x6vxx70vsqmdh",139,"92.csv","","282.9999999999709","resources/trios/L1T2A3.jpg","37","restless",0.6,0.7,0.3,0.751430860000571,"false"
"image-keyboard-response",193,159047,"0.0-4.60-1.60","t0x6vxx70vsqmdh",139,"92.csv","","null","resources/maskTrios/L1BB.jpg","null","",NA,NA,NA,NA,""
"image-keyboard-response",194,160249,"0.0-4.60-2.60","t0x6vxx70vsqmdh",139,"92.csv","","null","resources/images/fishbone.png","null","",NA,NA,NA,NA,""
"image-keyboard-response",195,160485,"0.0-4.61-0.61","t0x6vxx70vsqmdh",139,"92.csv","","234","resources/trios/L1T2A3.jpg","38","restless",0.6,0.7,0.3,0.0549429010872077,"true"
"image-keyboard-response",196,160888,"0.0-4.61-1.61","t0x6vxx70vsqmdh",139,"92.csv","","null","resources/maskTrios/BT2B.jpg","null","",NA,NA,NA,NA,""
"image-keyboard-response",197,162091,"0.0-4.61-2.61","t0x6vxx70vsqmdh",139,"92.csv","","null","resources/images/coin2.png","null","",NA,NA,NA,NA,""
"image-keyboard-response",198,162180,"0.0-4.62-0.62","t0x6vxx70vsqmdh",139,"92.csv","","86.9999999999709","resources/trios/L1T2A3.jpg","38","restless",0.6,0.7,0.3,0.310399875336862,"true"
"image-keyboard-response",199,162583,"0.0-4.62-1.62","t0x6vxx70vsqmdh",139,"92.csv","","null","resources/maskTrios/BT2B.jpg","null","",NA,NA,NA,NA,""
"image-keyboard-response",200,163787,"0.0-4.62-2.62","t0x6vxx70vsqmdh",139,"92.csv","","null","resources/images/coin2.png","null","",NA,NA,NA,NA,""
"image-keyboard-response",201,164339,"0.0-4.63-0.63","t0x6vxx70vsqmdh",139,"92.csv","","551","resources/trios/L1T2A3.jpg","38","restless",0.6,0.7,0.3,0.12332702593147,"true"
"image-keyboard-response",202,164741,"0.0-4.63-1.63","t0x6vxx70vsqmdh",139,"92.csv","","null","resources/maskTrios/BT2B.jpg","null","",NA,NA,NA,NA,""
"image-keyboard-response",203,165945,"0.0-4.63-2.63","t0x6vxx70vsqmdh",139,"92.csv","","null","resources/images/coin2.png","null","",NA,NA,NA,NA,""
"image-keyboard-response",204,166495,"0.0-4.64-0.64","t0x6vxx70vsqmdh",139,"92.csv","","549","resources/trios/L1T2A3.jpg","38","restless",0.7,0.7,0.3,0.461187016588406,"true"
"image-keyboard-response",205,166897,"0.0-4.64-1.64","t0x6vxx70vsqmdh",139,"92.csv","","null","resources/maskTrios/BT2B.jpg","null","",NA,NA,NA,NA,""
"image-keyboard-response",206,168100,"0.0-4.64-2.64","t0x6vxx70vsqmdh",139,"92.csv","","null","resources/images/coin2.png","null","",NA,NA,NA,NA,""
"image-keyboard-response",207,168362,"0.0-4.65-0.65","t0x6vxx70vsqmdh",139,"92.csv","","260","resources/trios/L1T2A3.jpg","38","restless",0.7,0.7,0.3,0.386946649099351,"true"
"image-keyboard-response",208,168766,"0.0-4.65-1.65","t0x6vxx70vsqmdh",139,"92.csv","","null","resources/maskTrios/BT2B.jpg","null","",NA,NA,NA,NA,""
"image-keyboard-response",209,169969,"0.0-4.65-2.65","t0x6vxx70vsqmdh",139,"92.csv","","null","resources/images/coin2.png","null","",NA,NA,NA,NA,""
"image-keyboard-response",210,170202,"0.0-4.66-0.66","t0x6vxx70vsqmdh",139,"92.csv","","232","resources/trios/L1T2A3.jpg","38","restless",0.6,0.7,0.3,0.286505400673586,"true"
"image-keyboard-response",211,170608,"0.0-4.66-1.66","t0x6vxx70vsqmdh",139,"92.csv","","null","resources/maskTrios/BT2B.jpg","null","",NA,NA,NA,NA,""
"image-keyboard-response",212,171811,"0.0-4.66-2.66","t0x6vxx70vsqmdh",139,"92.csv","","null","resources/images/coin2.png","null","",NA,NA,NA,NA,""
"image-keyboard-response",213,172083,"0.0-4.67-0.67","t0x6vxx70vsqmdh",139,"92.csv","","269.9999999999709","resources/trios/L1T2A3.jpg","38","restless",0.6,0.7,0.3,0.678795359199543,"true"
"image-keyboard-response",214,172487,"0.0-4.67-1.67","t0x6vxx70vsqmdh",139,"92.csv","","null","resources/maskTrios/BT2B.jpg","null","",NA,NA,NA,NA,""
"image-keyboard-response",215,173689,"0.0-4.67-2.67","t0x6vxx70vsqmdh",139,"92.csv","","null","resources/images/coin2.png","null","",NA,NA,NA,NA,""
"image-keyboard-response",216,173997,"0.0-4.68-0.68","t0x6vxx70vsqmdh",139,"92.csv","","306","resources/trios/L1T2A3.jpg","38","restless",0.6,0.7,0.4,0.78315802549893,"false"
"image-keyboard-response",217,174401,"0.0-4.68-1.68","t0x6vxx70vsqmdh",139,"92.csv","","null","resources/maskTrios/BT2B.jpg","null","",NA,NA,NA,NA,""
"image-keyboard-response",218,175604,"0.0-4.68-2.68","t0x6vxx70vsqmdh",139,"92.csv","","null","resources/images/fishbone.png","null","",NA,NA,NA,NA,""
"image-keyboard-response",219,175756,"0.0-4.69-0.69","t0x6vxx70vsqmdh",139,"92.csv","","149","resources/trios/L1T2A3.jpg","37","restless",0.6,0.7,0.4,0.956351860262368,"false"
"image-keyboard-response",220,176159,"0.0-4.69-1.69","t0x6vxx70vsqmdh",139,"92.csv","","null","resources/maskTrios/L1BB.jpg","null","",NA,NA,NA,NA,""
"image-keyboard-response",221,177361,"0.0-4.69-2.69","t0x6vxx70vsqmdh",139,"92.csv","","null","resources/images/fishbone.png","null","",NA,NA,NA,NA,""
"image-keyboard-response",222,177538,"0.0-4.70-0.70","t0x6vxx70vsqmdh",139,"92.csv","","176","resources/trios/L1T2A3.jpg","38","restless",0.6,0.7,0.4,0.57687828842814,"true"
"image-keyboard-response",223,177941,"0.0-4.70-1.70","t0x6vxx70vsqmdh",139,"92.csv","","null","resources/maskTrios/BT2B.jpg","null","",NA,NA,NA,NA,""
"image-keyboard-response",224,179145,"0.0-4.70-2.70","t0x6vxx70vsqmdh",139,"92.csv","","null","resources/images/coin2.png","null","",NA,NA,NA,NA,""
"image-keyboard-response",225,179194,"0.0-4.71-0.71","t0x6vxx70vsqmdh",139,"92.csv","","48.000000000029104","resources/trios/L1T2A3.jpg","38","restless",0.6,0.7,0.4,0.833613572587623,"false"
"image-keyboard-response",226,179598,"0.0-4.71-1.71","t0x6vxx70vsqmdh",139,"92.csv","","null","resources/maskTrios/BT2B.jpg","null","",NA,NA,NA,NA,""
"image-keyboard-response",227,180801,"0.0-4.71-2.71","t0x6vxx70vsqmdh",139,"92.csv","","null","resources/images/fishbone.png","null","",NA,NA,NA,NA,""
"image-keyboard-response",228,181282,"0.0-4.72-0.72","t0x6vxx70vsqmdh",139,"92.csv","","479","resources/trios/L1T2A3.jpg","37","restless",0.6,0.7,0.4,0.50220034086401,"true"
"image-keyboard-response",229,181685,"0.0-4.72-1.72","t0x6vxx70vsqmdh",139,"92.csv","","null","resources/maskTrios/L1BB.jpg","null","",NA,NA,NA,NA,""
"image-keyboard-response",230,182889,"0.0-4.72-2.72","t0x6vxx70vsqmdh",139,"92.csv","","null","resources/images/coin2.png","null","",NA,NA,NA,NA,""
"image-keyboard-response",231,183179,"0.0-4.73-0.73","t0x6vxx70vsqmdh",139,"92.csv","","288","resources/trios/L1T2A3.jpg","37","restless",0.6,0.7,0.4,0.673325411712273,"false"
"image-keyboard-response",232,183582,"0.0-4.73-1.73","t0x6vxx70vsqmdh",139,"92.csv","","null","resources/maskTrios/L1BB.jpg","null","",NA,NA,NA,NA,""
"image-keyboard-response",233,184786,"0.0-4.73-2.73","t0x6vxx70vsqmdh",139,"92.csv","","null","resources/images/fishbone.png","null","",NA,NA,NA,NA,""
"image-keyboard-response",234,185238,"0.0-4.74-0.74","t0x6vxx70vsqmdh",139,"92.csv","","450","resources/trios/L1T2A3.jpg","39","restless",0.6,0.7,0.4,0.292336423985494,"true"
"image-keyboard-response",235,185641,"0.0-4.74-1.74","t0x6vxx70vsqmdh",139,"92.csv","","null","resources/maskTrios/BBA3.jpg","null","",NA,NA,NA,NA,""
"image-keyboard-response",236,186844,"0.0-4.74-2.74","t0x6vxx70vsqmdh",139,"92.csv","","null","resources/images/coin2.png","null","",NA,NA,NA,NA,""
"image-keyboard-response",237,187179,"0.0-4.75-0.75","t0x6vxx70vsqmdh",139,"92.csv","","333","resources/trios/L1T2A3.jpg","39","restless",0.6,0.7,0.4,0.163624401591164,"true"
"image-keyboard-response",238,187582,"0.0-4.75-1.75","t0x6vxx70vsqmdh",139,"92.csv","","null","resources/maskTrios/BBA3.jpg","null","",NA,NA,NA,NA,""
"image-keyboard-response",239,188783,"0.0-4.75-2.75","t0x6vxx70vsqmdh",139,"92.csv","","null","resources/images/coin2.png","null","",NA,NA,NA,NA,""
"image-keyboard-response",240,189076,"0.0-4.76-0.76","t0x6vxx70vsqmdh",139,"92.csv","","291.0000000000291","resources/trios/L1T2A3.jpg","39","restless",0.6,0.7,0.4,0.457123820557193,"false"
"image-keyboard-response",241,189479,"0.0-4.76-1.76","t0x6vxx70vsqmdh",139,"92.csv","","null","resources/maskTrios/BBA3.jpg","null","",NA,NA,NA,NA,""
"image-keyboard-response",242,190682,"0.0-4.76-2.76","t0x6vxx70vsqmdh",139,"92.csv","","null","resources/images/fishbone.png","null","",NA,NA,NA,NA,""
"image-keyboard-response",243,190723,"0.0-4.77-0.77","t0x6vxx70vsqmdh",139,"92.csv","","38","resources/trios/L1T2A3.jpg","38","restless",0.6,0.7,0.4,0.590335246542042,"true"
"image-keyboard-response",244,191126,"0.0-4.77-1.77","t0x6vxx70vsqmdh",139,"92.csv","","null","resources/maskTrios/BT2B.jpg","null","",NA,NA,NA,NA,""
"image-keyboard-response",245,192330,"0.0-4.77-2.77","t0x6vxx70vsqmdh",139,"92.csv","","null","resources/images/coin2.png","null","",NA,NA,NA,NA,""
"image-keyboard-response",246,192675,"0.0-4.78-0.78","t0x6vxx70vsqmdh",139,"92.csv","","343.9999999999709","resources/trios/L1T2A3.jpg","38","restless",0.5,0.7,0.4,0.572943067021687,"true"
"image-keyboard-response",247,193078,"0.0-4.78-1.78","t0x6vxx70vsqmdh",139,"92.csv","","null","resources/maskTrios/BT2B.jpg","null","",NA,NA,NA,NA,""
"image-keyboard-response",248,194282,"0.0-4.78-2.78","t0x6vxx70vsqmdh",139,"92.csv","","null","resources/images/coin2.png","null","",NA,NA,NA,NA,""
"image-keyboard-response",249,194547,"0.0-4.79-0.79","t0x6vxx70vsqmdh",139,"92.csv","","264","resources/trios/L1T2A3.jpg","38","restless",0.5,0.8,0.4,0.473684938515632,"true"
"image-keyboard-response",250,194951,"0.0-4.79-1.79","t0x6vxx70vsqmdh",139,"92.csv","","null","resources/maskTrios/BT2B.jpg","null","",NA,NA,NA,NA,""
"image-keyboard-response",251,196154,"0.0-4.79-2.79","t0x6vxx70vsqmdh",139,"92.csv","","null","resources/images/coin2.png","null","",NA,NA,NA,NA,""
"image-keyboard-response",252,196535,"0.0-4.80-0.80","t0x6vxx70vsqmdh",139,"92.csv","","380","resources/trios/L1T2A3.jpg","38","restless",0.5,0.8,0.4,0.110384022104213,"true"
"image-keyboard-response",253,196937,"0.0-4.80-1.80","t0x6vxx70vsqmdh",139,"92.csv","","null","resources/maskTrios/BT2B.jpg","null","",NA,NA,NA,NA,""
"image-keyboard-response",254,198141,"0.0-4.80-2.80","t0x6vxx70vsqmdh",139,"92.csv","","null","resources/images/coin2.png","null","",NA,NA,NA,NA,""
"image-keyboard-response",255,198446,"0.0-4.81-0.81","t0x6vxx70vsqmdh",139,"92.csv","","302","resources/trios/L1T2A3.jpg","38","restless",0.5,0.8,0.4,0.568216833298907,"true"
"image-keyboard-response",256,198850,"0.0-4.81-1.81","t0x6vxx70vsqmdh",139,"92.csv","","null","resources/maskTrios/BT2B.jpg","null","",NA,NA,NA,NA,""
"image-keyboard-response",257,200054,"0.0-4.81-2.81","t0x6vxx70vsqmdh",139,"92.csv","","null","resources/images/coin2.png","null","",NA,NA,NA,NA,""
"image-keyboard-response",258,200234,"0.0-4.82-0.82","t0x6vxx70vsqmdh",139,"92.csv","","179","resources/trios/L1T2A3.jpg","38","restless",0.5,0.8,0.4,0.557500074239693,"true"
"image-keyboard-response",259,200638,"0.0-4.82-1.82","t0x6vxx70vsqmdh",139,"92.csv","","null","resources/maskTrios/BT2B.jpg","null","",NA,NA,NA,NA,""
"image-keyboard-response",260,201841,"0.0-4.82-2.82","t0x6vxx70vsqmdh",139,"92.csv","","null","resources/images/coin2.png","null","",NA,NA,NA,NA,""
"image-keyboard-response",261,202091,"0.0-4.83-0.83","t0x6vxx70vsqmdh",139,"92.csv","","248","resources/trios/L1T2A3.jpg","38","restless",0.5,0.8,0.4,0.96035166021995,"false"
"image-keyboard-response",262,202495,"0.0-4.83-1.83","t0x6vxx70vsqmdh",139,"92.csv","","null","resources/maskTrios/BT2B.jpg","null","",NA,NA,NA,NA,""
"image-keyboard-response",263,203696,"0.0-4.83-2.83","t0x6vxx70vsqmdh",139,"92.csv","","null","resources/images/fishbone.png","null","",NA,NA,NA,NA,""
"image-keyboard-response",264,203949,"0.0-4.84-0.84","t0x6vxx70vsqmdh",139,"92.csv","","252","resources/trios/L1T2A3.jpg","39","restless",0.5,0.9,0.4,0.85660072300905,"false"
"image-keyboard-response",265,204353,"0.0-4.84-1.84","t0x6vxx70vsqmdh",139,"92.csv","","null","resources/maskTrios/BBA3.jpg","null","",NA,NA,NA,NA,""
"image-keyboard-response",266,205554,"0.0-4.84-2.84","t0x6vxx70vsqmdh",139,"92.csv","","null","resources/images/fishbone.png","null","",NA,NA,NA,NA,""
"image-keyboard-response",267,205869,"0.0-4.85-0.85","t0x6vxx70vsqmdh",139,"92.csv","","314","resources/trios/L1T2A3.jpg","38","restless",0.5,0.9,0.4,0.0759619209073705,"true"
"image-keyboard-response",268,206273,"0.0-4.85-1.85","t0x6vxx70vsqmdh",139,"92.csv","","null","resources/maskTrios/BT2B.jpg","null","",NA,NA,NA,NA,""
"image-keyboard-response",269,207476,"0.0-4.85-2.85","t0x6vxx70vsqmdh",139,"92.csv","","null","resources/images/coin2.png","null","",NA,NA,NA,NA,""
"image-keyboard-response",270,207782,"0.0-4.86-0.86","t0x6vxx70vsqmdh",139,"92.csv","","304","resources/trios/L1T2A3.jpg","38","restless",0.5,0.8,0.4,0.779485170475912,"true"
"image-keyboard-response",271,208185,"0.0-4.86-1.86","t0x6vxx70vsqmdh",139,"92.csv","","null","resources/maskTrios/BT2B.jpg","null","",NA,NA,NA,NA,""
"image-keyboard-response",272,209389,"0.0-4.86-2.86","t0x6vxx70vsqmdh",139,"92.csv","","null","resources/images/coin2.png","null","",NA,NA,NA,NA,""
"image-keyboard-response",273,209708,"0.0-4.87-0.87","t0x6vxx70vsqmdh",139,"92.csv","","315.9999999999709","resources/trios/L1T2A3.jpg","38","restless",0.5,0.8,0.4,0.526727174477155,"true"
"image-keyboard-response",274,210110,"0.0-4.87-1.87","t0x6vxx70vsqmdh",139,"92.csv","","null","resources/maskTrios/BT2B.jpg","null","",NA,NA,NA,NA,""
"image-keyboard-response",275,211314,"0.0-4.87-2.87","t0x6vxx70vsqmdh",139,"92.csv","","null","resources/images/coin2.png","null","",NA,NA,NA,NA,""
"image-keyboard-response",276,211641,"0.0-4.88-0.88","t0x6vxx70vsqmdh",139,"92.csv","","326","resources/trios/L1T2A3.jpg","38","restless",0.5,0.8,0.4,0.441918707807026,"true"
"image-keyboard-response",277,212044,"0.0-4.88-1.88","t0x6vxx70vsqmdh",139,"92.csv","","null","resources/maskTrios/BT2B.jpg","null","",NA,NA,NA,NA,""
"image-keyboard-response",278,213248,"0.0-4.88-2.88","t0x6vxx70vsqmdh",139,"92.csv","","null","resources/images/coin2.png","null","",NA,NA,NA,NA,""
"image-keyboard-response",279,213664,"0.0-4.89-0.89","t0x6vxx70vsqmdh",139,"92.csv","","414.9999999999709","resources/trios/L1T2A3.jpg","38","restless",0.4,0.8,0.4,0.437500708049808,"true"
"image-keyboard-response",280,214068,"0.0-4.89-1.89","t0x6vxx70vsqmdh",139,"92.csv","","null","resources/maskTrios/BT2B.jpg","null","",NA,NA,NA,NA,""
"image-keyboard-response",281,215271,"0.0-4.89-2.89","t0x6vxx70vsqmdh",139,"92.csv","","null","resources/images/coin2.png","null","",NA,NA,NA,NA,""
"image-keyboard-response",282,215354,"0.0-4.90-0.90","t0x6vxx70vsqmdh",139,"92.csv","","80","resources/trios/L1T2A3.jpg","38","restless",0.4,0.8,0.4,0.948624820559045,"false"
"image-keyboard-response",283,215756,"0.0-4.90-1.90","t0x6vxx70vsqmdh",139,"92.csv","","null","resources/maskTrios/BT2B.jpg","null","",NA,NA,NA,NA,""
"image-keyboard-response",284,216959,"0.0-4.90-2.90","t0x6vxx70vsqmdh",139,"92.csv","","null","resources/images/fishbone.png","null","",NA,NA,NA,NA,""
"image-keyboard-response",285,217265,"0.0-4.91-0.91","t0x6vxx70vsqmdh",139,"92.csv","","305","resources/trios/L1T2A3.jpg","37","restless",0.5,0.8,0.4,0.474110552797999,"true"
"image-keyboard-response",286,217666,"0.0-4.91-1.91","t0x6vxx70vsqmdh",139,"92.csv","","null","resources/maskTrios/L1BB.jpg","null","",NA,NA,NA,NA,""
"image-keyboard-response",287,218870,"0.0-4.91-2.91","t0x6vxx70vsqmdh",139,"92.csv","","null","resources/images/coin2.png","null","",NA,NA,NA,NA,""
"image-keyboard-response",288,219189,"0.0-4.92-0.92","t0x6vxx70vsqmdh",139,"92.csv","","318.0000000000291","resources/trios/L1T2A3.jpg","37","restless",0.5,0.8,0.5,0.136170420336418,"true"
"image-keyboard-response",289,219593,"0.0-4.92-1.92","t0x6vxx70vsqmdh",139,"92.csv","","null","resources/maskTrios/L1BB.jpg","null","",NA,NA,NA,NA,""
"image-keyboard-response",290,220796,"0.0-4.92-2.92","t0x6vxx70vsqmdh",139,"92.csv","","null","resources/images/coin2.png","null","",NA,NA,NA,NA,""
"image-keyboard-response",291,221006,"0.0-4.93-0.93","t0x6vxx70vsqmdh",139,"92.csv","","209","resources/trios/L1T2A3.jpg","37","restless",0.5,0.8,0.5,0.914316181043289,"false"
"image-keyboard-response",292,221409,"0.0-4.93-1.93","t0x6vxx70vsqmdh",139,"92.csv","","null","resources/maskTrios/L1BB.jpg","null","",NA,NA,NA,NA,""
"image-keyboard-response",293,222610,"0.0-4.93-2.93","t0x6vxx70vsqmdh",139,"92.csv","","null","resources/images/fishbone.png","null","",NA,NA,NA,NA,""
"image-keyboard-response",294,222883,"0.0-4.94-0.94","t0x6vxx70vsqmdh",139,"92.csv","","272","resources/trios/L1T2A3.jpg","38","restless",0.5,0.8,0.5,0.383755615830296,"true"
"image-keyboard-response",295,223287,"0.0-4.94-1.94","t0x6vxx70vsqmdh",139,"92.csv","","null","resources/maskTrios/BT2B.jpg","null","",NA,NA,NA,NA,""
"image-keyboard-response",296,224491,"0.0-4.94-2.94","t0x6vxx70vsqmdh",139,"92.csv","","null","resources/images/coin2.png","null","",NA,NA,NA,NA,""
"image-keyboard-response",297,224826,"0.0-4.95-0.95","t0x6vxx70vsqmdh",139,"92.csv","","334.0000000000291","resources/trios/L1T2A3.jpg","38","restless",0.5,0.8,0.5,0.736894503390258,"true"
"image-keyboard-response",298,225230,"0.0-4.95-1.95","t0x6vxx70vsqmdh",139,"92.csv","","null","resources/maskTrios/BT2B.jpg","null","",NA,NA,NA,NA,""
"image-keyboard-response",299,226433,"0.0-4.95-2.95","t0x6vxx70vsqmdh",139,"92.csv","","null","resources/images/coin2.png","null","",NA,NA,NA,NA,""
"image-keyboard-response",300,226705,"0.0-4.96-0.96","t0x6vxx70vsqmdh",139,"92.csv","","271","resources/trios/L1T2A3.jpg","38","restless",0.5,0.8,0.5,0.992324093808117,"false"
"image-keyboard-response",301,227109,"0.0-4.96-1.96","t0x6vxx70vsqmdh",139,"92.csv","","null","resources/maskTrios/BT2B.jpg","null","",NA,NA,NA,NA,""
"image-keyboard-response",302,228312,"0.0-4.96-2.96","t0x6vxx70vsqmdh",139,"92.csv","","null","resources/images/fishbone.png","null","",NA,NA,NA,NA,""
"image-keyboard-response",303,228607,"0.0-4.97-0.97","t0x6vxx70vsqmdh",139,"92.csv","","294","resources/trios/L1T2A3.jpg","37","restless",0.4,0.8,0.5,0.27825721000364,"true"
"image-keyboard-response",304,229011,"0.0-4.97-1.97","t0x6vxx70vsqmdh",139,"92.csv","","null","resources/maskTrios/L1BB.jpg","null","",NA,NA,NA,NA,""
"image-keyboard-response",305,230216,"0.0-4.97-2.97","t0x6vxx70vsqmdh",139,"92.csv","","null","resources/images/coin2.png","null","",NA,NA,NA,NA,""
"image-keyboard-response",306,230512,"0.0-4.98-0.98","t0x6vxx70vsqmdh",139,"92.csv","","295","resources/trios/L1T2A3.jpg","37","restless",0.4,0.8,0.5,0.0272398227963058,"true"
"image-keyboard-response",307,230914,"0.0-4.98-1.98","t0x6vxx70vsqmdh",139,"92.csv","","null","resources/maskTrios/L1BB.jpg","null","",NA,NA,NA,NA,""
"image-keyboard-response",308,232118,"0.0-4.98-2.98","t0x6vxx70vsqmdh",139,"92.csv","","null","resources/images/coin2.png","null","",NA,NA,NA,NA,""
"image-keyboard-response",309,232352,"0.0-4.99-0.99","t0x6vxx70vsqmdh",139,"92.csv","","233","resources/trios/L1T2A3.jpg","37","restless",0.4,0.8,0.5,0.118666385029771,"true"
"image-keyboard-response",310,232755,"0.0-4.99-1.99","t0x6vxx70vsqmdh",139,"92.csv","","null","resources/maskTrios/L1BB.jpg","null","",NA,NA,NA,NA,""
"image-keyboard-response",311,233958,"0.0-4.99-2.99","t0x6vxx70vsqmdh",139,"92.csv","","null","resources/images/coin2.png","null","",NA,NA,NA,NA,""
"image-keyboard-response",312,234239,"0.0-4.100-0.100","t0x6vxx70vsqmdh",139,"92.csv","","279","resources/trios/L1T2A3.jpg","37","restless",0.4,0.8,0.5,0.129811818790719,"true"
"image-keyboard-response",313,234642,"0.0-4.100-1.100","t0x6vxx70vsqmdh",139,"92.csv","","null","resources/maskTrios/L1BB.jpg","null","",NA,NA,NA,NA,""
"image-keyboard-response",314,235846,"0.0-4.100-2.100","t0x6vxx70vsqmdh",139,"92.csv","","null","resources/images/coin2.png","null","",NA,NA,NA,NA,""
"image-keyboard-response",315,236008,"0.0-4.101-0.101","t0x6vxx70vsqmdh",139,"92.csv","","160","resources/trios/L1T2A3.jpg","37","restless",0.4,0.8,0.5,0.875256650827476,"false"
"image-keyboard-response",316,236411,"0.0-4.101-1.101","t0x6vxx70vsqmdh",139,"92.csv","","null","resources/maskTrios/L1BB.jpg","null","",NA,NA,NA,NA,""
"image-keyboard-response",317,237614,"0.0-4.101-2.101","t0x6vxx70vsqmdh",139,"92.csv","","null","resources/images/fishbone.png","null","",NA,NA,NA,NA,""
"image-keyboard-response",318,237743,"0.0-4.102-0.102","t0x6vxx70vsqmdh",139,"92.csv","","128","resources/trios/L1T2A3.jpg","39","restless",0.4,0.8,0.5,0.185961650299177,"true"
"image-keyboard-response",319,238146,"0.0-4.102-1.102","t0x6vxx70vsqmdh",139,"92.csv","","null","resources/maskTrios/BBA3.jpg","null","",NA,NA,NA,NA,""
"image-keyboard-response",320,239350,"0.0-4.102-2.102","t0x6vxx70vsqmdh",139,"92.csv","","null","resources/images/coin2.png","null","",NA,NA,NA,NA,""
"image-keyboard-response",321,239620,"0.0-4.103-0.103","t0x6vxx70vsqmdh",139,"92.csv","","267","resources/trios/L1T2A3.jpg","39","restless",0.4,0.8,0.5,0.671454912630455,"false"
"image-keyboard-response",322,240023,"0.0-4.103-1.103","t0x6vxx70vsqmdh",139,"92.csv","","null","resources/maskTrios/BBA3.jpg","null","",NA,NA,NA,NA,""
"image-keyboard-response",323,241227,"0.0-4.103-2.103","t0x6vxx70vsqmdh",139,"92.csv","","null","resources/images/fishbone.png","null","",NA,NA,NA,NA,""
"image-keyboard-response",324,241401,"0.0-4.104-0.104","t0x6vxx70vsqmdh",139,"92.csv","","172","resources/trios/L1T2A3.jpg","38","restless",0.4,0.8,0.5,0.782443731828583,"true"
"image-keyboard-response",325,241805,"0.0-4.104-1.104","t0x6vxx70vsqmdh",139,"92.csv","","null","resources/maskTrios/BT2B.jpg","null","",NA,NA,NA,NA,""
"image-keyboard-response",326,243008,"0.0-4.104-2.104","t0x6vxx70vsqmdh",139,"92.csv","","null","resources/images/coin2.png","null","",NA,NA,NA,NA,""
"image-keyboard-response",327,243041,"0.0-4.105-0.105","t0x6vxx70vsqmdh",139,"92.csv","","31","resources/trios/L1T2A3.jpg","38","restless",0.4,0.8,0.5,0.403322206122865,"true"
"image-keyboard-response",328,243443,"0.0-4.105-1.105","t0x6vxx70vsqmdh",139,"92.csv","","null","resources/maskTrios/BT2B.jpg","null","",NA,NA,NA,NA,""
"image-keyboard-response",329,244647,"0.0-4.105-2.105","t0x6vxx70vsqmdh",139,"92.csv","","null","resources/images/coin2.png","null","",NA,NA,NA,NA,""
"image-keyboard-response",330,245041,"0.0-4.106-0.106","t0x6vxx70vsqmdh",139,"92.csv","","391.9999999999709","resources/trios/L1T2A3.jpg","38","restless",0.4,0.8,0.5,0.231958045271033,"true"
"image-keyboard-response",331,245445,"0.0-4.106-1.106","t0x6vxx70vsqmdh",139,"92.csv","","null","resources/maskTrios/BT2B.jpg","null","",NA,NA,NA,NA,""
"image-keyboard-response",332,246648,"0.0-4.106-2.106","t0x6vxx70vsqmdh",139,"92.csv","","null","resources/images/coin2.png","null","",NA,NA,NA,NA,""
"image-keyboard-response",333,247934,"0.0-4.107-0.107","t0x6vxx70vsqmdh",139,"92.csv","","1284.000000000029","resources/trios/L1T2A3.jpg","38","restless",0.4,0.8,0.6,0.533490719496081,"true"
"image-keyboard-response",334,248337,"0.0-4.107-1.107","t0x6vxx70vsqmdh",139,"92.csv","","null","resources/maskTrios/BT2B.jpg","null","",NA,NA,NA,NA,""
"image-keyboard-response",335,249540,"0.0-4.107-2.107","t0x6vxx70vsqmdh",139,"92.csv","","null","resources/images/coin2.png","null","",NA,NA,NA,NA,""
"image-keyboard-response",336,252101,"0.0-4.108-0.108","t0x6vxx70vsqmdh",139,"92.csv","","2558.999999999971","resources/trios/L1T2A3.jpg","38","restless",0.4,0.8,0.6,0.521264912002732,"true"
"image-keyboard-response",337,252505,"0.0-4.108-1.108","t0x6vxx70vsqmdh",139,"92.csv","","null","resources/maskTrios/BT2B.jpg","null","",NA,NA,NA,NA,""
"image-keyboard-response",338,253707,"0.0-4.108-2.108","t0x6vxx70vsqmdh",139,"92.csv","","null","resources/images/coin2.png","null","",NA,NA,NA,NA,""
"image-keyboard-response",339,253908,"0.0-4.109-0.109","t0x6vxx70vsqmdh",139,"92.csv","","199.9999999999709","resources/trios/L1T2A3.jpg","38","restless",0.4,0.8,0.6,0.355297025073985,"true"
"image-keyboard-response",340,254311,"0.0-4.109-1.109","t0x6vxx70vsqmdh",139,"92.csv","","null","resources/maskTrios/BT2B.jpg","null","",NA,NA,NA,NA,""
"image-keyboard-response",341,255514,"0.0-4.109-2.109","t0x6vxx70vsqmdh",139,"92.csv","","null","resources/images/coin2.png","null","",NA,NA,NA,NA,""
"image-keyboard-response",342,257215,"0.0-4.110-0.110","t0x6vxx70vsqmdh",139,"92.csv","","1699","resources/trios/L1T2A3.jpg","38","restless",0.4,0.8,0.6,0.16716964126,"true"
"image-keyboard-response",343,257619,"0.0-4.110-1.110","t0x6vxx70vsqmdh",139,"92.csv","","null","resources/maskTrios/BT2B.jpg","null","",NA,NA,NA,NA,""
"image-keyboard-response",344,258822,"0.0-4.110-2.110","t0x6vxx70vsqmdh",139,"92.csv","","null","resources/images/coin2.png","null","",NA,NA,NA,NA,""
"image-keyboard-response",345,258894,"0.0-4.111-0.111","t0x6vxx70vsqmdh",139,"92.csv","","70","resources/trios/L1T2A3.jpg","38","restless",0.4,0.8,0.6,0.902776521499414,"false"
"image-keyboard-response",346,259298,"0.0-4.111-1.111","t0x6vxx70vsqmdh",139,"92.csv","","null","resources/maskTrios/BT2B.jpg","null","",NA,NA,NA,NA,""
"image-keyboard-response",347,260500,"0.0-4.111-2.111","t0x6vxx70vsqmdh",139,"92.csv","","null","resources/images/fishbone.png","null","",NA,NA,NA,NA,""
"image-keyboard-response",348,260815,"0.0-4.112-0.112","t0x6vxx70vsqmdh",139,"92.csv","","314","resources/trios/L1T2A3.jpg","37","restless",0.4,0.8,0.6,0.679927097777591,"false"
"image-keyboard-response",349,261219,"0.0-4.112-1.112","t0x6vxx70vsqmdh",139,"92.csv","","null","resources/maskTrios/L1BB.jpg","null","",NA,NA,NA,NA,""
"image-keyboard-response",350,262422,"0.0-4.112-2.112","t0x6vxx70vsqmdh",139,"92.csv","","null","resources/images/fishbone.png","null","",NA,NA,NA,NA,""
"image-keyboard-response",351,262803,"0.0-4.113-0.113","t0x6vxx70vsqmdh",139,"92.csv","","380","resources/trios/L1T2A3.jpg","38","restless",0.4,0.8,0.6,0.472951519717257,"true"
"image-keyboard-response",352,263207,"0.0-4.113-1.113","t0x6vxx70vsqmdh",139,"92.csv","","null","resources/maskTrios/BT2B.jpg","null","",NA,NA,NA,NA,""
"image-keyboard-response",353,264410,"0.0-4.113-2.113","t0x6vxx70vsqmdh",139,"92.csv","","null","resources/images/coin2.png","null","",NA,NA,NA,NA,""
"image-keyboard-response",354,264511,"0.0-4.114-0.114","t0x6vxx70vsqmdh",139,"92.csv","","96.99999999994179","resources/trios/L1T2A3.jpg","38","restless",0.4,0.9,0.6,0.626856466240119,"true"
"image-keyboard-response",355,264915,"0.0-4.114-1.114","t0x6vxx70vsqmdh",139,"92.csv","","null","resources/maskTrios/BT2B.jpg","null","",NA,NA,NA,NA,""
"image-keyboard-response",356,266119,"0.0-4.114-2.114","t0x6vxx70vsqmdh",139,"92.csv","","null","resources/images/coin2.png","null","",NA,NA,NA,NA,""
"image-keyboard-response",357,266307,"0.0-4.115-0.115","t0x6vxx70vsqmdh",139,"92.csv","","187","resources/trios/L1T2A3.jpg","38","restless",0.4,0.8,0.6,0.642876777286641,"true"
"image-keyboard-response",358,266711,"0.0-4.115-1.115","t0x6vxx70vsqmdh",139,"92.csv","","null","resources/maskTrios/BT2B.jpg","null","",NA,NA,NA,NA,""
"image-keyboard-response",359,267914,"0.0-4.115-2.115","t0x6vxx70vsqmdh",139,"92.csv","","null","resources/images/coin2.png","null","",NA,NA,NA,NA,""
"image-keyboard-response",360,268009,"0.0-4.116-0.116","t0x6vxx70vsqmdh",139,"92.csv","","94","resources/trios/L1T2A3.jpg","38","restless",0.4,0.8,0.6,0.886176166452644,"false"
"image-keyboard-response",361,268413,"0.0-4.116-1.116","t0x6vxx70vsqmdh",139,"92.csv","","null","resources/maskTrios/BT2B.jpg","null","",NA,NA,NA,NA,""
"image-keyboard-response",362,269616,"0.0-4.116-2.116","t0x6vxx70vsqmdh",139,"92.csv","","null","resources/images/fishbone.png","null","",NA,NA,NA,NA,""
"image-keyboard-response",363,269919,"0.0-4.117-0.117","t0x6vxx70vsqmdh",139,"92.csv","","301","resources/trios/L1T2A3.jpg","37","restless",0.4,0.8,0.6,0.885895397829395,"false"
"image-keyboard-response",364,270322,"0.0-4.117-1.117","t0x6vxx70vsqmdh",139,"92.csv","","null","resources/maskTrios/L1BB.jpg","null","",NA,NA,NA,NA,""
"image-keyboard-response",365,271526,"0.0-4.117-2.117","t0x6vxx70vsqmdh",139,"92.csv","","null","resources/images/fishbone.png","null","",NA,NA,NA,NA,""
"image-keyboard-response",366,271669,"0.0-4.118-0.118","t0x6vxx70vsqmdh",139,"92.csv","","140","resources/trios/L1T2A3.jpg","38","restless",0.4,0.7,0.7,0.357595975963178,"true"
"image-keyboard-response",367,272073,"0.0-4.118-1.118","t0x6vxx70vsqmdh",139,"92.csv","","null","resources/maskTrios/BT2B.jpg","null","",NA,NA,NA,NA,""
"image-keyboard-response",368,273276,"0.0-4.118-2.118","t0x6vxx70vsqmdh",139,"92.csv","","null","resources/images/coin2.png","null","",NA,NA,NA,NA,""
"image-keyboard-response",369,273688,"0.0-4.119-0.119","t0x6vxx70vsqmdh",139,"92.csv","","409","resources/trios/L1T2A3.jpg","38","restless",0.4,0.6,0.6,0.595773382426896,"true"
"image-keyboard-response",370,274091,"0.0-4.119-1.119","t0x6vxx70vsqmdh",139,"92.csv","","null","resources/maskTrios/BT2B.jpg","null","",NA,NA,NA,NA,""
"image-keyboard-response",371,275293,"0.0-4.119-2.119","t0x6vxx70vsqmdh",139,"92.csv","","null","resources/images/coin2.png","null","",NA,NA,NA,NA,""
"image-keyboard-response",372,275771,"0.0-4.120-0.120","t0x6vxx70vsqmdh",139,"92.csv","","478","resources/trios/L1T2A3.jpg","38","restless",0.4,0.6,0.6,0.934404628217034,"false"
"image-keyboard-response",373,276175,"0.0-4.120-1.120","t0x6vxx70vsqmdh",139,"92.csv","","null","resources/maskTrios/BT2B.jpg","null","",NA,NA,NA,NA,""
"image-keyboard-response",374,277378,"0.0-4.120-2.120","t0x6vxx70vsqmdh",139,"92.csv","","null","resources/images/fishbone.png","null","",NA,NA,NA,NA,""
"image-keyboard-response",375,277674,"0.0-4.121-0.121","t0x6vxx70vsqmdh",139,"92.csv","","294","resources/trios/L1T2A3.jpg","37","restless",0.4,0.6,0.6,0.942317927759747,"false"
"image-keyboard-response",376,278077,"0.0-4.121-1.121","t0x6vxx70vsqmdh",139,"92.csv","","null","resources/maskTrios/L1BB.jpg","null","",NA,NA,NA,NA,""
"image-keyboard-response",377,279282,"0.0-4.121-2.121","t0x6vxx70vsqmdh",139,"92.csv","","null","resources/images/fishbone.png","null","",NA,NA,NA,NA,""
"image-keyboard-response",378,279548,"0.0-4.122-0.122","t0x6vxx70vsqmdh",139,"92.csv","","264","resources/trios/L1T2A3.jpg","38","restless",0.4,0.5,0.6,0.604204280992801,"false"
"image-keyboard-response",379,279950,"0.0-4.122-1.122","t0x6vxx70vsqmdh",139,"92.csv","","null","resources/maskTrios/BT2B.jpg","null","",NA,NA,NA,NA,""
"image-keyboard-response",380,281153,"0.0-4.122-2.122","t0x6vxx70vsqmdh",139,"92.csv","","null","resources/images/fishbone.png","null","",NA,NA,NA,NA,""
"image-keyboard-response",381,281420,"0.0-4.123-0.123","t0x6vxx70vsqmdh",139,"92.csv","","267","resources/trios/L1T2A3.jpg","39","restless",0.4,0.4,0.6,0.228603739333217,"true"
"image-keyboard-response",382,281824,"0.0-4.123-1.123","t0x6vxx70vsqmdh",139,"92.csv","","null","resources/maskTrios/BBA3.jpg","null","",NA,NA,NA,NA,""
"image-keyboard-response",383,283028,"0.0-4.123-2.123","t0x6vxx70vsqmdh",139,"92.csv","","null","resources/images/coin2.png","null","",NA,NA,NA,NA,""
"image-keyboard-response",384,283351,"0.0-4.124-0.124","t0x6vxx70vsqmdh",139,"92.csv","","323","resources/trios/L1T2A3.jpg","39","restless",0.5,0.4,0.6,0.17638135808557,"true"
"image-keyboard-response",385,283754,"0.0-4.124-1.124","t0x6vxx70vsqmdh",139,"92.csv","","null","resources/maskTrios/BBA3.jpg","null","",NA,NA,NA,NA,""
"image-keyboard-response",386,284957,"0.0-4.124-2.124","t0x6vxx70vsqmdh",139,"92.csv","","null","resources/images/coin2.png","null","",NA,NA,NA,NA,""
"image-keyboard-response",387,285261,"0.0-4.125-0.125","t0x6vxx70vsqmdh",139,"92.csv","","301","resources/trios/L1T2A3.jpg","39","restless",0.6,0.4,0.6,0.900769664674321,"false"
"image-keyboard-response",388,285665,"0.0-4.125-1.125","t0x6vxx70vsqmdh",139,"92.csv","","null","resources/maskTrios/BBA3.jpg","null","",NA,NA,NA,NA,""
"image-keyboard-response",389,286868,"0.0-4.125-2.125","t0x6vxx70vsqmdh",139,"92.csv","","null","resources/images/fishbone.png","null","",NA,NA,NA,NA,""
"image-keyboard-response",390,287151,"0.0-4.126-0.126","t0x6vxx70vsqmdh",139,"92.csv","","282","resources/trios/L1T2A3.jpg","38","restless",0.6,0.4,0.6,0.534170219343228,"false"
"image-keyboard-response",391,287555,"0.0-4.126-1.126","t0x6vxx70vsqmdh",139,"92.csv","","null","resources/maskTrios/BT2B.jpg","null","",NA,NA,NA,NA,""
"image-keyboard-response",392,288757,"0.0-4.126-2.126","t0x6vxx70vsqmdh",139,"92.csv","","null","resources/images/fishbone.png","null","",NA,NA,NA,NA,""
"image-keyboard-response",393,289012,"0.0-4.127-0.127","t0x6vxx70vsqmdh",139,"92.csv","","253","resources/trios/L1T2A3.jpg","39","restless",0.6,0.4,0.6,0.861570136661672,"false"
"image-keyboard-response",394,289416,"0.0-4.127-1.127","t0x6vxx70vsqmdh",139,"92.csv","","null","resources/maskTrios/BBA3.jpg","null","",NA,NA,NA,NA,""
"image-keyboard-response",395,290619,"0.0-4.127-2.127","t0x6vxx70vsqmdh",139,"92.csv","","null","resources/images/fishbone.png","null","",NA,NA,NA,NA,""
"image-keyboard-response",396,290853,"0.0-4.128-0.128","t0x6vxx70vsqmdh",139,"92.csv","","231","resources/trios/L1T2A3.jpg","37","restless",0.6,0.4,0.6,0.5668041123439,"true"
"image-keyboard-response",397,291256,"0.0-4.128-1.128","t0x6vxx70vsqmdh",139,"92.csv","","null","resources/maskTrios/L1BB.jpg","null","",NA,NA,NA,NA,""
"image-keyboard-response",398,292460,"0.0-4.128-2.128","t0x6vxx70vsqmdh",139,"92.csv","","null","resources/images/coin2.png","null","",NA,NA,NA,NA,""
"image-keyboard-response",399,292747,"0.0-4.129-0.129","t0x6vxx70vsqmdh",139,"92.csv","","286","resources/trios/L1T2A3.jpg","37","restless",0.6,0.4,0.5,0.90805461753536,"false"
"image-keyboard-response",400,293151,"0.0-4.129-1.129","t0x6vxx70vsqmdh",139,"92.csv","","null","resources/maskTrios/L1BB.jpg","null","",NA,NA,NA,NA,""
"image-keyboard-response",401,294354,"0.0-4.129-2.129","t0x6vxx70vsqmdh",139,"92.csv","","null","resources/images/fishbone.png","null","",NA,NA,NA,NA,""
"image-keyboard-response",402,294653,"0.0-4.130-0.130","t0x6vxx70vsqmdh",139,"92.csv","","298","resources/trios/L1T2A3.jpg","38","restless",0.6,0.4,0.5,0.227982909039928,"true"
"image-keyboard-response",403,295056,"0.0-4.130-1.130","t0x6vxx70vsqmdh",139,"92.csv","","null","resources/maskTrios/BT2B.jpg","null","",NA,NA,NA,NA,""
"image-keyboard-response",404,296260,"0.0-4.130-2.130","t0x6vxx70vsqmdh",139,"92.csv","","null","resources/images/coin2.png","null","",NA,NA,NA,NA,""
"image-keyboard-response",405,296463,"0.0-4.131-0.131","t0x6vxx70vsqmdh",139,"92.csv","","201","resources/trios/L1T2A3.jpg","38","restless",0.6,0.4,0.5,0.514381114864553,"false"
"image-keyboard-response",406,296868,"0.0-4.131-1.131","t0x6vxx70vsqmdh",139,"92.csv","","null","resources/maskTrios/BT2B.jpg","null","",NA,NA,NA,NA,""
"image-keyboard-response",407,298069,"0.0-4.131-2.131","t0x6vxx70vsqmdh",139,"92.csv","","null","resources/images/fishbone.png","null","",NA,NA,NA,NA,""
"image-keyboard-response",408,298116,"0.0-4.132-0.132","t0x6vxx70vsqmdh",139,"92.csv","","45","resources/trios/L1T2A3.jpg","39","restless",0.6,0.4,0.5,0.783487118406585,"false"
"image-keyboard-response",409,298519,"0.0-4.132-1.132","t0x6vxx70vsqmdh",139,"92.csv","","null","resources/maskTrios/BBA3.jpg","null","",NA,NA,NA,NA,""
"image-keyboard-response",410,299722,"0.0-4.132-2.132","t0x6vxx70vsqmdh",139,"92.csv","","null","resources/images/fishbone.png","null","",NA,NA,NA,NA,""
"image-keyboard-response",411,300062,"0.0-4.133-0.133","t0x6vxx70vsqmdh",139,"92.csv","","337","resources/trios/L1T2A3.jpg","38","restless",0.6,0.4,0.5,0.0509754223539943,"true"
"image-keyboard-response",412,300465,"0.0-4.133-1.133","t0x6vxx70vsqmdh",139,"92.csv","","null","resources/maskTrios/BT2B.jpg","null","",NA,NA,NA,NA,""
"image-keyboard-response",413,301667,"0.0-4.133-2.133","t0x6vxx70vsqmdh",139,"92.csv","","null","resources/images/coin2.png","null","",NA,NA,NA,NA,""
"image-keyboard-response",414,301825,"0.0-4.134-0.134","t0x6vxx70vsqmdh",139,"92.csv","","156","resources/trios/L1T2A3.jpg","38","restless",0.6,0.4,0.5,0.480370742671853,"false"
"image-keyboard-response",415,302228,"0.0-4.134-1.134","t0x6vxx70vsqmdh",139,"92.csv","","null","resources/maskTrios/BT2B.jpg","null","",NA,NA,NA,NA,""
"image-keyboard-response",416,303431,"0.0-4.134-2.134","t0x6vxx70vsqmdh",139,"92.csv","","null","resources/images/fishbone.png","null","",NA,NA,NA,NA,""
"image-keyboard-response",417,303659,"0.0-4.135-0.135","t0x6vxx70vsqmdh",139,"92.csv","","226","resources/trios/L1T2A3.jpg","39","restless",0.6,0.4,0.5,0.919200411371237,"false"
"image-keyboard-response",418,304062,"0.0-4.135-1.135","t0x6vxx70vsqmdh",139,"92.csv","","null","resources/maskTrios/BBA3.jpg","null","",NA,NA,NA,NA,""
"image-keyboard-response",419,305265,"0.0-4.135-2.135","t0x6vxx70vsqmdh",139,"92.csv","","null","resources/images/fishbone.png","null","",NA,NA,NA,NA,""
"image-keyboard-response",420,305996,"0.0-4.136-0.136","t0x6vxx70vsqmdh",139,"92.csv","","729.9999999999418","resources/trios/L1T2A3.jpg","38","restless",0.6,0.4,0.5,0.414550860895025,"false"
"image-keyboard-response",421,306400,"0.0-4.136-1.136","t0x6vxx70vsqmdh",139,"92.csv","","null","resources/maskTrios/BT2B.jpg","null","",NA,NA,NA,NA,""
"image-keyboard-response",422,307603,"0.0-4.136-2.136","t0x6vxx70vsqmdh",139,"92.csv","","null","resources/images/fishbone.png","null","",NA,NA,NA,NA,""
"image-keyboard-response",423,307854,"0.0-4.137-0.137","t0x6vxx70vsqmdh",139,"92.csv","","247","resources/trios/L1T2A3.jpg","37","restless",0.6,0.4,0.5,0.118989976839302,"true"
"image-keyboard-response",424,308257,"0.0-4.137-1.137","t0x6vxx70vsqmdh",139,"92.csv","","null","resources/maskTrios/L1BB.jpg","null","",NA,NA,NA,NA,""
"image-keyboard-response",425,309460,"0.0-4.137-2.137","t0x6vxx70vsqmdh",139,"92.csv","","null","resources/images/coin2.png","null","",NA,NA,NA,NA,""
"image-keyboard-response",426,309761,"0.0-4.138-0.138","t0x6vxx70vsqmdh",139,"92.csv","","299","resources/trios/L1T2A3.jpg","37","restless",0.6,0.4,0.5,0.645475802301489,"false"
"image-keyboard-response",427,310164,"0.0-4.138-1.138","t0x6vxx70vsqmdh",139,"92.csv","","null","resources/maskTrios/L1BB.jpg","null","",NA,NA,NA,NA,""
"image-keyboard-response",428,311368,"0.0-4.138-2.138","t0x6vxx70vsqmdh",139,"92.csv","","null","resources/images/fishbone.png","null","",NA,NA,NA,NA,""
"image-keyboard-response",429,311575,"0.0-4.139-0.139","t0x6vxx70vsqmdh",139,"92.csv","","207","resources/trios/L1T2A3.jpg","39","restless",0.6,0.5,0.5,0.924674282982291,"false"
"image-keyboard-response",430,311979,"0.0-4.139-1.139","t0x6vxx70vsqmdh",139,"92.csv","","null","resources/maskTrios/BBA3.jpg","null","",NA,NA,NA,NA,""
"image-keyboard-response",431,313181,"0.0-4.139-2.139","t0x6vxx70vsqmdh",139,"92.csv","","null","resources/images/fishbone.png","null","",NA,NA,NA,NA,""
"image-keyboard-response",432,313468,"0.0-4.140-0.140","t0x6vxx70vsqmdh",139,"92.csv","","287.0000000000582","resources/trios/L1T2A3.jpg","37","restless",0.6,0.5,0.5,0.198948424013127,"true"
"image-keyboard-response",433,313872,"0.0-4.140-1.140","t0x6vxx70vsqmdh",139,"92.csv","","null","resources/maskTrios/L1BB.jpg","null","",NA,NA,NA,NA,""
"image-keyboard-response",434,315073,"0.0-4.140-2.140","t0x6vxx70vsqmdh",139,"92.csv","","null","resources/images/coin2.png","null","",NA,NA,NA,NA,""
"image-keyboard-response",435,315207,"0.0-4.141-0.141","t0x6vxx70vsqmdh",139,"92.csv","","132.0000000000582","resources/trios/L1T2A3.jpg","37","restless",0.6,0.5,0.5,0.0627545011514422,"true"
"image-keyboard-response",436,315610,"0.0-4.141-1.141","t0x6vxx70vsqmdh",139,"92.csv","","null","resources/maskTrios/L1BB.jpg","null","",NA,NA,NA,NA,""
"image-keyboard-response",437,316813,"0.0-4.141-2.141","t0x6vxx70vsqmdh",139,"92.csv","","null","resources/images/coin2.png","null","",NA,NA,NA,NA,""
"image-keyboard-response",438,316843,"0.0-4.142-0.142","t0x6vxx70vsqmdh",139,"92.csv","","27.999999999941792","resources/trios/L1T2A3.jpg","37","restless",0.6,0.5,0.5,0.375829127001897,"true"
"image-keyboard-response",439,317245,"0.0-4.142-1.142","t0x6vxx70vsqmdh",139,"92.csv","","null","resources/maskTrios/L1BB.jpg","null","",NA,NA,NA,NA,""
"image-keyboard-response",440,318448,"0.0-4.142-2.142","t0x6vxx70vsqmdh",139,"92.csv","","null","resources/images/coin2.png","null","",NA,NA,NA,NA,""
"image-keyboard-response",441,318776,"0.0-4.143-0.143","t0x6vxx70vsqmdh",139,"92.csv","","326","resources/trios/L1T2A3.jpg","37","restless",0.6,0.5,0.5,0.873766989111865,"false"
"image-keyboard-response",442,319180,"0.0-4.143-1.143","t0x6vxx70vsqmdh",139,"92.csv","","null","resources/maskTrios/L1BB.jpg","null","",NA,NA,NA,NA,""
"image-keyboard-response",443,320381,"0.0-4.143-2.143","t0x6vxx70vsqmdh",139,"92.csv","","null","resources/images/fishbone.png","null","",NA,NA,NA,NA,""
"image-keyboard-response",444,320589,"0.0-4.144-0.144","t0x6vxx70vsqmdh",139,"92.csv","","207.0000000000582","resources/trios/L1T2A3.jpg","39","restless",0.6,0.5,0.5,0.647760727691656,"false"
"image-keyboard-response",445,320990,"0.0-4.144-1.144","t0x6vxx70vsqmdh",139,"92.csv","","null","resources/maskTrios/BBA3.jpg","null","",NA,NA,NA,NA,""
"image-keyboard-response",446,322192,"0.0-4.144-2.144","t0x6vxx70vsqmdh",139,"92.csv","","null","resources/images/fishbone.png","null","",NA,NA,NA,NA,""
"image-keyboard-response",447,322523,"0.0-4.145-0.145","t0x6vxx70vsqmdh",139,"92.csv","","329","resources/trios/L1T2A3.jpg","38","restless",0.6,0.4,0.5,0.202685261790529,"true"
"image-keyboard-response",448,322924,"0.0-4.145-1.145","t0x6vxx70vsqmdh",139,"92.csv","","null","resources/maskTrios/BT2B.jpg","null","",NA,NA,NA,NA,""
"image-keyboard-response",449,324126,"0.0-4.145-2.145","t0x6vxx70vsqmdh",139,"92.csv","","null","resources/images/coin2.png","null","",NA,NA,NA,NA,""
"image-keyboard-response",450,324345,"0.0-4.146-0.146","t0x6vxx70vsqmdh",139,"92.csv","","216","resources/trios/L1T2A3.jpg","38","restless",0.6,0.4,0.5,0.278629356314145,"true"
"image-keyboard-response",451,324746,"0.0-4.146-1.146","t0x6vxx70vsqmdh",139,"92.csv","","null","resources/maskTrios/BT2B.jpg","null","",NA,NA,NA,NA,""
"image-keyboard-response",452,325950,"0.0-4.146-2.146","t0x6vxx70vsqmdh",139,"92.csv","","null","resources/images/coin2.png","null","",NA,NA,NA,NA,""
"image-keyboard-response",453,326202,"0.0-4.147-0.147","t0x6vxx70vsqmdh",139,"92.csv","","251.0000000000582","resources/trios/L1T2A3.jpg","38","restless",0.6,0.4,0.5,0.950108409131234,"false"
"image-keyboard-response",454,326605,"0.0-4.147-1.147","t0x6vxx70vsqmdh",139,"92.csv","","null","resources/maskTrios/BT2B.jpg","null","",NA,NA,NA,NA,""
"image-keyboard-response",455,327808,"0.0-4.147-2.147","t0x6vxx70vsqmdh",139,"92.csv","","null","resources/images/fishbone.png","null","",NA,NA,NA,NA,""
"image-keyboard-response",456,327937,"0.0-4.148-0.148","t0x6vxx70vsqmdh",139,"92.csv","","126","resources/trios/L1T2A3.jpg","39","restless",0.6,0.4,0.5,0.154341051708251,"true"
"image-keyboard-response",457,328339,"0.0-4.148-1.148","t0x6vxx70vsqmdh",139,"92.csv","","null","resources/maskTrios/BBA3.jpg","null","",NA,NA,NA,NA,""
"image-keyboard-response",458,329542,"0.0-4.148-2.148","t0x6vxx70vsqmdh",139,"92.csv","","null","resources/images/coin2.png","null","",NA,NA,NA,NA,""
"image-keyboard-response",459,329685,"0.0-4.149-0.149","t0x6vxx70vsqmdh",139,"92.csv","","141","resources/trios/L1T2A3.jpg","39","restless",0.6,0.4,0.6,0.42414409053483,"true"
"image-keyboard-response",460,330086,"0.0-4.149-1.149","t0x6vxx70vsqmdh",139,"92.csv","","null","resources/maskTrios/BBA3.jpg","null","",NA,NA,NA,NA,""
"image-keyboard-response",461,331289,"0.0-4.149-2.149","t0x6vxx70vsqmdh",139,"92.csv","","null","resources/images/coin2.png","null","",NA,NA,NA,NA,""
"image-keyboard-response",462,331452,"0.0-4.150-0.150","t0x6vxx70vsqmdh",139,"92.csv","","162.0000000000582","resources/trios/L1T2A3.jpg","39","restless",0.5,0.4,0.6,0.426399800248765,"true"
"image-keyboard-response",463,331856,"0.0-4.150-1.150","t0x6vxx70vsqmdh",139,"92.csv","","null","resources/maskTrios/BBA3.jpg","null","",NA,NA,NA,NA,""
"image-keyboard-response",464,333059,"0.0-4.150-2.150","t0x6vxx70vsqmdh",139,"92.csv","","null","resources/images/coin2.png","null","",NA,NA,NA,NA,""
"image-keyboard-response",465,333145,"0.0-4.151-0.151","t0x6vxx70vsqmdh",139,"92.csv","","84","resources/trios/L1T2A3.jpg","39","restless",0.5,0.4,0.6,0.38191778447375,"true"
"image-keyboard-response",466,333549,"0.0-4.151-1.151","t0x6vxx70vsqmdh",139,"92.csv","","null","resources/maskTrios/BBA3.jpg","null","",NA,NA,NA,NA,""
"image-keyboard-response",467,334751,"0.0-4.151-2.151","t0x6vxx70vsqmdh",139,"92.csv","","null","resources/images/coin2.png","null","",NA,NA,NA,NA,""
"image-keyboard-response",468,334757,"0.0-4.152-0.152","t0x6vxx70vsqmdh",139,"92.csv","","5","resources/trios/L1T2A3.jpg","39","restless",0.5,0.4,0.6,0.148176553983946,"true"
"image-keyboard-response",469,335160,"0.0-4.152-1.152","t0x6vxx70vsqmdh",139,"92.csv","","null","resources/maskTrios/BBA3.jpg","null","",NA,NA,NA,NA,""
"image-keyboard-response",470,336362,"0.0-4.152-2.152","t0x6vxx70vsqmdh",139,"92.csv","","null","resources/images/coin2.png","null","",NA,NA,NA,NA,""
"image-keyboard-response",471,337337,"0.0-4.153-0.153","t0x6vxx70vsqmdh",139,"92.csv","","972","resources/trios/L1T2A3.jpg","39","restless",0.4,0.4,0.6,0.344702229665678,"true"
"image-keyboard-response",472,337739,"0.0-4.153-1.153","t0x6vxx70vsqmdh",139,"92.csv","","null","resources/maskTrios/BBA3.jpg","null","",NA,NA,NA,NA,""
"image-keyboard-response",473,338942,"0.0-4.153-2.153","t0x6vxx70vsqmdh",139,"92.csv","","null","resources/images/coin2.png","null","",NA,NA,NA,NA,""
"image-keyboard-response",474,339227,"0.0-4.154-0.154","t0x6vxx70vsqmdh",139,"92.csv","","283","resources/trios/L1T2A3.jpg","39","restless",0.4,0.4,0.6,0.889243437289818,"false"
"image-keyboard-response",475,339628,"0.0-4.154-1.154","t0x6vxx70vsqmdh",139,"92.csv","","null","resources/maskTrios/BBA3.jpg","null","",NA,NA,NA,NA,""
"image-keyboard-response",476,340832,"0.0-4.154-2.154","t0x6vxx70vsqmdh",139,"92.csv","","null","resources/images/fishbone.png","null","",NA,NA,NA,NA,""
"image-keyboard-response",477,341108,"0.0-4.155-0.155","t0x6vxx70vsqmdh",139,"92.csv","","274.9999999999418","resources/trios/L1T2A3.jpg","38","restless",0.4,0.4,0.6,0.668395001285835,"false"
"image-keyboard-response",478,341509,"0.0-4.155-1.155","t0x6vxx70vsqmdh",139,"92.csv","","null","resources/maskTrios/BT2B.jpg","null","",NA,NA,NA,NA,""
"image-keyboard-response",479,342712,"0.0-4.155-2.155","t0x6vxx70vsqmdh",139,"92.csv","","null","resources/images/fishbone.png","null","",NA,NA,NA,NA,""
"image-keyboard-response",480,343103,"0.0-4.156-0.156","t0x6vxx70vsqmdh",139,"92.csv","","390","resources/trios/L1T2A3.jpg","39","restless",0.4,0.4,0.6,0.642428389037858,"false"
"image-keyboard-response",481,343507,"0.0-4.156-1.156","t0x6vxx70vsqmdh",139,"92.csv","","null","resources/maskTrios/BBA3.jpg","null","",NA,NA,NA,NA,""
"image-keyboard-response",482,344710,"0.0-4.156-2.156","t0x6vxx70vsqmdh",139,"92.csv","","null","resources/images/fishbone.png","null","",NA,NA,NA,NA,""
"image-keyboard-response",483,344838,"0.0-4.157-0.157","t0x6vxx70vsqmdh",139,"92.csv","","127","resources/trios/L1T2A3.jpg","37","restless",0.4,0.3,0.6,0.191339359219096,"true"
"image-keyboard-response",484,345242,"0.0-4.157-1.157","t0x6vxx70vsqmdh",139,"92.csv","","null","resources/maskTrios/L1BB.jpg","null","",NA,NA,NA,NA,""
"image-keyboard-response",485,346445,"0.0-4.157-2.157","t0x6vxx70vsqmdh",139,"92.csv","","null","resources/images/coin2.png","null","",NA,NA,NA,NA,""
"image-keyboard-response",486,346706,"0.0-4.158-0.158","t0x6vxx70vsqmdh",139,"92.csv","","260","resources/trios/L1T2A3.jpg","37","restless",0.4,0.3,0.6,0.552905991418681,"false"
"image-keyboard-response",487,347110,"0.0-4.158-1.158","t0x6vxx70vsqmdh",139,"92.csv","","null","resources/maskTrios/L1BB.jpg","null","",NA,NA,NA,NA,""
"image-keyboard-response",488,348313,"0.0-4.158-2.158","t0x6vxx70vsqmdh",139,"92.csv","","null","resources/images/fishbone.png","null","",NA,NA,NA,NA,""
"image-keyboard-response",489,348548,"0.0-4.159-0.159","t0x6vxx70vsqmdh",139,"92.csv","","232","resources/trios/L1T2A3.jpg","39","restless",0.4,0.3,0.6,0.0343948938340678,"true"
"image-keyboard-response",490,348952,"0.0-4.159-1.159","t0x6vxx70vsqmdh",139,"92.csv","","null","resources/maskTrios/BBA3.jpg","null","",NA,NA,NA,NA,""
"image-keyboard-response",491,350155,"0.0-4.159-2.159","t0x6vxx70vsqmdh",139,"92.csv","","null","resources/images/coin2.png","null","",NA,NA,NA,NA,""
"image-keyboard-response",492,350227,"0.0-4.160-0.160","t0x6vxx70vsqmdh",139,"92.csv","","70.00000000005821","resources/trios/L1T2A3.jpg","39","restless",0.4,0.3,0.6,0.265906761531723,"true"
"image-keyboard-response",493,350631,"0.0-4.160-1.160","t0x6vxx70vsqmdh",139,"92.csv","","null","resources/maskTrios/BBA3.jpg","null","",NA,NA,NA,NA,""
"image-keyboard-response",494,351834,"0.0-4.160-2.160","t0x6vxx70vsqmdh",139,"92.csv","","null","resources/images/coin2.png","null","",NA,NA,NA,NA,""
"image-keyboard-response",495,352089,"0.0-4.161-0.161","t0x6vxx70vsqmdh",139,"92.csv","","254.0000000000582","resources/trios/L1T2A3.jpg","39","restless",0.4,0.3,0.6,0.663200490221842,"false"
"image-keyboard-response",496,352493,"0.0-4.161-1.161","t0x6vxx70vsqmdh",139,"92.csv","","null","resources/maskTrios/BBA3.jpg","null","",NA,NA,NA,NA,""
"image-keyboard-response",497,353696,"0.0-4.161-2.161","t0x6vxx70vsqmdh",139,"92.csv","","null","resources/images/fishbone.png","null","",NA,NA,NA,NA,""
"image-keyboard-response",498,354093,"0.0-4.162-0.162","t0x6vxx70vsqmdh",139,"92.csv","","394","resources/trios/L1T2A3.jpg","37","restless",0.4,0.3,0.6,0.833006355035421,"false"
"image-keyboard-response",499,354497,"0.0-4.162-1.162","t0x6vxx70vsqmdh",139,"92.csv","","null","resources/maskTrios/L1BB.jpg","null","",NA,NA,NA,NA,""
"image-keyboard-response",500,355700,"0.0-4.162-2.162","t0x6vxx70vsqmdh",139,"92.csv","","null","resources/images/fishbone.png","null","",NA,NA,NA,NA,""
"image-keyboard-response",501,355855,"0.0-4.163-0.163","t0x6vxx70vsqmdh",139,"92.csv","","154","resources/trios/L1T2A3.jpg","38","restless",0.4,0.3,0.6,0.685502736227984,"false"
"image-keyboard-response",502,356258,"0.0-4.163-1.163","t0x6vxx70vsqmdh",139,"92.csv","","null","resources/maskTrios/BT2B.jpg","null","",NA,NA,NA,NA,""
"image-keyboard-response",503,357461,"0.0-4.163-2.163","t0x6vxx70vsqmdh",139,"92.csv","","null","resources/images/fishbone.png","null","",NA,NA,NA,NA,""
"image-keyboard-response",504,357704,"0.0-4.164-0.164","t0x6vxx70vsqmdh",139,"92.csv","","241","resources/trios/L1T2A3.jpg","37","restless",0.4,0.3,0.6,0.464618115348931,"false"
"image-keyboard-response",505,358107,"0.0-4.164-1.164","t0x6vxx70vsqmdh",139,"92.csv","","null","resources/maskTrios/L1BB.jpg","null","",NA,NA,NA,NA,""
"image-keyboard-response",506,359311,"0.0-4.164-2.164","t0x6vxx70vsqmdh",139,"92.csv","","null","resources/images/fishbone.png","null","",NA,NA,NA,NA,""
"image-keyboard-response",507,359423,"0.0-4.165-0.165","t0x6vxx70vsqmdh",139,"92.csv","","111","resources/trios/L1T2A3.jpg","39","restless",0.4,0.3,0.6,0.39156764083234,"true"
"image-keyboard-response",508,359826,"0.0-4.165-1.165","t0x6vxx70vsqmdh",139,"92.csv","","null","resources/maskTrios/BBA3.jpg","null","",NA,NA,NA,NA,""
"image-keyboard-response",509,361030,"0.0-4.165-2.165","t0x6vxx70vsqmdh",139,"92.csv","","null","resources/images/coin2.png","null","",NA,NA,NA,NA,""
"image-keyboard-response",510,361259,"0.0-4.166-0.166","t0x6vxx70vsqmdh",139,"92.csv","","228","resources/trios/L1T2A3.jpg","39","restless",0.3,0.3,0.6,0.398923132410074,"true"
"image-keyboard-response",511,361662,"0.0-4.166-1.166","t0x6vxx70vsqmdh",139,"92.csv","","null","resources/maskTrios/BBA3.jpg","null","",NA,NA,NA,NA,""
"image-keyboard-response",512,362866,"0.0-4.166-2.166","t0x6vxx70vsqmdh",139,"92.csv","","null","resources/images/coin2.png","null","",NA,NA,NA,NA,""
"image-keyboard-response",513,362929,"0.0-4.167-0.167","t0x6vxx70vsqmdh",139,"92.csv","","62.00000000005821","resources/trios/L1T2A3.jpg","39","restless",0.3,0.3,0.6,0.0368299725722018,"true"
"image-keyboard-response",514,363332,"0.0-4.167-1.167","t0x6vxx70vsqmdh",139,"92.csv","","null","resources/maskTrios/BBA3.jpg","null","",NA,NA,NA,NA,""
"image-keyboard-response",515,364534,"0.0-4.167-2.167","t0x6vxx70vsqmdh",139,"92.csv","","null","resources/images/coin2.png","null","",NA,NA,NA,NA,""
"image-keyboard-response",516,365238,"0.0-4.168-0.168","t0x6vxx70vsqmdh",139,"92.csv","","703","resources/trios/L1T2A3.jpg","39","restless",0.3,0.3,0.6,0.897319490849586,"false"
"image-keyboard-response",517,365643,"0.0-4.168-1.168","t0x6vxx70vsqmdh",139,"92.csv","","null","resources/maskTrios/BBA3.jpg","null","",NA,NA,NA,NA,""
"image-keyboard-response",518,366847,"0.0-4.168-2.168","t0x6vxx70vsqmdh",139,"92.csv","","null","resources/images/fishbone.png","null","",NA,NA,NA,NA,""
"image-keyboard-response",519,367154,"0.0-4.169-0.169","t0x6vxx70vsqmdh",139,"92.csv","","305","resources/trios/L1T2A3.jpg","38","restless",0.2,0.3,0.6,0.076345492567461,"true"
"image-keyboard-response",520,367557,"0.0-4.169-1.169","t0x6vxx70vsqmdh",139,"92.csv","","null","resources/maskTrios/BT2B.jpg","null","",NA,NA,NA,NA,""
"image-keyboard-response",521,368759,"0.0-4.169-2.169","t0x6vxx70vsqmdh",139,"92.csv","","null","resources/images/coin2.png","null","",NA,NA,NA,NA,""
"image-keyboard-response",522,369087,"0.0-4.170-0.170","t0x6vxx70vsqmdh",139,"92.csv","","325","resources/trios/L1T2A3.jpg","38","restless",0.2,0.3,0.6,0.0344064238771506,"true"
"image-keyboard-response",523,369490,"0.0-4.170-1.170","t0x6vxx70vsqmdh",139,"92.csv","","null","resources/maskTrios/BT2B.jpg","null","",NA,NA,NA,NA,""
"image-keyboard-response",524,370694,"0.0-4.170-2.170","t0x6vxx70vsqmdh",139,"92.csv","","null","resources/images/coin2.png","null","",NA,NA,NA,NA,""
"image-keyboard-response",525,370802,"0.0-4.171-0.171","t0x6vxx70vsqmdh",139,"92.csv","","106","resources/trios/L1T2A3.jpg","38","restless",0.2,0.3,0.6,0.472506303608979,"false"
"image-keyboard-response",526,371205,"0.0-4.171-1.171","t0x6vxx70vsqmdh",139,"92.csv","","null","resources/maskTrios/BT2B.jpg","null","",NA,NA,NA,NA,""
"image-keyboard-response",527,372409,"0.0-4.171-2.171","t0x6vxx70vsqmdh",139,"92.csv","","null","resources/images/fishbone.png","null","",NA,NA,NA,NA,""
"image-keyboard-response",528,372657,"0.0-4.172-0.172","t0x6vxx70vsqmdh",139,"92.csv","","247","resources/trios/L1T2A3.jpg","39","restless",0.2,0.3,0.6,0.99482612486265,"false"
"image-keyboard-response",529,373061,"0.0-4.172-1.172","t0x6vxx70vsqmdh",139,"92.csv","","null","resources/maskTrios/BBA3.jpg","null","",NA,NA,NA,NA,""
"image-keyboard-response",530,374264,"0.0-4.172-2.172","t0x6vxx70vsqmdh",139,"92.csv","","null","resources/images/fishbone.png","null","",NA,NA,NA,NA,""
"image-keyboard-response",531,374691,"0.0-4.173-0.173","t0x6vxx70vsqmdh",139,"92.csv","","425","resources/trios/L1T2A3.jpg","38","restless",0.2,0.3,0.6,0.828640177011641,"false"
"image-keyboard-response",532,375094,"0.0-4.173-1.173","t0x6vxx70vsqmdh",139,"92.csv","","null","resources/maskTrios/BT2B.jpg","null","",NA,NA,NA,NA,""
"image-keyboard-response",533,376297,"0.0-4.173-2.173","t0x6vxx70vsqmdh",139,"92.csv","","null","resources/images/fishbone.png","null","",NA,NA,NA,NA,""
"image-keyboard-response",534,376480,"0.0-4.174-0.174","t0x6vxx70vsqmdh",139,"92.csv","","182","resources/trios/L1T2A3.jpg","37","restless",0.1,0.3,0.6,0.209542603079148,"false"
"image-keyboard-response",535,376884,"0.0-4.174-1.174","t0x6vxx70vsqmdh",139,"92.csv","","null","resources/maskTrios/L1BB.jpg","null","",NA,NA,NA,NA,""
"image-keyboard-response",536,378087,"0.0-4.174-2.174","t0x6vxx70vsqmdh",139,"92.csv","","null","resources/images/fishbone.png","null","",NA,NA,NA,NA,""
"image-keyboard-response",537,378453,"0.0-4.175-0.175","t0x6vxx70vsqmdh",139,"92.csv","","365.0000000000582","resources/trios/L1T2A3.jpg","39","restless",0.1,0.4,0.6,0.345140624636159,"true"
"image-keyboard-response",538,378857,"0.0-4.175-1.175","t0x6vxx70vsqmdh",139,"92.csv","","null","resources/maskTrios/BBA3.jpg","null","",NA,NA,NA,NA,""
"image-keyboard-response",539,380060,"0.0-4.175-2.175","t0x6vxx70vsqmdh",139,"92.csv","","null","resources/images/coin2.png","null","",NA,NA,NA,NA,""
"image-keyboard-response",540,380301,"0.0-4.176-0.176","t0x6vxx70vsqmdh",139,"92.csv","","240","resources/trios/L1T2A3.jpg","39","restless",0.1,0.4,0.6,0.536715527159255,"true"
"image-keyboard-response",541,380705,"0.0-4.176-1.176","t0x6vxx70vsqmdh",139,"92.csv","","null","resources/maskTrios/BBA3.jpg","null","",NA,NA,NA,NA,""
"image-keyboard-response",542,381908,"0.0-4.176-2.176","t0x6vxx70vsqmdh",139,"92.csv","","null","resources/images/coin2.png","null","",NA,NA,NA,NA,""
"image-keyboard-response",543,382182,"0.0-4.177-0.177","t0x6vxx70vsqmdh",139,"92.csv","","273","resources/trios/L1T2A3.jpg","39","restless",0.1,0.4,0.6,0.982099552225583,"false"
"image-keyboard-response",544,382586,"0.0-4.177-1.177","t0x6vxx70vsqmdh",139,"92.csv","","null","resources/maskTrios/BBA3.jpg","null","",NA,NA,NA,NA,""
"image-keyboard-response",545,383791,"0.0-4.177-2.177","t0x6vxx70vsqmdh",139,"92.csv","","null","resources/images/fishbone.png","null","",NA,NA,NA,NA,""
"image-keyboard-response",546,384118,"0.0-4.178-0.178","t0x6vxx70vsqmdh",139,"92.csv","","324.9999999999418","resources/trios/L1T2A3.jpg","37","restless",0.1,0.4,0.6,0.226275610972733,"false"
"image-keyboard-response",547,384522,"0.0-4.178-1.178","t0x6vxx70vsqmdh",139,"92.csv","","null","resources/maskTrios/L1BB.jpg","null","",NA,NA,NA,NA,""
"image-keyboard-response",548,385723,"0.0-4.178-2.178","t0x6vxx70vsqmdh",139,"92.csv","","null","resources/images/fishbone.png","null","",NA,NA,NA,NA,""
"image-keyboard-response",549,385780,"0.0-4.179-0.179","t0x6vxx70vsqmdh",139,"92.csv","","55","resources/trios/L1T2A3.jpg","38","restless",0.1,0.4,0.7,0.113694850617976,"true"
"image-keyboard-response",550,386183,"0.0-4.179-1.179","t0x6vxx70vsqmdh",139,"92.csv","","null","resources/maskTrios/BT2B.jpg","null","",NA,NA,NA,NA,""
"image-keyboard-response",551,387387,"0.0-4.179-2.179","t0x6vxx70vsqmdh",139,"92.csv","","null","resources/images/coin2.png","null","",NA,NA,NA,NA,""
"image-keyboard-response",552,387490,"0.0-4.180-0.180","t0x6vxx70vsqmdh",139,"92.csv","","101.00000000005821","resources/trios/L1T2A3.jpg","38","restless",0.1,0.4,0.7,0.0762472104340676,"true"
"image-keyboard-response",553,387892,"0.0-4.180-1.180","t0x6vxx70vsqmdh",139,"92.csv","","null","resources/maskTrios/BT2B.jpg","null","",NA,NA,NA,NA,""
"image-keyboard-response",554,389095,"0.0-4.180-2.180","t0x6vxx70vsqmdh",139,"92.csv","","null","resources/images/coin2.png","null","",NA,NA,NA,NA,""
"image-keyboard-response",555,389589,"0.0-4.181-0.181","t0x6vxx70vsqmdh",139,"92.csv","","492","resources/trios/L1T2A3.jpg","38","restless",0.1,0.4,0.7,0.597636730265249,"false"
"image-keyboard-response",556,389991,"0.0-4.181-1.181","t0x6vxx70vsqmdh",139,"92.csv","","null","resources/maskTrios/BT2B.jpg","null","",NA,NA,NA,NA,""
"image-keyboard-response",557,391194,"0.0-4.181-2.181","t0x6vxx70vsqmdh",139,"92.csv","","null","resources/images/fishbone.png","null","",NA,NA,NA,NA,""
"image-keyboard-response",558,391258,"0.0-4.182-0.182","t0x6vxx70vsqmdh",139,"92.csv","","63","resources/trios/L1T2A3.jpg","39","restless",0.1,0.4,0.7,0.686885119359928,"true"
"image-keyboard-response",559,391662,"0.0-4.182-1.182","t0x6vxx70vsqmdh",139,"92.csv","","null","resources/maskTrios/BBA3.jpg","null","",NA,NA,NA,NA,""
"image-keyboard-response",560,392867,"0.0-4.182-2.182","t0x6vxx70vsqmdh",139,"92.csv","","null","resources/images/coin2.png","null","",NA,NA,NA,NA,""
"image-keyboard-response",561,393104,"0.0-4.183-0.183","t0x6vxx70vsqmdh",139,"92.csv","","235","resources/trios/L1T2A3.jpg","39","restless",0.1,0.4,0.7,0.25831619873243,"true"
"image-keyboard-response",562,393508,"0.0-4.183-1.183","t0x6vxx70vsqmdh",139,"92.csv","","null","resources/maskTrios/BBA3.jpg","null","",NA,NA,NA,NA,""
"image-keyboard-response",563,394710,"0.0-4.183-2.183","t0x6vxx70vsqmdh",139,"92.csv","","null","resources/images/coin2.png","null","",NA,NA,NA,NA,""
"image-keyboard-response",564,394715,"0.0-4.184-0.184","t0x6vxx70vsqmdh",139,"92.csv","","2","resources/trios/L1T2A3.jpg","39","restless",0.2,0.4,0.8,0.224179156445762,"true"
"image-keyboard-response",565,395118,"0.0-4.184-1.184","t0x6vxx70vsqmdh",139,"92.csv","","null","resources/maskTrios/BBA3.jpg","null","",NA,NA,NA,NA,""
"image-keyboard-response",566,396319,"0.0-4.184-2.184","t0x6vxx70vsqmdh",139,"92.csv","","null","resources/images/coin2.png","null","",NA,NA,NA,NA,""
"image-keyboard-response",567,396438,"0.0-4.185-0.185","t0x6vxx70vsqmdh",139,"92.csv","","117","resources/trios/L1T2A3.jpg","39","restless",0.2,0.4,0.9,0.652717434939874,"true"
"image-keyboard-response",568,396841,"0.0-4.185-1.185","t0x6vxx70vsqmdh",139,"92.csv","","null","resources/maskTrios/BBA3.jpg","null","",NA,NA,NA,NA,""
"image-keyboard-response",569,398044,"0.0-4.185-2.185","t0x6vxx70vsqmdh",139,"92.csv","","null","resources/images/coin2.png","null","",NA,NA,NA,NA,""
"image-keyboard-response",570,398212,"0.0-4.186-0.186","t0x6vxx70vsqmdh",139,"92.csv","","165","resources/trios/L1T2A3.jpg","39","restless",0.2,0.5,0.9,0.270228719653587,"true"
"image-keyboard-response",571,398616,"0.0-4.186-1.186","t0x6vxx70vsqmdh",139,"92.csv","","null","resources/maskTrios/BBA3.jpg","null","",NA,NA,NA,NA,""
"image-keyboard-response",572,399819,"0.0-4.186-2.186","t0x6vxx70vsqmdh",139,"92.csv","","null","resources/images/coin2.png","null","",NA,NA,NA,NA,""
"image-keyboard-response",573,400297,"0.0-4.187-0.187","t0x6vxx70vsqmdh",139,"92.csv","","476","resources/trios/L1T2A3.jpg","39","restless",0.2,0.5,0.9,0.45959173260024,"true"
"image-keyboard-response",574,400700,"0.0-4.187-1.187","t0x6vxx70vsqmdh",139,"92.csv","","null","resources/maskTrios/BBA3.jpg","null","",NA,NA,NA,NA,""
"image-keyboard-response",575,401904,"0.0-4.187-2.187","t0x6vxx70vsqmdh",139,"92.csv","","null","resources/images/coin2.png","null","",NA,NA,NA,NA,""
"image-keyboard-response",576,401953,"0.0-4.188-0.188","t0x6vxx70vsqmdh",139,"92.csv","","48","resources/trios/L1T2A3.jpg","39","restless",0.2,0.5,0.9,0.0647048974000923,"true"
"image-keyboard-response",577,402357,"0.0-4.188-1.188","t0x6vxx70vsqmdh",139,"92.csv","","null","resources/maskTrios/BBA3.jpg","null","",NA,NA,NA,NA,""
"image-keyboard-response",578,403560,"0.0-4.188-2.188","t0x6vxx70vsqmdh",139,"92.csv","","null","resources/images/coin2.png","null","",NA,NA,NA,NA,""
"image-keyboard-response",579,403831,"0.0-4.189-0.189","t0x6vxx70vsqmdh",139,"92.csv","","270","resources/trios/L1T2A3.jpg","39","restless",0.3,0.5,0.9,0.0960380760755133,"true"
"image-keyboard-response",580,404234,"0.0-4.189-1.189","t0x6vxx70vsqmdh",139,"92.csv","","null","resources/maskTrios/BBA3.jpg","null","",NA,NA,NA,NA,""
"image-keyboard-response",581,405438,"0.0-4.189-2.189","t0x6vxx70vsqmdh",139,"92.csv","","null","resources/images/coin2.png","null","",NA,NA,NA,NA,""
"image-keyboard-response",582,405480,"0.0-4.190-0.190","t0x6vxx70vsqmdh",139,"92.csv","","41","resources/trios/L1T2A3.jpg","39","restless",0.3,0.5,0.9,0.227563487019459,"true"
"image-keyboard-response",583,405885,"0.0-4.190-1.190","t0x6vxx70vsqmdh",139,"92.csv","","null","resources/maskTrios/BBA3.jpg","null","",NA,NA,NA,NA,""
"image-keyboard-response",584,407088,"0.0-4.190-2.190","t0x6vxx70vsqmdh",139,"92.csv","","null","resources/images/coin2.png","null","",NA,NA,NA,NA,""
"image-keyboard-response",585,407442,"0.0-4.191-0.191","t0x6vxx70vsqmdh",139,"92.csv","","352.0000000000582","resources/trios/L1T2A3.jpg","39","restless",0.3,0.5,0.9,0.413960334462211,"true"
"image-keyboard-response",586,407846,"0.0-4.191-1.191","t0x6vxx70vsqmdh",139,"92.csv","","null","resources/maskTrios/BBA3.jpg","null","",NA,NA,NA,NA,""
"image-keyboard-response",587,409049,"0.0-4.191-2.191","t0x6vxx70vsqmdh",139,"92.csv","","null","resources/images/coin2.png","null","",NA,NA,NA,NA,""
"image-keyboard-response",588,409210,"0.0-4.192-0.192","t0x6vxx70vsqmdh",139,"92.csv","","159","resources/trios/L1T2A3.jpg","39","restless",0.3,0.5,0.9,0.695842159152596,"true"
"image-keyboard-response",589,409614,"0.0-4.192-1.192","t0x6vxx70vsqmdh",139,"92.csv","","null","resources/maskTrios/BBA3.jpg","null","",NA,NA,NA,NA,""
"image-keyboard-response",590,410818,"0.0-4.192-2.192","t0x6vxx70vsqmdh",139,"92.csv","","null","resources/images/coin2.png","null","",NA,NA,NA,NA,""
"image-keyboard-response",591,410878,"0.0-4.193-0.193","t0x6vxx70vsqmdh",139,"92.csv","","59","resources/trios/L1T2A3.jpg","39","restless",0.3,0.4,0.8,0.808142552835523,"false"
"image-keyboard-response",592,411282,"0.0-4.193-1.193","t0x6vxx70vsqmdh",139,"92.csv","","null","resources/maskTrios/BBA3.jpg","null","",NA,NA,NA,NA,""
"image-keyboard-response",593,412485,"0.0-4.193-2.193","t0x6vxx70vsqmdh",139,"92.csv","","null","resources/images/fishbone.png","null","",NA,NA,NA,NA,""
"image-keyboard-response",594,412783,"0.0-4.194-0.194","t0x6vxx70vsqmdh",139,"92.csv","","297","resources/trios/L1T2A3.jpg","38","restless",0.3,0.4,0.8,0.0792821836592261,"true"
"image-keyboard-response",595,413185,"0.0-4.194-1.194","t0x6vxx70vsqmdh",139,"92.csv","","null","resources/maskTrios/BT2B.jpg","null","",NA,NA,NA,NA,""
"image-keyboard-response",596,414390,"0.0-4.194-2.194","t0x6vxx70vsqmdh",139,"92.csv","","null","resources/images/coin2.png","null","",NA,NA,NA,NA,""
"image-keyboard-response",597,414701,"0.0-4.195-0.195","t0x6vxx70vsqmdh",139,"92.csv","","309","resources/trios/L1T2A3.jpg","38","restless",0.4,0.4,0.8,0.629824804305318,"false"
"image-keyboard-response",598,415105,"0.0-4.195-1.195","t0x6vxx70vsqmdh",139,"92.csv","","null","resources/maskTrios/BT2B.jpg","null","",NA,NA,NA,NA,""
"image-keyboard-response",599,416308,"0.0-4.195-2.195","t0x6vxx70vsqmdh",139,"92.csv","","null","resources/images/fishbone.png","null","",NA,NA,NA,NA,""
"image-keyboard-response",600,416792,"0.0-4.196-0.196","t0x6vxx70vsqmdh",139,"92.csv","","482","resources/trios/L1T2A3.jpg","37","restless",0.4,0.4,0.8,0.249598679862628,"true"
"image-keyboard-response",601,417196,"0.0-4.196-1.196","t0x6vxx70vsqmdh",139,"92.csv","","null","resources/maskTrios/L1BB.jpg","null","",NA,NA,NA,NA,""
"image-keyboard-response",602,418399,"0.0-4.196-2.196","t0x6vxx70vsqmdh",139,"92.csv","","null","resources/images/coin2.png","null","",NA,NA,NA,NA,""
"image-keyboard-response",603,418727,"0.0-4.197-0.197","t0x6vxx70vsqmdh",139,"92.csv","","326","resources/trios/L1T2A3.jpg","37","restless",0.4,0.4,0.8,0.961388428069762,"false"
"image-keyboard-response",604,419130,"0.0-4.197-1.197","t0x6vxx70vsqmdh",139,"92.csv","","null","resources/maskTrios/L1BB.jpg","null","",NA,NA,NA,NA,""
"image-keyboard-response",605,420334,"0.0-4.197-2.197","t0x6vxx70vsqmdh",139,"92.csv","","null","resources/images/fishbone.png","null","",NA,NA,NA,NA,""
"image-keyboard-response",606,420656,"0.0-4.198-0.198","t0x6vxx70vsqmdh",139,"92.csv","","321.0000000000582","resources/trios/L1T2A3.jpg","38","restless",0.4,0.4,0.8,0.520145679917273,"false"
"image-keyboard-response",607,421060,"0.0-4.198-1.198","t0x6vxx70vsqmdh",139,"92.csv","","null","resources/maskTrios/BT2B.jpg","null","",NA,NA,NA,NA,""
"image-keyboard-response",608,422264,"0.0-4.198-2.198","t0x6vxx70vsqmdh",139,"92.csv","","null","resources/images/fishbone.png","null","",NA,NA,NA,NA,""
"image-keyboard-response",609,422445,"0.0-4.199-0.199","t0x6vxx70vsqmdh",139,"92.csv","","179","resources/trios/L1T2A3.jpg","39","restless",0.4,0.4,0.9,0.358940436858112,"true"
"image-keyboard-response",610,422848,"0.0-4.199-1.199","t0x6vxx70vsqmdh",139,"92.csv","","null","resources/maskTrios/BBA3.jpg","null","",NA,NA,NA,NA,""
"image-keyboard-response",611,424052,"0.0-4.199-2.199","t0x6vxx70vsqmdh",139,"92.csv","","null","resources/images/coin2.png","null","",NA,NA,NA,NA,""
"survey-text",612,451825,"0.0-5.0","t0x6vxx70vsqmdh",139,"92.csv","","27770","","","",NA,NA,NA,NA,""
