"trial_type","trial_index","time_elapsed","internal_node_id","subject","participantCode","walkNumber","success","rt","stimulus","key_press","test_part","leftProb","midProb","rightProb","generatedNum","correct"
"pavlovia",0,1266,"0.0-0.0","yowb21svt76o5km",834,"73.csv","","","","","",NA,NA,NA,NA,""
"fullscreen",1,12347,"0.0-1.0","yowb21svt76o5km",834,"73.csv","true","","","","",NA,NA,NA,NA,""
"survey-html-form",2,18091,"0.0-2.0","yowb21svt76o5km",834,"73.csv","","5736.199999809265","","","",NA,NA,NA,NA,""
"image-keyboard-response",3,24338,"0.0-3.0-0.0","yowb21svt76o5km",834,"73.csv","","6245.200000047684","resources/images/parrot_nobg.png","13","",NA,NA,NA,NA,""
"image-keyboard-response",4,27345,"0.0-3.0-1.0","yowb21svt76o5km",834,"73.csv","","null","resources/image_sets/111.png","null","",NA,NA,NA,NA,""
"image-keyboard-response",5,34384,"0.0-3.0-2.0","yowb21svt76o5km",834,"73.csv","","7037.900000095367","resources/image_sets/left_highlight.png","37","",NA,NA,NA,NA,""
"image-keyboard-response",6,35832,"0.0-3.0-3.0","yowb21svt76o5km",834,"73.csv","","1447","resources/image_sets/mid_highlight.png","38","",NA,NA,NA,NA,""
"image-keyboard-response",7,36521,"0.0-3.0-4.0","yowb21svt76o5km",834,"73.csv","","688.7999999523163","resources/image_sets/right_highlight.png","39","",NA,NA,NA,NA,""
"image-keyboard-response",8,39023,"0.0-3.0-5.0","yowb21svt76o5km",834,"73.csv","","2500.4000000953674","resources/image_sets/111.png","13","",NA,NA,NA,NA,""
"image-keyboard-response",9,40924,"0.0-3.0-6.0","yowb21svt76o5km",834,"73.csv","","1900.5999999046326","resources/images/coin2.png","13","",NA,NA,NA,NA,""
"image-keyboard-response",10,42364,"0.0-3.0-7.0","yowb21svt76o5km",834,"73.csv","","1438.6000001430511","resources/images/fishbone.png","13","",NA,NA,NA,NA,""
"html-keyboard-response",11,48451,"0.0-3.0-8.0","yowb21svt76o5km",834,"73.csv","","6086.299999952316","<p>You can track your coin total on the top right of your screen. </p><p>At the end of your journey you will be directed to a survey, so please click on the link before exiting the task</p><p>Press Enter to begin</p>","13","",NA,NA,NA,NA,""
"image-keyboard-response",12,49680,"0.0-4.0-0.0","yowb21svt76o5km",834,"73.csv","","1226.7000000476837","resources/trios/L4T2A2.jpg","37","restless",0.7,0.3,0.9,0.687402408033409,"true"
"image-keyboard-response",13,50083,"0.0-4.0-1.0","yowb21svt76o5km",834,"73.csv","","null","resources/maskTrios/L4BB.jpg","null","",NA,NA,NA,NA,""
"image-keyboard-response",14,51287,"0.0-4.0-2.0","yowb21svt76o5km",834,"73.csv","","null","resources/images/coin2.png","null","",NA,NA,NA,NA,""
"image-keyboard-response",15,52860,"0.0-4.1-0.1","yowb21svt76o5km",834,"73.csv","","1571.5","resources/trios/L4T2A2.jpg","37","restless",0.7,0.3,0.9,0.0196431687556118,"true"
"image-keyboard-response",16,53266,"0.0-4.1-1.1","yowb21svt76o5km",834,"73.csv","","null","resources/maskTrios/L4BB.jpg","null","",NA,NA,NA,NA,""
"image-keyboard-response",17,54470,"0.0-4.1-2.1","yowb21svt76o5km",834,"73.csv","","null","resources/images/coin2.png","null","",NA,NA,NA,NA,""
"image-keyboard-response",18,54847,"0.0-4.2-0.2","yowb21svt76o5km",834,"73.csv","","376.09999990463257","resources/trios/L4T2A2.jpg","37","restless",0.7,0.3,0.9,0.888518106672234,"false"
"image-keyboard-response",19,55251,"0.0-4.2-1.2","yowb21svt76o5km",834,"73.csv","","null","resources/maskTrios/L4BB.jpg","null","",NA,NA,NA,NA,""
"image-keyboard-response",20,56457,"0.0-4.2-2.2","yowb21svt76o5km",834,"73.csv","","null","resources/images/fishbone.png","null","",NA,NA,NA,NA,""
"image-keyboard-response",21,57298,"0.0-4.3-0.3","yowb21svt76o5km",834,"73.csv","","839.5","resources/trios/L4T2A2.jpg","37","restless",0.7,0.3,0.9,0.394358842944983,"true"
"image-keyboard-response",22,57701,"0.0-4.3-1.3","yowb21svt76o5km",834,"73.csv","","null","resources/maskTrios/L4BB.jpg","null","",NA,NA,NA,NA,""
"image-keyboard-response",23,58907,"0.0-4.3-2.3","yowb21svt76o5km",834,"73.csv","","null","resources/images/coin2.png","null","",NA,NA,NA,NA,""
"image-keyboard-response",24,59216,"0.0-4.4-0.4","yowb21svt76o5km",834,"73.csv","","307.60000014305115","resources/trios/L4T2A2.jpg","37","restless",0.7,0.3,0.8,0.243436490355588,"true"
"image-keyboard-response",25,59618,"0.0-4.4-1.4","yowb21svt76o5km",834,"73.csv","","null","resources/maskTrios/L4BB.jpg","null","",NA,NA,NA,NA,""
"image-keyboard-response",26,60822,"0.0-4.4-2.4","yowb21svt76o5km",834,"73.csv","","null","resources/images/coin2.png","null","",NA,NA,NA,NA,""
"image-keyboard-response",27,61059,"0.0-4.5-0.5","yowb21svt76o5km",834,"73.csv","","236.20000004768372","resources/trios/L4T2A2.jpg","37","restless",0.7,0.3,0.8,0.59002079209638,"true"
"image-keyboard-response",28,61461,"0.0-4.5-1.5","yowb21svt76o5km",834,"73.csv","","null","resources/maskTrios/L4BB.jpg","null","",NA,NA,NA,NA,""
"image-keyboard-response",29,62665,"0.0-4.5-2.5","yowb21svt76o5km",834,"73.csv","","null","resources/images/coin2.png","null","",NA,NA,NA,NA,""
"image-keyboard-response",30,62898,"0.0-4.6-0.6","yowb21svt76o5km",834,"73.csv","","231.5","resources/trios/L4T2A2.jpg","37","restless",0.7,0.3,0.8,0.324738404033284,"true"
"image-keyboard-response",31,63305,"0.0-4.6-1.6","yowb21svt76o5km",834,"73.csv","","null","resources/maskTrios/L4BB.jpg","null","",NA,NA,NA,NA,""
"image-keyboard-response",32,64512,"0.0-4.6-2.6","yowb21svt76o5km",834,"73.csv","","null","resources/images/coin2.png","null","",NA,NA,NA,NA,""
"image-keyboard-response",33,64741,"0.0-4.7-0.7","yowb21svt76o5km",834,"73.csv","","228.60000014305115","resources/trios/L4T2A2.jpg","37","restless",0.7,0.3,0.8,0.388184873567716,"true"
"image-keyboard-response",34,65143,"0.0-4.7-1.7","yowb21svt76o5km",834,"73.csv","","null","resources/maskTrios/L4BB.jpg","null","",NA,NA,NA,NA,""
"image-keyboard-response",35,66345,"0.0-4.7-2.7","yowb21svt76o5km",834,"73.csv","","null","resources/images/coin2.png","null","",NA,NA,NA,NA,""
"image-keyboard-response",36,66459,"0.0-4.8-0.8","yowb21svt76o5km",834,"73.csv","","113.39999985694885","resources/trios/L4T2A2.jpg","37","restless",0.7,0.3,0.8,0.299683605840622,"true"
"image-keyboard-response",37,66864,"0.0-4.8-1.8","yowb21svt76o5km",834,"73.csv","","null","resources/maskTrios/L4BB.jpg","null","",NA,NA,NA,NA,""
"image-keyboard-response",38,68068,"0.0-4.8-2.8","yowb21svt76o5km",834,"73.csv","","null","resources/images/coin2.png","null","",NA,NA,NA,NA,""
"image-keyboard-response",39,68254,"0.0-4.9-0.9","yowb21svt76o5km",834,"73.csv","","183.90000009536743","resources/trios/L4T2A2.jpg","37","restless",0.7,0.3,0.8,0.825651490367883,"false"
"image-keyboard-response",40,68656,"0.0-4.9-1.9","yowb21svt76o5km",834,"73.csv","","null","resources/maskTrios/L4BB.jpg","null","",NA,NA,NA,NA,""
"image-keyboard-response",41,69859,"0.0-4.9-2.9","yowb21svt76o5km",834,"73.csv","","null","resources/images/fishbone.png","null","",NA,NA,NA,NA,""
"image-keyboard-response",42,70117,"0.0-4.10-0.10","yowb21svt76o5km",834,"73.csv","","258","resources/trios/L4T2A2.jpg","37","restless",0.7,0.3,0.8,0.0908546276324183,"true"
"image-keyboard-response",43,70522,"0.0-4.10-1.10","yowb21svt76o5km",834,"73.csv","","null","resources/maskTrios/L4BB.jpg","null","",NA,NA,NA,NA,""
"image-keyboard-response",44,71726,"0.0-4.10-2.10","yowb21svt76o5km",834,"73.csv","","null","resources/images/coin2.png","null","",NA,NA,NA,NA,""
"image-keyboard-response",45,71953,"0.0-4.11-0.11","yowb21svt76o5km",834,"73.csv","","226.29999995231628","resources/trios/L4T2A2.jpg","37","restless",0.7,0.3,0.7,0.352526170979088,"true"
"image-keyboard-response",46,72358,"0.0-4.11-1.11","yowb21svt76o5km",834,"73.csv","","null","resources/maskTrios/L4BB.jpg","null","",NA,NA,NA,NA,""
"image-keyboard-response",47,73564,"0.0-4.11-2.11","yowb21svt76o5km",834,"73.csv","","null","resources/images/coin2.png","null","",NA,NA,NA,NA,""
"image-keyboard-response",48,73760,"0.0-4.12-0.12","yowb21svt76o5km",834,"73.csv","","195.20000004768372","resources/trios/L4T2A2.jpg","37","restless",0.8,0.3,0.8,0.59190635025212,"true"
"image-keyboard-response",49,74164,"0.0-4.12-1.12","yowb21svt76o5km",834,"73.csv","","null","resources/maskTrios/L4BB.jpg","null","",NA,NA,NA,NA,""
"image-keyboard-response",50,75366,"0.0-4.12-2.12","yowb21svt76o5km",834,"73.csv","","null","resources/images/coin2.png","null","",NA,NA,NA,NA,""
"image-keyboard-response",51,75438,"0.0-4.13-0.13","yowb21svt76o5km",834,"73.csv","","71.5","resources/trios/L4T2A2.jpg","37","restless",0.8,0.3,0.8,0.543653884920396,"true"
"image-keyboard-response",52,75841,"0.0-4.13-1.13","yowb21svt76o5km",834,"73.csv","","null","resources/maskTrios/L4BB.jpg","null","",NA,NA,NA,NA,""
"image-keyboard-response",53,77043,"0.0-4.13-2.13","yowb21svt76o5km",834,"73.csv","","null","resources/images/coin2.png","null","",NA,NA,NA,NA,""
"image-keyboard-response",54,77070,"0.0-4.14-0.14","yowb21svt76o5km",834,"73.csv","","26.5","resources/trios/L4T2A2.jpg","37","restless",0.8,0.3,0.8,0.460729238283935,"true"
"image-keyboard-response",55,77476,"0.0-4.14-1.14","yowb21svt76o5km",834,"73.csv","","null","resources/maskTrios/L4BB.jpg","null","",NA,NA,NA,NA,""
"image-keyboard-response",56,78678,"0.0-4.14-2.14","yowb21svt76o5km",834,"73.csv","","null","resources/images/coin2.png","null","",NA,NA,NA,NA,""
"image-keyboard-response",57,78730,"0.0-4.15-0.15","yowb21svt76o5km",834,"73.csv","","51.299999952316284","resources/trios/L4T2A2.jpg","37","restless",0.8,0.3,0.8,0.840745607830496,"false"
"image-keyboard-response",58,79136,"0.0-4.15-1.15","yowb21svt76o5km",834,"73.csv","","null","resources/maskTrios/L4BB.jpg","null","",NA,NA,NA,NA,""
"image-keyboard-response",59,80338,"0.0-4.15-2.15","yowb21svt76o5km",834,"73.csv","","null","resources/images/fishbone.png","null","",NA,NA,NA,NA,""
"image-keyboard-response",60,80479,"0.0-4.16-0.16","yowb21svt76o5km",834,"73.csv","","140.09999990463257","resources/trios/L4T2A2.jpg","37","restless",0.8,0.3,0.8,0.133024061558305,"true"
"image-keyboard-response",61,80886,"0.0-4.16-1.16","yowb21svt76o5km",834,"73.csv","","null","resources/maskTrios/L4BB.jpg","null","",NA,NA,NA,NA,""
"image-keyboard-response",62,82092,"0.0-4.16-2.16","yowb21svt76o5km",834,"73.csv","","null","resources/images/coin2.png","null","",NA,NA,NA,NA,""
"image-keyboard-response",63,82221,"0.0-4.17-0.17","yowb21svt76o5km",834,"73.csv","","127.40000009536743","resources/trios/L4T2A2.jpg","37","restless",0.8,0.3,0.8,0.658241227934186,"true"
"image-keyboard-response",64,82628,"0.0-4.17-1.17","yowb21svt76o5km",834,"73.csv","","null","resources/maskTrios/L4BB.jpg","null","",NA,NA,NA,NA,""
"image-keyboard-response",65,83835,"0.0-4.17-2.17","yowb21svt76o5km",834,"73.csv","","null","resources/images/coin2.png","null","",NA,NA,NA,NA,""
"image-keyboard-response",66,83896,"0.0-4.18-0.18","yowb21svt76o5km",834,"73.csv","","60.40000009536743","resources/trios/L4T2A2.jpg","37","restless",0.8,0.3,0.8,0.232100321161332,"true"
"image-keyboard-response",67,84303,"0.0-4.18-1.18","yowb21svt76o5km",834,"73.csv","","null","resources/maskTrios/L4BB.jpg","null","",NA,NA,NA,NA,""
"image-keyboard-response",68,85509,"0.0-4.18-2.18","yowb21svt76o5km",834,"73.csv","","null","resources/images/coin2.png","null","",NA,NA,NA,NA,""
"image-keyboard-response",69,85513,"0.0-4.19-0.19","yowb21svt76o5km",834,"73.csv","","3.0999999046325684","resources/trios/L4T2A2.jpg","37","restless",0.8,0.3,0.8,0.839706316080059,"false"
"image-keyboard-response",70,85915,"0.0-4.19-1.19","yowb21svt76o5km",834,"73.csv","","null","resources/maskTrios/L4BB.jpg","null","",NA,NA,NA,NA,""
"image-keyboard-response",71,87122,"0.0-4.19-2.19","yowb21svt76o5km",834,"73.csv","","null","resources/images/fishbone.png","null","",NA,NA,NA,NA,""
"image-keyboard-response",72,87130,"0.0-4.20-0.20","yowb21svt76o5km",834,"73.csv","","6.900000095367432","resources/trios/L4T2A2.jpg","37","restless",0.7,0.3,0.8,0.457230619414596,"true"
"image-keyboard-response",73,87535,"0.0-4.20-1.20","yowb21svt76o5km",834,"73.csv","","null","resources/maskTrios/L4BB.jpg","null","",NA,NA,NA,NA,""
"image-keyboard-response",74,88741,"0.0-4.20-2.20","yowb21svt76o5km",834,"73.csv","","null","resources/images/coin2.png","null","",NA,NA,NA,NA,""
"image-keyboard-response",75,89118,"0.0-4.21-0.21","yowb21svt76o5km",834,"73.csv","","376.39999985694885","resources/trios/L4T2A2.jpg","37","restless",0.7,0.3,0.8,0.998198649661558,"false"
"image-keyboard-response",76,89523,"0.0-4.21-1.21","yowb21svt76o5km",834,"73.csv","","null","resources/maskTrios/L4BB.jpg","null","",NA,NA,NA,NA,""
"image-keyboard-response",77,90728,"0.0-4.21-2.21","yowb21svt76o5km",834,"73.csv","","null","resources/images/fishbone.png","null","",NA,NA,NA,NA,""
"image-keyboard-response",78,90893,"0.0-4.22-0.22","yowb21svt76o5km",834,"73.csv","","163","resources/trios/L4T2A2.jpg","37","restless",0.8,0.3,0.7,0.97207480579635,"false"
"image-keyboard-response",79,91298,"0.0-4.22-1.22","yowb21svt76o5km",834,"73.csv","","null","resources/maskTrios/L4BB.jpg","null","",NA,NA,NA,NA,""
"image-keyboard-response",80,92501,"0.0-4.22-2.22","yowb21svt76o5km",834,"73.csv","","null","resources/images/fishbone.png","null","",NA,NA,NA,NA,""
"image-keyboard-response",81,92532,"0.0-4.23-0.23","yowb21svt76o5km",834,"73.csv","","30.09999990463257","resources/trios/L4T2A2.jpg","37","restless",0.8,0.3,0.7,0.33637777756283,"true"
"image-keyboard-response",82,92938,"0.0-4.23-1.23","yowb21svt76o5km",834,"73.csv","","null","resources/maskTrios/L4BB.jpg","null","",NA,NA,NA,NA,""
"image-keyboard-response",83,94141,"0.0-4.23-2.23","yowb21svt76o5km",834,"73.csv","","null","resources/images/coin2.png","null","",NA,NA,NA,NA,""
"image-keyboard-response",84,94239,"0.0-4.24-0.24","yowb21svt76o5km",834,"73.csv","","97.79999995231628","resources/trios/L4T2A2.jpg","37","restless",0.9,0.3,0.7,0.454695881285838,"true"
"image-keyboard-response",85,94644,"0.0-4.24-1.24","yowb21svt76o5km",834,"73.csv","","null","resources/maskTrios/L4BB.jpg","null","",NA,NA,NA,NA,""
"image-keyboard-response",86,95851,"0.0-4.24-2.24","yowb21svt76o5km",834,"73.csv","","null","resources/images/coin2.png","null","",NA,NA,NA,NA,""
"image-keyboard-response",87,96076,"0.0-4.25-0.25","yowb21svt76o5km",834,"73.csv","","224.29999995231628","resources/trios/L4T2A2.jpg","37","restless",0.9,0.3,0.7,0.847314803824499,"true"
"image-keyboard-response",88,96483,"0.0-4.25-1.25","yowb21svt76o5km",834,"73.csv","","null","resources/maskTrios/L4BB.jpg","null","",NA,NA,NA,NA,""
"image-keyboard-response",89,97685,"0.0-4.25-2.25","yowb21svt76o5km",834,"73.csv","","null","resources/images/coin2.png","null","",NA,NA,NA,NA,""
"image-keyboard-response",90,98486,"0.0-4.26-0.26","yowb21svt76o5km",834,"73.csv","","798.8999998569489","resources/trios/L4T2A2.jpg","37","restless",0.9,0.3,0.7,0.863683694183063,"true"
"image-keyboard-response",91,98892,"0.0-4.26-1.26","yowb21svt76o5km",834,"73.csv","","null","resources/maskTrios/L4BB.jpg","null","",NA,NA,NA,NA,""
"image-keyboard-response",92,100098,"0.0-4.26-2.26","yowb21svt76o5km",834,"73.csv","","null","resources/images/coin2.png","null","",NA,NA,NA,NA,""
"image-keyboard-response",93,100246,"0.0-4.27-0.27","yowb21svt76o5km",834,"73.csv","","148","resources/trios/L4T2A2.jpg","37","restless",0.9,0.3,0.7,0.406045459036682,"true"
"image-keyboard-response",94,100653,"0.0-4.27-1.27","yowb21svt76o5km",834,"73.csv","","null","resources/maskTrios/L4BB.jpg","null","",NA,NA,NA,NA,""
"image-keyboard-response",95,101856,"0.0-4.27-2.27","yowb21svt76o5km",834,"73.csv","","null","resources/images/coin2.png","null","",NA,NA,NA,NA,""
"image-keyboard-response",96,102079,"0.0-4.28-0.28","yowb21svt76o5km",834,"73.csv","","222.39999985694885","resources/trios/L4T2A2.jpg","37","restless",0.9,0.4,0.7,0.837138875716922,"true"
"image-keyboard-response",97,102481,"0.0-4.28-1.28","yowb21svt76o5km",834,"73.csv","","null","resources/maskTrios/L4BB.jpg","null","",NA,NA,NA,NA,""
"image-keyboard-response",98,103683,"0.0-4.28-2.28","yowb21svt76o5km",834,"73.csv","","null","resources/images/coin2.png","null","",NA,NA,NA,NA,""
"image-keyboard-response",99,103910,"0.0-4.29-0.29","yowb21svt76o5km",834,"73.csv","","226.59999990463257","resources/trios/L4T2A2.jpg","37","restless",0.9,0.4,0.7,0.152130010254644,"true"
"image-keyboard-response",100,104315,"0.0-4.29-1.29","yowb21svt76o5km",834,"73.csv","","null","resources/maskTrios/L4BB.jpg","null","",NA,NA,NA,NA,""
"image-keyboard-response",101,105517,"0.0-4.29-2.29","yowb21svt76o5km",834,"73.csv","","null","resources/images/coin2.png","null","",NA,NA,NA,NA,""
"image-keyboard-response",102,105605,"0.0-4.30-0.30","yowb21svt76o5km",834,"73.csv","","86.40000009536743","resources/trios/L4T2A2.jpg","37","restless",0.9,0.4,0.6,0.221409247605383,"true"
"image-keyboard-response",103,106011,"0.0-4.30-1.30","yowb21svt76o5km",834,"73.csv","","null","resources/maskTrios/L4BB.jpg","null","",NA,NA,NA,NA,""
"image-keyboard-response",104,107213,"0.0-4.30-2.30","yowb21svt76o5km",834,"73.csv","","null","resources/images/coin2.png","null","",NA,NA,NA,NA,""
"image-keyboard-response",105,107401,"0.0-4.31-0.31","yowb21svt76o5km",834,"73.csv","","186.59999990463257","resources/trios/L4T2A2.jpg","37","restless",0.9,0.4,0.6,0.60252729333414,"true"
"image-keyboard-response",106,107806,"0.0-4.31-1.31","yowb21svt76o5km",834,"73.csv","","null","resources/maskTrios/L4BB.jpg","null","",NA,NA,NA,NA,""
"image-keyboard-response",107,109013,"0.0-4.31-2.31","yowb21svt76o5km",834,"73.csv","","null","resources/images/coin2.png","null","",NA,NA,NA,NA,""
"image-keyboard-response",108,109138,"0.0-4.32-0.32","yowb21svt76o5km",834,"73.csv","","123.40000009536743","resources/trios/L4T2A2.jpg","37","restless",0.9,0.4,0.6,0.66269985999853,"true"
"image-keyboard-response",109,109542,"0.0-4.32-1.32","yowb21svt76o5km",834,"73.csv","","null","resources/maskTrios/L4BB.jpg","null","",NA,NA,NA,NA,""
"image-keyboard-response",110,110746,"0.0-4.32-2.32","yowb21svt76o5km",834,"73.csv","","null","resources/images/coin2.png","null","",NA,NA,NA,NA,""
"image-keyboard-response",111,110980,"0.0-4.33-0.33","yowb21svt76o5km",834,"73.csv","","233","resources/trios/L4T2A2.jpg","37","restless",0.9,0.4,0.6,0.222694214031643,"true"
"image-keyboard-response",112,111387,"0.0-4.33-1.33","yowb21svt76o5km",834,"73.csv","","null","resources/maskTrios/L4BB.jpg","null","",NA,NA,NA,NA,""
"image-keyboard-response",113,112594,"0.0-4.33-2.33","yowb21svt76o5km",834,"73.csv","","null","resources/images/coin2.png","null","",NA,NA,NA,NA,""
"image-keyboard-response",114,112652,"0.0-4.34-0.34","yowb21svt76o5km",834,"73.csv","","56.5","resources/trios/L4T2A2.jpg","37","restless",0.9,0.4,0.6,0.86312930210417,"true"
"image-keyboard-response",115,113058,"0.0-4.34-1.34","yowb21svt76o5km",834,"73.csv","","null","resources/maskTrios/L4BB.jpg","null","",NA,NA,NA,NA,""
"image-keyboard-response",116,114262,"0.0-4.34-2.34","yowb21svt76o5km",834,"73.csv","","null","resources/images/coin2.png","null","",NA,NA,NA,NA,""
"image-keyboard-response",117,114420,"0.0-4.35-0.35","yowb21svt76o5km",834,"73.csv","","157.09999990463257","resources/trios/L4T2A2.jpg","37","restless",0.9,0.3,0.5,0.709142344400562,"true"
"image-keyboard-response",118,114822,"0.0-4.35-1.35","yowb21svt76o5km",834,"73.csv","","null","resources/maskTrios/L4BB.jpg","null","",NA,NA,NA,NA,""
"image-keyboard-response",119,116025,"0.0-4.35-2.35","yowb21svt76o5km",834,"73.csv","","null","resources/images/coin2.png","null","",NA,NA,NA,NA,""
"image-keyboard-response",120,116072,"0.0-4.36-0.36","yowb21svt76o5km",834,"73.csv","","45.299999952316284","resources/trios/L4T2A2.jpg","37","restless",0.9,0.3,0.5,0.588173000749195,"true"
"image-keyboard-response",121,116475,"0.0-4.36-1.36","yowb21svt76o5km",834,"73.csv","","null","resources/maskTrios/L4BB.jpg","null","",NA,NA,NA,NA,""
"image-keyboard-response",122,117681,"0.0-4.36-2.36","yowb21svt76o5km",834,"73.csv","","null","resources/images/coin2.png","null","",NA,NA,NA,NA,""
"image-keyboard-response",123,117754,"0.0-4.37-0.37","yowb21svt76o5km",834,"73.csv","","71.5","resources/trios/L4T2A2.jpg","37","restless",0.9,0.3,0.5,0.637224404497437,"true"
"image-keyboard-response",124,118159,"0.0-4.37-1.37","yowb21svt76o5km",834,"73.csv","","null","resources/maskTrios/L4BB.jpg","null","",NA,NA,NA,NA,""
"image-keyboard-response",125,119363,"0.0-4.37-2.37","yowb21svt76o5km",834,"73.csv","","null","resources/images/coin2.png","null","",NA,NA,NA,NA,""
"image-keyboard-response",126,119548,"0.0-4.38-0.38","yowb21svt76o5km",834,"73.csv","","184.5","resources/trios/L4T2A2.jpg","37","restless",0.9,0.2,0.5,0.237422167404797,"true"
"image-keyboard-response",127,119955,"0.0-4.38-1.38","yowb21svt76o5km",834,"73.csv","","null","resources/maskTrios/L4BB.jpg","null","",NA,NA,NA,NA,""
"image-keyboard-response",128,121157,"0.0-4.38-2.38","yowb21svt76o5km",834,"73.csv","","null","resources/images/coin2.png","null","",NA,NA,NA,NA,""
"image-keyboard-response",129,121237,"0.0-4.39-0.39","yowb21svt76o5km",834,"73.csv","","78.39999985694885","resources/trios/L4T2A2.jpg","37","restless",0.9,0.2,0.5,0.201256693506434,"true"
"image-keyboard-response",130,121639,"0.0-4.39-1.39","yowb21svt76o5km",834,"73.csv","","null","resources/maskTrios/L4BB.jpg","null","",NA,NA,NA,NA,""
"image-keyboard-response",131,122846,"0.0-4.39-2.39","yowb21svt76o5km",834,"73.csv","","null","resources/images/coin2.png","null","",NA,NA,NA,NA,""
"image-keyboard-response",132,122902,"0.0-4.40-0.40","yowb21svt76o5km",834,"73.csv","","55.09999990463257","resources/trios/L4T2A2.jpg","37","restless",0.9,0.2,0.5,0.995251342500562,"false"
"image-keyboard-response",133,123309,"0.0-4.40-1.40","yowb21svt76o5km",834,"73.csv","","null","resources/maskTrios/L4BB.jpg","null","",NA,NA,NA,NA,""
"image-keyboard-response",134,124514,"0.0-4.40-2.40","yowb21svt76o5km",834,"73.csv","","null","resources/images/fishbone.png","null","",NA,NA,NA,NA,""
"image-keyboard-response",135,124667,"0.0-4.41-0.41","yowb21svt76o5km",834,"73.csv","","151.90000009536743","resources/trios/L4T2A2.jpg","37","restless",0.9,0.2,0.5,0.583674644768917,"true"
"image-keyboard-response",136,125074,"0.0-4.41-1.41","yowb21svt76o5km",834,"73.csv","","null","resources/maskTrios/L4BB.jpg","null","",NA,NA,NA,NA,""
"image-keyboard-response",137,126276,"0.0-4.41-2.41","yowb21svt76o5km",834,"73.csv","","null","resources/images/coin2.png","null","",NA,NA,NA,NA,""
"image-keyboard-response",138,126303,"0.0-4.42-0.42","yowb21svt76o5km",834,"73.csv","","26","resources/trios/L4T2A2.jpg","37","restless",0.8,0.2,0.5,0.0151706992232565,"true"
"image-keyboard-response",139,126706,"0.0-4.42-1.42","yowb21svt76o5km",834,"73.csv","","null","resources/maskTrios/L4BB.jpg","null","",NA,NA,NA,NA,""
"image-keyboard-response",140,127913,"0.0-4.42-2.42","yowb21svt76o5km",834,"73.csv","","null","resources/images/coin2.png","null","",NA,NA,NA,NA,""
"image-keyboard-response",141,128132,"0.0-4.43-0.43","yowb21svt76o5km",834,"73.csv","","218.09999990463257","resources/trios/L4T2A2.jpg","37","restless",0.8,0.2,0.5,0.352711144935629,"true"
"image-keyboard-response",142,128536,"0.0-4.43-1.43","yowb21svt76o5km",834,"73.csv","","null","resources/maskTrios/L4BB.jpg","null","",NA,NA,NA,NA,""
"image-keyboard-response",143,129738,"0.0-4.43-2.43","yowb21svt76o5km",834,"73.csv","","null","resources/images/coin2.png","null","",NA,NA,NA,NA,""
"image-keyboard-response",144,130039,"0.0-4.44-0.44","yowb21svt76o5km",834,"73.csv","","300.60000014305115","resources/trios/L4T2A2.jpg","37","restless",0.8,0.2,0.4,0.121143436586733,"true"
"image-keyboard-response",145,130443,"0.0-4.44-1.44","yowb21svt76o5km",834,"73.csv","","null","resources/maskTrios/L4BB.jpg","null","",NA,NA,NA,NA,""
"image-keyboard-response",146,131650,"0.0-4.44-2.44","yowb21svt76o5km",834,"73.csv","","null","resources/images/coin2.png","null","",NA,NA,NA,NA,""
"image-keyboard-response",147,131651,"0.0-4.45-0.45","yowb21svt76o5km",834,"73.csv","","0.20000004768371582","resources/trios/L4T2A2.jpg","37","restless",0.8,0.2,0.4,0.318695516671892,"true"
"image-keyboard-response",148,132058,"0.0-4.45-1.45","yowb21svt76o5km",834,"73.csv","","null","resources/maskTrios/L4BB.jpg","null","",NA,NA,NA,NA,""
"image-keyboard-response",149,133264,"0.0-4.45-2.45","yowb21svt76o5km",834,"73.csv","","null","resources/images/coin2.png","null","",NA,NA,NA,NA,""
"image-keyboard-response",150,133520,"0.0-4.46-0.46","yowb21svt76o5km",834,"73.csv","","255","resources/trios/L4T2A2.jpg","37","restless",0.7,0.2,0.4,0.670823694762246,"true"
"image-keyboard-response",151,133923,"0.0-4.46-1.46","yowb21svt76o5km",834,"73.csv","","null","resources/maskTrios/L4BB.jpg","null","",NA,NA,NA,NA,""
"image-keyboard-response",152,135130,"0.0-4.46-2.46","yowb21svt76o5km",834,"73.csv","","null","resources/images/coin2.png","null","",NA,NA,NA,NA,""
"image-keyboard-response",153,135176,"0.0-4.47-0.47","yowb21svt76o5km",834,"73.csv","","45","resources/trios/L4T2A2.jpg","37","restless",0.7,0.2,0.4,0.554527135813817,"true"
"image-keyboard-response",154,135580,"0.0-4.47-1.47","yowb21svt76o5km",834,"73.csv","","null","resources/maskTrios/L4BB.jpg","null","",NA,NA,NA,NA,""
"image-keyboard-response",155,136787,"0.0-4.47-2.47","yowb21svt76o5km",834,"73.csv","","null","resources/images/coin2.png","null","",NA,NA,NA,NA,""
"image-keyboard-response",156,136824,"0.0-4.48-0.48","yowb21svt76o5km",834,"73.csv","","36.60000014305115","resources/trios/L4T2A2.jpg","37","restless",0.7,0.2,0.4,0.868733430135769,"false"
"image-keyboard-response",157,137228,"0.0-4.48-1.48","yowb21svt76o5km",834,"73.csv","","null","resources/maskTrios/L4BB.jpg","null","",NA,NA,NA,NA,""
"image-keyboard-response",158,138434,"0.0-4.48-2.48","yowb21svt76o5km",834,"73.csv","","null","resources/images/fishbone.png","null","",NA,NA,NA,NA,""
"image-keyboard-response",159,138579,"0.0-4.49-0.49","yowb21svt76o5km",834,"73.csv","","144.09999990463257","resources/trios/L4T2A2.jpg","37","restless",0.7,0.2,0.4,0.678331354921364,"true"
"image-keyboard-response",160,138986,"0.0-4.49-1.49","yowb21svt76o5km",834,"73.csv","","null","resources/maskTrios/L4BB.jpg","null","",NA,NA,NA,NA,""
"image-keyboard-response",161,140192,"0.0-4.49-2.49","yowb21svt76o5km",834,"73.csv","","null","resources/images/coin2.png","null","",NA,NA,NA,NA,""
"image-keyboard-response",162,140393,"0.0-4.50-0.50","yowb21svt76o5km",834,"73.csv","","199.59999990463257","resources/trios/L4T2A2.jpg","37","restless",0.7,0.2,0.4,0.433372965407763,"true"
"image-keyboard-response",163,140796,"0.0-4.50-1.50","yowb21svt76o5km",834,"73.csv","","null","resources/maskTrios/L4BB.jpg","null","",NA,NA,NA,NA,""
"image-keyboard-response",164,142000,"0.0-4.50-2.50","yowb21svt76o5km",834,"73.csv","","null","resources/images/coin2.png","null","",NA,NA,NA,NA,""
"image-keyboard-response",165,142099,"0.0-4.51-0.51","yowb21svt76o5km",834,"73.csv","","97.10000014305115","resources/trios/L4T2A2.jpg","37","restless",0.6,0.2,0.4,0.0596894398652112,"true"
"image-keyboard-response",166,142502,"0.0-4.51-1.51","yowb21svt76o5km",834,"73.csv","","null","resources/maskTrios/L4BB.jpg","null","",NA,NA,NA,NA,""
"image-keyboard-response",167,143709,"0.0-4.51-2.51","yowb21svt76o5km",834,"73.csv","","null","resources/images/coin2.png","null","",NA,NA,NA,NA,""
"image-keyboard-response",168,143851,"0.0-4.52-0.52","yowb21svt76o5km",834,"73.csv","","140.5","resources/trios/L4T2A2.jpg","37","restless",0.6,0.2,0.4,0.0945560783160451,"true"
"image-keyboard-response",169,144257,"0.0-4.52-1.52","yowb21svt76o5km",834,"73.csv","","null","resources/maskTrios/L4BB.jpg","null","",NA,NA,NA,NA,""
"image-keyboard-response",170,145460,"0.0-4.52-2.52","yowb21svt76o5km",834,"73.csv","","null","resources/images/coin2.png","null","",NA,NA,NA,NA,""
"image-keyboard-response",171,145606,"0.0-4.53-0.53","yowb21svt76o5km",834,"73.csv","","145.5","resources/trios/L4T2A2.jpg","37","restless",0.5,0.2,0.4,0.704329120073578,"false"
"image-keyboard-response",172,146013,"0.0-4.53-1.53","yowb21svt76o5km",834,"73.csv","","null","resources/maskTrios/L4BB.jpg","null","",NA,NA,NA,NA,""
"image-keyboard-response",173,147220,"0.0-4.53-2.53","yowb21svt76o5km",834,"73.csv","","null","resources/images/fishbone.png","null","",NA,NA,NA,NA,""
"image-keyboard-response",174,147391,"0.0-4.54-0.54","yowb21svt76o5km",834,"73.csv","","170.20000004768372","resources/trios/L4T2A2.jpg","37","restless",0.5,0.2,0.5,0.802669843749344,"false"
"image-keyboard-response",175,147793,"0.0-4.54-1.54","yowb21svt76o5km",834,"73.csv","","null","resources/maskTrios/L4BB.jpg","null","",NA,NA,NA,NA,""
"image-keyboard-response",176,149000,"0.0-4.54-2.54","yowb21svt76o5km",834,"73.csv","","null","resources/images/fishbone.png","null","",NA,NA,NA,NA,""
"image-keyboard-response",177,149144,"0.0-4.55-0.55","yowb21svt76o5km",834,"73.csv","","143.70000004768372","resources/trios/L4T2A2.jpg","37","restless",0.5,0.2,0.5,0.00174032305514071,"true"
"image-keyboard-response",178,149546,"0.0-4.55-1.55","yowb21svt76o5km",834,"73.csv","","null","resources/maskTrios/L4BB.jpg","null","",NA,NA,NA,NA,""
"image-keyboard-response",179,150753,"0.0-4.55-2.55","yowb21svt76o5km",834,"73.csv","","null","resources/images/coin2.png","null","",NA,NA,NA,NA,""
"image-keyboard-response",180,150856,"0.0-4.56-0.56","yowb21svt76o5km",834,"73.csv","","101.5","resources/trios/L4T2A2.jpg","37","restless",0.5,0.2,0.5,0.116961544633421,"true"
"image-keyboard-response",181,151262,"0.0-4.56-1.56","yowb21svt76o5km",834,"73.csv","","null","resources/maskTrios/L4BB.jpg","null","",NA,NA,NA,NA,""
"image-keyboard-response",182,152469,"0.0-4.56-2.56","yowb21svt76o5km",834,"73.csv","","null","resources/images/coin2.png","null","",NA,NA,NA,NA,""
"image-keyboard-response",183,152825,"0.0-4.57-0.57","yowb21svt76o5km",834,"73.csv","","353.7999999523163","resources/trios/L4T2A2.jpg","37","restless",0.5,0.2,0.5,0.616293781818616,"false"
"image-keyboard-response",184,153232,"0.0-4.57-1.57","yowb21svt76o5km",834,"73.csv","","null","resources/maskTrios/L4BB.jpg","null","",NA,NA,NA,NA,""
"image-keyboard-response",185,154438,"0.0-4.57-2.57","yowb21svt76o5km",834,"73.csv","","null","resources/images/fishbone.png","null","",NA,NA,NA,NA,""
"image-keyboard-response",186,154527,"0.0-4.58-0.58","yowb21svt76o5km",834,"73.csv","","88.70000004768372","resources/trios/L4T2A2.jpg","37","restless",0.5,0.2,0.4,0.132378961848945,"true"
"image-keyboard-response",187,154933,"0.0-4.58-1.58","yowb21svt76o5km",834,"73.csv","","null","resources/maskTrios/L4BB.jpg","null","",NA,NA,NA,NA,""
"image-keyboard-response",188,156138,"0.0-4.58-2.58","yowb21svt76o5km",834,"73.csv","","null","resources/images/coin2.png","null","",NA,NA,NA,NA,""
"image-keyboard-response",189,156173,"0.0-4.59-0.59","yowb21svt76o5km",834,"73.csv","","33.90000009536743","resources/trios/L4T2A2.jpg","37","restless",0.5,0.2,0.4,0.219595385529224,"true"
"image-keyboard-response",190,156577,"0.0-4.59-1.59","yowb21svt76o5km",834,"73.csv","","null","resources/maskTrios/L4BB.jpg","null","",NA,NA,NA,NA,""
"image-keyboard-response",191,157779,"0.0-4.59-2.59","yowb21svt76o5km",834,"73.csv","","null","resources/images/coin2.png","null","",NA,NA,NA,NA,""
"image-keyboard-response",192,157839,"0.0-4.60-0.60","yowb21svt76o5km",834,"73.csv","","59.59999990463257","resources/trios/L4T2A2.jpg","37","restless",0.5,0.2,0.4,0.398240883648078,"true"
"image-keyboard-response",193,158245,"0.0-4.60-1.60","yowb21svt76o5km",834,"73.csv","","null","resources/maskTrios/L4BB.jpg","null","",NA,NA,NA,NA,""
"image-keyboard-response",194,159452,"0.0-4.60-2.60","yowb21svt76o5km",834,"73.csv","","null","resources/images/coin2.png","null","",NA,NA,NA,NA,""
"image-keyboard-response",195,159479,"0.0-4.61-0.61","yowb21svt76o5km",834,"73.csv","","25","resources/trios/L4T2A2.jpg","37","restless",0.5,0.2,0.4,0.874235183025752,"false"
"image-keyboard-response",196,159886,"0.0-4.61-1.61","yowb21svt76o5km",834,"73.csv","","null","resources/maskTrios/L4BB.jpg","null","",NA,NA,NA,NA,""
"image-keyboard-response",197,161087,"0.0-4.61-2.61","yowb21svt76o5km",834,"73.csv","","null","resources/images/fishbone.png","null","",NA,NA,NA,NA,""
"image-keyboard-response",198,161160,"0.0-4.62-0.62","yowb21svt76o5km",834,"73.csv","","71","resources/trios/L4T2A2.jpg","37","restless",0.5,0.2,0.4,0.413531021081294,"true"
"image-keyboard-response",199,161566,"0.0-4.62-1.62","yowb21svt76o5km",834,"73.csv","","null","resources/maskTrios/L4BB.jpg","null","",NA,NA,NA,NA,""
"image-keyboard-response",200,162770,"0.0-4.62-2.62","yowb21svt76o5km",834,"73.csv","","null","resources/images/coin2.png","null","",NA,NA,NA,NA,""
"image-keyboard-response",201,162817,"0.0-4.63-0.63","yowb21svt76o5km",834,"73.csv","","46","resources/trios/L4T2A2.jpg","37","restless",0.5,0.2,0.4,0.127187160793493,"true"
"image-keyboard-response",202,163219,"0.0-4.63-1.63","yowb21svt76o5km",834,"73.csv","","null","resources/maskTrios/L4BB.jpg","null","",NA,NA,NA,NA,""
"image-keyboard-response",203,164424,"0.0-4.63-2.63","yowb21svt76o5km",834,"73.csv","","null","resources/images/coin2.png","null","",NA,NA,NA,NA,""
"image-keyboard-response",204,164482,"0.0-4.64-0.64","yowb21svt76o5km",834,"73.csv","","56.700000047683716","resources/trios/L4T2A2.jpg","37","restless",0.5,0.2,0.4,0.876383749247453,"false"
"image-keyboard-response",205,164886,"0.0-4.64-1.64","yowb21svt76o5km",834,"73.csv","","null","resources/maskTrios/L4BB.jpg","null","",NA,NA,NA,NA,""
"image-keyboard-response",206,166092,"0.0-4.64-2.64","yowb21svt76o5km",834,"73.csv","","null","resources/images/fishbone.png","null","",NA,NA,NA,NA,""
"image-keyboard-response",207,166184,"0.0-4.65-0.65","yowb21svt76o5km",834,"73.csv","","90.59999990463257","resources/trios/L4T2A2.jpg","37","restless",0.5,0.2,0.4,0.26775516190364,"true"
"image-keyboard-response",208,166591,"0.0-4.65-1.65","yowb21svt76o5km",834,"73.csv","","null","resources/maskTrios/L4BB.jpg","null","",NA,NA,NA,NA,""
"image-keyboard-response",209,167792,"0.0-4.65-2.65","yowb21svt76o5km",834,"73.csv","","null","resources/images/coin2.png","null","",NA,NA,NA,NA,""
"image-keyboard-response",210,167796,"0.0-4.66-0.66","yowb21svt76o5km",834,"73.csv","","2.200000047683716","resources/trios/L4T2A2.jpg","37","restless",0.5,0.2,0.4,0.648348873101891,"false"
"image-keyboard-response",211,168200,"0.0-4.66-1.66","yowb21svt76o5km",834,"73.csv","","null","resources/maskTrios/L4BB.jpg","null","",NA,NA,NA,NA,""
"image-keyboard-response",212,169403,"0.0-4.66-2.66","yowb21svt76o5km",834,"73.csv","","null","resources/images/fishbone.png","null","",NA,NA,NA,NA,""
"image-keyboard-response",213,169408,"0.0-4.67-0.67","yowb21svt76o5km",834,"73.csv","","3.799999952316284","resources/trios/L4T2A2.jpg","37","restless",0.5,0.2,0.4,0.408827402092237,"true"
"image-keyboard-response",214,169811,"0.0-4.67-1.67","yowb21svt76o5km",834,"73.csv","","null","resources/maskTrios/L4BB.jpg","null","",NA,NA,NA,NA,""
"image-keyboard-response",215,171015,"0.0-4.67-2.67","yowb21svt76o5km",834,"73.csv","","null","resources/images/coin2.png","null","",NA,NA,NA,NA,""
"image-keyboard-response",216,171429,"0.0-4.68-0.68","yowb21svt76o5km",834,"73.csv","","412.90000009536743","resources/trios/L4T2A2.jpg","37","restless",0.5,0.2,0.4,0.53809788333121,"false"
"image-keyboard-response",217,171834,"0.0-4.68-1.68","yowb21svt76o5km",834,"73.csv","","null","resources/maskTrios/L4BB.jpg","null","",NA,NA,NA,NA,""
"image-keyboard-response",218,173041,"0.0-4.68-2.68","yowb21svt76o5km",834,"73.csv","","null","resources/images/fishbone.png","null","",NA,NA,NA,NA,""
"image-keyboard-response",219,173348,"0.0-4.69-0.69","yowb21svt76o5km",834,"73.csv","","305.7000000476837","resources/trios/L4T2A2.jpg","37","restless",0.5,0.2,0.4,0.385376230216439,"true"
"image-keyboard-response",220,173755,"0.0-4.69-1.69","yowb21svt76o5km",834,"73.csv","","null","resources/maskTrios/L4BB.jpg","null","",NA,NA,NA,NA,""
"image-keyboard-response",221,174956,"0.0-4.69-2.69","yowb21svt76o5km",834,"73.csv","","null","resources/images/coin2.png","null","",NA,NA,NA,NA,""
"image-keyboard-response",222,175361,"0.0-4.70-0.70","yowb21svt76o5km",834,"73.csv","","404.39999985694885","resources/trios/L4T2A2.jpg","37","restless",0.5,0.2,0.5,0.183723683823724,"true"
"image-keyboard-response",223,175763,"0.0-4.70-1.70","yowb21svt76o5km",834,"73.csv","","null","resources/maskTrios/L4BB.jpg","null","",NA,NA,NA,NA,""
"image-keyboard-response",224,176965,"0.0-4.70-2.70","yowb21svt76o5km",834,"73.csv","","null","resources/images/coin2.png","null","",NA,NA,NA,NA,""
"image-keyboard-response",225,177166,"0.0-4.71-0.71","yowb21svt76o5km",834,"73.csv","","200.10000014305115","resources/trios/L4T2A2.jpg","37","restless",0.4,0.2,0.5,0.883229400570343,"false"
"image-keyboard-response",226,177573,"0.0-4.71-1.71","yowb21svt76o5km",834,"73.csv","","null","resources/maskTrios/L4BB.jpg","null","",NA,NA,NA,NA,""
"image-keyboard-response",227,178944,"0.0-4.71-2.71","yowb21svt76o5km",834,"73.csv","","null","resources/images/fishbone.png","null","",NA,NA,NA,NA,""
"image-keyboard-response",228,182285,"0.0-4.72-0.72","yowb21svt76o5km",834,"73.csv","","3340","resources/trios/L4T2A2.jpg","37","restless",0.3,0.2,0.5,0.985643893997894,"false"
"image-keyboard-response",229,182688,"0.0-4.72-1.72","yowb21svt76o5km",834,"73.csv","","null","resources/maskTrios/L4BB.jpg","null","",NA,NA,NA,NA,""
"image-keyboard-response",230,183945,"0.0-4.72-2.72","yowb21svt76o5km",834,"73.csv","","null","resources/images/fishbone.png","null","",NA,NA,NA,NA,""
"image-keyboard-response",231,192540,"0.0-4.73-0.73","yowb21svt76o5km",834,"73.csv","","8591.800000190735","resources/trios/L4T2A2.jpg","37","restless",0.3,0.2,0.5,0.951483679212181,"false"
"image-keyboard-response",232,192947,"0.0-4.73-1.73","yowb21svt76o5km",834,"73.csv","","null","resources/maskTrios/L4BB.jpg","null","",NA,NA,NA,NA,""
"image-keyboard-response",233,194152,"0.0-4.73-2.73","yowb21svt76o5km",834,"73.csv","","null","resources/images/fishbone.png","null","",NA,NA,NA,NA,""
"image-keyboard-response",234,194168,"0.0-4.74-0.74","yowb21svt76o5km",834,"73.csv","","14.900000095367432","resources/trios/L4T2A2.jpg","37","restless",0.3,0.2,0.6,0.841416043397311,"false"
"image-keyboard-response",235,194575,"0.0-4.74-1.74","yowb21svt76o5km",834,"73.csv","","null","resources/maskTrios/L4BB.jpg","null","",NA,NA,NA,NA,""
"image-keyboard-response",236,195781,"0.0-4.74-2.74","yowb21svt76o5km",834,"73.csv","","null","resources/images/fishbone.png","null","",NA,NA,NA,NA,""
"image-keyboard-response",237,195804,"0.0-4.75-0.75","yowb21svt76o5km",834,"73.csv","","21.299999952316284","resources/trios/L4T2A2.jpg","37","restless",0.3,0.2,0.6,0.929968375032316,"false"
"image-keyboard-response",238,196206,"0.0-4.75-1.75","yowb21svt76o5km",834,"73.csv","","null","resources/maskTrios/L4BB.jpg","null","",NA,NA,NA,NA,""
"image-keyboard-response",239,197413,"0.0-4.75-2.75","yowb21svt76o5km",834,"73.csv","","null","resources/images/fishbone.png","null","",NA,NA,NA,NA,""
"image-keyboard-response",240,198052,"0.0-4.76-0.76","yowb21svt76o5km",834,"73.csv","","637.5","resources/trios/L4T2A2.jpg","39","restless",0.3,0.2,0.6,0.00733932041734309,"true"
"image-keyboard-response",241,198458,"0.0-4.76-1.76","yowb21svt76o5km",834,"73.csv","","null","resources/maskTrios/BBA2.jpg","null","",NA,NA,NA,NA,""
"image-keyboard-response",242,199662,"0.0-4.76-2.76","yowb21svt76o5km",834,"73.csv","","null","resources/images/coin2.png","null","",NA,NA,NA,NA,""
"image-keyboard-response",243,199740,"0.0-4.77-0.77","yowb21svt76o5km",834,"73.csv","","77.80000019073486","resources/trios/L4T2A2.jpg","39","restless",0.3,0.3,0.6,0.382731630657737,"true"
"image-keyboard-response",244,200148,"0.0-4.77-1.77","yowb21svt76o5km",834,"73.csv","","null","resources/maskTrios/BBA2.jpg","null","",NA,NA,NA,NA,""
"image-keyboard-response",245,201349,"0.0-4.77-2.77","yowb21svt76o5km",834,"73.csv","","null","resources/images/coin2.png","null","",NA,NA,NA,NA,""
"image-keyboard-response",246,201653,"0.0-4.78-0.78","yowb21svt76o5km",834,"73.csv","","302.2000000476837","resources/trios/L4T2A2.jpg","39","restless",0.3,0.4,0.5,0.816232508581987,"false"
"image-keyboard-response",247,202059,"0.0-4.78-1.78","yowb21svt76o5km",834,"73.csv","","null","resources/maskTrios/BBA2.jpg","null","",NA,NA,NA,NA,""
"image-keyboard-response",248,203265,"0.0-4.78-2.78","yowb21svt76o5km",834,"73.csv","","null","resources/images/fishbone.png","null","",NA,NA,NA,NA,""
"image-keyboard-response",249,203272,"0.0-4.79-0.79","yowb21svt76o5km",834,"73.csv","","6","resources/trios/L4T2A2.jpg","39","restless",0.3,0.4,0.5,0.410480970607475,"true"
"image-keyboard-response",250,203678,"0.0-4.79-1.79","yowb21svt76o5km",834,"73.csv","","null","resources/maskTrios/BBA2.jpg","null","",NA,NA,NA,NA,""
"image-keyboard-response",251,204884,"0.0-4.79-2.79","yowb21svt76o5km",834,"73.csv","","null","resources/images/coin2.png","null","",NA,NA,NA,NA,""
"image-keyboard-response",252,205082,"0.0-4.80-0.80","yowb21svt76o5km",834,"73.csv","","197.19999980926514","resources/trios/L4T2A2.jpg","39","restless",0.3,0.4,0.5,0.633759567691208,"false"
"image-keyboard-response",253,205489,"0.0-4.80-1.80","yowb21svt76o5km",834,"73.csv","","null","resources/maskTrios/BBA2.jpg","null","",NA,NA,NA,NA,""
"image-keyboard-response",254,206695,"0.0-4.80-2.80","yowb21svt76o5km",834,"73.csv","","null","resources/images/fishbone.png","null","",NA,NA,NA,NA,""
"image-keyboard-response",255,206768,"0.0-4.81-0.81","yowb21svt76o5km",834,"73.csv","","71.30000019073486","resources/trios/L4T2A2.jpg","39","restless",0.3,0.4,0.5,0.452190356306371,"true"
"image-keyboard-response",256,207174,"0.0-4.81-1.81","yowb21svt76o5km",834,"73.csv","","null","resources/maskTrios/BBA2.jpg","null","",NA,NA,NA,NA,""
"image-keyboard-response",257,208377,"0.0-4.81-2.81","yowb21svt76o5km",834,"73.csv","","null","resources/images/coin2.png","null","",NA,NA,NA,NA,""
"image-keyboard-response",258,208542,"0.0-4.82-0.82","yowb21svt76o5km",834,"73.csv","","163.89999985694885","resources/trios/L4T2A2.jpg","39","restless",0.3,0.4,0.5,0.867294546805494,"false"
"image-keyboard-response",259,208948,"0.0-4.82-1.82","yowb21svt76o5km",834,"73.csv","","null","resources/maskTrios/BBA2.jpg","null","",NA,NA,NA,NA,""
"image-keyboard-response",260,210154,"0.0-4.82-2.82","yowb21svt76o5km",834,"73.csv","","null","resources/images/fishbone.png","null","",NA,NA,NA,NA,""
"image-keyboard-response",261,210238,"0.0-4.83-0.83","yowb21svt76o5km",834,"73.csv","","83.39999985694885","resources/trios/L4T2A2.jpg","39","restless",0.3,0.4,0.5,0.779264992861425,"false"
"image-keyboard-response",262,210643,"0.0-4.83-1.83","yowb21svt76o5km",834,"73.csv","","null","resources/maskTrios/BBA2.jpg","null","",NA,NA,NA,NA,""
"image-keyboard-response",263,211845,"0.0-4.83-2.83","yowb21svt76o5km",834,"73.csv","","null","resources/images/fishbone.png","null","",NA,NA,NA,NA,""
"image-keyboard-response",264,212118,"0.0-4.84-0.84","yowb21svt76o5km",834,"73.csv","","272.2999999523163","resources/trios/L4T2A2.jpg","39","restless",0.3,0.4,0.5,0.374653192330306,"true"
"image-keyboard-response",265,212523,"0.0-4.84-1.84","yowb21svt76o5km",834,"73.csv","","null","resources/maskTrios/BBA2.jpg","null","",NA,NA,NA,NA,""
"image-keyboard-response",266,213730,"0.0-4.84-2.84","yowb21svt76o5km",834,"73.csv","","null","resources/images/coin2.png","null","",NA,NA,NA,NA,""
"image-keyboard-response",267,213755,"0.0-4.85-0.85","yowb21svt76o5km",834,"73.csv","","24.40000009536743","resources/trios/L4T2A2.jpg","39","restless",0.3,0.4,0.5,0.546737641310121,"false"
"image-keyboard-response",268,214157,"0.0-4.85-1.85","yowb21svt76o5km",834,"73.csv","","null","resources/maskTrios/BBA2.jpg","null","",NA,NA,NA,NA,""
"image-keyboard-response",269,215362,"0.0-4.85-2.85","yowb21svt76o5km",834,"73.csv","","null","resources/images/fishbone.png","null","",NA,NA,NA,NA,""
"image-keyboard-response",270,215977,"0.0-4.86-0.86","yowb21svt76o5km",834,"73.csv","","613.3999998569489","resources/trios/L4T2A2.jpg","38","restless",0.3,0.4,0.5,0.91095166733932,"false"
"image-keyboard-response",271,216383,"0.0-4.86-1.86","yowb21svt76o5km",834,"73.csv","","null","resources/maskTrios/BT2B.jpg","null","",NA,NA,NA,NA,""
"image-keyboard-response",272,217589,"0.0-4.86-2.86","yowb21svt76o5km",834,"73.csv","","null","resources/images/fishbone.png","null","",NA,NA,NA,NA,""
"image-keyboard-response",273,217632,"0.0-4.87-0.87","yowb21svt76o5km",834,"73.csv","","41.200000047683716","resources/trios/L4T2A2.jpg","38","restless",0.3,0.4,0.5,0.941204948218573,"false"
"image-keyboard-response",274,218036,"0.0-4.87-1.87","yowb21svt76o5km",834,"73.csv","","null","resources/maskTrios/BT2B.jpg","null","",NA,NA,NA,NA,""
"image-keyboard-response",275,219243,"0.0-4.87-2.87","yowb21svt76o5km",834,"73.csv","","null","resources/images/fishbone.png","null","",NA,NA,NA,NA,""
"image-keyboard-response",276,219293,"0.0-4.88-0.88","yowb21svt76o5km",834,"73.csv","","48.60000014305115","resources/trios/L4T2A2.jpg","38","restless",0.3,0.4,0.5,0.306488085809419,"true"
"image-keyboard-response",277,219698,"0.0-4.88-1.88","yowb21svt76o5km",834,"73.csv","","null","resources/maskTrios/BT2B.jpg","null","",NA,NA,NA,NA,""
"image-keyboard-response",278,220904,"0.0-4.88-2.88","yowb21svt76o5km",834,"73.csv","","null","resources/images/coin2.png","null","",NA,NA,NA,NA,""
"image-keyboard-response",279,221084,"0.0-4.89-0.89","yowb21svt76o5km",834,"73.csv","","179","resources/trios/L4T2A2.jpg","38","restless",0.3,0.4,0.5,0.342174689064654,"true"
"image-keyboard-response",280,221490,"0.0-4.89-1.89","yowb21svt76o5km",834,"73.csv","","null","resources/maskTrios/BT2B.jpg","null","",NA,NA,NA,NA,""
"image-keyboard-response",281,222697,"0.0-4.89-2.89","yowb21svt76o5km",834,"73.csv","","null","resources/images/coin2.png","null","",NA,NA,NA,NA,""
"image-keyboard-response",282,222804,"0.0-4.90-0.90","yowb21svt76o5km",834,"73.csv","","105.90000009536743","resources/trios/L4T2A2.jpg","38","restless",0.3,0.3,0.6,0.290850536569623,"true"
"image-keyboard-response",283,223211,"0.0-4.90-1.90","yowb21svt76o5km",834,"73.csv","","null","resources/maskTrios/BT2B.jpg","null","",NA,NA,NA,NA,""
"image-keyboard-response",284,224417,"0.0-4.90-2.90","yowb21svt76o5km",834,"73.csv","","null","resources/images/coin2.png","null","",NA,NA,NA,NA,""
"image-keyboard-response",285,224691,"0.0-4.91-0.91","yowb21svt76o5km",834,"73.csv","","272.2999999523163","resources/trios/L4T2A2.jpg","38","restless",0.3,0.4,0.6,0.603249767535981,"false"
"image-keyboard-response",286,225097,"0.0-4.91-1.91","yowb21svt76o5km",834,"73.csv","","null","resources/maskTrios/BT2B.jpg","null","",NA,NA,NA,NA,""
"image-keyboard-response",287,226304,"0.0-4.91-2.91","yowb21svt76o5km",834,"73.csv","","null","resources/images/fishbone.png","null","",NA,NA,NA,NA,""
"image-keyboard-response",288,226458,"0.0-4.92-0.92","yowb21svt76o5km",834,"73.csv","","152.89999985694885","resources/trios/L4T2A2.jpg","37","restless",0.3,0.3,0.6,0.902951362766877,"false"
"image-keyboard-response",289,226861,"0.0-4.92-1.92","yowb21svt76o5km",834,"73.csv","","null","resources/maskTrios/L4BB.jpg","null","",NA,NA,NA,NA,""
"image-keyboard-response",290,228067,"0.0-4.92-2.92","yowb21svt76o5km",834,"73.csv","","null","resources/images/fishbone.png","null","",NA,NA,NA,NA,""
"image-keyboard-response",291,228294,"0.0-4.93-0.93","yowb21svt76o5km",834,"73.csv","","225.70000004768372","resources/trios/L4T2A2.jpg","37","restless",0.3,0.3,0.7,0.0564404287686751,"true"
"image-keyboard-response",292,228700,"0.0-4.93-1.93","yowb21svt76o5km",834,"73.csv","","null","resources/maskTrios/L4BB.jpg","null","",NA,NA,NA,NA,""
"image-keyboard-response",293,229907,"0.0-4.93-2.93","yowb21svt76o5km",834,"73.csv","","null","resources/images/coin2.png","null","",NA,NA,NA,NA,""
"image-keyboard-response",294,230116,"0.0-4.94-0.94","yowb21svt76o5km",834,"73.csv","","208","resources/trios/L4T2A2.jpg","37","restless",0.3,0.3,0.7,0.379038546375907,"false"
"image-keyboard-response",295,230523,"0.0-4.94-1.94","yowb21svt76o5km",834,"73.csv","","null","resources/maskTrios/L4BB.jpg","null","",NA,NA,NA,NA,""
"image-keyboard-response",296,231730,"0.0-4.94-2.94","yowb21svt76o5km",834,"73.csv","","null","resources/images/fishbone.png","null","",NA,NA,NA,NA,""
"image-keyboard-response",297,231780,"0.0-4.95-0.95","yowb21svt76o5km",834,"73.csv","","49.5","resources/trios/L4T2A2.jpg","37","restless",0.3,0.3,0.7,0.560422690978798,"false"
"image-keyboard-response",298,232183,"0.0-4.95-1.95","yowb21svt76o5km",834,"73.csv","","null","resources/maskTrios/L4BB.jpg","null","",NA,NA,NA,NA,""
"image-keyboard-response",299,233390,"0.0-4.95-2.95","yowb21svt76o5km",834,"73.csv","","null","resources/images/fishbone.png","null","",NA,NA,NA,NA,""
"image-keyboard-response",300,233396,"0.0-4.96-0.96","yowb21svt76o5km",834,"73.csv","","4.5","resources/trios/L4T2A2.jpg","37","restless",0.3,0.3,0.7,0.822214159353553,"false"
"image-keyboard-response",301,233798,"0.0-4.96-1.96","yowb21svt76o5km",834,"73.csv","","null","resources/maskTrios/L4BB.jpg","null","",NA,NA,NA,NA,""
"image-keyboard-response",302,235001,"0.0-4.96-2.96","yowb21svt76o5km",834,"73.csv","","null","resources/images/fishbone.png","null","",NA,NA,NA,NA,""
"image-keyboard-response",303,235033,"0.0-4.97-0.97","yowb21svt76o5km",834,"73.csv","","30.899999856948853","resources/trios/L4T2A2.jpg","37","restless",0.3,0.3,0.7,0.291685844470237,"true"
"image-keyboard-response",304,235440,"0.0-4.97-1.97","yowb21svt76o5km",834,"73.csv","","null","resources/maskTrios/L4BB.jpg","null","",NA,NA,NA,NA,""
"image-keyboard-response",305,236643,"0.0-4.97-2.97","yowb21svt76o5km",834,"73.csv","","null","resources/images/coin2.png","null","",NA,NA,NA,NA,""
"image-keyboard-response",306,236874,"0.0-4.98-0.98","yowb21svt76o5km",834,"73.csv","","230.39999985694885","resources/trios/L4T2A2.jpg","37","restless",0.3,0.3,0.7,0.241972828597568,"true"
"image-keyboard-response",307,237281,"0.0-4.98-1.98","yowb21svt76o5km",834,"73.csv","","null","resources/maskTrios/L4BB.jpg","null","",NA,NA,NA,NA,""
"image-keyboard-response",308,238488,"0.0-4.98-2.98","yowb21svt76o5km",834,"73.csv","","null","resources/images/coin2.png","null","",NA,NA,NA,NA,""
"image-keyboard-response",309,238729,"0.0-4.99-0.99","yowb21svt76o5km",834,"73.csv","","240.10000014305115","resources/trios/L4T2A2.jpg","37","restless",0.4,0.3,0.7,0.73278335299317,"false"
"image-keyboard-response",310,239135,"0.0-4.99-1.99","yowb21svt76o5km",834,"73.csv","","null","resources/maskTrios/L4BB.jpg","null","",NA,NA,NA,NA,""
"image-keyboard-response",311,240337,"0.0-4.99-2.99","yowb21svt76o5km",834,"73.csv","","null","resources/images/fishbone.png","null","",NA,NA,NA,NA,""
"image-keyboard-response",312,240618,"0.0-4.100-0.100","yowb21svt76o5km",834,"73.csv","","280.5","resources/trios/L4T2A2.jpg","39","restless",0.4,0.3,0.7,0.949693282500663,"false"
"image-keyboard-response",313,241025,"0.0-4.100-1.100","yowb21svt76o5km",834,"73.csv","","null","resources/maskTrios/BBA2.jpg","null","",NA,NA,NA,NA,""
"image-keyboard-response",314,242227,"0.0-4.100-2.100","yowb21svt76o5km",834,"73.csv","","null","resources/images/fishbone.png","null","",NA,NA,NA,NA,""
"image-keyboard-response",315,242395,"0.0-4.101-0.101","yowb21svt76o5km",834,"73.csv","","166.29999995231628","resources/trios/L4T2A2.jpg","38","restless",0.4,0.3,0.7,0.293012678052128,"true"
"image-keyboard-response",316,242798,"0.0-4.101-1.101","yowb21svt76o5km",834,"73.csv","","null","resources/maskTrios/BT2B.jpg","null","",NA,NA,NA,NA,""
"image-keyboard-response",317,244000,"0.0-4.101-2.101","yowb21svt76o5km",834,"73.csv","","null","resources/images/coin2.png","null","",NA,NA,NA,NA,""
"image-keyboard-response",318,244176,"0.0-4.102-0.102","yowb21svt76o5km",834,"73.csv","","174.40000009536743","resources/trios/L4T2A2.jpg","38","restless",0.5,0.3,0.7,0.735557072875332,"false"
"image-keyboard-response",319,244579,"0.0-4.102-1.102","yowb21svt76o5km",834,"73.csv","","null","resources/maskTrios/BT2B.jpg","null","",NA,NA,NA,NA,""
"image-keyboard-response",320,245785,"0.0-4.102-2.102","yowb21svt76o5km",834,"73.csv","","null","resources/images/fishbone.png","null","",NA,NA,NA,NA,""
"image-keyboard-response",321,245788,"0.0-4.103-0.103","yowb21svt76o5km",834,"73.csv","","1.7000000476837158","resources/trios/L4T2A2.jpg","39","restless",0.5,0.3,0.7,0.722172492657374,"false"
"image-keyboard-response",322,246191,"0.0-4.103-1.103","yowb21svt76o5km",834,"73.csv","","null","resources/maskTrios/BBA2.jpg","null","",NA,NA,NA,NA,""
"image-keyboard-response",323,247393,"0.0-4.103-2.103","yowb21svt76o5km",834,"73.csv","","null","resources/images/fishbone.png","null","",NA,NA,NA,NA,""
"image-keyboard-response",324,247659,"0.0-4.104-0.104","yowb21svt76o5km",834,"73.csv","","265","resources/trios/L4T2A2.jpg","39","restless",0.5,0.3,0.7,0.459542357574243,"true"
"image-keyboard-response",325,248066,"0.0-4.104-1.104","yowb21svt76o5km",834,"73.csv","","null","resources/maskTrios/BBA2.jpg","null","",NA,NA,NA,NA,""
"image-keyboard-response",326,249273,"0.0-4.104-2.104","yowb21svt76o5km",834,"73.csv","","null","resources/images/coin2.png","null","",NA,NA,NA,NA,""
"image-keyboard-response",327,249554,"0.0-4.105-0.105","yowb21svt76o5km",834,"73.csv","","279.89999985694885","resources/trios/L4T2A2.jpg","38","restless",0.5,0.3,0.7,0.324780076183898,"false"
"image-keyboard-response",328,249955,"0.0-4.105-1.105","yowb21svt76o5km",834,"73.csv","","null","resources/maskTrios/BT2B.jpg","null","",NA,NA,NA,NA,""
"image-keyboard-response",329,251157,"0.0-4.105-2.105","yowb21svt76o5km",834,"73.csv","","null","resources/images/fishbone.png","null","",NA,NA,NA,NA,""
"image-keyboard-response",330,251257,"0.0-4.106-0.106","yowb21svt76o5km",834,"73.csv","","98.60000014305115","resources/trios/L4T2A2.jpg","37","restless",0.5,0.3,0.7,0.796546154319747,"false"
"image-keyboard-response",331,251660,"0.0-4.106-1.106","yowb21svt76o5km",834,"73.csv","","null","resources/maskTrios/L4BB.jpg","null","",NA,NA,NA,NA,""
"image-keyboard-response",332,252862,"0.0-4.106-2.106","yowb21svt76o5km",834,"73.csv","","null","resources/images/fishbone.png","null","",NA,NA,NA,NA,""
"image-keyboard-response",333,253270,"0.0-4.107-0.107","yowb21svt76o5km",834,"73.csv","","407","resources/trios/L4T2A2.jpg","39","restless",0.5,0.3,0.7,0.224077121063796,"true"
"image-keyboard-response",334,253676,"0.0-4.107-1.107","yowb21svt76o5km",834,"73.csv","","null","resources/maskTrios/BBA2.jpg","null","",NA,NA,NA,NA,""
"image-keyboard-response",335,254878,"0.0-4.107-2.107","yowb21svt76o5km",834,"73.csv","","null","resources/images/coin2.png","null","",NA,NA,NA,NA,""
"image-keyboard-response",336,255271,"0.0-4.108-0.108","yowb21svt76o5km",834,"73.csv","","392.09999990463257","resources/trios/L4T2A2.jpg","38","restless",0.5,0.3,0.7,0.529616838750652,"false"
"image-keyboard-response",337,255678,"0.0-4.108-1.108","yowb21svt76o5km",834,"73.csv","","null","resources/maskTrios/BT2B.jpg","null","",NA,NA,NA,NA,""
"image-keyboard-response",338,256885,"0.0-4.108-2.108","yowb21svt76o5km",834,"73.csv","","null","resources/images/fishbone.png","null","",NA,NA,NA,NA,""
"image-keyboard-response",339,256974,"0.0-4.109-0.109","yowb21svt76o5km",834,"73.csv","","87.5","resources/trios/L4T2A2.jpg","37","restless",0.4,0.3,0.7,0.39450989152129,"true"
"image-keyboard-response",340,257378,"0.0-4.109-1.109","yowb21svt76o5km",834,"73.csv","","null","resources/maskTrios/L4BB.jpg","null","",NA,NA,NA,NA,""
"image-keyboard-response",341,258583,"0.0-4.109-2.109","yowb21svt76o5km",834,"73.csv","","null","resources/images/coin2.png","null","",NA,NA,NA,NA,""
"image-keyboard-response",342,258978,"0.0-4.110-0.110","yowb21svt76o5km",834,"73.csv","","394.40000009536743","resources/trios/L4T2A2.jpg","39","restless",0.3,0.3,0.7,0.00075587641627739,"true"
"image-keyboard-response",343,259381,"0.0-4.110-1.110","yowb21svt76o5km",834,"73.csv","","null","resources/maskTrios/BBA2.jpg","null","",NA,NA,NA,NA,""
"image-keyboard-response",344,260582,"0.0-4.110-2.110","yowb21svt76o5km",834,"73.csv","","null","resources/images/coin2.png","null","",NA,NA,NA,NA,""
"image-keyboard-response",345,260820,"0.0-4.111-0.111","yowb21svt76o5km",834,"73.csv","","236","resources/trios/L4T2A2.jpg","38","restless",0.4,0.2,0.7,0.943215272275234,"false"
"image-keyboard-response",346,261227,"0.0-4.111-1.111","yowb21svt76o5km",834,"73.csv","","null","resources/maskTrios/BT2B.jpg","null","",NA,NA,NA,NA,""
"image-keyboard-response",347,262433,"0.0-4.111-2.111","yowb21svt76o5km",834,"73.csv","","null","resources/images/fishbone.png","null","",NA,NA,NA,NA,""
"image-keyboard-response",348,262826,"0.0-4.112-0.112","yowb21svt76o5km",834,"73.csv","","391.09999990463257","resources/trios/L4T2A2.jpg","37","restless",0.4,0.2,0.7,0.756886953468149,"false"
"image-keyboard-response",349,263232,"0.0-4.112-1.112","yowb21svt76o5km",834,"73.csv","","null","resources/maskTrios/L4BB.jpg","null","",NA,NA,NA,NA,""
"image-keyboard-response",350,264436,"0.0-4.112-2.112","yowb21svt76o5km",834,"73.csv","","null","resources/images/fishbone.png","null","",NA,NA,NA,NA,""
"image-keyboard-response",351,264499,"0.0-4.113-0.113","yowb21svt76o5km",834,"73.csv","","62.60000014305115","resources/trios/L4T2A2.jpg","39","restless",0.4,0.2,0.7,0.935772648180932,"false"
"image-keyboard-response",352,264906,"0.0-4.113-1.113","yowb21svt76o5km",834,"73.csv","","null","resources/maskTrios/BBA2.jpg","null","",NA,NA,NA,NA,""
"image-keyboard-response",353,266110,"0.0-4.113-2.113","yowb21svt76o5km",834,"73.csv","","null","resources/images/fishbone.png","null","",NA,NA,NA,NA,""
"image-keyboard-response",354,266320,"0.0-4.114-0.114","yowb21svt76o5km",834,"73.csv","","208.60000014305115","resources/trios/L4T2A2.jpg","38","restless",0.3,0.1,0.7,0.60741233189553,"false"
"image-keyboard-response",355,266724,"0.0-4.114-1.114","yowb21svt76o5km",834,"73.csv","","null","resources/maskTrios/BT2B.jpg","null","",NA,NA,NA,NA,""
"image-keyboard-response",356,267929,"0.0-4.114-2.114","yowb21svt76o5km",834,"73.csv","","null","resources/images/fishbone.png","null","",NA,NA,NA,NA,""
"image-keyboard-response",357,268174,"0.0-4.115-0.115","yowb21svt76o5km",834,"73.csv","","243.40000009536743","resources/trios/L4T2A2.jpg","37","restless",0.3,0.1,0.6,0.428170350000076,"false"
"image-keyboard-response",358,268580,"0.0-4.115-1.115","yowb21svt76o5km",834,"73.csv","","null","resources/maskTrios/L4BB.jpg","null","",NA,NA,NA,NA,""
"image-keyboard-response",359,269785,"0.0-4.115-2.115","yowb21svt76o5km",834,"73.csv","","null","resources/images/fishbone.png","null","",NA,NA,NA,NA,""
"image-keyboard-response",360,272092,"0.0-4.116-0.116","yowb21svt76o5km",834,"73.csv","","2306.4000000953674","resources/trios/L4T2A2.jpg","37","restless",0.3,0.1,0.6,0.997082789456656,"false"
"image-keyboard-response",361,272494,"0.0-4.116-1.116","yowb21svt76o5km",834,"73.csv","","null","resources/maskTrios/L4BB.jpg","null","",NA,NA,NA,NA,""
"image-keyboard-response",362,273697,"0.0-4.116-2.116","yowb21svt76o5km",834,"73.csv","","null","resources/images/fishbone.png","null","",NA,NA,NA,NA,""
"image-keyboard-response",363,273854,"0.0-4.117-0.117","yowb21svt76o5km",834,"73.csv","","155.79999995231628","resources/trios/L4T2A2.jpg","37","restless",0.3,0.1,0.7,0.108509334209343,"true"
"image-keyboard-response",364,274259,"0.0-4.117-1.117","yowb21svt76o5km",834,"73.csv","","null","resources/maskTrios/L4BB.jpg","null","",NA,NA,NA,NA,""
"image-keyboard-response",365,275465,"0.0-4.117-2.117","yowb21svt76o5km",834,"73.csv","","null","resources/images/coin2.png","null","",NA,NA,NA,NA,""
"image-keyboard-response",366,275584,"0.0-4.118-0.118","yowb21svt76o5km",834,"73.csv","","117.5","resources/trios/L4T2A2.jpg","37","restless",0.3,0.2,0.7,0.548612788088442,"false"
"image-keyboard-response",367,275988,"0.0-4.118-1.118","yowb21svt76o5km",834,"73.csv","","null","resources/maskTrios/L4BB.jpg","null","",NA,NA,NA,NA,""
"image-keyboard-response",368,277195,"0.0-4.118-2.118","yowb21svt76o5km",834,"73.csv","","null","resources/images/fishbone.png","null","",NA,NA,NA,NA,""
"image-keyboard-response",369,277308,"0.0-4.119-0.119","yowb21svt76o5km",834,"73.csv","","111.80000019073486","resources/trios/L4T2A2.jpg","37","restless",0.3,0.2,0.6,0.688785184282098,"false"
"image-keyboard-response",370,277712,"0.0-4.119-1.119","yowb21svt76o5km",834,"73.csv","","null","resources/maskTrios/L4BB.jpg","null","",NA,NA,NA,NA,""
"image-keyboard-response",371,278914,"0.0-4.119-2.119","yowb21svt76o5km",834,"73.csv","","null","resources/images/fishbone.png","null","",NA,NA,NA,NA,""
"image-keyboard-response",372,279057,"0.0-4.120-0.120","yowb21svt76o5km",834,"73.csv","","141.70000004768372","resources/trios/L4T2A2.jpg","37","restless",0.3,0.2,0.6,0.919782930002618,"false"
"image-keyboard-response",373,279464,"0.0-4.120-1.120","yowb21svt76o5km",834,"73.csv","","null","resources/maskTrios/L4BB.jpg","null","",NA,NA,NA,NA,""
"image-keyboard-response",374,280667,"0.0-4.120-2.120","yowb21svt76o5km",834,"73.csv","","null","resources/images/fishbone.png","null","",NA,NA,NA,NA,""
"image-keyboard-response",375,280809,"0.0-4.121-0.121","yowb21svt76o5km",834,"73.csv","","140","resources/trios/L4T2A2.jpg","37","restless",0.3,0.2,0.5,0.390117430673528,"false"
"image-keyboard-response",376,281210,"0.0-4.121-1.121","yowb21svt76o5km",834,"73.csv","","null","resources/maskTrios/L4BB.jpg","null","",NA,NA,NA,NA,""
"image-keyboard-response",377,282416,"0.0-4.121-2.121","yowb21svt76o5km",834,"73.csv","","null","resources/images/fishbone.png","null","",NA,NA,NA,NA,""
"image-keyboard-response",378,282588,"0.0-4.122-0.122","yowb21svt76o5km",834,"73.csv","","171.29999995231628","resources/trios/L4T2A2.jpg","37","restless",0.3,0.2,0.5,0.884365605476429,"false"
"image-keyboard-response",379,282992,"0.0-4.122-1.122","yowb21svt76o5km",834,"73.csv","","null","resources/maskTrios/L4BB.jpg","null","",NA,NA,NA,NA,""
"image-keyboard-response",380,284198,"0.0-4.122-2.122","yowb21svt76o5km",834,"73.csv","","null","resources/images/fishbone.png","null","",NA,NA,NA,NA,""
"image-keyboard-response",381,284300,"0.0-4.123-0.123","yowb21svt76o5km",834,"73.csv","","101","resources/trios/L4T2A2.jpg","37","restless",0.3,0.2,0.5,0.195255903777151,"true"
"image-keyboard-response",382,284703,"0.0-4.123-1.123","yowb21svt76o5km",834,"73.csv","","null","resources/maskTrios/L4BB.jpg","null","",NA,NA,NA,NA,""
"image-keyboard-response",383,285909,"0.0-4.123-2.123","yowb21svt76o5km",834,"73.csv","","null","resources/images/coin2.png","null","",NA,NA,NA,NA,""
"image-keyboard-response",384,286209,"0.0-4.124-0.124","yowb21svt76o5km",834,"73.csv","","298.5","resources/trios/L4T2A2.jpg","37","restless",0.3,0.2,0.5,0.662209563558666,"false"
"image-keyboard-response",385,286611,"0.0-4.124-1.124","yowb21svt76o5km",834,"73.csv","","null","resources/maskTrios/L4BB.jpg","null","",NA,NA,NA,NA,""
"image-keyboard-response",386,287819,"0.0-4.124-2.124","yowb21svt76o5km",834,"73.csv","","null","resources/images/fishbone.png","null","",NA,NA,NA,NA,""
"image-keyboard-response",387,287977,"0.0-4.125-0.125","yowb21svt76o5km",834,"73.csv","","156.90000009536743","resources/trios/L4T2A2.jpg","38","restless",0.3,0.2,0.5,0.262565054050342,"false"
"image-keyboard-response",388,288384,"0.0-4.125-1.125","yowb21svt76o5km",834,"73.csv","","null","resources/maskTrios/BT2B.jpg","null","",NA,NA,NA,NA,""
"image-keyboard-response",389,289588,"0.0-4.125-2.125","yowb21svt76o5km",834,"73.csv","","null","resources/images/fishbone.png","null","",NA,NA,NA,NA,""
"image-keyboard-response",390,289875,"0.0-4.126-0.126","yowb21svt76o5km",834,"73.csv","","285.7000000476837","resources/trios/L4T2A2.jpg","39","restless",0.4,0.2,0.4,0.357554259242242,"true"
"image-keyboard-response",391,290281,"0.0-4.126-1.126","yowb21svt76o5km",834,"73.csv","","null","resources/maskTrios/BBA2.jpg","null","",NA,NA,NA,NA,""
"image-keyboard-response",392,291483,"0.0-4.126-2.126","yowb21svt76o5km",834,"73.csv","","null","resources/images/coin2.png","null","",NA,NA,NA,NA,""
"image-keyboard-response",393,291833,"0.0-4.127-0.127","yowb21svt76o5km",834,"73.csv","","349.2000000476837","resources/trios/L4T2A2.jpg","39","restless",0.4,0.3,0.4,0.961125308217528,"false"
"image-keyboard-response",394,292240,"0.0-4.127-1.127","yowb21svt76o5km",834,"73.csv","","null","resources/maskTrios/BBA2.jpg","null","",NA,NA,NA,NA,""
"image-keyboard-response",395,293442,"0.0-4.127-2.127","yowb21svt76o5km",834,"73.csv","","null","resources/images/fishbone.png","null","",NA,NA,NA,NA,""
"image-keyboard-response",396,293678,"0.0-4.128-0.128","yowb21svt76o5km",834,"73.csv","","234.20000004768372","resources/trios/L4T2A2.jpg","38","restless",0.4,0.3,0.4,0.071604888967076,"true"
"image-keyboard-response",397,294082,"0.0-4.128-1.128","yowb21svt76o5km",834,"73.csv","","null","resources/maskTrios/BT2B.jpg","null","",NA,NA,NA,NA,""
"image-keyboard-response",398,295287,"0.0-4.128-2.128","yowb21svt76o5km",834,"73.csv","","null","resources/images/coin2.png","null","",NA,NA,NA,NA,""
"image-keyboard-response",399,295553,"0.0-4.129-0.129","yowb21svt76o5km",834,"73.csv","","264.30000019073486","resources/trios/L4T2A2.jpg","37","restless",0.4,0.4,0.4,0.581275829672757,"false"
"image-keyboard-response",400,295958,"0.0-4.129-1.129","yowb21svt76o5km",834,"73.csv","","null","resources/maskTrios/L4BB.jpg","null","",NA,NA,NA,NA,""
"image-keyboard-response",401,297165,"0.0-4.129-2.129","yowb21svt76o5km",834,"73.csv","","null","resources/images/fishbone.png","null","",NA,NA,NA,NA,""
"image-keyboard-response",402,297233,"0.0-4.130-0.130","yowb21svt76o5km",834,"73.csv","","66.69999980926514","resources/trios/L4T2A2.jpg","39","restless",0.4,0.4,0.4,0.785655234097122,"false"
"image-keyboard-response",403,297637,"0.0-4.130-1.130","yowb21svt76o5km",834,"73.csv","","null","resources/maskTrios/BBA2.jpg","null","",NA,NA,NA,NA,""
"image-keyboard-response",404,298844,"0.0-4.130-2.130","yowb21svt76o5km",834,"73.csv","","null","resources/images/fishbone.png","null","",NA,NA,NA,NA,""
"image-keyboard-response",405,299076,"0.0-4.131-0.131","yowb21svt76o5km",834,"73.csv","","230.59999990463257","resources/trios/L4T2A2.jpg","38","restless",0.5,0.4,0.4,0.441291064473903,"false"
"image-keyboard-response",406,299482,"0.0-4.131-1.131","yowb21svt76o5km",834,"73.csv","","null","resources/maskTrios/BT2B.jpg","null","",NA,NA,NA,NA,""
"image-keyboard-response",407,300685,"0.0-4.131-2.131","yowb21svt76o5km",834,"73.csv","","null","resources/images/fishbone.png","null","",NA,NA,NA,NA,""
"image-keyboard-response",408,301120,"0.0-4.132-0.132","yowb21svt76o5km",834,"73.csv","","433.7999999523163","resources/trios/L4T2A2.jpg","37","restless",0.5,0.5,0.4,0.499322345025106,"true"
"image-keyboard-response",409,301524,"0.0-4.132-1.132","yowb21svt76o5km",834,"73.csv","","null","resources/maskTrios/L4BB.jpg","null","",NA,NA,NA,NA,""
"image-keyboard-response",410,302732,"0.0-4.132-2.132","yowb21svt76o5km",834,"73.csv","","null","resources/images/coin2.png","null","",NA,NA,NA,NA,""
"image-keyboard-response",411,303075,"0.0-4.133-0.133","yowb21svt76o5km",834,"73.csv","","341.2000000476837","resources/trios/L4T2A2.jpg","39","restless",0.5,0.5,0.4,0.612838739015417,"false"
"image-keyboard-response",412,303478,"0.0-4.133-1.133","yowb21svt76o5km",834,"73.csv","","null","resources/maskTrios/BBA2.jpg","null","",NA,NA,NA,NA,""
"image-keyboard-response",413,304680,"0.0-4.133-2.133","yowb21svt76o5km",834,"73.csv","","null","resources/images/fishbone.png","null","",NA,NA,NA,NA,""
"image-keyboard-response",414,304935,"0.0-4.134-0.134","yowb21svt76o5km",834,"73.csv","","253.79999995231628","resources/trios/L4T2A2.jpg","38","restless",0.6,0.5,0.4,0.237072011234062,"true"
"image-keyboard-response",415,305339,"0.0-4.134-1.134","yowb21svt76o5km",834,"73.csv","","null","resources/maskTrios/BT2B.jpg","null","",NA,NA,NA,NA,""
"image-keyboard-response",416,306541,"0.0-4.134-2.134","yowb21svt76o5km",834,"73.csv","","null","resources/images/coin2.png","null","",NA,NA,NA,NA,""
"image-keyboard-response",417,306769,"0.0-4.135-0.135","yowb21svt76o5km",834,"73.csv","","226.09999990463257","resources/trios/L4T2A2.jpg","37","restless",0.6,0.5,0.4,0.0382272160946047,"true"
"image-keyboard-response",418,307176,"0.0-4.135-1.135","yowb21svt76o5km",834,"73.csv","","null","resources/maskTrios/L4BB.jpg","null","",NA,NA,NA,NA,""
"image-keyboard-response",419,308377,"0.0-4.135-2.135","yowb21svt76o5km",834,"73.csv","","null","resources/images/coin2.png","null","",NA,NA,NA,NA,""
"image-keyboard-response",420,308804,"0.0-4.136-0.136","yowb21svt76o5km",834,"73.csv","","425.2999999523163","resources/trios/L4T2A2.jpg","39","restless",0.6,0.5,0.4,0.240158723278648,"true"
"image-keyboard-response",421,309211,"0.0-4.136-1.136","yowb21svt76o5km",834,"73.csv","","null","resources/maskTrios/BBA2.jpg","null","",NA,NA,NA,NA,""
"image-keyboard-response",422,310417,"0.0-4.136-2.136","yowb21svt76o5km",834,"73.csv","","null","resources/images/coin2.png","null","",NA,NA,NA,NA,""
"image-keyboard-response",423,310533,"0.0-4.137-0.137","yowb21svt76o5km",834,"73.csv","","115.10000014305115","resources/trios/L4T2A2.jpg","38","restless",0.6,0.6,0.4,0.505848677925683,"true"
"image-keyboard-response",424,310936,"0.0-4.137-1.137","yowb21svt76o5km",834,"73.csv","","null","resources/maskTrios/BT2B.jpg","null","",NA,NA,NA,NA,""
"image-keyboard-response",425,312138,"0.0-4.137-2.137","yowb21svt76o5km",834,"73.csv","","null","resources/images/coin2.png","null","",NA,NA,NA,NA,""
"image-keyboard-response",426,312535,"0.0-4.138-0.138","yowb21svt76o5km",834,"73.csv","","395.90000009536743","resources/trios/L4T2A2.jpg","37","restless",0.6,0.6,0.4,0.152017375393296,"true"
"image-keyboard-response",427,312941,"0.0-4.138-1.138","yowb21svt76o5km",834,"73.csv","","null","resources/maskTrios/L4BB.jpg","null","",NA,NA,NA,NA,""
"image-keyboard-response",428,314143,"0.0-4.138-2.138","yowb21svt76o5km",834,"73.csv","","null","resources/images/coin2.png","null","",NA,NA,NA,NA,""
"image-keyboard-response",429,314229,"0.0-4.139-0.139","yowb21svt76o5km",834,"73.csv","","85","resources/trios/L4T2A2.jpg","39","restless",0.6,0.6,0.4,0.24934306258929,"true"
"image-keyboard-response",430,314636,"0.0-4.139-1.139","yowb21svt76o5km",834,"73.csv","","null","resources/maskTrios/BBA2.jpg","null","",NA,NA,NA,NA,""
"image-keyboard-response",431,315842,"0.0-4.139-2.139","yowb21svt76o5km",834,"73.csv","","null","resources/images/coin2.png","null","",NA,NA,NA,NA,""
"image-keyboard-response",432,316058,"0.0-4.140-0.140","yowb21svt76o5km",834,"73.csv","","214.29999995231628","resources/trios/L4T2A2.jpg","38","restless",0.6,0.6,0.4,0.810793946609077,"false"
"image-keyboard-response",433,316460,"0.0-4.140-1.140","yowb21svt76o5km",834,"73.csv","","null","resources/maskTrios/BT2B.jpg","null","",NA,NA,NA,NA,""
"image-keyboard-response",434,317664,"0.0-4.140-2.140","yowb21svt76o5km",834,"73.csv","","null","resources/images/fishbone.png","null","",NA,NA,NA,NA,""
"image-keyboard-response",435,317832,"0.0-4.141-0.141","yowb21svt76o5km",834,"73.csv","","167.29999995231628","resources/trios/L4T2A2.jpg","37","restless",0.6,0.6,0.4,0.494424704120233,"true"
"image-keyboard-response",436,318236,"0.0-4.141-1.141","yowb21svt76o5km",834,"73.csv","","null","resources/maskTrios/L4BB.jpg","null","",NA,NA,NA,NA,""
"image-keyboard-response",437,319443,"0.0-4.141-2.141","yowb21svt76o5km",834,"73.csv","","null","resources/images/coin2.png","null","",NA,NA,NA,NA,""
"image-keyboard-response",438,319695,"0.0-4.142-0.142","yowb21svt76o5km",834,"73.csv","","251.09999990463257","resources/trios/L4T2A2.jpg","39","restless",0.6,0.7,0.4,0.864346048186505,"false"
"image-keyboard-response",439,320102,"0.0-4.142-1.142","yowb21svt76o5km",834,"73.csv","","null","resources/maskTrios/BBA2.jpg","null","",NA,NA,NA,NA,""
"image-keyboard-response",440,321308,"0.0-4.142-2.142","yowb21svt76o5km",834,"73.csv","","null","resources/images/fishbone.png","null","",NA,NA,NA,NA,""
"image-keyboard-response",441,321545,"0.0-4.143-0.143","yowb21svt76o5km",834,"73.csv","","235.90000009536743","resources/trios/L4T2A2.jpg","38","restless",0.6,0.7,0.4,0.614517699260642,"true"
"image-keyboard-response",442,321952,"0.0-4.143-1.143","yowb21svt76o5km",834,"73.csv","","null","resources/maskTrios/BT2B.jpg","null","",NA,NA,NA,NA,""
"image-keyboard-response",443,323155,"0.0-4.143-2.143","yowb21svt76o5km",834,"73.csv","","null","resources/images/coin2.png","null","",NA,NA,NA,NA,""
"image-keyboard-response",444,323276,"0.0-4.144-0.144","yowb21svt76o5km",834,"73.csv","","119.5","resources/trios/L4T2A2.jpg","37","restless",0.5,0.7,0.4,0.575528224486843,"false"
"image-keyboard-response",445,323682,"0.0-4.144-1.144","yowb21svt76o5km",834,"73.csv","","null","resources/maskTrios/L4BB.jpg","null","",NA,NA,NA,NA,""
"image-keyboard-response",446,324888,"0.0-4.144-2.144","yowb21svt76o5km",834,"73.csv","","null","resources/images/fishbone.png","null","",NA,NA,NA,NA,""
"image-keyboard-response",447,325105,"0.0-4.145-0.145","yowb21svt76o5km",834,"73.csv","","215.90000009536743","resources/trios/L4T2A2.jpg","39","restless",0.5,0.7,0.4,0.686916730621234,"false"
"image-keyboard-response",448,325510,"0.0-4.145-1.145","yowb21svt76o5km",834,"73.csv","","null","resources/maskTrios/BBA2.jpg","null","",NA,NA,NA,NA,""
"image-keyboard-response",449,326716,"0.0-4.145-2.145","yowb21svt76o5km",834,"73.csv","","null","resources/images/fishbone.png","null","",NA,NA,NA,NA,""
"image-keyboard-response",450,326744,"0.0-4.146-0.146","yowb21svt76o5km",834,"73.csv","","27.200000047683716","resources/trios/L4T2A2.jpg","38","restless",0.5,0.7,0.4,0.636230233668824,"true"
"image-keyboard-response",451,327150,"0.0-4.146-1.146","yowb21svt76o5km",834,"73.csv","","null","resources/maskTrios/BT2B.jpg","null","",NA,NA,NA,NA,""
"image-keyboard-response",452,328357,"0.0-4.146-2.146","yowb21svt76o5km",834,"73.csv","","null","resources/images/coin2.png","null","",NA,NA,NA,NA,""
"image-keyboard-response",453,328429,"0.0-4.147-0.147","yowb21svt76o5km",834,"73.csv","","70.30000019073486","resources/trios/L4T2A2.jpg","37","restless",0.6,0.7,0.4,0.42944789796672,"true"
"image-keyboard-response",454,328831,"0.0-4.147-1.147","yowb21svt76o5km",834,"73.csv","","null","resources/maskTrios/L4BB.jpg","null","",NA,NA,NA,NA,""
"image-keyboard-response",455,330038,"0.0-4.147-2.147","yowb21svt76o5km",834,"73.csv","","null","resources/images/coin2.png","null","",NA,NA,NA,NA,""
"image-keyboard-response",456,330059,"0.0-4.148-0.148","yowb21svt76o5km",834,"73.csv","","20","resources/trios/L4T2A2.jpg","39","restless",0.6,0.7,0.4,0.392239389643307,"true"
"image-keyboard-response",457,330466,"0.0-4.148-1.148","yowb21svt76o5km",834,"73.csv","","null","resources/maskTrios/BBA2.jpg","null","",NA,NA,NA,NA,""
"image-keyboard-response",458,331669,"0.0-4.148-2.148","yowb21svt76o5km",834,"73.csv","","null","resources/images/coin2.png","null","",NA,NA,NA,NA,""
"image-keyboard-response",459,331703,"0.0-4.149-0.149","yowb21svt76o5km",834,"73.csv","","33.299999952316284","resources/trios/L4T2A2.jpg","38","restless",0.6,0.7,0.4,0.702420708010055,"false"
"image-keyboard-response",460,332106,"0.0-4.149-1.149","yowb21svt76o5km",834,"73.csv","","null","resources/maskTrios/BT2B.jpg","null","",NA,NA,NA,NA,""
"image-keyboard-response",461,333313,"0.0-4.149-2.149","yowb21svt76o5km",834,"73.csv","","null","resources/images/fishbone.png","null","",NA,NA,NA,NA,""
"image-keyboard-response",462,333329,"0.0-4.150-0.150","yowb21svt76o5km",834,"73.csv","","14.700000047683716","resources/trios/L4T2A2.jpg","37","restless",0.6,0.7,0.4,0.475971763207629,"true"
"image-keyboard-response",463,333735,"0.0-4.150-1.150","yowb21svt76o5km",834,"73.csv","","null","resources/maskTrios/L4BB.jpg","null","",NA,NA,NA,NA,""
"image-keyboard-response",464,334939,"0.0-4.150-2.150","yowb21svt76o5km",834,"73.csv","","null","resources/images/coin2.png","null","",NA,NA,NA,NA,""
"image-keyboard-response",465,334980,"0.0-4.151-0.151","yowb21svt76o5km",834,"73.csv","","39.5","resources/trios/L4T2A2.jpg","39","restless",0.6,0.7,0.4,0.858417521166977,"false"
"image-keyboard-response",466,335386,"0.0-4.151-1.151","yowb21svt76o5km",834,"73.csv","","null","resources/maskTrios/BBA2.jpg","null","",NA,NA,NA,NA,""
"image-keyboard-response",467,336592,"0.0-4.151-2.151","yowb21svt76o5km",834,"73.csv","","null","resources/images/fishbone.png","null","",NA,NA,NA,NA,""
"image-keyboard-response",468,336693,"0.0-4.152-0.152","yowb21svt76o5km",834,"73.csv","","100.19999980926514","resources/trios/L4T2A2.jpg","38","restless",0.6,0.7,0.4,0.567082400719113,"true"
"image-keyboard-response",469,337098,"0.0-4.152-1.152","yowb21svt76o5km",834,"73.csv","","null","resources/maskTrios/BT2B.jpg","null","",NA,NA,NA,NA,""
"image-keyboard-response",470,338304,"0.0-4.152-2.152","yowb21svt76o5km",834,"73.csv","","null","resources/images/coin2.png","null","",NA,NA,NA,NA,""
"image-keyboard-response",471,338325,"0.0-4.153-0.153","yowb21svt76o5km",834,"73.csv","","19.59999990463257","resources/trios/L4T2A2.jpg","37","restless",0.6,0.7,0.4,0.420321967693994,"true"
"image-keyboard-response",472,338732,"0.0-4.153-1.153","yowb21svt76o5km",834,"73.csv","","null","resources/maskTrios/L4BB.jpg","null","",NA,NA,NA,NA,""
"image-keyboard-response",473,339938,"0.0-4.153-2.153","yowb21svt76o5km",834,"73.csv","","null","resources/images/coin2.png","null","",NA,NA,NA,NA,""
"image-keyboard-response",474,340337,"0.0-4.154-0.154","yowb21svt76o5km",834,"73.csv","","398.10000014305115","resources/trios/L4T2A2.jpg","38","restless",0.6,0.7,0.4,0.207748248339599,"true"
"image-keyboard-response",475,340744,"0.0-4.154-1.154","yowb21svt76o5km",834,"73.csv","","null","resources/maskTrios/BT2B.jpg","null","",NA,NA,NA,NA,""
"image-keyboard-response",476,341951,"0.0-4.154-2.154","yowb21svt76o5km",834,"73.csv","","null","resources/images/coin2.png","null","",NA,NA,NA,NA,""
"image-keyboard-response",477,341993,"0.0-4.155-0.155","yowb21svt76o5km",834,"73.csv","","40.700000047683716","resources/trios/L4T2A2.jpg","39","restless",0.6,0.7,0.4,0.930530814007566,"false"
"image-keyboard-response",478,342395,"0.0-4.155-1.155","yowb21svt76o5km",834,"73.csv","","null","resources/maskTrios/BBA2.jpg","null","",NA,NA,NA,NA,""
"image-keyboard-response",479,343598,"0.0-4.155-2.155","yowb21svt76o5km",834,"73.csv","","null","resources/images/fishbone.png","null","",NA,NA,NA,NA,""
"image-keyboard-response",480,343658,"0.0-4.156-0.156","yowb21svt76o5km",834,"73.csv","","58.80000019073486","resources/trios/L4T2A2.jpg","37","restless",0.5,0.7,0.4,0.485025950417053,"true"
"image-keyboard-response",481,344065,"0.0-4.156-1.156","yowb21svt76o5km",834,"73.csv","","null","resources/maskTrios/L4BB.jpg","null","",NA,NA,NA,NA,""
"image-keyboard-response",482,345271,"0.0-4.156-2.156","yowb21svt76o5km",834,"73.csv","","null","resources/images/coin2.png","null","",NA,NA,NA,NA,""
"image-keyboard-response",483,345345,"0.0-4.157-0.157","yowb21svt76o5km",834,"73.csv","","72.29999995231628","resources/trios/L4T2A2.jpg","38","restless",0.5,0.7,0.4,0.831711394598777,"false"
"image-keyboard-response",484,345752,"0.0-4.157-1.157","yowb21svt76o5km",834,"73.csv","","null","resources/maskTrios/BT2B.jpg","null","",NA,NA,NA,NA,""
"image-keyboard-response",485,346956,"0.0-4.157-2.157","yowb21svt76o5km",834,"73.csv","","null","resources/images/fishbone.png","null","",NA,NA,NA,NA,""
"image-keyboard-response",486,347225,"0.0-4.158-0.158","yowb21svt76o5km",834,"73.csv","","267.69999980926514","resources/trios/L4T2A2.jpg","39","restless",0.6,0.7,0.4,0.617929636305175,"false"
"image-keyboard-response",487,347632,"0.0-4.158-1.158","yowb21svt76o5km",834,"73.csv","","null","resources/maskTrios/BBA2.jpg","null","",NA,NA,NA,NA,""
"image-keyboard-response",488,348838,"0.0-4.158-2.158","yowb21svt76o5km",834,"73.csv","","null","resources/images/fishbone.png","null","",NA,NA,NA,NA,""
"image-keyboard-response",489,349090,"0.0-4.159-0.159","yowb21svt76o5km",834,"73.csv","","251.09999990463257","resources/trios/L4T2A2.jpg","37","restless",0.6,0.7,0.4,0.517566924869771,"true"
"image-keyboard-response",490,349493,"0.0-4.159-1.159","yowb21svt76o5km",834,"73.csv","","null","resources/maskTrios/L4BB.jpg","null","",NA,NA,NA,NA,""
"image-keyboard-response",491,350698,"0.0-4.159-2.159","yowb21svt76o5km",834,"73.csv","","null","resources/images/coin2.png","null","",NA,NA,NA,NA,""
"image-keyboard-response",492,350743,"0.0-4.160-0.160","yowb21svt76o5km",834,"73.csv","","44.30000019073486","resources/trios/L4T2A2.jpg","38","restless",0.6,0.7,0.4,0.0392910458166413,"true"
"image-keyboard-response",493,351150,"0.0-4.160-1.160","yowb21svt76o5km",834,"73.csv","","null","resources/maskTrios/BT2B.jpg","null","",NA,NA,NA,NA,""
"image-keyboard-response",494,352356,"0.0-4.160-2.160","yowb21svt76o5km",834,"73.csv","","null","resources/images/coin2.png","null","",NA,NA,NA,NA,""
"image-keyboard-response",495,352382,"0.0-4.161-0.161","yowb21svt76o5km",834,"73.csv","","25","resources/trios/L4T2A2.jpg","39","restless",0.6,0.7,0.4,0.308293113829569,"true"
"image-keyboard-response",496,352789,"0.0-4.161-1.161","yowb21svt76o5km",834,"73.csv","","null","resources/maskTrios/BBA2.jpg","null","",NA,NA,NA,NA,""
"image-keyboard-response",497,353996,"0.0-4.161-2.161","yowb21svt76o5km",834,"73.csv","","null","resources/images/coin2.png","null","",NA,NA,NA,NA,""
"image-keyboard-response",498,354044,"0.0-4.162-0.162","yowb21svt76o5km",834,"73.csv","","47.39999985694885","resources/trios/L4T2A2.jpg","37","restless",0.6,0.7,0.5,0.0805134804343315,"true"
"image-keyboard-response",499,354451,"0.0-4.162-1.162","yowb21svt76o5km",834,"73.csv","","null","resources/maskTrios/L4BB.jpg","null","",NA,NA,NA,NA,""
"image-keyboard-response",500,355653,"0.0-4.162-2.162","yowb21svt76o5km",834,"73.csv","","null","resources/images/coin2.png","null","",NA,NA,NA,NA,""
"image-keyboard-response",501,356027,"0.0-4.163-0.163","yowb21svt76o5km",834,"73.csv","","372.7999999523163","resources/trios/L4T2A2.jpg","38","restless",0.6,0.7,0.5,0.116022680712069,"true"
"image-keyboard-response",502,356434,"0.0-4.163-1.163","yowb21svt76o5km",834,"73.csv","","null","resources/maskTrios/BT2B.jpg","null","",NA,NA,NA,NA,""
"image-keyboard-response",503,357640,"0.0-4.163-2.163","yowb21svt76o5km",834,"73.csv","","null","resources/images/coin2.png","null","",NA,NA,NA,NA,""
"image-keyboard-response",504,357642,"0.0-4.164-0.164","yowb21svt76o5km",834,"73.csv","","0.10000014305114746","resources/trios/L4T2A2.jpg","39","restless",0.6,0.7,0.5,0.360025162813653,"true"
"image-keyboard-response",505,358048,"0.0-4.164-1.164","yowb21svt76o5km",834,"73.csv","","null","resources/maskTrios/BBA2.jpg","null","",NA,NA,NA,NA,""
"image-keyboard-response",506,359254,"0.0-4.164-2.164","yowb21svt76o5km",834,"73.csv","","null","resources/images/coin2.png","null","",NA,NA,NA,NA,""
"image-keyboard-response",507,359652,"0.0-4.165-0.165","yowb21svt76o5km",834,"73.csv","","396.10000014305115","resources/trios/L4T2A2.jpg","37","restless",0.6,0.7,0.5,0.485499320605713,"true"
"image-keyboard-response",508,360056,"0.0-4.165-1.165","yowb21svt76o5km",834,"73.csv","","null","resources/maskTrios/L4BB.jpg","null","",NA,NA,NA,NA,""
"image-keyboard-response",509,361257,"0.0-4.165-2.165","yowb21svt76o5km",834,"73.csv","","null","resources/images/coin2.png","null","",NA,NA,NA,NA,""
"image-keyboard-response",510,361587,"0.0-4.166-0.166","yowb21svt76o5km",834,"73.csv","","328.5","resources/trios/L4T2A2.jpg","38","restless",0.6,0.7,0.6,0.823900954647239,"false"
"image-keyboard-response",511,361994,"0.0-4.166-1.166","yowb21svt76o5km",834,"73.csv","","null","resources/maskTrios/BT2B.jpg","null","",NA,NA,NA,NA,""
"image-keyboard-response",512,363201,"0.0-4.166-2.166","yowb21svt76o5km",834,"73.csv","","null","resources/images/fishbone.png","null","",NA,NA,NA,NA,""
"image-keyboard-response",513,363389,"0.0-4.167-0.167","yowb21svt76o5km",834,"73.csv","","186.20000004768372","resources/trios/L4T2A2.jpg","39","restless",0.6,0.7,0.6,0.372140625206511,"true"
"image-keyboard-response",514,363792,"0.0-4.167-1.167","yowb21svt76o5km",834,"73.csv","","null","resources/maskTrios/BBA2.jpg","null","",NA,NA,NA,NA,""
"image-keyboard-response",515,364999,"0.0-4.167-2.167","yowb21svt76o5km",834,"73.csv","","null","resources/images/coin2.png","null","",NA,NA,NA,NA,""
"image-keyboard-response",516,365267,"0.0-4.168-0.168","yowb21svt76o5km",834,"73.csv","","267","resources/trios/L4T2A2.jpg","37","restless",0.6,0.7,0.6,0.467819017615265,"true"
"image-keyboard-response",517,365674,"0.0-4.168-1.168","yowb21svt76o5km",834,"73.csv","","null","resources/maskTrios/L4BB.jpg","null","",NA,NA,NA,NA,""
"image-keyboard-response",518,366881,"0.0-4.168-2.168","yowb21svt76o5km",834,"73.csv","","null","resources/images/coin2.png","null","",NA,NA,NA,NA,""
"image-keyboard-response",519,367049,"0.0-4.169-0.169","yowb21svt76o5km",834,"73.csv","","166.40000009536743","resources/trios/L4T2A2.jpg","38","restless",0.6,0.7,0.6,0.830359722981854,"false"
"image-keyboard-response",520,367456,"0.0-4.169-1.169","yowb21svt76o5km",834,"73.csv","","null","resources/maskTrios/BT2B.jpg","null","",NA,NA,NA,NA,""
"image-keyboard-response",521,368660,"0.0-4.169-2.169","yowb21svt76o5km",834,"73.csv","","null","resources/images/fishbone.png","null","",NA,NA,NA,NA,""
"image-keyboard-response",522,368754,"0.0-4.170-0.170","yowb21svt76o5km",834,"73.csv","","93.60000014305115","resources/trios/L4T2A2.jpg","39","restless",0.6,0.7,0.6,0.245056091798806,"true"
"image-keyboard-response",523,369161,"0.0-4.170-1.170","yowb21svt76o5km",834,"73.csv","","null","resources/maskTrios/BBA2.jpg","null","",NA,NA,NA,NA,""
"image-keyboard-response",524,370363,"0.0-4.170-2.170","yowb21svt76o5km",834,"73.csv","","null","resources/images/coin2.png","null","",NA,NA,NA,NA,""
"image-keyboard-response",525,370497,"0.0-4.171-0.171","yowb21svt76o5km",834,"73.csv","","133","resources/trios/L4T2A2.jpg","37","restless",0.6,0.7,0.6,0.851241653968904,"false"
"image-keyboard-response",526,370899,"0.0-4.171-1.171","yowb21svt76o5km",834,"73.csv","","null","resources/maskTrios/L4BB.jpg","null","",NA,NA,NA,NA,""
"image-keyboard-response",527,372101,"0.0-4.171-2.171","yowb21svt76o5km",834,"73.csv","","null","resources/images/fishbone.png","null","",NA,NA,NA,NA,""
"image-keyboard-response",528,372635,"0.0-4.172-0.172","yowb21svt76o5km",834,"73.csv","","532.9000000953674","resources/trios/L4T2A2.jpg","38","restless",0.5,0.7,0.6,0.850789308791866,"false"
"image-keyboard-response",529,373041,"0.0-4.172-1.172","yowb21svt76o5km",834,"73.csv","","null","resources/maskTrios/BT2B.jpg","null","",NA,NA,NA,NA,""
"image-keyboard-response",530,374244,"0.0-4.172-2.172","yowb21svt76o5km",834,"73.csv","","null","resources/images/fishbone.png","null","",NA,NA,NA,NA,""
"image-keyboard-response",531,374540,"0.0-4.173-0.173","yowb21svt76o5km",834,"73.csv","","294.5","resources/trios/L4T2A2.jpg","39","restless",0.5,0.7,0.6,0.689545214485842,"false"
"image-keyboard-response",532,374947,"0.0-4.173-1.173","yowb21svt76o5km",834,"73.csv","","null","resources/maskTrios/BBA2.jpg","null","",NA,NA,NA,NA,""
"image-keyboard-response",533,376153,"0.0-4.173-2.173","yowb21svt76o5km",834,"73.csv","","null","resources/images/fishbone.png","null","",NA,NA,NA,NA,""
"image-keyboard-response",534,376367,"0.0-4.174-0.174","yowb21svt76o5km",834,"73.csv","","212.5","resources/trios/L4T2A2.jpg","37","restless",0.5,0.7,0.6,0.100271703377812,"true"
"image-keyboard-response",535,376773,"0.0-4.174-1.174","yowb21svt76o5km",834,"73.csv","","null","resources/maskTrios/L4BB.jpg","null","",NA,NA,NA,NA,""
"image-keyboard-response",536,377977,"0.0-4.174-2.174","yowb21svt76o5km",834,"73.csv","","null","resources/images/coin2.png","null","",NA,NA,NA,NA,""
"image-keyboard-response",537,378107,"0.0-4.175-0.175","yowb21svt76o5km",834,"73.csv","","129.30000019073486","resources/trios/L4T2A2.jpg","38","restless",0.5,0.7,0.6,0.7714426827043,"false"
"image-keyboard-response",538,378513,"0.0-4.175-1.175","yowb21svt76o5km",834,"73.csv","","null","resources/maskTrios/BT2B.jpg","null","",NA,NA,NA,NA,""
"image-keyboard-response",539,379715,"0.0-4.175-2.175","yowb21svt76o5km",834,"73.csv","","null","resources/images/fishbone.png","null","",NA,NA,NA,NA,""
"image-keyboard-response",540,380098,"0.0-4.176-0.176","yowb21svt76o5km",834,"73.csv","","382.40000009536743","resources/trios/L4T2A2.jpg","39","restless",0.5,0.7,0.6,0.345170663495898,"true"
"image-keyboard-response",541,380506,"0.0-4.176-1.176","yowb21svt76o5km",834,"73.csv","","null","resources/maskTrios/BBA2.jpg","null","",NA,NA,NA,NA,""
"image-keyboard-response",542,381712,"0.0-4.176-2.176","yowb21svt76o5km",834,"73.csv","","null","resources/images/coin2.png","null","",NA,NA,NA,NA,""
"image-keyboard-response",543,381953,"0.0-4.177-0.177","yowb21svt76o5km",834,"73.csv","","239.20000004768372","resources/trios/L4T2A2.jpg","37","restless",0.5,0.7,0.6,0.997715024623766,"false"
"image-keyboard-response",544,382356,"0.0-4.177-1.177","yowb21svt76o5km",834,"73.csv","","null","resources/maskTrios/L4BB.jpg","null","",NA,NA,NA,NA,""
"image-keyboard-response",545,383563,"0.0-4.177-2.177","yowb21svt76o5km",834,"73.csv","","null","resources/images/fishbone.png","null","",NA,NA,NA,NA,""
"image-keyboard-response",546,383775,"0.0-4.178-0.178","yowb21svt76o5km",834,"73.csv","","210.90000009536743","resources/trios/L4T2A2.jpg","38","restless",0.4,0.7,0.6,0.378753621836219,"true"
"image-keyboard-response",547,384177,"0.0-4.178-1.178","yowb21svt76o5km",834,"73.csv","","null","resources/maskTrios/BT2B.jpg","null","",NA,NA,NA,NA,""
"image-keyboard-response",548,385384,"0.0-4.178-2.178","yowb21svt76o5km",834,"73.csv","","null","resources/images/coin2.png","null","",NA,NA,NA,NA,""
"image-keyboard-response",549,385511,"0.0-4.179-0.179","yowb21svt76o5km",834,"73.csv","","126.40000009536743","resources/trios/L4T2A2.jpg","39","restless",0.4,0.7,0.6,0.828569287155455,"false"
"image-keyboard-response",550,385917,"0.0-4.179-1.179","yowb21svt76o5km",834,"73.csv","","null","resources/maskTrios/BBA2.jpg","null","",NA,NA,NA,NA,""
"image-keyboard-response",551,387124,"0.0-4.179-2.179","yowb21svt76o5km",834,"73.csv","","null","resources/images/fishbone.png","null","",NA,NA,NA,NA,""
"image-keyboard-response",552,387343,"0.0-4.180-0.180","yowb21svt76o5km",834,"73.csv","","217.40000009536743","resources/trios/L4T2A2.jpg","37","restless",0.4,0.7,0.6,0.429902763618708,"false"
"image-keyboard-response",553,387750,"0.0-4.180-1.180","yowb21svt76o5km",834,"73.csv","","null","resources/maskTrios/L4BB.jpg","null","",NA,NA,NA,NA,""
"image-keyboard-response",554,388952,"0.0-4.180-2.180","yowb21svt76o5km",834,"73.csv","","null","resources/images/fishbone.png","null","",NA,NA,NA,NA,""
"image-keyboard-response",555,389096,"0.0-4.181-0.181","yowb21svt76o5km",834,"73.csv","","142.20000004768372","resources/trios/L4T2A2.jpg","38","restless",0.4,0.7,0.5,0.373373851455752,"true"
"image-keyboard-response",556,389501,"0.0-4.181-1.181","yowb21svt76o5km",834,"73.csv","","null","resources/maskTrios/BT2B.jpg","null","",NA,NA,NA,NA,""
"image-keyboard-response",557,390704,"0.0-4.181-2.181","yowb21svt76o5km",834,"73.csv","","null","resources/images/coin2.png","null","",NA,NA,NA,NA,""
"image-keyboard-response",558,390912,"0.0-4.182-0.182","yowb21svt76o5km",834,"73.csv","","206.19999980926514","resources/trios/L4T2A2.jpg","39","restless",0.4,0.6,0.5,0.697646988138316,"false"
"image-keyboard-response",559,391319,"0.0-4.182-1.182","yowb21svt76o5km",834,"73.csv","","null","resources/maskTrios/BBA2.jpg","null","",NA,NA,NA,NA,""
"image-keyboard-response",560,392525,"0.0-4.182-2.182","yowb21svt76o5km",834,"73.csv","","null","resources/images/fishbone.png","null","",NA,NA,NA,NA,""
"image-keyboard-response",561,392780,"0.0-4.183-0.183","yowb21svt76o5km",834,"73.csv","","253.5","resources/trios/L4T2A2.jpg","37","restless",0.4,0.6,0.5,0.173856162875812,"true"
"image-keyboard-response",562,393186,"0.0-4.183-1.183","yowb21svt76o5km",834,"73.csv","","null","resources/maskTrios/L4BB.jpg","null","",NA,NA,NA,NA,""
"image-keyboard-response",563,394389,"0.0-4.183-2.183","yowb21svt76o5km",834,"73.csv","","null","resources/images/coin2.png","null","",NA,NA,NA,NA,""
"image-keyboard-response",564,394449,"0.0-4.184-0.184","yowb21svt76o5km",834,"73.csv","","59.200000047683716","resources/trios/L4T2A2.jpg","38","restless",0.4,0.6,0.5,0.96133343450153,"false"
"image-keyboard-response",565,394853,"0.0-4.184-1.184","yowb21svt76o5km",834,"73.csv","","null","resources/maskTrios/BT2B.jpg","null","",NA,NA,NA,NA,""
"image-keyboard-response",566,396057,"0.0-4.184-2.184","yowb21svt76o5km",834,"73.csv","","null","resources/images/fishbone.png","null","",NA,NA,NA,NA,""
"image-keyboard-response",567,396560,"0.0-4.185-0.185","yowb21svt76o5km",834,"73.csv","","501.7999999523163","resources/trios/L4T2A2.jpg","39","restless",0.4,0.6,0.5,0.981765267440457,"false"
"image-keyboard-response",568,396967,"0.0-4.185-1.185","yowb21svt76o5km",834,"73.csv","","null","resources/maskTrios/BBA2.jpg","null","",NA,NA,NA,NA,""
"image-keyboard-response",569,398173,"0.0-4.185-2.185","yowb21svt76o5km",834,"73.csv","","null","resources/images/fishbone.png","null","",NA,NA,NA,NA,""
"image-keyboard-response",570,398271,"0.0-4.186-0.186","yowb21svt76o5km",834,"73.csv","","97.20000004768372","resources/trios/L4T2A2.jpg","38","restless",0.4,0.6,0.5,0.44154288323509,"true"
"image-keyboard-response",571,398674,"0.0-4.186-1.186","yowb21svt76o5km",834,"73.csv","","null","resources/maskTrios/BT2B.jpg","null","",NA,NA,NA,NA,""
"image-keyboard-response",572,399880,"0.0-4.186-2.186","yowb21svt76o5km",834,"73.csv","","null","resources/images/coin2.png","null","",NA,NA,NA,NA,""
"image-keyboard-response",573,400129,"0.0-4.187-0.187","yowb21svt76o5km",834,"73.csv","","248.10000014305115","resources/trios/L4T2A2.jpg","37","restless",0.4,0.6,0.5,0.965246290277813,"false"
"image-keyboard-response",574,400531,"0.0-4.187-1.187","yowb21svt76o5km",834,"73.csv","","null","resources/maskTrios/L4BB.jpg","null","",NA,NA,NA,NA,""
"image-keyboard-response",575,401733,"0.0-4.187-2.187","yowb21svt76o5km",834,"73.csv","","null","resources/images/fishbone.png","null","",NA,NA,NA,NA,""
"image-keyboard-response",576,401852,"0.0-4.188-0.188","yowb21svt76o5km",834,"73.csv","","117.60000014305115","resources/trios/L4T2A2.jpg","39","restless",0.4,0.6,0.5,0.645245229531351,"false"
"image-keyboard-response",577,402254,"0.0-4.188-1.188","yowb21svt76o5km",834,"73.csv","","null","resources/maskTrios/BBA2.jpg","null","",NA,NA,NA,NA,""
"image-keyboard-response",578,403456,"0.0-4.188-2.188","yowb21svt76o5km",834,"73.csv","","null","resources/images/fishbone.png","null","",NA,NA,NA,NA,""
"image-keyboard-response",579,403672,"0.0-4.189-0.189","yowb21svt76o5km",834,"73.csv","","214.29999995231628","resources/trios/L4T2A2.jpg","38","restless",0.4,0.6,0.5,0.799080983328977,"false"
"image-keyboard-response",580,404075,"0.0-4.189-1.189","yowb21svt76o5km",834,"73.csv","","null","resources/maskTrios/BT2B.jpg","null","",NA,NA,NA,NA,""
"image-keyboard-response",581,405277,"0.0-4.189-2.189","yowb21svt76o5km",834,"73.csv","","null","resources/images/fishbone.png","null","",NA,NA,NA,NA,""
"image-keyboard-response",582,405326,"0.0-4.190-0.190","yowb21svt76o5km",834,"73.csv","","48.40000009536743","resources/trios/L4T2A2.jpg","37","restless",0.4,0.6,0.5,0.0531637321654062,"true"
"image-keyboard-response",583,405733,"0.0-4.190-1.190","yowb21svt76o5km",834,"73.csv","","null","resources/maskTrios/L4BB.jpg","null","",NA,NA,NA,NA,""
"image-keyboard-response",584,406935,"0.0-4.190-2.190","yowb21svt76o5km",834,"73.csv","","null","resources/images/coin2.png","null","",NA,NA,NA,NA,""
"image-keyboard-response",585,407054,"0.0-4.191-0.191","yowb21svt76o5km",834,"73.csv","","118.20000004768372","resources/trios/L4T2A2.jpg","37","restless",0.4,0.6,0.5,0.686518461448658,"false"
"image-keyboard-response",586,407460,"0.0-4.191-1.191","yowb21svt76o5km",834,"73.csv","","null","resources/maskTrios/L4BB.jpg","null","",NA,NA,NA,NA,""
"image-keyboard-response",587,408666,"0.0-4.191-2.191","yowb21svt76o5km",834,"73.csv","","null","resources/images/fishbone.png","null","",NA,NA,NA,NA,""
"image-keyboard-response",588,408932,"0.0-4.192-0.192","yowb21svt76o5km",834,"73.csv","","263.59999990463257","resources/trios/L4T2A2.jpg","37","restless",0.4,0.6,0.5,0.20645939284063,"true"
"image-keyboard-response",589,409339,"0.0-4.192-1.192","yowb21svt76o5km",834,"73.csv","","null","resources/maskTrios/L4BB.jpg","null","",NA,NA,NA,NA,""
"image-keyboard-response",590,410544,"0.0-4.192-2.192","yowb21svt76o5km",834,"73.csv","","null","resources/images/coin2.png","null","",NA,NA,NA,NA,""
"image-keyboard-response",591,410774,"0.0-4.193-0.193","yowb21svt76o5km",834,"73.csv","","228.10000014305115","resources/trios/L4T2A2.jpg","37","restless",0.4,0.6,0.5,0.532426457889131,"false"
"image-keyboard-response",592,411177,"0.0-4.193-1.193","yowb21svt76o5km",834,"73.csv","","null","resources/maskTrios/L4BB.jpg","null","",NA,NA,NA,NA,""
"image-keyboard-response",593,412383,"0.0-4.193-2.193","yowb21svt76o5km",834,"73.csv","","null","resources/images/fishbone.png","null","",NA,NA,NA,NA,""
"image-keyboard-response",594,412438,"0.0-4.194-0.194","yowb21svt76o5km",834,"73.csv","","53.200000047683716","resources/trios/L4T2A2.jpg","37","restless",0.4,0.7,0.5,0.302259339213573,"true"
"image-keyboard-response",595,412845,"0.0-4.194-1.194","yowb21svt76o5km",834,"73.csv","","null","resources/maskTrios/L4BB.jpg","null","",NA,NA,NA,NA,""
"image-keyboard-response",596,414052,"0.0-4.194-2.194","yowb21svt76o5km",834,"73.csv","","null","resources/images/coin2.png","null","",NA,NA,NA,NA,""
"image-keyboard-response",597,414256,"0.0-4.195-0.195","yowb21svt76o5km",834,"73.csv","","202.20000004768372","resources/trios/L4T2A2.jpg","37","restless",0.4,0.7,0.5,0.82931613023594,"false"
"image-keyboard-response",598,414659,"0.0-4.195-1.195","yowb21svt76o5km",834,"73.csv","","null","resources/maskTrios/L4BB.jpg","null","",NA,NA,NA,NA,""
"image-keyboard-response",599,415865,"0.0-4.195-2.195","yowb21svt76o5km",834,"73.csv","","null","resources/images/fishbone.png","null","",NA,NA,NA,NA,""
"image-keyboard-response",600,416041,"0.0-4.196-0.196","yowb21svt76o5km",834,"73.csv","","174.89999985694885","resources/trios/L4T2A2.jpg","37","restless",0.4,0.7,0.5,0.926149280330776,"false"
"image-keyboard-response",601,416448,"0.0-4.196-1.196","yowb21svt76o5km",834,"73.csv","","null","resources/maskTrios/L4BB.jpg","null","",NA,NA,NA,NA,""
"image-keyboard-response",602,417651,"0.0-4.196-2.196","yowb21svt76o5km",834,"73.csv","","null","resources/images/fishbone.png","null","",NA,NA,NA,NA,""
"image-keyboard-response",603,417852,"0.0-4.197-0.197","yowb21svt76o5km",834,"73.csv","","200.30000019073486","resources/trios/L4T2A2.jpg","37","restless",0.4,0.6,0.5,0.0976077099572783,"true"
"image-keyboard-response",604,418258,"0.0-4.197-1.197","yowb21svt76o5km",834,"73.csv","","null","resources/maskTrios/L4BB.jpg","null","",NA,NA,NA,NA,""
"image-keyboard-response",605,419461,"0.0-4.197-2.197","yowb21svt76o5km",834,"73.csv","","null","resources/images/coin2.png","null","",NA,NA,NA,NA,""
"image-keyboard-response",606,419666,"0.0-4.198-0.198","yowb21svt76o5km",834,"73.csv","","203.29999995231628","resources/trios/L4T2A2.jpg","37","restless",0.4,0.6,0.5,0.579777515458859,"false"
"image-keyboard-response",607,420072,"0.0-4.198-1.198","yowb21svt76o5km",834,"73.csv","","null","resources/maskTrios/L4BB.jpg","null","",NA,NA,NA,NA,""
"image-keyboard-response",608,421275,"0.0-4.198-2.198","yowb21svt76o5km",834,"73.csv","","null","resources/images/fishbone.png","null","",NA,NA,NA,NA,""
"image-keyboard-response",609,421507,"0.0-4.199-0.199","yowb21svt76o5km",834,"73.csv","","231.20000004768372","resources/trios/L4T2A2.jpg","37","restless",0.4,0.6,0.5,0.288679329966606,"true"
"image-keyboard-response",610,421909,"0.0-4.199-1.199","yowb21svt76o5km",834,"73.csv","","null","resources/maskTrios/L4BB.jpg","null","",NA,NA,NA,NA,""
"image-keyboard-response",611,423110,"0.0-4.199-2.199","yowb21svt76o5km",834,"73.csv","","null","resources/images/coin2.png","null","",NA,NA,NA,NA,""
"survey-text",612,509383,"0.0-5.0","yowb21svt76o5km",834,"73.csv","","86269.89999985695","","","",NA,NA,NA,NA,""
