"trial_type","trial_index","time_elapsed","internal_node_id","subject","participantCode","walkNumber","success","rt","stimulus","key_press","test_part","leftProb","midProb","rightProb","generatedNum","correct"
"pavlovia",0,1016,"0.0-0.0","ht9n4mlwdhvjl91",483,"94.csv","","","","","",NA,NA,NA,NA,""
"fullscreen",1,3964,"0.0-1.0","ht9n4mlwdhvjl91",483,"94.csv","true","","","","",NA,NA,NA,NA,""
"survey-html-form",2,11486,"0.0-2.0","ht9n4mlwdhvjl91",483,"94.csv","","7515.599999904633","","","",NA,NA,NA,NA,""
"image-keyboard-response",3,27155,"0.0-3.0-0.0","ht9n4mlwdhvjl91",483,"94.csv","","15667","resources/images/parrot_nobg.png","13","",NA,NA,NA,NA,""
"image-keyboard-response",4,30157,"0.0-3.0-1.0","ht9n4mlwdhvjl91",483,"94.csv","","null","resources/image_sets/111.png","null","",NA,NA,NA,NA,""
"image-keyboard-response",5,33111,"0.0-3.0-2.0","ht9n4mlwdhvjl91",483,"94.csv","","2953.0999999046326","resources/image_sets/left_highlight.png","37","",NA,NA,NA,NA,""
"image-keyboard-response",6,36472,"0.0-3.0-3.0","ht9n4mlwdhvjl91",483,"94.csv","","3359.7999999523163","resources/image_sets/mid_highlight.png","38","",NA,NA,NA,NA,""
"image-keyboard-response",7,37230,"0.0-3.0-4.0","ht9n4mlwdhvjl91",483,"94.csv","","757.2999999523163","resources/image_sets/right_highlight.png","39","",NA,NA,NA,NA,""
"image-keyboard-response",8,38763,"0.0-3.0-5.0","ht9n4mlwdhvjl91",483,"94.csv","","1530.7999999523163","resources/image_sets/111.png","13","",NA,NA,NA,NA,""
"image-keyboard-response",9,41032,"0.0-3.0-6.0","ht9n4mlwdhvjl91",483,"94.csv","","2268","resources/images/coin2.png","13","",NA,NA,NA,NA,""
"image-keyboard-response",10,48846,"0.0-3.0-7.0","ht9n4mlwdhvjl91",483,"94.csv","","7812","resources/images/fishbone.png","13","",NA,NA,NA,NA,""
"html-keyboard-response",11,58361,"0.0-3.0-8.0","ht9n4mlwdhvjl91",483,"94.csv","","9513.5","<p>You can track your coin total on the top right of your screen. </p><p>At the end of your journey you will be directed to a survey, so please click on the link before exiting the task</p><p>Press Enter to begin</p>","13","",NA,NA,NA,NA,""
"image-keyboard-response",12,60167,"0.0-4.0-0.0","ht9n4mlwdhvjl91",483,"94.csv","","1805.2999999523163","resources/trios/L4T2A3.jpg","38","restless",0.7,0.9,0.3,0.0984186641033744,"true"
"image-keyboard-response",13,60571,"0.0-4.0-1.0","ht9n4mlwdhvjl91",483,"94.csv","","null","resources/maskTrios/BT2B.jpg","null","",NA,NA,NA,NA,""
"image-keyboard-response",14,61776,"0.0-4.0-2.0","ht9n4mlwdhvjl91",483,"94.csv","","null","resources/images/coin2.png","null","",NA,NA,NA,NA,""
"image-keyboard-response",15,62747,"0.0-4.1-0.1","ht9n4mlwdhvjl91",483,"94.csv","","967.6000001430511","resources/trios/L4T2A3.jpg","37","restless",0.7,0.9,0.3,0.872669110043866,"false"
"image-keyboard-response",16,63151,"0.0-4.1-1.1","ht9n4mlwdhvjl91",483,"94.csv","","null","resources/maskTrios/L4BB.jpg","null","",NA,NA,NA,NA,""
"image-keyboard-response",17,64355,"0.0-4.1-2.1","ht9n4mlwdhvjl91",483,"94.csv","","null","resources/images/fishbone.png","null","",NA,NA,NA,NA,""
"image-keyboard-response",18,64843,"0.0-4.2-0.2","ht9n4mlwdhvjl91",483,"94.csv","","484.5","resources/trios/L4T2A3.jpg","38","restless",0.7,0.9,0.3,0.0418090727971563,"true"
"image-keyboard-response",19,65246,"0.0-4.2-1.2","ht9n4mlwdhvjl91",483,"94.csv","","null","resources/maskTrios/BT2B.jpg","null","",NA,NA,NA,NA,""
"image-keyboard-response",20,66449,"0.0-4.2-2.2","ht9n4mlwdhvjl91",483,"94.csv","","null","resources/images/coin2.png","null","",NA,NA,NA,NA,""
"image-keyboard-response",21,66906,"0.0-4.3-0.3","ht9n4mlwdhvjl91",483,"94.csv","","455","resources/trios/L4T2A3.jpg","38","restless",0.7,0.8,0.3,0.591332890172603,"true"
"image-keyboard-response",22,67308,"0.0-4.3-1.3","ht9n4mlwdhvjl91",483,"94.csv","","null","resources/maskTrios/BT2B.jpg","null","",NA,NA,NA,NA,""
"image-keyboard-response",23,68512,"0.0-4.3-2.3","ht9n4mlwdhvjl91",483,"94.csv","","null","resources/images/coin2.png","null","",NA,NA,NA,NA,""
"image-keyboard-response",24,68906,"0.0-4.4-0.4","ht9n4mlwdhvjl91",483,"94.csv","","393.40000009536743","resources/trios/L4T2A3.jpg","39","restless",0.7,0.8,0.3,0.796886632789182,"false"
"image-keyboard-response",25,69308,"0.0-4.4-1.4","ht9n4mlwdhvjl91",483,"94.csv","","null","resources/maskTrios/BBA3.jpg","null","",NA,NA,NA,NA,""
"image-keyboard-response",26,70512,"0.0-4.4-2.4","ht9n4mlwdhvjl91",483,"94.csv","","null","resources/images/fishbone.png","null","",NA,NA,NA,NA,""
"image-keyboard-response",27,70742,"0.0-4.5-0.5","ht9n4mlwdhvjl91",483,"94.csv","","228","resources/trios/L4T2A3.jpg","38","restless",0.7,0.8,0.3,0.891141837658192,"false"
"image-keyboard-response",28,71145,"0.0-4.5-1.5","ht9n4mlwdhvjl91",483,"94.csv","","null","resources/maskTrios/BT2B.jpg","null","",NA,NA,NA,NA,""
"image-keyboard-response",29,72349,"0.0-4.5-2.5","ht9n4mlwdhvjl91",483,"94.csv","","null","resources/images/fishbone.png","null","",NA,NA,NA,NA,""
"image-keyboard-response",30,72668,"0.0-4.6-0.6","ht9n4mlwdhvjl91",483,"94.csv","","315.60000014305115","resources/trios/L4T2A3.jpg","37","restless",0.7,0.8,0.3,0.0497529956174705,"true"
"image-keyboard-response",31,73071,"0.0-4.6-1.6","ht9n4mlwdhvjl91",483,"94.csv","","null","resources/maskTrios/L4BB.jpg","null","",NA,NA,NA,NA,""
"image-keyboard-response",32,74274,"0.0-4.6-2.6","ht9n4mlwdhvjl91",483,"94.csv","","null","resources/images/coin2.png","null","",NA,NA,NA,NA,""
"image-keyboard-response",33,74596,"0.0-4.7-0.7","ht9n4mlwdhvjl91",483,"94.csv","","319.2000000476837","resources/trios/L4T2A3.jpg","37","restless",0.7,0.8,0.3,0.610088909896107,"true"
"image-keyboard-response",34,74999,"0.0-4.7-1.7","ht9n4mlwdhvjl91",483,"94.csv","","null","resources/maskTrios/L4BB.jpg","null","",NA,NA,NA,NA,""
"image-keyboard-response",35,76204,"0.0-4.7-2.7","ht9n4mlwdhvjl91",483,"94.csv","","null","resources/images/coin2.png","null","",NA,NA,NA,NA,""
"image-keyboard-response",36,76523,"0.0-4.8-0.8","ht9n4mlwdhvjl91",483,"94.csv","","316","resources/trios/L4T2A3.jpg","37","restless",0.7,0.8,0.3,0.156637068497309,"true"
"image-keyboard-response",37,76926,"0.0-4.8-1.8","ht9n4mlwdhvjl91",483,"94.csv","","null","resources/maskTrios/L4BB.jpg","null","",NA,NA,NA,NA,""
"image-keyboard-response",38,78131,"0.0-4.8-2.8","ht9n4mlwdhvjl91",483,"94.csv","","null","resources/images/coin2.png","null","",NA,NA,NA,NA,""
"image-keyboard-response",39,78571,"0.0-4.9-0.9","ht9n4mlwdhvjl91",483,"94.csv","","436.09999990463257","resources/trios/L4T2A3.jpg","37","restless",0.7,0.7,0.3,0.542871680016794,"true"
"image-keyboard-response",40,78974,"0.0-4.9-1.9","ht9n4mlwdhvjl91",483,"94.csv","","null","resources/maskTrios/L4BB.jpg","null","",NA,NA,NA,NA,""
"image-keyboard-response",41,80178,"0.0-4.9-2.9","ht9n4mlwdhvjl91",483,"94.csv","","null","resources/images/coin2.png","null","",NA,NA,NA,NA,""
"image-keyboard-response",42,80575,"0.0-4.10-0.10","ht9n4mlwdhvjl91",483,"94.csv","","393.90000009536743","resources/trios/L4T2A3.jpg","37","restless",0.7,0.7,0.3,0.454920740843005,"true"
"image-keyboard-response",43,80979,"0.0-4.10-1.10","ht9n4mlwdhvjl91",483,"94.csv","","null","resources/maskTrios/L4BB.jpg","null","",NA,NA,NA,NA,""
"image-keyboard-response",44,82183,"0.0-4.10-2.10","ht9n4mlwdhvjl91",483,"94.csv","","null","resources/images/coin2.png","null","",NA,NA,NA,NA,""
"image-keyboard-response",45,82505,"0.0-4.11-0.11","ht9n4mlwdhvjl91",483,"94.csv","","319.30000019073486","resources/trios/L4T2A3.jpg","37","restless",0.7,0.7,0.3,0.461157770426877,"true"
"image-keyboard-response",46,82908,"0.0-4.11-1.11","ht9n4mlwdhvjl91",483,"94.csv","","null","resources/maskTrios/L4BB.jpg","null","",NA,NA,NA,NA,""
"image-keyboard-response",47,84112,"0.0-4.11-2.11","ht9n4mlwdhvjl91",483,"94.csv","","null","resources/images/coin2.png","null","",NA,NA,NA,NA,""
"image-keyboard-response",48,84441,"0.0-4.12-0.12","ht9n4mlwdhvjl91",483,"94.csv","","325.89999985694885","resources/trios/L4T2A3.jpg","38","restless",0.7,0.7,0.3,0.116909354972982,"true"
"image-keyboard-response",49,84845,"0.0-4.12-1.12","ht9n4mlwdhvjl91",483,"94.csv","","null","resources/maskTrios/BT2B.jpg","null","",NA,NA,NA,NA,""
"image-keyboard-response",50,86049,"0.0-4.12-2.12","ht9n4mlwdhvjl91",483,"94.csv","","null","resources/images/coin2.png","null","",NA,NA,NA,NA,""
"image-keyboard-response",51,86384,"0.0-4.13-0.13","ht9n4mlwdhvjl91",483,"94.csv","","331.60000014305115","resources/trios/L4T2A3.jpg","38","restless",0.7,0.7,0.3,0.38654860314288,"true"
"image-keyboard-response",52,86788,"0.0-4.13-1.13","ht9n4mlwdhvjl91",483,"94.csv","","null","resources/maskTrios/BT2B.jpg","null","",NA,NA,NA,NA,""
"image-keyboard-response",53,87992,"0.0-4.13-2.13","ht9n4mlwdhvjl91",483,"94.csv","","null","resources/images/coin2.png","null","",NA,NA,NA,NA,""
"image-keyboard-response",54,88330,"0.0-4.14-0.14","ht9n4mlwdhvjl91",483,"94.csv","","334.69999980926514","resources/trios/L4T2A3.jpg","38","restless",0.7,0.7,0.3,0.817850315307244,"false"
"image-keyboard-response",55,88733,"0.0-4.14-1.14","ht9n4mlwdhvjl91",483,"94.csv","","null","resources/maskTrios/BT2B.jpg","null","",NA,NA,NA,NA,""
"image-keyboard-response",56,89938,"0.0-4.14-2.14","ht9n4mlwdhvjl91",483,"94.csv","","null","resources/images/fishbone.png","null","",NA,NA,NA,NA,""
"image-keyboard-response",57,89995,"0.0-4.15-0.15","ht9n4mlwdhvjl91",483,"94.csv","","53.299999952316284","resources/trios/L4T2A3.jpg","39","restless",0.7,0.7,0.3,0.868539667204059,"false"
"image-keyboard-response",58,90398,"0.0-4.15-1.15","ht9n4mlwdhvjl91",483,"94.csv","","null","resources/maskTrios/BBA3.jpg","null","",NA,NA,NA,NA,""
"image-keyboard-response",59,91602,"0.0-4.15-2.15","ht9n4mlwdhvjl91",483,"94.csv","","null","resources/images/fishbone.png","null","",NA,NA,NA,NA,""
"image-keyboard-response",60,91824,"0.0-4.16-0.16","ht9n4mlwdhvjl91",483,"94.csv","","218.39999985694885","resources/trios/L4T2A3.jpg","37","restless",0.7,0.7,0.3,0.681497254582406,"true"
"image-keyboard-response",61,92228,"0.0-4.16-1.16","ht9n4mlwdhvjl91",483,"94.csv","","null","resources/maskTrios/L4BB.jpg","null","",NA,NA,NA,NA,""
"image-keyboard-response",62,93431,"0.0-4.16-2.16","ht9n4mlwdhvjl91",483,"94.csv","","null","resources/images/coin2.png","null","",NA,NA,NA,NA,""
"image-keyboard-response",63,93590,"0.0-4.17-0.17","ht9n4mlwdhvjl91",483,"94.csv","","155.39999985694885","resources/trios/L4T2A3.jpg","37","restless",0.7,0.7,0.3,0.130754530773801,"true"
"image-keyboard-response",64,93993,"0.0-4.17-1.17","ht9n4mlwdhvjl91",483,"94.csv","","null","resources/maskTrios/L4BB.jpg","null","",NA,NA,NA,NA,""
"image-keyboard-response",65,95197,"0.0-4.17-2.17","ht9n4mlwdhvjl91",483,"94.csv","","null","resources/images/coin2.png","null","",NA,NA,NA,NA,""
"image-keyboard-response",66,95488,"0.0-4.18-0.18","ht9n4mlwdhvjl91",483,"94.csv","","288.60000014305115","resources/trios/L4T2A3.jpg","37","restless",0.7,0.6,0.3,0.875006424393397,"false"
"image-keyboard-response",67,95892,"0.0-4.18-1.18","ht9n4mlwdhvjl91",483,"94.csv","","null","resources/maskTrios/L4BB.jpg","null","",NA,NA,NA,NA,""
"image-keyboard-response",68,97096,"0.0-4.18-2.18","ht9n4mlwdhvjl91",483,"94.csv","","null","resources/images/fishbone.png","null","",NA,NA,NA,NA,""
"image-keyboard-response",69,97128,"0.0-4.19-0.19","ht9n4mlwdhvjl91",483,"94.csv","","29.5","resources/trios/L4T2A3.jpg","38","restless",0.7,0.6,0.2,0.661140953107083,"false"
"image-keyboard-response",70,97532,"0.0-4.19-1.19","ht9n4mlwdhvjl91",483,"94.csv","","null","resources/maskTrios/BT2B.jpg","null","",NA,NA,NA,NA,""
"image-keyboard-response",71,98736,"0.0-4.19-2.19","ht9n4mlwdhvjl91",483,"94.csv","","null","resources/images/fishbone.png","null","",NA,NA,NA,NA,""
"image-keyboard-response",72,99224,"0.0-4.20-0.20","ht9n4mlwdhvjl91",483,"94.csv","","484.60000014305115","resources/trios/L4T2A3.jpg","39","restless",0.7,0.6,0.2,0.38019706339936,"false"
"image-keyboard-response",73,99628,"0.0-4.20-1.20","ht9n4mlwdhvjl91",483,"94.csv","","null","resources/maskTrios/BBA3.jpg","null","",NA,NA,NA,NA,""
"image-keyboard-response",74,100832,"0.0-4.20-2.20","ht9n4mlwdhvjl91",483,"94.csv","","null","resources/images/fishbone.png","null","",NA,NA,NA,NA,""
"image-keyboard-response",75,101085,"0.0-4.21-0.21","ht9n4mlwdhvjl91",483,"94.csv","","249.90000009536743","resources/trios/L4T2A3.jpg","38","restless",0.7,0.5,0.2,0.407628495686254,"true"
"image-keyboard-response",76,101489,"0.0-4.21-1.21","ht9n4mlwdhvjl91",483,"94.csv","","null","resources/maskTrios/BT2B.jpg","null","",NA,NA,NA,NA,""
"image-keyboard-response",77,102693,"0.0-4.21-2.21","ht9n4mlwdhvjl91",483,"94.csv","","null","resources/images/coin2.png","null","",NA,NA,NA,NA,""
"image-keyboard-response",78,102696,"0.0-4.22-0.22","ht9n4mlwdhvjl91",483,"94.csv","","1.0999999046325684","resources/trios/L4T2A3.jpg","38","restless",0.7,0.5,0.1,0.304419043975599,"true"
"image-keyboard-response",79,103098,"0.0-4.22-1.22","ht9n4mlwdhvjl91",483,"94.csv","","null","resources/maskTrios/BT2B.jpg","null","",NA,NA,NA,NA,""
"image-keyboard-response",80,104302,"0.0-4.22-2.22","ht9n4mlwdhvjl91",483,"94.csv","","null","resources/images/coin2.png","null","",NA,NA,NA,NA,""
"image-keyboard-response",81,104516,"0.0-4.23-0.23","ht9n4mlwdhvjl91",483,"94.csv","","210.5","resources/trios/L4T2A3.jpg","38","restless",0.6,0.5,0.1,0.80777177840561,"false"
"image-keyboard-response",82,104920,"0.0-4.23-1.23","ht9n4mlwdhvjl91",483,"94.csv","","null","resources/maskTrios/BT2B.jpg","null","",NA,NA,NA,NA,""
"image-keyboard-response",83,106123,"0.0-4.23-2.23","ht9n4mlwdhvjl91",483,"94.csv","","null","resources/images/fishbone.png","null","",NA,NA,NA,NA,""
"image-keyboard-response",84,106321,"0.0-4.24-0.24","ht9n4mlwdhvjl91",483,"94.csv","","194.70000004768372","resources/trios/L4T2A3.jpg","37","restless",0.6,0.5,0.1,0.91902302669237,"false"
"image-keyboard-response",85,106725,"0.0-4.24-1.24","ht9n4mlwdhvjl91",483,"94.csv","","null","resources/maskTrios/L4BB.jpg","null","",NA,NA,NA,NA,""
"image-keyboard-response",86,107928,"0.0-4.24-2.24","ht9n4mlwdhvjl91",483,"94.csv","","null","resources/images/fishbone.png","null","",NA,NA,NA,NA,""
"image-keyboard-response",87,108374,"0.0-4.25-0.25","ht9n4mlwdhvjl91",483,"94.csv","","442.09999990463257","resources/trios/L4T2A3.jpg","39","restless",0.6,0.5,0.1,0.048534559925689,"true"
"image-keyboard-response",88,108776,"0.0-4.25-1.25","ht9n4mlwdhvjl91",483,"94.csv","","null","resources/maskTrios/BBA3.jpg","null","",NA,NA,NA,NA,""
"image-keyboard-response",89,109981,"0.0-4.25-2.25","ht9n4mlwdhvjl91",483,"94.csv","","null","resources/images/coin2.png","null","",NA,NA,NA,NA,""
"image-keyboard-response",90,110090,"0.0-4.26-0.26","ht9n4mlwdhvjl91",483,"94.csv","","105.79999995231628","resources/trios/L4T2A3.jpg","39","restless",0.6,0.5,0.1,0.958666720330416,"false"
"image-keyboard-response",91,110492,"0.0-4.26-1.26","ht9n4mlwdhvjl91",483,"94.csv","","null","resources/maskTrios/BBA3.jpg","null","",NA,NA,NA,NA,""
"image-keyboard-response",92,111694,"0.0-4.26-2.26","ht9n4mlwdhvjl91",483,"94.csv","","null","resources/images/fishbone.png","null","",NA,NA,NA,NA,""
"image-keyboard-response",93,112545,"0.0-4.27-0.27","ht9n4mlwdhvjl91",483,"94.csv","","847.2000000476837","resources/trios/L4T2A3.jpg","38","restless",0.6,0.5,0.1,0.734821169921602,"false"
"image-keyboard-response",94,112948,"0.0-4.27-1.27","ht9n4mlwdhvjl91",483,"94.csv","","null","resources/maskTrios/BT2B.jpg","null","",NA,NA,NA,NA,""
"image-keyboard-response",95,114152,"0.0-4.27-2.27","ht9n4mlwdhvjl91",483,"94.csv","","null","resources/images/fishbone.png","null","",NA,NA,NA,NA,""
"image-keyboard-response",96,114355,"0.0-4.28-0.28","ht9n4mlwdhvjl91",483,"94.csv","","199.59999990463257","resources/trios/L4T2A3.jpg","39","restless",0.6,0.5,0.1,0.0224702546770343,"true"
"image-keyboard-response",97,114758,"0.0-4.28-1.28","ht9n4mlwdhvjl91",483,"94.csv","","null","resources/maskTrios/BBA3.jpg","null","",NA,NA,NA,NA,""
"image-keyboard-response",98,115961,"0.0-4.28-2.28","ht9n4mlwdhvjl91",483,"94.csv","","null","resources/images/coin2.png","null","",NA,NA,NA,NA,""
"image-keyboard-response",99,116087,"0.0-4.29-0.29","ht9n4mlwdhvjl91",483,"94.csv","","122.70000004768372","resources/trios/L4T2A3.jpg","39","restless",0.6,0.5,0.1,0.216597935713268,"false"
"image-keyboard-response",100,116490,"0.0-4.29-1.29","ht9n4mlwdhvjl91",483,"94.csv","","null","resources/maskTrios/BBA3.jpg","null","",NA,NA,NA,NA,""
"image-keyboard-response",101,117693,"0.0-4.29-2.29","ht9n4mlwdhvjl91",483,"94.csv","","null","resources/images/fishbone.png","null","",NA,NA,NA,NA,""
"image-keyboard-response",102,117950,"0.0-4.30-0.30","ht9n4mlwdhvjl91",483,"94.csv","","255.39999985694885","resources/trios/L4T2A3.jpg","38","restless",0.6,0.5,0.1,0.00642808733940581,"true"
"image-keyboard-response",103,118354,"0.0-4.30-1.30","ht9n4mlwdhvjl91",483,"94.csv","","null","resources/maskTrios/BT2B.jpg","null","",NA,NA,NA,NA,""
"image-keyboard-response",104,119557,"0.0-4.30-2.30","ht9n4mlwdhvjl91",483,"94.csv","","null","resources/images/coin2.png","null","",NA,NA,NA,NA,""
"image-keyboard-response",105,119747,"0.0-4.31-0.31","ht9n4mlwdhvjl91",483,"94.csv","","186.5","resources/trios/L4T2A3.jpg","39","restless",0.6,0.5,0.1,0.760178231709173,"false"
"image-keyboard-response",106,120151,"0.0-4.31-1.31","ht9n4mlwdhvjl91",483,"94.csv","","null","resources/maskTrios/BBA3.jpg","null","",NA,NA,NA,NA,""
"image-keyboard-response",107,121356,"0.0-4.31-2.31","ht9n4mlwdhvjl91",483,"94.csv","","null","resources/images/fishbone.png","null","",NA,NA,NA,NA,""
"image-keyboard-response",108,121589,"0.0-4.32-0.32","ht9n4mlwdhvjl91",483,"94.csv","","229.80000019073486","resources/trios/L4T2A3.jpg","38","restless",0.6,0.5,0.1,0.804698773977921,"false"
"image-keyboard-response",109,121992,"0.0-4.32-1.32","ht9n4mlwdhvjl91",483,"94.csv","","null","resources/maskTrios/BT2B.jpg","null","",NA,NA,NA,NA,""
"image-keyboard-response",110,123196,"0.0-4.32-2.32","ht9n4mlwdhvjl91",483,"94.csv","","null","resources/images/fishbone.png","null","",NA,NA,NA,NA,""
"image-keyboard-response",111,123370,"0.0-4.33-0.33","ht9n4mlwdhvjl91",483,"94.csv","","171.79999995231628","resources/trios/L4T2A3.jpg","38","restless",0.6,0.5,0.1,0.756562642051111,"false"
"image-keyboard-response",112,123772,"0.0-4.33-1.33","ht9n4mlwdhvjl91",483,"94.csv","","null","resources/maskTrios/BT2B.jpg","null","",NA,NA,NA,NA,""
"image-keyboard-response",113,124976,"0.0-4.33-2.33","ht9n4mlwdhvjl91",483,"94.csv","","null","resources/images/fishbone.png","null","",NA,NA,NA,NA,""
"image-keyboard-response",114,125403,"0.0-4.34-0.34","ht9n4mlwdhvjl91",483,"94.csv","","425.7999999523163","resources/trios/L4T2A3.jpg","37","restless",0.6,0.6,0.1,0.681766728308874,"false"
"image-keyboard-response",115,125806,"0.0-4.34-1.34","ht9n4mlwdhvjl91",483,"94.csv","","null","resources/maskTrios/L4BB.jpg","null","",NA,NA,NA,NA,""
"image-keyboard-response",116,127011,"0.0-4.34-2.34","ht9n4mlwdhvjl91",483,"94.csv","","null","resources/images/fishbone.png","null","",NA,NA,NA,NA,""
"image-keyboard-response",117,127216,"0.0-4.35-0.35","ht9n4mlwdhvjl91",483,"94.csv","","201.80000019073486","resources/trios/L4T2A3.jpg","39","restless",0.6,0.6,0.2,0.684808997329496,"false"
"image-keyboard-response",118,127620,"0.0-4.35-1.35","ht9n4mlwdhvjl91",483,"94.csv","","null","resources/maskTrios/BBA3.jpg","null","",NA,NA,NA,NA,""
"image-keyboard-response",119,128823,"0.0-4.35-2.35","ht9n4mlwdhvjl91",483,"94.csv","","null","resources/images/fishbone.png","null","",NA,NA,NA,NA,""
"image-keyboard-response",120,128980,"0.0-4.36-0.36","ht9n4mlwdhvjl91",483,"94.csv","","156.29999995231628","resources/trios/L4T2A3.jpg","38","restless",0.6,0.6,0.2,0.760372784550372,"false"
"image-keyboard-response",121,129383,"0.0-4.36-1.36","ht9n4mlwdhvjl91",483,"94.csv","","null","resources/maskTrios/BT2B.jpg","null","",NA,NA,NA,NA,""
"image-keyboard-response",122,130587,"0.0-4.36-2.36","ht9n4mlwdhvjl91",483,"94.csv","","null","resources/images/fishbone.png","null","",NA,NA,NA,NA,""
"image-keyboard-response",123,130797,"0.0-4.37-0.37","ht9n4mlwdhvjl91",483,"94.csv","","207.19999980926514","resources/trios/L4T2A3.jpg","38","restless",0.5,0.6,0.3,0.897314473986172,"false"
"image-keyboard-response",124,131200,"0.0-4.37-1.37","ht9n4mlwdhvjl91",483,"94.csv","","null","resources/maskTrios/BT2B.jpg","null","",NA,NA,NA,NA,""
"image-keyboard-response",125,132403,"0.0-4.37-2.37","ht9n4mlwdhvjl91",483,"94.csv","","null","resources/images/fishbone.png","null","",NA,NA,NA,NA,""
"image-keyboard-response",126,132492,"0.0-4.38-0.38","ht9n4mlwdhvjl91",483,"94.csv","","85.59999990463257","resources/trios/L4T2A3.jpg","38","restless",0.5,0.6,0.4,0.517337813807719,"true"
"image-keyboard-response",127,132894,"0.0-4.38-1.38","ht9n4mlwdhvjl91",483,"94.csv","","null","resources/maskTrios/BT2B.jpg","null","",NA,NA,NA,NA,""
"image-keyboard-response",128,134098,"0.0-4.38-2.38","ht9n4mlwdhvjl91",483,"94.csv","","null","resources/images/coin2.png","null","",NA,NA,NA,NA,""
"image-keyboard-response",129,134338,"0.0-4.39-0.39","ht9n4mlwdhvjl91",483,"94.csv","","235.90000009536743","resources/trios/L4T2A3.jpg","38","restless",0.5,0.6,0.4,0.962320631849982,"false"
"image-keyboard-response",130,134741,"0.0-4.39-1.39","ht9n4mlwdhvjl91",483,"94.csv","","null","resources/maskTrios/BT2B.jpg","null","",NA,NA,NA,NA,""
"image-keyboard-response",131,135945,"0.0-4.39-2.39","ht9n4mlwdhvjl91",483,"94.csv","","null","resources/images/fishbone.png","null","",NA,NA,NA,NA,""
"image-keyboard-response",132,136043,"0.0-4.40-0.40","ht9n4mlwdhvjl91",483,"94.csv","","94.79999995231628","resources/trios/L4T2A3.jpg","39","restless",0.4,0.6,0.4,0.0660378350347759,"true"
"image-keyboard-response",133,136446,"0.0-4.40-1.40","ht9n4mlwdhvjl91",483,"94.csv","","null","resources/maskTrios/BBA3.jpg","null","",NA,NA,NA,NA,""
"image-keyboard-response",134,137649,"0.0-4.40-2.40","ht9n4mlwdhvjl91",483,"94.csv","","null","resources/images/coin2.png","null","",NA,NA,NA,NA,""
"image-keyboard-response",135,138012,"0.0-4.41-0.41","ht9n4mlwdhvjl91",483,"94.csv","","360.40000009536743","resources/trios/L4T2A3.jpg","39","restless",0.4,0.6,0.4,0.173552456045778,"true"
"image-keyboard-response",136,138415,"0.0-4.41-1.41","ht9n4mlwdhvjl91",483,"94.csv","","null","resources/maskTrios/BBA3.jpg","null","",NA,NA,NA,NA,""
"image-keyboard-response",137,139620,"0.0-4.41-2.41","ht9n4mlwdhvjl91",483,"94.csv","","null","resources/images/coin2.png","null","",NA,NA,NA,NA,""
"image-keyboard-response",138,139867,"0.0-4.42-0.42","ht9n4mlwdhvjl91",483,"94.csv","","244.39999985694885","resources/trios/L4T2A3.jpg","39","restless",0.4,0.6,0.4,0.955096457810437,"false"
"image-keyboard-response",139,140272,"0.0-4.42-1.42","ht9n4mlwdhvjl91",483,"94.csv","","null","resources/maskTrios/BBA3.jpg","null","",NA,NA,NA,NA,""
"image-keyboard-response",140,141475,"0.0-4.42-2.42","ht9n4mlwdhvjl91",483,"94.csv","","null","resources/images/fishbone.png","null","",NA,NA,NA,NA,""
"image-keyboard-response",141,141659,"0.0-4.43-0.43","ht9n4mlwdhvjl91",483,"94.csv","","180.09999990463257","resources/trios/L4T2A3.jpg","37","restless",0.4,0.6,0.4,0.978649787390529,"false"
"image-keyboard-response",142,142062,"0.0-4.43-1.43","ht9n4mlwdhvjl91",483,"94.csv","","null","resources/maskTrios/L4BB.jpg","null","",NA,NA,NA,NA,""
"image-keyboard-response",143,143266,"0.0-4.43-2.43","ht9n4mlwdhvjl91",483,"94.csv","","null","resources/images/fishbone.png","null","",NA,NA,NA,NA,""
"image-keyboard-response",144,143488,"0.0-4.44-0.44","ht9n4mlwdhvjl91",483,"94.csv","","218.29999995231628","resources/trios/L4T2A3.jpg","38","restless",0.4,0.6,0.4,0.818143302707804,"false"
"image-keyboard-response",145,143893,"0.0-4.44-1.44","ht9n4mlwdhvjl91",483,"94.csv","","null","resources/maskTrios/BT2B.jpg","null","",NA,NA,NA,NA,""
"image-keyboard-response",146,145097,"0.0-4.44-2.44","ht9n4mlwdhvjl91",483,"94.csv","","null","resources/images/fishbone.png","null","",NA,NA,NA,NA,""
"image-keyboard-response",147,145319,"0.0-4.45-0.45","ht9n4mlwdhvjl91",483,"94.csv","","218.20000004768372","resources/trios/L4T2A3.jpg","38","restless",0.4,0.6,0.4,0.390733308957801,"true"
"image-keyboard-response",148,145722,"0.0-4.45-1.45","ht9n4mlwdhvjl91",483,"94.csv","","null","resources/maskTrios/BT2B.jpg","null","",NA,NA,NA,NA,""
"image-keyboard-response",149,146926,"0.0-4.45-2.45","ht9n4mlwdhvjl91",483,"94.csv","","null","resources/images/coin2.png","null","",NA,NA,NA,NA,""
"image-keyboard-response",150,147190,"0.0-4.46-0.46","ht9n4mlwdhvjl91",483,"94.csv","","262.2000000476837","resources/trios/L4T2A3.jpg","39","restless",0.4,0.7,0.4,0.882009789672211,"false"
"image-keyboard-response",151,147594,"0.0-4.46-1.46","ht9n4mlwdhvjl91",483,"94.csv","","null","resources/maskTrios/BBA3.jpg","null","",NA,NA,NA,NA,""
"image-keyboard-response",152,148798,"0.0-4.46-2.46","ht9n4mlwdhvjl91",483,"94.csv","","null","resources/images/fishbone.png","null","",NA,NA,NA,NA,""
"image-keyboard-response",153,148954,"0.0-4.47-0.47","ht9n4mlwdhvjl91",483,"94.csv","","153","resources/trios/L4T2A3.jpg","39","restless",0.4,0.7,0.4,0.559828337544942,"false"
"image-keyboard-response",154,149357,"0.0-4.47-1.47","ht9n4mlwdhvjl91",483,"94.csv","","null","resources/maskTrios/BBA3.jpg","null","",NA,NA,NA,NA,""
"image-keyboard-response",155,150561,"0.0-4.47-2.47","ht9n4mlwdhvjl91",483,"94.csv","","null","resources/images/fishbone.png","null","",NA,NA,NA,NA,""
"image-keyboard-response",156,150650,"0.0-4.48-0.48","ht9n4mlwdhvjl91",483,"94.csv","","85.10000014305115","resources/trios/L4T2A3.jpg","37","restless",0.4,0.6,0.4,0.45741874580107,"false"
"image-keyboard-response",157,151053,"0.0-4.48-1.48","ht9n4mlwdhvjl91",483,"94.csv","","null","resources/maskTrios/L4BB.jpg","null","",NA,NA,NA,NA,""
"image-keyboard-response",158,152256,"0.0-4.48-2.48","ht9n4mlwdhvjl91",483,"94.csv","","null","resources/images/fishbone.png","null","",NA,NA,NA,NA,""
"image-keyboard-response",159,152556,"0.0-4.49-0.49","ht9n4mlwdhvjl91",483,"94.csv","","297.09999990463257","resources/trios/L4T2A3.jpg","39","restless",0.4,0.6,0.5,0.380432887458994,"true"
"image-keyboard-response",160,152958,"0.0-4.49-1.49","ht9n4mlwdhvjl91",483,"94.csv","","null","resources/maskTrios/BBA3.jpg","null","",NA,NA,NA,NA,""
"image-keyboard-response",161,154162,"0.0-4.49-2.49","ht9n4mlwdhvjl91",483,"94.csv","","null","resources/images/coin2.png","null","",NA,NA,NA,NA,""
"image-keyboard-response",162,154449,"0.0-4.50-0.50","ht9n4mlwdhvjl91",483,"94.csv","","283.5","resources/trios/L4T2A3.jpg","39","restless",0.4,0.6,0.5,0.819887375487535,"false"
"image-keyboard-response",163,154851,"0.0-4.50-1.50","ht9n4mlwdhvjl91",483,"94.csv","","null","resources/maskTrios/BBA3.jpg","null","",NA,NA,NA,NA,""
"image-keyboard-response",164,156055,"0.0-4.50-2.50","ht9n4mlwdhvjl91",483,"94.csv","","null","resources/images/fishbone.png","null","",NA,NA,NA,NA,""
"image-keyboard-response",165,156227,"0.0-4.51-0.51","ht9n4mlwdhvjl91",483,"94.csv","","168.5","resources/trios/L4T2A3.jpg","38","restless",0.4,0.6,0.5,0.103404570615922,"true"
"image-keyboard-response",166,156630,"0.0-4.51-1.51","ht9n4mlwdhvjl91",483,"94.csv","","null","resources/maskTrios/BT2B.jpg","null","",NA,NA,NA,NA,""
"image-keyboard-response",167,157833,"0.0-4.51-2.51","ht9n4mlwdhvjl91",483,"94.csv","","null","resources/images/coin2.png","null","",NA,NA,NA,NA,""
"image-keyboard-response",168,158073,"0.0-4.52-0.52","ht9n4mlwdhvjl91",483,"94.csv","","236.79999995231628","resources/trios/L4T2A3.jpg","38","restless",0.4,0.6,0.5,0.791325783635294,"false"
"image-keyboard-response",169,158475,"0.0-4.52-1.52","ht9n4mlwdhvjl91",483,"94.csv","","null","resources/maskTrios/BT2B.jpg","null","",NA,NA,NA,NA,""
"image-keyboard-response",170,159679,"0.0-4.52-2.52","ht9n4mlwdhvjl91",483,"94.csv","","null","resources/images/fishbone.png","null","",NA,NA,NA,NA,""
"image-keyboard-response",171,159944,"0.0-4.53-0.53","ht9n4mlwdhvjl91",483,"94.csv","","261.80000019073486","resources/trios/L4T2A3.jpg","37","restless",0.4,0.6,0.5,0.115644359005587,"true"
"image-keyboard-response",172,160347,"0.0-4.53-1.53","ht9n4mlwdhvjl91",483,"94.csv","","null","resources/maskTrios/L4BB.jpg","null","",NA,NA,NA,NA,""
"image-keyboard-response",173,161552,"0.0-4.53-2.53","ht9n4mlwdhvjl91",483,"94.csv","","null","resources/images/coin2.png","null","",NA,NA,NA,NA,""
"image-keyboard-response",174,161606,"0.0-4.54-0.54","ht9n4mlwdhvjl91",483,"94.csv","","50.5","resources/trios/L4T2A3.jpg","37","restless",0.4,0.6,0.5,0.174785462143599,"true"
"image-keyboard-response",175,162010,"0.0-4.54-1.54","ht9n4mlwdhvjl91",483,"94.csv","","null","resources/maskTrios/L4BB.jpg","null","",NA,NA,NA,NA,""
"image-keyboard-response",176,163214,"0.0-4.54-2.54","ht9n4mlwdhvjl91",483,"94.csv","","null","resources/images/coin2.png","null","",NA,NA,NA,NA,""
"image-keyboard-response",177,163481,"0.0-4.55-0.55","ht9n4mlwdhvjl91",483,"94.csv","","265.09999990463257","resources/trios/L4T2A3.jpg","37","restless",0.4,0.6,0.5,0.573077473087175,"false"
"image-keyboard-response",178,163883,"0.0-4.55-1.55","ht9n4mlwdhvjl91",483,"94.csv","","null","resources/maskTrios/L4BB.jpg","null","",NA,NA,NA,NA,""
"image-keyboard-response",179,165087,"0.0-4.55-2.55","ht9n4mlwdhvjl91",483,"94.csv","","null","resources/images/fishbone.png","null","",NA,NA,NA,NA,""
"image-keyboard-response",180,165245,"0.0-4.56-0.56","ht9n4mlwdhvjl91",483,"94.csv","","155","resources/trios/L4T2A3.jpg","39","restless",0.4,0.6,0.5,0.705994430157697,"false"
"image-keyboard-response",181,165648,"0.0-4.56-1.56","ht9n4mlwdhvjl91",483,"94.csv","","null","resources/maskTrios/BBA3.jpg","null","",NA,NA,NA,NA,""
"image-keyboard-response",182,166852,"0.0-4.56-2.56","ht9n4mlwdhvjl91",483,"94.csv","","null","resources/images/fishbone.png","null","",NA,NA,NA,NA,""
"image-keyboard-response",183,166978,"0.0-4.57-0.57","ht9n4mlwdhvjl91",483,"94.csv","","122","resources/trios/L4T2A3.jpg","38","restless",0.4,0.6,0.5,0.20964971887299,"true"
"image-keyboard-response",184,167380,"0.0-4.57-1.57","ht9n4mlwdhvjl91",483,"94.csv","","null","resources/maskTrios/BT2B.jpg","null","",NA,NA,NA,NA,""
"image-keyboard-response",185,168584,"0.0-4.57-2.57","ht9n4mlwdhvjl91",483,"94.csv","","null","resources/images/coin2.png","null","",NA,NA,NA,NA,""
"image-keyboard-response",186,168639,"0.0-4.58-0.58","ht9n4mlwdhvjl91",483,"94.csv","","51.5","resources/trios/L4T2A3.jpg","38","restless",0.4,0.6,0.5,0.00553076718926815,"true"
"image-keyboard-response",187,169042,"0.0-4.58-1.58","ht9n4mlwdhvjl91",483,"94.csv","","null","resources/maskTrios/BT2B.jpg","null","",NA,NA,NA,NA,""
"image-keyboard-response",188,170246,"0.0-4.58-2.58","ht9n4mlwdhvjl91",483,"94.csv","","null","resources/images/coin2.png","null","",NA,NA,NA,NA,""
"image-keyboard-response",189,170358,"0.0-4.59-0.59","ht9n4mlwdhvjl91",483,"94.csv","","109.09999990463257","resources/trios/L4T2A3.jpg","38","restless",0.4,0.6,0.5,0.420821786561375,"true"
"image-keyboard-response",190,170761,"0.0-4.59-1.59","ht9n4mlwdhvjl91",483,"94.csv","","null","resources/maskTrios/BT2B.jpg","null","",NA,NA,NA,NA,""
"image-keyboard-response",191,171965,"0.0-4.59-2.59","ht9n4mlwdhvjl91",483,"94.csv","","null","resources/images/coin2.png","null","",NA,NA,NA,NA,""
"image-keyboard-response",192,172075,"0.0-4.60-0.60","ht9n4mlwdhvjl91",483,"94.csv","","106.5","resources/trios/L4T2A3.jpg","38","restless",0.4,0.6,0.5,0.317059427311784,"true"
"image-keyboard-response",193,172479,"0.0-4.60-1.60","ht9n4mlwdhvjl91",483,"94.csv","","null","resources/maskTrios/BT2B.jpg","null","",NA,NA,NA,NA,""
"image-keyboard-response",194,173683,"0.0-4.60-2.60","ht9n4mlwdhvjl91",483,"94.csv","","null","resources/images/coin2.png","null","",NA,NA,NA,NA,""
"image-keyboard-response",195,173889,"0.0-4.61-0.61","ht9n4mlwdhvjl91",483,"94.csv","","203.39999985694885","resources/trios/L4T2A3.jpg","38","restless",0.4,0.6,0.5,0.235910817616099,"true"
"image-keyboard-response",196,174292,"0.0-4.61-1.61","ht9n4mlwdhvjl91",483,"94.csv","","null","resources/maskTrios/BT2B.jpg","null","",NA,NA,NA,NA,""
"image-keyboard-response",197,175496,"0.0-4.61-2.61","ht9n4mlwdhvjl91",483,"94.csv","","null","resources/images/coin2.png","null","",NA,NA,NA,NA,""
"image-keyboard-response",198,175611,"0.0-4.62-0.62","ht9n4mlwdhvjl91",483,"94.csv","","111.5","resources/trios/L4T2A3.jpg","38","restless",0.4,0.6,0.5,0.56878585575847,"true"
"image-keyboard-response",199,176014,"0.0-4.62-1.62","ht9n4mlwdhvjl91",483,"94.csv","","null","resources/maskTrios/BT2B.jpg","null","",NA,NA,NA,NA,""
"image-keyboard-response",200,177217,"0.0-4.62-2.62","ht9n4mlwdhvjl91",483,"94.csv","","null","resources/images/coin2.png","null","",NA,NA,NA,NA,""
"image-keyboard-response",201,177322,"0.0-4.63-0.63","ht9n4mlwdhvjl91",483,"94.csv","","101.70000004768372","resources/trios/L4T2A3.jpg","38","restless",0.4,0.7,0.5,0.0289039366706401,"true"
"image-keyboard-response",202,177726,"0.0-4.63-1.63","ht9n4mlwdhvjl91",483,"94.csv","","null","resources/maskTrios/BT2B.jpg","null","",NA,NA,NA,NA,""
"image-keyboard-response",203,178929,"0.0-4.63-2.63","ht9n4mlwdhvjl91",483,"94.csv","","null","resources/images/coin2.png","null","",NA,NA,NA,NA,""
"image-keyboard-response",204,179073,"0.0-4.64-0.64","ht9n4mlwdhvjl91",483,"94.csv","","140.5","resources/trios/L4T2A3.jpg","38","restless",0.4,0.7,0.5,0.385326424339503,"true"
"image-keyboard-response",205,179475,"0.0-4.64-1.64","ht9n4mlwdhvjl91",483,"94.csv","","null","resources/maskTrios/BT2B.jpg","null","",NA,NA,NA,NA,""
"image-keyboard-response",206,180679,"0.0-4.64-2.64","ht9n4mlwdhvjl91",483,"94.csv","","null","resources/images/coin2.png","null","",NA,NA,NA,NA,""
"image-keyboard-response",207,180831,"0.0-4.65-0.65","ht9n4mlwdhvjl91",483,"94.csv","","148","resources/trios/L4T2A3.jpg","38","restless",0.4,0.7,0.5,0.745576136400078,"false"
"image-keyboard-response",208,181234,"0.0-4.65-1.65","ht9n4mlwdhvjl91",483,"94.csv","","null","resources/maskTrios/BT2B.jpg","null","",NA,NA,NA,NA,""
"image-keyboard-response",209,182438,"0.0-4.65-2.65","ht9n4mlwdhvjl91",483,"94.csv","","null","resources/images/fishbone.png","null","",NA,NA,NA,NA,""
"image-keyboard-response",210,182878,"0.0-4.66-0.66","ht9n4mlwdhvjl91",483,"94.csv","","438.7999999523163","resources/trios/L4T2A3.jpg","37","restless",0.4,0.7,0.5,0.77217963349573,"false"
"image-keyboard-response",211,183284,"0.0-4.66-1.66","ht9n4mlwdhvjl91",483,"94.csv","","null","resources/maskTrios/L4BB.jpg","null","",NA,NA,NA,NA,""
"image-keyboard-response",212,184487,"0.0-4.66-2.66","ht9n4mlwdhvjl91",483,"94.csv","","null","resources/images/fishbone.png","null","",NA,NA,NA,NA,""
"image-keyboard-response",213,184616,"0.0-4.67-0.67","ht9n4mlwdhvjl91",483,"94.csv","","128","resources/trios/L4T2A3.jpg","37","restless",0.4,0.7,0.5,0.907471992062659,"false"
"image-keyboard-response",214,185019,"0.0-4.67-1.67","ht9n4mlwdhvjl91",483,"94.csv","","null","resources/maskTrios/L4BB.jpg","null","",NA,NA,NA,NA,""
"image-keyboard-response",215,186223,"0.0-4.67-2.67","ht9n4mlwdhvjl91",483,"94.csv","","null","resources/images/fishbone.png","null","",NA,NA,NA,NA,""
"image-keyboard-response",216,186230,"0.0-4.68-0.68","ht9n4mlwdhvjl91",483,"94.csv","","4","resources/trios/L4T2A3.jpg","39","restless",0.4,0.7,0.5,0.664674241579211,"false"
"image-keyboard-response",217,186633,"0.0-4.68-1.68","ht9n4mlwdhvjl91",483,"94.csv","","null","resources/maskTrios/BBA3.jpg","null","",NA,NA,NA,NA,""
"image-keyboard-response",218,187837,"0.0-4.68-2.68","ht9n4mlwdhvjl91",483,"94.csv","","null","resources/images/fishbone.png","null","",NA,NA,NA,NA,""
"image-keyboard-response",219,187871,"0.0-4.69-0.69","ht9n4mlwdhvjl91",483,"94.csv","","30.40000009536743","resources/trios/L4T2A3.jpg","37","restless",0.4,0.7,0.5,0.574293752905617,"false"
"image-keyboard-response",220,188274,"0.0-4.69-1.69","ht9n4mlwdhvjl91",483,"94.csv","","null","resources/maskTrios/L4BB.jpg","null","",NA,NA,NA,NA,""
"image-keyboard-response",221,189478,"0.0-4.69-2.69","ht9n4mlwdhvjl91",483,"94.csv","","null","resources/images/fishbone.png","null","",NA,NA,NA,NA,""
"image-keyboard-response",222,189498,"0.0-4.70-0.70","ht9n4mlwdhvjl91",483,"94.csv","","19.799999952316284","resources/trios/L4T2A3.jpg","38","restless",0.3,0.7,0.5,0.139193183699683,"true"
"image-keyboard-response",223,189901,"0.0-4.70-1.70","ht9n4mlwdhvjl91",483,"94.csv","","null","resources/maskTrios/BT2B.jpg","null","",NA,NA,NA,NA,""
"image-keyboard-response",224,191105,"0.0-4.70-2.70","ht9n4mlwdhvjl91",483,"94.csv","","null","resources/images/coin2.png","null","",NA,NA,NA,NA,""
"image-keyboard-response",225,191216,"0.0-4.71-0.71","ht9n4mlwdhvjl91",483,"94.csv","","107.10000014305115","resources/trios/L4T2A3.jpg","38","restless",0.3,0.7,0.5,0.651073339109146,"true"
"image-keyboard-response",226,191619,"0.0-4.71-1.71","ht9n4mlwdhvjl91",483,"94.csv","","null","resources/maskTrios/BT2B.jpg","null","",NA,NA,NA,NA,""
"image-keyboard-response",227,192821,"0.0-4.71-2.71","ht9n4mlwdhvjl91",483,"94.csv","","null","resources/images/coin2.png","null","",NA,NA,NA,NA,""
"image-keyboard-response",228,193330,"0.0-4.72-0.72","ht9n4mlwdhvjl91",483,"94.csv","","507","resources/trios/L4T2A3.jpg","38","restless",0.3,0.7,0.5,0.160396376363524,"true"
"image-keyboard-response",229,193735,"0.0-4.72-1.72","ht9n4mlwdhvjl91",483,"94.csv","","null","resources/maskTrios/BT2B.jpg","null","",NA,NA,NA,NA,""
"image-keyboard-response",230,194940,"0.0-4.72-2.72","ht9n4mlwdhvjl91",483,"94.csv","","null","resources/images/coin2.png","null","",NA,NA,NA,NA,""
"image-keyboard-response",231,194974,"0.0-4.73-0.73","ht9n4mlwdhvjl91",483,"94.csv","","31.200000047683716","resources/trios/L4T2A3.jpg","38","restless",0.2,0.7,0.5,0.303948427011556,"true"
"image-keyboard-response",232,195376,"0.0-4.73-1.73","ht9n4mlwdhvjl91",483,"94.csv","","null","resources/maskTrios/BT2B.jpg","null","",NA,NA,NA,NA,""
"image-keyboard-response",233,196579,"0.0-4.73-2.73","ht9n4mlwdhvjl91",483,"94.csv","","null","resources/images/coin2.png","null","",NA,NA,NA,NA,""
"image-keyboard-response",234,196657,"0.0-4.74-0.74","ht9n4mlwdhvjl91",483,"94.csv","","75.20000004768372","resources/trios/L4T2A3.jpg","38","restless",0.2,0.7,0.5,0.763289228684602,"false"
"image-keyboard-response",235,197060,"0.0-4.74-1.74","ht9n4mlwdhvjl91",483,"94.csv","","null","resources/maskTrios/BT2B.jpg","null","",NA,NA,NA,NA,""
"image-keyboard-response",236,198264,"0.0-4.74-2.74","ht9n4mlwdhvjl91",483,"94.csv","","null","resources/images/fishbone.png","null","",NA,NA,NA,NA,""
"image-keyboard-response",237,198356,"0.0-4.75-0.75","ht9n4mlwdhvjl91",483,"94.csv","","87.5","resources/trios/L4T2A3.jpg","37","restless",0.2,0.7,0.5,0.14909494637635,"true"
"image-keyboard-response",238,198759,"0.0-4.75-1.75","ht9n4mlwdhvjl91",483,"94.csv","","null","resources/maskTrios/L4BB.jpg","null","",NA,NA,NA,NA,""
"image-keyboard-response",239,199964,"0.0-4.75-2.75","ht9n4mlwdhvjl91",483,"94.csv","","null","resources/images/coin2.png","null","",NA,NA,NA,NA,""
"image-keyboard-response",240,200115,"0.0-4.76-0.76","ht9n4mlwdhvjl91",483,"94.csv","","148.29999995231628","resources/trios/L4T2A3.jpg","37","restless",0.2,0.7,0.5,0.581085924841009,"false"
"image-keyboard-response",241,200518,"0.0-4.76-1.76","ht9n4mlwdhvjl91",483,"94.csv","","null","resources/maskTrios/L4BB.jpg","null","",NA,NA,NA,NA,""
"image-keyboard-response",242,201723,"0.0-4.76-2.76","ht9n4mlwdhvjl91",483,"94.csv","","null","resources/images/fishbone.png","null","",NA,NA,NA,NA,""
"image-keyboard-response",243,201844,"0.0-4.77-0.77","ht9n4mlwdhvjl91",483,"94.csv","","118.09999990463257","resources/trios/L4T2A3.jpg","39","restless",0.2,0.7,0.5,0.442440653350823,"true"
"image-keyboard-response",244,202247,"0.0-4.77-1.77","ht9n4mlwdhvjl91",483,"94.csv","","null","resources/maskTrios/BBA3.jpg","null","",NA,NA,NA,NA,""
"image-keyboard-response",245,203451,"0.0-4.77-2.77","ht9n4mlwdhvjl91",483,"94.csv","","null","resources/images/coin2.png","null","",NA,NA,NA,NA,""
"image-keyboard-response",246,203565,"0.0-4.78-0.78","ht9n4mlwdhvjl91",483,"94.csv","","112.40000009536743","resources/trios/L4T2A3.jpg","39","restless",0.1,0.6,0.5,0.446840602499916,"true"
"image-keyboard-response",247,203970,"0.0-4.78-1.78","ht9n4mlwdhvjl91",483,"94.csv","","null","resources/maskTrios/BBA3.jpg","null","",NA,NA,NA,NA,""
"image-keyboard-response",248,205175,"0.0-4.78-2.78","ht9n4mlwdhvjl91",483,"94.csv","","null","resources/images/coin2.png","null","",NA,NA,NA,NA,""
"image-keyboard-response",249,205252,"0.0-4.79-0.79","ht9n4mlwdhvjl91",483,"94.csv","","73.60000014305115","resources/trios/L4T2A3.jpg","39","restless",0.1,0.6,0.5,0.388612364659423,"true"
"image-keyboard-response",250,205657,"0.0-4.79-1.79","ht9n4mlwdhvjl91",483,"94.csv","","null","resources/maskTrios/BBA3.jpg","null","",NA,NA,NA,NA,""
"image-keyboard-response",251,206861,"0.0-4.79-2.79","ht9n4mlwdhvjl91",483,"94.csv","","null","resources/images/coin2.png","null","",NA,NA,NA,NA,""
"image-keyboard-response",252,207008,"0.0-4.80-0.80","ht9n4mlwdhvjl91",483,"94.csv","","143.39999985694885","resources/trios/L4T2A3.jpg","39","restless",0.1,0.7,0.5,0.373613842244376,"true"
"image-keyboard-response",253,207413,"0.0-4.80-1.80","ht9n4mlwdhvjl91",483,"94.csv","","null","resources/maskTrios/BBA3.jpg","null","",NA,NA,NA,NA,""
"image-keyboard-response",254,208616,"0.0-4.80-2.80","ht9n4mlwdhvjl91",483,"94.csv","","null","resources/images/coin2.png","null","",NA,NA,NA,NA,""
"image-keyboard-response",255,208833,"0.0-4.81-0.81","ht9n4mlwdhvjl91",483,"94.csv","","213.59999990463257","resources/trios/L4T2A3.jpg","39","restless",0.1,0.7,0.5,0.188695679466741,"true"
"image-keyboard-response",256,209236,"0.0-4.81-1.81","ht9n4mlwdhvjl91",483,"94.csv","","null","resources/maskTrios/BBA3.jpg","null","",NA,NA,NA,NA,""
"image-keyboard-response",257,210439,"0.0-4.81-2.81","ht9n4mlwdhvjl91",483,"94.csv","","null","resources/images/coin2.png","null","",NA,NA,NA,NA,""
"image-keyboard-response",258,210659,"0.0-4.82-0.82","ht9n4mlwdhvjl91",483,"94.csv","","219","resources/trios/L4T2A3.jpg","39","restless",0.1,0.7,0.5,0.50929484542778,"false"
"image-keyboard-response",259,211062,"0.0-4.82-1.82","ht9n4mlwdhvjl91",483,"94.csv","","null","resources/maskTrios/BBA3.jpg","null","",NA,NA,NA,NA,""
"image-keyboard-response",260,212266,"0.0-4.82-2.82","ht9n4mlwdhvjl91",483,"94.csv","","null","resources/images/fishbone.png","null","",NA,NA,NA,NA,""
"image-keyboard-response",261,212377,"0.0-4.83-0.83","ht9n4mlwdhvjl91",483,"94.csv","","107.19999980926514","resources/trios/L4T2A3.jpg","38","restless",0.1,0.7,0.6,0.236629231741188,"true"
"image-keyboard-response",262,212781,"0.0-4.83-1.83","ht9n4mlwdhvjl91",483,"94.csv","","null","resources/maskTrios/BT2B.jpg","null","",NA,NA,NA,NA,""
"image-keyboard-response",263,213985,"0.0-4.83-2.83","ht9n4mlwdhvjl91",483,"94.csv","","null","resources/images/coin2.png","null","",NA,NA,NA,NA,""
"image-keyboard-response",264,214094,"0.0-4.84-0.84","ht9n4mlwdhvjl91",483,"94.csv","","105.09999990463257","resources/trios/L4T2A3.jpg","38","restless",0.1,0.7,0.6,0.0503829294836946,"true"
"image-keyboard-response",265,214498,"0.0-4.84-1.84","ht9n4mlwdhvjl91",483,"94.csv","","null","resources/maskTrios/BT2B.jpg","null","",NA,NA,NA,NA,""
"image-keyboard-response",266,215700,"0.0-4.84-2.84","ht9n4mlwdhvjl91",483,"94.csv","","null","resources/images/coin2.png","null","",NA,NA,NA,NA,""
"image-keyboard-response",267,215918,"0.0-4.85-0.85","ht9n4mlwdhvjl91",483,"94.csv","","214.10000014305115","resources/trios/L4T2A3.jpg","38","restless",0.1,0.7,0.6,0.970268881108766,"false"
"image-keyboard-response",268,216321,"0.0-4.85-1.85","ht9n4mlwdhvjl91",483,"94.csv","","null","resources/maskTrios/BT2B.jpg","null","",NA,NA,NA,NA,""
"image-keyboard-response",269,217525,"0.0-4.85-2.85","ht9n4mlwdhvjl91",483,"94.csv","","null","resources/images/fishbone.png","null","",NA,NA,NA,NA,""
"image-keyboard-response",270,217575,"0.0-4.86-0.86","ht9n4mlwdhvjl91",483,"94.csv","","46","resources/trios/L4T2A3.jpg","39","restless",0.1,0.7,0.6,0.797112958882409,"false"
"image-keyboard-response",271,217979,"0.0-4.86-1.86","ht9n4mlwdhvjl91",483,"94.csv","","null","resources/maskTrios/BBA3.jpg","null","",NA,NA,NA,NA,""
"image-keyboard-response",272,219181,"0.0-4.86-2.86","ht9n4mlwdhvjl91",483,"94.csv","","null","resources/images/fishbone.png","null","",NA,NA,NA,NA,""
"image-keyboard-response",273,219305,"0.0-4.87-0.87","ht9n4mlwdhvjl91",483,"94.csv","","120.5","resources/trios/L4T2A3.jpg","37","restless",0.1,0.7,0.6,0.0306426943168665,"true"
"image-keyboard-response",274,219708,"0.0-4.87-1.87","ht9n4mlwdhvjl91",483,"94.csv","","null","resources/maskTrios/L4BB.jpg","null","",NA,NA,NA,NA,""
"image-keyboard-response",275,220913,"0.0-4.87-2.87","ht9n4mlwdhvjl91",483,"94.csv","","null","resources/images/coin2.png","null","",NA,NA,NA,NA,""
"image-keyboard-response",276,221053,"0.0-4.88-0.88","ht9n4mlwdhvjl91",483,"94.csv","","136.29999995231628","resources/trios/L4T2A3.jpg","37","restless",0.1,0.7,0.6,0.0907480589333451,"true"
"image-keyboard-response",277,221456,"0.0-4.88-1.88","ht9n4mlwdhvjl91",483,"94.csv","","null","resources/maskTrios/L4BB.jpg","null","",NA,NA,NA,NA,""
"image-keyboard-response",278,222660,"0.0-4.88-2.88","ht9n4mlwdhvjl91",483,"94.csv","","null","resources/images/coin2.png","null","",NA,NA,NA,NA,""
"image-keyboard-response",279,222884,"0.0-4.89-0.89","ht9n4mlwdhvjl91",483,"94.csv","","220.90000009536743","resources/trios/L4T2A3.jpg","37","restless",0.1,0.7,0.6,0.000980688148287001,"true"
"image-keyboard-response",280,223288,"0.0-4.89-1.89","ht9n4mlwdhvjl91",483,"94.csv","","null","resources/maskTrios/L4BB.jpg","null","",NA,NA,NA,NA,""
"image-keyboard-response",281,224491,"0.0-4.89-2.89","ht9n4mlwdhvjl91",483,"94.csv","","null","resources/images/coin2.png","null","",NA,NA,NA,NA,""
"image-keyboard-response",282,224522,"0.0-4.90-0.90","ht9n4mlwdhvjl91",483,"94.csv","","29.100000143051147","resources/trios/L4T2A3.jpg","37","restless",0.1,0.7,0.6,0.785234254906386,"false"
"image-keyboard-response",283,224924,"0.0-4.90-1.90","ht9n4mlwdhvjl91",483,"94.csv","","null","resources/maskTrios/L4BB.jpg","null","",NA,NA,NA,NA,""
"image-keyboard-response",284,226128,"0.0-4.90-2.90","ht9n4mlwdhvjl91",483,"94.csv","","null","resources/images/fishbone.png","null","",NA,NA,NA,NA,""
"image-keyboard-response",285,226699,"0.0-4.91-0.91","ht9n4mlwdhvjl91",483,"94.csv","","567.4000000953674","resources/trios/L4T2A3.jpg","38","restless",0.1,0.7,0.6,0.219569860928666,"true"
"image-keyboard-response",286,227101,"0.0-4.91-1.91","ht9n4mlwdhvjl91",483,"94.csv","","null","resources/maskTrios/BT2B.jpg","null","",NA,NA,NA,NA,""
"image-keyboard-response",287,228305,"0.0-4.91-2.91","ht9n4mlwdhvjl91",483,"94.csv","","null","resources/images/coin2.png","null","",NA,NA,NA,NA,""
"image-keyboard-response",288,228382,"0.0-4.92-0.92","ht9n4mlwdhvjl91",483,"94.csv","","73","resources/trios/L4T2A3.jpg","38","restless",0.1,0.7,0.6,0.678350790629404,"true"
"image-keyboard-response",289,228785,"0.0-4.92-1.92","ht9n4mlwdhvjl91",483,"94.csv","","null","resources/maskTrios/BT2B.jpg","null","",NA,NA,NA,NA,""
"image-keyboard-response",290,229989,"0.0-4.92-2.92","ht9n4mlwdhvjl91",483,"94.csv","","null","resources/images/coin2.png","null","",NA,NA,NA,NA,""
"image-keyboard-response",291,230486,"0.0-4.93-0.93","ht9n4mlwdhvjl91",483,"94.csv","","494","resources/trios/L4T2A3.jpg","38","restless",0.1,0.6,0.6,0.85359573852012,"false"
"image-keyboard-response",292,230889,"0.0-4.93-1.93","ht9n4mlwdhvjl91",483,"94.csv","","null","resources/maskTrios/BT2B.jpg","null","",NA,NA,NA,NA,""
"image-keyboard-response",293,232092,"0.0-4.93-2.93","ht9n4mlwdhvjl91",483,"94.csv","","null","resources/images/fishbone.png","null","",NA,NA,NA,NA,""
"image-keyboard-response",294,232197,"0.0-4.94-0.94","ht9n4mlwdhvjl91",483,"94.csv","","100.5","resources/trios/L4T2A3.jpg","39","restless",0.1,0.6,0.6,0.406066265072836,"true"
"image-keyboard-response",295,232601,"0.0-4.94-1.94","ht9n4mlwdhvjl91",483,"94.csv","","null","resources/maskTrios/BBA3.jpg","null","",NA,NA,NA,NA,""
"image-keyboard-response",296,233806,"0.0-4.94-2.94","ht9n4mlwdhvjl91",483,"94.csv","","null","resources/images/coin2.png","null","",NA,NA,NA,NA,""
"image-keyboard-response",297,233855,"0.0-4.95-0.95","ht9n4mlwdhvjl91",483,"94.csv","","45.89999985694885","resources/trios/L4T2A3.jpg","39","restless",0.1,0.6,0.6,0.374904120548138,"true"
"image-keyboard-response",298,234259,"0.0-4.95-1.95","ht9n4mlwdhvjl91",483,"94.csv","","null","resources/maskTrios/BBA3.jpg","null","",NA,NA,NA,NA,""
"image-keyboard-response",299,235464,"0.0-4.95-2.95","ht9n4mlwdhvjl91",483,"94.csv","","null","resources/images/coin2.png","null","",NA,NA,NA,NA,""
"image-keyboard-response",300,235610,"0.0-4.96-0.96","ht9n4mlwdhvjl91",483,"94.csv","","142.5","resources/trios/L4T2A3.jpg","39","restless",0.1,0.6,0.6,0.0259270040559976,"true"
"image-keyboard-response",301,236013,"0.0-4.96-1.96","ht9n4mlwdhvjl91",483,"94.csv","","null","resources/maskTrios/BBA3.jpg","null","",NA,NA,NA,NA,""
"image-keyboard-response",302,237217,"0.0-4.96-2.96","ht9n4mlwdhvjl91",483,"94.csv","","null","resources/images/coin2.png","null","",NA,NA,NA,NA,""
"image-keyboard-response",303,237326,"0.0-4.97-0.97","ht9n4mlwdhvjl91",483,"94.csv","","105.60000014305115","resources/trios/L4T2A3.jpg","39","restless",0.1,0.5,0.6,0.605349710506449,"false"
"image-keyboard-response",304,237730,"0.0-4.97-1.97","ht9n4mlwdhvjl91",483,"94.csv","","null","resources/maskTrios/BBA3.jpg","null","",NA,NA,NA,NA,""
"image-keyboard-response",305,238932,"0.0-4.97-2.97","ht9n4mlwdhvjl91",483,"94.csv","","null","resources/images/fishbone.png","null","",NA,NA,NA,NA,""
"image-keyboard-response",306,238973,"0.0-4.98-0.98","ht9n4mlwdhvjl91",483,"94.csv","","37.40000009536743","resources/trios/L4T2A3.jpg","37","restless",0.1,0.5,0.5,0.84357665804494,"false"
"image-keyboard-response",307,239375,"0.0-4.98-1.98","ht9n4mlwdhvjl91",483,"94.csv","","null","resources/maskTrios/L4BB.jpg","null","",NA,NA,NA,NA,""
"image-keyboard-response",308,240577,"0.0-4.98-2.98","ht9n4mlwdhvjl91",483,"94.csv","","null","resources/images/fishbone.png","null","",NA,NA,NA,NA,""
"image-keyboard-response",309,240665,"0.0-4.99-0.99","ht9n4mlwdhvjl91",483,"94.csv","","84","resources/trios/L4T2A3.jpg","38","restless",0.1,0.5,0.6,0.612241026346976,"false"
"image-keyboard-response",310,241068,"0.0-4.99-1.99","ht9n4mlwdhvjl91",483,"94.csv","","null","resources/maskTrios/BT2B.jpg","null","",NA,NA,NA,NA,""
"image-keyboard-response",311,242272,"0.0-4.99-2.99","ht9n4mlwdhvjl91",483,"94.csv","","null","resources/images/fishbone.png","null","",NA,NA,NA,NA,""
"image-keyboard-response",312,242540,"0.0-4.100-0.100","ht9n4mlwdhvjl91",483,"94.csv","","265.2000000476837","resources/trios/L4T2A3.jpg","38","restless",0.1,0.5,0.5,0.116428418838102,"true"
"image-keyboard-response",313,242944,"0.0-4.100-1.100","ht9n4mlwdhvjl91",483,"94.csv","","null","resources/maskTrios/BT2B.jpg","null","",NA,NA,NA,NA,""
"image-keyboard-response",314,244148,"0.0-4.100-2.100","ht9n4mlwdhvjl91",483,"94.csv","","null","resources/images/coin2.png","null","",NA,NA,NA,NA,""
"image-keyboard-response",315,244427,"0.0-4.101-0.101","ht9n4mlwdhvjl91",483,"94.csv","","275.5","resources/trios/L4T2A3.jpg","38","restless",0.1,0.5,0.5,0.439736861728123,"true"
"image-keyboard-response",316,244829,"0.0-4.101-1.101","ht9n4mlwdhvjl91",483,"94.csv","","null","resources/maskTrios/BT2B.jpg","null","",NA,NA,NA,NA,""
"image-keyboard-response",317,246034,"0.0-4.101-2.101","ht9n4mlwdhvjl91",483,"94.csv","","null","resources/images/coin2.png","null","",NA,NA,NA,NA,""
"image-keyboard-response",318,246135,"0.0-4.102-0.102","ht9n4mlwdhvjl91",483,"94.csv","","97.20000004768372","resources/trios/L4T2A3.jpg","38","restless",0.1,0.5,0.6,0.578137753114834,"false"
"image-keyboard-response",319,246538,"0.0-4.102-1.102","ht9n4mlwdhvjl91",483,"94.csv","","null","resources/maskTrios/BT2B.jpg","null","",NA,NA,NA,NA,""
"image-keyboard-response",320,247742,"0.0-4.102-2.102","ht9n4mlwdhvjl91",483,"94.csv","","null","resources/images/fishbone.png","null","",NA,NA,NA,NA,""
"image-keyboard-response",321,247786,"0.0-4.103-0.103","ht9n4mlwdhvjl91",483,"94.csv","","40.40000009536743","resources/trios/L4T2A3.jpg","39","restless",0.1,0.5,0.6,0.231191033632826,"true"
"image-keyboard-response",322,248189,"0.0-4.103-1.103","ht9n4mlwdhvjl91",483,"94.csv","","null","resources/maskTrios/BBA3.jpg","null","",NA,NA,NA,NA,""
"image-keyboard-response",323,249393,"0.0-4.103-2.103","ht9n4mlwdhvjl91",483,"94.csv","","null","resources/images/coin2.png","null","",NA,NA,NA,NA,""
"image-keyboard-response",324,249666,"0.0-4.104-0.104","ht9n4mlwdhvjl91",483,"94.csv","","269.2000000476837","resources/trios/L4T2A3.jpg","39","restless",0.1,0.5,0.6,0.743536252524186,"false"
"image-keyboard-response",325,250069,"0.0-4.104-1.104","ht9n4mlwdhvjl91",483,"94.csv","","null","resources/maskTrios/BBA3.jpg","null","",NA,NA,NA,NA,""
"image-keyboard-response",326,251272,"0.0-4.104-2.104","ht9n4mlwdhvjl91",483,"94.csv","","null","resources/images/fishbone.png","null","",NA,NA,NA,NA,""
"image-keyboard-response",327,251473,"0.0-4.105-0.105","ht9n4mlwdhvjl91",483,"94.csv","","199.19999980926514","resources/trios/L4T2A3.jpg","37","restless",0.2,0.5,0.6,0.664583148254555,"false"
"image-keyboard-response",328,251875,"0.0-4.105-1.105","ht9n4mlwdhvjl91",483,"94.csv","","null","resources/maskTrios/L4BB.jpg","null","",NA,NA,NA,NA,""
"image-keyboard-response",329,253079,"0.0-4.105-2.105","ht9n4mlwdhvjl91",483,"94.csv","","null","resources/images/fishbone.png","null","",NA,NA,NA,NA,""
"image-keyboard-response",330,253309,"0.0-4.106-0.106","ht9n4mlwdhvjl91",483,"94.csv","","227","resources/trios/L4T2A3.jpg","37","restless",0.2,0.5,0.6,0.0488718950850111,"true"
"image-keyboard-response",331,253712,"0.0-4.106-1.106","ht9n4mlwdhvjl91",483,"94.csv","","null","resources/maskTrios/L4BB.jpg","null","",NA,NA,NA,NA,""
"image-keyboard-response",332,254916,"0.0-4.106-2.106","ht9n4mlwdhvjl91",483,"94.csv","","null","resources/images/coin2.png","null","",NA,NA,NA,NA,""
"image-keyboard-response",333,255245,"0.0-4.107-0.107","ht9n4mlwdhvjl91",483,"94.csv","","325.7999999523163","resources/trios/L4T2A3.jpg","37","restless",0.3,0.5,0.6,0.619953053009275,"false"
"image-keyboard-response",334,255651,"0.0-4.107-1.107","ht9n4mlwdhvjl91",483,"94.csv","","null","resources/maskTrios/L4BB.jpg","null","",NA,NA,NA,NA,""
"image-keyboard-response",335,256854,"0.0-4.107-2.107","ht9n4mlwdhvjl91",483,"94.csv","","null","resources/images/fishbone.png","null","",NA,NA,NA,NA,""
"image-keyboard-response",336,256920,"0.0-4.108-0.108","ht9n4mlwdhvjl91",483,"94.csv","","62.39999985694885","resources/trios/L4T2A3.jpg","38","restless",0.3,0.5,0.6,0.355663717718009,"true"
"image-keyboard-response",337,257324,"0.0-4.108-1.108","ht9n4mlwdhvjl91",483,"94.csv","","null","resources/maskTrios/BT2B.jpg","null","",NA,NA,NA,NA,""
"image-keyboard-response",338,258527,"0.0-4.108-2.108","ht9n4mlwdhvjl91",483,"94.csv","","null","resources/images/coin2.png","null","",NA,NA,NA,NA,""
"image-keyboard-response",339,258959,"0.0-4.109-0.109","ht9n4mlwdhvjl91",483,"94.csv","","430.60000014305115","resources/trios/L4T2A3.jpg","38","restless",0.3,0.5,0.6,0.380249420192385,"true"
"image-keyboard-response",340,259362,"0.0-4.109-1.109","ht9n4mlwdhvjl91",483,"94.csv","","null","resources/maskTrios/BT2B.jpg","null","",NA,NA,NA,NA,""
"image-keyboard-response",341,260567,"0.0-4.109-2.109","ht9n4mlwdhvjl91",483,"94.csv","","null","resources/images/coin2.png","null","",NA,NA,NA,NA,""
"image-keyboard-response",342,260631,"0.0-4.110-0.110","ht9n4mlwdhvjl91",483,"94.csv","","61.10000014305115","resources/trios/L4T2A3.jpg","38","restless",0.2,0.5,0.6,0.546177057661258,"false"
"image-keyboard-response",343,261035,"0.0-4.110-1.110","ht9n4mlwdhvjl91",483,"94.csv","","null","resources/maskTrios/BT2B.jpg","null","",NA,NA,NA,NA,""
"image-keyboard-response",344,262237,"0.0-4.110-2.110","ht9n4mlwdhvjl91",483,"94.csv","","null","resources/images/fishbone.png","null","",NA,NA,NA,NA,""
"image-keyboard-response",345,262417,"0.0-4.111-0.111","ht9n4mlwdhvjl91",483,"94.csv","","177.19999980926514","resources/trios/L4T2A3.jpg","39","restless",0.2,0.5,0.6,0.275331151440856,"true"
"image-keyboard-response",346,262819,"0.0-4.111-1.111","ht9n4mlwdhvjl91",483,"94.csv","","null","resources/maskTrios/BBA3.jpg","null","",NA,NA,NA,NA,""
"image-keyboard-response",347,264023,"0.0-4.111-2.111","ht9n4mlwdhvjl91",483,"94.csv","","null","resources/images/coin2.png","null","",NA,NA,NA,NA,""
"image-keyboard-response",348,264213,"0.0-4.112-0.112","ht9n4mlwdhvjl91",483,"94.csv","","186.69999980926514","resources/trios/L4T2A3.jpg","39","restless",0.2,0.5,0.6,0.788862816045978,"false"
"image-keyboard-response",349,264616,"0.0-4.112-1.112","ht9n4mlwdhvjl91",483,"94.csv","","null","resources/maskTrios/BBA3.jpg","null","",NA,NA,NA,NA,""
"image-keyboard-response",350,265820,"0.0-4.112-2.112","ht9n4mlwdhvjl91",483,"94.csv","","null","resources/images/fishbone.png","null","",NA,NA,NA,NA,""
"image-keyboard-response",351,265918,"0.0-4.113-0.113","ht9n4mlwdhvjl91",483,"94.csv","","94.89999985694885","resources/trios/L4T2A3.jpg","37","restless",0.2,0.5,0.6,0.0591281107701391,"true"
"image-keyboard-response",352,266322,"0.0-4.113-1.113","ht9n4mlwdhvjl91",483,"94.csv","","null","resources/maskTrios/L4BB.jpg","null","",NA,NA,NA,NA,""
"image-keyboard-response",353,267526,"0.0-4.113-2.113","ht9n4mlwdhvjl91",483,"94.csv","","null","resources/images/coin2.png","null","",NA,NA,NA,NA,""
"image-keyboard-response",354,267579,"0.0-4.114-0.114","ht9n4mlwdhvjl91",483,"94.csv","","51.39999985694885","resources/trios/L4T2A3.jpg","37","restless",0.2,0.5,0.7,0.093105448581329,"true"
"image-keyboard-response",355,267982,"0.0-4.114-1.114","ht9n4mlwdhvjl91",483,"94.csv","","null","resources/maskTrios/L4BB.jpg","null","",NA,NA,NA,NA,""
"image-keyboard-response",356,269185,"0.0-4.114-2.114","ht9n4mlwdhvjl91",483,"94.csv","","null","resources/images/coin2.png","null","",NA,NA,NA,NA,""
"image-keyboard-response",357,269357,"0.0-4.115-0.115","ht9n4mlwdhvjl91",483,"94.csv","","170.20000004768372","resources/trios/L4T2A3.jpg","37","restless",0.2,0.5,0.6,0.769287607477744,"false"
"image-keyboard-response",358,269762,"0.0-4.115-1.115","ht9n4mlwdhvjl91",483,"94.csv","","null","resources/maskTrios/L4BB.jpg","null","",NA,NA,NA,NA,""
"image-keyboard-response",359,270965,"0.0-4.115-2.115","ht9n4mlwdhvjl91",483,"94.csv","","null","resources/images/fishbone.png","null","",NA,NA,NA,NA,""
"image-keyboard-response",360,271045,"0.0-4.116-0.116","ht9n4mlwdhvjl91",483,"94.csv","","77","resources/trios/L4T2A3.jpg","38","restless",0.3,0.5,0.6,0.616823083757854,"false"
"image-keyboard-response",361,271448,"0.0-4.116-1.116","ht9n4mlwdhvjl91",483,"94.csv","","null","resources/maskTrios/BT2B.jpg","null","",NA,NA,NA,NA,""
"image-keyboard-response",362,272652,"0.0-4.116-2.116","ht9n4mlwdhvjl91",483,"94.csv","","null","resources/images/fishbone.png","null","",NA,NA,NA,NA,""
"image-keyboard-response",363,272818,"0.0-4.117-0.117","ht9n4mlwdhvjl91",483,"94.csv","","162.69999980926514","resources/trios/L4T2A3.jpg","38","restless",0.4,0.5,0.6,0.16631053423997,"true"
"image-keyboard-response",364,273223,"0.0-4.117-1.117","ht9n4mlwdhvjl91",483,"94.csv","","null","resources/maskTrios/BT2B.jpg","null","",NA,NA,NA,NA,""
"image-keyboard-response",365,274426,"0.0-4.117-2.117","ht9n4mlwdhvjl91",483,"94.csv","","null","resources/images/coin2.png","null","",NA,NA,NA,NA,""
"image-keyboard-response",366,274430,"0.0-4.118-0.118","ht9n4mlwdhvjl91",483,"94.csv","","0.6000001430511475","resources/trios/L4T2A3.jpg","38","restless",0.4,0.4,0.6,0.34838369185985,"true"
"image-keyboard-response",367,274832,"0.0-4.118-1.118","ht9n4mlwdhvjl91",483,"94.csv","","null","resources/maskTrios/BT2B.jpg","null","",NA,NA,NA,NA,""
"image-keyboard-response",368,276037,"0.0-4.118-2.118","ht9n4mlwdhvjl91",483,"94.csv","","null","resources/images/coin2.png","null","",NA,NA,NA,NA,""
"image-keyboard-response",369,276042,"0.0-4.119-0.119","ht9n4mlwdhvjl91",483,"94.csv","","2.1000001430511475","resources/trios/L4T2A3.jpg","38","restless",0.4,0.4,0.6,0.587417757450798,"false"
"image-keyboard-response",370,276445,"0.0-4.119-1.119","ht9n4mlwdhvjl91",483,"94.csv","","null","resources/maskTrios/BT2B.jpg","null","",NA,NA,NA,NA,""
"image-keyboard-response",371,277647,"0.0-4.119-2.119","ht9n4mlwdhvjl91",483,"94.csv","","null","resources/images/fishbone.png","null","",NA,NA,NA,NA,""
"image-keyboard-response",372,277747,"0.0-4.120-0.120","ht9n4mlwdhvjl91",483,"94.csv","","96","resources/trios/L4T2A3.jpg","39","restless",0.4,0.4,0.6,0.269902194220264,"true"
"image-keyboard-response",373,278150,"0.0-4.120-1.120","ht9n4mlwdhvjl91",483,"94.csv","","null","resources/maskTrios/BBA3.jpg","null","",NA,NA,NA,NA,""
"image-keyboard-response",374,279355,"0.0-4.120-2.120","ht9n4mlwdhvjl91",483,"94.csv","","null","resources/images/coin2.png","null","",NA,NA,NA,NA,""
"image-keyboard-response",375,279574,"0.0-4.121-0.121","ht9n4mlwdhvjl91",483,"94.csv","","216.39999985694885","resources/trios/L4T2A3.jpg","39","restless",0.4,0.4,0.7,0.84312198652137,"false"
"image-keyboard-response",376,279976,"0.0-4.121-1.121","ht9n4mlwdhvjl91",483,"94.csv","","null","resources/maskTrios/BBA3.jpg","null","",NA,NA,NA,NA,""
"image-keyboard-response",377,281180,"0.0-4.121-2.121","ht9n4mlwdhvjl91",483,"94.csv","","null","resources/images/fishbone.png","null","",NA,NA,NA,NA,""
"image-keyboard-response",378,281273,"0.0-4.122-0.122","ht9n4mlwdhvjl91",483,"94.csv","","88.70000004768372","resources/trios/L4T2A3.jpg","37","restless",0.4,0.4,0.8,0.514998035173039,"false"
"image-keyboard-response",379,281677,"0.0-4.122-1.122","ht9n4mlwdhvjl91",483,"94.csv","","null","resources/maskTrios/L4BB.jpg","null","",NA,NA,NA,NA,""
"image-keyboard-response",380,282880,"0.0-4.122-2.122","ht9n4mlwdhvjl91",483,"94.csv","","null","resources/images/fishbone.png","null","",NA,NA,NA,NA,""
"image-keyboard-response",381,291617,"0.0-4.123-0.123","ht9n4mlwdhvjl91",483,"94.csv","","8734.5","resources/trios/L4T2A3.jpg","38","restless",0.4,0.4,0.8,0.522443185406116,"false"
"image-keyboard-response",382,292021,"0.0-4.123-1.123","ht9n4mlwdhvjl91",483,"94.csv","","null","resources/maskTrios/BT2B.jpg","null","",NA,NA,NA,NA,""
"image-keyboard-response",383,293225,"0.0-4.123-2.123","ht9n4mlwdhvjl91",483,"94.csv","","null","resources/images/fishbone.png","null","",NA,NA,NA,NA,""
"image-keyboard-response",384,293304,"0.0-4.124-0.124","ht9n4mlwdhvjl91",483,"94.csv","","75","resources/trios/L4T2A3.jpg","38","restless",0.4,0.4,0.8,0.518281104352205,"false"
"image-keyboard-response",385,293707,"0.0-4.124-1.124","ht9n4mlwdhvjl91",483,"94.csv","","null","resources/maskTrios/BT2B.jpg","null","",NA,NA,NA,NA,""
"image-keyboard-response",386,294911,"0.0-4.124-2.124","ht9n4mlwdhvjl91",483,"94.csv","","null","resources/images/fishbone.png","null","",NA,NA,NA,NA,""
"image-keyboard-response",387,294969,"0.0-4.125-0.125","ht9n4mlwdhvjl91",483,"94.csv","","54.59999990463257","resources/trios/L4T2A3.jpg","39","restless",0.4,0.4,0.8,0.8280489837685,"false"
"image-keyboard-response",388,295373,"0.0-4.125-1.125","ht9n4mlwdhvjl91",483,"94.csv","","null","resources/maskTrios/BBA3.jpg","null","",NA,NA,NA,NA,""
"image-keyboard-response",389,296577,"0.0-4.125-2.125","ht9n4mlwdhvjl91",483,"94.csv","","null","resources/images/fishbone.png","null","",NA,NA,NA,NA,""
"image-keyboard-response",390,296621,"0.0-4.126-0.126","ht9n4mlwdhvjl91",483,"94.csv","","40.700000047683716","resources/trios/L4T2A3.jpg","37","restless",0.4,0.4,0.8,0.364577933845745,"true"
"image-keyboard-response",391,297024,"0.0-4.126-1.126","ht9n4mlwdhvjl91",483,"94.csv","","null","resources/maskTrios/L4BB.jpg","null","",NA,NA,NA,NA,""
"image-keyboard-response",392,298228,"0.0-4.126-2.126","ht9n4mlwdhvjl91",483,"94.csv","","null","resources/images/coin2.png","null","",NA,NA,NA,NA,""
"image-keyboard-response",393,298264,"0.0-4.127-0.127","ht9n4mlwdhvjl91",483,"94.csv","","32.59999990463257","resources/trios/L4T2A3.jpg","37","restless",0.4,0.4,0.8,0.88736580352913,"false"
"image-keyboard-response",394,298668,"0.0-4.127-1.127","ht9n4mlwdhvjl91",483,"94.csv","","null","resources/maskTrios/L4BB.jpg","null","",NA,NA,NA,NA,""
"image-keyboard-response",395,299872,"0.0-4.127-2.127","ht9n4mlwdhvjl91",483,"94.csv","","null","resources/images/fishbone.png","null","",NA,NA,NA,NA,""
"image-keyboard-response",396,299930,"0.0-4.128-0.128","ht9n4mlwdhvjl91",483,"94.csv","","54.5","resources/trios/L4T2A3.jpg","38","restless",0.4,0.4,0.8,0.508525462929564,"false"
"image-keyboard-response",397,300334,"0.0-4.128-1.128","ht9n4mlwdhvjl91",483,"94.csv","","null","resources/maskTrios/BT2B.jpg","null","",NA,NA,NA,NA,""
"image-keyboard-response",398,301537,"0.0-4.128-2.128","ht9n4mlwdhvjl91",483,"94.csv","","null","resources/images/fishbone.png","null","",NA,NA,NA,NA,""
"image-keyboard-response",399,301686,"0.0-4.129-0.129","ht9n4mlwdhvjl91",483,"94.csv","","146.20000004768372","resources/trios/L4T2A3.jpg","38","restless",0.4,0.4,0.8,0.972792757360722,"false"
"image-keyboard-response",400,302090,"0.0-4.129-1.129","ht9n4mlwdhvjl91",483,"94.csv","","null","resources/maskTrios/BT2B.jpg","null","",NA,NA,NA,NA,""
"image-keyboard-response",401,303295,"0.0-4.129-2.129","ht9n4mlwdhvjl91",483,"94.csv","","null","resources/images/fishbone.png","null","",NA,NA,NA,NA,""
"image-keyboard-response",402,303411,"0.0-4.130-0.130","ht9n4mlwdhvjl91",483,"94.csv","","111.59999990463257","resources/trios/L4T2A3.jpg","39","restless",0.4,0.4,0.8,0.19144943243048,"true"
"image-keyboard-response",403,303812,"0.0-4.130-1.130","ht9n4mlwdhvjl91",483,"94.csv","","null","resources/maskTrios/BBA3.jpg","null","",NA,NA,NA,NA,""
"image-keyboard-response",404,305015,"0.0-4.130-2.130","ht9n4mlwdhvjl91",483,"94.csv","","null","resources/images/coin2.png","null","",NA,NA,NA,NA,""
"image-keyboard-response",405,305151,"0.0-4.131-0.131","ht9n4mlwdhvjl91",483,"94.csv","","134.5","resources/trios/L4T2A3.jpg","39","restless",0.4,0.5,0.8,0.0273373848301313,"true"
"image-keyboard-response",406,305555,"0.0-4.131-1.131","ht9n4mlwdhvjl91",483,"94.csv","","null","resources/maskTrios/BBA3.jpg","null","",NA,NA,NA,NA,""
"image-keyboard-response",407,306760,"0.0-4.131-2.131","ht9n4mlwdhvjl91",483,"94.csv","","null","resources/images/coin2.png","null","",NA,NA,NA,NA,""
"image-keyboard-response",408,306987,"0.0-4.132-0.132","ht9n4mlwdhvjl91",483,"94.csv","","225.39999985694885","resources/trios/L4T2A3.jpg","39","restless",0.4,0.5,0.8,0.256120428105629,"true"
"image-keyboard-response",409,307389,"0.0-4.132-1.132","ht9n4mlwdhvjl91",483,"94.csv","","null","resources/maskTrios/BBA3.jpg","null","",NA,NA,NA,NA,""
"image-keyboard-response",410,308592,"0.0-4.132-2.132","ht9n4mlwdhvjl91",483,"94.csv","","null","resources/images/coin2.png","null","",NA,NA,NA,NA,""
"image-keyboard-response",411,308677,"0.0-4.133-0.133","ht9n4mlwdhvjl91",483,"94.csv","","83.79999995231628","resources/trios/L4T2A3.jpg","39","restless",0.4,0.5,0.8,0.50198346272385,"true"
"image-keyboard-response",412,309080,"0.0-4.133-1.133","ht9n4mlwdhvjl91",483,"94.csv","","null","resources/maskTrios/BBA3.jpg","null","",NA,NA,NA,NA,""
"image-keyboard-response",413,310282,"0.0-4.133-2.133","ht9n4mlwdhvjl91",483,"94.csv","","null","resources/images/coin2.png","null","",NA,NA,NA,NA,""
"image-keyboard-response",414,310382,"0.0-4.134-0.134","ht9n4mlwdhvjl91",483,"94.csv","","96.40000009536743","resources/trios/L4T2A3.jpg","39","restless",0.3,0.4,0.8,0.450116878325198,"true"
"image-keyboard-response",415,310784,"0.0-4.134-1.134","ht9n4mlwdhvjl91",483,"94.csv","","null","resources/maskTrios/BBA3.jpg","null","",NA,NA,NA,NA,""
"image-keyboard-response",416,311987,"0.0-4.134-2.134","ht9n4mlwdhvjl91",483,"94.csv","","null","resources/images/coin2.png","null","",NA,NA,NA,NA,""
"image-keyboard-response",417,312108,"0.0-4.135-0.135","ht9n4mlwdhvjl91",483,"94.csv","","116.70000004768372","resources/trios/L4T2A3.jpg","39","restless",0.3,0.4,0.8,0.522512776426706,"true"
"image-keyboard-response",418,312512,"0.0-4.135-1.135","ht9n4mlwdhvjl91",483,"94.csv","","null","resources/maskTrios/BBA3.jpg","null","",NA,NA,NA,NA,""
"image-keyboard-response",419,313716,"0.0-4.135-2.135","ht9n4mlwdhvjl91",483,"94.csv","","null","resources/images/coin2.png","null","",NA,NA,NA,NA,""
"image-keyboard-response",420,314111,"0.0-4.136-0.136","ht9n4mlwdhvjl91",483,"94.csv","","390.60000014305115","resources/trios/L4T2A3.jpg","39","restless",0.3,0.4,0.8,0.451714522117229,"true"
"image-keyboard-response",421,314514,"0.0-4.136-1.136","ht9n4mlwdhvjl91",483,"94.csv","","null","resources/maskTrios/BBA3.jpg","null","",NA,NA,NA,NA,""
"image-keyboard-response",422,315719,"0.0-4.136-2.136","ht9n4mlwdhvjl91",483,"94.csv","","null","resources/images/coin2.png","null","",NA,NA,NA,NA,""
"image-keyboard-response",423,316427,"0.0-4.137-0.137","ht9n4mlwdhvjl91",483,"94.csv","","704.9000000953674","resources/trios/L4T2A3.jpg","39","restless",0.3,0.4,0.8,0.361351851200842,"true"
"image-keyboard-response",424,316832,"0.0-4.137-1.137","ht9n4mlwdhvjl91",483,"94.csv","","null","resources/maskTrios/BBA3.jpg","null","",NA,NA,NA,NA,""
"image-keyboard-response",425,318036,"0.0-4.137-2.137","ht9n4mlwdhvjl91",483,"94.csv","","null","resources/images/coin2.png","null","",NA,NA,NA,NA,""
"image-keyboard-response",426,318217,"0.0-4.138-0.138","ht9n4mlwdhvjl91",483,"94.csv","","177.09999990463257","resources/trios/L4T2A3.jpg","39","restless",0.3,0.4,0.8,0.266308031215841,"true"
"image-keyboard-response",427,318620,"0.0-4.138-1.138","ht9n4mlwdhvjl91",483,"94.csv","","null","resources/maskTrios/BBA3.jpg","null","",NA,NA,NA,NA,""
"image-keyboard-response",428,319823,"0.0-4.138-2.138","ht9n4mlwdhvjl91",483,"94.csv","","null","resources/images/coin2.png","null","",NA,NA,NA,NA,""
"image-keyboard-response",429,320114,"0.0-4.139-0.139","ht9n4mlwdhvjl91",483,"94.csv","","289.30000019073486","resources/trios/L4T2A3.jpg","39","restless",0.3,0.4,0.8,0.12108159656112,"true"
"image-keyboard-response",430,320517,"0.0-4.139-1.139","ht9n4mlwdhvjl91",483,"94.csv","","null","resources/maskTrios/BBA3.jpg","null","",NA,NA,NA,NA,""
"image-keyboard-response",431,321721,"0.0-4.139-2.139","ht9n4mlwdhvjl91",483,"94.csv","","null","resources/images/coin2.png","null","",NA,NA,NA,NA,""
"image-keyboard-response",432,321800,"0.0-4.140-0.140","ht9n4mlwdhvjl91",483,"94.csv","","75.59999990463257","resources/trios/L4T2A3.jpg","39","restless",0.3,0.4,0.8,0.206158455883304,"true"
"image-keyboard-response",433,322204,"0.0-4.140-1.140","ht9n4mlwdhvjl91",483,"94.csv","","null","resources/maskTrios/BBA3.jpg","null","",NA,NA,NA,NA,""
"image-keyboard-response",434,323408,"0.0-4.140-2.140","ht9n4mlwdhvjl91",483,"94.csv","","null","resources/images/coin2.png","null","",NA,NA,NA,NA,""
"image-keyboard-response",435,323586,"0.0-4.141-0.141","ht9n4mlwdhvjl91",483,"94.csv","","174.29999995231628","resources/trios/L4T2A3.jpg","39","restless",0.3,0.4,0.8,0.444348876141281,"true"
"image-keyboard-response",436,323990,"0.0-4.141-1.141","ht9n4mlwdhvjl91",483,"94.csv","","null","resources/maskTrios/BBA3.jpg","null","",NA,NA,NA,NA,""
"image-keyboard-response",437,325194,"0.0-4.141-2.141","ht9n4mlwdhvjl91",483,"94.csv","","null","resources/images/coin2.png","null","",NA,NA,NA,NA,""
"image-keyboard-response",438,325196,"0.0-4.142-0.142","ht9n4mlwdhvjl91",483,"94.csv","","0.20000004768371582","resources/trios/L4T2A3.jpg","39","restless",0.3,0.4,0.8,0.122173946180203,"true"
"image-keyboard-response",439,325599,"0.0-4.142-1.142","ht9n4mlwdhvjl91",483,"94.csv","","null","resources/maskTrios/BBA3.jpg","null","",NA,NA,NA,NA,""
"image-keyboard-response",440,326800,"0.0-4.142-2.142","ht9n4mlwdhvjl91",483,"94.csv","","null","resources/images/coin2.png","null","",NA,NA,NA,NA,""
"image-keyboard-response",441,326833,"0.0-4.143-0.143","ht9n4mlwdhvjl91",483,"94.csv","","31.09999990463257","resources/trios/L4T2A3.jpg","39","restless",0.3,0.4,0.8,0.149212035581077,"true"
"image-keyboard-response",442,327235,"0.0-4.143-1.143","ht9n4mlwdhvjl91",483,"94.csv","","null","resources/maskTrios/BBA3.jpg","null","",NA,NA,NA,NA,""
"image-keyboard-response",443,328440,"0.0-4.143-2.143","ht9n4mlwdhvjl91",483,"94.csv","","null","resources/images/coin2.png","null","",NA,NA,NA,NA,""
"image-keyboard-response",444,328445,"0.0-4.144-0.144","ht9n4mlwdhvjl91",483,"94.csv","","2.9000000953674316","resources/trios/L4T2A3.jpg","39","restless",0.3,0.4,0.7,0.914059860248108,"false"
"image-keyboard-response",445,328848,"0.0-4.144-1.144","ht9n4mlwdhvjl91",483,"94.csv","","null","resources/maskTrios/BBA3.jpg","null","",NA,NA,NA,NA,""
"image-keyboard-response",446,330052,"0.0-4.144-2.144","ht9n4mlwdhvjl91",483,"94.csv","","null","resources/images/fishbone.png","null","",NA,NA,NA,NA,""
"image-keyboard-response",447,330116,"0.0-4.145-0.145","ht9n4mlwdhvjl91",483,"94.csv","","59.40000009536743","resources/trios/L4T2A3.jpg","38","restless",0.3,0.4,0.6,0.897756033103909,"false"
"image-keyboard-response",448,330519,"0.0-4.145-1.145","ht9n4mlwdhvjl91",483,"94.csv","","null","resources/maskTrios/BT2B.jpg","null","",NA,NA,NA,NA,""
"image-keyboard-response",449,331723,"0.0-4.145-2.145","ht9n4mlwdhvjl91",483,"94.csv","","null","resources/images/fishbone.png","null","",NA,NA,NA,NA,""
"image-keyboard-response",450,332424,"0.0-4.146-0.146","ht9n4mlwdhvjl91",483,"94.csv","","697.8999998569489","resources/trios/L4T2A3.jpg","38","restless",0.3,0.4,0.6,0.913623491579723,"false"
"image-keyboard-response",451,332829,"0.0-4.146-1.146","ht9n4mlwdhvjl91",483,"94.csv","","null","resources/maskTrios/BT2B.jpg","null","",NA,NA,NA,NA,""
"image-keyboard-response",452,334033,"0.0-4.146-2.146","ht9n4mlwdhvjl91",483,"94.csv","","null","resources/images/fishbone.png","null","",NA,NA,NA,NA,""
"image-keyboard-response",453,334511,"0.0-4.147-0.147","ht9n4mlwdhvjl91",483,"94.csv","","473.60000014305115","resources/trios/L4T2A3.jpg","37","restless",0.4,0.4,0.6,0.993070686821273,"false"
"image-keyboard-response",454,334914,"0.0-4.147-1.147","ht9n4mlwdhvjl91",483,"94.csv","","null","resources/maskTrios/L4BB.jpg","null","",NA,NA,NA,NA,""
"image-keyboard-response",455,336118,"0.0-4.147-2.147","ht9n4mlwdhvjl91",483,"94.csv","","null","resources/images/fishbone.png","null","",NA,NA,NA,NA,""
"image-keyboard-response",456,336187,"0.0-4.148-0.148","ht9n4mlwdhvjl91",483,"94.csv","","64.5","resources/trios/L4T2A3.jpg","38","restless",0.4,0.4,0.6,0.134883034546328,"true"
"image-keyboard-response",457,336590,"0.0-4.148-1.148","ht9n4mlwdhvjl91",483,"94.csv","","null","resources/maskTrios/BT2B.jpg","null","",NA,NA,NA,NA,""
"image-keyboard-response",458,337794,"0.0-4.148-2.148","ht9n4mlwdhvjl91",483,"94.csv","","null","resources/images/coin2.png","null","",NA,NA,NA,NA,""
"image-keyboard-response",459,337895,"0.0-4.149-0.149","ht9n4mlwdhvjl91",483,"94.csv","","98.19999980926514","resources/trios/L4T2A3.jpg","38","restless",0.4,0.4,0.6,0.00142215241062615,"true"
"image-keyboard-response",460,338298,"0.0-4.149-1.149","ht9n4mlwdhvjl91",483,"94.csv","","null","resources/maskTrios/BT2B.jpg","null","",NA,NA,NA,NA,""
"image-keyboard-response",461,339502,"0.0-4.149-2.149","ht9n4mlwdhvjl91",483,"94.csv","","null","resources/images/coin2.png","null","",NA,NA,NA,NA,""
"image-keyboard-response",462,339999,"0.0-4.150-0.150","ht9n4mlwdhvjl91",483,"94.csv","","495.69999980926514","resources/trios/L4T2A3.jpg","38","restless",0.4,0.4,0.6,0.260470613530658,"true"
"image-keyboard-response",463,340402,"0.0-4.150-1.150","ht9n4mlwdhvjl91",483,"94.csv","","null","resources/maskTrios/BT2B.jpg","null","",NA,NA,NA,NA,""
"image-keyboard-response",464,341605,"0.0-4.150-2.150","ht9n4mlwdhvjl91",483,"94.csv","","null","resources/images/coin2.png","null","",NA,NA,NA,NA,""
"image-keyboard-response",465,341803,"0.0-4.151-0.151","ht9n4mlwdhvjl91",483,"94.csv","","194.89999985694885","resources/trios/L4T2A3.jpg","38","restless",0.4,0.4,0.6,0.699044664363501,"false"
"image-keyboard-response",466,342206,"0.0-4.151-1.151","ht9n4mlwdhvjl91",483,"94.csv","","null","resources/maskTrios/BT2B.jpg","null","",NA,NA,NA,NA,""
"image-keyboard-response",467,343410,"0.0-4.151-2.151","ht9n4mlwdhvjl91",483,"94.csv","","null","resources/images/fishbone.png","null","",NA,NA,NA,NA,""
"image-keyboard-response",468,343429,"0.0-4.152-0.152","ht9n4mlwdhvjl91",483,"94.csv","","17.90000009536743","resources/trios/L4T2A3.jpg","39","restless",0.4,0.4,0.6,0.552326685172873,"true"
"image-keyboard-response",469,343832,"0.0-4.152-1.152","ht9n4mlwdhvjl91",483,"94.csv","","null","resources/maskTrios/BBA3.jpg","null","",NA,NA,NA,NA,""
"image-keyboard-response",470,345035,"0.0-4.152-2.152","ht9n4mlwdhvjl91",483,"94.csv","","null","resources/images/coin2.png","null","",NA,NA,NA,NA,""
"image-keyboard-response",471,345153,"0.0-4.153-0.153","ht9n4mlwdhvjl91",483,"94.csv","","117","resources/trios/L4T2A3.jpg","39","restless",0.4,0.4,0.6,0.643897577647992,"false"
"image-keyboard-response",472,345557,"0.0-4.153-1.153","ht9n4mlwdhvjl91",483,"94.csv","","null","resources/maskTrios/BBA3.jpg","null","",NA,NA,NA,NA,""
"image-keyboard-response",473,346759,"0.0-4.153-2.153","ht9n4mlwdhvjl91",483,"94.csv","","null","resources/images/fishbone.png","null","",NA,NA,NA,NA,""
"image-keyboard-response",474,346823,"0.0-4.154-0.154","ht9n4mlwdhvjl91",483,"94.csv","","60.299999952316284","resources/trios/L4T2A3.jpg","37","restless",0.4,0.4,0.6,0.301135554167852,"true"
"image-keyboard-response",475,347226,"0.0-4.154-1.154","ht9n4mlwdhvjl91",483,"94.csv","","null","resources/maskTrios/L4BB.jpg","null","",NA,NA,NA,NA,""
"image-keyboard-response",476,348431,"0.0-4.154-2.154","ht9n4mlwdhvjl91",483,"94.csv","","null","resources/images/coin2.png","null","",NA,NA,NA,NA,""
"image-keyboard-response",477,348554,"0.0-4.155-0.155","ht9n4mlwdhvjl91",483,"94.csv","","119.90000009536743","resources/trios/L4T2A3.jpg","37","restless",0.4,0.4,0.5,0.821910233448068,"false"
"image-keyboard-response",478,348957,"0.0-4.155-1.155","ht9n4mlwdhvjl91",483,"94.csv","","null","resources/maskTrios/L4BB.jpg","null","",NA,NA,NA,NA,""
"image-keyboard-response",479,350161,"0.0-4.155-2.155","ht9n4mlwdhvjl91",483,"94.csv","","null","resources/images/fishbone.png","null","",NA,NA,NA,NA,""
"image-keyboard-response",480,350280,"0.0-4.156-0.156","ht9n4mlwdhvjl91",483,"94.csv","","116.10000014305115","resources/trios/L4T2A3.jpg","38","restless",0.4,0.4,0.5,0.267100005945496,"true"
"image-keyboard-response",481,350684,"0.0-4.156-1.156","ht9n4mlwdhvjl91",483,"94.csv","","null","resources/maskTrios/BT2B.jpg","null","",NA,NA,NA,NA,""
"image-keyboard-response",482,351888,"0.0-4.156-2.156","ht9n4mlwdhvjl91",483,"94.csv","","null","resources/images/coin2.png","null","",NA,NA,NA,NA,""
"image-keyboard-response",483,351941,"0.0-4.157-0.157","ht9n4mlwdhvjl91",483,"94.csv","","48.69999980926514","resources/trios/L4T2A3.jpg","38","restless",0.4,0.4,0.5,0.495446381194978,"false"
"image-keyboard-response",484,352344,"0.0-4.157-1.157","ht9n4mlwdhvjl91",483,"94.csv","","null","resources/maskTrios/BT2B.jpg","null","",NA,NA,NA,NA,""
"image-keyboard-response",485,353548,"0.0-4.157-2.157","ht9n4mlwdhvjl91",483,"94.csv","","null","resources/images/fishbone.png","null","",NA,NA,NA,NA,""
"image-keyboard-response",486,353617,"0.0-4.158-0.158","ht9n4mlwdhvjl91",483,"94.csv","","65.29999995231628","resources/trios/L4T2A3.jpg","39","restless",0.4,0.4,0.5,0.46803609762249,"true"
"image-keyboard-response",487,354021,"0.0-4.158-1.158","ht9n4mlwdhvjl91",483,"94.csv","","null","resources/maskTrios/BBA3.jpg","null","",NA,NA,NA,NA,""
"image-keyboard-response",488,355224,"0.0-4.158-2.158","ht9n4mlwdhvjl91",483,"94.csv","","null","resources/images/coin2.png","null","",NA,NA,NA,NA,""
"image-keyboard-response",489,355405,"0.0-4.159-0.159","ht9n4mlwdhvjl91",483,"94.csv","","177.5","resources/trios/L4T2A3.jpg","39","restless",0.4,0.5,0.4,0.748580305589059,"false"
"image-keyboard-response",490,355808,"0.0-4.159-1.159","ht9n4mlwdhvjl91",483,"94.csv","","null","resources/maskTrios/BBA3.jpg","null","",NA,NA,NA,NA,""
"image-keyboard-response",491,357010,"0.0-4.159-2.159","ht9n4mlwdhvjl91",483,"94.csv","","null","resources/images/fishbone.png","null","",NA,NA,NA,NA,""
"image-keyboard-response",492,357174,"0.0-4.160-0.160","ht9n4mlwdhvjl91",483,"94.csv","","162.40000009536743","resources/trios/L4T2A3.jpg","37","restless",0.4,0.5,0.4,0.842380440038552,"false"
"image-keyboard-response",493,357577,"0.0-4.160-1.160","ht9n4mlwdhvjl91",483,"94.csv","","null","resources/maskTrios/L4BB.jpg","null","",NA,NA,NA,NA,""
"image-keyboard-response",494,358780,"0.0-4.160-2.160","ht9n4mlwdhvjl91",483,"94.csv","","null","resources/images/fishbone.png","null","",NA,NA,NA,NA,""
"image-keyboard-response",495,358822,"0.0-4.161-0.161","ht9n4mlwdhvjl91",483,"94.csv","","38.09999990463257","resources/trios/L4T2A3.jpg","38","restless",0.4,0.5,0.4,0.0620640434272559,"true"
"image-keyboard-response",496,359225,"0.0-4.161-1.161","ht9n4mlwdhvjl91",483,"94.csv","","null","resources/maskTrios/BT2B.jpg","null","",NA,NA,NA,NA,""
"image-keyboard-response",497,360428,"0.0-4.161-2.161","ht9n4mlwdhvjl91",483,"94.csv","","null","resources/images/coin2.png","null","",NA,NA,NA,NA,""
"image-keyboard-response",498,360526,"0.0-4.162-0.162","ht9n4mlwdhvjl91",483,"94.csv","","93.5","resources/trios/L4T2A3.jpg","38","restless",0.4,0.5,0.4,0.633662386565228,"false"
"image-keyboard-response",499,360929,"0.0-4.162-1.162","ht9n4mlwdhvjl91",483,"94.csv","","null","resources/maskTrios/BT2B.jpg","null","",NA,NA,NA,NA,""
"image-keyboard-response",500,362133,"0.0-4.162-2.162","ht9n4mlwdhvjl91",483,"94.csv","","null","resources/images/fishbone.png","null","",NA,NA,NA,NA,""
"image-keyboard-response",501,362136,"0.0-4.163-0.163","ht9n4mlwdhvjl91",483,"94.csv","","0.20000004768371582","resources/trios/L4T2A3.jpg","39","restless",0.4,0.5,0.4,0.385037851818677,"true"
"image-keyboard-response",502,362539,"0.0-4.163-1.163","ht9n4mlwdhvjl91",483,"94.csv","","null","resources/maskTrios/BBA3.jpg","null","",NA,NA,NA,NA,""
"image-keyboard-response",503,363742,"0.0-4.163-2.163","ht9n4mlwdhvjl91",483,"94.csv","","null","resources/images/coin2.png","null","",NA,NA,NA,NA,""
"image-keyboard-response",504,363857,"0.0-4.164-0.164","ht9n4mlwdhvjl91",483,"94.csv","","111","resources/trios/L4T2A3.jpg","39","restless",0.4,0.5,0.4,0.227215638511587,"true"
"image-keyboard-response",505,364259,"0.0-4.164-1.164","ht9n4mlwdhvjl91",483,"94.csv","","null","resources/maskTrios/BBA3.jpg","null","",NA,NA,NA,NA,""
"image-keyboard-response",506,365462,"0.0-4.164-2.164","ht9n4mlwdhvjl91",483,"94.csv","","null","resources/images/coin2.png","null","",NA,NA,NA,NA,""
"image-keyboard-response",507,365470,"0.0-4.165-0.165","ht9n4mlwdhvjl91",483,"94.csv","","6.200000047683716","resources/trios/L4T2A3.jpg","39","restless",0.4,0.5,0.4,0.106855901463673,"true"
"image-keyboard-response",508,365873,"0.0-4.165-1.165","ht9n4mlwdhvjl91",483,"94.csv","","null","resources/maskTrios/BBA3.jpg","null","",NA,NA,NA,NA,""
"image-keyboard-response",509,367076,"0.0-4.165-2.165","ht9n4mlwdhvjl91",483,"94.csv","","null","resources/images/coin2.png","null","",NA,NA,NA,NA,""
"image-keyboard-response",510,367189,"0.0-4.166-0.166","ht9n4mlwdhvjl91",483,"94.csv","","111.19999980926514","resources/trios/L4T2A3.jpg","39","restless",0.4,0.5,0.4,0.370589728095035,"true"
"image-keyboard-response",511,367594,"0.0-4.166-1.166","ht9n4mlwdhvjl91",483,"94.csv","","null","resources/maskTrios/BBA3.jpg","null","",NA,NA,NA,NA,""
"image-keyboard-response",512,368797,"0.0-4.166-2.166","ht9n4mlwdhvjl91",483,"94.csv","","null","resources/images/coin2.png","null","",NA,NA,NA,NA,""
"image-keyboard-response",513,368898,"0.0-4.167-0.167","ht9n4mlwdhvjl91",483,"94.csv","","100","resources/trios/L4T2A3.jpg","39","restless",0.4,0.5,0.4,0.711188219200817,"false"
"image-keyboard-response",514,369300,"0.0-4.167-1.167","ht9n4mlwdhvjl91",483,"94.csv","","null","resources/maskTrios/BBA3.jpg","null","",NA,NA,NA,NA,""
"image-keyboard-response",515,370505,"0.0-4.167-2.167","ht9n4mlwdhvjl91",483,"94.csv","","null","resources/images/fishbone.png","null","",NA,NA,NA,NA,""
"image-keyboard-response",516,370568,"0.0-4.168-0.168","ht9n4mlwdhvjl91",483,"94.csv","","59.60000014305115","resources/trios/L4T2A3.jpg","37","restless",0.4,0.5,0.4,0.550186180208527,"false"
"image-keyboard-response",517,370973,"0.0-4.168-1.168","ht9n4mlwdhvjl91",483,"94.csv","","null","resources/maskTrios/L4BB.jpg","null","",NA,NA,NA,NA,""
"image-keyboard-response",518,372177,"0.0-4.168-2.168","ht9n4mlwdhvjl91",483,"94.csv","","null","resources/images/fishbone.png","null","",NA,NA,NA,NA,""
"image-keyboard-response",519,372325,"0.0-4.169-0.169","ht9n4mlwdhvjl91",483,"94.csv","","146.90000009536743","resources/trios/L4T2A3.jpg","37","restless",0.4,0.5,0.4,0.092117731235883,"true"
"image-keyboard-response",520,372729,"0.0-4.169-1.169","ht9n4mlwdhvjl91",483,"94.csv","","null","resources/maskTrios/L4BB.jpg","null","",NA,NA,NA,NA,""
"image-keyboard-response",521,373933,"0.0-4.169-2.169","ht9n4mlwdhvjl91",483,"94.csv","","null","resources/images/coin2.png","null","",NA,NA,NA,NA,""
"image-keyboard-response",522,374073,"0.0-4.170-0.170","ht9n4mlwdhvjl91",483,"94.csv","","136.59999990463257","resources/trios/L4T2A3.jpg","37","restless",0.4,0.5,0.4,0.635364207503443,"false"
"image-keyboard-response",523,374476,"0.0-4.170-1.170","ht9n4mlwdhvjl91",483,"94.csv","","null","resources/maskTrios/L4BB.jpg","null","",NA,NA,NA,NA,""
"image-keyboard-response",524,375680,"0.0-4.170-2.170","ht9n4mlwdhvjl91",483,"94.csv","","null","resources/images/fishbone.png","null","",NA,NA,NA,NA,""
"image-keyboard-response",525,375715,"0.0-4.171-0.171","ht9n4mlwdhvjl91",483,"94.csv","","32.90000009536743","resources/trios/L4T2A3.jpg","38","restless",0.4,0.5,0.4,0.425290484523596,"true"
"image-keyboard-response",526,376118,"0.0-4.171-1.171","ht9n4mlwdhvjl91",483,"94.csv","","null","resources/maskTrios/BT2B.jpg","null","",NA,NA,NA,NA,""
"image-keyboard-response",527,377320,"0.0-4.171-2.171","ht9n4mlwdhvjl91",483,"94.csv","","null","resources/images/coin2.png","null","",NA,NA,NA,NA,""
"image-keyboard-response",528,377353,"0.0-4.172-0.172","ht9n4mlwdhvjl91",483,"94.csv","","29.09999990463257","resources/trios/L4T2A3.jpg","39","restless",0.4,0.5,0.5,0.121825863878381,"true"
"image-keyboard-response",529,377756,"0.0-4.172-1.172","ht9n4mlwdhvjl91",483,"94.csv","","null","resources/maskTrios/BBA3.jpg","null","",NA,NA,NA,NA,""
"image-keyboard-response",530,378960,"0.0-4.172-2.172","ht9n4mlwdhvjl91",483,"94.csv","","null","resources/images/coin2.png","null","",NA,NA,NA,NA,""
"image-keyboard-response",531,378983,"0.0-4.173-0.173","ht9n4mlwdhvjl91",483,"94.csv","","21.09999990463257","resources/trios/L4T2A3.jpg","37","restless",0.4,0.5,0.5,0.0686847988666062,"true"
"image-keyboard-response",532,379386,"0.0-4.173-1.173","ht9n4mlwdhvjl91",483,"94.csv","","null","resources/maskTrios/L4BB.jpg","null","",NA,NA,NA,NA,""
"image-keyboard-response",533,380591,"0.0-4.173-2.173","ht9n4mlwdhvjl91",483,"94.csv","","null","resources/images/coin2.png","null","",NA,NA,NA,NA,""
"image-keyboard-response",534,381020,"0.0-4.174-0.174","ht9n4mlwdhvjl91",483,"94.csv","","424.89999985694885","resources/trios/L4T2A3.jpg","38","restless",0.4,0.5,0.5,0.0297014908886468,"true"
"image-keyboard-response",535,381423,"0.0-4.174-1.174","ht9n4mlwdhvjl91",483,"94.csv","","null","resources/maskTrios/BT2B.jpg","null","",NA,NA,NA,NA,""
"image-keyboard-response",536,382627,"0.0-4.174-2.174","ht9n4mlwdhvjl91",483,"94.csv","","null","resources/images/coin2.png","null","",NA,NA,NA,NA,""
"image-keyboard-response",537,383082,"0.0-4.175-0.175","ht9n4mlwdhvjl91",483,"94.csv","","453.2999999523163","resources/trios/L4T2A3.jpg","39","restless",0.4,0.5,0.4,0.27299122962123,"true"
"image-keyboard-response",538,383485,"0.0-4.175-1.175","ht9n4mlwdhvjl91",483,"94.csv","","null","resources/maskTrios/BBA3.jpg","null","",NA,NA,NA,NA,""
"image-keyboard-response",539,384689,"0.0-4.175-2.175","ht9n4mlwdhvjl91",483,"94.csv","","null","resources/images/coin2.png","null","",NA,NA,NA,NA,""
"image-keyboard-response",540,385261,"0.0-4.176-0.176","ht9n4mlwdhvjl91",483,"94.csv","","568","resources/trios/L4T2A3.jpg","37","restless",0.3,0.5,0.4,0.226325864524446,"true"
"image-keyboard-response",541,385666,"0.0-4.176-1.176","ht9n4mlwdhvjl91",483,"94.csv","","null","resources/maskTrios/L4BB.jpg","null","",NA,NA,NA,NA,""
"image-keyboard-response",542,386871,"0.0-4.176-2.176","ht9n4mlwdhvjl91",483,"94.csv","","null","resources/images/coin2.png","null","",NA,NA,NA,NA,""
"image-keyboard-response",543,387087,"0.0-4.177-0.177","ht9n4mlwdhvjl91",483,"94.csv","","211.70000004768372","resources/trios/L4T2A3.jpg","38","restless",0.3,0.5,0.4,0.594807892519105,"false"
"image-keyboard-response",544,387490,"0.0-4.177-1.177","ht9n4mlwdhvjl91",483,"94.csv","","null","resources/maskTrios/BT2B.jpg","null","",NA,NA,NA,NA,""
"image-keyboard-response",545,388694,"0.0-4.177-2.177","ht9n4mlwdhvjl91",483,"94.csv","","null","resources/images/fishbone.png","null","",NA,NA,NA,NA,""
"image-keyboard-response",546,388873,"0.0-4.178-0.178","ht9n4mlwdhvjl91",483,"94.csv","","175.5","resources/trios/L4T2A3.jpg","37","restless",0.3,0.5,0.4,0.0447087221598115,"true"
"image-keyboard-response",547,389278,"0.0-4.178-1.178","ht9n4mlwdhvjl91",483,"94.csv","","null","resources/maskTrios/L4BB.jpg","null","",NA,NA,NA,NA,""
"image-keyboard-response",548,390482,"0.0-4.178-2.178","ht9n4mlwdhvjl91",483,"94.csv","","null","resources/images/coin2.png","null","",NA,NA,NA,NA,""
"image-keyboard-response",549,390678,"0.0-4.179-0.179","ht9n4mlwdhvjl91",483,"94.csv","","192.09999990463257","resources/trios/L4T2A3.jpg","37","restless",0.3,0.5,0.4,0.230178873008418,"true"
"image-keyboard-response",550,391083,"0.0-4.179-1.179","ht9n4mlwdhvjl91",483,"94.csv","","null","resources/maskTrios/L4BB.jpg","null","",NA,NA,NA,NA,""
"image-keyboard-response",551,392287,"0.0-4.179-2.179","ht9n4mlwdhvjl91",483,"94.csv","","null","resources/images/coin2.png","null","",NA,NA,NA,NA,""
"image-keyboard-response",552,392985,"0.0-4.180-0.180","ht9n4mlwdhvjl91",483,"94.csv","","695.4000000953674","resources/trios/L4T2A3.jpg","37","restless",0.3,0.6,0.4,0.859731143143049,"false"
"image-keyboard-response",553,393387,"0.0-4.180-1.180","ht9n4mlwdhvjl91",483,"94.csv","","null","resources/maskTrios/L4BB.jpg","null","",NA,NA,NA,NA,""
"image-keyboard-response",554,394591,"0.0-4.180-2.180","ht9n4mlwdhvjl91",483,"94.csv","","null","resources/images/fishbone.png","null","",NA,NA,NA,NA,""
"image-keyboard-response",555,394841,"0.0-4.181-0.181","ht9n4mlwdhvjl91",483,"94.csv","","246.70000004768372","resources/trios/L4T2A3.jpg","39","restless",0.3,0.6,0.4,0.477650861466394,"false"
"image-keyboard-response",556,395245,"0.0-4.181-1.181","ht9n4mlwdhvjl91",483,"94.csv","","null","resources/maskTrios/BBA3.jpg","null","",NA,NA,NA,NA,""
"image-keyboard-response",557,396448,"0.0-4.181-2.181","ht9n4mlwdhvjl91",483,"94.csv","","null","resources/images/fishbone.png","null","",NA,NA,NA,NA,""
"image-keyboard-response",558,396530,"0.0-4.182-0.182","ht9n4mlwdhvjl91",483,"94.csv","","81","resources/trios/L4T2A3.jpg","39","restless",0.3,0.6,0.4,0.381153274483676,"true"
"image-keyboard-response",559,396933,"0.0-4.182-1.182","ht9n4mlwdhvjl91",483,"94.csv","","null","resources/maskTrios/BBA3.jpg","null","",NA,NA,NA,NA,""
"image-keyboard-response",560,398137,"0.0-4.182-2.182","ht9n4mlwdhvjl91",483,"94.csv","","null","resources/images/coin2.png","null","",NA,NA,NA,NA,""
"image-keyboard-response",561,398142,"0.0-4.183-0.183","ht9n4mlwdhvjl91",483,"94.csv","","1.1000001430511475","resources/trios/L4T2A3.jpg","39","restless",0.3,0.6,0.4,0.539484300345483,"false"
"image-keyboard-response",562,398544,"0.0-4.183-1.183","ht9n4mlwdhvjl91",483,"94.csv","","null","resources/maskTrios/BBA3.jpg","null","",NA,NA,NA,NA,""
"image-keyboard-response",563,399748,"0.0-4.183-2.183","ht9n4mlwdhvjl91",483,"94.csv","","null","resources/images/fishbone.png","null","",NA,NA,NA,NA,""
"image-keyboard-response",564,399856,"0.0-4.184-0.184","ht9n4mlwdhvjl91",483,"94.csv","","105.5","resources/trios/L4T2A3.jpg","37","restless",0.3,0.6,0.4,0.0160422101267712,"true"
"image-keyboard-response",565,400259,"0.0-4.184-1.184","ht9n4mlwdhvjl91",483,"94.csv","","null","resources/maskTrios/L4BB.jpg","null","",NA,NA,NA,NA,""
"image-keyboard-response",566,401462,"0.0-4.184-2.184","ht9n4mlwdhvjl91",483,"94.csv","","null","resources/images/coin2.png","null","",NA,NA,NA,NA,""
"image-keyboard-response",567,401488,"0.0-4.185-0.185","ht9n4mlwdhvjl91",483,"94.csv","","22.90000009536743","resources/trios/L4T2A3.jpg","38","restless",0.3,0.6,0.4,0.717124833533044,"false"
"image-keyboard-response",568,401891,"0.0-4.185-1.185","ht9n4mlwdhvjl91",483,"94.csv","","null","resources/maskTrios/BT2B.jpg","null","",NA,NA,NA,NA,""
"image-keyboard-response",569,403096,"0.0-4.185-2.185","ht9n4mlwdhvjl91",483,"94.csv","","null","resources/images/fishbone.png","null","",NA,NA,NA,NA,""
"image-keyboard-response",570,403248,"0.0-4.186-0.186","ht9n4mlwdhvjl91",483,"94.csv","","148.59999990463257","resources/trios/L4T2A3.jpg","38","restless",0.3,0.6,0.4,0.746300579756496,"false"
"image-keyboard-response",571,403650,"0.0-4.186-1.186","ht9n4mlwdhvjl91",483,"94.csv","","null","resources/maskTrios/BT2B.jpg","null","",NA,NA,NA,NA,""
"image-keyboard-response",572,404852,"0.0-4.186-2.186","ht9n4mlwdhvjl91",483,"94.csv","","null","resources/images/fishbone.png","null","",NA,NA,NA,NA,""
"image-keyboard-response",573,404976,"0.0-4.187-0.187","ht9n4mlwdhvjl91",483,"94.csv","","119.90000009536743","resources/trios/L4T2A3.jpg","37","restless",0.3,0.6,0.4,0.641122374902504,"false"
"image-keyboard-response",574,405379,"0.0-4.187-1.187","ht9n4mlwdhvjl91",483,"94.csv","","null","resources/maskTrios/L4BB.jpg","null","",NA,NA,NA,NA,""
"image-keyboard-response",575,406582,"0.0-4.187-2.187","ht9n4mlwdhvjl91",483,"94.csv","","null","resources/images/fishbone.png","null","",NA,NA,NA,NA,""
"image-keyboard-response",576,406688,"0.0-4.188-0.188","ht9n4mlwdhvjl91",483,"94.csv","","102.90000009536743","resources/trios/L4T2A3.jpg","39","restless",0.3,0.6,0.4,0.6554232822961,"false"
"image-keyboard-response",577,407093,"0.0-4.188-1.188","ht9n4mlwdhvjl91",483,"94.csv","","null","resources/maskTrios/BBA3.jpg","null","",NA,NA,NA,NA,""
"image-keyboard-response",578,408296,"0.0-4.188-2.188","ht9n4mlwdhvjl91",483,"94.csv","","null","resources/images/fishbone.png","null","",NA,NA,NA,NA,""
"image-keyboard-response",579,408319,"0.0-4.189-0.189","ht9n4mlwdhvjl91",483,"94.csv","","20.600000143051147","resources/trios/L4T2A3.jpg","39","restless",0.3,0.5,0.4,0.871385338517405,"false"
"image-keyboard-response",580,408722,"0.0-4.189-1.189","ht9n4mlwdhvjl91",483,"94.csv","","null","resources/maskTrios/BBA3.jpg","null","",NA,NA,NA,NA,""
"image-keyboard-response",581,409926,"0.0-4.189-2.189","ht9n4mlwdhvjl91",483,"94.csv","","null","resources/images/fishbone.png","null","",NA,NA,NA,NA,""
"image-keyboard-response",582,410046,"0.0-4.190-0.190","ht9n4mlwdhvjl91",483,"94.csv","","116.59999990463257","resources/trios/L4T2A3.jpg","38","restless",0.3,0.5,0.5,0.264533116535408,"true"
"image-keyboard-response",583,410449,"0.0-4.190-1.190","ht9n4mlwdhvjl91",483,"94.csv","","null","resources/maskTrios/BT2B.jpg","null","",NA,NA,NA,NA,""
"image-keyboard-response",584,411651,"0.0-4.190-2.190","ht9n4mlwdhvjl91",483,"94.csv","","null","resources/images/coin2.png","null","",NA,NA,NA,NA,""
"image-keyboard-response",585,411654,"0.0-4.191-0.191","ht9n4mlwdhvjl91",483,"94.csv","","0.2999999523162842","resources/trios/L4T2A3.jpg","38","restless",0.3,0.5,0.5,0.472306967713256,"true"
"image-keyboard-response",586,412058,"0.0-4.191-1.191","ht9n4mlwdhvjl91",483,"94.csv","","null","resources/maskTrios/BT2B.jpg","null","",NA,NA,NA,NA,""
"image-keyboard-response",587,413261,"0.0-4.191-2.191","ht9n4mlwdhvjl91",483,"94.csv","","null","resources/images/coin2.png","null","",NA,NA,NA,NA,""
"image-keyboard-response",588,413267,"0.0-4.192-0.192","ht9n4mlwdhvjl91",483,"94.csv","","2.700000047683716","resources/trios/L4T2A3.jpg","38","restless",0.3,0.5,0.5,0.894081893497151,"false"
"image-keyboard-response",589,413670,"0.0-4.192-1.192","ht9n4mlwdhvjl91",483,"94.csv","","null","resources/maskTrios/BT2B.jpg","null","",NA,NA,NA,NA,""
"image-keyboard-response",590,414874,"0.0-4.192-2.192","ht9n4mlwdhvjl91",483,"94.csv","","null","resources/images/fishbone.png","null","",NA,NA,NA,NA,""
"image-keyboard-response",591,415375,"0.0-4.193-0.193","ht9n4mlwdhvjl91",483,"94.csv","","497.2000000476837","resources/trios/L4T2A3.jpg","39","restless",0.3,0.5,0.5,0.165815026243712,"true"
"image-keyboard-response",592,415779,"0.0-4.193-1.193","ht9n4mlwdhvjl91",483,"94.csv","","null","resources/maskTrios/BBA3.jpg","null","",NA,NA,NA,NA,""
"image-keyboard-response",593,416984,"0.0-4.193-2.193","ht9n4mlwdhvjl91",483,"94.csv","","null","resources/images/coin2.png","null","",NA,NA,NA,NA,""
"image-keyboard-response",594,417086,"0.0-4.194-0.194","ht9n4mlwdhvjl91",483,"94.csv","","98.79999995231628","resources/trios/L4T2A3.jpg","39","restless",0.4,0.6,0.5,0.307722330654122,"true"
"image-keyboard-response",595,417489,"0.0-4.194-1.194","ht9n4mlwdhvjl91",483,"94.csv","","null","resources/maskTrios/BBA3.jpg","null","",NA,NA,NA,NA,""
"image-keyboard-response",596,418691,"0.0-4.194-2.194","ht9n4mlwdhvjl91",483,"94.csv","","null","resources/images/coin2.png","null","",NA,NA,NA,NA,""
"image-keyboard-response",597,418698,"0.0-4.195-0.195","ht9n4mlwdhvjl91",483,"94.csv","","2.5999999046325684","resources/trios/L4T2A3.jpg","39","restless",0.4,0.7,0.5,0.0720630410840981,"true"
"image-keyboard-response",598,419100,"0.0-4.195-1.195","ht9n4mlwdhvjl91",483,"94.csv","","null","resources/maskTrios/BBA3.jpg","null","",NA,NA,NA,NA,""
"image-keyboard-response",599,420305,"0.0-4.195-2.195","ht9n4mlwdhvjl91",483,"94.csv","","null","resources/images/coin2.png","null","",NA,NA,NA,NA,""
"image-keyboard-response",600,420972,"0.0-4.196-0.196","ht9n4mlwdhvjl91",483,"94.csv","","663.6000001430511","resources/trios/L4T2A3.jpg","39","restless",0.4,0.7,0.5,0.429791970449224,"true"
"image-keyboard-response",601,421374,"0.0-4.196-1.196","ht9n4mlwdhvjl91",483,"94.csv","","null","resources/maskTrios/BBA3.jpg","null","",NA,NA,NA,NA,""
"image-keyboard-response",602,422579,"0.0-4.196-2.196","ht9n4mlwdhvjl91",483,"94.csv","","null","resources/images/coin2.png","null","",NA,NA,NA,NA,""
"image-keyboard-response",603,422848,"0.0-4.197-0.197","ht9n4mlwdhvjl91",483,"94.csv","","265.40000009536743","resources/trios/L4T2A3.jpg","39","restless",0.4,0.6,0.5,0.452548012055048,"true"
"image-keyboard-response",604,423252,"0.0-4.197-1.197","ht9n4mlwdhvjl91",483,"94.csv","","null","resources/maskTrios/BBA3.jpg","null","",NA,NA,NA,NA,""
"image-keyboard-response",605,424455,"0.0-4.197-2.197","ht9n4mlwdhvjl91",483,"94.csv","","null","resources/images/coin2.png","null","",NA,NA,NA,NA,""
"image-keyboard-response",606,424900,"0.0-4.198-0.198","ht9n4mlwdhvjl91",483,"94.csv","","443.30000019073486","resources/trios/L4T2A3.jpg","39","restless",0.4,0.6,0.5,0.910059382326882,"false"
"image-keyboard-response",607,425304,"0.0-4.198-1.198","ht9n4mlwdhvjl91",483,"94.csv","","null","resources/maskTrios/BBA3.jpg","null","",NA,NA,NA,NA,""
"image-keyboard-response",608,426508,"0.0-4.198-2.198","ht9n4mlwdhvjl91",483,"94.csv","","null","resources/images/fishbone.png","null","",NA,NA,NA,NA,""
"image-keyboard-response",609,426630,"0.0-4.199-0.199","ht9n4mlwdhvjl91",483,"94.csv","","119.39999985694885","resources/trios/L4T2A3.jpg","37","restless",0.4,0.6,0.5,0.0842309823060767,"true"
"image-keyboard-response",610,427034,"0.0-4.199-1.199","ht9n4mlwdhvjl91",483,"94.csv","","null","resources/maskTrios/L4BB.jpg","null","",NA,NA,NA,NA,""
"image-keyboard-response",611,428239,"0.0-4.199-2.199","ht9n4mlwdhvjl91",483,"94.csv","","null","resources/images/coin2.png","null","",NA,NA,NA,NA,""
"survey-text",612,485496,"0.0-5.0","ht9n4mlwdhvjl91",483,"94.csv","","57251.200000047684","","","",NA,NA,NA,NA,""
