"trial_type","trial_index","time_elapsed","internal_node_id","subject","participantCode","walkNumber","success","rt","stimulus","key_press","test_part","leftProb","midProb","rightProb","generatedNum","correct"
"pavlovia",0,884,"0.0-0.0","pd04tc7jledesj9",439,"25.csv","","","","","",NA,NA,NA,NA,""
"fullscreen",1,4062,"0.0-1.0","pd04tc7jledesj9",439,"25.csv","true","","","","",NA,NA,NA,NA,""
"survey-html-form",2,16107,"0.0-2.0","pd04tc7jledesj9",439,"25.csv","","12038.400000095367","","","",NA,NA,NA,NA,""
"image-keyboard-response",3,60121,"0.0-3.0-0.0","pd04tc7jledesj9",439,"25.csv","","44013.40000009537","resources/images/parrot_nobg.png","13","",NA,NA,NA,NA,""
"image-keyboard-response",4,63124,"0.0-3.0-1.0","pd04tc7jledesj9",439,"25.csv","","null","resources/image_sets/111.png","null","",NA,NA,NA,NA,""
"image-keyboard-response",5,72761,"0.0-3.0-2.0","pd04tc7jledesj9",439,"25.csv","","9634.5","resources/image_sets/left_highlight.png","37","",NA,NA,NA,NA,""
"image-keyboard-response",6,76144,"0.0-3.0-3.0","pd04tc7jledesj9",439,"25.csv","","3379.899999976158","resources/image_sets/mid_highlight.png","38","",NA,NA,NA,NA,""
"image-keyboard-response",7,77231,"0.0-3.0-4.0","pd04tc7jledesj9",439,"25.csv","","1084.5999999046326","resources/image_sets/right_highlight.png","39","",NA,NA,NA,NA,""
"image-keyboard-response",8,80891,"0.0-3.0-5.0","pd04tc7jledesj9",439,"25.csv","","3657.7999999523163","resources/image_sets/111.png","13","",NA,NA,NA,NA,""
"image-keyboard-response",9,84808,"0.0-3.0-6.0","pd04tc7jledesj9",439,"25.csv","","3914.4000000953674","resources/images/coin2.png","13","",NA,NA,NA,NA,""
"image-keyboard-response",10,86940,"0.0-3.0-7.0","pd04tc7jledesj9",439,"25.csv","","2130.1999999284744","resources/images/fishbone.png","13","",NA,NA,NA,NA,""
"html-keyboard-response",11,88306,"0.0-3.0-8.0","pd04tc7jledesj9",439,"25.csv","","1364.1000000238419","<p>You can track your coin total on the top right of your screen. </p><p>At the end of your journey you will be directed to a survey, so please click on the link before exiting the task</p><p>Press Enter to begin</p>","13","",NA,NA,NA,NA,""
"image-keyboard-response",12,89650,"0.0-4.0-0.0","pd04tc7jledesj9",439,"25.csv","","1340.8999999761581","resources/trios/L1T4A2.jpg","37","restless",0.7,0.3,0.9,0.933272923795368,"false"
"image-keyboard-response",13,90058,"0.0-4.0-1.0","pd04tc7jledesj9",439,"25.csv","","null","resources/maskTrios/L1BB.jpg","null","",NA,NA,NA,NA,""
"image-keyboard-response",14,91263,"0.0-4.0-2.0","pd04tc7jledesj9",439,"25.csv","","null","resources/images/fishbone.png","null","",NA,NA,NA,NA,""
"image-keyboard-response",15,91832,"0.0-4.1-0.1","pd04tc7jledesj9",439,"25.csv","","566.8999999761581","resources/trios/L1T4A2.jpg","37","restless",0.7,0.3,0.9,0.426190083379544,"true"
"image-keyboard-response",16,92237,"0.0-4.1-1.1","pd04tc7jledesj9",439,"25.csv","","null","resources/maskTrios/L1BB.jpg","null","",NA,NA,NA,NA,""
"image-keyboard-response",17,93446,"0.0-4.1-2.1","pd04tc7jledesj9",439,"25.csv","","null","resources/images/coin2.png","null","",NA,NA,NA,NA,""
"image-keyboard-response",18,94309,"0.0-4.2-0.2","pd04tc7jledesj9",439,"25.csv","","859.3000000715256","resources/trios/L1T4A2.jpg","39","restless",0.7,0.3,0.9,0.443075705060188,"true"
"image-keyboard-response",19,94714,"0.0-4.2-1.2","pd04tc7jledesj9",439,"25.csv","","null","resources/maskTrios/BBA2.jpg","null","",NA,NA,NA,NA,""
"image-keyboard-response",20,95920,"0.0-4.2-2.2","pd04tc7jledesj9",439,"25.csv","","null","resources/images/coin2.png","null","",NA,NA,NA,NA,""
"image-keyboard-response",21,96275,"0.0-4.3-0.3","pd04tc7jledesj9",439,"25.csv","","351.2999999523163","resources/trios/L1T4A2.jpg","38","restless",0.7,0.3,0.9,0.617928733091524,"false"
"image-keyboard-response",22,96681,"0.0-4.3-1.3","pd04tc7jledesj9",439,"25.csv","","null","resources/maskTrios/BT4B.jpg","null","",NA,NA,NA,NA,""
"image-keyboard-response",23,97884,"0.0-4.3-2.3","pd04tc7jledesj9",439,"25.csv","","null","resources/images/fishbone.png","null","",NA,NA,NA,NA,""
"image-keyboard-response",24,98980,"0.0-4.4-0.4","pd04tc7jledesj9",439,"25.csv","","1092.3999999761581","resources/trios/L1T4A2.jpg","39","restless",0.6,0.3,0.9,0.676459029362378,"true"
"image-keyboard-response",25,99384,"0.0-4.4-1.4","pd04tc7jledesj9",439,"25.csv","","null","resources/maskTrios/BBA2.jpg","null","",NA,NA,NA,NA,""
"image-keyboard-response",26,100589,"0.0-4.4-2.4","pd04tc7jledesj9",439,"25.csv","","null","resources/images/coin2.png","null","",NA,NA,NA,NA,""
"image-keyboard-response",27,100987,"0.0-4.5-0.5","pd04tc7jledesj9",439,"25.csv","","394.10000002384186","resources/trios/L1T4A2.jpg","37","restless",0.6,0.3,0.9,0.729300200550581,"false"
"image-keyboard-response",28,101394,"0.0-4.5-1.5","pd04tc7jledesj9",439,"25.csv","","null","resources/maskTrios/L1BB.jpg","null","",NA,NA,NA,NA,""
"image-keyboard-response",29,102596,"0.0-4.5-2.5","pd04tc7jledesj9",439,"25.csv","","null","resources/images/fishbone.png","null","",NA,NA,NA,NA,""
"image-keyboard-response",30,102930,"0.0-4.6-0.6","pd04tc7jledesj9",439,"25.csv","","330.2000000476837","resources/trios/L1T4A2.jpg","38","restless",0.6,0.3,0.9,0.201714523263587,"true"
"image-keyboard-response",31,103335,"0.0-4.6-1.6","pd04tc7jledesj9",439,"25.csv","","null","resources/maskTrios/BT4B.jpg","null","",NA,NA,NA,NA,""
"image-keyboard-response",32,104541,"0.0-4.6-2.6","pd04tc7jledesj9",439,"25.csv","","null","resources/images/coin2.png","null","",NA,NA,NA,NA,""
"image-keyboard-response",33,104911,"0.0-4.7-0.7","pd04tc7jledesj9",439,"25.csv","","366.3000000715256","resources/trios/L1T4A2.jpg","38","restless",0.6,0.3,0.9,0.661748751429069,"false"
"image-keyboard-response",34,105317,"0.0-4.7-1.7","pd04tc7jledesj9",439,"25.csv","","null","resources/maskTrios/BT4B.jpg","null","",NA,NA,NA,NA,""
"image-keyboard-response",35,106521,"0.0-4.7-2.7","pd04tc7jledesj9",439,"25.csv","","null","resources/images/fishbone.png","null","",NA,NA,NA,NA,""
"image-keyboard-response",36,106862,"0.0-4.8-0.8","pd04tc7jledesj9",439,"25.csv","","337.60000002384186","resources/trios/L1T4A2.jpg","38","restless",0.6,0.3,0.9,0.15757394367339,"true"
"image-keyboard-response",37,107292,"0.0-4.8-1.8","pd04tc7jledesj9",439,"25.csv","","null","resources/maskTrios/BT4B.jpg","null","",NA,NA,NA,NA,""
"image-keyboard-response",38,108496,"0.0-4.8-2.8","pd04tc7jledesj9",439,"25.csv","","null","resources/images/coin2.png","null","",NA,NA,NA,NA,""
"image-keyboard-response",39,108951,"0.0-4.9-0.9","pd04tc7jledesj9",439,"25.csv","","451.59999990463257","resources/trios/L1T4A2.jpg","38","restless",0.6,0.3,0.8,0.926525990742499,"false"
"image-keyboard-response",40,109356,"0.0-4.9-1.9","pd04tc7jledesj9",439,"25.csv","","null","resources/maskTrios/BT4B.jpg","null","",NA,NA,NA,NA,""
"image-keyboard-response",41,110561,"0.0-4.9-2.9","pd04tc7jledesj9",439,"25.csv","","null","resources/images/fishbone.png","null","",NA,NA,NA,NA,""
"image-keyboard-response",42,110884,"0.0-4.10-0.10","pd04tc7jledesj9",439,"25.csv","","319.1999999284744","resources/trios/L1T4A2.jpg","38","restless",0.6,0.3,0.8,0.721429294930897,"false"
"image-keyboard-response",43,111289,"0.0-4.10-1.10","pd04tc7jledesj9",439,"25.csv","","null","resources/maskTrios/BT4B.jpg","null","",NA,NA,NA,NA,""
"image-keyboard-response",44,112492,"0.0-4.10-2.10","pd04tc7jledesj9",439,"25.csv","","null","resources/images/fishbone.png","null","",NA,NA,NA,NA,""
"image-keyboard-response",45,112631,"0.0-4.11-0.11","pd04tc7jledesj9",439,"25.csv","","135.70000004768372","resources/trios/L1T4A2.jpg","39","restless",0.6,0.3,0.8,0.130414852623728,"true"
"image-keyboard-response",46,113035,"0.0-4.11-1.11","pd04tc7jledesj9",439,"25.csv","","null","resources/maskTrios/BBA2.jpg","null","",NA,NA,NA,NA,""
"image-keyboard-response",47,114240,"0.0-4.11-2.11","pd04tc7jledesj9",439,"25.csv","","null","resources/images/coin2.png","null","",NA,NA,NA,NA,""
"image-keyboard-response",48,114633,"0.0-4.12-0.12","pd04tc7jledesj9",439,"25.csv","","388.7999999523163","resources/trios/L1T4A2.jpg","37","restless",0.6,0.3,0.8,0.277723657000522,"true"
"image-keyboard-response",49,115038,"0.0-4.12-1.12","pd04tc7jledesj9",439,"25.csv","","null","resources/maskTrios/L1BB.jpg","null","",NA,NA,NA,NA,""
"image-keyboard-response",50,116243,"0.0-4.12-2.12","pd04tc7jledesj9",439,"25.csv","","null","resources/images/coin2.png","null","",NA,NA,NA,NA,""
"image-keyboard-response",51,116441,"0.0-4.13-0.13","pd04tc7jledesj9",439,"25.csv","","195","resources/trios/L1T4A2.jpg","39","restless",0.6,0.3,0.7,0.135308989586225,"true"
"image-keyboard-response",52,116844,"0.0-4.13-1.13","pd04tc7jledesj9",439,"25.csv","","null","resources/maskTrios/BBA2.jpg","null","",NA,NA,NA,NA,""
"image-keyboard-response",53,118047,"0.0-4.13-2.13","pd04tc7jledesj9",439,"25.csv","","null","resources/images/coin2.png","null","",NA,NA,NA,NA,""
"image-keyboard-response",54,118125,"0.0-4.14-0.14","pd04tc7jledesj9",439,"25.csv","","75.39999997615814","resources/trios/L1T4A2.jpg","37","restless",0.6,0.3,0.7,0.585065977663342,"true"
"image-keyboard-response",55,118531,"0.0-4.14-1.14","pd04tc7jledesj9",439,"25.csv","","null","resources/maskTrios/L1BB.jpg","null","",NA,NA,NA,NA,""
"image-keyboard-response",56,119737,"0.0-4.14-2.14","pd04tc7jledesj9",439,"25.csv","","null","resources/images/coin2.png","null","",NA,NA,NA,NA,""
"image-keyboard-response",57,119927,"0.0-4.15-0.15","pd04tc7jledesj9",439,"25.csv","","186.29999995231628","resources/trios/L1T4A2.jpg","39","restless",0.6,0.3,0.8,0.902238751163122,"false"
"image-keyboard-response",58,120332,"0.0-4.15-1.15","pd04tc7jledesj9",439,"25.csv","","null","resources/maskTrios/BBA2.jpg","null","",NA,NA,NA,NA,""
"image-keyboard-response",59,121535,"0.0-4.15-2.15","pd04tc7jledesj9",439,"25.csv","","null","resources/images/fishbone.png","null","",NA,NA,NA,NA,""
"image-keyboard-response",60,121609,"0.0-4.16-0.16","pd04tc7jledesj9",439,"25.csv","","72.5","resources/trios/L1T4A2.jpg","37","restless",0.6,0.3,0.8,0.599142736211513,"true"
"image-keyboard-response",61,122013,"0.0-4.16-1.16","pd04tc7jledesj9",439,"25.csv","","null","resources/maskTrios/L1BB.jpg","null","",NA,NA,NA,NA,""
"image-keyboard-response",62,123217,"0.0-4.16-2.16","pd04tc7jledesj9",439,"25.csv","","null","resources/images/coin2.png","null","",NA,NA,NA,NA,""
"image-keyboard-response",63,123495,"0.0-4.17-0.17","pd04tc7jledesj9",439,"25.csv","","276.39999997615814","resources/trios/L1T4A2.jpg","38","restless",0.6,0.3,0.8,0.21129471059861,"true"
"image-keyboard-response",64,123901,"0.0-4.17-1.17","pd04tc7jledesj9",439,"25.csv","","null","resources/maskTrios/BT4B.jpg","null","",NA,NA,NA,NA,""
"image-keyboard-response",65,125106,"0.0-4.17-2.17","pd04tc7jledesj9",439,"25.csv","","null","resources/images/coin2.png","null","",NA,NA,NA,NA,""
"image-keyboard-response",66,125261,"0.0-4.18-0.18","pd04tc7jledesj9",439,"25.csv","","151","resources/trios/L1T4A2.jpg","37","restless",0.6,0.3,0.8,0.0821594873317089,"true"
"image-keyboard-response",67,125666,"0.0-4.18-1.18","pd04tc7jledesj9",439,"25.csv","","null","resources/maskTrios/L1BB.jpg","null","",NA,NA,NA,NA,""
"image-keyboard-response",68,126869,"0.0-4.18-2.18","pd04tc7jledesj9",439,"25.csv","","null","resources/images/coin2.png","null","",NA,NA,NA,NA,""
"image-keyboard-response",69,127183,"0.0-4.19-0.19","pd04tc7jledesj9",439,"25.csv","","309.89999997615814","resources/trios/L1T4A2.jpg","38","restless",0.6,0.3,0.8,0.346722074609164,"false"
"image-keyboard-response",70,127589,"0.0-4.19-1.19","pd04tc7jledesj9",439,"25.csv","","null","resources/maskTrios/BT4B.jpg","null","",NA,NA,NA,NA,""
"image-keyboard-response",71,128792,"0.0-4.19-2.19","pd04tc7jledesj9",439,"25.csv","","null","resources/images/fishbone.png","null","",NA,NA,NA,NA,""
"image-keyboard-response",72,129023,"0.0-4.20-0.20","pd04tc7jledesj9",439,"25.csv","","227.5","resources/trios/L1T4A2.jpg","37","restless",0.6,0.3,0.8,0.0404463812360756,"true"
"image-keyboard-response",73,129438,"0.0-4.20-1.20","pd04tc7jledesj9",439,"25.csv","","null","resources/maskTrios/L1BB.jpg","null","",NA,NA,NA,NA,""
"image-keyboard-response",74,130642,"0.0-4.20-2.20","pd04tc7jledesj9",439,"25.csv","","null","resources/images/coin2.png","null","",NA,NA,NA,NA,""
"image-keyboard-response",75,130705,"0.0-4.21-0.21","pd04tc7jledesj9",439,"25.csv","","59.10000002384186","resources/trios/L1T4A2.jpg","39","restless",0.6,0.3,0.8,0.522753604446938,"true"
"image-keyboard-response",76,131109,"0.0-4.21-1.21","pd04tc7jledesj9",439,"25.csv","","null","resources/maskTrios/BBA2.jpg","null","",NA,NA,NA,NA,""
"image-keyboard-response",77,132313,"0.0-4.21-2.21","pd04tc7jledesj9",439,"25.csv","","null","resources/images/coin2.png","null","",NA,NA,NA,NA,""
"image-keyboard-response",78,132858,"0.0-4.22-0.22","pd04tc7jledesj9",439,"25.csv","","540.5999999046326","resources/trios/L1T4A2.jpg","39","restless",0.6,0.3,0.8,0.928497350219746,"false"
"image-keyboard-response",79,133266,"0.0-4.22-1.22","pd04tc7jledesj9",439,"25.csv","","null","resources/maskTrios/BBA2.jpg","null","",NA,NA,NA,NA,""
"image-keyboard-response",80,134469,"0.0-4.22-2.22","pd04tc7jledesj9",439,"25.csv","","null","resources/images/fishbone.png","null","",NA,NA,NA,NA,""
"image-keyboard-response",81,134573,"0.0-4.23-0.23","pd04tc7jledesj9",439,"25.csv","","100.89999997615814","resources/trios/L1T4A2.jpg","37","restless",0.6,0.3,0.8,0.71532127176986,"false"
"image-keyboard-response",82,134975,"0.0-4.23-1.23","pd04tc7jledesj9",439,"25.csv","","null","resources/maskTrios/L1BB.jpg","null","",NA,NA,NA,NA,""
"image-keyboard-response",83,136178,"0.0-4.23-2.23","pd04tc7jledesj9",439,"25.csv","","null","resources/images/fishbone.png","null","",NA,NA,NA,NA,""
"image-keyboard-response",84,136530,"0.0-4.24-0.24","pd04tc7jledesj9",439,"25.csv","","348.60000002384186","resources/trios/L1T4A2.jpg","38","restless",0.6,0.4,0.8,0.949802300095918,"false"
"image-keyboard-response",85,136934,"0.0-4.24-1.24","pd04tc7jledesj9",439,"25.csv","","null","resources/maskTrios/BT4B.jpg","null","",NA,NA,NA,NA,""
"image-keyboard-response",86,138138,"0.0-4.24-2.24","pd04tc7jledesj9",439,"25.csv","","null","resources/images/fishbone.png","null","",NA,NA,NA,NA,""
"image-keyboard-response",87,138500,"0.0-4.25-0.25","pd04tc7jledesj9",439,"25.csv","","358.60000002384186","resources/trios/L1T4A2.jpg","38","restless",0.6,0.4,0.8,0.754351577908441,"false"
"image-keyboard-response",88,138906,"0.0-4.25-1.25","pd04tc7jledesj9",439,"25.csv","","null","resources/maskTrios/BT4B.jpg","null","",NA,NA,NA,NA,""
"image-keyboard-response",89,140109,"0.0-4.25-2.25","pd04tc7jledesj9",439,"25.csv","","null","resources/images/fishbone.png","null","",NA,NA,NA,NA,""
"image-keyboard-response",90,140199,"0.0-4.26-0.26","pd04tc7jledesj9",439,"25.csv","","86.60000002384186","resources/trios/L1T4A2.jpg","37","restless",0.6,0.4,0.8,0.269371749276742,"true"
"image-keyboard-response",91,140604,"0.0-4.26-1.26","pd04tc7jledesj9",439,"25.csv","","null","resources/maskTrios/L1BB.jpg","null","",NA,NA,NA,NA,""
"image-keyboard-response",92,141807,"0.0-4.26-2.26","pd04tc7jledesj9",439,"25.csv","","null","resources/images/coin2.png","null","",NA,NA,NA,NA,""
"image-keyboard-response",93,141986,"0.0-4.27-0.27","pd04tc7jledesj9",439,"25.csv","","176.39999997615814","resources/trios/L1T4A2.jpg","37","restless",0.6,0.4,0.8,0.390235413734039,"true"
"image-keyboard-response",94,142392,"0.0-4.27-1.27","pd04tc7jledesj9",439,"25.csv","","null","resources/maskTrios/L1BB.jpg","null","",NA,NA,NA,NA,""
"image-keyboard-response",95,143596,"0.0-4.27-2.27","pd04tc7jledesj9",439,"25.csv","","null","resources/images/coin2.png","null","",NA,NA,NA,NA,""
"image-keyboard-response",96,143916,"0.0-4.28-0.28","pd04tc7jledesj9",439,"25.csv","","315.8000000715256","resources/trios/L1T4A2.jpg","37","restless",0.6,0.3,0.8,0.450698565880409,"true"
"image-keyboard-response",97,144320,"0.0-4.28-1.28","pd04tc7jledesj9",439,"25.csv","","null","resources/maskTrios/L1BB.jpg","null","",NA,NA,NA,NA,""
"image-keyboard-response",98,145523,"0.0-4.28-2.28","pd04tc7jledesj9",439,"25.csv","","null","resources/images/coin2.png","null","",NA,NA,NA,NA,""
"image-keyboard-response",99,145767,"0.0-4.29-0.29","pd04tc7jledesj9",439,"25.csv","","240.70000004768372","resources/trios/L1T4A2.jpg","37","restless",0.6,0.4,0.8,0.434997666793928,"true"
"image-keyboard-response",100,146171,"0.0-4.29-1.29","pd04tc7jledesj9",439,"25.csv","","null","resources/maskTrios/L1BB.jpg","null","",NA,NA,NA,NA,""
"image-keyboard-response",101,147375,"0.0-4.29-2.29","pd04tc7jledesj9",439,"25.csv","","null","resources/images/coin2.png","null","",NA,NA,NA,NA,""
"image-keyboard-response",102,147670,"0.0-4.30-0.30","pd04tc7jledesj9",439,"25.csv","","291.3000000715256","resources/trios/L1T4A2.jpg","37","restless",0.6,0.4,0.8,0.428098975055238,"true"
"image-keyboard-response",103,148075,"0.0-4.30-1.30","pd04tc7jledesj9",439,"25.csv","","null","resources/maskTrios/L1BB.jpg","null","",NA,NA,NA,NA,""
"image-keyboard-response",104,149280,"0.0-4.30-2.30","pd04tc7jledesj9",439,"25.csv","","null","resources/images/coin2.png","null","",NA,NA,NA,NA,""
"image-keyboard-response",105,149379,"0.0-4.31-0.31","pd04tc7jledesj9",439,"25.csv","","94.80000007152557","resources/trios/L1T4A2.jpg","37","restless",0.5,0.4,0.7,0.0898493447710169,"true"
"image-keyboard-response",106,149782,"0.0-4.31-1.31","pd04tc7jledesj9",439,"25.csv","","null","resources/maskTrios/L1BB.jpg","null","",NA,NA,NA,NA,""
"image-keyboard-response",107,150987,"0.0-4.31-2.31","pd04tc7jledesj9",439,"25.csv","","null","resources/images/coin2.png","null","",NA,NA,NA,NA,""
"image-keyboard-response",108,151163,"0.0-4.32-0.32","pd04tc7jledesj9",439,"25.csv","","172.10000002384186","resources/trios/L1T4A2.jpg","37","restless",0.5,0.4,0.7,0.0131530976886316,"true"
"image-keyboard-response",109,151567,"0.0-4.32-1.32","pd04tc7jledesj9",439,"25.csv","","null","resources/maskTrios/L1BB.jpg","null","",NA,NA,NA,NA,""
"image-keyboard-response",110,152775,"0.0-4.32-2.32","pd04tc7jledesj9",439,"25.csv","","null","resources/images/coin2.png","null","",NA,NA,NA,NA,""
"image-keyboard-response",111,152961,"0.0-4.33-0.33","pd04tc7jledesj9",439,"25.csv","","182.89999997615814","resources/trios/L1T4A2.jpg","37","restless",0.5,0.4,0.7,0.0456784216981143,"true"
"image-keyboard-response",112,153364,"0.0-4.33-1.33","pd04tc7jledesj9",439,"25.csv","","null","resources/maskTrios/L1BB.jpg","null","",NA,NA,NA,NA,""
"image-keyboard-response",113,154569,"0.0-4.33-2.33","pd04tc7jledesj9",439,"25.csv","","null","resources/images/coin2.png","null","",NA,NA,NA,NA,""
"image-keyboard-response",114,154871,"0.0-4.34-0.34","pd04tc7jledesj9",439,"25.csv","","299.1999999284744","resources/trios/L1T4A2.jpg","37","restless",0.5,0.4,0.7,0.304855547804978,"true"
"image-keyboard-response",115,155276,"0.0-4.34-1.34","pd04tc7jledesj9",439,"25.csv","","null","resources/maskTrios/L1BB.jpg","null","",NA,NA,NA,NA,""
"image-keyboard-response",116,156479,"0.0-4.34-2.34","pd04tc7jledesj9",439,"25.csv","","null","resources/images/coin2.png","null","",NA,NA,NA,NA,""
"image-keyboard-response",117,156664,"0.0-4.35-0.35","pd04tc7jledesj9",439,"25.csv","","180.89999997615814","resources/trios/L1T4A2.jpg","37","restless",0.5,0.5,0.7,0.229888424133097,"true"
"image-keyboard-response",118,157069,"0.0-4.35-1.35","pd04tc7jledesj9",439,"25.csv","","null","resources/maskTrios/L1BB.jpg","null","",NA,NA,NA,NA,""
"image-keyboard-response",119,158273,"0.0-4.35-2.35","pd04tc7jledesj9",439,"25.csv","","null","resources/images/coin2.png","null","",NA,NA,NA,NA,""
"image-keyboard-response",120,158470,"0.0-4.36-0.36","pd04tc7jledesj9",439,"25.csv","","193.59999990463257","resources/trios/L1T4A2.jpg","37","restless",0.5,0.5,0.7,0.865177363757804,"false"
"image-keyboard-response",121,158875,"0.0-4.36-1.36","pd04tc7jledesj9",439,"25.csv","","null","resources/maskTrios/L1BB.jpg","null","",NA,NA,NA,NA,""
"image-keyboard-response",122,160079,"0.0-4.36-2.36","pd04tc7jledesj9",439,"25.csv","","null","resources/images/fishbone.png","null","",NA,NA,NA,NA,""
"image-keyboard-response",123,160287,"0.0-4.37-0.37","pd04tc7jledesj9",439,"25.csv","","205.89999997615814","resources/trios/L1T4A2.jpg","37","restless",0.5,0.5,0.7,0.372049354168232,"true"
"image-keyboard-response",124,160691,"0.0-4.37-1.37","pd04tc7jledesj9",439,"25.csv","","null","resources/maskTrios/L1BB.jpg","null","",NA,NA,NA,NA,""
"image-keyboard-response",125,161894,"0.0-4.37-2.37","pd04tc7jledesj9",439,"25.csv","","null","resources/images/coin2.png","null","",NA,NA,NA,NA,""
"image-keyboard-response",126,162289,"0.0-4.38-0.38","pd04tc7jledesj9",439,"25.csv","","392.2000000476837","resources/trios/L1T4A2.jpg","37","restless",0.5,0.5,0.7,0.0288024276813246,"true"
"image-keyboard-response",127,162695,"0.0-4.38-1.38","pd04tc7jledesj9",439,"25.csv","","null","resources/maskTrios/L1BB.jpg","null","",NA,NA,NA,NA,""
"image-keyboard-response",128,163899,"0.0-4.38-2.38","pd04tc7jledesj9",439,"25.csv","","null","resources/images/coin2.png","null","",NA,NA,NA,NA,""
"image-keyboard-response",129,163988,"0.0-4.39-0.39","pd04tc7jledesj9",439,"25.csv","","85.5","resources/trios/L1T4A2.jpg","37","restless",0.5,0.5,0.7,0.377599228356261,"true"
"image-keyboard-response",130,164391,"0.0-4.39-1.39","pd04tc7jledesj9",439,"25.csv","","null","resources/maskTrios/L1BB.jpg","null","",NA,NA,NA,NA,""
"image-keyboard-response",131,165594,"0.0-4.39-2.39","pd04tc7jledesj9",439,"25.csv","","null","resources/images/coin2.png","null","",NA,NA,NA,NA,""
"image-keyboard-response",132,165735,"0.0-4.40-0.40","pd04tc7jledesj9",439,"25.csv","","137.10000002384186","resources/trios/L1T4A2.jpg","39","restless",0.5,0.5,0.7,0.932465298389403,"false"
"image-keyboard-response",133,166139,"0.0-4.40-1.40","pd04tc7jledesj9",439,"25.csv","","null","resources/maskTrios/BBA2.jpg","null","",NA,NA,NA,NA,""
"image-keyboard-response",134,167343,"0.0-4.40-2.40","pd04tc7jledesj9",439,"25.csv","","null","resources/images/fishbone.png","null","",NA,NA,NA,NA,""
"image-keyboard-response",135,167399,"0.0-4.41-0.41","pd04tc7jledesj9",439,"25.csv","","53.200000047683716","resources/trios/L1T4A2.jpg","39","restless",0.5,0.5,0.7,0.732374824624087,"false"
"image-keyboard-response",136,167802,"0.0-4.41-1.41","pd04tc7jledesj9",439,"25.csv","","null","resources/maskTrios/BBA2.jpg","null","",NA,NA,NA,NA,""
"image-keyboard-response",137,169004,"0.0-4.41-2.41","pd04tc7jledesj9",439,"25.csv","","null","resources/images/fishbone.png","null","",NA,NA,NA,NA,""
"image-keyboard-response",138,169488,"0.0-4.42-0.42","pd04tc7jledesj9",439,"25.csv","","480.7999999523163","resources/trios/L1T4A2.jpg","39","restless",0.5,0.5,0.7,0.0934348605750788,"true"
"image-keyboard-response",139,169893,"0.0-4.42-1.42","pd04tc7jledesj9",439,"25.csv","","null","resources/maskTrios/BBA2.jpg","null","",NA,NA,NA,NA,""
"image-keyboard-response",140,171097,"0.0-4.42-2.42","pd04tc7jledesj9",439,"25.csv","","null","resources/images/coin2.png","null","",NA,NA,NA,NA,""
"image-keyboard-response",141,171257,"0.0-4.43-0.43","pd04tc7jledesj9",439,"25.csv","","155.89999997615814","resources/trios/L1T4A2.jpg","39","restless",0.5,0.5,0.7,0.724769892699928,"false"
"image-keyboard-response",142,171662,"0.0-4.43-1.43","pd04tc7jledesj9",439,"25.csv","","null","resources/maskTrios/BBA2.jpg","null","",NA,NA,NA,NA,""
"image-keyboard-response",143,172865,"0.0-4.43-2.43","pd04tc7jledesj9",439,"25.csv","","null","resources/images/fishbone.png","null","",NA,NA,NA,NA,""
"image-keyboard-response",144,173024,"0.0-4.44-0.44","pd04tc7jledesj9",439,"25.csv","","155.89999997615814","resources/trios/L1T4A2.jpg","37","restless",0.5,0.5,0.7,0.813323785324614,"false"
"image-keyboard-response",145,173429,"0.0-4.44-1.44","pd04tc7jledesj9",439,"25.csv","","null","resources/maskTrios/L1BB.jpg","null","",NA,NA,NA,NA,""
"image-keyboard-response",146,174632,"0.0-4.44-2.44","pd04tc7jledesj9",439,"25.csv","","null","resources/images/fishbone.png","null","",NA,NA,NA,NA,""
"image-keyboard-response",147,174665,"0.0-4.45-0.45","pd04tc7jledesj9",439,"25.csv","","29.600000023841858","resources/trios/L1T4A2.jpg","37","restless",0.5,0.5,0.7,0.575877566675647,"false"
"image-keyboard-response",148,175068,"0.0-4.45-1.45","pd04tc7jledesj9",439,"25.csv","","null","resources/maskTrios/L1BB.jpg","null","",NA,NA,NA,NA,""
"image-keyboard-response",149,176270,"0.0-4.45-2.45","pd04tc7jledesj9",439,"25.csv","","null","resources/images/fishbone.png","null","",NA,NA,NA,NA,""
"image-keyboard-response",150,176310,"0.0-4.46-0.46","pd04tc7jledesj9",439,"25.csv","","36.799999952316284","resources/trios/L1T4A2.jpg","37","restless",0.5,0.6,0.6,0.0469690643299887,"true"
"image-keyboard-response",151,176714,"0.0-4.46-1.46","pd04tc7jledesj9",439,"25.csv","","null","resources/maskTrios/L1BB.jpg","null","",NA,NA,NA,NA,""
"image-keyboard-response",152,177919,"0.0-4.46-2.46","pd04tc7jledesj9",439,"25.csv","","null","resources/images/coin2.png","null","",NA,NA,NA,NA,""
"image-keyboard-response",153,177967,"0.0-4.47-0.47","pd04tc7jledesj9",439,"25.csv","","45.09999990463257","resources/trios/L1T4A2.jpg","37","restless",0.5,0.6,0.7,0.913820431363127,"false"
"image-keyboard-response",154,178369,"0.0-4.47-1.47","pd04tc7jledesj9",439,"25.csv","","null","resources/maskTrios/L1BB.jpg","null","",NA,NA,NA,NA,""
"image-keyboard-response",155,179572,"0.0-4.47-2.47","pd04tc7jledesj9",439,"25.csv","","null","resources/images/fishbone.png","null","",NA,NA,NA,NA,""
"image-keyboard-response",156,179681,"0.0-4.48-0.48","pd04tc7jledesj9",439,"25.csv","","106.20000004768372","resources/trios/L1T4A2.jpg","37","restless",0.5,0.6,0.7,0.619087767639962,"false"
"image-keyboard-response",157,180085,"0.0-4.48-1.48","pd04tc7jledesj9",439,"25.csv","","null","resources/maskTrios/L1BB.jpg","null","",NA,NA,NA,NA,""
"image-keyboard-response",158,181290,"0.0-4.48-2.48","pd04tc7jledesj9",439,"25.csv","","null","resources/images/fishbone.png","null","",NA,NA,NA,NA,""
"image-keyboard-response",159,181339,"0.0-4.49-0.49","pd04tc7jledesj9",439,"25.csv","","45.800000071525574","resources/trios/L1T4A2.jpg","38","restless",0.5,0.6,0.7,0.234393338339019,"true"
"image-keyboard-response",160,181741,"0.0-4.49-1.49","pd04tc7jledesj9",439,"25.csv","","null","resources/maskTrios/BT4B.jpg","null","",NA,NA,NA,NA,""
"image-keyboard-response",161,182947,"0.0-4.49-2.49","pd04tc7jledesj9",439,"25.csv","","null","resources/images/coin2.png","null","",NA,NA,NA,NA,""
"image-keyboard-response",162,183037,"0.0-4.50-0.50","pd04tc7jledesj9",439,"25.csv","","86.5","resources/trios/L1T4A2.jpg","38","restless",0.4,0.6,0.7,0.940261785469207,"false"
"image-keyboard-response",163,183441,"0.0-4.50-1.50","pd04tc7jledesj9",439,"25.csv","","null","resources/maskTrios/BT4B.jpg","null","",NA,NA,NA,NA,""
"image-keyboard-response",164,184644,"0.0-4.50-2.50","pd04tc7jledesj9",439,"25.csv","","null","resources/images/fishbone.png","null","",NA,NA,NA,NA,""
"image-keyboard-response",165,184689,"0.0-4.51-0.51","pd04tc7jledesj9",439,"25.csv","","42.200000047683716","resources/trios/L1T4A2.jpg","38","restless",0.4,0.6,0.7,0.502845716923401,"true"
"image-keyboard-response",166,185104,"0.0-4.51-1.51","pd04tc7jledesj9",439,"25.csv","","null","resources/maskTrios/BT4B.jpg","null","",NA,NA,NA,NA,""
"image-keyboard-response",167,186309,"0.0-4.51-2.51","pd04tc7jledesj9",439,"25.csv","","null","resources/images/coin2.png","null","",NA,NA,NA,NA,""
"image-keyboard-response",168,186475,"0.0-4.52-0.52","pd04tc7jledesj9",439,"25.csv","","163.70000004768372","resources/trios/L1T4A2.jpg","38","restless",0.4,0.6,0.7,0.606132693867601,"false"
"image-keyboard-response",169,186880,"0.0-4.52-1.52","pd04tc7jledesj9",439,"25.csv","","null","resources/maskTrios/BT4B.jpg","null","",NA,NA,NA,NA,""
"image-keyboard-response",170,188084,"0.0-4.52-2.52","pd04tc7jledesj9",439,"25.csv","","null","resources/images/fishbone.png","null","",NA,NA,NA,NA,""
"image-keyboard-response",171,188494,"0.0-4.53-0.53","pd04tc7jledesj9",439,"25.csv","","407.39999997615814","resources/trios/L1T4A2.jpg","37","restless",0.5,0.5,0.6,0.318368969118654,"true"
"image-keyboard-response",172,188900,"0.0-4.53-1.53","pd04tc7jledesj9",439,"25.csv","","null","resources/maskTrios/L1BB.jpg","null","",NA,NA,NA,NA,""
"image-keyboard-response",173,190103,"0.0-4.53-2.53","pd04tc7jledesj9",439,"25.csv","","null","resources/images/coin2.png","null","",NA,NA,NA,NA,""
"image-keyboard-response",174,190632,"0.0-4.54-0.54","pd04tc7jledesj9",439,"25.csv","","525.5","resources/trios/L1T4A2.jpg","37","restless",0.5,0.5,0.6,0.287267017955429,"true"
"image-keyboard-response",175,191039,"0.0-4.54-1.54","pd04tc7jledesj9",439,"25.csv","","null","resources/maskTrios/L1BB.jpg","null","",NA,NA,NA,NA,""
"image-keyboard-response",176,192242,"0.0-4.54-2.54","pd04tc7jledesj9",439,"25.csv","","null","resources/images/coin2.png","null","",NA,NA,NA,NA,""
"image-keyboard-response",177,193287,"0.0-4.55-0.55","pd04tc7jledesj9",439,"25.csv","","1042.1000000238419","resources/trios/L1T4A2.jpg","37","restless",0.5,0.5,0.6,0.866298545582445,"false"
"image-keyboard-response",178,193693,"0.0-4.55-1.55","pd04tc7jledesj9",439,"25.csv","","null","resources/maskTrios/L1BB.jpg","null","",NA,NA,NA,NA,""
"image-keyboard-response",179,194896,"0.0-4.55-2.55","pd04tc7jledesj9",439,"25.csv","","null","resources/images/fishbone.png","null","",NA,NA,NA,NA,""
"image-keyboard-response",180,195014,"0.0-4.56-0.56","pd04tc7jledesj9",439,"25.csv","","115.60000002384186","resources/trios/L1T4A2.jpg","37","restless",0.5,0.5,0.6,0.266503412646584,"true"
"image-keyboard-response",181,195417,"0.0-4.56-1.56","pd04tc7jledesj9",439,"25.csv","","null","resources/maskTrios/L1BB.jpg","null","",NA,NA,NA,NA,""
"image-keyboard-response",182,196621,"0.0-4.56-2.56","pd04tc7jledesj9",439,"25.csv","","null","resources/images/coin2.png","null","",NA,NA,NA,NA,""
"image-keyboard-response",183,196684,"0.0-4.57-0.57","pd04tc7jledesj9",439,"25.csv","","59.300000071525574","resources/trios/L1T4A2.jpg","39","restless",0.5,0.5,0.6,0.084351923131976,"true"
"image-keyboard-response",184,197087,"0.0-4.57-1.57","pd04tc7jledesj9",439,"25.csv","","null","resources/maskTrios/BBA2.jpg","null","",NA,NA,NA,NA,""
"image-keyboard-response",185,198292,"0.0-4.57-2.57","pd04tc7jledesj9",439,"25.csv","","null","resources/images/coin2.png","null","",NA,NA,NA,NA,""
"image-keyboard-response",186,198708,"0.0-4.58-0.58","pd04tc7jledesj9",439,"25.csv","","412.90000009536743","resources/trios/L1T4A2.jpg","39","restless",0.5,0.5,0.6,0.549234461771485,"true"
"image-keyboard-response",187,199112,"0.0-4.58-1.58","pd04tc7jledesj9",439,"25.csv","","null","resources/maskTrios/BBA2.jpg","null","",NA,NA,NA,NA,""
"image-keyboard-response",188,200316,"0.0-4.58-2.58","pd04tc7jledesj9",439,"25.csv","","null","resources/images/coin2.png","null","",NA,NA,NA,NA,""
"image-keyboard-response",189,200368,"0.0-4.59-0.59","pd04tc7jledesj9",439,"25.csv","","47.89999997615814","resources/trios/L1T4A2.jpg","39","restless",0.5,0.5,0.5,0.864825779936029,"false"
"image-keyboard-response",190,200773,"0.0-4.59-1.59","pd04tc7jledesj9",439,"25.csv","","null","resources/maskTrios/BBA2.jpg","null","",NA,NA,NA,NA,""
"image-keyboard-response",191,201977,"0.0-4.59-2.59","pd04tc7jledesj9",439,"25.csv","","null","resources/images/fishbone.png","null","",NA,NA,NA,NA,""
"image-keyboard-response",192,202006,"0.0-4.60-0.60","pd04tc7jledesj9",439,"25.csv","","25.5","resources/trios/L1T4A2.jpg","39","restless",0.5,0.5,0.5,0.634304656684376,"false"
"image-keyboard-response",193,202409,"0.0-4.60-1.60","pd04tc7jledesj9",439,"25.csv","","null","resources/maskTrios/BBA2.jpg","null","",NA,NA,NA,NA,""
"image-keyboard-response",194,203612,"0.0-4.60-2.60","pd04tc7jledesj9",439,"25.csv","","null","resources/images/fishbone.png","null","",NA,NA,NA,NA,""
"image-keyboard-response",195,203635,"0.0-4.61-0.61","pd04tc7jledesj9",439,"25.csv","","19.09999990463257","resources/trios/L1T4A2.jpg","37","restless",0.5,0.5,0.5,0.37657363204804,"true"
"image-keyboard-response",196,204038,"0.0-4.61-1.61","pd04tc7jledesj9",439,"25.csv","","null","resources/maskTrios/L1BB.jpg","null","",NA,NA,NA,NA,""
"image-keyboard-response",197,205243,"0.0-4.61-2.61","pd04tc7jledesj9",439,"25.csv","","null","resources/images/coin2.png","null","",NA,NA,NA,NA,""
"image-keyboard-response",198,205348,"0.0-4.62-0.62","pd04tc7jledesj9",439,"25.csv","","102.29999995231628","resources/trios/L1T4A2.jpg","37","restless",0.5,0.5,0.5,0.281094246083984,"true"
"image-keyboard-response",199,205751,"0.0-4.62-1.62","pd04tc7jledesj9",439,"25.csv","","null","resources/maskTrios/L1BB.jpg","null","",NA,NA,NA,NA,""
"image-keyboard-response",200,206955,"0.0-4.62-2.62","pd04tc7jledesj9",439,"25.csv","","null","resources/images/coin2.png","null","",NA,NA,NA,NA,""
"image-keyboard-response",201,207061,"0.0-4.63-0.63","pd04tc7jledesj9",439,"25.csv","","102.30000007152557","resources/trios/L1T4A2.jpg","37","restless",0.5,0.5,0.5,0.0339645692216985,"true"
"image-keyboard-response",202,207464,"0.0-4.63-1.63","pd04tc7jledesj9",439,"25.csv","","null","resources/maskTrios/L1BB.jpg","null","",NA,NA,NA,NA,""
"image-keyboard-response",203,208667,"0.0-4.63-2.63","pd04tc7jledesj9",439,"25.csv","","null","resources/images/coin2.png","null","",NA,NA,NA,NA,""
"image-keyboard-response",204,208946,"0.0-4.64-0.64","pd04tc7jledesj9",439,"25.csv","","276.59999990463257","resources/trios/L1T4A2.jpg","37","restless",0.5,0.5,0.5,0.762035603407244,"false"
"image-keyboard-response",205,209349,"0.0-4.64-1.64","pd04tc7jledesj9",439,"25.csv","","null","resources/maskTrios/L1BB.jpg","null","",NA,NA,NA,NA,""
"image-keyboard-response",206,210552,"0.0-4.64-2.64","pd04tc7jledesj9",439,"25.csv","","null","resources/images/fishbone.png","null","",NA,NA,NA,NA,""
"image-keyboard-response",207,210879,"0.0-4.65-0.65","pd04tc7jledesj9",439,"25.csv","","323.10000002384186","resources/trios/L1T4A2.jpg","37","restless",0.5,0.5,0.5,0.607520765799453,"false"
"image-keyboard-response",208,211284,"0.0-4.65-1.65","pd04tc7jledesj9",439,"25.csv","","null","resources/maskTrios/L1BB.jpg","null","",NA,NA,NA,NA,""
"image-keyboard-response",209,212489,"0.0-4.65-2.65","pd04tc7jledesj9",439,"25.csv","","null","resources/images/fishbone.png","null","",NA,NA,NA,NA,""
"image-keyboard-response",210,212523,"0.0-4.66-0.66","pd04tc7jledesj9",439,"25.csv","","30.699999928474426","resources/trios/L1T4A2.jpg","38","restless",0.4,0.5,0.5,0.613299683269898,"false"
"image-keyboard-response",211,212926,"0.0-4.66-1.66","pd04tc7jledesj9",439,"25.csv","","null","resources/maskTrios/BT4B.jpg","null","",NA,NA,NA,NA,""
"image-keyboard-response",212,214129,"0.0-4.66-2.66","pd04tc7jledesj9",439,"25.csv","","null","resources/images/fishbone.png","null","",NA,NA,NA,NA,""
"image-keyboard-response",213,214226,"0.0-4.67-0.67","pd04tc7jledesj9",439,"25.csv","","92.89999997615814","resources/trios/L1T4A2.jpg","39","restless",0.4,0.5,0.4,0.673177995633164,"false"
"image-keyboard-response",214,214631,"0.0-4.67-1.67","pd04tc7jledesj9",439,"25.csv","","null","resources/maskTrios/BBA2.jpg","null","",NA,NA,NA,NA,""
"image-keyboard-response",215,215834,"0.0-4.67-2.67","pd04tc7jledesj9",439,"25.csv","","null","resources/images/fishbone.png","null","",NA,NA,NA,NA,""
"image-keyboard-response",216,215928,"0.0-4.68-0.68","pd04tc7jledesj9",439,"25.csv","","90.39999997615814","resources/trios/L1T4A2.jpg","39","restless",0.4,0.6,0.4,0.516335655388083,"false"
"image-keyboard-response",217,216340,"0.0-4.68-1.68","pd04tc7jledesj9",439,"25.csv","","null","resources/maskTrios/BBA2.jpg","null","",NA,NA,NA,NA,""
"image-keyboard-response",218,217543,"0.0-4.68-2.68","pd04tc7jledesj9",439,"25.csv","","null","resources/images/fishbone.png","null","",NA,NA,NA,NA,""
"image-keyboard-response",219,217566,"0.0-4.69-0.69","pd04tc7jledesj9",439,"25.csv","","19","resources/trios/L1T4A2.jpg","37","restless",0.4,0.6,0.4,0.511514957154085,"false"
"image-keyboard-response",220,217969,"0.0-4.69-1.69","pd04tc7jledesj9",439,"25.csv","","null","resources/maskTrios/L1BB.jpg","null","",NA,NA,NA,NA,""
"image-keyboard-response",221,219173,"0.0-4.69-2.69","pd04tc7jledesj9",439,"25.csv","","null","resources/images/fishbone.png","null","",NA,NA,NA,NA,""
"image-keyboard-response",222,225486,"0.0-4.70-0.70","pd04tc7jledesj9",439,"25.csv","","6309.200000047684","resources/trios/L1T4A2.jpg","37","restless",0.3,0.6,0.4,0.943305628844454,"false"
"image-keyboard-response",223,225891,"0.0-4.70-1.70","pd04tc7jledesj9",439,"25.csv","","null","resources/maskTrios/L1BB.jpg","null","",NA,NA,NA,NA,""
"image-keyboard-response",224,227095,"0.0-4.70-2.70","pd04tc7jledesj9",439,"25.csv","","null","resources/images/fishbone.png","null","",NA,NA,NA,NA,""
"image-keyboard-response",225,230338,"0.0-4.71-0.71","pd04tc7jledesj9",439,"25.csv","","3240.3000000715256","resources/trios/L1T4A2.jpg","39","restless",0.3,0.6,0.3,0.411333920963032,"false"
"image-keyboard-response",226,230743,"0.0-4.71-1.71","pd04tc7jledesj9",439,"25.csv","","null","resources/maskTrios/BBA2.jpg","null","",NA,NA,NA,NA,""
"image-keyboard-response",227,231947,"0.0-4.71-2.71","pd04tc7jledesj9",439,"25.csv","","null","resources/images/fishbone.png","null","",NA,NA,NA,NA,""
"image-keyboard-response",228,232058,"0.0-4.72-0.72","pd04tc7jledesj9",439,"25.csv","","107.5","resources/trios/L1T4A2.jpg","37","restless",0.3,0.6,0.3,0.529861659609574,"false"
"image-keyboard-response",229,232461,"0.0-4.72-1.72","pd04tc7jledesj9",439,"25.csv","","null","resources/maskTrios/L1BB.jpg","null","",NA,NA,NA,NA,""
"image-keyboard-response",230,233665,"0.0-4.72-2.72","pd04tc7jledesj9",439,"25.csv","","null","resources/images/fishbone.png","null","",NA,NA,NA,NA,""
"image-keyboard-response",231,233749,"0.0-4.73-0.73","pd04tc7jledesj9",439,"25.csv","","80.60000002384186","resources/trios/L1T4A2.jpg","38","restless",0.3,0.7,0.3,0.0902709338650098,"true"
"image-keyboard-response",232,234159,"0.0-4.73-1.73","pd04tc7jledesj9",439,"25.csv","","null","resources/maskTrios/BT4B.jpg","null","",NA,NA,NA,NA,""
"image-keyboard-response",233,235374,"0.0-4.73-2.73","pd04tc7jledesj9",439,"25.csv","","null","resources/images/coin2.png","null","",NA,NA,NA,NA,""
"image-keyboard-response",234,235449,"0.0-4.74-0.74","pd04tc7jledesj9",439,"25.csv","","72.79999995231628","resources/trios/L1T4A2.jpg","38","restless",0.3,0.7,0.2,0.939504307316626,"false"
"image-keyboard-response",235,235852,"0.0-4.74-1.74","pd04tc7jledesj9",439,"25.csv","","null","resources/maskTrios/BT4B.jpg","null","",NA,NA,NA,NA,""
"image-keyboard-response",236,237054,"0.0-4.74-2.74","pd04tc7jledesj9",439,"25.csv","","null","resources/images/fishbone.png","null","",NA,NA,NA,NA,""
"image-keyboard-response",237,237342,"0.0-4.75-0.75","pd04tc7jledesj9",439,"25.csv","","284.3000000715256","resources/trios/L1T4A2.jpg","39","restless",0.2,0.7,0.2,0.0291549146425285,"true"
"image-keyboard-response",238,237745,"0.0-4.75-1.75","pd04tc7jledesj9",439,"25.csv","","null","resources/maskTrios/BBA2.jpg","null","",NA,NA,NA,NA,""
"image-keyboard-response",239,238949,"0.0-4.75-2.75","pd04tc7jledesj9",439,"25.csv","","null","resources/images/coin2.png","null","",NA,NA,NA,NA,""
"image-keyboard-response",240,239071,"0.0-4.76-0.76","pd04tc7jledesj9",439,"25.csv","","119.10000002384186","resources/trios/L1T4A2.jpg","37","restless",0.2,0.7,0.2,0.350253611510142,"false"
"image-keyboard-response",241,239475,"0.0-4.76-1.76","pd04tc7jledesj9",439,"25.csv","","null","resources/maskTrios/L1BB.jpg","null","",NA,NA,NA,NA,""
"image-keyboard-response",242,240678,"0.0-4.76-2.76","pd04tc7jledesj9",439,"25.csv","","null","resources/images/fishbone.png","null","",NA,NA,NA,NA,""
"image-keyboard-response",243,240733,"0.0-4.77-0.77","pd04tc7jledesj9",439,"25.csv","","51.700000047683716","resources/trios/L1T4A2.jpg","39","restless",0.2,0.7,0.2,0.16672702550656,"true"
"image-keyboard-response",244,241137,"0.0-4.77-1.77","pd04tc7jledesj9",439,"25.csv","","null","resources/maskTrios/BBA2.jpg","null","",NA,NA,NA,NA,""
"image-keyboard-response",245,242343,"0.0-4.77-2.77","pd04tc7jledesj9",439,"25.csv","","null","resources/images/coin2.png","null","",NA,NA,NA,NA,""
"image-keyboard-response",246,246253,"0.0-4.78-0.78","pd04tc7jledesj9",439,"25.csv","","3907.100000023842","resources/trios/L1T4A2.jpg","39","restless",0.3,0.7,0.1,0.86935985232874,"false"
"image-keyboard-response",247,246659,"0.0-4.78-1.78","pd04tc7jledesj9",439,"25.csv","","null","resources/maskTrios/BBA2.jpg","null","",NA,NA,NA,NA,""
"image-keyboard-response",248,247862,"0.0-4.78-2.78","pd04tc7jledesj9",439,"25.csv","","null","resources/images/fishbone.png","null","",NA,NA,NA,NA,""
"image-keyboard-response",249,250605,"0.0-4.79-0.79","pd04tc7jledesj9",439,"25.csv","","2739.1999999284744","resources/trios/L1T4A2.jpg","37","restless",0.3,0.7,0.1,0.300882703263733,"false"
"image-keyboard-response",250,251011,"0.0-4.79-1.79","pd04tc7jledesj9",439,"25.csv","","null","resources/maskTrios/L1BB.jpg","null","",NA,NA,NA,NA,""
"image-keyboard-response",251,252216,"0.0-4.79-2.79","pd04tc7jledesj9",439,"25.csv","","null","resources/images/fishbone.png","null","",NA,NA,NA,NA,""
"image-keyboard-response",252,252305,"0.0-4.80-0.80","pd04tc7jledesj9",439,"25.csv","","88.10000002384186","resources/trios/L1T4A2.jpg","38","restless",0.2,0.7,0.1,0.156891282470984,"true"
"image-keyboard-response",253,252709,"0.0-4.80-1.80","pd04tc7jledesj9",439,"25.csv","","null","resources/maskTrios/BT4B.jpg","null","",NA,NA,NA,NA,""
"image-keyboard-response",254,253913,"0.0-4.80-2.80","pd04tc7jledesj9",439,"25.csv","","null","resources/images/coin2.png","null","",NA,NA,NA,NA,""
"image-keyboard-response",255,255390,"0.0-4.81-0.81","pd04tc7jledesj9",439,"25.csv","","1474.3000000715256","resources/trios/L1T4A2.jpg","38","restless",0.2,0.7,0.1,0.559613741770474,"true"
"image-keyboard-response",256,255795,"0.0-4.81-1.81","pd04tc7jledesj9",439,"25.csv","","null","resources/maskTrios/BT4B.jpg","null","",NA,NA,NA,NA,""
"image-keyboard-response",257,256999,"0.0-4.81-2.81","pd04tc7jledesj9",439,"25.csv","","null","resources/images/coin2.png","null","",NA,NA,NA,NA,""
"image-keyboard-response",258,257480,"0.0-4.82-0.82","pd04tc7jledesj9",439,"25.csv","","477.6999999284744","resources/trios/L1T4A2.jpg","37","restless",0.2,0.7,0.1,0.283455574293092,"false"
"image-keyboard-response",259,257884,"0.0-4.82-1.82","pd04tc7jledesj9",439,"25.csv","","null","resources/maskTrios/L1BB.jpg","null","",NA,NA,NA,NA,""
"image-keyboard-response",260,259089,"0.0-4.82-2.82","pd04tc7jledesj9",439,"25.csv","","null","resources/images/fishbone.png","null","",NA,NA,NA,NA,""
"image-keyboard-response",261,274012,"0.0-4.83-0.83","pd04tc7jledesj9",439,"25.csv","","14919.699999928474","resources/trios/L1T4A2.jpg","37","restless",0.2,0.7,0.1,0.906281141334913,"false"
"image-keyboard-response",262,274418,"0.0-4.83-1.83","pd04tc7jledesj9",439,"25.csv","","null","resources/maskTrios/L1BB.jpg","null","",NA,NA,NA,NA,""
"image-keyboard-response",263,275622,"0.0-4.83-2.83","pd04tc7jledesj9",439,"25.csv","","null","resources/images/fishbone.png","null","",NA,NA,NA,NA,""
"image-keyboard-response",264,275796,"0.0-4.84-0.84","pd04tc7jledesj9",439,"25.csv","","170.60000002384186","resources/trios/L1T4A2.jpg","39","restless",0.2,0.7,0.1,0.82905982980777,"false"
"image-keyboard-response",265,276200,"0.0-4.84-1.84","pd04tc7jledesj9",439,"25.csv","","null","resources/maskTrios/BBA2.jpg","null","",NA,NA,NA,NA,""
"image-keyboard-response",266,277405,"0.0-4.84-2.84","pd04tc7jledesj9",439,"25.csv","","null","resources/images/fishbone.png","null","",NA,NA,NA,NA,""
"image-keyboard-response",267,278529,"0.0-4.85-0.85","pd04tc7jledesj9",439,"25.csv","","1121","resources/trios/L1T4A2.jpg","39","restless",0.2,0.7,0.1,0.408864425120388,"false"
"image-keyboard-response",268,278939,"0.0-4.85-1.85","pd04tc7jledesj9",439,"25.csv","","null","resources/maskTrios/BBA2.jpg","null","",NA,NA,NA,NA,""
"image-keyboard-response",269,280144,"0.0-4.85-2.85","pd04tc7jledesj9",439,"25.csv","","null","resources/images/fishbone.png","null","",NA,NA,NA,NA,""
"image-keyboard-response",270,280154,"0.0-4.86-0.86","pd04tc7jledesj9",439,"25.csv","","6.600000023841858","resources/trios/L1T4A2.jpg","37","restless",0.2,0.7,0.1,0.225705710117176,"false"
"image-keyboard-response",271,280559,"0.0-4.86-1.86","pd04tc7jledesj9",439,"25.csv","","null","resources/maskTrios/L1BB.jpg","null","",NA,NA,NA,NA,""
"image-keyboard-response",272,281766,"0.0-4.86-2.86","pd04tc7jledesj9",439,"25.csv","","null","resources/images/fishbone.png","null","",NA,NA,NA,NA,""
"image-keyboard-response",273,281924,"0.0-4.87-0.87","pd04tc7jledesj9",439,"25.csv","","154.69999992847443","resources/trios/L1T4A2.jpg","39","restless",0.2,0.7,0.1,0.119128326755822,"false"
"image-keyboard-response",274,282329,"0.0-4.87-1.87","pd04tc7jledesj9",439,"25.csv","","null","resources/maskTrios/BBA2.jpg","null","",NA,NA,NA,NA,""
"image-keyboard-response",275,283533,"0.0-4.87-2.87","pd04tc7jledesj9",439,"25.csv","","null","resources/images/fishbone.png","null","",NA,NA,NA,NA,""
"image-keyboard-response",276,285663,"0.0-4.88-0.88","pd04tc7jledesj9",439,"25.csv","","2126.399999976158","resources/trios/L1T4A2.jpg","38","restless",0.2,0.7,0.2,0.984729700556296,"false"
"image-keyboard-response",277,286068,"0.0-4.88-1.88","pd04tc7jledesj9",439,"25.csv","","null","resources/maskTrios/BT4B.jpg","null","",NA,NA,NA,NA,""
"image-keyboard-response",278,287270,"0.0-4.88-2.88","pd04tc7jledesj9",439,"25.csv","","null","resources/images/fishbone.png","null","",NA,NA,NA,NA,""
"image-keyboard-response",279,294672,"0.0-4.89-0.89","pd04tc7jledesj9",439,"25.csv","","7397.900000095367","resources/trios/L1T4A2.jpg","37","restless",0.2,0.7,0.2,0.0840769402680921,"true"
"image-keyboard-response",280,295079,"0.0-4.89-1.89","pd04tc7jledesj9",439,"25.csv","","null","resources/maskTrios/L1BB.jpg","null","",NA,NA,NA,NA,""
"image-keyboard-response",281,296282,"0.0-4.89-2.89","pd04tc7jledesj9",439,"25.csv","","null","resources/images/coin2.png","null","",NA,NA,NA,NA,""
"image-keyboard-response",282,298543,"0.0-4.90-0.90","pd04tc7jledesj9",439,"25.csv","","2258.899999976158","resources/trios/L1T4A2.jpg","39","restless",0.2,0.7,0.2,0.8280422090634,"false"
"image-keyboard-response",283,298951,"0.0-4.90-1.90","pd04tc7jledesj9",439,"25.csv","","null","resources/maskTrios/BBA2.jpg","null","",NA,NA,NA,NA,""
"image-keyboard-response",284,300154,"0.0-4.90-2.90","pd04tc7jledesj9",439,"25.csv","","null","resources/images/fishbone.png","null","",NA,NA,NA,NA,""
"image-keyboard-response",285,302169,"0.0-4.91-0.91","pd04tc7jledesj9",439,"25.csv","","2012.6000000238419","resources/trios/L1T4A2.jpg","39","restless",0.2,0.7,0.2,0.448575588017789,"false"
"image-keyboard-response",286,302588,"0.0-4.91-1.91","pd04tc7jledesj9",439,"25.csv","","null","resources/maskTrios/BBA2.jpg","null","",NA,NA,NA,NA,""
"image-keyboard-response",287,303795,"0.0-4.91-2.91","pd04tc7jledesj9",439,"25.csv","","null","resources/images/fishbone.png","null","",NA,NA,NA,NA,""
"image-keyboard-response",288,303919,"0.0-4.92-0.92","pd04tc7jledesj9",439,"25.csv","","120.60000002384186","resources/trios/L1T4A2.jpg","38","restless",0.2,0.7,0.2,0.833845577361497,"false"
"image-keyboard-response",289,304324,"0.0-4.92-1.92","pd04tc7jledesj9",439,"25.csv","","null","resources/maskTrios/BT4B.jpg","null","",NA,NA,NA,NA,""
"image-keyboard-response",290,305528,"0.0-4.92-2.92","pd04tc7jledesj9",439,"25.csv","","null","resources/images/fishbone.png","null","",NA,NA,NA,NA,""
"image-keyboard-response",291,305541,"0.0-4.93-0.93","pd04tc7jledesj9",439,"25.csv","","10.600000023841858","resources/trios/L1T4A2.jpg","37","restless",0.2,0.6,0.2,0.31699284112527,"false"
"image-keyboard-response",292,305943,"0.0-4.93-1.93","pd04tc7jledesj9",439,"25.csv","","null","resources/maskTrios/L1BB.jpg","null","",NA,NA,NA,NA,""
"image-keyboard-response",293,307146,"0.0-4.93-2.93","pd04tc7jledesj9",439,"25.csv","","null","resources/images/fishbone.png","null","",NA,NA,NA,NA,""
"image-keyboard-response",294,307284,"0.0-4.94-0.94","pd04tc7jledesj9",439,"25.csv","","134.19999992847443","resources/trios/L1T4A2.jpg","38","restless",0.2,0.6,0.2,0.634853372661435,"false"
"image-keyboard-response",295,307688,"0.0-4.94-1.94","pd04tc7jledesj9",439,"25.csv","","null","resources/maskTrios/BT4B.jpg","null","",NA,NA,NA,NA,""
"image-keyboard-response",296,308893,"0.0-4.94-2.94","pd04tc7jledesj9",439,"25.csv","","null","resources/images/fishbone.png","null","",NA,NA,NA,NA,""
"image-keyboard-response",297,308949,"0.0-4.95-0.95","pd04tc7jledesj9",439,"25.csv","","53.10000002384186","resources/trios/L1T4A2.jpg","39","restless",0.2,0.7,0.2,0.94177767280333,"false"
"image-keyboard-response",298,309354,"0.0-4.95-1.95","pd04tc7jledesj9",439,"25.csv","","null","resources/maskTrios/BBA2.jpg","null","",NA,NA,NA,NA,""
"image-keyboard-response",299,310557,"0.0-4.95-2.95","pd04tc7jledesj9",439,"25.csv","","null","resources/images/fishbone.png","null","",NA,NA,NA,NA,""
"image-keyboard-response",300,310622,"0.0-4.96-0.96","pd04tc7jledesj9",439,"25.csv","","61.299999952316284","resources/trios/L1T4A2.jpg","39","restless",0.2,0.7,0.2,0.692025247476182,"false"
"image-keyboard-response",301,311024,"0.0-4.96-1.96","pd04tc7jledesj9",439,"25.csv","","null","resources/maskTrios/BBA2.jpg","null","",NA,NA,NA,NA,""
"image-keyboard-response",302,312230,"0.0-4.96-2.96","pd04tc7jledesj9",439,"25.csv","","null","resources/images/fishbone.png","null","",NA,NA,NA,NA,""
"image-keyboard-response",303,312439,"0.0-4.97-0.97","pd04tc7jledesj9",439,"25.csv","","204.70000004768372","resources/trios/L1T4A2.jpg","39","restless",0.2,0.7,0.2,0.743284025197527,"false"
"image-keyboard-response",304,312844,"0.0-4.97-1.97","pd04tc7jledesj9",439,"25.csv","","null","resources/maskTrios/BBA2.jpg","null","",NA,NA,NA,NA,""
"image-keyboard-response",305,314049,"0.0-4.97-2.97","pd04tc7jledesj9",439,"25.csv","","null","resources/images/fishbone.png","null","",NA,NA,NA,NA,""
"image-keyboard-response",306,315048,"0.0-4.98-0.98","pd04tc7jledesj9",439,"25.csv","","995.7000000476837","resources/trios/L1T4A2.jpg","39","restless",0.2,0.7,0.2,0.246956084435292,"false"
"image-keyboard-response",307,315455,"0.0-4.98-1.98","pd04tc7jledesj9",439,"25.csv","","null","resources/maskTrios/BBA2.jpg","null","",NA,NA,NA,NA,""
"image-keyboard-response",308,316659,"0.0-4.98-2.98","pd04tc7jledesj9",439,"25.csv","","null","resources/images/fishbone.png","null","",NA,NA,NA,NA,""
"image-keyboard-response",309,316767,"0.0-4.99-0.99","pd04tc7jledesj9",439,"25.csv","","104.80000007152557","resources/trios/L1T4A2.jpg","37","restless",0.2,0.7,0.2,0.852071660846369,"false"
"image-keyboard-response",310,317170,"0.0-4.99-1.99","pd04tc7jledesj9",439,"25.csv","","null","resources/maskTrios/L1BB.jpg","null","",NA,NA,NA,NA,""
"image-keyboard-response",311,318374,"0.0-4.99-2.99","pd04tc7jledesj9",439,"25.csv","","null","resources/images/fishbone.png","null","",NA,NA,NA,NA,""
"image-keyboard-response",312,325679,"0.0-4.100-0.100","pd04tc7jledesj9",439,"25.csv","","7301.699999928474","resources/trios/L1T4A2.jpg","37","restless",0.2,0.7,0.2,0.524410672580714,"false"
"image-keyboard-response",313,326091,"0.0-4.100-1.100","pd04tc7jledesj9",439,"25.csv","","null","resources/maskTrios/L1BB.jpg","null","",NA,NA,NA,NA,""
"image-keyboard-response",314,327295,"0.0-4.100-2.100","pd04tc7jledesj9",439,"25.csv","","null","resources/images/fishbone.png","null","",NA,NA,NA,NA,""
"image-keyboard-response",315,327334,"0.0-4.101-0.101","pd04tc7jledesj9",439,"25.csv","","35.89999997615814","resources/trios/L1T4A2.jpg","39","restless",0.2,0.7,0.2,0.0575387066498658,"true"
"image-keyboard-response",316,327738,"0.0-4.101-1.101","pd04tc7jledesj9",439,"25.csv","","null","resources/maskTrios/BBA2.jpg","null","",NA,NA,NA,NA,""
"image-keyboard-response",317,328942,"0.0-4.101-2.101","pd04tc7jledesj9",439,"25.csv","","null","resources/images/coin2.png","null","",NA,NA,NA,NA,""
"image-keyboard-response",318,329047,"0.0-4.102-0.102","pd04tc7jledesj9",439,"25.csv","","101.59999990463257","resources/trios/L1T4A2.jpg","38","restless",0.2,0.6,0.2,0.797401068536142,"false"
"image-keyboard-response",319,329453,"0.0-4.102-1.102","pd04tc7jledesj9",439,"25.csv","","null","resources/maskTrios/BT4B.jpg","null","",NA,NA,NA,NA,""
"image-keyboard-response",320,330656,"0.0-4.102-2.102","pd04tc7jledesj9",439,"25.csv","","null","resources/images/fishbone.png","null","",NA,NA,NA,NA,""
"image-keyboard-response",321,332449,"0.0-4.103-0.103","pd04tc7jledesj9",439,"25.csv","","1789.4000000953674","resources/trios/L1T4A2.jpg","38","restless",0.2,0.6,0.2,0.0851217919228122,"true"
"image-keyboard-response",322,332855,"0.0-4.103-1.103","pd04tc7jledesj9",439,"25.csv","","null","resources/maskTrios/BT4B.jpg","null","",NA,NA,NA,NA,""
"image-keyboard-response",323,334059,"0.0-4.103-2.103","pd04tc7jledesj9",439,"25.csv","","null","resources/images/coin2.png","null","",NA,NA,NA,NA,""
"image-keyboard-response",324,347600,"0.0-4.104-0.104","pd04tc7jledesj9",439,"25.csv","","13537.899999976158","resources/trios/L1T4A2.jpg","37","restless",0.2,0.6,0.2,0.309650115645592,"false"
"image-keyboard-response",325,348005,"0.0-4.104-1.104","pd04tc7jledesj9",439,"25.csv","","null","resources/maskTrios/L1BB.jpg","null","",NA,NA,NA,NA,""
"image-keyboard-response",326,349210,"0.0-4.104-2.104","pd04tc7jledesj9",439,"25.csv","","null","resources/images/fishbone.png","null","",NA,NA,NA,NA,""
"image-keyboard-response",327,360279,"0.0-4.105-0.105","pd04tc7jledesj9",439,"25.csv","","11066.5","resources/trios/L1T4A2.jpg","37","restless",0.2,0.6,0.2,0.459426262051097,"false"
"image-keyboard-response",328,360684,"0.0-4.105-1.105","pd04tc7jledesj9",439,"25.csv","","null","resources/maskTrios/L1BB.jpg","null","",NA,NA,NA,NA,""
"image-keyboard-response",329,361887,"0.0-4.105-2.105","pd04tc7jledesj9",439,"25.csv","","null","resources/images/fishbone.png","null","",NA,NA,NA,NA,""
"image-keyboard-response",330,361931,"0.0-4.106-0.106","pd04tc7jledesj9",439,"25.csv","","38.60000002384186","resources/trios/L1T4A2.jpg","39","restless",0.2,0.6,0.2,0.555436803563459,"false"
"image-keyboard-response",331,362335,"0.0-4.106-1.106","pd04tc7jledesj9",439,"25.csv","","null","resources/maskTrios/BBA2.jpg","null","",NA,NA,NA,NA,""
"image-keyboard-response",332,363538,"0.0-4.106-2.106","pd04tc7jledesj9",439,"25.csv","","null","resources/images/fishbone.png","null","",NA,NA,NA,NA,""
"image-keyboard-response",333,363564,"0.0-4.107-0.107","pd04tc7jledesj9",439,"25.csv","","23","resources/trios/L1T4A2.jpg","38","restless",0.2,0.6,0.2,0.821894125481877,"false"
"image-keyboard-response",334,363969,"0.0-4.107-1.107","pd04tc7jledesj9",439,"25.csv","","null","resources/maskTrios/BT4B.jpg","null","",NA,NA,NA,NA,""
"image-keyboard-response",335,365174,"0.0-4.107-2.107","pd04tc7jledesj9",439,"25.csv","","null","resources/images/fishbone.png","null","",NA,NA,NA,NA,""
"image-keyboard-response",336,365205,"0.0-4.108-0.108","pd04tc7jledesj9",439,"25.csv","","27.799999952316284","resources/trios/L1T4A2.jpg","37","restless",0.2,0.6,0.2,0.0435866396317759,"true"
"image-keyboard-response",337,365610,"0.0-4.108-1.108","pd04tc7jledesj9",439,"25.csv","","null","resources/maskTrios/L1BB.jpg","null","",NA,NA,NA,NA,""
"image-keyboard-response",338,366814,"0.0-4.108-2.108","pd04tc7jledesj9",439,"25.csv","","null","resources/images/coin2.png","null","",NA,NA,NA,NA,""
"image-keyboard-response",339,366910,"0.0-4.109-0.109","pd04tc7jledesj9",439,"25.csv","","92.5","resources/trios/L1T4A2.jpg","37","restless",0.2,0.6,0.3,0.707786722342606,"false"
"image-keyboard-response",340,367313,"0.0-4.109-1.109","pd04tc7jledesj9",439,"25.csv","","null","resources/maskTrios/L1BB.jpg","null","",NA,NA,NA,NA,""
"image-keyboard-response",341,368516,"0.0-4.109-2.109","pd04tc7jledesj9",439,"25.csv","","null","resources/images/fishbone.png","null","",NA,NA,NA,NA,""
"image-keyboard-response",342,369377,"0.0-4.110-0.110","pd04tc7jledesj9",439,"25.csv","","857.2999999523163","resources/trios/L1T4A2.jpg","37","restless",0.3,0.6,0.3,0.0388746470655104,"true"
"image-keyboard-response",343,369782,"0.0-4.110-1.110","pd04tc7jledesj9",439,"25.csv","","null","resources/maskTrios/L1BB.jpg","null","",NA,NA,NA,NA,""
"image-keyboard-response",344,370984,"0.0-4.110-2.110","pd04tc7jledesj9",439,"25.csv","","null","resources/images/coin2.png","null","",NA,NA,NA,NA,""
"image-keyboard-response",345,370996,"0.0-4.111-0.111","pd04tc7jledesj9",439,"25.csv","","9","resources/trios/L1T4A2.jpg","37","restless",0.3,0.7,0.3,0.600317690005568,"false"
"image-keyboard-response",346,371400,"0.0-4.111-1.111","pd04tc7jledesj9",439,"25.csv","","null","resources/maskTrios/L1BB.jpg","null","",NA,NA,NA,NA,""
"image-keyboard-response",347,372603,"0.0-4.111-2.111","pd04tc7jledesj9",439,"25.csv","","null","resources/images/fishbone.png","null","",NA,NA,NA,NA,""
"image-keyboard-response",348,383533,"0.0-4.112-0.112","pd04tc7jledesj9",439,"25.csv","","10927.799999952316","resources/trios/L1T4A2.jpg","39","restless",0.3,0.6,0.3,0.890407164922638,"false"
"image-keyboard-response",349,383937,"0.0-4.112-1.112","pd04tc7jledesj9",439,"25.csv","","null","resources/maskTrios/BBA2.jpg","null","",NA,NA,NA,NA,""
"image-keyboard-response",350,385141,"0.0-4.112-2.112","pd04tc7jledesj9",439,"25.csv","","null","resources/images/fishbone.png","null","",NA,NA,NA,NA,""
"image-keyboard-response",351,385302,"0.0-4.113-0.113","pd04tc7jledesj9",439,"25.csv","","157.59999990463257","resources/trios/L1T4A2.jpg","37","restless",0.3,0.6,0.3,0.157992116609818,"true"
"image-keyboard-response",352,385706,"0.0-4.113-1.113","pd04tc7jledesj9",439,"25.csv","","null","resources/maskTrios/L1BB.jpg","null","",NA,NA,NA,NA,""
"image-keyboard-response",353,386911,"0.0-4.113-2.113","pd04tc7jledesj9",439,"25.csv","","null","resources/images/coin2.png","null","",NA,NA,NA,NA,""
"image-keyboard-response",354,386937,"0.0-4.114-0.114","pd04tc7jledesj9",439,"25.csv","","22.299999952316284","resources/trios/L1T4A2.jpg","37","restless",0.3,0.6,0.3,0.665029117835688,"false"
"image-keyboard-response",355,387343,"0.0-4.114-1.114","pd04tc7jledesj9",439,"25.csv","","null","resources/maskTrios/L1BB.jpg","null","",NA,NA,NA,NA,""
"image-keyboard-response",356,388547,"0.0-4.114-2.114","pd04tc7jledesj9",439,"25.csv","","null","resources/images/fishbone.png","null","",NA,NA,NA,NA,""
"image-keyboard-response",357,389219,"0.0-4.115-0.115","pd04tc7jledesj9",439,"25.csv","","669.6000000238419","resources/trios/L1T4A2.jpg","39","restless",0.3,0.6,0.3,0.2770352686904,"true"
"image-keyboard-response",358,389622,"0.0-4.115-1.115","pd04tc7jledesj9",439,"25.csv","","null","resources/maskTrios/BBA2.jpg","null","",NA,NA,NA,NA,""
"image-keyboard-response",359,390826,"0.0-4.115-2.115","pd04tc7jledesj9",439,"25.csv","","null","resources/images/coin2.png","null","",NA,NA,NA,NA,""
"image-keyboard-response",360,391096,"0.0-4.116-0.116","pd04tc7jledesj9",439,"25.csv","","268.5","resources/trios/L1T4A2.jpg","37","restless",0.3,0.6,0.3,0.780328971563771,"false"
"image-keyboard-response",361,391503,"0.0-4.116-1.116","pd04tc7jledesj9",439,"25.csv","","null","resources/maskTrios/L1BB.jpg","null","",NA,NA,NA,NA,""
"image-keyboard-response",362,392707,"0.0-4.116-2.116","pd04tc7jledesj9",439,"25.csv","","null","resources/images/fishbone.png","null","",NA,NA,NA,NA,""
"image-keyboard-response",363,397069,"0.0-4.117-0.117","pd04tc7jledesj9",439,"25.csv","","4358.200000047684","resources/trios/L1T4A2.jpg","39","restless",0.3,0.6,0.3,0.561975945124439,"false"
"image-keyboard-response",364,397476,"0.0-4.117-1.117","pd04tc7jledesj9",439,"25.csv","","null","resources/maskTrios/BBA2.jpg","null","",NA,NA,NA,NA,""
"image-keyboard-response",365,398680,"0.0-4.117-2.117","pd04tc7jledesj9",439,"25.csv","","null","resources/images/fishbone.png","null","",NA,NA,NA,NA,""
"image-keyboard-response",366,398740,"0.0-4.118-0.118","pd04tc7jledesj9",439,"25.csv","","57","resources/trios/L1T4A2.jpg","38","restless",0.3,0.6,0.4,0.612543720907765,"false"
"image-keyboard-response",367,399143,"0.0-4.118-1.118","pd04tc7jledesj9",439,"25.csv","","null","resources/maskTrios/BT4B.jpg","null","",NA,NA,NA,NA,""
"image-keyboard-response",368,400345,"0.0-4.118-2.118","pd04tc7jledesj9",439,"25.csv","","null","resources/images/fishbone.png","null","",NA,NA,NA,NA,""
"image-keyboard-response",369,402163,"0.0-4.119-0.119","pd04tc7jledesj9",439,"25.csv","","1814.2000000476837","resources/trios/L1T4A2.jpg","37","restless",0.4,0.6,0.4,0.438579916773457,"false"
"image-keyboard-response",370,402571,"0.0-4.119-1.119","pd04tc7jledesj9",439,"25.csv","","null","resources/maskTrios/L1BB.jpg","null","",NA,NA,NA,NA,""
"image-keyboard-response",371,403774,"0.0-4.119-2.119","pd04tc7jledesj9",439,"25.csv","","null","resources/images/fishbone.png","null","",NA,NA,NA,NA,""
"image-keyboard-response",372,403869,"0.0-4.120-0.120","pd04tc7jledesj9",439,"25.csv","","92.19999992847443","resources/trios/L1T4A2.jpg","39","restless",0.4,0.6,0.3,0.857595754943884,"false"
"image-keyboard-response",373,404273,"0.0-4.120-1.120","pd04tc7jledesj9",439,"25.csv","","null","resources/maskTrios/BBA2.jpg","null","",NA,NA,NA,NA,""
"image-keyboard-response",374,405476,"0.0-4.120-2.120","pd04tc7jledesj9",439,"25.csv","","null","resources/images/fishbone.png","null","",NA,NA,NA,NA,""
"image-keyboard-response",375,405735,"0.0-4.121-0.121","pd04tc7jledesj9",439,"25.csv","","255","resources/trios/L1T4A2.jpg","39","restless",0.4,0.5,0.3,0.808089202873895,"false"
"image-keyboard-response",376,406140,"0.0-4.121-1.121","pd04tc7jledesj9",439,"25.csv","","null","resources/maskTrios/BBA2.jpg","null","",NA,NA,NA,NA,""
"image-keyboard-response",377,407343,"0.0-4.121-2.121","pd04tc7jledesj9",439,"25.csv","","null","resources/images/fishbone.png","null","",NA,NA,NA,NA,""
"image-keyboard-response",378,407684,"0.0-4.122-0.122","pd04tc7jledesj9",439,"25.csv","","339.8000000715256","resources/trios/L1T4A2.jpg","39","restless",0.4,0.5,0.3,0.638666746701926,"false"
"image-keyboard-response",379,408090,"0.0-4.122-1.122","pd04tc7jledesj9",439,"25.csv","","null","resources/maskTrios/BBA2.jpg","null","",NA,NA,NA,NA,""
"image-keyboard-response",380,409294,"0.0-4.122-2.122","pd04tc7jledesj9",439,"25.csv","","null","resources/images/fishbone.png","null","",NA,NA,NA,NA,""
"image-keyboard-response",381,409342,"0.0-4.123-0.123","pd04tc7jledesj9",439,"25.csv","","44","resources/trios/L1T4A2.jpg","37","restless",0.4,0.5,0.2,0.563187450903691,"false"
"image-keyboard-response",382,409746,"0.0-4.123-1.123","pd04tc7jledesj9",439,"25.csv","","null","resources/maskTrios/L1BB.jpg","null","",NA,NA,NA,NA,""
"image-keyboard-response",383,410950,"0.0-4.123-2.123","pd04tc7jledesj9",439,"25.csv","","null","resources/images/fishbone.png","null","",NA,NA,NA,NA,""
"image-keyboard-response",384,411362,"0.0-4.124-0.124","pd04tc7jledesj9",439,"25.csv","","408","resources/trios/L1T4A2.jpg","38","restless",0.4,0.5,0.2,0.505759358261118,"false"
"image-keyboard-response",385,411770,"0.0-4.124-1.124","pd04tc7jledesj9",439,"25.csv","","null","resources/maskTrios/BT4B.jpg","null","",NA,NA,NA,NA,""
"image-keyboard-response",386,412973,"0.0-4.124-2.124","pd04tc7jledesj9",439,"25.csv","","null","resources/images/fishbone.png","null","",NA,NA,NA,NA,""
"image-keyboard-response",387,413027,"0.0-4.125-0.125","pd04tc7jledesj9",439,"25.csv","","51.10000002384186","resources/trios/L1T4A2.jpg","37","restless",0.4,0.5,0.2,0.376169098180593,"true"
"image-keyboard-response",388,413432,"0.0-4.125-1.125","pd04tc7jledesj9",439,"25.csv","","null","resources/maskTrios/L1BB.jpg","null","",NA,NA,NA,NA,""
"image-keyboard-response",389,414635,"0.0-4.125-2.125","pd04tc7jledesj9",439,"25.csv","","null","resources/images/coin2.png","null","",NA,NA,NA,NA,""
"image-keyboard-response",390,414813,"0.0-4.126-0.126","pd04tc7jledesj9",439,"25.csv","","173.10000002384186","resources/trios/L1T4A2.jpg","37","restless",0.4,0.5,0.2,0.766996358160347,"false"
"image-keyboard-response",391,415220,"0.0-4.126-1.126","pd04tc7jledesj9",439,"25.csv","","null","resources/maskTrios/L1BB.jpg","null","",NA,NA,NA,NA,""
"image-keyboard-response",392,416424,"0.0-4.126-2.126","pd04tc7jledesj9",439,"25.csv","","null","resources/images/fishbone.png","null","",NA,NA,NA,NA,""
"image-keyboard-response",393,416452,"0.0-4.127-0.127","pd04tc7jledesj9",439,"25.csv","","25.100000023841858","resources/trios/L1T4A2.jpg","37","restless",0.4,0.5,0.2,0.62236082912942,"false"
"image-keyboard-response",394,416856,"0.0-4.127-1.127","pd04tc7jledesj9",439,"25.csv","","null","resources/maskTrios/L1BB.jpg","null","",NA,NA,NA,NA,""
"image-keyboard-response",395,418060,"0.0-4.127-2.127","pd04tc7jledesj9",439,"25.csv","","null","resources/images/fishbone.png","null","",NA,NA,NA,NA,""
"image-keyboard-response",396,418201,"0.0-4.128-0.128","pd04tc7jledesj9",439,"25.csv","","137.29999995231628","resources/trios/L1T4A2.jpg","39","restless",0.4,0.6,0.2,0.842026850596445,"false"
"image-keyboard-response",397,418604,"0.0-4.128-1.128","pd04tc7jledesj9",439,"25.csv","","null","resources/maskTrios/BBA2.jpg","null","",NA,NA,NA,NA,""
"image-keyboard-response",398,419807,"0.0-4.128-2.128","pd04tc7jledesj9",439,"25.csv","","null","resources/images/fishbone.png","null","",NA,NA,NA,NA,""
"image-keyboard-response",399,420102,"0.0-4.129-0.129","pd04tc7jledesj9",439,"25.csv","","291.60000002384186","resources/trios/L1T4A2.jpg","38","restless",0.4,0.7,0.2,0.555608424232007,"true"
"image-keyboard-response",400,420516,"0.0-4.129-1.129","pd04tc7jledesj9",439,"25.csv","","null","resources/maskTrios/BT4B.jpg","null","",NA,NA,NA,NA,""
"image-keyboard-response",401,421720,"0.0-4.129-2.129","pd04tc7jledesj9",439,"25.csv","","null","resources/images/coin2.png","null","",NA,NA,NA,NA,""
"image-keyboard-response",402,430523,"0.0-4.130-0.130","pd04tc7jledesj9",439,"25.csv","","8799","resources/trios/L1T4A2.jpg","39","restless",0.4,0.8,0.2,0.26035664974258,"false"
"image-keyboard-response",403,430928,"0.0-4.130-1.130","pd04tc7jledesj9",439,"25.csv","","null","resources/maskTrios/BBA2.jpg","null","",NA,NA,NA,NA,""
"image-keyboard-response",404,432131,"0.0-4.130-2.130","pd04tc7jledesj9",439,"25.csv","","null","resources/images/fishbone.png","null","",NA,NA,NA,NA,""
"image-keyboard-response",405,432349,"0.0-4.131-0.131","pd04tc7jledesj9",439,"25.csv","","214.60000002384186","resources/trios/L1T4A2.jpg","37","restless",0.4,0.9,0.2,0.747298413042859,"false"
"image-keyboard-response",406,432765,"0.0-4.131-1.131","pd04tc7jledesj9",439,"25.csv","","null","resources/maskTrios/L1BB.jpg","null","",NA,NA,NA,NA,""
"image-keyboard-response",407,433968,"0.0-4.131-2.131","pd04tc7jledesj9",439,"25.csv","","null","resources/images/fishbone.png","null","",NA,NA,NA,NA,""
"image-keyboard-response",408,436443,"0.0-4.132-0.132","pd04tc7jledesj9",439,"25.csv","","2471.3000000715256","resources/trios/L1T4A2.jpg","38","restless",0.4,0.9,0.2,0.164979900200381,"true"
"image-keyboard-response",409,436850,"0.0-4.132-1.132","pd04tc7jledesj9",439,"25.csv","","null","resources/maskTrios/BT4B.jpg","null","",NA,NA,NA,NA,""
"image-keyboard-response",410,438054,"0.0-4.132-2.132","pd04tc7jledesj9",439,"25.csv","","null","resources/images/coin2.png","null","",NA,NA,NA,NA,""
"image-keyboard-response",411,438496,"0.0-4.133-0.133","pd04tc7jledesj9",439,"25.csv","","437.10000002384186","resources/trios/L1T4A2.jpg","39","restless",0.4,0.8,0.2,0.823323456132844,"false"
"image-keyboard-response",412,438903,"0.0-4.133-1.133","pd04tc7jledesj9",439,"25.csv","","null","resources/maskTrios/BBA2.jpg","null","",NA,NA,NA,NA,""
"image-keyboard-response",413,440107,"0.0-4.133-2.133","pd04tc7jledesj9",439,"25.csv","","null","resources/images/fishbone.png","null","",NA,NA,NA,NA,""
"image-keyboard-response",414,440222,"0.0-4.134-0.134","pd04tc7jledesj9",439,"25.csv","","113","resources/trios/L1T4A2.jpg","38","restless",0.4,0.8,0.2,0.706563610627505,"true"
"image-keyboard-response",415,440624,"0.0-4.134-1.134","pd04tc7jledesj9",439,"25.csv","","null","resources/maskTrios/BT4B.jpg","null","",NA,NA,NA,NA,""
"image-keyboard-response",416,441829,"0.0-4.134-2.134","pd04tc7jledesj9",439,"25.csv","","null","resources/images/coin2.png","null","",NA,NA,NA,NA,""
"image-keyboard-response",417,442380,"0.0-4.135-0.135","pd04tc7jledesj9",439,"25.csv","","547.1000000238419","resources/trios/L1T4A2.jpg","37","restless",0.5,0.8,0.3,0.329570337911588,"true"
"image-keyboard-response",418,442784,"0.0-4.135-1.135","pd04tc7jledesj9",439,"25.csv","","null","resources/maskTrios/L1BB.jpg","null","",NA,NA,NA,NA,""
"image-keyboard-response",419,443994,"0.0-4.135-2.135","pd04tc7jledesj9",439,"25.csv","","null","resources/images/coin2.png","null","",NA,NA,NA,NA,""
"image-keyboard-response",420,444242,"0.0-4.136-0.136","pd04tc7jledesj9",439,"25.csv","","244.30000007152557","resources/trios/L1T4A2.jpg","37","restless",0.5,0.8,0.3,0.349367284310509,"true"
"image-keyboard-response",421,444648,"0.0-4.136-1.136","pd04tc7jledesj9",439,"25.csv","","null","resources/maskTrios/L1BB.jpg","null","",NA,NA,NA,NA,""
"image-keyboard-response",422,445852,"0.0-4.136-2.136","pd04tc7jledesj9",439,"25.csv","","null","resources/images/coin2.png","null","",NA,NA,NA,NA,""
"image-keyboard-response",423,445918,"0.0-4.137-0.137","pd04tc7jledesj9",439,"25.csv","","62.89999997615814","resources/trios/L1T4A2.jpg","37","restless",0.5,0.8,0.4,0.332011553222857,"true"
"image-keyboard-response",424,446322,"0.0-4.137-1.137","pd04tc7jledesj9",439,"25.csv","","null","resources/maskTrios/L1BB.jpg","null","",NA,NA,NA,NA,""
"image-keyboard-response",425,447526,"0.0-4.137-2.137","pd04tc7jledesj9",439,"25.csv","","null","resources/images/coin2.png","null","",NA,NA,NA,NA,""
"image-keyboard-response",426,447958,"0.0-4.138-0.138","pd04tc7jledesj9",439,"25.csv","","428.7999999523163","resources/trios/L1T4A2.jpg","37","restless",0.5,0.8,0.4,0.958929333255327,"false"
"image-keyboard-response",427,448365,"0.0-4.138-1.138","pd04tc7jledesj9",439,"25.csv","","null","resources/maskTrios/L1BB.jpg","null","",NA,NA,NA,NA,""
"image-keyboard-response",428,449569,"0.0-4.138-2.138","pd04tc7jledesj9",439,"25.csv","","null","resources/images/fishbone.png","null","",NA,NA,NA,NA,""
"image-keyboard-response",429,449729,"0.0-4.139-0.139","pd04tc7jledesj9",439,"25.csv","","156.39999997615814","resources/trios/L1T4A2.jpg","38","restless",0.5,0.8,0.4,0.323755312723439,"true"
"image-keyboard-response",430,450134,"0.0-4.139-1.139","pd04tc7jledesj9",439,"25.csv","","null","resources/maskTrios/BT4B.jpg","null","",NA,NA,NA,NA,""
"image-keyboard-response",431,451338,"0.0-4.139-2.139","pd04tc7jledesj9",439,"25.csv","","null","resources/images/coin2.png","null","",NA,NA,NA,NA,""
"image-keyboard-response",432,451392,"0.0-4.140-0.140","pd04tc7jledesj9",439,"25.csv","","50.799999952316284","resources/trios/L1T4A2.jpg","38","restless",0.5,0.8,0.4,0.152033026612907,"true"
"image-keyboard-response",433,451796,"0.0-4.140-1.140","pd04tc7jledesj9",439,"25.csv","","null","resources/maskTrios/BT4B.jpg","null","",NA,NA,NA,NA,""
"image-keyboard-response",434,453004,"0.0-4.140-2.140","pd04tc7jledesj9",439,"25.csv","","null","resources/images/coin2.png","null","",NA,NA,NA,NA,""
"image-keyboard-response",435,453435,"0.0-4.141-0.141","pd04tc7jledesj9",439,"25.csv","","427.89999997615814","resources/trios/L1T4A2.jpg","38","restless",0.5,0.7,0.4,0.691702042610017,"true"
"image-keyboard-response",436,453839,"0.0-4.141-1.141","pd04tc7jledesj9",439,"25.csv","","null","resources/maskTrios/BT4B.jpg","null","",NA,NA,NA,NA,""
"image-keyboard-response",437,455044,"0.0-4.141-2.141","pd04tc7jledesj9",439,"25.csv","","null","resources/images/coin2.png","null","",NA,NA,NA,NA,""
"image-keyboard-response",438,455141,"0.0-4.142-0.142","pd04tc7jledesj9",439,"25.csv","","93.60000002384186","resources/trios/L1T4A2.jpg","38","restless",0.5,0.7,0.4,0.626629440581048,"true"
"image-keyboard-response",439,455543,"0.0-4.142-1.142","pd04tc7jledesj9",439,"25.csv","","null","resources/maskTrios/BT4B.jpg","null","",NA,NA,NA,NA,""
"image-keyboard-response",440,456748,"0.0-4.142-2.142","pd04tc7jledesj9",439,"25.csv","","null","resources/images/coin2.png","null","",NA,NA,NA,NA,""
"image-keyboard-response",441,456844,"0.0-4.143-0.143","pd04tc7jledesj9",439,"25.csv","","92.29999995231628","resources/trios/L1T4A2.jpg","38","restless",0.5,0.6,0.4,0.930152626500693,"false"
"image-keyboard-response",442,457248,"0.0-4.143-1.143","pd04tc7jledesj9",439,"25.csv","","null","resources/maskTrios/BT4B.jpg","null","",NA,NA,NA,NA,""
"image-keyboard-response",443,458452,"0.0-4.143-2.143","pd04tc7jledesj9",439,"25.csv","","null","resources/images/fishbone.png","null","",NA,NA,NA,NA,""
"image-keyboard-response",444,458648,"0.0-4.144-0.144","pd04tc7jledesj9",439,"25.csv","","191.89999997615814","resources/trios/L1T4A2.jpg","38","restless",0.5,0.6,0.4,0.899113956978953,"false"
"image-keyboard-response",445,459052,"0.0-4.144-1.144","pd04tc7jledesj9",439,"25.csv","","null","resources/maskTrios/BT4B.jpg","null","",NA,NA,NA,NA,""
"image-keyboard-response",446,460255,"0.0-4.144-2.144","pd04tc7jledesj9",439,"25.csv","","null","resources/images/fishbone.png","null","",NA,NA,NA,NA,""
"image-keyboard-response",447,460359,"0.0-4.145-0.145","pd04tc7jledesj9",439,"25.csv","","103.19999992847443","resources/trios/L1T4A2.jpg","37","restless",0.5,0.6,0.5,0.381416651120196,"true"
"image-keyboard-response",448,460762,"0.0-4.145-1.145","pd04tc7jledesj9",439,"25.csv","","null","resources/maskTrios/L1BB.jpg","null","",NA,NA,NA,NA,""
"image-keyboard-response",449,461968,"0.0-4.145-2.145","pd04tc7jledesj9",439,"25.csv","","null","resources/images/coin2.png","null","",NA,NA,NA,NA,""
"image-keyboard-response",450,466124,"0.0-4.146-0.146","pd04tc7jledesj9",439,"25.csv","","4152.399999976158","resources/trios/L1T4A2.jpg","39","restless",0.5,0.5,0.5,0.875176471554199,"false"
"image-keyboard-response",451,466531,"0.0-4.146-1.146","pd04tc7jledesj9",439,"25.csv","","null","resources/maskTrios/BBA2.jpg","null","",NA,NA,NA,NA,""
"image-keyboard-response",452,467734,"0.0-4.146-2.146","pd04tc7jledesj9",439,"25.csv","","null","resources/images/fishbone.png","null","",NA,NA,NA,NA,""
"image-keyboard-response",453,467785,"0.0-4.147-0.147","pd04tc7jledesj9",439,"25.csv","","47.699999928474426","resources/trios/L1T4A2.jpg","39","restless",0.5,0.5,0.5,0.481034561230455,"true"
"image-keyboard-response",454,468188,"0.0-4.147-1.147","pd04tc7jledesj9",439,"25.csv","","null","resources/maskTrios/BBA2.jpg","null","",NA,NA,NA,NA,""
"image-keyboard-response",455,469397,"0.0-4.147-2.147","pd04tc7jledesj9",439,"25.csv","","null","resources/images/coin2.png","null","",NA,NA,NA,NA,""
"image-keyboard-response",456,469559,"0.0-4.148-0.148","pd04tc7jledesj9",439,"25.csv","","158.70000004768372","resources/trios/L1T4A2.jpg","39","restless",0.5,0.4,0.5,0.124791917782735,"true"
"image-keyboard-response",457,469963,"0.0-4.148-1.148","pd04tc7jledesj9",439,"25.csv","","null","resources/maskTrios/BBA2.jpg","null","",NA,NA,NA,NA,""
"image-keyboard-response",458,471176,"0.0-4.148-2.148","pd04tc7jledesj9",439,"25.csv","","null","resources/images/coin2.png","null","",NA,NA,NA,NA,""
"image-keyboard-response",459,471326,"0.0-4.149-0.149","pd04tc7jledesj9",439,"25.csv","","147.39999997615814","resources/trios/L1T4A2.jpg","39","restless",0.5,0.4,0.6,0.634716154387281,"false"
"image-keyboard-response",460,471730,"0.0-4.149-1.149","pd04tc7jledesj9",439,"25.csv","","null","resources/maskTrios/BBA2.jpg","null","",NA,NA,NA,NA,""
"image-keyboard-response",461,472934,"0.0-4.149-2.149","pd04tc7jledesj9",439,"25.csv","","null","resources/images/fishbone.png","null","",NA,NA,NA,NA,""
"image-keyboard-response",462,473096,"0.0-4.150-0.150","pd04tc7jledesj9",439,"25.csv","","157.70000004768372","resources/trios/L1T4A2.jpg","37","restless",0.5,0.4,0.6,0.525177749454555,"false"
"image-keyboard-response",463,473500,"0.0-4.150-1.150","pd04tc7jledesj9",439,"25.csv","","null","resources/maskTrios/L1BB.jpg","null","",NA,NA,NA,NA,""
"image-keyboard-response",464,474702,"0.0-4.150-2.150","pd04tc7jledesj9",439,"25.csv","","null","resources/images/fishbone.png","null","",NA,NA,NA,NA,""
"image-keyboard-response",465,474911,"0.0-4.151-0.151","pd04tc7jledesj9",439,"25.csv","","205.29999995231628","resources/trios/L1T4A2.jpg","37","restless",0.5,0.4,0.6,0.519140519133137,"false"
"image-keyboard-response",466,475315,"0.0-4.151-1.151","pd04tc7jledesj9",439,"25.csv","","null","resources/maskTrios/L1BB.jpg","null","",NA,NA,NA,NA,""
"image-keyboard-response",467,476524,"0.0-4.151-2.151","pd04tc7jledesj9",439,"25.csv","","null","resources/images/fishbone.png","null","",NA,NA,NA,NA,""
"image-keyboard-response",468,476706,"0.0-4.152-0.152","pd04tc7jledesj9",439,"25.csv","","178.60000002384186","resources/trios/L1T4A2.jpg","38","restless",0.5,0.4,0.6,0.985189618789602,"false"
"image-keyboard-response",469,477110,"0.0-4.152-1.152","pd04tc7jledesj9",439,"25.csv","","null","resources/maskTrios/BT4B.jpg","null","",NA,NA,NA,NA,""
"image-keyboard-response",470,478314,"0.0-4.152-2.152","pd04tc7jledesj9",439,"25.csv","","null","resources/images/fishbone.png","null","",NA,NA,NA,NA,""
"image-keyboard-response",471,478357,"0.0-4.153-0.153","pd04tc7jledesj9",439,"25.csv","","39.799999952316284","resources/trios/L1T4A2.jpg","39","restless",0.5,0.4,0.6,0.986473710249865,"false"
"image-keyboard-response",472,478768,"0.0-4.153-1.153","pd04tc7jledesj9",439,"25.csv","","null","resources/maskTrios/BBA2.jpg","null","",NA,NA,NA,NA,""
"image-keyboard-response",473,479971,"0.0-4.153-2.153","pd04tc7jledesj9",439,"25.csv","","null","resources/images/fishbone.png","null","",NA,NA,NA,NA,""
"image-keyboard-response",474,480003,"0.0-4.154-0.154","pd04tc7jledesj9",439,"25.csv","","28.799999952316284","resources/trios/L1T4A2.jpg","39","restless",0.5,0.4,0.6,0.459305320921879,"true"
"image-keyboard-response",475,480404,"0.0-4.154-1.154","pd04tc7jledesj9",439,"25.csv","","null","resources/maskTrios/BBA2.jpg","null","",NA,NA,NA,NA,""
"image-keyboard-response",476,481608,"0.0-4.154-2.154","pd04tc7jledesj9",439,"25.csv","","null","resources/images/coin2.png","null","",NA,NA,NA,NA,""
"image-keyboard-response",477,489508,"0.0-4.155-0.155","pd04tc7jledesj9",439,"25.csv","","7895.699999928474","resources/trios/L1T4A2.jpg","39","restless",0.5,0.4,0.5,0.380918716441728,"true"
"image-keyboard-response",478,489915,"0.0-4.155-1.155","pd04tc7jledesj9",439,"25.csv","","null","resources/maskTrios/BBA2.jpg","null","",NA,NA,NA,NA,""
"image-keyboard-response",479,491120,"0.0-4.155-2.155","pd04tc7jledesj9",439,"25.csv","","null","resources/images/coin2.png","null","",NA,NA,NA,NA,""
"image-keyboard-response",480,491130,"0.0-4.156-0.156","pd04tc7jledesj9",439,"25.csv","","6.899999976158142","resources/trios/L1T4A2.jpg","38","restless",0.5,0.4,0.5,0.621302397448217,"false"
"image-keyboard-response",481,491534,"0.0-4.156-1.156","pd04tc7jledesj9",439,"25.csv","","null","resources/maskTrios/BT4B.jpg","null","",NA,NA,NA,NA,""
"image-keyboard-response",482,492737,"0.0-4.156-2.156","pd04tc7jledesj9",439,"25.csv","","null","resources/images/fishbone.png","null","",NA,NA,NA,NA,""
"image-keyboard-response",483,492768,"0.0-4.157-0.157","pd04tc7jledesj9",439,"25.csv","","26.100000023841858","resources/trios/L1T4A2.jpg","37","restless",0.5,0.4,0.5,0.724301913999414,"false"
"image-keyboard-response",484,493180,"0.0-4.157-1.157","pd04tc7jledesj9",439,"25.csv","","null","resources/maskTrios/L1BB.jpg","null","",NA,NA,NA,NA,""
"image-keyboard-response",485,494383,"0.0-4.157-2.157","pd04tc7jledesj9",439,"25.csv","","null","resources/images/fishbone.png","null","",NA,NA,NA,NA,""
"image-keyboard-response",486,497356,"0.0-4.158-0.158","pd04tc7jledesj9",439,"25.csv","","2969.2999999523163","resources/trios/L1T4A2.jpg","39","restless",0.5,0.4,0.5,0.569261949241821,"false"
"image-keyboard-response",487,497760,"0.0-4.158-1.158","pd04tc7jledesj9",439,"25.csv","","null","resources/maskTrios/BBA2.jpg","null","",NA,NA,NA,NA,""
"image-keyboard-response",488,498964,"0.0-4.158-2.158","pd04tc7jledesj9",439,"25.csv","","null","resources/images/fishbone.png","null","",NA,NA,NA,NA,""
"image-keyboard-response",489,505798,"0.0-4.159-0.159","pd04tc7jledesj9",439,"25.csv","","6830.700000047684","resources/trios/L1T4A2.jpg","37","restless",0.5,0.4,0.5,0.196198012540356,"true"
"image-keyboard-response",490,506203,"0.0-4.159-1.159","pd04tc7jledesj9",439,"25.csv","","null","resources/maskTrios/L1BB.jpg","null","",NA,NA,NA,NA,""
"image-keyboard-response",491,507407,"0.0-4.159-2.159","pd04tc7jledesj9",439,"25.csv","","null","resources/images/coin2.png","null","",NA,NA,NA,NA,""
"image-keyboard-response",492,507579,"0.0-4.160-0.160","pd04tc7jledesj9",439,"25.csv","","167.60000002384186","resources/trios/L1T4A2.jpg","37","restless",0.5,0.4,0.5,0.814855170127388,"false"
"image-keyboard-response",493,507983,"0.0-4.160-1.160","pd04tc7jledesj9",439,"25.csv","","null","resources/maskTrios/L1BB.jpg","null","",NA,NA,NA,NA,""
"image-keyboard-response",494,509188,"0.0-4.160-2.160","pd04tc7jledesj9",439,"25.csv","","null","resources/images/fishbone.png","null","",NA,NA,NA,NA,""
"image-keyboard-response",495,509228,"0.0-4.161-0.161","pd04tc7jledesj9",439,"25.csv","","36.89999997615814","resources/trios/L1T4A2.jpg","38","restless",0.5,0.4,0.5,0.68781372013931,"false"
"image-keyboard-response",496,509633,"0.0-4.161-1.161","pd04tc7jledesj9",439,"25.csv","","null","resources/maskTrios/BT4B.jpg","null","",NA,NA,NA,NA,""
"image-keyboard-response",497,510836,"0.0-4.161-2.161","pd04tc7jledesj9",439,"25.csv","","null","resources/images/fishbone.png","null","",NA,NA,NA,NA,""
"image-keyboard-response",498,511041,"0.0-4.162-0.162","pd04tc7jledesj9",439,"25.csv","","202","resources/trios/L1T4A2.jpg","39","restless",0.5,0.4,0.5,0.175390059139764,"true"
"image-keyboard-response",499,511445,"0.0-4.162-1.162","pd04tc7jledesj9",439,"25.csv","","null","resources/maskTrios/BBA2.jpg","null","",NA,NA,NA,NA,""
"image-keyboard-response",500,512647,"0.0-4.162-2.162","pd04tc7jledesj9",439,"25.csv","","null","resources/images/coin2.png","null","",NA,NA,NA,NA,""
"image-keyboard-response",501,512812,"0.0-4.163-0.163","pd04tc7jledesj9",439,"25.csv","","160.70000004768372","resources/trios/L1T4A2.jpg","39","restless",0.5,0.4,0.5,0.223125418037375,"true"
"image-keyboard-response",502,513216,"0.0-4.163-1.163","pd04tc7jledesj9",439,"25.csv","","null","resources/maskTrios/BBA2.jpg","null","",NA,NA,NA,NA,""
"image-keyboard-response",503,514420,"0.0-4.163-2.163","pd04tc7jledesj9",439,"25.csv","","null","resources/images/coin2.png","null","",NA,NA,NA,NA,""
"image-keyboard-response",504,514566,"0.0-4.164-0.164","pd04tc7jledesj9",439,"25.csv","","143","resources/trios/L1T4A2.jpg","39","restless",0.6,0.4,0.5,0.501080825301275,"false"
"image-keyboard-response",505,514971,"0.0-4.164-1.164","pd04tc7jledesj9",439,"25.csv","","null","resources/maskTrios/BBA2.jpg","null","",NA,NA,NA,NA,""
"image-keyboard-response",506,516173,"0.0-4.164-2.164","pd04tc7jledesj9",439,"25.csv","","null","resources/images/fishbone.png","null","",NA,NA,NA,NA,""
"image-keyboard-response",507,516270,"0.0-4.165-0.165","pd04tc7jledesj9",439,"25.csv","","94.89999997615814","resources/trios/L1T4A2.jpg","39","restless",0.6,0.4,0.5,0.170444715979648,"true"
"image-keyboard-response",508,516675,"0.0-4.165-1.165","pd04tc7jledesj9",439,"25.csv","","null","resources/maskTrios/BBA2.jpg","null","",NA,NA,NA,NA,""
"image-keyboard-response",509,517879,"0.0-4.165-2.165","pd04tc7jledesj9",439,"25.csv","","null","resources/images/coin2.png","null","",NA,NA,NA,NA,""
"image-keyboard-response",510,518484,"0.0-4.166-0.166","pd04tc7jledesj9",439,"25.csv","","601.2999999523163","resources/trios/L1T4A2.jpg","38","restless",0.6,0.4,0.5,0.840104043888182,"false"
"image-keyboard-response",511,518892,"0.0-4.166-1.166","pd04tc7jledesj9",439,"25.csv","","null","resources/maskTrios/BT4B.jpg","null","",NA,NA,NA,NA,""
"image-keyboard-response",512,520096,"0.0-4.166-2.166","pd04tc7jledesj9",439,"25.csv","","null","resources/images/fishbone.png","null","",NA,NA,NA,NA,""
"image-keyboard-response",513,520467,"0.0-4.167-0.167","pd04tc7jledesj9",439,"25.csv","","366.7000000476837","resources/trios/L1T4A2.jpg","37","restless",0.6,0.4,0.5,0.0976009416601797,"true"
"image-keyboard-response",514,520872,"0.0-4.167-1.167","pd04tc7jledesj9",439,"25.csv","","null","resources/maskTrios/L1BB.jpg","null","",NA,NA,NA,NA,""
"image-keyboard-response",515,522076,"0.0-4.167-2.167","pd04tc7jledesj9",439,"25.csv","","null","resources/images/coin2.png","null","",NA,NA,NA,NA,""
"image-keyboard-response",516,522367,"0.0-4.168-0.168","pd04tc7jledesj9",439,"25.csv","","287.2000000476837","resources/trios/L1T4A2.jpg","38","restless",0.6,0.4,0.5,0.00225442871497394,"true"
"image-keyboard-response",517,522770,"0.0-4.168-1.168","pd04tc7jledesj9",439,"25.csv","","null","resources/maskTrios/BT4B.jpg","null","",NA,NA,NA,NA,""
"image-keyboard-response",518,523975,"0.0-4.168-2.168","pd04tc7jledesj9",439,"25.csv","","null","resources/images/coin2.png","null","",NA,NA,NA,NA,""
"image-keyboard-response",519,524070,"0.0-4.169-0.169","pd04tc7jledesj9",439,"25.csv","","91","resources/trios/L1T4A2.jpg","38","restless",0.6,0.4,0.5,0.829244921620763,"false"
"image-keyboard-response",520,524473,"0.0-4.169-1.169","pd04tc7jledesj9",439,"25.csv","","null","resources/maskTrios/BT4B.jpg","null","",NA,NA,NA,NA,""
"image-keyboard-response",521,525676,"0.0-4.169-2.169","pd04tc7jledesj9",439,"25.csv","","null","resources/images/fishbone.png","null","",NA,NA,NA,NA,""
"image-keyboard-response",522,525725,"0.0-4.170-0.170","pd04tc7jledesj9",439,"25.csv","","44.10000002384186","resources/trios/L1T4A2.jpg","38","restless",0.6,0.4,0.4,0.687845268969081,"false"
"image-keyboard-response",523,526129,"0.0-4.170-1.170","pd04tc7jledesj9",439,"25.csv","","null","resources/maskTrios/BT4B.jpg","null","",NA,NA,NA,NA,""
"image-keyboard-response",524,527331,"0.0-4.170-2.170","pd04tc7jledesj9",439,"25.csv","","null","resources/images/fishbone.png","null","",NA,NA,NA,NA,""
"image-keyboard-response",525,527431,"0.0-4.171-0.171","pd04tc7jledesj9",439,"25.csv","","96.79999995231628","resources/trios/L1T4A2.jpg","39","restless",0.6,0.4,0.4,0.524112780673988,"false"
"image-keyboard-response",526,527836,"0.0-4.171-1.171","pd04tc7jledesj9",439,"25.csv","","null","resources/maskTrios/BBA2.jpg","null","",NA,NA,NA,NA,""
"image-keyboard-response",527,529041,"0.0-4.171-2.171","pd04tc7jledesj9",439,"25.csv","","null","resources/images/fishbone.png","null","",NA,NA,NA,NA,""
"image-keyboard-response",528,529102,"0.0-4.172-0.172","pd04tc7jledesj9",439,"25.csv","","57.300000071525574","resources/trios/L1T4A2.jpg","37","restless",0.6,0.4,0.4,0.0653671211414906,"true"
"image-keyboard-response",529,529505,"0.0-4.172-1.172","pd04tc7jledesj9",439,"25.csv","","null","resources/maskTrios/L1BB.jpg","null","",NA,NA,NA,NA,""
"image-keyboard-response",530,530709,"0.0-4.172-2.172","pd04tc7jledesj9",439,"25.csv","","null","resources/images/coin2.png","null","",NA,NA,NA,NA,""
"image-keyboard-response",531,531950,"0.0-4.173-0.173","pd04tc7jledesj9",439,"25.csv","","1238.8000000715256","resources/trios/L1T4A2.jpg","38","restless",0.6,0.3,0.4,0.78792794407195,"false"
"image-keyboard-response",532,532357,"0.0-4.173-1.173","pd04tc7jledesj9",439,"25.csv","","null","resources/maskTrios/BT4B.jpg","null","",NA,NA,NA,NA,""
"image-keyboard-response",533,533561,"0.0-4.173-2.173","pd04tc7jledesj9",439,"25.csv","","null","resources/images/fishbone.png","null","",NA,NA,NA,NA,""
"image-keyboard-response",534,533716,"0.0-4.174-0.174","pd04tc7jledesj9",439,"25.csv","","151.69999992847443","resources/trios/L1T4A2.jpg","39","restless",0.6,0.3,0.4,0.390967725951585,"true"
"image-keyboard-response",535,534120,"0.0-4.174-1.174","pd04tc7jledesj9",439,"25.csv","","null","resources/maskTrios/BBA2.jpg","null","",NA,NA,NA,NA,""
"image-keyboard-response",536,535326,"0.0-4.174-2.174","pd04tc7jledesj9",439,"25.csv","","null","resources/images/coin2.png","null","",NA,NA,NA,NA,""
"image-keyboard-response",537,535886,"0.0-4.175-0.175","pd04tc7jledesj9",439,"25.csv","","556.9000000953674","resources/trios/L1T4A2.jpg","39","restless",0.7,0.2,0.4,0.920013872474405,"false"
"image-keyboard-response",538,536288,"0.0-4.175-1.175","pd04tc7jledesj9",439,"25.csv","","null","resources/maskTrios/BBA2.jpg","null","",NA,NA,NA,NA,""
"image-keyboard-response",539,537492,"0.0-4.175-2.175","pd04tc7jledesj9",439,"25.csv","","null","resources/images/fishbone.png","null","",NA,NA,NA,NA,""
"image-keyboard-response",540,537618,"0.0-4.176-0.176","pd04tc7jledesj9",439,"25.csv","","122","resources/trios/L1T4A2.jpg","38","restless",0.7,0.2,0.4,0.0331186814047602,"true"
"image-keyboard-response",541,538022,"0.0-4.176-1.176","pd04tc7jledesj9",439,"25.csv","","null","resources/maskTrios/BT4B.jpg","null","",NA,NA,NA,NA,""
"image-keyboard-response",542,539226,"0.0-4.176-2.176","pd04tc7jledesj9",439,"25.csv","","null","resources/images/coin2.png","null","",NA,NA,NA,NA,""
"image-keyboard-response",543,539662,"0.0-4.177-0.177","pd04tc7jledesj9",439,"25.csv","","432.7999999523163","resources/trios/L1T4A2.jpg","39","restless",0.7,0.2,0.4,0.176053477839285,"true"
"image-keyboard-response",544,540067,"0.0-4.177-1.177","pd04tc7jledesj9",439,"25.csv","","null","resources/maskTrios/BBA2.jpg","null","",NA,NA,NA,NA,""
"image-keyboard-response",545,541268,"0.0-4.177-2.177","pd04tc7jledesj9",439,"25.csv","","null","resources/images/coin2.png","null","",NA,NA,NA,NA,""
"image-keyboard-response",546,541569,"0.0-4.178-0.178","pd04tc7jledesj9",439,"25.csv","","296.60000002384186","resources/trios/L1T4A2.jpg","37","restless",0.6,0.2,0.4,0.0948463922502498,"true"
"image-keyboard-response",547,541975,"0.0-4.178-1.178","pd04tc7jledesj9",439,"25.csv","","null","resources/maskTrios/L1BB.jpg","null","",NA,NA,NA,NA,""
"image-keyboard-response",548,543179,"0.0-4.178-2.178","pd04tc7jledesj9",439,"25.csv","","null","resources/images/coin2.png","null","",NA,NA,NA,NA,""
"image-keyboard-response",549,543238,"0.0-4.179-0.179","pd04tc7jledesj9",439,"25.csv","","56.40000009536743","resources/trios/L1T4A2.jpg","37","restless",0.6,0.2,0.4,0.112942677163518,"true"
"image-keyboard-response",550,543643,"0.0-4.179-1.179","pd04tc7jledesj9",439,"25.csv","","null","resources/maskTrios/L1BB.jpg","null","",NA,NA,NA,NA,""
"image-keyboard-response",551,544848,"0.0-4.179-2.179","pd04tc7jledesj9",439,"25.csv","","null","resources/images/coin2.png","null","",NA,NA,NA,NA,""
"image-keyboard-response",552,545763,"0.0-4.180-0.180","pd04tc7jledesj9",439,"25.csv","","911","resources/trios/L1T4A2.jpg","38","restless",0.5,0.2,0.4,0.337185775516401,"false"
"image-keyboard-response",553,546171,"0.0-4.180-1.180","pd04tc7jledesj9",439,"25.csv","","null","resources/maskTrios/BT4B.jpg","null","",NA,NA,NA,NA,""
"image-keyboard-response",554,547375,"0.0-4.180-2.180","pd04tc7jledesj9",439,"25.csv","","null","resources/images/fishbone.png","null","",NA,NA,NA,NA,""
"image-keyboard-response",555,550948,"0.0-4.181-0.181","pd04tc7jledesj9",439,"25.csv","","3570.3000000715256","resources/trios/L1T4A2.jpg","39","restless",0.5,0.2,0.4,0.387975332969825,"true"
"image-keyboard-response",556,551353,"0.0-4.181-1.181","pd04tc7jledesj9",439,"25.csv","","null","resources/maskTrios/BBA2.jpg","null","",NA,NA,NA,NA,""
"image-keyboard-response",557,552558,"0.0-4.181-2.181","pd04tc7jledesj9",439,"25.csv","","null","resources/images/coin2.png","null","",NA,NA,NA,NA,""
"image-keyboard-response",558,552667,"0.0-4.182-0.182","pd04tc7jledesj9",439,"25.csv","","105","resources/trios/L1T4A2.jpg","39","restless",0.5,0.3,0.4,0.877199477648949,"false"
"image-keyboard-response",559,553071,"0.0-4.182-1.182","pd04tc7jledesj9",439,"25.csv","","null","resources/maskTrios/BBA2.jpg","null","",NA,NA,NA,NA,""
"image-keyboard-response",560,554276,"0.0-4.182-2.182","pd04tc7jledesj9",439,"25.csv","","null","resources/images/fishbone.png","null","",NA,NA,NA,NA,""
"image-keyboard-response",561,554361,"0.0-4.183-0.183","pd04tc7jledesj9",439,"25.csv","","81.80000007152557","resources/trios/L1T4A2.jpg","38","restless",0.5,0.3,0.4,0.798297831746378,"false"
"image-keyboard-response",562,554765,"0.0-4.183-1.183","pd04tc7jledesj9",439,"25.csv","","null","resources/maskTrios/BT4B.jpg","null","",NA,NA,NA,NA,""
"image-keyboard-response",563,555968,"0.0-4.183-2.183","pd04tc7jledesj9",439,"25.csv","","null","resources/images/fishbone.png","null","",NA,NA,NA,NA,""
"image-keyboard-response",564,556189,"0.0-4.184-0.184","pd04tc7jledesj9",439,"25.csv","","216.70000004768372","resources/trios/L1T4A2.jpg","38","restless",0.5,0.3,0.4,0.524277302583267,"false"
"image-keyboard-response",565,556598,"0.0-4.184-1.184","pd04tc7jledesj9",439,"25.csv","","null","resources/maskTrios/BT4B.jpg","null","",NA,NA,NA,NA,""
"image-keyboard-response",566,557800,"0.0-4.184-2.184","pd04tc7jledesj9",439,"25.csv","","null","resources/images/fishbone.png","null","",NA,NA,NA,NA,""
"image-keyboard-response",567,557900,"0.0-4.185-0.185","pd04tc7jledesj9",439,"25.csv","","98.5","resources/trios/L1T4A2.jpg","38","restless",0.5,0.3,0.4,0.829775526898451,"false"
"image-keyboard-response",568,558303,"0.0-4.185-1.185","pd04tc7jledesj9",439,"25.csv","","null","resources/maskTrios/BT4B.jpg","null","",NA,NA,NA,NA,""
"image-keyboard-response",569,559508,"0.0-4.185-2.185","pd04tc7jledesj9",439,"25.csv","","null","resources/images/fishbone.png","null","",NA,NA,NA,NA,""
"image-keyboard-response",570,559518,"0.0-4.186-0.186","pd04tc7jledesj9",439,"25.csv","","2.700000047683716","resources/trios/L1T4A2.jpg","37","restless",0.5,0.3,0.4,0.660723006085596,"false"
"image-keyboard-response",571,559923,"0.0-4.186-1.186","pd04tc7jledesj9",439,"25.csv","","null","resources/maskTrios/L1BB.jpg","null","",NA,NA,NA,NA,""
"image-keyboard-response",572,561126,"0.0-4.186-2.186","pd04tc7jledesj9",439,"25.csv","","null","resources/images/fishbone.png","null","",NA,NA,NA,NA,""
"image-keyboard-response",573,561239,"0.0-4.187-0.187","pd04tc7jledesj9",439,"25.csv","","109.60000002384186","resources/trios/L1T4A2.jpg","38","restless",0.5,0.3,0.4,0.440768327148333,"false"
"image-keyboard-response",574,561644,"0.0-4.187-1.187","pd04tc7jledesj9",439,"25.csv","","null","resources/maskTrios/BT4B.jpg","null","",NA,NA,NA,NA,""
"image-keyboard-response",575,562848,"0.0-4.187-2.187","pd04tc7jledesj9",439,"25.csv","","null","resources/images/fishbone.png","null","",NA,NA,NA,NA,""
"image-keyboard-response",576,562953,"0.0-4.188-0.188","pd04tc7jledesj9",439,"25.csv","","101.89999997615814","resources/trios/L1T4A2.jpg","39","restless",0.5,0.3,0.4,0.406687347688345,"false"
"image-keyboard-response",577,563356,"0.0-4.188-1.188","pd04tc7jledesj9",439,"25.csv","","null","resources/maskTrios/BBA2.jpg","null","",NA,NA,NA,NA,""
"image-keyboard-response",578,564559,"0.0-4.188-2.188","pd04tc7jledesj9",439,"25.csv","","null","resources/images/fishbone.png","null","",NA,NA,NA,NA,""
"image-keyboard-response",579,564975,"0.0-4.189-0.189","pd04tc7jledesj9",439,"25.csv","","412","resources/trios/L1T4A2.jpg","39","restless",0.5,0.3,0.4,0.924105229711993,"false"
"image-keyboard-response",580,565381,"0.0-4.189-1.189","pd04tc7jledesj9",439,"25.csv","","null","resources/maskTrios/BBA2.jpg","null","",NA,NA,NA,NA,""
"image-keyboard-response",581,566585,"0.0-4.189-2.189","pd04tc7jledesj9",439,"25.csv","","null","resources/images/fishbone.png","null","",NA,NA,NA,NA,""
"image-keyboard-response",582,566879,"0.0-4.190-0.190","pd04tc7jledesj9",439,"25.csv","","289.7000000476837","resources/trios/L1T4A2.jpg","39","restless",0.5,0.2,0.4,0.444178496602121,"false"
"image-keyboard-response",583,567282,"0.0-4.190-1.190","pd04tc7jledesj9",439,"25.csv","","null","resources/maskTrios/BBA2.jpg","null","",NA,NA,NA,NA,""
"image-keyboard-response",584,568485,"0.0-4.190-2.190","pd04tc7jledesj9",439,"25.csv","","null","resources/images/fishbone.png","null","",NA,NA,NA,NA,""
"image-keyboard-response",585,568674,"0.0-4.191-0.191","pd04tc7jledesj9",439,"25.csv","","184.79999995231628","resources/trios/L1T4A2.jpg","39","restless",0.5,0.2,0.4,0.608545184856674,"false"
"image-keyboard-response",586,569079,"0.0-4.191-1.191","pd04tc7jledesj9",439,"25.csv","","null","resources/maskTrios/BBA2.jpg","null","",NA,NA,NA,NA,""
"image-keyboard-response",587,570291,"0.0-4.191-2.191","pd04tc7jledesj9",439,"25.csv","","null","resources/images/fishbone.png","null","",NA,NA,NA,NA,""
"image-keyboard-response",588,570676,"0.0-4.192-0.192","pd04tc7jledesj9",439,"25.csv","","382.10000002384186","resources/trios/L1T4A2.jpg","38","restless",0.5,0.2,0.4,0.0311247335636737,"true"
"image-keyboard-response",589,571082,"0.0-4.192-1.192","pd04tc7jledesj9",439,"25.csv","","null","resources/maskTrios/BT4B.jpg","null","",NA,NA,NA,NA,""
"image-keyboard-response",590,572286,"0.0-4.192-2.192","pd04tc7jledesj9",439,"25.csv","","null","resources/images/coin2.png","null","",NA,NA,NA,NA,""
"image-keyboard-response",591,572349,"0.0-4.193-0.193","pd04tc7jledesj9",439,"25.csv","","60.700000047683716","resources/trios/L1T4A2.jpg","38","restless",0.5,0.2,0.4,0.442986165713556,"false"
"image-keyboard-response",592,572756,"0.0-4.193-1.193","pd04tc7jledesj9",439,"25.csv","","null","resources/maskTrios/BT4B.jpg","null","",NA,NA,NA,NA,""
"image-keyboard-response",593,573959,"0.0-4.193-2.193","pd04tc7jledesj9",439,"25.csv","","null","resources/images/fishbone.png","null","",NA,NA,NA,NA,""
"image-keyboard-response",594,573999,"0.0-4.194-0.194","pd04tc7jledesj9",439,"25.csv","","36.39999997615814","resources/trios/L1T4A2.jpg","39","restless",0.6,0.3,0.4,0.507812879178857,"false"
"image-keyboard-response",595,574404,"0.0-4.194-1.194","pd04tc7jledesj9",439,"25.csv","","null","resources/maskTrios/BBA2.jpg","null","",NA,NA,NA,NA,""
"image-keyboard-response",596,575606,"0.0-4.194-2.194","pd04tc7jledesj9",439,"25.csv","","null","resources/images/fishbone.png","null","",NA,NA,NA,NA,""
"image-keyboard-response",597,575737,"0.0-4.195-0.195","pd04tc7jledesj9",439,"25.csv","","127.19999992847443","resources/trios/L1T4A2.jpg","37","restless",0.6,0.3,0.4,0.394475794144639,"true"
"image-keyboard-response",598,576141,"0.0-4.195-1.195","pd04tc7jledesj9",439,"25.csv","","null","resources/maskTrios/L1BB.jpg","null","",NA,NA,NA,NA,""
"image-keyboard-response",599,577346,"0.0-4.195-2.195","pd04tc7jledesj9",439,"25.csv","","null","resources/images/coin2.png","null","",NA,NA,NA,NA,""
"image-keyboard-response",600,577561,"0.0-4.196-0.196","pd04tc7jledesj9",439,"25.csv","","212.20000004768372","resources/trios/L1T4A2.jpg","37","restless",0.6,0.4,0.4,0.329159280159293,"true"
"image-keyboard-response",601,577966,"0.0-4.196-1.196","pd04tc7jledesj9",439,"25.csv","","null","resources/maskTrios/L1BB.jpg","null","",NA,NA,NA,NA,""
"image-keyboard-response",602,579171,"0.0-4.196-2.196","pd04tc7jledesj9",439,"25.csv","","null","resources/images/coin2.png","null","",NA,NA,NA,NA,""
"image-keyboard-response",603,580080,"0.0-4.197-0.197","pd04tc7jledesj9",439,"25.csv","","905.2000000476837","resources/trios/L1T4A2.jpg","37","restless",0.6,0.4,0.4,0.926738096637446,"false"
"image-keyboard-response",604,580487,"0.0-4.197-1.197","pd04tc7jledesj9",439,"25.csv","","null","resources/maskTrios/L1BB.jpg","null","",NA,NA,NA,NA,""
"image-keyboard-response",605,581688,"0.0-4.197-2.197","pd04tc7jledesj9",439,"25.csv","","null","resources/images/fishbone.png","null","",NA,NA,NA,NA,""
"image-keyboard-response",606,581782,"0.0-4.198-0.198","pd04tc7jledesj9",439,"25.csv","","91.5","resources/trios/L1T4A2.jpg","38","restless",0.6,0.4,0.4,0.326079282023467,"true"
"image-keyboard-response",607,582191,"0.0-4.198-1.198","pd04tc7jledesj9",439,"25.csv","","null","resources/maskTrios/BT4B.jpg","null","",NA,NA,NA,NA,""
"image-keyboard-response",608,583394,"0.0-4.198-2.198","pd04tc7jledesj9",439,"25.csv","","null","resources/images/coin2.png","null","",NA,NA,NA,NA,""
"image-keyboard-response",609,583440,"0.0-4.199-0.199","pd04tc7jledesj9",439,"25.csv","","43.200000047683716","resources/trios/L1T4A2.jpg","38","restless",0.6,0.5,0.4,0.150935961209101,"true"
"image-keyboard-response",610,583842,"0.0-4.199-1.199","pd04tc7jledesj9",439,"25.csv","","null","resources/maskTrios/BT4B.jpg","null","",NA,NA,NA,NA,""
