"trial_type","trial_index","time_elapsed","internal_node_id","subject","participantCode","walkNumber","success","rt","stimulus","key_press","test_part","leftProb","midProb","rightProb","generatedNum","correct"
"pavlovia",0,805,"0.0-0.0","0r8zo8wgw4l43jk",151,"100.csv","","","","","",NA,NA,NA,NA,""
"fullscreen",1,4000,"0.0-1.0","0r8zo8wgw4l43jk",151,"100.csv","true","","","","",NA,NA,NA,NA,""
"survey-html-form",2,14394,"0.0-2.0","0r8zo8wgw4l43jk",151,"100.csv","","10377.5","","","",NA,NA,NA,NA,""
"image-keyboard-response",3,20734,"0.0-3.0-0.0","0r8zo8wgw4l43jk",151,"100.csv","","6338","resources/images/parrot_nobg.png","13","",NA,NA,NA,NA,""
"image-keyboard-response",4,23737,"0.0-3.0-1.0","0r8zo8wgw4l43jk",151,"100.csv","","null","resources/image_sets/111.png","null","",NA,NA,NA,NA,""
"image-keyboard-response",5,26876,"0.0-3.0-2.0","0r8zo8wgw4l43jk",151,"100.csv","","3138.4000000059605","resources/image_sets/left_highlight.png","37","",NA,NA,NA,NA,""
"image-keyboard-response",6,27918,"0.0-3.0-3.0","0r8zo8wgw4l43jk",151,"100.csv","","1041","resources/image_sets/mid_highlight.png","38","",NA,NA,NA,NA,""
"image-keyboard-response",7,28702,"0.0-3.0-4.0","0r8zo8wgw4l43jk",151,"100.csv","","783.8999999761581","resources/image_sets/right_highlight.png","39","",NA,NA,NA,NA,""
"image-keyboard-response",8,30682,"0.0-3.0-5.0","0r8zo8wgw4l43jk",151,"100.csv","","1979","resources/image_sets/111.png","13","",NA,NA,NA,NA,""
"image-keyboard-response",9,32449,"0.0-3.0-6.0","0r8zo8wgw4l43jk",151,"100.csv","","1765.7000000178814","resources/images/coin2.png","13","",NA,NA,NA,NA,""
"image-keyboard-response",10,33814,"0.0-3.0-7.0","0r8zo8wgw4l43jk",151,"100.csv","","1364.199999988079","resources/images/fishbone.png","13","",NA,NA,NA,NA,""
"html-keyboard-response",11,36047,"0.0-3.0-8.0","0r8zo8wgw4l43jk",151,"100.csv","","2232.5999999940395","<p>You can track your coin total on the top right of your screen. </p><p>At the end of your journey you will be directed to a survey, so please click on the link before exiting the task</p><p>Press Enter to begin</p>","13","",NA,NA,NA,NA,""
"image-keyboard-response",12,37800,"0.0-4.0-0.0","0r8zo8wgw4l43jk",151,"100.csv","","1751.7999999821186","resources/trios/L1T4A2.jpg","37","restless",0.9,0.3,0.7,0.608799822630935,"true"
"image-keyboard-response",13,38205,"0.0-4.0-1.0","0r8zo8wgw4l43jk",151,"100.csv","","null","resources/maskTrios/L1BB.jpg","null","",NA,NA,NA,NA,""
"image-keyboard-response",14,39412,"0.0-4.0-2.0","0r8zo8wgw4l43jk",151,"100.csv","","null","resources/images/coin2.png","null","",NA,NA,NA,NA,""
"image-keyboard-response",15,40204,"0.0-4.1-0.1","0r8zo8wgw4l43jk",151,"100.csv","","791.5","resources/trios/L1T4A2.jpg","38","restless",0.9,0.3,0.7,0.276253921028591,"true"
"image-keyboard-response",16,40607,"0.0-4.1-1.1","0r8zo8wgw4l43jk",151,"100.csv","","null","resources/maskTrios/BT4B.jpg","null","",NA,NA,NA,NA,""
"image-keyboard-response",17,41810,"0.0-4.1-2.1","0r8zo8wgw4l43jk",151,"100.csv","","null","resources/images/coin2.png","null","",NA,NA,NA,NA,""
"image-keyboard-response",18,42450,"0.0-4.2-0.2","0r8zo8wgw4l43jk",151,"100.csv","","638.5999999940395","resources/trios/L1T4A2.jpg","37","restless",0.9,0.3,0.7,0.775918378499869,"true"
"image-keyboard-response",19,42854,"0.0-4.2-1.2","0r8zo8wgw4l43jk",151,"100.csv","","null","resources/maskTrios/L1BB.jpg","null","",NA,NA,NA,NA,""
"image-keyboard-response",20,44058,"0.0-4.2-2.2","0r8zo8wgw4l43jk",151,"100.csv","","null","resources/images/coin2.png","null","",NA,NA,NA,NA,""
"image-keyboard-response",21,44558,"0.0-4.3-0.3","0r8zo8wgw4l43jk",151,"100.csv","","499.2000000178814","resources/trios/L1T4A2.jpg","39","restless",0.8,0.3,0.7,0.129352806648066,"true"
"image-keyboard-response",22,44962,"0.0-4.3-1.3","0r8zo8wgw4l43jk",151,"100.csv","","null","resources/maskTrios/BBA2.jpg","null","",NA,NA,NA,NA,""
"image-keyboard-response",23,46164,"0.0-4.3-2.3","0r8zo8wgw4l43jk",151,"100.csv","","null","resources/images/coin2.png","null","",NA,NA,NA,NA,""
"image-keyboard-response",24,46570,"0.0-4.4-0.4","0r8zo8wgw4l43jk",151,"100.csv","","404.80000001192093","resources/trios/L1T4A2.jpg","38","restless",0.8,0.3,0.7,0.147132186422705,"true"
"image-keyboard-response",25,46973,"0.0-4.4-1.4","0r8zo8wgw4l43jk",151,"100.csv","","null","resources/maskTrios/BT4B.jpg","null","",NA,NA,NA,NA,""
"image-keyboard-response",26,48178,"0.0-4.4-2.4","0r8zo8wgw4l43jk",151,"100.csv","","null","resources/images/coin2.png","null","",NA,NA,NA,NA,""
"image-keyboard-response",27,48703,"0.0-4.5-0.5","0r8zo8wgw4l43jk",151,"100.csv","","523.5","resources/trios/L1T4A2.jpg","37","restless",0.8,0.3,0.7,0.3460014343876,"true"
"image-keyboard-response",28,49107,"0.0-4.5-1.5","0r8zo8wgw4l43jk",151,"100.csv","","null","resources/maskTrios/L1BB.jpg","null","",NA,NA,NA,NA,""
"image-keyboard-response",29,50314,"0.0-4.5-2.5","0r8zo8wgw4l43jk",151,"100.csv","","null","resources/images/coin2.png","null","",NA,NA,NA,NA,""
"image-keyboard-response",30,50810,"0.0-4.6-0.6","0r8zo8wgw4l43jk",151,"100.csv","","494.80000001192093","resources/trios/L1T4A2.jpg","39","restless",0.8,0.3,0.7,0.827308050988329,"false"
"image-keyboard-response",31,51214,"0.0-4.6-1.6","0r8zo8wgw4l43jk",151,"100.csv","","null","resources/maskTrios/BBA2.jpg","null","",NA,NA,NA,NA,""
"image-keyboard-response",32,52421,"0.0-4.6-2.6","0r8zo8wgw4l43jk",151,"100.csv","","null","resources/images/fishbone.png","null","",NA,NA,NA,NA,""
"image-keyboard-response",33,52724,"0.0-4.7-0.7","0r8zo8wgw4l43jk",151,"100.csv","","302.09999999403954","resources/trios/L1T4A2.jpg","38","restless",0.8,0.3,0.7,0.298286598926121,"true"
"image-keyboard-response",34,53128,"0.0-4.7-1.7","0r8zo8wgw4l43jk",151,"100.csv","","null","resources/maskTrios/BT4B.jpg","null","",NA,NA,NA,NA,""
"image-keyboard-response",35,54331,"0.0-4.7-2.7","0r8zo8wgw4l43jk",151,"100.csv","","null","resources/images/coin2.png","null","",NA,NA,NA,NA,""
"image-keyboard-response",36,54678,"0.0-4.8-0.8","0r8zo8wgw4l43jk",151,"100.csv","","346.2999999821186","resources/trios/L1T4A2.jpg","37","restless",0.8,0.3,0.7,0.603685633746089,"true"
"image-keyboard-response",37,55080,"0.0-4.8-1.8","0r8zo8wgw4l43jk",151,"100.csv","","null","resources/maskTrios/L1BB.jpg","null","",NA,NA,NA,NA,""
"image-keyboard-response",38,56282,"0.0-4.8-2.8","0r8zo8wgw4l43jk",151,"100.csv","","null","resources/images/coin2.png","null","",NA,NA,NA,NA,""
"image-keyboard-response",39,56718,"0.0-4.9-0.9","0r8zo8wgw4l43jk",151,"100.csv","","435.60000002384186","resources/trios/L1T4A2.jpg","38","restless",0.8,0.3,0.7,0.496836762531653,"false"
"image-keyboard-response",40,57120,"0.0-4.9-1.9","0r8zo8wgw4l43jk",151,"100.csv","","null","resources/maskTrios/BT4B.jpg","null","",NA,NA,NA,NA,""
"image-keyboard-response",41,58325,"0.0-4.9-2.9","0r8zo8wgw4l43jk",151,"100.csv","","null","resources/images/fishbone.png","null","",NA,NA,NA,NA,""
"image-keyboard-response",42,58674,"0.0-4.10-0.10","0r8zo8wgw4l43jk",151,"100.csv","","347.69999998807907","resources/trios/L1T4A2.jpg","39","restless",0.8,0.3,0.8,0.98791188829748,"false"
"image-keyboard-response",43,59080,"0.0-4.10-1.10","0r8zo8wgw4l43jk",151,"100.csv","","null","resources/maskTrios/BBA2.jpg","null","",NA,NA,NA,NA,""
"image-keyboard-response",44,60282,"0.0-4.10-2.10","0r8zo8wgw4l43jk",151,"100.csv","","null","resources/images/fishbone.png","null","",NA,NA,NA,NA,""
"image-keyboard-response",45,60626,"0.0-4.11-0.11","0r8zo8wgw4l43jk",151,"100.csv","","342.90000000596046","resources/trios/L1T4A2.jpg","37","restless",0.8,0.3,0.8,0.330515685080452,"true"
"image-keyboard-response",46,61030,"0.0-4.11-1.11","0r8zo8wgw4l43jk",151,"100.csv","","null","resources/maskTrios/L1BB.jpg","null","",NA,NA,NA,NA,""
"image-keyboard-response",47,62231,"0.0-4.11-2.11","0r8zo8wgw4l43jk",151,"100.csv","","null","resources/images/coin2.png","null","",NA,NA,NA,NA,""
"image-keyboard-response",48,62560,"0.0-4.12-0.12","0r8zo8wgw4l43jk",151,"100.csv","","328.09999999403954","resources/trios/L1T4A2.jpg","37","restless",0.8,0.3,0.8,0.818977668843856,"false"
"image-keyboard-response",49,62963,"0.0-4.12-1.12","0r8zo8wgw4l43jk",151,"100.csv","","null","resources/maskTrios/L1BB.jpg","null","",NA,NA,NA,NA,""
"image-keyboard-response",50,64165,"0.0-4.12-2.12","0r8zo8wgw4l43jk",151,"100.csv","","null","resources/images/fishbone.png","null","",NA,NA,NA,NA,""
"image-keyboard-response",51,64548,"0.0-4.13-0.13","0r8zo8wgw4l43jk",151,"100.csv","","381.7000000178814","resources/trios/L1T4A2.jpg","37","restless",0.8,0.3,0.7,0.819987281087611,"false"
"image-keyboard-response",52,64951,"0.0-4.13-1.13","0r8zo8wgw4l43jk",151,"100.csv","","null","resources/maskTrios/L1BB.jpg","null","",NA,NA,NA,NA,""
"image-keyboard-response",53,66156,"0.0-4.13-2.13","0r8zo8wgw4l43jk",151,"100.csv","","null","resources/images/fishbone.png","null","",NA,NA,NA,NA,""
"image-keyboard-response",54,66495,"0.0-4.14-0.14","0r8zo8wgw4l43jk",151,"100.csv","","338.09999999403954","resources/trios/L1T4A2.jpg","38","restless",0.7,0.3,0.7,0.359980859547904,"false"
"image-keyboard-response",55,66897,"0.0-4.14-1.14","0r8zo8wgw4l43jk",151,"100.csv","","null","resources/maskTrios/BT4B.jpg","null","",NA,NA,NA,NA,""
"image-keyboard-response",56,68100,"0.0-4.14-2.14","0r8zo8wgw4l43jk",151,"100.csv","","null","resources/images/fishbone.png","null","",NA,NA,NA,NA,""
"image-keyboard-response",57,68419,"0.0-4.15-0.15","0r8zo8wgw4l43jk",151,"100.csv","","317.7999999821186","resources/trios/L1T4A2.jpg","39","restless",0.7,0.3,0.7,0.653951555279563,"true"
"image-keyboard-response",58,68821,"0.0-4.15-1.15","0r8zo8wgw4l43jk",151,"100.csv","","null","resources/maskTrios/BBA2.jpg","null","",NA,NA,NA,NA,""
"image-keyboard-response",59,70027,"0.0-4.15-2.15","0r8zo8wgw4l43jk",151,"100.csv","","null","resources/images/coin2.png","null","",NA,NA,NA,NA,""
"image-keyboard-response",60,70434,"0.0-4.16-0.16","0r8zo8wgw4l43jk",151,"100.csv","","405.09999999403954","resources/trios/L1T4A2.jpg","39","restless",0.7,0.3,0.8,0.560044135931899,"true"
"image-keyboard-response",61,70841,"0.0-4.16-1.16","0r8zo8wgw4l43jk",151,"100.csv","","null","resources/maskTrios/BBA2.jpg","null","",NA,NA,NA,NA,""
"image-keyboard-response",62,72042,"0.0-4.16-2.16","0r8zo8wgw4l43jk",151,"100.csv","","null","resources/images/coin2.png","null","",NA,NA,NA,NA,""
"image-keyboard-response",63,72368,"0.0-4.17-0.17","0r8zo8wgw4l43jk",151,"100.csv","","324.09999999403954","resources/trios/L1T4A2.jpg","37","restless",0.7,0.3,0.8,0.510843595706178,"true"
"image-keyboard-response",64,72774,"0.0-4.17-1.17","0r8zo8wgw4l43jk",151,"100.csv","","null","resources/maskTrios/L1BB.jpg","null","",NA,NA,NA,NA,""
"image-keyboard-response",65,73980,"0.0-4.17-2.17","0r8zo8wgw4l43jk",151,"100.csv","","null","resources/images/coin2.png","null","",NA,NA,NA,NA,""
"image-keyboard-response",66,74392,"0.0-4.18-0.18","0r8zo8wgw4l43jk",151,"100.csv","","410.40000000596046","resources/trios/L1T4A2.jpg","37","restless",0.7,0.3,0.8,0.911353564797222,"false"
"image-keyboard-response",67,74794,"0.0-4.18-1.18","0r8zo8wgw4l43jk",151,"100.csv","","null","resources/maskTrios/L1BB.jpg","null","",NA,NA,NA,NA,""
"image-keyboard-response",68,75996,"0.0-4.18-2.18","0r8zo8wgw4l43jk",151,"100.csv","","null","resources/images/fishbone.png","null","",NA,NA,NA,NA,""
"image-keyboard-response",69,76350,"0.0-4.19-0.19","0r8zo8wgw4l43jk",151,"100.csv","","353.40000000596046","resources/trios/L1T4A2.jpg","38","restless",0.7,0.3,0.7,0.426623895188768,"false"
"image-keyboard-response",70,76756,"0.0-4.19-1.19","0r8zo8wgw4l43jk",151,"100.csv","","null","resources/maskTrios/BT4B.jpg","null","",NA,NA,NA,NA,""
"image-keyboard-response",71,77958,"0.0-4.19-2.19","0r8zo8wgw4l43jk",151,"100.csv","","null","resources/images/fishbone.png","null","",NA,NA,NA,NA,""
"image-keyboard-response",72,78339,"0.0-4.20-0.20","0r8zo8wgw4l43jk",151,"100.csv","","379.80000001192093","resources/trios/L1T4A2.jpg","37","restless",0.6,0.3,0.7,0.678328573441249,"false"
"image-keyboard-response",73,78742,"0.0-4.20-1.20","0r8zo8wgw4l43jk",151,"100.csv","","null","resources/maskTrios/L1BB.jpg","null","",NA,NA,NA,NA,""
"image-keyboard-response",74,79943,"0.0-4.20-2.20","0r8zo8wgw4l43jk",151,"100.csv","","null","resources/images/fishbone.png","null","",NA,NA,NA,NA,""
"image-keyboard-response",75,80227,"0.0-4.21-0.21","0r8zo8wgw4l43jk",151,"100.csv","","283.5","resources/trios/L1T4A2.jpg","39","restless",0.6,0.3,0.7,0.00623180802165146,"true"
"image-keyboard-response",76,80634,"0.0-4.21-1.21","0r8zo8wgw4l43jk",151,"100.csv","","null","resources/maskTrios/BBA2.jpg","null","",NA,NA,NA,NA,""
"image-keyboard-response",77,81837,"0.0-4.21-2.21","0r8zo8wgw4l43jk",151,"100.csv","","null","resources/images/coin2.png","null","",NA,NA,NA,NA,""
"image-keyboard-response",78,82172,"0.0-4.22-0.22","0r8zo8wgw4l43jk",151,"100.csv","","334.7999999821186","resources/trios/L1T4A2.jpg","39","restless",0.6,0.3,0.7,0.460850751687601,"true"
"image-keyboard-response",79,82579,"0.0-4.22-1.22","0r8zo8wgw4l43jk",151,"100.csv","","null","resources/maskTrios/BBA2.jpg","null","",NA,NA,NA,NA,""
"image-keyboard-response",80,83781,"0.0-4.22-2.22","0r8zo8wgw4l43jk",151,"100.csv","","null","resources/images/coin2.png","null","",NA,NA,NA,NA,""
"image-keyboard-response",81,84174,"0.0-4.23-0.23","0r8zo8wgw4l43jk",151,"100.csv","","392.59999999403954","resources/trios/L1T4A2.jpg","39","restless",0.6,0.3,0.7,0.950743711649122,"false"
"image-keyboard-response",82,84581,"0.0-4.23-1.23","0r8zo8wgw4l43jk",151,"100.csv","","null","resources/maskTrios/BBA2.jpg","null","",NA,NA,NA,NA,""
"image-keyboard-response",83,85783,"0.0-4.23-2.23","0r8zo8wgw4l43jk",151,"100.csv","","null","resources/images/fishbone.png","null","",NA,NA,NA,NA,""
"image-keyboard-response",84,86124,"0.0-4.24-0.24","0r8zo8wgw4l43jk",151,"100.csv","","339.5","resources/trios/L1T4A2.jpg","38","restless",0.6,0.3,0.7,0.738410133101267,"false"
"image-keyboard-response",85,86526,"0.0-4.24-1.24","0r8zo8wgw4l43jk",151,"100.csv","","null","resources/maskTrios/BT4B.jpg","null","",NA,NA,NA,NA,""
"image-keyboard-response",86,87730,"0.0-4.24-2.24","0r8zo8wgw4l43jk",151,"100.csv","","null","resources/images/fishbone.png","null","",NA,NA,NA,NA,""
"image-keyboard-response",87,88147,"0.0-4.25-0.25","0r8zo8wgw4l43jk",151,"100.csv","","416.40000000596046","resources/trios/L1T4A2.jpg","37","restless",0.6,0.2,0.7,0.622262652151187,"false"
"image-keyboard-response",88,88551,"0.0-4.25-1.25","0r8zo8wgw4l43jk",151,"100.csv","","null","resources/maskTrios/L1BB.jpg","null","",NA,NA,NA,NA,""
"image-keyboard-response",89,89755,"0.0-4.25-2.25","0r8zo8wgw4l43jk",151,"100.csv","","null","resources/images/fishbone.png","null","",NA,NA,NA,NA,""
"image-keyboard-response",90,90208,"0.0-4.26-0.26","0r8zo8wgw4l43jk",151,"100.csv","","452","resources/trios/L1T4A2.jpg","38","restless",0.6,0.2,0.7,0.341326129791428,"false"
"image-keyboard-response",91,90611,"0.0-4.26-1.26","0r8zo8wgw4l43jk",151,"100.csv","","null","resources/maskTrios/BT4B.jpg","null","",NA,NA,NA,NA,""
"image-keyboard-response",92,91815,"0.0-4.26-2.26","0r8zo8wgw4l43jk",151,"100.csv","","null","resources/images/fishbone.png","null","",NA,NA,NA,NA,""
"image-keyboard-response",93,92213,"0.0-4.27-0.27","0r8zo8wgw4l43jk",151,"100.csv","","397.2999999821186","resources/trios/L1T4A2.jpg","39","restless",0.6,0.1,0.8,0.974759867729437,"false"
"image-keyboard-response",94,92616,"0.0-4.27-1.27","0r8zo8wgw4l43jk",151,"100.csv","","null","resources/maskTrios/BBA2.jpg","null","",NA,NA,NA,NA,""
"image-keyboard-response",95,93819,"0.0-4.27-2.27","0r8zo8wgw4l43jk",151,"100.csv","","null","resources/images/fishbone.png","null","",NA,NA,NA,NA,""
"image-keyboard-response",96,94201,"0.0-4.28-0.28","0r8zo8wgw4l43jk",151,"100.csv","","381.59999999403954","resources/trios/L1T4A2.jpg","39","restless",0.6,0.1,0.8,0.634169330067338,"true"
"image-keyboard-response",97,94606,"0.0-4.28-1.28","0r8zo8wgw4l43jk",151,"100.csv","","null","resources/maskTrios/BBA2.jpg","null","",NA,NA,NA,NA,""
"image-keyboard-response",98,95808,"0.0-4.28-2.28","0r8zo8wgw4l43jk",151,"100.csv","","null","resources/images/coin2.png","null","",NA,NA,NA,NA,""
"image-keyboard-response",99,96185,"0.0-4.29-0.29","0r8zo8wgw4l43jk",151,"100.csv","","376.10000002384186","resources/trios/L1T4A2.jpg","39","restless",0.6,0.1,0.8,0.0984471253443628,"true"
"image-keyboard-response",100,96592,"0.0-4.29-1.29","0r8zo8wgw4l43jk",151,"100.csv","","null","resources/maskTrios/BBA2.jpg","null","",NA,NA,NA,NA,""
"image-keyboard-response",101,97794,"0.0-4.29-2.29","0r8zo8wgw4l43jk",151,"100.csv","","null","resources/images/coin2.png","null","",NA,NA,NA,NA,""
"image-keyboard-response",102,98286,"0.0-4.30-0.30","0r8zo8wgw4l43jk",151,"100.csv","","491.2999999821186","resources/trios/L1T4A2.jpg","39","restless",0.6,0.1,0.8,0.087106513210216,"true"
"image-keyboard-response",103,98688,"0.0-4.30-1.30","0r8zo8wgw4l43jk",151,"100.csv","","null","resources/maskTrios/BBA2.jpg","null","",NA,NA,NA,NA,""
"image-keyboard-response",104,99894,"0.0-4.30-2.30","0r8zo8wgw4l43jk",151,"100.csv","","null","resources/images/coin2.png","null","",NA,NA,NA,NA,""
"image-keyboard-response",105,100463,"0.0-4.31-0.31","0r8zo8wgw4l43jk",151,"100.csv","","568","resources/trios/L1T4A2.jpg","39","restless",0.6,0.1,0.7,0.409649625476467,"true"
"image-keyboard-response",106,100865,"0.0-4.31-1.31","0r8zo8wgw4l43jk",151,"100.csv","","null","resources/maskTrios/BBA2.jpg","null","",NA,NA,NA,NA,""
"image-keyboard-response",107,102070,"0.0-4.31-2.31","0r8zo8wgw4l43jk",151,"100.csv","","null","resources/images/coin2.png","null","",NA,NA,NA,NA,""
"image-keyboard-response",108,102447,"0.0-4.32-0.32","0r8zo8wgw4l43jk",151,"100.csv","","375.69999998807907","resources/trios/L1T4A2.jpg","39","restless",0.6,0.1,0.7,0.0888815309911062,"true"
"image-keyboard-response",109,102850,"0.0-4.32-1.32","0r8zo8wgw4l43jk",151,"100.csv","","null","resources/maskTrios/BBA2.jpg","null","",NA,NA,NA,NA,""
"image-keyboard-response",110,104056,"0.0-4.32-2.32","0r8zo8wgw4l43jk",151,"100.csv","","null","resources/images/coin2.png","null","",NA,NA,NA,NA,""
"image-keyboard-response",111,104479,"0.0-4.33-0.33","0r8zo8wgw4l43jk",151,"100.csv","","422.2999999821186","resources/trios/L1T4A2.jpg","39","restless",0.6,0.1,0.6,0.221970907766659,"true"
"image-keyboard-response",112,104882,"0.0-4.33-1.33","0r8zo8wgw4l43jk",151,"100.csv","","null","resources/maskTrios/BBA2.jpg","null","",NA,NA,NA,NA,""
"image-keyboard-response",113,106088,"0.0-4.33-2.33","0r8zo8wgw4l43jk",151,"100.csv","","null","resources/images/coin2.png","null","",NA,NA,NA,NA,""
"image-keyboard-response",114,106723,"0.0-4.34-0.34","0r8zo8wgw4l43jk",151,"100.csv","","634","resources/trios/L1T4A2.jpg","39","restless",0.6,0.1,0.6,0.947761588598397,"false"
"image-keyboard-response",115,107129,"0.0-4.34-1.34","0r8zo8wgw4l43jk",151,"100.csv","","null","resources/maskTrios/BBA2.jpg","null","",NA,NA,NA,NA,""
"image-keyboard-response",116,108330,"0.0-4.34-2.34","0r8zo8wgw4l43jk",151,"100.csv","","null","resources/images/fishbone.png","null","",NA,NA,NA,NA,""
"image-keyboard-response",117,108784,"0.0-4.35-0.35","0r8zo8wgw4l43jk",151,"100.csv","","452.19999998807907","resources/trios/L1T4A2.jpg","39","restless",0.6,0.1,0.6,0.714971235166753,"false"
"image-keyboard-response",118,109189,"0.0-4.35-1.35","0r8zo8wgw4l43jk",151,"100.csv","","null","resources/maskTrios/BBA2.jpg","null","",NA,NA,NA,NA,""
"image-keyboard-response",119,110393,"0.0-4.35-2.35","0r8zo8wgw4l43jk",151,"100.csv","","null","resources/images/fishbone.png","null","",NA,NA,NA,NA,""
"image-keyboard-response",120,110725,"0.0-4.36-0.36","0r8zo8wgw4l43jk",151,"100.csv","","331.40000000596046","resources/trios/L1T4A2.jpg","37","restless",0.6,0.1,0.6,0.313042246395444,"true"
"image-keyboard-response",121,111127,"0.0-4.36-1.36","0r8zo8wgw4l43jk",151,"100.csv","","null","resources/maskTrios/L1BB.jpg","null","",NA,NA,NA,NA,""
"image-keyboard-response",122,112332,"0.0-4.36-2.36","0r8zo8wgw4l43jk",151,"100.csv","","null","resources/images/coin2.png","null","",NA,NA,NA,NA,""
"image-keyboard-response",123,112716,"0.0-4.37-0.37","0r8zo8wgw4l43jk",151,"100.csv","","382.19999998807907","resources/trios/L1T4A2.jpg","37","restless",0.6,0.1,0.6,0.0896258560786312,"true"
"image-keyboard-response",124,113119,"0.0-4.37-1.37","0r8zo8wgw4l43jk",151,"100.csv","","null","resources/maskTrios/L1BB.jpg","null","",NA,NA,NA,NA,""
"image-keyboard-response",125,114321,"0.0-4.37-2.37","0r8zo8wgw4l43jk",151,"100.csv","","null","resources/images/coin2.png","null","",NA,NA,NA,NA,""
"image-keyboard-response",126,114690,"0.0-4.38-0.38","0r8zo8wgw4l43jk",151,"100.csv","","367.90000000596046","resources/trios/L1T4A2.jpg","37","restless",0.6,0.2,0.6,0.0316355327888276,"true"
"image-keyboard-response",127,115092,"0.0-4.38-1.38","0r8zo8wgw4l43jk",151,"100.csv","","null","resources/maskTrios/L1BB.jpg","null","",NA,NA,NA,NA,""
"image-keyboard-response",128,116295,"0.0-4.38-2.38","0r8zo8wgw4l43jk",151,"100.csv","","null","resources/images/coin2.png","null","",NA,NA,NA,NA,""
"image-keyboard-response",129,116746,"0.0-4.39-0.39","0r8zo8wgw4l43jk",151,"100.csv","","450.5","resources/trios/L1T4A2.jpg","37","restless",0.6,0.2,0.6,0.669637367965209,"false"
"image-keyboard-response",130,117148,"0.0-4.39-1.39","0r8zo8wgw4l43jk",151,"100.csv","","null","resources/maskTrios/L1BB.jpg","null","",NA,NA,NA,NA,""
"image-keyboard-response",131,118352,"0.0-4.39-2.39","0r8zo8wgw4l43jk",151,"100.csv","","null","resources/images/fishbone.png","null","",NA,NA,NA,NA,""
"image-keyboard-response",132,118731,"0.0-4.40-0.40","0r8zo8wgw4l43jk",151,"100.csv","","377.5","resources/trios/L1T4A2.jpg","38","restless",0.6,0.2,0.6,0.21633464923295,"false"
"image-keyboard-response",133,119133,"0.0-4.40-1.40","0r8zo8wgw4l43jk",151,"100.csv","","null","resources/maskTrios/BT4B.jpg","null","",NA,NA,NA,NA,""
"image-keyboard-response",134,120340,"0.0-4.40-2.40","0r8zo8wgw4l43jk",151,"100.csv","","null","resources/images/fishbone.png","null","",NA,NA,NA,NA,""
"image-keyboard-response",135,120684,"0.0-4.41-0.41","0r8zo8wgw4l43jk",151,"100.csv","","342.80000001192093","resources/trios/L1T4A2.jpg","38","restless",0.6,0.2,0.6,0.242976091542572,"false"
"image-keyboard-response",136,121090,"0.0-4.41-1.41","0r8zo8wgw4l43jk",151,"100.csv","","null","resources/maskTrios/BT4B.jpg","null","",NA,NA,NA,NA,""
"image-keyboard-response",137,122294,"0.0-4.41-2.41","0r8zo8wgw4l43jk",151,"100.csv","","null","resources/images/fishbone.png","null","",NA,NA,NA,NA,""
"image-keyboard-response",138,122615,"0.0-4.42-0.42","0r8zo8wgw4l43jk",151,"100.csv","","319.80000001192093","resources/trios/L1T4A2.jpg","39","restless",0.6,0.2,0.6,0.248578607762724,"true"
"image-keyboard-response",139,123017,"0.0-4.42-1.42","0r8zo8wgw4l43jk",151,"100.csv","","null","resources/maskTrios/BBA2.jpg","null","",NA,NA,NA,NA,""
"image-keyboard-response",140,124219,"0.0-4.42-2.42","0r8zo8wgw4l43jk",151,"100.csv","","null","resources/images/coin2.png","null","",NA,NA,NA,NA,""
"image-keyboard-response",141,124600,"0.0-4.43-0.43","0r8zo8wgw4l43jk",151,"100.csv","","379.90000000596046","resources/trios/L1T4A2.jpg","37","restless",0.6,0.2,0.6,0.817763690678063,"false"
"image-keyboard-response",142,125003,"0.0-4.43-1.43","0r8zo8wgw4l43jk",151,"100.csv","","null","resources/maskTrios/L1BB.jpg","null","",NA,NA,NA,NA,""
"image-keyboard-response",143,126210,"0.0-4.43-2.43","0r8zo8wgw4l43jk",151,"100.csv","","null","resources/images/fishbone.png","null","",NA,NA,NA,NA,""
"image-keyboard-response",144,126580,"0.0-4.44-0.44","0r8zo8wgw4l43jk",151,"100.csv","","369.5","resources/trios/L1T4A2.jpg","39","restless",0.5,0.2,0.6,0.322733905768578,"true"
"image-keyboard-response",145,126983,"0.0-4.44-1.44","0r8zo8wgw4l43jk",151,"100.csv","","null","resources/maskTrios/BBA2.jpg","null","",NA,NA,NA,NA,""
"image-keyboard-response",146,128184,"0.0-4.44-2.44","0r8zo8wgw4l43jk",151,"100.csv","","null","resources/images/coin2.png","null","",NA,NA,NA,NA,""
"image-keyboard-response",147,128712,"0.0-4.45-0.45","0r8zo8wgw4l43jk",151,"100.csv","","526.6000000238419","resources/trios/L1T4A2.jpg","39","restless",0.5,0.2,0.7,0.0812350715106513,"true"
"image-keyboard-response",148,129118,"0.0-4.45-1.45","0r8zo8wgw4l43jk",151,"100.csv","","null","resources/maskTrios/BBA2.jpg","null","",NA,NA,NA,NA,""
"image-keyboard-response",149,130320,"0.0-4.45-2.45","0r8zo8wgw4l43jk",151,"100.csv","","null","resources/images/coin2.png","null","",NA,NA,NA,NA,""
"image-keyboard-response",150,130700,"0.0-4.46-0.46","0r8zo8wgw4l43jk",151,"100.csv","","378.59999999403954","resources/trios/L1T4A2.jpg","39","restless",0.5,0.2,0.7,0.860503643198373,"false"
"image-keyboard-response",151,131106,"0.0-4.46-1.46","0r8zo8wgw4l43jk",151,"100.csv","","null","resources/maskTrios/BBA2.jpg","null","",NA,NA,NA,NA,""
"image-keyboard-response",152,132308,"0.0-4.46-2.46","0r8zo8wgw4l43jk",151,"100.csv","","null","resources/images/fishbone.png","null","",NA,NA,NA,NA,""
"image-keyboard-response",153,132731,"0.0-4.47-0.47","0r8zo8wgw4l43jk",151,"100.csv","","422.2000000178814","resources/trios/L1T4A2.jpg","38","restless",0.5,0.3,0.7,0.758994224674922,"false"
"image-keyboard-response",154,133135,"0.0-4.47-1.47","0r8zo8wgw4l43jk",151,"100.csv","","null","resources/maskTrios/BT4B.jpg","null","",NA,NA,NA,NA,""
"image-keyboard-response",155,134338,"0.0-4.47-2.47","0r8zo8wgw4l43jk",151,"100.csv","","null","resources/images/fishbone.png","null","",NA,NA,NA,NA,""
"image-keyboard-response",156,134759,"0.0-4.48-0.48","0r8zo8wgw4l43jk",151,"100.csv","","420.59999999403954","resources/trios/L1T4A2.jpg","37","restless",0.5,0.3,0.7,0.899240885805725,"false"
"image-keyboard-response",157,135162,"0.0-4.48-1.48","0r8zo8wgw4l43jk",151,"100.csv","","null","resources/maskTrios/L1BB.jpg","null","",NA,NA,NA,NA,""
"image-keyboard-response",158,136367,"0.0-4.48-2.48","0r8zo8wgw4l43jk",151,"100.csv","","null","resources/images/fishbone.png","null","",NA,NA,NA,NA,""
"image-keyboard-response",159,136702,"0.0-4.49-0.49","0r8zo8wgw4l43jk",151,"100.csv","","334.30000001192093","resources/trios/L1T4A2.jpg","38","restless",0.5,0.3,0.7,0.482730211500771,"false"
"image-keyboard-response",160,137106,"0.0-4.49-1.49","0r8zo8wgw4l43jk",151,"100.csv","","null","resources/maskTrios/BT4B.jpg","null","",NA,NA,NA,NA,""
"image-keyboard-response",161,138308,"0.0-4.49-2.49","0r8zo8wgw4l43jk",151,"100.csv","","null","resources/images/fishbone.png","null","",NA,NA,NA,NA,""
"image-keyboard-response",162,138651,"0.0-4.50-0.50","0r8zo8wgw4l43jk",151,"100.csv","","341.7999999821186","resources/trios/L1T4A2.jpg","39","restless",0.5,0.3,0.7,0.765477099984273,"false"
"image-keyboard-response",163,139054,"0.0-4.50-1.50","0r8zo8wgw4l43jk",151,"100.csv","","null","resources/maskTrios/BBA2.jpg","null","",NA,NA,NA,NA,""
"image-keyboard-response",164,140258,"0.0-4.50-2.50","0r8zo8wgw4l43jk",151,"100.csv","","null","resources/images/fishbone.png","null","",NA,NA,NA,NA,""
"image-keyboard-response",165,140626,"0.0-4.51-0.51","0r8zo8wgw4l43jk",151,"100.csv","","366.90000000596046","resources/trios/L1T4A2.jpg","39","restless",0.5,0.4,0.7,0.320421485560066,"true"
"image-keyboard-response",166,141029,"0.0-4.51-1.51","0r8zo8wgw4l43jk",151,"100.csv","","null","resources/maskTrios/BBA2.jpg","null","",NA,NA,NA,NA,""
"image-keyboard-response",167,142232,"0.0-4.51-2.51","0r8zo8wgw4l43jk",151,"100.csv","","null","resources/images/coin2.png","null","",NA,NA,NA,NA,""
"image-keyboard-response",168,143153,"0.0-4.52-0.52","0r8zo8wgw4l43jk",151,"100.csv","","919.9000000059605","resources/trios/L1T4A2.jpg","39","restless",0.5,0.5,0.7,0.733926645646612,"false"
"image-keyboard-response",169,143558,"0.0-4.52-1.52","0r8zo8wgw4l43jk",151,"100.csv","","null","resources/maskTrios/BBA2.jpg","null","",NA,NA,NA,NA,""
"image-keyboard-response",170,144763,"0.0-4.52-2.52","0r8zo8wgw4l43jk",151,"100.csv","","null","resources/images/fishbone.png","null","",NA,NA,NA,NA,""
"image-keyboard-response",171,145269,"0.0-4.53-0.53","0r8zo8wgw4l43jk",151,"100.csv","","505.40000000596046","resources/trios/L1T4A2.jpg","39","restless",0.5,0.5,0.7,0.572417272054052,"true"
"image-keyboard-response",172,145674,"0.0-4.53-1.53","0r8zo8wgw4l43jk",151,"100.csv","","null","resources/maskTrios/BBA2.jpg","null","",NA,NA,NA,NA,""
"image-keyboard-response",173,146876,"0.0-4.53-2.53","0r8zo8wgw4l43jk",151,"100.csv","","null","resources/images/coin2.png","null","",NA,NA,NA,NA,""
"image-keyboard-response",174,147707,"0.0-4.54-0.54","0r8zo8wgw4l43jk",151,"100.csv","","829.8000000119209","resources/trios/L1T4A2.jpg","37","restless",0.5,0.5,0.8,0.0437101564055309,"true"
"image-keyboard-response",175,148113,"0.0-4.54-1.54","0r8zo8wgw4l43jk",151,"100.csv","","null","resources/maskTrios/L1BB.jpg","null","",NA,NA,NA,NA,""
"image-keyboard-response",176,149315,"0.0-4.54-2.54","0r8zo8wgw4l43jk",151,"100.csv","","null","resources/images/coin2.png","null","",NA,NA,NA,NA,""
"image-keyboard-response",177,150471,"0.0-4.55-0.55","0r8zo8wgw4l43jk",151,"100.csv","","1155.0999999940395","resources/trios/L1T4A2.jpg","37","restless",0.5,0.5,0.8,0.323532112224588,"true"
"image-keyboard-response",178,150876,"0.0-4.55-1.55","0r8zo8wgw4l43jk",151,"100.csv","","null","resources/maskTrios/L1BB.jpg","null","",NA,NA,NA,NA,""
"image-keyboard-response",179,152077,"0.0-4.55-2.55","0r8zo8wgw4l43jk",151,"100.csv","","null","resources/images/coin2.png","null","",NA,NA,NA,NA,""
"image-keyboard-response",180,152513,"0.0-4.56-0.56","0r8zo8wgw4l43jk",151,"100.csv","","435.2999999821186","resources/trios/L1T4A2.jpg","37","restless",0.5,0.5,0.8,0.885878381491246,"false"
"image-keyboard-response",181,152916,"0.0-4.56-1.56","0r8zo8wgw4l43jk",151,"100.csv","","null","resources/maskTrios/L1BB.jpg","null","",NA,NA,NA,NA,""
"image-keyboard-response",182,154121,"0.0-4.56-2.56","0r8zo8wgw4l43jk",151,"100.csv","","null","resources/images/fishbone.png","null","",NA,NA,NA,NA,""
"image-keyboard-response",183,154450,"0.0-4.57-0.57","0r8zo8wgw4l43jk",151,"100.csv","","328.10000002384186","resources/trios/L1T4A2.jpg","38","restless",0.5,0.5,0.8,0.350325679415939,"true"
"image-keyboard-response",184,154856,"0.0-4.57-1.57","0r8zo8wgw4l43jk",151,"100.csv","","null","resources/maskTrios/BT4B.jpg","null","",NA,NA,NA,NA,""
"image-keyboard-response",185,156059,"0.0-4.57-2.57","0r8zo8wgw4l43jk",151,"100.csv","","null","resources/images/coin2.png","null","",NA,NA,NA,NA,""
"image-keyboard-response",186,156459,"0.0-4.58-0.58","0r8zo8wgw4l43jk",151,"100.csv","","398.60000002384186","resources/trios/L1T4A2.jpg","38","restless",0.5,0.5,0.8,0.147209618463151,"true"
"image-keyboard-response",187,156861,"0.0-4.58-1.58","0r8zo8wgw4l43jk",151,"100.csv","","null","resources/maskTrios/BT4B.jpg","null","",NA,NA,NA,NA,""
"image-keyboard-response",188,158066,"0.0-4.58-2.58","0r8zo8wgw4l43jk",151,"100.csv","","null","resources/images/coin2.png","null","",NA,NA,NA,NA,""
"image-keyboard-response",189,158502,"0.0-4.59-0.59","0r8zo8wgw4l43jk",151,"100.csv","","435","resources/trios/L1T4A2.jpg","38","restless",0.5,0.6,0.8,0.765693866265039,"false"
"image-keyboard-response",190,158904,"0.0-4.59-1.59","0r8zo8wgw4l43jk",151,"100.csv","","null","resources/maskTrios/BT4B.jpg","null","",NA,NA,NA,NA,""
"image-keyboard-response",191,160106,"0.0-4.59-2.59","0r8zo8wgw4l43jk",151,"100.csv","","null","resources/images/fishbone.png","null","",NA,NA,NA,NA,""
"image-keyboard-response",192,160388,"0.0-4.60-0.60","0r8zo8wgw4l43jk",151,"100.csv","","281.40000000596046","resources/trios/L1T4A2.jpg","39","restless",0.5,0.6,0.9,0.145870331751958,"true"
"image-keyboard-response",193,160791,"0.0-4.60-1.60","0r8zo8wgw4l43jk",151,"100.csv","","null","resources/maskTrios/BBA2.jpg","null","",NA,NA,NA,NA,""
"image-keyboard-response",194,161994,"0.0-4.60-2.60","0r8zo8wgw4l43jk",151,"100.csv","","null","resources/images/coin2.png","null","",NA,NA,NA,NA,""
"image-keyboard-response",195,162445,"0.0-4.61-0.61","0r8zo8wgw4l43jk",151,"100.csv","","449.90000000596046","resources/trios/L1T4A2.jpg","39","restless",0.5,0.6,0.9,0.720927602767958,"true"
"image-keyboard-response",196,162851,"0.0-4.61-1.61","0r8zo8wgw4l43jk",151,"100.csv","","null","resources/maskTrios/BBA2.jpg","null","",NA,NA,NA,NA,""
"image-keyboard-response",197,164057,"0.0-4.61-2.61","0r8zo8wgw4l43jk",151,"100.csv","","null","resources/images/coin2.png","null","",NA,NA,NA,NA,""
"image-keyboard-response",198,164469,"0.0-4.62-0.62","0r8zo8wgw4l43jk",151,"100.csv","","410.90000000596046","resources/trios/L1T4A2.jpg","39","restless",0.5,0.7,0.8,0.480624492396469,"true"
"image-keyboard-response",199,164872,"0.0-4.62-1.62","0r8zo8wgw4l43jk",151,"100.csv","","null","resources/maskTrios/BBA2.jpg","null","",NA,NA,NA,NA,""
"image-keyboard-response",200,166078,"0.0-4.62-2.62","0r8zo8wgw4l43jk",151,"100.csv","","null","resources/images/coin2.png","null","",NA,NA,NA,NA,""
"image-keyboard-response",201,166394,"0.0-4.63-0.63","0r8zo8wgw4l43jk",151,"100.csv","","315.19999998807907","resources/trios/L1T4A2.jpg","39","restless",0.5,0.7,0.8,0.955353265546534,"false"
"image-keyboard-response",202,166799,"0.0-4.63-1.63","0r8zo8wgw4l43jk",151,"100.csv","","null","resources/maskTrios/BBA2.jpg","null","",NA,NA,NA,NA,""
"image-keyboard-response",203,168001,"0.0-4.63-2.63","0r8zo8wgw4l43jk",151,"100.csv","","null","resources/images/fishbone.png","null","",NA,NA,NA,NA,""
"image-keyboard-response",204,168467,"0.0-4.64-0.64","0r8zo8wgw4l43jk",151,"100.csv","","465.19999998807907","resources/trios/L1T4A2.jpg","39","restless",0.5,0.6,0.8,0.126559467402119,"true"
"image-keyboard-response",205,168873,"0.0-4.64-1.64","0r8zo8wgw4l43jk",151,"100.csv","","null","resources/maskTrios/BBA2.jpg","null","",NA,NA,NA,NA,""
"image-keyboard-response",206,170079,"0.0-4.64-2.64","0r8zo8wgw4l43jk",151,"100.csv","","null","resources/images/coin2.png","null","",NA,NA,NA,NA,""
"image-keyboard-response",207,170497,"0.0-4.65-0.65","0r8zo8wgw4l43jk",151,"100.csv","","416.80000001192093","resources/trios/L1T4A2.jpg","39","restless",0.5,0.6,0.8,0.272288391668266,"true"
"image-keyboard-response",208,170900,"0.0-4.65-1.65","0r8zo8wgw4l43jk",151,"100.csv","","null","resources/maskTrios/BBA2.jpg","null","",NA,NA,NA,NA,""
"image-keyboard-response",209,172106,"0.0-4.65-2.65","0r8zo8wgw4l43jk",151,"100.csv","","null","resources/images/coin2.png","null","",NA,NA,NA,NA,""
"image-keyboard-response",210,172560,"0.0-4.66-0.66","0r8zo8wgw4l43jk",151,"100.csv","","453.59999999403954","resources/trios/L1T4A2.jpg","39","restless",0.5,0.6,0.8,0.797778433353382,"true"
"image-keyboard-response",211,172963,"0.0-4.66-1.66","0r8zo8wgw4l43jk",151,"100.csv","","null","resources/maskTrios/BBA2.jpg","null","",NA,NA,NA,NA,""
"image-keyboard-response",212,174170,"0.0-4.66-2.66","0r8zo8wgw4l43jk",151,"100.csv","","null","resources/images/coin2.png","null","",NA,NA,NA,NA,""
"image-keyboard-response",213,174626,"0.0-4.67-0.67","0r8zo8wgw4l43jk",151,"100.csv","","455.09999999403954","resources/trios/L1T4A2.jpg","39","restless",0.6,0.6,0.8,0.405431492940399,"true"
"image-keyboard-response",214,175031,"0.0-4.67-1.67","0r8zo8wgw4l43jk",151,"100.csv","","null","resources/maskTrios/BBA2.jpg","null","",NA,NA,NA,NA,""
"image-keyboard-response",215,176238,"0.0-4.67-2.67","0r8zo8wgw4l43jk",151,"100.csv","","null","resources/images/coin2.png","null","",NA,NA,NA,NA,""
"image-keyboard-response",216,176652,"0.0-4.68-0.68","0r8zo8wgw4l43jk",151,"100.csv","","413.40000000596046","resources/trios/L1T4A2.jpg","39","restless",0.6,0.6,0.8,0.573044101934913,"true"
"image-keyboard-response",217,177057,"0.0-4.68-1.68","0r8zo8wgw4l43jk",151,"100.csv","","null","resources/maskTrios/BBA2.jpg","null","",NA,NA,NA,NA,""
"image-keyboard-response",218,178258,"0.0-4.68-2.68","0r8zo8wgw4l43jk",151,"100.csv","","null","resources/images/coin2.png","null","",NA,NA,NA,NA,""
"image-keyboard-response",219,178763,"0.0-4.69-0.69","0r8zo8wgw4l43jk",151,"100.csv","","503.60000002384186","resources/trios/L1T4A2.jpg","39","restless",0.6,0.6,0.8,0.402127437512663,"true"
"image-keyboard-response",220,179169,"0.0-4.69-1.69","0r8zo8wgw4l43jk",151,"100.csv","","null","resources/maskTrios/BBA2.jpg","null","",NA,NA,NA,NA,""
"image-keyboard-response",221,180372,"0.0-4.69-2.69","0r8zo8wgw4l43jk",151,"100.csv","","null","resources/images/coin2.png","null","",NA,NA,NA,NA,""
"image-keyboard-response",222,180687,"0.0-4.70-0.70","0r8zo8wgw4l43jk",151,"100.csv","","314.2999999821186","resources/trios/L1T4A2.jpg","39","restless",0.6,0.5,0.7,0.223143710324148,"true"
"image-keyboard-response",223,181091,"0.0-4.70-1.70","0r8zo8wgw4l43jk",151,"100.csv","","null","resources/maskTrios/BBA2.jpg","null","",NA,NA,NA,NA,""
"image-keyboard-response",224,182297,"0.0-4.70-2.70","0r8zo8wgw4l43jk",151,"100.csv","","null","resources/images/coin2.png","null","",NA,NA,NA,NA,""
"image-keyboard-response",225,182722,"0.0-4.71-0.71","0r8zo8wgw4l43jk",151,"100.csv","","424.80000001192093","resources/trios/L1T4A2.jpg","39","restless",0.6,0.5,0.7,0.948258922199846,"false"
"image-keyboard-response",226,183129,"0.0-4.71-1.71","0r8zo8wgw4l43jk",151,"100.csv","","null","resources/maskTrios/BBA2.jpg","null","",NA,NA,NA,NA,""
"image-keyboard-response",227,184331,"0.0-4.71-2.71","0r8zo8wgw4l43jk",151,"100.csv","","null","resources/images/fishbone.png","null","",NA,NA,NA,NA,""
"image-keyboard-response",228,184798,"0.0-4.72-0.72","0r8zo8wgw4l43jk",151,"100.csv","","465.69999998807907","resources/trios/L1T4A2.jpg","39","restless",0.6,0.5,0.7,0.548629082890831,"true"
"image-keyboard-response",229,185201,"0.0-4.72-1.72","0r8zo8wgw4l43jk",151,"100.csv","","null","resources/maskTrios/BBA2.jpg","null","",NA,NA,NA,NA,""
"image-keyboard-response",230,186403,"0.0-4.72-2.72","0r8zo8wgw4l43jk",151,"100.csv","","null","resources/images/coin2.png","null","",NA,NA,NA,NA,""
"image-keyboard-response",231,186687,"0.0-4.73-0.73","0r8zo8wgw4l43jk",151,"100.csv","","283","resources/trios/L1T4A2.jpg","39","restless",0.6,0.5,0.7,0.242472135754716,"true"
"image-keyboard-response",232,187094,"0.0-4.73-1.73","0r8zo8wgw4l43jk",151,"100.csv","","null","resources/maskTrios/BBA2.jpg","null","",NA,NA,NA,NA,""
"image-keyboard-response",233,188296,"0.0-4.73-2.73","0r8zo8wgw4l43jk",151,"100.csv","","null","resources/images/coin2.png","null","",NA,NA,NA,NA,""
"image-keyboard-response",234,188657,"0.0-4.74-0.74","0r8zo8wgw4l43jk",151,"100.csv","","359.40000000596046","resources/trios/L1T4A2.jpg","39","restless",0.6,0.5,0.7,0.0512860326928268,"true"
"image-keyboard-response",235,189061,"0.0-4.74-1.74","0r8zo8wgw4l43jk",151,"100.csv","","null","resources/maskTrios/BBA2.jpg","null","",NA,NA,NA,NA,""
"image-keyboard-response",236,190263,"0.0-4.74-2.74","0r8zo8wgw4l43jk",151,"100.csv","","null","resources/images/coin2.png","null","",NA,NA,NA,NA,""
"image-keyboard-response",237,190663,"0.0-4.75-0.75","0r8zo8wgw4l43jk",151,"100.csv","","399.19999998807907","resources/trios/L1T4A2.jpg","39","restless",0.6,0.5,0.7,0.331793252625451,"true"
"image-keyboard-response",238,191065,"0.0-4.75-1.75","0r8zo8wgw4l43jk",151,"100.csv","","null","resources/maskTrios/BBA2.jpg","null","",NA,NA,NA,NA,""
"image-keyboard-response",239,192266,"0.0-4.75-2.75","0r8zo8wgw4l43jk",151,"100.csv","","null","resources/images/coin2.png","null","",NA,NA,NA,NA,""
"image-keyboard-response",240,192364,"0.0-4.76-0.76","0r8zo8wgw4l43jk",151,"100.csv","","96.90000000596046","resources/trios/L1T4A2.jpg","39","restless",0.6,0.5,0.7,0.682452344904953,"true"
"image-keyboard-response",241,192771,"0.0-4.76-1.76","0r8zo8wgw4l43jk",151,"100.csv","","null","resources/maskTrios/BBA2.jpg","null","",NA,NA,NA,NA,""
"image-keyboard-response",242,193973,"0.0-4.76-2.76","0r8zo8wgw4l43jk",151,"100.csv","","null","resources/images/coin2.png","null","",NA,NA,NA,NA,""
"image-keyboard-response",243,194316,"0.0-4.77-0.77","0r8zo8wgw4l43jk",151,"100.csv","","342.89999997615814","resources/trios/L1T4A2.jpg","39","restless",0.6,0.5,0.7,0.339402859745956,"true"
"image-keyboard-response",244,194722,"0.0-4.77-1.77","0r8zo8wgw4l43jk",151,"100.csv","","null","resources/maskTrios/BBA2.jpg","null","",NA,NA,NA,NA,""
"image-keyboard-response",245,195924,"0.0-4.77-2.77","0r8zo8wgw4l43jk",151,"100.csv","","null","resources/images/coin2.png","null","",NA,NA,NA,NA,""
"image-keyboard-response",246,197426,"0.0-4.78-0.78","0r8zo8wgw4l43jk",151,"100.csv","","1500.5999999940395","resources/trios/L1T4A2.jpg","37","restless",0.6,0.6,0.7,0.761500426921774,"false"
"image-keyboard-response",247,197828,"0.0-4.78-1.78","0r8zo8wgw4l43jk",151,"100.csv","","null","resources/maskTrios/L1BB.jpg","null","",NA,NA,NA,NA,""
"image-keyboard-response",248,199029,"0.0-4.78-2.78","0r8zo8wgw4l43jk",151,"100.csv","","null","resources/images/fishbone.png","null","",NA,NA,NA,NA,""
"image-keyboard-response",249,199382,"0.0-4.79-0.79","0r8zo8wgw4l43jk",151,"100.csv","","352.09999999403954","resources/trios/L1T4A2.jpg","39","restless",0.6,0.6,0.7,0.332142875380654,"true"
"image-keyboard-response",250,199784,"0.0-4.79-1.79","0r8zo8wgw4l43jk",151,"100.csv","","null","resources/maskTrios/BBA2.jpg","null","",NA,NA,NA,NA,""
"image-keyboard-response",251,200990,"0.0-4.79-2.79","0r8zo8wgw4l43jk",151,"100.csv","","null","resources/images/coin2.png","null","",NA,NA,NA,NA,""
"image-keyboard-response",252,201409,"0.0-4.80-0.80","0r8zo8wgw4l43jk",151,"100.csv","","417.5","resources/trios/L1T4A2.jpg","39","restless",0.6,0.6,0.7,0.177801446516717,"true"
"image-keyboard-response",253,201814,"0.0-4.80-1.80","0r8zo8wgw4l43jk",151,"100.csv","","null","resources/maskTrios/BBA2.jpg","null","",NA,NA,NA,NA,""
"image-keyboard-response",254,203018,"0.0-4.80-2.80","0r8zo8wgw4l43jk",151,"100.csv","","null","resources/images/coin2.png","null","",NA,NA,NA,NA,""
"image-keyboard-response",255,203458,"0.0-4.81-0.81","0r8zo8wgw4l43jk",151,"100.csv","","439","resources/trios/L1T4A2.jpg","39","restless",0.6,0.6,0.7,0.270026241836302,"true"
"image-keyboard-response",256,203859,"0.0-4.81-1.81","0r8zo8wgw4l43jk",151,"100.csv","","null","resources/maskTrios/BBA2.jpg","null","",NA,NA,NA,NA,""
"image-keyboard-response",257,205061,"0.0-4.81-2.81","0r8zo8wgw4l43jk",151,"100.csv","","null","resources/images/coin2.png","null","",NA,NA,NA,NA,""
"image-keyboard-response",258,205482,"0.0-4.82-0.82","0r8zo8wgw4l43jk",151,"100.csv","","419.59999999403954","resources/trios/L1T4A2.jpg","39","restless",0.6,0.6,0.7,0.706371387138748,"false"
"image-keyboard-response",259,205885,"0.0-4.82-1.82","0r8zo8wgw4l43jk",151,"100.csv","","null","resources/maskTrios/BBA2.jpg","null","",NA,NA,NA,NA,""
"image-keyboard-response",260,207092,"0.0-4.82-2.82","0r8zo8wgw4l43jk",151,"100.csv","","null","resources/images/fishbone.png","null","",NA,NA,NA,NA,""
"image-keyboard-response",261,207442,"0.0-4.83-0.83","0r8zo8wgw4l43jk",151,"100.csv","","348.80000001192093","resources/trios/L1T4A2.jpg","39","restless",0.6,0.6,0.7,0.280282367783544,"true"
"image-keyboard-response",262,207847,"0.0-4.83-1.83","0r8zo8wgw4l43jk",151,"100.csv","","null","resources/maskTrios/BBA2.jpg","null","",NA,NA,NA,NA,""
"image-keyboard-response",263,209055,"0.0-4.83-2.83","0r8zo8wgw4l43jk",151,"100.csv","","null","resources/images/coin2.png","null","",NA,NA,NA,NA,""
"image-keyboard-response",264,209488,"0.0-4.84-0.84","0r8zo8wgw4l43jk",151,"100.csv","","432.30000001192093","resources/trios/L1T4A2.jpg","39","restless",0.6,0.6,0.7,0.0253472144502549,"true"
"image-keyboard-response",265,209892,"0.0-4.84-1.84","0r8zo8wgw4l43jk",151,"100.csv","","null","resources/maskTrios/BBA2.jpg","null","",NA,NA,NA,NA,""
"image-keyboard-response",266,211098,"0.0-4.84-2.84","0r8zo8wgw4l43jk",151,"100.csv","","null","resources/images/coin2.png","null","",NA,NA,NA,NA,""
"image-keyboard-response",267,211746,"0.0-4.85-0.85","0r8zo8wgw4l43jk",151,"100.csv","","646.4000000059605","resources/trios/L1T4A2.jpg","39","restless",0.6,0.5,0.7,0.887630982599009,"false"
"image-keyboard-response",268,212151,"0.0-4.85-1.85","0r8zo8wgw4l43jk",151,"100.csv","","null","resources/maskTrios/BBA2.jpg","null","",NA,NA,NA,NA,""
"image-keyboard-response",269,213356,"0.0-4.85-2.85","0r8zo8wgw4l43jk",151,"100.csv","","null","resources/images/fishbone.png","null","",NA,NA,NA,NA,""
"image-keyboard-response",270,213963,"0.0-4.86-0.86","0r8zo8wgw4l43jk",151,"100.csv","","606","resources/trios/L1T4A2.jpg","39","restless",0.6,0.6,0.7,0.597425581488828,"true"
"image-keyboard-response",271,214367,"0.0-4.86-1.86","0r8zo8wgw4l43jk",151,"100.csv","","null","resources/maskTrios/BBA2.jpg","null","",NA,NA,NA,NA,""
"image-keyboard-response",272,215573,"0.0-4.86-2.86","0r8zo8wgw4l43jk",151,"100.csv","","null","resources/images/coin2.png","null","",NA,NA,NA,NA,""
"image-keyboard-response",273,216053,"0.0-4.87-0.87","0r8zo8wgw4l43jk",151,"100.csv","","478.59999999403954","resources/trios/L1T4A2.jpg","39","restless",0.6,0.6,0.7,0.776416037484726,"false"
"image-keyboard-response",274,216456,"0.0-4.87-1.87","0r8zo8wgw4l43jk",151,"100.csv","","null","resources/maskTrios/BBA2.jpg","null","",NA,NA,NA,NA,""
"image-keyboard-response",275,217658,"0.0-4.87-2.87","0r8zo8wgw4l43jk",151,"100.csv","","null","resources/images/fishbone.png","null","",NA,NA,NA,NA,""
"image-keyboard-response",276,218266,"0.0-4.88-0.88","0r8zo8wgw4l43jk",151,"100.csv","","606.9000000059605","resources/trios/L1T4A2.jpg","38","restless",0.6,0.6,0.7,0.776682697140171,"false"
"image-keyboard-response",277,218668,"0.0-4.88-1.88","0r8zo8wgw4l43jk",151,"100.csv","","null","resources/maskTrios/BT4B.jpg","null","",NA,NA,NA,NA,""
"image-keyboard-response",278,219870,"0.0-4.88-2.88","0r8zo8wgw4l43jk",151,"100.csv","","null","resources/images/fishbone.png","null","",NA,NA,NA,NA,""
"image-keyboard-response",279,220366,"0.0-4.89-0.89","0r8zo8wgw4l43jk",151,"100.csv","","495.09999999403954","resources/trios/L1T4A2.jpg","37","restless",0.6,0.6,0.7,0.0459446128627385,"true"
"image-keyboard-response",280,220769,"0.0-4.89-1.89","0r8zo8wgw4l43jk",151,"100.csv","","null","resources/maskTrios/L1BB.jpg","null","",NA,NA,NA,NA,""
"image-keyboard-response",281,221972,"0.0-4.89-2.89","0r8zo8wgw4l43jk",151,"100.csv","","null","resources/images/coin2.png","null","",NA,NA,NA,NA,""
"image-keyboard-response",282,222332,"0.0-4.90-0.90","0r8zo8wgw4l43jk",151,"100.csv","","359.5","resources/trios/L1T4A2.jpg","37","restless",0.6,0.6,0.8,0.135058719408583,"true"
"image-keyboard-response",283,222737,"0.0-4.90-1.90","0r8zo8wgw4l43jk",151,"100.csv","","null","resources/maskTrios/L1BB.jpg","null","",NA,NA,NA,NA,""
"image-keyboard-response",284,223940,"0.0-4.90-2.90","0r8zo8wgw4l43jk",151,"100.csv","","null","resources/images/coin2.png","null","",NA,NA,NA,NA,""
"image-keyboard-response",285,224345,"0.0-4.91-0.91","0r8zo8wgw4l43jk",151,"100.csv","","404.09999999403954","resources/trios/L1T4A2.jpg","37","restless",0.6,0.6,0.8,0.976103281931877,"false"
"image-keyboard-response",286,224748,"0.0-4.91-1.91","0r8zo8wgw4l43jk",151,"100.csv","","null","resources/maskTrios/L1BB.jpg","null","",NA,NA,NA,NA,""
"image-keyboard-response",287,225954,"0.0-4.91-2.91","0r8zo8wgw4l43jk",151,"100.csv","","null","resources/images/fishbone.png","null","",NA,NA,NA,NA,""
"image-keyboard-response",288,226468,"0.0-4.92-0.92","0r8zo8wgw4l43jk",151,"100.csv","","513.7999999821186","resources/trios/L1T4A2.jpg","37","restless",0.7,0.6,0.7,0.0438906542902882,"true"
"image-keyboard-response",289,226873,"0.0-4.92-1.92","0r8zo8wgw4l43jk",151,"100.csv","","null","resources/maskTrios/L1BB.jpg","null","",NA,NA,NA,NA,""
"image-keyboard-response",290,228078,"0.0-4.92-2.92","0r8zo8wgw4l43jk",151,"100.csv","","null","resources/images/coin2.png","null","",NA,NA,NA,NA,""
"image-keyboard-response",291,228763,"0.0-4.93-0.93","0r8zo8wgw4l43jk",151,"100.csv","","684.2000000178814","resources/trios/L1T4A2.jpg","37","restless",0.7,0.6,0.7,0.180763325645232,"true"
"image-keyboard-response",292,229169,"0.0-4.93-1.93","0r8zo8wgw4l43jk",151,"100.csv","","null","resources/maskTrios/L1BB.jpg","null","",NA,NA,NA,NA,""
"image-keyboard-response",293,230371,"0.0-4.93-2.93","0r8zo8wgw4l43jk",151,"100.csv","","null","resources/images/coin2.png","null","",NA,NA,NA,NA,""
"image-keyboard-response",294,230865,"0.0-4.94-0.94","0r8zo8wgw4l43jk",151,"100.csv","","493.2000000178814","resources/trios/L1T4A2.jpg","37","restless",0.7,0.6,0.7,0.473862004858342,"true"
"image-keyboard-response",295,231271,"0.0-4.94-1.94","0r8zo8wgw4l43jk",151,"100.csv","","null","resources/maskTrios/L1BB.jpg","null","",NA,NA,NA,NA,""
"image-keyboard-response",296,232473,"0.0-4.94-2.94","0r8zo8wgw4l43jk",151,"100.csv","","null","resources/images/coin2.png","null","",NA,NA,NA,NA,""
"image-keyboard-response",297,233057,"0.0-4.95-0.95","0r8zo8wgw4l43jk",151,"100.csv","","583.1999999880791","resources/trios/L1T4A2.jpg","37","restless",0.7,0.6,0.7,0.312325172601443,"true"
"image-keyboard-response",298,233459,"0.0-4.95-1.95","0r8zo8wgw4l43jk",151,"100.csv","","null","resources/maskTrios/L1BB.jpg","null","",NA,NA,NA,NA,""
"image-keyboard-response",299,234666,"0.0-4.95-2.95","0r8zo8wgw4l43jk",151,"100.csv","","null","resources/images/coin2.png","null","",NA,NA,NA,NA,""
"image-keyboard-response",300,235265,"0.0-4.96-0.96","0r8zo8wgw4l43jk",151,"100.csv","","598","resources/trios/L1T4A2.jpg","37","restless",0.7,0.7,0.7,0.756031559411685,"false"
"image-keyboard-response",301,235671,"0.0-4.96-1.96","0r8zo8wgw4l43jk",151,"100.csv","","null","resources/maskTrios/L1BB.jpg","null","",NA,NA,NA,NA,""
"image-keyboard-response",302,236877,"0.0-4.96-2.96","0r8zo8wgw4l43jk",151,"100.csv","","null","resources/images/fishbone.png","null","",NA,NA,NA,NA,""
"image-keyboard-response",303,237548,"0.0-4.97-0.97","0r8zo8wgw4l43jk",151,"100.csv","","670.6000000238419","resources/trios/L1T4A2.jpg","39","restless",0.7,0.7,0.7,0.283255832873929,"true"
"image-keyboard-response",304,237953,"0.0-4.97-1.97","0r8zo8wgw4l43jk",151,"100.csv","","null","resources/maskTrios/BBA2.jpg","null","",NA,NA,NA,NA,""
"image-keyboard-response",305,239154,"0.0-4.97-2.97","0r8zo8wgw4l43jk",151,"100.csv","","null","resources/images/coin2.png","null","",NA,NA,NA,NA,""
"image-keyboard-response",306,239866,"0.0-4.98-0.98","0r8zo8wgw4l43jk",151,"100.csv","","710.5999999940395","resources/trios/L1T4A2.jpg","39","restless",0.6,0.7,0.7,0.601341980924755,"true"
"image-keyboard-response",307,240269,"0.0-4.98-1.98","0r8zo8wgw4l43jk",151,"100.csv","","null","resources/maskTrios/BBA2.jpg","null","",NA,NA,NA,NA,""
"image-keyboard-response",308,241474,"0.0-4.98-2.98","0r8zo8wgw4l43jk",151,"100.csv","","null","resources/images/coin2.png","null","",NA,NA,NA,NA,""
"image-keyboard-response",309,241866,"0.0-4.99-0.99","0r8zo8wgw4l43jk",151,"100.csv","","391.2000000178814","resources/trios/L1T4A2.jpg","39","restless",0.5,0.7,0.7,0.0399246312671615,"true"
"image-keyboard-response",310,242273,"0.0-4.99-1.99","0r8zo8wgw4l43jk",151,"100.csv","","null","resources/maskTrios/BBA2.jpg","null","",NA,NA,NA,NA,""
"image-keyboard-response",311,243479,"0.0-4.99-2.99","0r8zo8wgw4l43jk",151,"100.csv","","null","resources/images/coin2.png","null","",NA,NA,NA,NA,""
"image-keyboard-response",312,244056,"0.0-4.100-0.100","0r8zo8wgw4l43jk",151,"100.csv","","575.6999999880791","resources/trios/L1T4A2.jpg","39","restless",0.4,0.8,0.7,0.994598869895264,"false"
"image-keyboard-response",313,244460,"0.0-4.100-1.100","0r8zo8wgw4l43jk",151,"100.csv","","null","resources/maskTrios/BBA2.jpg","null","",NA,NA,NA,NA,""
"image-keyboard-response",314,245666,"0.0-4.100-2.100","0r8zo8wgw4l43jk",151,"100.csv","","null","resources/images/fishbone.png","null","",NA,NA,NA,NA,""
"image-keyboard-response",315,246099,"0.0-4.101-0.101","0r8zo8wgw4l43jk",151,"100.csv","","432.2000000178814","resources/trios/L1T4A2.jpg","39","restless",0.4,0.8,0.7,0.657366575179906,"true"
"image-keyboard-response",316,246504,"0.0-4.101-1.101","0r8zo8wgw4l43jk",151,"100.csv","","null","resources/maskTrios/BBA2.jpg","null","",NA,NA,NA,NA,""
"image-keyboard-response",317,247710,"0.0-4.101-2.101","0r8zo8wgw4l43jk",151,"100.csv","","null","resources/images/coin2.png","null","",NA,NA,NA,NA,""
"image-keyboard-response",318,248105,"0.0-4.102-0.102","0r8zo8wgw4l43jk",151,"100.csv","","393.40000000596046","resources/trios/L1T4A2.jpg","39","restless",0.5,0.8,0.7,0.800772050194543,"false"
"image-keyboard-response",319,248512,"0.0-4.102-1.102","0r8zo8wgw4l43jk",151,"100.csv","","null","resources/maskTrios/BBA2.jpg","null","",NA,NA,NA,NA,""
"image-keyboard-response",320,249714,"0.0-4.102-2.102","0r8zo8wgw4l43jk",151,"100.csv","","null","resources/images/fishbone.png","null","",NA,NA,NA,NA,""
"image-keyboard-response",321,250611,"0.0-4.103-0.103","0r8zo8wgw4l43jk",151,"100.csv","","896","resources/trios/L1T4A2.jpg","39","restless",0.5,0.8,0.6,0.423692750757376,"true"
"image-keyboard-response",322,251017,"0.0-4.103-1.103","0r8zo8wgw4l43jk",151,"100.csv","","null","resources/maskTrios/BBA2.jpg","null","",NA,NA,NA,NA,""
"image-keyboard-response",323,252222,"0.0-4.103-2.103","0r8zo8wgw4l43jk",151,"100.csv","","null","resources/images/coin2.png","null","",NA,NA,NA,NA,""
"image-keyboard-response",324,252726,"0.0-4.104-0.104","0r8zo8wgw4l43jk",151,"100.csv","","502.60000002384186","resources/trios/L1T4A2.jpg","39","restless",0.5,0.8,0.6,0.771566102728332,"false"
"image-keyboard-response",325,253127,"0.0-4.104-1.104","0r8zo8wgw4l43jk",151,"100.csv","","null","resources/maskTrios/BBA2.jpg","null","",NA,NA,NA,NA,""
"image-keyboard-response",326,254331,"0.0-4.104-2.104","0r8zo8wgw4l43jk",151,"100.csv","","null","resources/images/fishbone.png","null","",NA,NA,NA,NA,""
"image-keyboard-response",327,254559,"0.0-4.105-0.105","0r8zo8wgw4l43jk",151,"100.csv","","226.40000000596046","resources/trios/L1T4A2.jpg","37","restless",0.5,0.8,0.6,0.580561416518467,"false"
"image-keyboard-response",328,254964,"0.0-4.105-1.105","0r8zo8wgw4l43jk",151,"100.csv","","null","resources/maskTrios/L1BB.jpg","null","",NA,NA,NA,NA,""
"image-keyboard-response",329,256169,"0.0-4.105-2.105","0r8zo8wgw4l43jk",151,"100.csv","","null","resources/images/fishbone.png","null","",NA,NA,NA,NA,""
"image-keyboard-response",330,256546,"0.0-4.106-0.106","0r8zo8wgw4l43jk",151,"100.csv","","376","resources/trios/L1T4A2.jpg","38","restless",0.5,0.8,0.6,0.252395300890547,"true"
"image-keyboard-response",331,256952,"0.0-4.106-1.106","0r8zo8wgw4l43jk",151,"100.csv","","null","resources/maskTrios/BT4B.jpg","null","",NA,NA,NA,NA,""
"image-keyboard-response",332,258154,"0.0-4.106-2.106","0r8zo8wgw4l43jk",151,"100.csv","","null","resources/images/coin2.png","null","",NA,NA,NA,NA,""
"image-keyboard-response",333,258531,"0.0-4.107-0.107","0r8zo8wgw4l43jk",151,"100.csv","","375.59999999403954","resources/trios/L1T4A2.jpg","38","restless",0.5,0.8,0.6,0.486592725600314,"true"
"image-keyboard-response",334,258937,"0.0-4.107-1.107","0r8zo8wgw4l43jk",151,"100.csv","","null","resources/maskTrios/BT4B.jpg","null","",NA,NA,NA,NA,""
"image-keyboard-response",335,260140,"0.0-4.107-2.107","0r8zo8wgw4l43jk",151,"100.csv","","null","resources/images/coin2.png","null","",NA,NA,NA,NA,""
"image-keyboard-response",336,260631,"0.0-4.108-0.108","0r8zo8wgw4l43jk",151,"100.csv","","490.09999999403954","resources/trios/L1T4A2.jpg","38","restless",0.5,0.8,0.6,0.295715663009733,"true"
"image-keyboard-response",337,261034,"0.0-4.108-1.108","0r8zo8wgw4l43jk",151,"100.csv","","null","resources/maskTrios/BT4B.jpg","null","",NA,NA,NA,NA,""
"image-keyboard-response",338,262237,"0.0-4.108-2.108","0r8zo8wgw4l43jk",151,"100.csv","","null","resources/images/coin2.png","null","",NA,NA,NA,NA,""
"image-keyboard-response",339,262828,"0.0-4.109-0.109","0r8zo8wgw4l43jk",151,"100.csv","","589.6999999880791","resources/trios/L1T4A2.jpg","38","restless",0.5,0.8,0.6,0.101164527433032,"true"
"image-keyboard-response",340,263233,"0.0-4.109-1.109","0r8zo8wgw4l43jk",151,"100.csv","","null","resources/maskTrios/BT4B.jpg","null","",NA,NA,NA,NA,""
"image-keyboard-response",341,264438,"0.0-4.109-2.109","0r8zo8wgw4l43jk",151,"100.csv","","null","resources/images/coin2.png","null","",NA,NA,NA,NA,""
"image-keyboard-response",342,264828,"0.0-4.110-0.110","0r8zo8wgw4l43jk",151,"100.csv","","388.90000000596046","resources/trios/L1T4A2.jpg","38","restless",0.5,0.8,0.6,0.434357680487778,"true"
"image-keyboard-response",343,265235,"0.0-4.110-1.110","0r8zo8wgw4l43jk",151,"100.csv","","null","resources/maskTrios/BT4B.jpg","null","",NA,NA,NA,NA,""
"image-keyboard-response",344,266438,"0.0-4.110-2.110","0r8zo8wgw4l43jk",151,"100.csv","","null","resources/images/coin2.png","null","",NA,NA,NA,NA,""
"image-keyboard-response",345,267033,"0.0-4.111-0.111","0r8zo8wgw4l43jk",151,"100.csv","","593.9000000059605","resources/trios/L1T4A2.jpg","38","restless",0.5,0.8,0.6,0.372876812074805,"true"
"image-keyboard-response",346,267437,"0.0-4.111-1.111","0r8zo8wgw4l43jk",151,"100.csv","","null","resources/maskTrios/BT4B.jpg","null","",NA,NA,NA,NA,""
"image-keyboard-response",347,268638,"0.0-4.111-2.111","0r8zo8wgw4l43jk",151,"100.csv","","null","resources/images/coin2.png","null","",NA,NA,NA,NA,""
"image-keyboard-response",348,269089,"0.0-4.112-0.112","0r8zo8wgw4l43jk",151,"100.csv","","449.59999999403954","resources/trios/L1T4A2.jpg","38","restless",0.5,0.8,0.6,0.693367017479886,"true"
"image-keyboard-response",349,269495,"0.0-4.112-1.112","0r8zo8wgw4l43jk",151,"100.csv","","null","resources/maskTrios/BT4B.jpg","null","",NA,NA,NA,NA,""
"image-keyboard-response",350,270700,"0.0-4.112-2.112","0r8zo8wgw4l43jk",151,"100.csv","","null","resources/images/coin2.png","null","",NA,NA,NA,NA,""
"image-keyboard-response",351,271115,"0.0-4.113-0.113","0r8zo8wgw4l43jk",151,"100.csv","","413.7000000178814","resources/trios/L1T4A2.jpg","38","restless",0.5,0.8,0.6,0.759474460934595,"true"
"image-keyboard-response",352,271518,"0.0-4.113-1.113","0r8zo8wgw4l43jk",151,"100.csv","","null","resources/maskTrios/BT4B.jpg","null","",NA,NA,NA,NA,""
"image-keyboard-response",353,272720,"0.0-4.113-2.113","0r8zo8wgw4l43jk",151,"100.csv","","null","resources/images/coin2.png","null","",NA,NA,NA,NA,""
"image-keyboard-response",354,273286,"0.0-4.114-0.114","0r8zo8wgw4l43jk",151,"100.csv","","564.9000000059605","resources/trios/L1T4A2.jpg","38","restless",0.5,0.8,0.6,0.809352890652036,"false"
"image-keyboard-response",355,273692,"0.0-4.114-1.114","0r8zo8wgw4l43jk",151,"100.csv","","null","resources/maskTrios/BT4B.jpg","null","",NA,NA,NA,NA,""
"image-keyboard-response",356,274899,"0.0-4.114-2.114","0r8zo8wgw4l43jk",151,"100.csv","","null","resources/images/fishbone.png","null","",NA,NA,NA,NA,""
"image-keyboard-response",357,275300,"0.0-4.115-0.115","0r8zo8wgw4l43jk",151,"100.csv","","400","resources/trios/L1T4A2.jpg","37","restless",0.5,0.8,0.6,0.509839715873639,"false"
"image-keyboard-response",358,275705,"0.0-4.115-1.115","0r8zo8wgw4l43jk",151,"100.csv","","null","resources/maskTrios/L1BB.jpg","null","",NA,NA,NA,NA,""
"image-keyboard-response",359,276911,"0.0-4.115-2.115","0r8zo8wgw4l43jk",151,"100.csv","","null","resources/images/fishbone.png","null","",NA,NA,NA,NA,""
"image-keyboard-response",360,277487,"0.0-4.116-0.116","0r8zo8wgw4l43jk",151,"100.csv","","575","resources/trios/L1T4A2.jpg","37","restless",0.5,0.8,0.6,0.695874362825495,"false"
"image-keyboard-response",361,277891,"0.0-4.116-1.116","0r8zo8wgw4l43jk",151,"100.csv","","null","resources/maskTrios/L1BB.jpg","null","",NA,NA,NA,NA,""
"image-keyboard-response",362,279097,"0.0-4.116-2.116","0r8zo8wgw4l43jk",151,"100.csv","","null","resources/images/fishbone.png","null","",NA,NA,NA,NA,""
"image-keyboard-response",363,279826,"0.0-4.117-0.117","0r8zo8wgw4l43jk",151,"100.csv","","727.5999999940395","resources/trios/L1T4A2.jpg","37","restless",0.5,0.8,0.6,0.672586176892406,"false"
"image-keyboard-response",364,280231,"0.0-4.117-1.117","0r8zo8wgw4l43jk",151,"100.csv","","null","resources/maskTrios/L1BB.jpg","null","",NA,NA,NA,NA,""
"image-keyboard-response",365,281436,"0.0-4.117-2.117","0r8zo8wgw4l43jk",151,"100.csv","","null","resources/images/fishbone.png","null","",NA,NA,NA,NA,""
"image-keyboard-response",366,281723,"0.0-4.118-0.118","0r8zo8wgw4l43jk",151,"100.csv","","285.69999998807907","resources/trios/L1T4A2.jpg","39","restless",0.5,0.8,0.6,0.818763143109606,"false"
"image-keyboard-response",367,282129,"0.0-4.118-1.118","0r8zo8wgw4l43jk",151,"100.csv","","null","resources/maskTrios/BBA2.jpg","null","",NA,NA,NA,NA,""
"image-keyboard-response",368,283331,"0.0-4.118-2.118","0r8zo8wgw4l43jk",151,"100.csv","","null","resources/images/fishbone.png","null","",NA,NA,NA,NA,""
"image-keyboard-response",369,283723,"0.0-4.119-0.119","0r8zo8wgw4l43jk",151,"100.csv","","390.2999999821186","resources/trios/L1T4A2.jpg","39","restless",0.5,0.8,0.6,0.286818579418382,"true"
"image-keyboard-response",370,284126,"0.0-4.119-1.119","0r8zo8wgw4l43jk",151,"100.csv","","null","resources/maskTrios/BBA2.jpg","null","",NA,NA,NA,NA,""
"image-keyboard-response",371,285334,"0.0-4.119-2.119","0r8zo8wgw4l43jk",151,"100.csv","","null","resources/images/coin2.png","null","",NA,NA,NA,NA,""
"image-keyboard-response",372,285742,"0.0-4.120-0.120","0r8zo8wgw4l43jk",151,"100.csv","","407.09999999403954","resources/trios/L1T4A2.jpg","39","restless",0.5,0.8,0.6,0.894561679761977,"false"
"image-keyboard-response",373,286148,"0.0-4.120-1.120","0r8zo8wgw4l43jk",151,"100.csv","","null","resources/maskTrios/BBA2.jpg","null","",NA,NA,NA,NA,""
"image-keyboard-response",374,287353,"0.0-4.120-2.120","0r8zo8wgw4l43jk",151,"100.csv","","null","resources/images/fishbone.png","null","",NA,NA,NA,NA,""
"image-keyboard-response",375,287684,"0.0-4.121-0.121","0r8zo8wgw4l43jk",151,"100.csv","","329.59999999403954","resources/trios/L1T4A2.jpg","39","restless",0.5,0.8,0.6,0.909660418726773,"false"
"image-keyboard-response",376,288085,"0.0-4.121-1.121","0r8zo8wgw4l43jk",151,"100.csv","","null","resources/maskTrios/BBA2.jpg","null","",NA,NA,NA,NA,""
"image-keyboard-response",377,289292,"0.0-4.121-2.121","0r8zo8wgw4l43jk",151,"100.csv","","null","resources/images/fishbone.png","null","",NA,NA,NA,NA,""
"image-keyboard-response",378,289524,"0.0-4.122-0.122","0r8zo8wgw4l43jk",151,"100.csv","","230.90000000596046","resources/trios/L1T4A2.jpg","38","restless",0.5,0.8,0.5,0.30330177218609,"true"
"image-keyboard-response",379,289926,"0.0-4.122-1.122","0r8zo8wgw4l43jk",151,"100.csv","","null","resources/maskTrios/BT4B.jpg","null","",NA,NA,NA,NA,""
"image-keyboard-response",380,291131,"0.0-4.122-2.122","0r8zo8wgw4l43jk",151,"100.csv","","null","resources/images/coin2.png","null","",NA,NA,NA,NA,""
"image-keyboard-response",381,291494,"0.0-4.123-0.123","0r8zo8wgw4l43jk",151,"100.csv","","361.40000000596046","resources/trios/L1T4A2.jpg","38","restless",0.5,0.8,0.5,0.63477789477379,"true"
"image-keyboard-response",382,291899,"0.0-4.123-1.123","0r8zo8wgw4l43jk",151,"100.csv","","null","resources/maskTrios/BT4B.jpg","null","",NA,NA,NA,NA,""
"image-keyboard-response",383,293105,"0.0-4.123-2.123","0r8zo8wgw4l43jk",151,"100.csv","","null","resources/images/coin2.png","null","",NA,NA,NA,NA,""
"image-keyboard-response",384,293479,"0.0-4.124-0.124","0r8zo8wgw4l43jk",151,"100.csv","","372.80000001192093","resources/trios/L1T4A2.jpg","38","restless",0.5,0.8,0.5,0.365167607400956,"true"
"image-keyboard-response",385,293884,"0.0-4.124-1.124","0r8zo8wgw4l43jk",151,"100.csv","","null","resources/maskTrios/BT4B.jpg","null","",NA,NA,NA,NA,""
"image-keyboard-response",386,295087,"0.0-4.124-2.124","0r8zo8wgw4l43jk",151,"100.csv","","null","resources/images/coin2.png","null","",NA,NA,NA,NA,""
"image-keyboard-response",387,295505,"0.0-4.125-0.125","0r8zo8wgw4l43jk",151,"100.csv","","416.80000001192093","resources/trios/L1T4A2.jpg","38","restless",0.5,0.8,0.5,0.175122265529389,"true"
"image-keyboard-response",388,295907,"0.0-4.125-1.125","0r8zo8wgw4l43jk",151,"100.csv","","null","resources/maskTrios/BT4B.jpg","null","",NA,NA,NA,NA,""
"image-keyboard-response",389,297112,"0.0-4.125-2.125","0r8zo8wgw4l43jk",151,"100.csv","","null","resources/images/coin2.png","null","",NA,NA,NA,NA,""
"image-keyboard-response",390,297674,"0.0-4.126-0.126","0r8zo8wgw4l43jk",151,"100.csv","","560.2000000178814","resources/trios/L1T4A2.jpg","38","restless",0.5,0.7,0.5,0.400793824306224,"true"
"image-keyboard-response",391,298075,"0.0-4.126-1.126","0r8zo8wgw4l43jk",151,"100.csv","","null","resources/maskTrios/BT4B.jpg","null","",NA,NA,NA,NA,""
"image-keyboard-response",392,299278,"0.0-4.126-2.126","0r8zo8wgw4l43jk",151,"100.csv","","null","resources/images/coin2.png","null","",NA,NA,NA,NA,""
"image-keyboard-response",393,299572,"0.0-4.127-0.127","0r8zo8wgw4l43jk",151,"100.csv","","292.80000001192093","resources/trios/L1T4A2.jpg","38","restless",0.5,0.7,0.5,0.834976273466602,"false"
"image-keyboard-response",394,299974,"0.0-4.127-1.127","0r8zo8wgw4l43jk",151,"100.csv","","null","resources/maskTrios/BT4B.jpg","null","",NA,NA,NA,NA,""
"image-keyboard-response",395,301176,"0.0-4.127-2.127","0r8zo8wgw4l43jk",151,"100.csv","","null","resources/images/fishbone.png","null","",NA,NA,NA,NA,""
"image-keyboard-response",396,301511,"0.0-4.128-0.128","0r8zo8wgw4l43jk",151,"100.csv","","333.5","resources/trios/L1T4A2.jpg","38","restless",0.5,0.7,0.5,0.926809444360795,"false"
"image-keyboard-response",397,301913,"0.0-4.128-1.128","0r8zo8wgw4l43jk",151,"100.csv","","null","resources/maskTrios/BT4B.jpg","null","",NA,NA,NA,NA,""
"image-keyboard-response",398,303115,"0.0-4.128-2.128","0r8zo8wgw4l43jk",151,"100.csv","","null","resources/images/fishbone.png","null","",NA,NA,NA,NA,""
"image-keyboard-response",399,303578,"0.0-4.129-0.129","0r8zo8wgw4l43jk",151,"100.csv","","461.80000001192093","resources/trios/L1T4A2.jpg","38","restless",0.5,0.7,0.5,0.510410710210911,"true"
"image-keyboard-response",400,303982,"0.0-4.129-1.129","0r8zo8wgw4l43jk",151,"100.csv","","null","resources/maskTrios/BT4B.jpg","null","",NA,NA,NA,NA,""
"image-keyboard-response",401,305187,"0.0-4.129-2.129","0r8zo8wgw4l43jk",151,"100.csv","","null","resources/images/coin2.png","null","",NA,NA,NA,NA,""
"image-keyboard-response",402,305699,"0.0-4.130-0.130","0r8zo8wgw4l43jk",151,"100.csv","","510.2999999821186","resources/trios/L1T4A2.jpg","38","restless",0.5,0.7,0.5,0.505259631802004,"true"
"image-keyboard-response",403,306103,"0.0-4.130-1.130","0r8zo8wgw4l43jk",151,"100.csv","","null","resources/maskTrios/BT4B.jpg","null","",NA,NA,NA,NA,""
"image-keyboard-response",404,307308,"0.0-4.130-2.130","0r8zo8wgw4l43jk",151,"100.csv","","null","resources/images/coin2.png","null","",NA,NA,NA,NA,""
"image-keyboard-response",405,312115,"0.0-4.131-0.131","0r8zo8wgw4l43jk",151,"100.csv","","4806","resources/trios/L1T4A2.jpg","37","restless",0.5,0.7,0.5,0.787909335482187,"false"
"image-keyboard-response",406,312519,"0.0-4.131-1.131","0r8zo8wgw4l43jk",151,"100.csv","","null","resources/maskTrios/L1BB.jpg","null","",NA,NA,NA,NA,""
"image-keyboard-response",407,313721,"0.0-4.131-2.131","0r8zo8wgw4l43jk",151,"100.csv","","null","resources/images/fishbone.png","null","",NA,NA,NA,NA,""
"image-keyboard-response",408,313725,"0.0-4.132-0.132","0r8zo8wgw4l43jk",151,"100.csv","","2.9000000059604645","resources/trios/L1T4A2.jpg","38","restless",0.5,0.7,0.5,0.69118861599191,"true"
"image-keyboard-response",409,314128,"0.0-4.132-1.132","0r8zo8wgw4l43jk",151,"100.csv","","null","resources/maskTrios/BT4B.jpg","null","",NA,NA,NA,NA,""
"image-keyboard-response",410,315335,"0.0-4.132-2.132","0r8zo8wgw4l43jk",151,"100.csv","","null","resources/images/coin2.png","null","",NA,NA,NA,NA,""
"image-keyboard-response",411,315408,"0.0-4.133-0.133","0r8zo8wgw4l43jk",151,"100.csv","","71.90000000596046","resources/trios/L1T4A2.jpg","38","restless",0.5,0.7,0.5,0.809615265397647,"false"
"image-keyboard-response",412,315812,"0.0-4.133-1.133","0r8zo8wgw4l43jk",151,"100.csv","","null","resources/maskTrios/BT4B.jpg","null","",NA,NA,NA,NA,""
"image-keyboard-response",413,317018,"0.0-4.133-2.133","0r8zo8wgw4l43jk",151,"100.csv","","null","resources/images/fishbone.png","null","",NA,NA,NA,NA,""
"image-keyboard-response",414,321316,"0.0-4.134-0.134","0r8zo8wgw4l43jk",151,"100.csv","","4296","resources/trios/L1T4A2.jpg","38","restless",0.5,0.7,0.5,0.397324363448735,"true"
"image-keyboard-response",415,321718,"0.0-4.134-1.134","0r8zo8wgw4l43jk",151,"100.csv","","null","resources/maskTrios/BT4B.jpg","null","",NA,NA,NA,NA,""
"image-keyboard-response",416,322922,"0.0-4.134-2.134","0r8zo8wgw4l43jk",151,"100.csv","","null","resources/images/coin2.png","null","",NA,NA,NA,NA,""
"image-keyboard-response",417,323322,"0.0-4.135-0.135","0r8zo8wgw4l43jk",151,"100.csv","","398.89999997615814","resources/trios/L1T4A2.jpg","38","restless",0.5,0.7,0.5,0.816458358447529,"false"
"image-keyboard-response",418,323725,"0.0-4.135-1.135","0r8zo8wgw4l43jk",151,"100.csv","","null","resources/maskTrios/BT4B.jpg","null","",NA,NA,NA,NA,""
"image-keyboard-response",419,324930,"0.0-4.135-2.135","0r8zo8wgw4l43jk",151,"100.csv","","null","resources/images/fishbone.png","null","",NA,NA,NA,NA,""
"image-keyboard-response",420,325629,"0.0-4.136-0.136","0r8zo8wgw4l43jk",151,"100.csv","","697.5","resources/trios/L1T4A2.jpg","38","restless",0.5,0.7,0.5,0.583689282404084,"true"
"image-keyboard-response",421,326034,"0.0-4.136-1.136","0r8zo8wgw4l43jk",151,"100.csv","","null","resources/maskTrios/BT4B.jpg","null","",NA,NA,NA,NA,""
"image-keyboard-response",422,327235,"0.0-4.136-2.136","0r8zo8wgw4l43jk",151,"100.csv","","null","resources/images/coin2.png","null","",NA,NA,NA,NA,""
"image-keyboard-response",423,328123,"0.0-4.137-0.137","0r8zo8wgw4l43jk",151,"100.csv","","886.4000000059605","resources/trios/L1T4A2.jpg","38","restless",0.5,0.7,0.5,0.849062689411378,"false"
"image-keyboard-response",424,328528,"0.0-4.137-1.137","0r8zo8wgw4l43jk",151,"100.csv","","null","resources/maskTrios/BT4B.jpg","null","",NA,NA,NA,NA,""
"image-keyboard-response",425,329736,"0.0-4.137-2.137","0r8zo8wgw4l43jk",151,"100.csv","","null","resources/images/fishbone.png","null","",NA,NA,NA,NA,""
"image-keyboard-response",426,333932,"0.0-4.138-0.138","0r8zo8wgw4l43jk",151,"100.csv","","4194.699999988079","resources/trios/L1T4A2.jpg","38","restless",0.5,0.7,0.5,0.428840095904763,"true"
"image-keyboard-response",427,334335,"0.0-4.138-1.138","0r8zo8wgw4l43jk",151,"100.csv","","null","resources/maskTrios/BT4B.jpg","null","",NA,NA,NA,NA,""
"image-keyboard-response",428,335536,"0.0-4.138-2.138","0r8zo8wgw4l43jk",151,"100.csv","","null","resources/images/coin2.png","null","",NA,NA,NA,NA,""
"image-keyboard-response",429,336589,"0.0-4.139-0.139","0r8zo8wgw4l43jk",151,"100.csv","","1051.6000000238419","resources/trios/L1T4A2.jpg","38","restless",0.5,0.7,0.5,0.785422371643234,"false"
"image-keyboard-response",430,336993,"0.0-4.139-1.139","0r8zo8wgw4l43jk",151,"100.csv","","null","resources/maskTrios/BT4B.jpg","null","",NA,NA,NA,NA,""
"image-keyboard-response",431,338195,"0.0-4.139-2.139","0r8zo8wgw4l43jk",151,"100.csv","","null","resources/images/fishbone.png","null","",NA,NA,NA,NA,""
"image-keyboard-response",432,338271,"0.0-4.140-0.140","0r8zo8wgw4l43jk",151,"100.csv","","74.40000000596046","resources/trios/L1T4A2.jpg","38","restless",0.5,0.7,0.5,0.051950473138902,"true"
"image-keyboard-response",433,338677,"0.0-4.140-1.140","0r8zo8wgw4l43jk",151,"100.csv","","null","resources/maskTrios/BT4B.jpg","null","",NA,NA,NA,NA,""
"image-keyboard-response",434,339881,"0.0-4.140-2.140","0r8zo8wgw4l43jk",151,"100.csv","","null","resources/images/coin2.png","null","",NA,NA,NA,NA,""
"image-keyboard-response",435,341398,"0.0-4.141-0.141","0r8zo8wgw4l43jk",151,"100.csv","","1515.9000000059605","resources/trios/L1T4A2.jpg","38","restless",0.5,0.7,0.5,0.124416487667788,"true"
"image-keyboard-response",436,341800,"0.0-4.141-1.141","0r8zo8wgw4l43jk",151,"100.csv","","null","resources/maskTrios/BT4B.jpg","null","",NA,NA,NA,NA,""
"image-keyboard-response",437,343007,"0.0-4.141-2.141","0r8zo8wgw4l43jk",151,"100.csv","","null","resources/images/coin2.png","null","",NA,NA,NA,NA,""
"image-keyboard-response",438,343389,"0.0-4.142-0.142","0r8zo8wgw4l43jk",151,"100.csv","","380","resources/trios/L1T4A2.jpg","38","restless",0.5,0.7,0.5,0.875002515263726,"false"
"image-keyboard-response",439,343795,"0.0-4.142-1.142","0r8zo8wgw4l43jk",151,"100.csv","","null","resources/maskTrios/BT4B.jpg","null","",NA,NA,NA,NA,""
"image-keyboard-response",440,344999,"0.0-4.142-2.142","0r8zo8wgw4l43jk",151,"100.csv","","null","resources/images/fishbone.png","null","",NA,NA,NA,NA,""
"image-keyboard-response",441,345667,"0.0-4.143-0.143","0r8zo8wgw4l43jk",151,"100.csv","","666.7000000178814","resources/trios/L1T4A2.jpg","38","restless",0.5,0.7,0.5,0.832441904664932,"false"
"image-keyboard-response",442,346073,"0.0-4.143-1.143","0r8zo8wgw4l43jk",151,"100.csv","","null","resources/maskTrios/BT4B.jpg","null","",NA,NA,NA,NA,""
"image-keyboard-response",443,347275,"0.0-4.143-2.143","0r8zo8wgw4l43jk",151,"100.csv","","null","resources/images/fishbone.png","null","",NA,NA,NA,NA,""
"image-keyboard-response",444,347526,"0.0-4.144-0.144","0r8zo8wgw4l43jk",151,"100.csv","","250.60000002384186","resources/trios/L1T4A2.jpg","39","restless",0.5,0.7,0.5,0.984541628011008,"false"
"image-keyboard-response",445,347930,"0.0-4.144-1.144","0r8zo8wgw4l43jk",151,"100.csv","","null","resources/maskTrios/BBA2.jpg","null","",NA,NA,NA,NA,""
"image-keyboard-response",446,349134,"0.0-4.144-2.144","0r8zo8wgw4l43jk",151,"100.csv","","null","resources/images/fishbone.png","null","",NA,NA,NA,NA,""
"image-keyboard-response",447,349644,"0.0-4.145-0.145","0r8zo8wgw4l43jk",151,"100.csv","","509.19999998807907","resources/trios/L1T4A2.jpg","39","restless",0.5,0.7,0.5,0.172576403696627,"true"
"image-keyboard-response",448,350049,"0.0-4.145-1.145","0r8zo8wgw4l43jk",151,"100.csv","","null","resources/maskTrios/BBA2.jpg","null","",NA,NA,NA,NA,""
"image-keyboard-response",449,351255,"0.0-4.145-2.145","0r8zo8wgw4l43jk",151,"100.csv","","null","resources/images/coin2.png","null","",NA,NA,NA,NA,""
"image-keyboard-response",450,352595,"0.0-4.146-0.146","0r8zo8wgw4l43jk",151,"100.csv","","1338.5","resources/trios/L1T4A2.jpg","39","restless",0.5,0.7,0.5,0.902977109872631,"false"
"image-keyboard-response",451,352998,"0.0-4.146-1.146","0r8zo8wgw4l43jk",151,"100.csv","","null","resources/maskTrios/BBA2.jpg","null","",NA,NA,NA,NA,""
"image-keyboard-response",452,354200,"0.0-4.146-2.146","0r8zo8wgw4l43jk",151,"100.csv","","null","resources/images/fishbone.png","null","",NA,NA,NA,NA,""
"image-keyboard-response",453,354769,"0.0-4.147-0.147","0r8zo8wgw4l43jk",151,"100.csv","","567.5","resources/trios/L1T4A2.jpg","38","restless",0.5,0.7,0.5,0.137754124012319,"true"
"image-keyboard-response",454,355173,"0.0-4.147-1.147","0r8zo8wgw4l43jk",151,"100.csv","","null","resources/maskTrios/BT4B.jpg","null","",NA,NA,NA,NA,""
"image-keyboard-response",455,356377,"0.0-4.147-2.147","0r8zo8wgw4l43jk",151,"100.csv","","null","resources/images/coin2.png","null","",NA,NA,NA,NA,""
"image-keyboard-response",456,357011,"0.0-4.148-0.148","0r8zo8wgw4l43jk",151,"100.csv","","633.7000000178814","resources/trios/L1T4A2.jpg","38","restless",0.4,0.7,0.5,0.0129997271868449,"true"
"image-keyboard-response",457,357416,"0.0-4.148-1.148","0r8zo8wgw4l43jk",151,"100.csv","","null","resources/maskTrios/BT4B.jpg","null","",NA,NA,NA,NA,""
"image-keyboard-response",458,358617,"0.0-4.148-2.148","0r8zo8wgw4l43jk",151,"100.csv","","null","resources/images/coin2.png","null","",NA,NA,NA,NA,""
"image-keyboard-response",459,359094,"0.0-4.149-0.149","0r8zo8wgw4l43jk",151,"100.csv","","476.19999998807907","resources/trios/L1T4A2.jpg","38","restless",0.4,0.7,0.5,0.592587960615108,"true"
"image-keyboard-response",460,359499,"0.0-4.149-1.149","0r8zo8wgw4l43jk",151,"100.csv","","null","resources/maskTrios/BT4B.jpg","null","",NA,NA,NA,NA,""
"image-keyboard-response",461,360702,"0.0-4.149-2.149","0r8zo8wgw4l43jk",151,"100.csv","","null","resources/images/coin2.png","null","",NA,NA,NA,NA,""
"image-keyboard-response",462,360945,"0.0-4.150-0.150","0r8zo8wgw4l43jk",151,"100.csv","","242.30000001192093","resources/trios/L1T4A2.jpg","38","restless",0.4,0.7,0.5,0.3447003349616,"true"
"image-keyboard-response",463,361352,"0.0-4.150-1.150","0r8zo8wgw4l43jk",151,"100.csv","","null","resources/maskTrios/BT4B.jpg","null","",NA,NA,NA,NA,""
"image-keyboard-response",464,362554,"0.0-4.150-2.150","0r8zo8wgw4l43jk",151,"100.csv","","null","resources/images/coin2.png","null","",NA,NA,NA,NA,""
"image-keyboard-response",465,363136,"0.0-4.151-0.151","0r8zo8wgw4l43jk",151,"100.csv","","581.4000000059605","resources/trios/L1T4A2.jpg","38","restless",0.5,0.7,0.5,0.0653043620007672,"true"
"image-keyboard-response",466,363542,"0.0-4.151-1.151","0r8zo8wgw4l43jk",151,"100.csv","","null","resources/maskTrios/BT4B.jpg","null","",NA,NA,NA,NA,""
"image-keyboard-response",467,364748,"0.0-4.151-2.151","0r8zo8wgw4l43jk",151,"100.csv","","null","resources/images/coin2.png","null","",NA,NA,NA,NA,""
"image-keyboard-response",468,365098,"0.0-4.152-0.152","0r8zo8wgw4l43jk",151,"100.csv","","349.40000000596046","resources/trios/L1T4A2.jpg","38","restless",0.5,0.7,0.5,0.465068633736826,"true"
"image-keyboard-response",469,365502,"0.0-4.152-1.152","0r8zo8wgw4l43jk",151,"100.csv","","null","resources/maskTrios/BT4B.jpg","null","",NA,NA,NA,NA,""
"image-keyboard-response",470,366708,"0.0-4.152-2.152","0r8zo8wgw4l43jk",151,"100.csv","","null","resources/images/coin2.png","null","",NA,NA,NA,NA,""
"image-keyboard-response",471,367098,"0.0-4.153-0.153","0r8zo8wgw4l43jk",151,"100.csv","","388.80000001192093","resources/trios/L1T4A2.jpg","38","restless",0.5,0.7,0.5,0.0145427155857258,"true"
"image-keyboard-response",472,367505,"0.0-4.153-1.153","0r8zo8wgw4l43jk",151,"100.csv","","null","resources/maskTrios/BT4B.jpg","null","",NA,NA,NA,NA,""
"image-keyboard-response",473,368711,"0.0-4.153-2.153","0r8zo8wgw4l43jk",151,"100.csv","","null","resources/images/coin2.png","null","",NA,NA,NA,NA,""
"image-keyboard-response",474,369220,"0.0-4.154-0.154","0r8zo8wgw4l43jk",151,"100.csv","","507.2000000178814","resources/trios/L1T4A2.jpg","38","restless",0.5,0.7,0.5,0.83983435592844,"false"
"image-keyboard-response",475,369622,"0.0-4.154-1.154","0r8zo8wgw4l43jk",151,"100.csv","","null","resources/maskTrios/BT4B.jpg","null","",NA,NA,NA,NA,""
"image-keyboard-response",476,370827,"0.0-4.154-2.154","0r8zo8wgw4l43jk",151,"100.csv","","null","resources/images/fishbone.png","null","",NA,NA,NA,NA,""
"image-keyboard-response",477,371208,"0.0-4.155-0.155","0r8zo8wgw4l43jk",151,"100.csv","","379.59999999403954","resources/trios/L1T4A2.jpg","38","restless",0.5,0.7,0.5,0.491498850390254,"true"
"image-keyboard-response",478,371611,"0.0-4.155-1.155","0r8zo8wgw4l43jk",151,"100.csv","","null","resources/maskTrios/BT4B.jpg","null","",NA,NA,NA,NA,""
"image-keyboard-response",479,372817,"0.0-4.155-2.155","0r8zo8wgw4l43jk",151,"100.csv","","null","resources/images/coin2.png","null","",NA,NA,NA,NA,""
"image-keyboard-response",480,373568,"0.0-4.156-0.156","0r8zo8wgw4l43jk",151,"100.csv","","750.1999999880791","resources/trios/L1T4A2.jpg","38","restless",0.4,0.7,0.5,0.516986183495703,"true"
"image-keyboard-response",481,373972,"0.0-4.156-1.156","0r8zo8wgw4l43jk",151,"100.csv","","null","resources/maskTrios/BT4B.jpg","null","",NA,NA,NA,NA,""
"image-keyboard-response",482,375174,"0.0-4.156-2.156","0r8zo8wgw4l43jk",151,"100.csv","","null","resources/images/coin2.png","null","",NA,NA,NA,NA,""
"image-keyboard-response",483,375566,"0.0-4.157-0.157","0r8zo8wgw4l43jk",151,"100.csv","","390.59999999403954","resources/trios/L1T4A2.jpg","38","restless",0.4,0.7,0.5,0.670611071972935,"true"
"image-keyboard-response",484,375969,"0.0-4.157-1.157","0r8zo8wgw4l43jk",151,"100.csv","","null","resources/maskTrios/BT4B.jpg","null","",NA,NA,NA,NA,""
"image-keyboard-response",485,377171,"0.0-4.157-2.157","0r8zo8wgw4l43jk",151,"100.csv","","null","resources/images/coin2.png","null","",NA,NA,NA,NA,""
"image-keyboard-response",486,377707,"0.0-4.158-0.158","0r8zo8wgw4l43jk",151,"100.csv","","534.7000000178814","resources/trios/L1T4A2.jpg","38","restless",0.4,0.6,0.5,0.108948794514168,"true"
"image-keyboard-response",487,378112,"0.0-4.158-1.158","0r8zo8wgw4l43jk",151,"100.csv","","null","resources/maskTrios/BT4B.jpg","null","",NA,NA,NA,NA,""
"image-keyboard-response",488,379319,"0.0-4.158-2.158","0r8zo8wgw4l43jk",151,"100.csv","","null","resources/images/coin2.png","null","",NA,NA,NA,NA,""
"image-keyboard-response",489,379952,"0.0-4.159-0.159","0r8zo8wgw4l43jk",151,"100.csv","","632.7000000178814","resources/trios/L1T4A2.jpg","38","restless",0.4,0.6,0.5,0.535601643929573,"true"
"image-keyboard-response",490,380358,"0.0-4.159-1.159","0r8zo8wgw4l43jk",151,"100.csv","","null","resources/maskTrios/BT4B.jpg","null","",NA,NA,NA,NA,""
"image-keyboard-response",491,381563,"0.0-4.159-2.159","0r8zo8wgw4l43jk",151,"100.csv","","null","resources/images/coin2.png","null","",NA,NA,NA,NA,""
"image-keyboard-response",492,382117,"0.0-4.160-0.160","0r8zo8wgw4l43jk",151,"100.csv","","552.7000000178814","resources/trios/L1T4A2.jpg","38","restless",0.4,0.6,0.5,0.356867109769349,"true"
"image-keyboard-response",493,382523,"0.0-4.160-1.160","0r8zo8wgw4l43jk",151,"100.csv","","null","resources/maskTrios/BT4B.jpg","null","",NA,NA,NA,NA,""
"image-keyboard-response",494,383730,"0.0-4.160-2.160","0r8zo8wgw4l43jk",151,"100.csv","","null","resources/images/coin2.png","null","",NA,NA,NA,NA,""
"image-keyboard-response",495,384606,"0.0-4.161-0.161","0r8zo8wgw4l43jk",151,"100.csv","","875.1000000238419","resources/trios/L1T4A2.jpg","38","restless",0.4,0.6,0.5,0.376880812743565,"true"
"image-keyboard-response",496,385008,"0.0-4.161-1.161","0r8zo8wgw4l43jk",151,"100.csv","","null","resources/maskTrios/BT4B.jpg","null","",NA,NA,NA,NA,""
"image-keyboard-response",497,386215,"0.0-4.161-2.161","0r8zo8wgw4l43jk",151,"100.csv","","null","resources/images/coin2.png","null","",NA,NA,NA,NA,""
"image-keyboard-response",498,386900,"0.0-4.162-0.162","0r8zo8wgw4l43jk",151,"100.csv","","684.3000000119209","resources/trios/L1T4A2.jpg","38","restless",0.4,0.6,0.5,0.147685293490729,"true"
"image-keyboard-response",499,387307,"0.0-4.162-1.162","0r8zo8wgw4l43jk",151,"100.csv","","null","resources/maskTrios/BT4B.jpg","null","",NA,NA,NA,NA,""
"image-keyboard-response",500,388508,"0.0-4.162-2.162","0r8zo8wgw4l43jk",151,"100.csv","","null","resources/images/coin2.png","null","",NA,NA,NA,NA,""
"image-keyboard-response",501,388615,"0.0-4.163-0.163","0r8zo8wgw4l43jk",151,"100.csv","","105.90000000596046","resources/trios/L1T4A2.jpg","38","restless",0.4,0.5,0.5,0.44887056096995,"true"
"image-keyboard-response",502,389019,"0.0-4.163-1.163","0r8zo8wgw4l43jk",151,"100.csv","","null","resources/maskTrios/BT4B.jpg","null","",NA,NA,NA,NA,""
"image-keyboard-response",503,390222,"0.0-4.163-2.163","0r8zo8wgw4l43jk",151,"100.csv","","null","resources/images/coin2.png","null","",NA,NA,NA,NA,""
"image-keyboard-response",504,391528,"0.0-4.164-0.164","0r8zo8wgw4l43jk",151,"100.csv","","1305.699999988079","resources/trios/L1T4A2.jpg","38","restless",0.4,0.5,0.6,0.917222668491257,"false"
"image-keyboard-response",505,391933,"0.0-4.164-1.164","0r8zo8wgw4l43jk",151,"100.csv","","null","resources/maskTrios/BT4B.jpg","null","",NA,NA,NA,NA,""
"image-keyboard-response",506,393135,"0.0-4.164-2.164","0r8zo8wgw4l43jk",151,"100.csv","","null","resources/images/fishbone.png","null","",NA,NA,NA,NA,""
"image-keyboard-response",507,395903,"0.0-4.165-0.165","0r8zo8wgw4l43jk",151,"100.csv","","2766.5","resources/trios/L1T4A2.jpg","38","restless",0.4,0.5,0.6,0.390308808083045,"true"
"image-keyboard-response",508,396309,"0.0-4.165-1.165","0r8zo8wgw4l43jk",151,"100.csv","","null","resources/maskTrios/BT4B.jpg","null","",NA,NA,NA,NA,""
"image-keyboard-response",509,397512,"0.0-4.165-2.165","0r8zo8wgw4l43jk",151,"100.csv","","null","resources/images/coin2.png","null","",NA,NA,NA,NA,""
"image-keyboard-response",510,398155,"0.0-4.166-0.166","0r8zo8wgw4l43jk",151,"100.csv","","641.6999999880791","resources/trios/L1T4A2.jpg","38","restless",0.4,0.5,0.6,0.669650639653829,"false"
"image-keyboard-response",511,398561,"0.0-4.166-1.166","0r8zo8wgw4l43jk",151,"100.csv","","null","resources/maskTrios/BT4B.jpg","null","",NA,NA,NA,NA,""
"image-keyboard-response",512,399767,"0.0-4.166-2.166","0r8zo8wgw4l43jk",151,"100.csv","","null","resources/images/fishbone.png","null","",NA,NA,NA,NA,""
"image-keyboard-response",513,400152,"0.0-4.167-0.167","0r8zo8wgw4l43jk",151,"100.csv","","384.5","resources/trios/L1T4A2.jpg","38","restless",0.4,0.5,0.6,0.407530547143866,"true"
"image-keyboard-response",514,400554,"0.0-4.167-1.167","0r8zo8wgw4l43jk",151,"100.csv","","null","resources/maskTrios/BT4B.jpg","null","",NA,NA,NA,NA,""
"image-keyboard-response",515,401761,"0.0-4.167-2.167","0r8zo8wgw4l43jk",151,"100.csv","","null","resources/images/coin2.png","null","",NA,NA,NA,NA,""
"image-keyboard-response",516,402183,"0.0-4.168-0.168","0r8zo8wgw4l43jk",151,"100.csv","","421.10000002384186","resources/trios/L1T4A2.jpg","38","restless",0.5,0.5,0.6,0.473201764878182,"true"
"image-keyboard-response",517,402586,"0.0-4.168-1.168","0r8zo8wgw4l43jk",151,"100.csv","","null","resources/maskTrios/BT4B.jpg","null","",NA,NA,NA,NA,""
"image-keyboard-response",518,403792,"0.0-4.168-2.168","0r8zo8wgw4l43jk",151,"100.csv","","null","resources/images/coin2.png","null","",NA,NA,NA,NA,""
"image-keyboard-response",519,404321,"0.0-4.169-0.169","0r8zo8wgw4l43jk",151,"100.csv","","528.5","resources/trios/L1T4A2.jpg","38","restless",0.5,0.5,0.6,0.268436962566818,"true"
"image-keyboard-response",520,404728,"0.0-4.169-1.169","0r8zo8wgw4l43jk",151,"100.csv","","null","resources/maskTrios/BT4B.jpg","null","",NA,NA,NA,NA,""
"image-keyboard-response",521,405930,"0.0-4.169-2.169","0r8zo8wgw4l43jk",151,"100.csv","","null","resources/images/coin2.png","null","",NA,NA,NA,NA,""
"image-keyboard-response",522,407062,"0.0-4.170-0.170","0r8zo8wgw4l43jk",151,"100.csv","","1131.300000011921","resources/trios/L1T4A2.jpg","38","restless",0.5,0.6,0.6,0.635816806045222,"false"
"image-keyboard-response",523,407464,"0.0-4.170-1.170","0r8zo8wgw4l43jk",151,"100.csv","","null","resources/maskTrios/BT4B.jpg","null","",NA,NA,NA,NA,""
"image-keyboard-response",524,408669,"0.0-4.170-2.170","0r8zo8wgw4l43jk",151,"100.csv","","null","resources/images/fishbone.png","null","",NA,NA,NA,NA,""
"image-keyboard-response",525,409063,"0.0-4.171-0.171","0r8zo8wgw4l43jk",151,"100.csv","","393.7000000178814","resources/trios/L1T4A2.jpg","38","restless",0.5,0.6,0.6,0.0704037136494344,"true"
"image-keyboard-response",526,409467,"0.0-4.171-1.171","0r8zo8wgw4l43jk",151,"100.csv","","null","resources/maskTrios/BT4B.jpg","null","",NA,NA,NA,NA,""
"image-keyboard-response",527,410672,"0.0-4.171-2.171","0r8zo8wgw4l43jk",151,"100.csv","","null","resources/images/coin2.png","null","",NA,NA,NA,NA,""
"image-keyboard-response",528,411100,"0.0-4.172-0.172","0r8zo8wgw4l43jk",151,"100.csv","","427","resources/trios/L1T4A2.jpg","38","restless",0.5,0.6,0.6,0.358299572559194,"true"
"image-keyboard-response",529,411502,"0.0-4.172-1.172","0r8zo8wgw4l43jk",151,"100.csv","","null","resources/maskTrios/BT4B.jpg","null","",NA,NA,NA,NA,""
"image-keyboard-response",530,412704,"0.0-4.172-2.172","0r8zo8wgw4l43jk",151,"100.csv","","null","resources/images/coin2.png","null","",NA,NA,NA,NA,""
"image-keyboard-response",531,413003,"0.0-4.173-0.173","0r8zo8wgw4l43jk",151,"100.csv","","297.89999997615814","resources/trios/L1T4A2.jpg","38","restless",0.5,0.5,0.5,0.328694783487893,"true"
"image-keyboard-response",532,413405,"0.0-4.173-1.173","0r8zo8wgw4l43jk",151,"100.csv","","null","resources/maskTrios/BT4B.jpg","null","",NA,NA,NA,NA,""
"image-keyboard-response",533,414608,"0.0-4.173-2.173","0r8zo8wgw4l43jk",151,"100.csv","","null","resources/images/coin2.png","null","",NA,NA,NA,NA,""
"image-keyboard-response",534,414912,"0.0-4.174-0.174","0r8zo8wgw4l43jk",151,"100.csv","","302.7999999821186","resources/trios/L1T4A2.jpg","38","restless",0.5,0.5,0.5,0.945208178975443,"false"
"image-keyboard-response",535,415318,"0.0-4.174-1.174","0r8zo8wgw4l43jk",151,"100.csv","","null","resources/maskTrios/BT4B.jpg","null","",NA,NA,NA,NA,""
"image-keyboard-response",536,416524,"0.0-4.174-2.174","0r8zo8wgw4l43jk",151,"100.csv","","null","resources/images/fishbone.png","null","",NA,NA,NA,NA,""
"image-keyboard-response",537,416856,"0.0-4.175-0.175","0r8zo8wgw4l43jk",151,"100.csv","","330.80000001192093","resources/trios/L1T4A2.jpg","38","restless",0.5,0.4,0.5,0.0955835930772435,"true"
"image-keyboard-response",538,417260,"0.0-4.175-1.175","0r8zo8wgw4l43jk",151,"100.csv","","null","resources/maskTrios/BT4B.jpg","null","",NA,NA,NA,NA,""
"image-keyboard-response",539,418463,"0.0-4.175-2.175","0r8zo8wgw4l43jk",151,"100.csv","","null","resources/images/coin2.png","null","",NA,NA,NA,NA,""
"image-keyboard-response",540,418852,"0.0-4.176-0.176","0r8zo8wgw4l43jk",151,"100.csv","","388","resources/trios/L1T4A2.jpg","38","restless",0.5,0.4,0.4,0.408475628187343,"false"
"image-keyboard-response",541,419257,"0.0-4.176-1.176","0r8zo8wgw4l43jk",151,"100.csv","","null","resources/maskTrios/BT4B.jpg","null","",NA,NA,NA,NA,""
"image-keyboard-response",542,420459,"0.0-4.176-2.176","0r8zo8wgw4l43jk",151,"100.csv","","null","resources/images/fishbone.png","null","",NA,NA,NA,NA,""
"image-keyboard-response",543,420812,"0.0-4.177-0.177","0r8zo8wgw4l43jk",151,"100.csv","","351.7000000178814","resources/trios/L1T4A2.jpg","38","restless",0.5,0.3,0.3,0.181115133346893,"true"
"image-keyboard-response",544,421218,"0.0-4.177-1.177","0r8zo8wgw4l43jk",151,"100.csv","","null","resources/maskTrios/BT4B.jpg","null","",NA,NA,NA,NA,""
"image-keyboard-response",545,422424,"0.0-4.177-2.177","0r8zo8wgw4l43jk",151,"100.csv","","null","resources/images/coin2.png","null","",NA,NA,NA,NA,""
"image-keyboard-response",546,422955,"0.0-4.178-0.178","0r8zo8wgw4l43jk",151,"100.csv","","529.8000000119209","resources/trios/L1T4A2.jpg","38","restless",0.5,0.3,0.3,0.163621335405446,"true"
"image-keyboard-response",547,423361,"0.0-4.178-1.178","0r8zo8wgw4l43jk",151,"100.csv","","null","resources/maskTrios/BT4B.jpg","null","",NA,NA,NA,NA,""
"image-keyboard-response",548,424564,"0.0-4.178-2.178","0r8zo8wgw4l43jk",151,"100.csv","","null","resources/images/coin2.png","null","",NA,NA,NA,NA,""
"image-keyboard-response",549,424935,"0.0-4.179-0.179","0r8zo8wgw4l43jk",151,"100.csv","","370.2999999821186","resources/trios/L1T4A2.jpg","38","restless",0.5,0.3,0.3,0.90101531113276,"false"
"image-keyboard-response",550,425340,"0.0-4.179-1.179","0r8zo8wgw4l43jk",151,"100.csv","","null","resources/maskTrios/BT4B.jpg","null","",NA,NA,NA,NA,""
"image-keyboard-response",551,426543,"0.0-4.179-2.179","0r8zo8wgw4l43jk",151,"100.csv","","null","resources/images/fishbone.png","null","",NA,NA,NA,NA,""
"image-keyboard-response",552,426901,"0.0-4.180-0.180","0r8zo8wgw4l43jk",151,"100.csv","","356.09999999403954","resources/trios/L1T4A2.jpg","38","restless",0.5,0.3,0.3,0.741824337750844,"false"
"image-keyboard-response",553,427306,"0.0-4.180-1.180","0r8zo8wgw4l43jk",151,"100.csv","","null","resources/maskTrios/BT4B.jpg","null","",NA,NA,NA,NA,""
"image-keyboard-response",554,428511,"0.0-4.180-2.180","0r8zo8wgw4l43jk",151,"100.csv","","null","resources/images/fishbone.png","null","",NA,NA,NA,NA,""
"image-keyboard-response",555,428927,"0.0-4.181-0.181","0r8zo8wgw4l43jk",151,"100.csv","","414.5","resources/trios/L1T4A2.jpg","38","restless",0.5,0.3,0.4,0.103203211004372,"true"
"image-keyboard-response",556,429329,"0.0-4.181-1.181","0r8zo8wgw4l43jk",151,"100.csv","","null","resources/maskTrios/BT4B.jpg","null","",NA,NA,NA,NA,""
"image-keyboard-response",557,430534,"0.0-4.181-2.181","0r8zo8wgw4l43jk",151,"100.csv","","null","resources/images/coin2.png","null","",NA,NA,NA,NA,""
"image-keyboard-response",558,430897,"0.0-4.182-0.182","0r8zo8wgw4l43jk",151,"100.csv","","361.7000000178814","resources/trios/L1T4A2.jpg","38","restless",0.5,0.3,0.4,0.526672336785727,"false"
"image-keyboard-response",559,431300,"0.0-4.182-1.182","0r8zo8wgw4l43jk",151,"100.csv","","null","resources/maskTrios/BT4B.jpg","null","",NA,NA,NA,NA,""
"image-keyboard-response",560,432506,"0.0-4.182-2.182","0r8zo8wgw4l43jk",151,"100.csv","","null","resources/images/fishbone.png","null","",NA,NA,NA,NA,""
"image-keyboard-response",561,432936,"0.0-4.183-0.183","0r8zo8wgw4l43jk",151,"100.csv","","428.5","resources/trios/L1T4A2.jpg","38","restless",0.5,0.3,0.4,0.949627004727498,"false"
"image-keyboard-response",562,433341,"0.0-4.183-1.183","0r8zo8wgw4l43jk",151,"100.csv","","null","resources/maskTrios/BT4B.jpg","null","",NA,NA,NA,NA,""
"image-keyboard-response",563,434543,"0.0-4.183-2.183","0r8zo8wgw4l43jk",151,"100.csv","","null","resources/images/fishbone.png","null","",NA,NA,NA,NA,""
"image-keyboard-response",564,434908,"0.0-4.184-0.184","0r8zo8wgw4l43jk",151,"100.csv","","364.69999998807907","resources/trios/L1T4A2.jpg","38","restless",0.5,0.3,0.4,0.530241228570659,"false"
"image-keyboard-response",565,435315,"0.0-4.184-1.184","0r8zo8wgw4l43jk",151,"100.csv","","null","resources/maskTrios/BT4B.jpg","null","",NA,NA,NA,NA,""
"image-keyboard-response",566,436516,"0.0-4.184-2.184","0r8zo8wgw4l43jk",151,"100.csv","","null","resources/images/fishbone.png","null","",NA,NA,NA,NA,""
"image-keyboard-response",567,436920,"0.0-4.185-0.185","0r8zo8wgw4l43jk",151,"100.csv","","401.90000000596046","resources/trios/L1T4A2.jpg","38","restless",0.5,0.3,0.4,0.295001780106779,"true"
"image-keyboard-response",568,437323,"0.0-4.185-1.185","0r8zo8wgw4l43jk",151,"100.csv","","null","resources/maskTrios/BT4B.jpg","null","",NA,NA,NA,NA,""
"image-keyboard-response",569,438525,"0.0-4.185-2.185","0r8zo8wgw4l43jk",151,"100.csv","","null","resources/images/coin2.png","null","",NA,NA,NA,NA,""
"image-keyboard-response",570,438998,"0.0-4.186-0.186","0r8zo8wgw4l43jk",151,"100.csv","","471.19999998807907","resources/trios/L1T4A2.jpg","38","restless",0.5,0.3,0.4,0.825837816155986,"false"
"image-keyboard-response",571,439404,"0.0-4.186-1.186","0r8zo8wgw4l43jk",151,"100.csv","","null","resources/maskTrios/BT4B.jpg","null","",NA,NA,NA,NA,""
"image-keyboard-response",572,440608,"0.0-4.186-2.186","0r8zo8wgw4l43jk",151,"100.csv","","null","resources/images/fishbone.png","null","",NA,NA,NA,NA,""
"image-keyboard-response",573,440967,"0.0-4.187-0.187","0r8zo8wgw4l43jk",151,"100.csv","","357.5","resources/trios/L1T4A2.jpg","38","restless",0.5,0.3,0.4,0.671099330242394,"false"
"image-keyboard-response",574,441370,"0.0-4.187-1.187","0r8zo8wgw4l43jk",151,"100.csv","","null","resources/maskTrios/BT4B.jpg","null","",NA,NA,NA,NA,""
"image-keyboard-response",575,442571,"0.0-4.187-2.187","0r8zo8wgw4l43jk",151,"100.csv","","null","resources/images/fishbone.png","null","",NA,NA,NA,NA,""
"image-keyboard-response",576,443034,"0.0-4.188-0.188","0r8zo8wgw4l43jk",151,"100.csv","","461.40000000596046","resources/trios/L1T4A2.jpg","38","restless",0.5,0.3,0.4,0.15050130577968,"true"
"image-keyboard-response",577,443440,"0.0-4.188-1.188","0r8zo8wgw4l43jk",151,"100.csv","","null","resources/maskTrios/BT4B.jpg","null","",NA,NA,NA,NA,""
"image-keyboard-response",578,444644,"0.0-4.188-2.188","0r8zo8wgw4l43jk",151,"100.csv","","null","resources/images/coin2.png","null","",NA,NA,NA,NA,""
"image-keyboard-response",579,446298,"0.0-4.189-0.189","0r8zo8wgw4l43jk",151,"100.csv","","1652.5999999940395","resources/trios/L1T4A2.jpg","38","restless",0.5,0.3,0.4,0.603886432922597,"false"
"image-keyboard-response",580,446703,"0.0-4.189-1.189","0r8zo8wgw4l43jk",151,"100.csv","","null","resources/maskTrios/BT4B.jpg","null","",NA,NA,NA,NA,""
"image-keyboard-response",581,447908,"0.0-4.189-2.189","0r8zo8wgw4l43jk",151,"100.csv","","null","resources/images/fishbone.png","null","",NA,NA,NA,NA,""
"image-keyboard-response",582,448377,"0.0-4.190-0.190","0r8zo8wgw4l43jk",151,"100.csv","","468","resources/trios/L1T4A2.jpg","38","restless",0.5,0.4,0.4,0.241854032655964,"true"
"image-keyboard-response",583,448783,"0.0-4.190-1.190","0r8zo8wgw4l43jk",151,"100.csv","","null","resources/maskTrios/BT4B.jpg","null","",NA,NA,NA,NA,""
"image-keyboard-response",584,449990,"0.0-4.190-2.190","0r8zo8wgw4l43jk",151,"100.csv","","null","resources/images/coin2.png","null","",NA,NA,NA,NA,""
"image-keyboard-response",585,450400,"0.0-4.191-0.191","0r8zo8wgw4l43jk",151,"100.csv","","408.30000001192093","resources/trios/L1T4A2.jpg","38","restless",0.5,0.4,0.4,0.811438787971691,"false"
"image-keyboard-response",586,450803,"0.0-4.191-1.191","0r8zo8wgw4l43jk",151,"100.csv","","null","resources/maskTrios/BT4B.jpg","null","",NA,NA,NA,NA,""
"image-keyboard-response",587,452005,"0.0-4.191-2.191","0r8zo8wgw4l43jk",151,"100.csv","","null","resources/images/fishbone.png","null","",NA,NA,NA,NA,""
"image-keyboard-response",588,452335,"0.0-4.192-0.192","0r8zo8wgw4l43jk",151,"100.csv","","329.2000000178814","resources/trios/L1T4A2.jpg","38","restless",0.6,0.4,0.4,0.138548503310151,"true"
"image-keyboard-response",589,452737,"0.0-4.192-1.192","0r8zo8wgw4l43jk",151,"100.csv","","null","resources/maskTrios/BT4B.jpg","null","",NA,NA,NA,NA,""
"image-keyboard-response",590,453941,"0.0-4.192-2.192","0r8zo8wgw4l43jk",151,"100.csv","","null","resources/images/coin2.png","null","",NA,NA,NA,NA,""
"image-keyboard-response",591,454295,"0.0-4.193-0.193","0r8zo8wgw4l43jk",151,"100.csv","","353.2000000178814","resources/trios/L1T4A2.jpg","38","restless",0.6,0.4,0.4,0.0612571159956823,"true"
"image-keyboard-response",592,454697,"0.0-4.193-1.193","0r8zo8wgw4l43jk",151,"100.csv","","null","resources/maskTrios/BT4B.jpg","null","",NA,NA,NA,NA,""
"image-keyboard-response",593,455901,"0.0-4.193-2.193","0r8zo8wgw4l43jk",151,"100.csv","","null","resources/images/coin2.png","null","",NA,NA,NA,NA,""
"image-keyboard-response",594,456325,"0.0-4.194-0.194","0r8zo8wgw4l43jk",151,"100.csv","","423.2999999821186","resources/trios/L1T4A2.jpg","38","restless",0.6,0.4,0.4,0.463921893512178,"false"
"image-keyboard-response",595,456730,"0.0-4.194-1.194","0r8zo8wgw4l43jk",151,"100.csv","","null","resources/maskTrios/BT4B.jpg","null","",NA,NA,NA,NA,""
"image-keyboard-response",596,457931,"0.0-4.194-2.194","0r8zo8wgw4l43jk",151,"100.csv","","null","resources/images/fishbone.png","null","",NA,NA,NA,NA,""
"image-keyboard-response",597,459008,"0.0-4.195-0.195","0r8zo8wgw4l43jk",151,"100.csv","","1075.199999988079","resources/trios/L1T4A2.jpg","38","restless",0.7,0.4,0.4,0.92694108490928,"false"
"image-keyboard-response",598,459409,"0.0-4.195-1.195","0r8zo8wgw4l43jk",151,"100.csv","","null","resources/maskTrios/BT4B.jpg","null","",NA,NA,NA,NA,""
"image-keyboard-response",599,460613,"0.0-4.195-2.195","0r8zo8wgw4l43jk",151,"100.csv","","null","resources/images/fishbone.png","null","",NA,NA,NA,NA,""
"image-keyboard-response",600,461089,"0.0-4.196-0.196","0r8zo8wgw4l43jk",151,"100.csv","","474.40000000596046","resources/trios/L1T4A2.jpg","38","restless",0.7,0.4,0.4,0.542981661776169,"false"
"image-keyboard-response",601,461496,"0.0-4.196-1.196","0r8zo8wgw4l43jk",151,"100.csv","","null","resources/maskTrios/BT4B.jpg","null","",NA,NA,NA,NA,""
"image-keyboard-response",602,462701,"0.0-4.196-2.196","0r8zo8wgw4l43jk",151,"100.csv","","null","resources/images/fishbone.png","null","",NA,NA,NA,NA,""
"image-keyboard-response",603,463177,"0.0-4.197-0.197","0r8zo8wgw4l43jk",151,"100.csv","","474.09999999403954","resources/trios/L1T4A2.jpg","38","restless",0.7,0.4,0.4,0.915489164968959,"false"
"image-keyboard-response",604,463579,"0.0-4.197-1.197","0r8zo8wgw4l43jk",151,"100.csv","","null","resources/maskTrios/BT4B.jpg","null","",NA,NA,NA,NA,""
"image-keyboard-response",605,464781,"0.0-4.197-2.197","0r8zo8wgw4l43jk",151,"100.csv","","null","resources/images/fishbone.png","null","",NA,NA,NA,NA,""
"image-keyboard-response",606,465215,"0.0-4.198-0.198","0r8zo8wgw4l43jk",151,"100.csv","","433.40000000596046","resources/trios/L1T4A2.jpg","38","restless",0.7,0.4,0.4,0.11416079495736,"true"
"image-keyboard-response",607,465617,"0.0-4.198-1.198","0r8zo8wgw4l43jk",151,"100.csv","","null","resources/maskTrios/BT4B.jpg","null","",NA,NA,NA,NA,""
"image-keyboard-response",608,466819,"0.0-4.198-2.198","0r8zo8wgw4l43jk",151,"100.csv","","null","resources/images/coin2.png","null","",NA,NA,NA,NA,""
