"trial_type","trial_index","time_elapsed","internal_node_id","subject","participantCode","walkNumber","success","rt","stimulus","key_press","test_part","leftProb","midProb","rightProb","generatedNum","correct"
"pavlovia",0,872,"0.0-0.0","9z1r0tjpthx1upo",664,"167.csv","","","","","",NA,NA,NA,NA,""
"fullscreen",1,16689,"0.0-1.0","9z1r0tjpthx1upo",664,"167.csv","true","","","","",NA,NA,NA,NA,""
"survey-html-form",2,17758,"0.0-2.0","9z1r0tjpthx1upo",664,"167.csv","","1065.1999998092651","","","",NA,NA,NA,NA,""
"image-keyboard-response",3,23621,"0.0-3.0-0.0","9z1r0tjpthx1upo",664,"167.csv","","5861.700000047684","resources/images/parrot_nobg.png","13","",NA,NA,NA,NA,""
"image-keyboard-response",4,26629,"0.0-3.0-1.0","9z1r0tjpthx1upo",664,"167.csv","","null","resources/image_sets/111.png","null","",NA,NA,NA,NA,""
"image-keyboard-response",5,29794,"0.0-3.0-2.0","9z1r0tjpthx1upo",664,"167.csv","","3163.7000000476837","resources/image_sets/left_highlight.png","37","",NA,NA,NA,NA,""
"image-keyboard-response",6,30762,"0.0-3.0-3.0","9z1r0tjpthx1upo",664,"167.csv","","966.5","resources/image_sets/mid_highlight.png","38","",NA,NA,NA,NA,""
"image-keyboard-response",7,31584,"0.0-3.0-4.0","9z1r0tjpthx1upo",664,"167.csv","","820.0999999046326","resources/image_sets/right_highlight.png","39","",NA,NA,NA,NA,""
"image-keyboard-response",8,32879,"0.0-3.0-5.0","9z1r0tjpthx1upo",664,"167.csv","","1294.7000000476837","resources/image_sets/111.png","13","",NA,NA,NA,NA,""
"image-keyboard-response",9,34319,"0.0-3.0-6.0","9z1r0tjpthx1upo",664,"167.csv","","1438.3000001907349","resources/images/coin2.png","13","",NA,NA,NA,NA,""
"image-keyboard-response",10,34789,"0.0-3.0-7.0","9z1r0tjpthx1upo",664,"167.csv","","469.80000019073486","resources/images/fishbone.png","13","",NA,NA,NA,NA,""
"html-keyboard-response",11,35624,"0.0-3.0-8.0","9z1r0tjpthx1upo",664,"167.csv","","833.5999999046326","<p>You can track your coin total on the top right of your screen. </p><p>At the end of your journey you will be directed to a survey, so please click on the link before exiting the task</p><p>Press Enter to begin</p>","13","",NA,NA,NA,NA,""
"image-keyboard-response",12,36753,"0.0-4.0-0.0","9z1r0tjpthx1upo",664,"167.csv","","1127.7000000476837","resources/trios/L1T2A3.jpg","39","restless",0.9,0.3,0.7,0.34634756138887,"true"
"image-keyboard-response",13,37158,"0.0-4.0-1.0","9z1r0tjpthx1upo",664,"167.csv","","null","resources/maskTrios/BBA3.jpg","null","",NA,NA,NA,NA,""
"image-keyboard-response",14,38396,"0.0-4.0-2.0","9z1r0tjpthx1upo",664,"167.csv","","null","resources/images/coin2.png","null","",NA,NA,NA,NA,""
"image-keyboard-response",15,38701,"0.0-4.1-0.1","9z1r0tjpthx1upo",664,"167.csv","","303.89999985694885","resources/trios/L1T2A3.jpg","39","restless",0.9,0.3,0.8,0.515766524373692,"true"
"image-keyboard-response",16,39108,"0.0-4.1-1.1","9z1r0tjpthx1upo",664,"167.csv","","null","resources/maskTrios/BBA3.jpg","null","",NA,NA,NA,NA,""
"image-keyboard-response",17,40317,"0.0-4.1-2.1","9z1r0tjpthx1upo",664,"167.csv","","null","resources/images/coin2.png","null","",NA,NA,NA,NA,""
"image-keyboard-response",18,41025,"0.0-4.2-0.2","9z1r0tjpthx1upo",664,"167.csv","","706.8000001907349","resources/trios/L1T2A3.jpg","39","restless",0.9,0.3,0.8,0.300551175057078,"true"
"image-keyboard-response",19,41434,"0.0-4.2-1.2","9z1r0tjpthx1upo",664,"167.csv","","null","resources/maskTrios/BBA3.jpg","null","",NA,NA,NA,NA,""
"image-keyboard-response",20,42646,"0.0-4.2-2.2","9z1r0tjpthx1upo",664,"167.csv","","null","resources/images/coin2.png","null","",NA,NA,NA,NA,""
"image-keyboard-response",21,43095,"0.0-4.3-0.3","9z1r0tjpthx1upo",664,"167.csv","","446.5","resources/trios/L1T2A3.jpg","39","restless",0.9,0.3,0.8,0.666826533644959,"true"
"image-keyboard-response",22,43506,"0.0-4.3-1.3","9z1r0tjpthx1upo",664,"167.csv","","null","resources/maskTrios/BBA3.jpg","null","",NA,NA,NA,NA,""
"image-keyboard-response",23,44724,"0.0-4.3-2.3","9z1r0tjpthx1upo",664,"167.csv","","null","resources/images/coin2.png","null","",NA,NA,NA,NA,""
"image-keyboard-response",24,45201,"0.0-4.4-0.4","9z1r0tjpthx1upo",664,"167.csv","","474.59999990463257","resources/trios/L1T2A3.jpg","39","restless",0.8,0.3,0.8,0.525788827896538,"true"
"image-keyboard-response",25,45617,"0.0-4.4-1.4","9z1r0tjpthx1upo",664,"167.csv","","null","resources/maskTrios/BBA3.jpg","null","",NA,NA,NA,NA,""
"image-keyboard-response",26,46823,"0.0-4.4-2.4","9z1r0tjpthx1upo",664,"167.csv","","null","resources/images/coin2.png","null","",NA,NA,NA,NA,""
"image-keyboard-response",27,47217,"0.0-4.5-0.5","9z1r0tjpthx1upo",664,"167.csv","","392.60000014305115","resources/trios/L1T2A3.jpg","39","restless",0.8,0.4,0.8,0.107003148765953,"true"
"image-keyboard-response",28,47634,"0.0-4.5-1.5","9z1r0tjpthx1upo",664,"167.csv","","null","resources/maskTrios/BBA3.jpg","null","",NA,NA,NA,NA,""
"image-keyboard-response",29,48844,"0.0-4.5-2.5","9z1r0tjpthx1upo",664,"167.csv","","null","resources/images/coin2.png","null","",NA,NA,NA,NA,""
"image-keyboard-response",30,49228,"0.0-4.6-0.6","9z1r0tjpthx1upo",664,"167.csv","","381.59999990463257","resources/trios/L1T2A3.jpg","39","restless",0.8,0.4,0.8,0.103442794293405,"true"
"image-keyboard-response",31,49636,"0.0-4.6-1.6","9z1r0tjpthx1upo",664,"167.csv","","null","resources/maskTrios/BBA3.jpg","null","",NA,NA,NA,NA,""
"image-keyboard-response",32,50843,"0.0-4.6-2.6","9z1r0tjpthx1upo",664,"167.csv","","null","resources/images/coin2.png","null","",NA,NA,NA,NA,""
"image-keyboard-response",33,51306,"0.0-4.7-0.7","9z1r0tjpthx1upo",664,"167.csv","","460.7999999523163","resources/trios/L1T2A3.jpg","39","restless",0.7,0.4,0.8,0.0469994699720397,"true"
"image-keyboard-response",34,51724,"0.0-4.7-1.7","9z1r0tjpthx1upo",664,"167.csv","","null","resources/maskTrios/BBA3.jpg","null","",NA,NA,NA,NA,""
"image-keyboard-response",35,52933,"0.0-4.7-2.7","9z1r0tjpthx1upo",664,"167.csv","","null","resources/images/coin2.png","null","",NA,NA,NA,NA,""
"image-keyboard-response",36,53299,"0.0-4.8-0.8","9z1r0tjpthx1upo",664,"167.csv","","364.09999990463257","resources/trios/L1T2A3.jpg","39","restless",0.7,0.3,0.8,0.494554328681669,"true"
"image-keyboard-response",37,53707,"0.0-4.8-1.8","9z1r0tjpthx1upo",664,"167.csv","","null","resources/maskTrios/BBA3.jpg","null","",NA,NA,NA,NA,""
"image-keyboard-response",38,54921,"0.0-4.8-2.8","9z1r0tjpthx1upo",664,"167.csv","","null","resources/images/coin2.png","null","",NA,NA,NA,NA,""
"image-keyboard-response",39,55182,"0.0-4.9-0.9","9z1r0tjpthx1upo",664,"167.csv","","259","resources/trios/L1T2A3.jpg","39","restless",0.6,0.3,0.8,0.437034072296741,"true"
"image-keyboard-response",40,55586,"0.0-4.9-1.9","9z1r0tjpthx1upo",664,"167.csv","","null","resources/maskTrios/BBA3.jpg","null","",NA,NA,NA,NA,""
"image-keyboard-response",41,56822,"0.0-4.9-2.9","9z1r0tjpthx1upo",664,"167.csv","","null","resources/images/coin2.png","null","",NA,NA,NA,NA,""
"image-keyboard-response",42,57126,"0.0-4.10-0.10","9z1r0tjpthx1upo",664,"167.csv","","302.5","resources/trios/L1T2A3.jpg","39","restless",0.6,0.3,0.8,0.591355379860962,"true"
"image-keyboard-response",43,57531,"0.0-4.10-1.10","9z1r0tjpthx1upo",664,"167.csv","","null","resources/maskTrios/BBA3.jpg","null","",NA,NA,NA,NA,""
"image-keyboard-response",44,58745,"0.0-4.10-2.10","9z1r0tjpthx1upo",664,"167.csv","","null","resources/images/coin2.png","null","",NA,NA,NA,NA,""
"image-keyboard-response",45,59064,"0.0-4.11-0.11","9z1r0tjpthx1upo",664,"167.csv","","316.7999999523163","resources/trios/L1T2A3.jpg","39","restless",0.6,0.3,0.8,0.0806621542134933,"true"
"image-keyboard-response",46,59481,"0.0-4.11-1.11","9z1r0tjpthx1upo",664,"167.csv","","null","resources/maskTrios/BBA3.jpg","null","",NA,NA,NA,NA,""
"image-keyboard-response",47,60698,"0.0-4.11-2.11","9z1r0tjpthx1upo",664,"167.csv","","null","resources/images/coin2.png","null","",NA,NA,NA,NA,""
"image-keyboard-response",48,60991,"0.0-4.12-0.12","9z1r0tjpthx1upo",664,"167.csv","","290.2000000476837","resources/trios/L1T2A3.jpg","39","restless",0.6,0.3,0.8,0.584799285066992,"true"
"image-keyboard-response",49,61408,"0.0-4.12-1.12","9z1r0tjpthx1upo",664,"167.csv","","null","resources/maskTrios/BBA3.jpg","null","",NA,NA,NA,NA,""
"image-keyboard-response",50,62620,"0.0-4.12-2.12","9z1r0tjpthx1upo",664,"167.csv","","null","resources/images/coin2.png","null","",NA,NA,NA,NA,""
"image-keyboard-response",51,62871,"0.0-4.13-0.13","9z1r0tjpthx1upo",664,"167.csv","","248.79999995231628","resources/trios/L1T2A3.jpg","39","restless",0.6,0.3,0.8,0.0994346172079088,"true"
"image-keyboard-response",52,63278,"0.0-4.13-1.13","9z1r0tjpthx1upo",664,"167.csv","","null","resources/maskTrios/BBA3.jpg","null","",NA,NA,NA,NA,""
"image-keyboard-response",53,64488,"0.0-4.13-2.13","9z1r0tjpthx1upo",664,"167.csv","","null","resources/images/coin2.png","null","",NA,NA,NA,NA,""
"image-keyboard-response",54,64848,"0.0-4.14-0.14","9z1r0tjpthx1upo",664,"167.csv","","357.89999985694885","resources/trios/L1T2A3.jpg","39","restless",0.6,0.3,0.8,0.610057597079042,"true"
"image-keyboard-response",55,65251,"0.0-4.14-1.14","9z1r0tjpthx1upo",664,"167.csv","","null","resources/maskTrios/BBA3.jpg","null","",NA,NA,NA,NA,""
"image-keyboard-response",56,66463,"0.0-4.14-2.14","9z1r0tjpthx1upo",664,"167.csv","","null","resources/images/coin2.png","null","",NA,NA,NA,NA,""
"image-keyboard-response",57,66818,"0.0-4.15-0.15","9z1r0tjpthx1upo",664,"167.csv","","353.5","resources/trios/L1T2A3.jpg","39","restless",0.6,0.3,0.8,0.531218421806051,"true"
"image-keyboard-response",58,67227,"0.0-4.15-1.15","9z1r0tjpthx1upo",664,"167.csv","","null","resources/maskTrios/BBA3.jpg","null","",NA,NA,NA,NA,""
"image-keyboard-response",59,68448,"0.0-4.15-2.15","9z1r0tjpthx1upo",664,"167.csv","","null","resources/images/coin2.png","null","",NA,NA,NA,NA,""
"image-keyboard-response",60,68740,"0.0-4.16-0.16","9z1r0tjpthx1upo",664,"167.csv","","290.5","resources/trios/L1T2A3.jpg","39","restless",0.6,0.3,0.8,0.472072589824087,"true"
"image-keyboard-response",61,69154,"0.0-4.16-1.16","9z1r0tjpthx1upo",664,"167.csv","","null","resources/maskTrios/BBA3.jpg","null","",NA,NA,NA,NA,""
"image-keyboard-response",62,70363,"0.0-4.16-2.16","9z1r0tjpthx1upo",664,"167.csv","","null","resources/images/coin2.png","null","",NA,NA,NA,NA,""
"image-keyboard-response",63,70653,"0.0-4.17-0.17","9z1r0tjpthx1upo",664,"167.csv","","289","resources/trios/L1T2A3.jpg","39","restless",0.6,0.3,0.8,0.89924341540477,"false"
"image-keyboard-response",64,71063,"0.0-4.17-1.17","9z1r0tjpthx1upo",664,"167.csv","","null","resources/maskTrios/BBA3.jpg","null","",NA,NA,NA,NA,""
"image-keyboard-response",65,72268,"0.0-4.17-2.17","9z1r0tjpthx1upo",664,"167.csv","","null","resources/images/fishbone.png","null","",NA,NA,NA,NA,""
"image-keyboard-response",66,72617,"0.0-4.18-0.18","9z1r0tjpthx1upo",664,"167.csv","","347.2000000476837","resources/trios/L1T2A3.jpg","38","restless",0.5,0.3,0.8,0.0186478051935184,"true"
"image-keyboard-response",67,73022,"0.0-4.18-1.18","9z1r0tjpthx1upo",664,"167.csv","","null","resources/maskTrios/BT2B.jpg","null","",NA,NA,NA,NA,""
"image-keyboard-response",68,74238,"0.0-4.18-2.18","9z1r0tjpthx1upo",664,"167.csv","","null","resources/images/coin2.png","null","",NA,NA,NA,NA,""
"image-keyboard-response",69,74541,"0.0-4.19-0.19","9z1r0tjpthx1upo",664,"167.csv","","301.59999990463257","resources/trios/L1T2A3.jpg","38","restless",0.5,0.3,0.8,0.954651374781963,"false"
"image-keyboard-response",70,74956,"0.0-4.19-1.19","9z1r0tjpthx1upo",664,"167.csv","","null","resources/maskTrios/BT2B.jpg","null","",NA,NA,NA,NA,""
"image-keyboard-response",71,76167,"0.0-4.19-2.19","9z1r0tjpthx1upo",664,"167.csv","","null","resources/images/fishbone.png","null","",NA,NA,NA,NA,""
"image-keyboard-response",72,76800,"0.0-4.20-0.20","9z1r0tjpthx1upo",664,"167.csv","","631.2999999523163","resources/trios/L1T2A3.jpg","38","restless",0.5,0.3,0.8,0.523931822420809,"false"
"image-keyboard-response",73,77209,"0.0-4.20-1.20","9z1r0tjpthx1upo",664,"167.csv","","null","resources/maskTrios/BT2B.jpg","null","",NA,NA,NA,NA,""
"image-keyboard-response",74,78425,"0.0-4.20-2.20","9z1r0tjpthx1upo",664,"167.csv","","null","resources/images/fishbone.png","null","",NA,NA,NA,NA,""
"image-keyboard-response",75,78698,"0.0-4.21-0.21","9z1r0tjpthx1upo",664,"167.csv","","271.40000009536743","resources/trios/L1T2A3.jpg","39","restless",0.5,0.2,0.7,0.101888626606156,"true"
"image-keyboard-response",76,79114,"0.0-4.21-1.21","9z1r0tjpthx1upo",664,"167.csv","","null","resources/maskTrios/BBA3.jpg","null","",NA,NA,NA,NA,""
"image-keyboard-response",77,80360,"0.0-4.21-2.21","9z1r0tjpthx1upo",664,"167.csv","","null","resources/images/coin2.png","null","",NA,NA,NA,NA,""
"image-keyboard-response",78,80638,"0.0-4.22-0.22","9z1r0tjpthx1upo",664,"167.csv","","276.19999980926514","resources/trios/L1T2A3.jpg","38","restless",0.4,0.3,0.7,0.858570551473822,"false"
"image-keyboard-response",79,81043,"0.0-4.22-1.22","9z1r0tjpthx1upo",664,"167.csv","","null","resources/maskTrios/BT2B.jpg","null","",NA,NA,NA,NA,""
"image-keyboard-response",80,82258,"0.0-4.22-2.22","9z1r0tjpthx1upo",664,"167.csv","","null","resources/images/fishbone.png","null","",NA,NA,NA,NA,""
"image-keyboard-response",81,82562,"0.0-4.23-0.23","9z1r0tjpthx1upo",664,"167.csv","","302.7999999523163","resources/trios/L1T2A3.jpg","39","restless",0.4,0.3,0.7,0.198405818104856,"true"
"image-keyboard-response",82,82974,"0.0-4.23-1.23","9z1r0tjpthx1upo",664,"167.csv","","null","resources/maskTrios/BBA3.jpg","null","",NA,NA,NA,NA,""
"image-keyboard-response",83,84187,"0.0-4.23-2.23","9z1r0tjpthx1upo",664,"167.csv","","null","resources/images/coin2.png","null","",NA,NA,NA,NA,""
"image-keyboard-response",84,84458,"0.0-4.24-0.24","9z1r0tjpthx1upo",664,"167.csv","","268.59999990463257","resources/trios/L1T2A3.jpg","39","restless",0.4,0.2,0.7,0.199612461751519,"true"
"image-keyboard-response",85,84871,"0.0-4.24-1.24","9z1r0tjpthx1upo",664,"167.csv","","null","resources/maskTrios/BBA3.jpg","null","",NA,NA,NA,NA,""
"image-keyboard-response",86,86085,"0.0-4.24-2.24","9z1r0tjpthx1upo",664,"167.csv","","null","resources/images/coin2.png","null","",NA,NA,NA,NA,""
"image-keyboard-response",87,86431,"0.0-4.25-0.25","9z1r0tjpthx1upo",664,"167.csv","","344.10000014305115","resources/trios/L1T2A3.jpg","39","restless",0.4,0.2,0.7,0.456886009698691,"true"
"image-keyboard-response",88,86849,"0.0-4.25-1.25","9z1r0tjpthx1upo",664,"167.csv","","null","resources/maskTrios/BBA3.jpg","null","",NA,NA,NA,NA,""
"image-keyboard-response",89,88057,"0.0-4.25-2.25","9z1r0tjpthx1upo",664,"167.csv","","null","resources/images/coin2.png","null","",NA,NA,NA,NA,""
"image-keyboard-response",90,88297,"0.0-4.26-0.26","9z1r0tjpthx1upo",664,"167.csv","","238.70000004768372","resources/trios/L1T2A3.jpg","39","restless",0.4,0.2,0.7,0.485003419513632,"true"
"image-keyboard-response",91,88709,"0.0-4.26-1.26","9z1r0tjpthx1upo",664,"167.csv","","null","resources/maskTrios/BBA3.jpg","null","",NA,NA,NA,NA,""
"image-keyboard-response",92,89921,"0.0-4.26-2.26","9z1r0tjpthx1upo",664,"167.csv","","null","resources/images/coin2.png","null","",NA,NA,NA,NA,""
"image-keyboard-response",93,90178,"0.0-4.27-0.27","9z1r0tjpthx1upo",664,"167.csv","","255.40000009536743","resources/trios/L1T2A3.jpg","39","restless",0.4,0.2,0.7,0.598062766220685,"true"
"image-keyboard-response",94,90588,"0.0-4.27-1.27","9z1r0tjpthx1upo",664,"167.csv","","null","resources/maskTrios/BBA3.jpg","null","",NA,NA,NA,NA,""
"image-keyboard-response",95,91819,"0.0-4.27-2.27","9z1r0tjpthx1upo",664,"167.csv","","null","resources/images/coin2.png","null","",NA,NA,NA,NA,""
"image-keyboard-response",96,92049,"0.0-4.28-0.28","9z1r0tjpthx1upo",664,"167.csv","","229","resources/trios/L1T2A3.jpg","39","restless",0.5,0.2,0.7,0.773843025243764,"false"
"image-keyboard-response",97,92454,"0.0-4.28-1.28","9z1r0tjpthx1upo",664,"167.csv","","null","resources/maskTrios/BBA3.jpg","null","",NA,NA,NA,NA,""
"image-keyboard-response",98,93669,"0.0-4.28-2.28","9z1r0tjpthx1upo",664,"167.csv","","null","resources/images/fishbone.png","null","",NA,NA,NA,NA,""
"image-keyboard-response",99,94550,"0.0-4.29-0.29","9z1r0tjpthx1upo",664,"167.csv","","878.9000000953674","resources/trios/L1T2A3.jpg","39","restless",0.4,0.2,0.7,0.00131672737091804,"true"
"image-keyboard-response",100,94965,"0.0-4.29-1.29","9z1r0tjpthx1upo",664,"167.csv","","null","resources/maskTrios/BBA3.jpg","null","",NA,NA,NA,NA,""
"image-keyboard-response",101,96175,"0.0-4.29-2.29","9z1r0tjpthx1upo",664,"167.csv","","null","resources/images/coin2.png","null","",NA,NA,NA,NA,""
"image-keyboard-response",102,96562,"0.0-4.30-0.30","9z1r0tjpthx1upo",664,"167.csv","","385.2000000476837","resources/trios/L1T2A3.jpg","39","restless",0.4,0.2,0.8,0.0800205834302028,"true"
"image-keyboard-response",103,96966,"0.0-4.30-1.30","9z1r0tjpthx1upo",664,"167.csv","","null","resources/maskTrios/BBA3.jpg","null","",NA,NA,NA,NA,""
"image-keyboard-response",104,98197,"0.0-4.30-2.30","9z1r0tjpthx1upo",664,"167.csv","","null","resources/images/coin2.png","null","",NA,NA,NA,NA,""
"image-keyboard-response",105,98566,"0.0-4.31-0.31","9z1r0tjpthx1upo",664,"167.csv","","368.2999999523163","resources/trios/L1T2A3.jpg","39","restless",0.4,0.2,0.8,0.0131831766712447,"true"
"image-keyboard-response",106,98983,"0.0-4.31-1.31","9z1r0tjpthx1upo",664,"167.csv","","null","resources/maskTrios/BBA3.jpg","null","",NA,NA,NA,NA,""
"image-keyboard-response",107,100200,"0.0-4.31-2.31","9z1r0tjpthx1upo",664,"167.csv","","null","resources/images/coin2.png","null","",NA,NA,NA,NA,""
"image-keyboard-response",108,100672,"0.0-4.32-0.32","9z1r0tjpthx1upo",664,"167.csv","","469.40000009536743","resources/trios/L1T2A3.jpg","39","restless",0.3,0.2,0.8,0.208596641649554,"true"
"image-keyboard-response",109,101079,"0.0-4.32-1.32","9z1r0tjpthx1upo",664,"167.csv","","null","resources/maskTrios/BBA3.jpg","null","",NA,NA,NA,NA,""
"image-keyboard-response",110,102286,"0.0-4.32-2.32","9z1r0tjpthx1upo",664,"167.csv","","null","resources/images/coin2.png","null","",NA,NA,NA,NA,""
"image-keyboard-response",111,102807,"0.0-4.33-0.33","9z1r0tjpthx1upo",664,"167.csv","","519.5","resources/trios/L1T2A3.jpg","39","restless",0.3,0.2,0.7,0.11342094877951,"true"
"image-keyboard-response",112,103210,"0.0-4.33-1.33","9z1r0tjpthx1upo",664,"167.csv","","null","resources/maskTrios/BBA3.jpg","null","",NA,NA,NA,NA,""
"image-keyboard-response",113,104444,"0.0-4.33-2.33","9z1r0tjpthx1upo",664,"167.csv","","null","resources/images/coin2.png","null","",NA,NA,NA,NA,""
"image-keyboard-response",114,104804,"0.0-4.34-0.34","9z1r0tjpthx1upo",664,"167.csv","","358.2000000476837","resources/trios/L1T2A3.jpg","39","restless",0.2,0.2,0.7,0.208934422537462,"true"
"image-keyboard-response",115,105213,"0.0-4.34-1.34","9z1r0tjpthx1upo",664,"167.csv","","null","resources/maskTrios/BBA3.jpg","null","",NA,NA,NA,NA,""
"image-keyboard-response",116,106425,"0.0-4.34-2.34","9z1r0tjpthx1upo",664,"167.csv","","null","resources/images/coin2.png","null","",NA,NA,NA,NA,""
"image-keyboard-response",117,106849,"0.0-4.35-0.35","9z1r0tjpthx1upo",664,"167.csv","","422.5","resources/trios/L1T2A3.jpg","39","restless",0.2,0.2,0.7,0.163205213600502,"true"
"image-keyboard-response",118,107254,"0.0-4.35-1.35","9z1r0tjpthx1upo",664,"167.csv","","null","resources/maskTrios/BBA3.jpg","null","",NA,NA,NA,NA,""
"image-keyboard-response",119,108463,"0.0-4.35-2.35","9z1r0tjpthx1upo",664,"167.csv","","null","resources/images/coin2.png","null","",NA,NA,NA,NA,""
"image-keyboard-response",120,108964,"0.0-4.36-0.36","9z1r0tjpthx1upo",664,"167.csv","","499.2000000476837","resources/trios/L1T2A3.jpg","39","restless",0.2,0.2,0.7,0.128905638226791,"true"
"image-keyboard-response",121,109368,"0.0-4.36-1.36","9z1r0tjpthx1upo",664,"167.csv","","null","resources/maskTrios/BBA3.jpg","null","",NA,NA,NA,NA,""
"image-keyboard-response",122,110600,"0.0-4.36-2.36","9z1r0tjpthx1upo",664,"167.csv","","null","resources/images/coin2.png","null","",NA,NA,NA,NA,""
"image-keyboard-response",123,111192,"0.0-4.37-0.37","9z1r0tjpthx1upo",664,"167.csv","","590.9000000953674","resources/trios/L1T2A3.jpg","39","restless",0.2,0.2,0.7,0.315703276865396,"true"
"image-keyboard-response",124,111606,"0.0-4.37-1.37","9z1r0tjpthx1upo",664,"167.csv","","null","resources/maskTrios/BBA3.jpg","null","",NA,NA,NA,NA,""
"image-keyboard-response",125,112824,"0.0-4.37-2.37","9z1r0tjpthx1upo",664,"167.csv","","null","resources/images/coin2.png","null","",NA,NA,NA,NA,""
"image-keyboard-response",126,113359,"0.0-4.38-0.38","9z1r0tjpthx1upo",664,"167.csv","","533","resources/trios/L1T2A3.jpg","39","restless",0.2,0.2,0.7,0.720392791162753,"false"
"image-keyboard-response",127,113777,"0.0-4.38-1.38","9z1r0tjpthx1upo",664,"167.csv","","null","resources/maskTrios/BBA3.jpg","null","",NA,NA,NA,NA,""
"image-keyboard-response",128,114986,"0.0-4.38-2.38","9z1r0tjpthx1upo",664,"167.csv","","null","resources/images/fishbone.png","null","",NA,NA,NA,NA,""
"image-keyboard-response",129,115458,"0.0-4.39-0.39","9z1r0tjpthx1upo",664,"167.csv","","470.2000000476837","resources/trios/L1T2A3.jpg","38","restless",0.3,0.2,0.7,0.388841162382036,"false"
"image-keyboard-response",130,115872,"0.0-4.39-1.39","9z1r0tjpthx1upo",664,"167.csv","","null","resources/maskTrios/BT2B.jpg","null","",NA,NA,NA,NA,""
"image-keyboard-response",131,117101,"0.0-4.39-2.39","9z1r0tjpthx1upo",664,"167.csv","","null","resources/images/fishbone.png","null","",NA,NA,NA,NA,""
"image-keyboard-response",132,117399,"0.0-4.40-0.40","9z1r0tjpthx1upo",664,"167.csv","","295.7999999523163","resources/trios/L1T2A3.jpg","37","restless",0.3,0.2,0.7,0.45166383887899,"false"
"image-keyboard-response",133,117810,"0.0-4.40-1.40","9z1r0tjpthx1upo",664,"167.csv","","null","resources/maskTrios/L1BB.jpg","null","",NA,NA,NA,NA,""
"image-keyboard-response",134,119019,"0.0-4.40-2.40","9z1r0tjpthx1upo",664,"167.csv","","null","resources/images/fishbone.png","null","",NA,NA,NA,NA,""
"image-keyboard-response",135,119345,"0.0-4.41-0.41","9z1r0tjpthx1upo",664,"167.csv","","337.39999985694885","resources/trios/L1T2A3.jpg","39","restless",0.3,0.1,0.7,0.724163885302481,"false"
"image-keyboard-response",136,119752,"0.0-4.41-1.41","9z1r0tjpthx1upo",664,"167.csv","","null","resources/maskTrios/BBA3.jpg","null","",NA,NA,NA,NA,""
"image-keyboard-response",137,120959,"0.0-4.41-2.41","9z1r0tjpthx1upo",664,"167.csv","","null","resources/images/fishbone.png","null","",NA,NA,NA,NA,""
"image-keyboard-response",138,121371,"0.0-4.42-0.42","9z1r0tjpthx1upo",664,"167.csv","","410.89999985694885","resources/trios/L1T2A3.jpg","39","restless",0.3,0.1,0.8,0.269683492140213,"true"
"image-keyboard-response",139,121780,"0.0-4.42-1.42","9z1r0tjpthx1upo",664,"167.csv","","null","resources/maskTrios/BBA3.jpg","null","",NA,NA,NA,NA,""
"image-keyboard-response",140,123006,"0.0-4.42-2.42","9z1r0tjpthx1upo",664,"167.csv","","null","resources/images/coin2.png","null","",NA,NA,NA,NA,""
"image-keyboard-response",141,123332,"0.0-4.43-0.43","9z1r0tjpthx1upo",664,"167.csv","","324.30000019073486","resources/trios/L1T2A3.jpg","38","restless",0.4,0.1,0.8,0.413943044437093,"false"
"image-keyboard-response",142,123740,"0.0-4.43-1.43","9z1r0tjpthx1upo",664,"167.csv","","null","resources/maskTrios/BT2B.jpg","null","",NA,NA,NA,NA,""
"image-keyboard-response",143,124945,"0.0-4.43-2.43","9z1r0tjpthx1upo",664,"167.csv","","null","resources/images/fishbone.png","null","",NA,NA,NA,NA,""
"image-keyboard-response",144,125207,"0.0-4.44-0.44","9z1r0tjpthx1upo",664,"167.csv","","259","resources/trios/L1T2A3.jpg","39","restless",0.4,0.1,0.8,0.474529126802651,"true"
"image-keyboard-response",145,125622,"0.0-4.44-1.44","9z1r0tjpthx1upo",664,"167.csv","","null","resources/maskTrios/BBA3.jpg","null","",NA,NA,NA,NA,""
"image-keyboard-response",146,126839,"0.0-4.44-2.44","9z1r0tjpthx1upo",664,"167.csv","","null","resources/images/coin2.png","null","",NA,NA,NA,NA,""
"image-keyboard-response",147,127239,"0.0-4.45-0.45","9z1r0tjpthx1upo",664,"167.csv","","398.2000000476837","resources/trios/L1T2A3.jpg","39","restless",0.4,0.1,0.7,0.625354178113572,"true"
"image-keyboard-response",148,127647,"0.0-4.45-1.45","9z1r0tjpthx1upo",664,"167.csv","","null","resources/maskTrios/BBA3.jpg","null","",NA,NA,NA,NA,""
"image-keyboard-response",149,128873,"0.0-4.45-2.45","9z1r0tjpthx1upo",664,"167.csv","","null","resources/images/coin2.png","null","",NA,NA,NA,NA,""
"image-keyboard-response",150,129287,"0.0-4.46-0.46","9z1r0tjpthx1upo",664,"167.csv","","412.7999999523163","resources/trios/L1T2A3.jpg","39","restless",0.4,0.1,0.7,0.584292394127185,"true"
"image-keyboard-response",151,129696,"0.0-4.46-1.46","9z1r0tjpthx1upo",664,"167.csv","","null","resources/maskTrios/BBA3.jpg","null","",NA,NA,NA,NA,""
"image-keyboard-response",152,130905,"0.0-4.46-2.46","9z1r0tjpthx1upo",664,"167.csv","","null","resources/images/coin2.png","null","",NA,NA,NA,NA,""
"image-keyboard-response",153,131355,"0.0-4.47-0.47","9z1r0tjpthx1upo",664,"167.csv","","449.10000014305115","resources/trios/L1T2A3.jpg","39","restless",0.4,0.1,0.7,0.588919182464615,"true"
"image-keyboard-response",154,131770,"0.0-4.47-1.47","9z1r0tjpthx1upo",664,"167.csv","","null","resources/maskTrios/BBA3.jpg","null","",NA,NA,NA,NA,""
"image-keyboard-response",155,132983,"0.0-4.47-2.47","9z1r0tjpthx1upo",664,"167.csv","","null","resources/images/coin2.png","null","",NA,NA,NA,NA,""
"image-keyboard-response",156,133459,"0.0-4.48-0.48","9z1r0tjpthx1upo",664,"167.csv","","474.2000000476837","resources/trios/L1T2A3.jpg","39","restless",0.4,0.1,0.7,0.773757599674247,"false"
"image-keyboard-response",157,133876,"0.0-4.48-1.48","9z1r0tjpthx1upo",664,"167.csv","","null","resources/maskTrios/BBA3.jpg","null","",NA,NA,NA,NA,""
"image-keyboard-response",158,135090,"0.0-4.48-2.48","9z1r0tjpthx1upo",664,"167.csv","","null","resources/images/fishbone.png","null","",NA,NA,NA,NA,""
"image-keyboard-response",159,135362,"0.0-4.49-0.49","9z1r0tjpthx1upo",664,"167.csv","","270","resources/trios/L1T2A3.jpg","38","restless",0.4,0.1,0.7,0.233233867602232,"false"
"image-keyboard-response",160,135766,"0.0-4.49-1.49","9z1r0tjpthx1upo",664,"167.csv","","null","resources/maskTrios/BT2B.jpg","null","",NA,NA,NA,NA,""
"image-keyboard-response",161,136979,"0.0-4.49-2.49","9z1r0tjpthx1upo",664,"167.csv","","null","resources/images/fishbone.png","null","",NA,NA,NA,NA,""
"image-keyboard-response",162,137390,"0.0-4.50-0.50","9z1r0tjpthx1upo",664,"167.csv","","408.10000014305115","resources/trios/L1T2A3.jpg","38","restless",0.4,0.1,0.7,0.662052212184319,"false"
"image-keyboard-response",163,137804,"0.0-4.50-1.50","9z1r0tjpthx1upo",664,"167.csv","","null","resources/maskTrios/BT2B.jpg","null","",NA,NA,NA,NA,""
"image-keyboard-response",164,139011,"0.0-4.50-2.50","9z1r0tjpthx1upo",664,"167.csv","","null","resources/images/fishbone.png","null","",NA,NA,NA,NA,""
"image-keyboard-response",165,139192,"0.0-4.51-0.51","9z1r0tjpthx1upo",664,"167.csv","","178.20000004768372","resources/trios/L1T2A3.jpg","37","restless",0.4,0.1,0.7,0.560797522762706,"false"
"image-keyboard-response",166,139608,"0.0-4.51-1.51","9z1r0tjpthx1upo",664,"167.csv","","null","resources/maskTrios/L1BB.jpg","null","",NA,NA,NA,NA,""
"image-keyboard-response",167,140813,"0.0-4.51-2.51","9z1r0tjpthx1upo",664,"167.csv","","null","resources/images/fishbone.png","null","",NA,NA,NA,NA,""
"image-keyboard-response",168,141158,"0.0-4.52-0.52","9z1r0tjpthx1upo",664,"167.csv","","343","resources/trios/L1T2A3.jpg","37","restless",0.4,0.1,0.8,0.995888536769729,"false"
"image-keyboard-response",169,141569,"0.0-4.52-1.52","9z1r0tjpthx1upo",664,"167.csv","","null","resources/maskTrios/L1BB.jpg","null","",NA,NA,NA,NA,""
"image-keyboard-response",170,142786,"0.0-4.52-2.52","9z1r0tjpthx1upo",664,"167.csv","","null","resources/images/fishbone.png","null","",NA,NA,NA,NA,""
"image-keyboard-response",171,143099,"0.0-4.53-0.53","9z1r0tjpthx1upo",664,"167.csv","","310.90000009536743","resources/trios/L1T2A3.jpg","39","restless",0.4,0.1,0.8,0.767052029772359,"true"
"image-keyboard-response",172,143506,"0.0-4.53-1.53","9z1r0tjpthx1upo",664,"167.csv","","null","resources/maskTrios/BBA3.jpg","null","",NA,NA,NA,NA,""
"image-keyboard-response",173,144715,"0.0-4.53-2.53","9z1r0tjpthx1upo",664,"167.csv","","null","resources/images/coin2.png","null","",NA,NA,NA,NA,""
"image-keyboard-response",174,145067,"0.0-4.54-0.54","9z1r0tjpthx1upo",664,"167.csv","","351.2999999523163","resources/trios/L1T2A3.jpg","39","restless",0.4,0.1,0.8,0.832181553726429,"false"
"image-keyboard-response",175,145475,"0.0-4.54-1.54","9z1r0tjpthx1upo",664,"167.csv","","null","resources/maskTrios/BBA3.jpg","null","",NA,NA,NA,NA,""
"image-keyboard-response",176,146705,"0.0-4.54-2.54","9z1r0tjpthx1upo",664,"167.csv","","null","resources/images/fishbone.png","null","",NA,NA,NA,NA,""
"image-keyboard-response",177,146967,"0.0-4.55-0.55","9z1r0tjpthx1upo",664,"167.csv","","260","resources/trios/L1T2A3.jpg","38","restless",0.4,0.1,0.8,0.615943124625373,"false"
"image-keyboard-response",178,147373,"0.0-4.55-1.55","9z1r0tjpthx1upo",664,"167.csv","","null","resources/maskTrios/BT2B.jpg","null","",NA,NA,NA,NA,""
"image-keyboard-response",179,148583,"0.0-4.55-2.55","9z1r0tjpthx1upo",664,"167.csv","","null","resources/images/fishbone.png","null","",NA,NA,NA,NA,""
"image-keyboard-response",180,148732,"0.0-4.56-0.56","9z1r0tjpthx1upo",664,"167.csv","","147.5","resources/trios/L1T2A3.jpg","39","restless",0.4,0.1,0.8,0.720630254650956,"true"
"image-keyboard-response",181,149141,"0.0-4.56-1.56","9z1r0tjpthx1upo",664,"167.csv","","null","resources/maskTrios/BBA3.jpg","null","",NA,NA,NA,NA,""
"image-keyboard-response",182,150351,"0.0-4.56-2.56","9z1r0tjpthx1upo",664,"167.csv","","null","resources/images/coin2.png","null","",NA,NA,NA,NA,""
"image-keyboard-response",183,150637,"0.0-4.57-0.57","9z1r0tjpthx1upo",664,"167.csv","","283.7999999523163","resources/trios/L1T2A3.jpg","39","restless",0.4,0.2,0.8,0.991794470812574,"false"
"image-keyboard-response",184,151044,"0.0-4.57-1.57","9z1r0tjpthx1upo",664,"167.csv","","null","resources/maskTrios/BBA3.jpg","null","",NA,NA,NA,NA,""
"image-keyboard-response",185,152288,"0.0-4.57-2.57","9z1r0tjpthx1upo",664,"167.csv","","null","resources/images/fishbone.png","null","",NA,NA,NA,NA,""
"image-keyboard-response",186,152834,"0.0-4.58-0.58","9z1r0tjpthx1upo",664,"167.csv","","544.7999999523163","resources/trios/L1T2A3.jpg","39","restless",0.4,0.2,0.8,0.8752344461044,"false"
"image-keyboard-response",187,153241,"0.0-4.58-1.58","9z1r0tjpthx1upo",664,"167.csv","","null","resources/maskTrios/BBA3.jpg","null","",NA,NA,NA,NA,""
"image-keyboard-response",188,154446,"0.0-4.58-2.58","9z1r0tjpthx1upo",664,"167.csv","","null","resources/images/fishbone.png","null","",NA,NA,NA,NA,""
"image-keyboard-response",189,154943,"0.0-4.59-0.59","9z1r0tjpthx1upo",664,"167.csv","","495.5","resources/trios/L1T2A3.jpg","38","restless",0.4,0.2,0.8,0.680581821098937,"false"
"image-keyboard-response",190,155348,"0.0-4.59-1.59","9z1r0tjpthx1upo",664,"167.csv","","null","resources/maskTrios/BT2B.jpg","null","",NA,NA,NA,NA,""
"image-keyboard-response",191,156554,"0.0-4.59-2.59","9z1r0tjpthx1upo",664,"167.csv","","null","resources/images/fishbone.png","null","",NA,NA,NA,NA,""
"image-keyboard-response",192,157057,"0.0-4.60-0.60","9z1r0tjpthx1upo",664,"167.csv","","500.7999999523163","resources/trios/L1T2A3.jpg","39","restless",0.3,0.2,0.8,0.110011572002061,"true"
"image-keyboard-response",193,157462,"0.0-4.60-1.60","9z1r0tjpthx1upo",664,"167.csv","","null","resources/maskTrios/BBA3.jpg","null","",NA,NA,NA,NA,""
"image-keyboard-response",194,158707,"0.0-4.60-2.60","9z1r0tjpthx1upo",664,"167.csv","","null","resources/images/coin2.png","null","",NA,NA,NA,NA,""
"image-keyboard-response",195,159241,"0.0-4.61-0.61","9z1r0tjpthx1upo",664,"167.csv","","532.5999999046326","resources/trios/L1T2A3.jpg","39","restless",0.3,0.2,0.8,0.660856371622723,"true"
"image-keyboard-response",196,159652,"0.0-4.61-1.61","9z1r0tjpthx1upo",664,"167.csv","","null","resources/maskTrios/BBA3.jpg","null","",NA,NA,NA,NA,""
"image-keyboard-response",197,160868,"0.0-4.61-2.61","9z1r0tjpthx1upo",664,"167.csv","","null","resources/images/coin2.png","null","",NA,NA,NA,NA,""
"image-keyboard-response",198,161477,"0.0-4.62-0.62","9z1r0tjpthx1upo",664,"167.csv","","606.5999999046326","resources/trios/L1T2A3.jpg","39","restless",0.3,0.2,0.8,0.203741064323588,"true"
"image-keyboard-response",199,161891,"0.0-4.62-1.62","9z1r0tjpthx1upo",664,"167.csv","","null","resources/maskTrios/BBA3.jpg","null","",NA,NA,NA,NA,""
"image-keyboard-response",200,163105,"0.0-4.62-2.62","9z1r0tjpthx1upo",664,"167.csv","","null","resources/images/coin2.png","null","",NA,NA,NA,NA,""
"image-keyboard-response",201,163638,"0.0-4.63-0.63","9z1r0tjpthx1upo",664,"167.csv","","531.2999999523163","resources/trios/L1T2A3.jpg","39","restless",0.3,0.2,0.8,0.435809251393085,"true"
"image-keyboard-response",202,164045,"0.0-4.63-1.63","9z1r0tjpthx1upo",664,"167.csv","","null","resources/maskTrios/BBA3.jpg","null","",NA,NA,NA,NA,""
"image-keyboard-response",203,165268,"0.0-4.63-2.63","9z1r0tjpthx1upo",664,"167.csv","","null","resources/images/coin2.png","null","",NA,NA,NA,NA,""
"image-keyboard-response",204,165631,"0.0-4.64-0.64","9z1r0tjpthx1upo",664,"167.csv","","361.59999990463257","resources/trios/L1T2A3.jpg","39","restless",0.3,0.2,0.9,0.40763897087378,"true"
"image-keyboard-response",205,166038,"0.0-4.64-1.64","9z1r0tjpthx1upo",664,"167.csv","","null","resources/maskTrios/BBA3.jpg","null","",NA,NA,NA,NA,""
"image-keyboard-response",206,167246,"0.0-4.64-2.64","9z1r0tjpthx1upo",664,"167.csv","","null","resources/images/coin2.png","null","",NA,NA,NA,NA,""
"image-keyboard-response",207,167713,"0.0-4.65-0.65","9z1r0tjpthx1upo",664,"167.csv","","464.5","resources/trios/L1T2A3.jpg","39","restless",0.3,0.2,0.9,0.0797368129053297,"true"
"image-keyboard-response",208,168119,"0.0-4.65-1.65","9z1r0tjpthx1upo",664,"167.csv","","null","resources/maskTrios/BBA3.jpg","null","",NA,NA,NA,NA,""
"image-keyboard-response",209,169332,"0.0-4.65-2.65","9z1r0tjpthx1upo",664,"167.csv","","null","resources/images/coin2.png","null","",NA,NA,NA,NA,""
"image-keyboard-response",210,169691,"0.0-4.66-0.66","9z1r0tjpthx1upo",664,"167.csv","","357.7000000476837","resources/trios/L1T2A3.jpg","39","restless",0.3,0.2,0.9,0.621858307695744,"true"
"image-keyboard-response",211,170094,"0.0-4.66-1.66","9z1r0tjpthx1upo",664,"167.csv","","null","resources/maskTrios/BBA3.jpg","null","",NA,NA,NA,NA,""
"image-keyboard-response",212,171332,"0.0-4.66-2.66","9z1r0tjpthx1upo",664,"167.csv","","null","resources/images/coin2.png","null","",NA,NA,NA,NA,""
"image-keyboard-response",213,171631,"0.0-4.67-0.67","9z1r0tjpthx1upo",664,"167.csv","","296.90000009536743","resources/trios/L1T2A3.jpg","39","restless",0.3,0.3,0.9,0.144339377251648,"true"
"image-keyboard-response",214,172034,"0.0-4.67-1.67","9z1r0tjpthx1upo",664,"167.csv","","null","resources/maskTrios/BBA3.jpg","null","",NA,NA,NA,NA,""
"image-keyboard-response",215,173239,"0.0-4.67-2.67","9z1r0tjpthx1upo",664,"167.csv","","null","resources/images/coin2.png","null","",NA,NA,NA,NA,""
"image-keyboard-response",216,173750,"0.0-4.68-0.68","9z1r0tjpthx1upo",664,"167.csv","","509.30000019073486","resources/trios/L1T2A3.jpg","39","restless",0.3,0.3,0.9,0.0474203175014292,"true"
"image-keyboard-response",217,174167,"0.0-4.68-1.68","9z1r0tjpthx1upo",664,"167.csv","","null","resources/maskTrios/BBA3.jpg","null","",NA,NA,NA,NA,""
"image-keyboard-response",218,175381,"0.0-4.68-2.68","9z1r0tjpthx1upo",664,"167.csv","","null","resources/images/coin2.png","null","",NA,NA,NA,NA,""
"image-keyboard-response",219,175687,"0.0-4.69-0.69","9z1r0tjpthx1upo",664,"167.csv","","304","resources/trios/L1T2A3.jpg","39","restless",0.3,0.3,0.9,0.0153971444355283,"true"
"image-keyboard-response",220,176092,"0.0-4.69-1.69","9z1r0tjpthx1upo",664,"167.csv","","null","resources/maskTrios/BBA3.jpg","null","",NA,NA,NA,NA,""
"image-keyboard-response",221,177332,"0.0-4.69-2.69","9z1r0tjpthx1upo",664,"167.csv","","null","resources/images/coin2.png","null","",NA,NA,NA,NA,""
"image-keyboard-response",222,177620,"0.0-4.70-0.70","9z1r0tjpthx1upo",664,"167.csv","","285","resources/trios/L1T2A3.jpg","39","restless",0.3,0.3,0.9,0.437154982235533,"true"
"image-keyboard-response",223,178028,"0.0-4.70-1.70","9z1r0tjpthx1upo",664,"167.csv","","null","resources/maskTrios/BBA3.jpg","null","",NA,NA,NA,NA,""
"image-keyboard-response",224,179236,"0.0-4.70-2.70","9z1r0tjpthx1upo",664,"167.csv","","null","resources/images/coin2.png","null","",NA,NA,NA,NA,""
"image-keyboard-response",225,179605,"0.0-4.71-0.71","9z1r0tjpthx1upo",664,"167.csv","","355.40000009536743","resources/trios/L1T2A3.jpg","39","restless",0.3,0.3,0.9,0.595425057821702,"true"
"image-keyboard-response",226,180013,"0.0-4.71-1.71","9z1r0tjpthx1upo",664,"167.csv","","null","resources/maskTrios/BBA3.jpg","null","",NA,NA,NA,NA,""
"image-keyboard-response",227,181216,"0.0-4.71-2.71","9z1r0tjpthx1upo",664,"167.csv","","null","resources/images/coin2.png","null","",NA,NA,NA,NA,""
"image-keyboard-response",228,181500,"0.0-4.72-0.72","9z1r0tjpthx1upo",664,"167.csv","","282.59999990463257","resources/trios/L1T2A3.jpg","39","restless",0.4,0.3,0.9,0.967947213112637,"false"
"image-keyboard-response",229,181908,"0.0-4.72-1.72","9z1r0tjpthx1upo",664,"167.csv","","null","resources/maskTrios/BBA3.jpg","null","",NA,NA,NA,NA,""
"image-keyboard-response",230,183139,"0.0-4.72-2.72","9z1r0tjpthx1upo",664,"167.csv","","null","resources/images/fishbone.png","null","",NA,NA,NA,NA,""
"image-keyboard-response",231,183448,"0.0-4.73-0.73","9z1r0tjpthx1upo",664,"167.csv","","307","resources/trios/L1T2A3.jpg","38","restless",0.4,0.3,0.9,0.719169043252606,"false"
"image-keyboard-response",232,183852,"0.0-4.73-1.73","9z1r0tjpthx1upo",664,"167.csv","","null","resources/maskTrios/BT2B.jpg","null","",NA,NA,NA,NA,""
"image-keyboard-response",233,185060,"0.0-4.73-2.73","9z1r0tjpthx1upo",664,"167.csv","","null","resources/images/fishbone.png","null","",NA,NA,NA,NA,""
"image-keyboard-response",234,186264,"0.0-4.74-0.74","9z1r0tjpthx1upo",664,"167.csv","","1202.2999999523163","resources/trios/L1T2A3.jpg","39","restless",0.4,0.3,0.8,0.755441150032224,"true"
"image-keyboard-response",235,186679,"0.0-4.74-1.74","9z1r0tjpthx1upo",664,"167.csv","","null","resources/maskTrios/BBA3.jpg","null","",NA,NA,NA,NA,""
"image-keyboard-response",236,187893,"0.0-4.74-2.74","9z1r0tjpthx1upo",664,"167.csv","","null","resources/images/coin2.png","null","",NA,NA,NA,NA,""
"image-keyboard-response",237,188440,"0.0-4.75-0.75","9z1r0tjpthx1upo",664,"167.csv","","544.3000001907349","resources/trios/L1T2A3.jpg","39","restless",0.4,0.3,0.7,0.208338492487221,"true"
"image-keyboard-response",238,188844,"0.0-4.75-1.75","9z1r0tjpthx1upo",664,"167.csv","","null","resources/maskTrios/BBA3.jpg","null","",NA,NA,NA,NA,""
"image-keyboard-response",239,190062,"0.0-4.75-2.75","9z1r0tjpthx1upo",664,"167.csv","","null","resources/images/coin2.png","null","",NA,NA,NA,NA,""
"image-keyboard-response",240,190683,"0.0-4.76-0.76","9z1r0tjpthx1upo",664,"167.csv","","619.2999999523163","resources/trios/L1T2A3.jpg","39","restless",0.4,0.3,0.7,0.398394822857058,"true"
"image-keyboard-response",241,191094,"0.0-4.76-1.76","9z1r0tjpthx1upo",664,"167.csv","","null","resources/maskTrios/BBA3.jpg","null","",NA,NA,NA,NA,""
"image-keyboard-response",242,192302,"0.0-4.76-2.76","9z1r0tjpthx1upo",664,"167.csv","","null","resources/images/coin2.png","null","",NA,NA,NA,NA,""
"image-keyboard-response",243,192696,"0.0-4.77-0.77","9z1r0tjpthx1upo",664,"167.csv","","392.5","resources/trios/L1T2A3.jpg","39","restless",0.4,0.3,0.7,0.107730972306767,"true"
"image-keyboard-response",244,193104,"0.0-4.77-1.77","9z1r0tjpthx1upo",664,"167.csv","","null","resources/maskTrios/BBA3.jpg","null","",NA,NA,NA,NA,""
"image-keyboard-response",245,194320,"0.0-4.77-2.77","9z1r0tjpthx1upo",664,"167.csv","","null","resources/images/coin2.png","null","",NA,NA,NA,NA,""
"image-keyboard-response",246,194797,"0.0-4.78-0.78","9z1r0tjpthx1upo",664,"167.csv","","475","resources/trios/L1T2A3.jpg","39","restless",0.4,0.3,0.7,0.991621995284122,"false"
"image-keyboard-response",247,195207,"0.0-4.78-1.78","9z1r0tjpthx1upo",664,"167.csv","","null","resources/maskTrios/BBA3.jpg","null","",NA,NA,NA,NA,""
"image-keyboard-response",248,196410,"0.0-4.78-2.78","9z1r0tjpthx1upo",664,"167.csv","","null","resources/images/fishbone.png","null","",NA,NA,NA,NA,""
"image-keyboard-response",249,196719,"0.0-4.79-0.79","9z1r0tjpthx1upo",664,"167.csv","","307.2000000476837","resources/trios/L1T2A3.jpg","38","restless",0.4,0.4,0.7,0.831244857448549,"false"
"image-keyboard-response",250,197129,"0.0-4.79-1.79","9z1r0tjpthx1upo",664,"167.csv","","null","resources/maskTrios/BT2B.jpg","null","",NA,NA,NA,NA,""
"image-keyboard-response",251,198347,"0.0-4.79-2.79","9z1r0tjpthx1upo",664,"167.csv","","null","resources/images/fishbone.png","null","",NA,NA,NA,NA,""
"image-keyboard-response",252,198673,"0.0-4.80-0.80","9z1r0tjpthx1upo",664,"167.csv","","324.40000009536743","resources/trios/L1T2A3.jpg","39","restless",0.4,0.4,0.7,0.959189451090194,"false"
"image-keyboard-response",253,199076,"0.0-4.80-1.80","9z1r0tjpthx1upo",664,"167.csv","","null","resources/maskTrios/BBA3.jpg","null","",NA,NA,NA,NA,""
"image-keyboard-response",254,200284,"0.0-4.80-2.80","9z1r0tjpthx1upo",664,"167.csv","","null","resources/images/fishbone.png","null","",NA,NA,NA,NA,""
"image-keyboard-response",255,200680,"0.0-4.81-0.81","9z1r0tjpthx1upo",664,"167.csv","","393.7999999523163","resources/trios/L1T2A3.jpg","39","restless",0.4,0.4,0.6,0.0303842260673961,"true"
"image-keyboard-response",256,201096,"0.0-4.81-1.81","9z1r0tjpthx1upo",664,"167.csv","","null","resources/maskTrios/BBA3.jpg","null","",NA,NA,NA,NA,""
"image-keyboard-response",257,202302,"0.0-4.81-2.81","9z1r0tjpthx1upo",664,"167.csv","","null","resources/images/coin2.png","null","",NA,NA,NA,NA,""
"image-keyboard-response",258,202808,"0.0-4.82-0.82","9z1r0tjpthx1upo",664,"167.csv","","503.5","resources/trios/L1T2A3.jpg","39","restless",0.4,0.4,0.6,0.745980148375629,"false"
"image-keyboard-response",259,203213,"0.0-4.82-1.82","9z1r0tjpthx1upo",664,"167.csv","","null","resources/maskTrios/BBA3.jpg","null","",NA,NA,NA,NA,""
"image-keyboard-response",260,204422,"0.0-4.82-2.82","9z1r0tjpthx1upo",664,"167.csv","","null","resources/images/fishbone.png","null","",NA,NA,NA,NA,""
"image-keyboard-response",261,206213,"0.0-4.83-0.83","9z1r0tjpthx1upo",664,"167.csv","","1788.1000001430511","resources/trios/L1T2A3.jpg","39","restless",0.4,0.4,0.6,0.836183521078914,"false"
"image-keyboard-response",262,206618,"0.0-4.83-1.83","9z1r0tjpthx1upo",664,"167.csv","","null","resources/maskTrios/BBA3.jpg","null","",NA,NA,NA,NA,""
"image-keyboard-response",263,207833,"0.0-4.83-2.83","9z1r0tjpthx1upo",664,"167.csv","","null","resources/images/fishbone.png","null","",NA,NA,NA,NA,""
"image-keyboard-response",264,1500702,"0.0-4.84-0.84","9z1r0tjpthx1upo",664,"167.csv","","1292868","resources/trios/L1T2A3.jpg","39","restless",0.4,0.4,0.6,0.65259852162428,"false"
"image-keyboard-response",265,1501110,"0.0-4.84-1.84","9z1r0tjpthx1upo",664,"167.csv","","null","resources/maskTrios/BBA3.jpg","null","",NA,NA,NA,NA,""
"image-keyboard-response",266,1502312,"0.0-4.84-2.84","9z1r0tjpthx1upo",664,"167.csv","","null","resources/images/fishbone.png","null","",NA,NA,NA,NA,""
"image-keyboard-response",267,1503507,"0.0-4.85-0.85","9z1r0tjpthx1upo",664,"167.csv","","1193","resources/trios/L1T2A3.jpg","39","restless",0.5,0.4,0.6,0.723421403843757,"false"
"image-keyboard-response",268,1503920,"0.0-4.85-1.85","9z1r0tjpthx1upo",664,"167.csv","","null","resources/maskTrios/BBA3.jpg","null","",NA,NA,NA,NA,""
"image-keyboard-response",269,1505145,"0.0-4.85-2.85","9z1r0tjpthx1upo",664,"167.csv","","null","resources/images/fishbone.png","null","",NA,NA,NA,NA,""
"image-keyboard-response",270,1506466,"0.0-4.86-0.86","9z1r0tjpthx1upo",664,"167.csv","","1319.0999999046326","resources/trios/L1T2A3.jpg","39","restless",0.5,0.4,0.6,0.405450785638714,"true"
"image-keyboard-response",271,1506872,"0.0-4.86-1.86","9z1r0tjpthx1upo",664,"167.csv","","null","resources/maskTrios/BBA3.jpg","null","",NA,NA,NA,NA,""
"image-keyboard-response",272,1508086,"0.0-4.86-2.86","9z1r0tjpthx1upo",664,"167.csv","","null","resources/images/coin2.png","null","",NA,NA,NA,NA,""
"image-keyboard-response",273,1514272,"0.0-4.87-0.87","9z1r0tjpthx1upo",664,"167.csv","","6184.100000143051","resources/trios/L1T2A3.jpg","39","restless",0.5,0.4,0.6,0.0718136625827097,"true"
"image-keyboard-response",274,1514680,"0.0-4.87-1.87","9z1r0tjpthx1upo",664,"167.csv","","null","resources/maskTrios/BBA3.jpg","null","",NA,NA,NA,NA,""
"image-keyboard-response",275,1515894,"0.0-4.87-2.87","9z1r0tjpthx1upo",664,"167.csv","","null","resources/images/coin2.png","null","",NA,NA,NA,NA,""
"image-keyboard-response",276,1516730,"0.0-4.88-0.88","9z1r0tjpthx1upo",664,"167.csv","","834","resources/trios/L1T2A3.jpg","39","restless",0.5,0.4,0.6,0.026897182129366,"true"
"image-keyboard-response",277,1517142,"0.0-4.88-1.88","9z1r0tjpthx1upo",664,"167.csv","","null","resources/maskTrios/BBA3.jpg","null","",NA,NA,NA,NA,""
"image-keyboard-response",278,1518349,"0.0-4.88-2.88","9z1r0tjpthx1upo",664,"167.csv","","null","resources/images/coin2.png","null","",NA,NA,NA,NA,""
"image-keyboard-response",279,1518729,"0.0-4.89-0.89","9z1r0tjpthx1upo",664,"167.csv","","378.10000014305115","resources/trios/L1T2A3.jpg","39","restless",0.5,0.4,0.6,0.892397705252435,"false"
"image-keyboard-response",280,1519143,"0.0-4.89-1.89","9z1r0tjpthx1upo",664,"167.csv","","null","resources/maskTrios/BBA3.jpg","null","",NA,NA,NA,NA,""
"image-keyboard-response",281,1520372,"0.0-4.89-2.89","9z1r0tjpthx1upo",664,"167.csv","","null","resources/images/fishbone.png","null","",NA,NA,NA,NA,""
"image-keyboard-response",282,1525476,"0.0-4.90-0.90","9z1r0tjpthx1upo",664,"167.csv","","5102.200000047684","resources/trios/L1T2A3.jpg","39","restless",0.5,0.4,0.6,0.503641982396391,"true"
"image-keyboard-response",283,1525885,"0.0-4.90-1.90","9z1r0tjpthx1upo",664,"167.csv","","null","resources/maskTrios/BBA3.jpg","null","",NA,NA,NA,NA,""
"image-keyboard-response",284,1527101,"0.0-4.90-2.90","9z1r0tjpthx1upo",664,"167.csv","","null","resources/images/coin2.png","null","",NA,NA,NA,NA,""
"image-keyboard-response",285,1527622,"0.0-4.91-0.91","9z1r0tjpthx1upo",664,"167.csv","","518.9000000953674","resources/trios/L1T2A3.jpg","39","restless",0.5,0.5,0.6,0.231188747349737,"true"
"image-keyboard-response",286,1528037,"0.0-4.91-1.91","9z1r0tjpthx1upo",664,"167.csv","","null","resources/maskTrios/BBA3.jpg","null","",NA,NA,NA,NA,""
"image-keyboard-response",287,1529254,"0.0-4.91-2.91","9z1r0tjpthx1upo",664,"167.csv","","null","resources/images/coin2.png","null","",NA,NA,NA,NA,""
"image-keyboard-response",288,1529770,"0.0-4.92-0.92","9z1r0tjpthx1upo",664,"167.csv","","514.7000000476837","resources/trios/L1T2A3.jpg","39","restless",0.5,0.5,0.6,0.159241728045123,"true"
"image-keyboard-response",289,1530181,"0.0-4.92-1.92","9z1r0tjpthx1upo",664,"167.csv","","null","resources/maskTrios/BBA3.jpg","null","",NA,NA,NA,NA,""
"image-keyboard-response",290,1531425,"0.0-4.92-2.92","9z1r0tjpthx1upo",664,"167.csv","","null","resources/images/coin2.png","null","",NA,NA,NA,NA,""
"image-keyboard-response",291,1531919,"0.0-4.93-0.93","9z1r0tjpthx1upo",664,"167.csv","","492.7999999523163","resources/trios/L1T2A3.jpg","39","restless",0.5,0.5,0.6,0.93235639206419,"false"
"image-keyboard-response",292,1532330,"0.0-4.93-1.93","9z1r0tjpthx1upo",664,"167.csv","","null","resources/maskTrios/BBA3.jpg","null","",NA,NA,NA,NA,""
"image-keyboard-response",293,1533546,"0.0-4.93-2.93","9z1r0tjpthx1upo",664,"167.csv","","null","resources/images/fishbone.png","null","",NA,NA,NA,NA,""
"image-keyboard-response",294,1534059,"0.0-4.94-0.94","9z1r0tjpthx1upo",664,"167.csv","","511.90000009536743","resources/trios/L1T2A3.jpg","39","restless",0.5,0.5,0.6,0.798874988564201,"false"
"image-keyboard-response",295,1534469,"0.0-4.94-1.94","9z1r0tjpthx1upo",664,"167.csv","","null","resources/maskTrios/BBA3.jpg","null","",NA,NA,NA,NA,""
"image-keyboard-response",296,1535674,"0.0-4.94-2.94","9z1r0tjpthx1upo",664,"167.csv","","null","resources/images/fishbone.png","null","",NA,NA,NA,NA,""
"image-keyboard-response",297,1537186,"0.0-4.95-0.95","9z1r0tjpthx1upo",664,"167.csv","","1509.5999999046326","resources/trios/L1T2A3.jpg","38","restless",0.5,0.5,0.6,0.742132232987876,"false"
"image-keyboard-response",298,1537601,"0.0-4.95-1.95","9z1r0tjpthx1upo",664,"167.csv","","null","resources/maskTrios/BT2B.jpg","null","",NA,NA,NA,NA,""
"image-keyboard-response",299,1538803,"0.0-4.95-2.95","9z1r0tjpthx1upo",664,"167.csv","","null","resources/images/fishbone.png","null","",NA,NA,NA,NA,""
"image-keyboard-response",300,1539935,"0.0-4.96-0.96","9z1r0tjpthx1upo",664,"167.csv","","1130.0999999046326","resources/trios/L1T2A3.jpg","39","restless",0.5,0.5,0.6,0.836786065933786,"false"
"image-keyboard-response",301,1540345,"0.0-4.96-1.96","9z1r0tjpthx1upo",664,"167.csv","","null","resources/maskTrios/BBA3.jpg","null","",NA,NA,NA,NA,""
"image-keyboard-response",302,1541560,"0.0-4.96-2.96","9z1r0tjpthx1upo",664,"167.csv","","null","resources/images/fishbone.png","null","",NA,NA,NA,NA,""
"image-keyboard-response",303,1542093,"0.0-4.97-0.97","9z1r0tjpthx1upo",664,"167.csv","","532.1000001430511","resources/trios/L1T2A3.jpg","39","restless",0.5,0.5,0.6,0.399272549034208,"true"
"image-keyboard-response",304,1542510,"0.0-4.97-1.97","9z1r0tjpthx1upo",664,"167.csv","","null","resources/maskTrios/BBA3.jpg","null","",NA,NA,NA,NA,""
"image-keyboard-response",305,1543722,"0.0-4.97-2.97","9z1r0tjpthx1upo",664,"167.csv","","null","resources/images/coin2.png","null","",NA,NA,NA,NA,""
"image-keyboard-response",306,1544190,"0.0-4.98-0.98","9z1r0tjpthx1upo",664,"167.csv","","465.80000019073486","resources/trios/L1T2A3.jpg","39","restless",0.5,0.4,0.6,0.168280099351778,"true"
"image-keyboard-response",307,1544608,"0.0-4.98-1.98","9z1r0tjpthx1upo",664,"167.csv","","null","resources/maskTrios/BBA3.jpg","null","",NA,NA,NA,NA,""
"image-keyboard-response",308,1545817,"0.0-4.98-2.98","9z1r0tjpthx1upo",664,"167.csv","","null","resources/images/coin2.png","null","",NA,NA,NA,NA,""
"image-keyboard-response",309,1546233,"0.0-4.99-0.99","9z1r0tjpthx1upo",664,"167.csv","","413.5","resources/trios/L1T2A3.jpg","39","restless",0.5,0.4,0.6,0.531871683634719,"true"
"image-keyboard-response",310,1546641,"0.0-4.99-1.99","9z1r0tjpthx1upo",664,"167.csv","","null","resources/maskTrios/BBA3.jpg","null","",NA,NA,NA,NA,""
"image-keyboard-response",311,1547867,"0.0-4.99-2.99","9z1r0tjpthx1upo",664,"167.csv","","null","resources/images/coin2.png","null","",NA,NA,NA,NA,""
"image-keyboard-response",312,1548256,"0.0-4.100-0.100","9z1r0tjpthx1upo",664,"167.csv","","387.59999990463257","resources/trios/L1T2A3.jpg","39","restless",0.5,0.4,0.6,0.14934788201314,"true"
"image-keyboard-response",313,1548663,"0.0-4.100-1.100","9z1r0tjpthx1upo",664,"167.csv","","null","resources/maskTrios/BBA3.jpg","null","",NA,NA,NA,NA,""
"image-keyboard-response",314,1549870,"0.0-4.100-2.100","9z1r0tjpthx1upo",664,"167.csv","","null","resources/images/coin2.png","null","",NA,NA,NA,NA,""
"image-keyboard-response",315,1550230,"0.0-4.101-0.101","9z1r0tjpthx1upo",664,"167.csv","","357.60000014305115","resources/trios/L1T2A3.jpg","39","restless",0.5,0.4,0.6,0.90907171046847,"false"
"image-keyboard-response",316,1550645,"0.0-4.101-1.101","9z1r0tjpthx1upo",664,"167.csv","","null","resources/maskTrios/BBA3.jpg","null","",NA,NA,NA,NA,""
"image-keyboard-response",317,1551862,"0.0-4.101-2.101","9z1r0tjpthx1upo",664,"167.csv","","null","resources/images/fishbone.png","null","",NA,NA,NA,NA,""
"image-keyboard-response",318,1555181,"0.0-4.102-0.102","9z1r0tjpthx1upo",664,"167.csv","","3317.399999856949","resources/trios/L1T2A3.jpg","39","restless",0.5,0.4,0.6,0.999376143685955,"false"
"image-keyboard-response",319,1555589,"0.0-4.102-1.102","9z1r0tjpthx1upo",664,"167.csv","","null","resources/maskTrios/BBA3.jpg","null","",NA,NA,NA,NA,""
"image-keyboard-response",320,1556800,"0.0-4.102-2.102","9z1r0tjpthx1upo",664,"167.csv","","null","resources/images/fishbone.png","null","",NA,NA,NA,NA,""
"image-keyboard-response",321,1557397,"0.0-4.103-0.103","9z1r0tjpthx1upo",664,"167.csv","","595.0999999046326","resources/trios/L1T2A3.jpg","39","restless",0.5,0.3,0.6,0.137343332241455,"true"
"image-keyboard-response",322,1557806,"0.0-4.103-1.103","9z1r0tjpthx1upo",664,"167.csv","","null","resources/maskTrios/BBA3.jpg","null","",NA,NA,NA,NA,""
"image-keyboard-response",323,1559017,"0.0-4.103-2.103","9z1r0tjpthx1upo",664,"167.csv","","null","resources/images/coin2.png","null","",NA,NA,NA,NA,""
"image-keyboard-response",324,1560104,"0.0-4.104-0.104","9z1r0tjpthx1upo",664,"167.csv","","1085.9000000953674","resources/trios/L1T2A3.jpg","39","restless",0.5,0.3,0.6,0.0423436181580072,"true"
"image-keyboard-response",325,1560520,"0.0-4.104-1.104","9z1r0tjpthx1upo",664,"167.csv","","null","resources/maskTrios/BBA3.jpg","null","",NA,NA,NA,NA,""
"image-keyboard-response",326,1561723,"0.0-4.104-2.104","9z1r0tjpthx1upo",664,"167.csv","","null","resources/images/coin2.png","null","",NA,NA,NA,NA,""
"image-keyboard-response",327,1562467,"0.0-4.105-0.105","9z1r0tjpthx1upo",664,"167.csv","","742","resources/trios/L1T2A3.jpg","39","restless",0.5,0.3,0.6,0.278251062030959,"true"
"image-keyboard-response",328,1562870,"0.0-4.105-1.105","9z1r0tjpthx1upo",664,"167.csv","","null","resources/maskTrios/BBA3.jpg","null","",NA,NA,NA,NA,""
"image-keyboard-response",329,1564083,"0.0-4.105-2.105","9z1r0tjpthx1upo",664,"167.csv","","null","resources/images/coin2.png","null","",NA,NA,NA,NA,""
"image-keyboard-response",330,1565969,"0.0-4.106-0.106","9z1r0tjpthx1upo",664,"167.csv","","1884.4000000953674","resources/trios/L1T2A3.jpg","39","restless",0.5,0.3,0.6,0.754590928217838,"false"
"image-keyboard-response",331,1566374,"0.0-4.106-1.106","9z1r0tjpthx1upo",664,"167.csv","","null","resources/maskTrios/BBA3.jpg","null","",NA,NA,NA,NA,""
"image-keyboard-response",332,1567603,"0.0-4.106-2.106","9z1r0tjpthx1upo",664,"167.csv","","null","resources/images/fishbone.png","null","",NA,NA,NA,NA,""
"image-keyboard-response",333,1569187,"0.0-4.107-0.107","9z1r0tjpthx1upo",664,"167.csv","","1582.0999999046326","resources/trios/L1T2A3.jpg","39","restless",0.5,0.3,0.6,0.251660833008303,"true"
"image-keyboard-response",334,1569596,"0.0-4.107-1.107","9z1r0tjpthx1upo",664,"167.csv","","null","resources/maskTrios/BBA3.jpg","null","",NA,NA,NA,NA,""
"image-keyboard-response",335,1570805,"0.0-4.107-2.107","9z1r0tjpthx1upo",664,"167.csv","","null","resources/images/coin2.png","null","",NA,NA,NA,NA,""
"image-keyboard-response",336,1574059,"0.0-4.108-0.108","9z1r0tjpthx1upo",664,"167.csv","","3251","resources/trios/L1T2A3.jpg","39","restless",0.5,0.3,0.5,0.992623423155401,"false"
"image-keyboard-response",337,1574471,"0.0-4.108-1.108","9z1r0tjpthx1upo",664,"167.csv","","null","resources/maskTrios/BBA3.jpg","null","",NA,NA,NA,NA,""
"image-keyboard-response",338,1575707,"0.0-4.108-2.108","9z1r0tjpthx1upo",664,"167.csv","","null","resources/images/fishbone.png","null","",NA,NA,NA,NA,""
"image-keyboard-response",339,1578490,"0.0-4.109-0.109","9z1r0tjpthx1upo",664,"167.csv","","2781.699999809265","resources/trios/L1T2A3.jpg","39","restless",0.5,0.3,0.5,0.393124187955943,"true"
"image-keyboard-response",340,1578901,"0.0-4.109-1.109","9z1r0tjpthx1upo",664,"167.csv","","null","resources/maskTrios/BBA3.jpg","null","",NA,NA,NA,NA,""
"image-keyboard-response",341,1580116,"0.0-4.109-2.109","9z1r0tjpthx1upo",664,"167.csv","","null","resources/images/coin2.png","null","",NA,NA,NA,NA,""
"image-keyboard-response",342,1580272,"0.0-4.110-0.110","9z1r0tjpthx1upo",664,"167.csv","","153.80000019073486","resources/trios/L1T2A3.jpg","39","restless",0.5,0.3,0.5,0.211783318814961,"true"
"image-keyboard-response",343,1580682,"0.0-4.110-1.110","9z1r0tjpthx1upo",664,"167.csv","","null","resources/maskTrios/BBA3.jpg","null","",NA,NA,NA,NA,""
"image-keyboard-response",344,1581885,"0.0-4.110-2.110","9z1r0tjpthx1upo",664,"167.csv","","null","resources/images/coin2.png","null","",NA,NA,NA,NA,""
"image-keyboard-response",345,1586015,"0.0-4.111-0.111","9z1r0tjpthx1upo",664,"167.csv","","4128.5","resources/trios/L1T2A3.jpg","39","restless",0.5,0.3,0.5,0.603074807941559,"false"
"image-keyboard-response",346,1586431,"0.0-4.111-1.111","9z1r0tjpthx1upo",664,"167.csv","","null","resources/maskTrios/BBA3.jpg","null","",NA,NA,NA,NA,""
"image-keyboard-response",347,1587635,"0.0-4.111-2.111","9z1r0tjpthx1upo",664,"167.csv","","null","resources/images/fishbone.png","null","",NA,NA,NA,NA,""
"image-keyboard-response",348,1591186,"0.0-4.112-0.112","9z1r0tjpthx1upo",664,"167.csv","","3550.199999809265","resources/trios/L1T2A3.jpg","39","restless",0.5,0.3,0.5,0.48906878611596,"true"
"image-keyboard-response",349,1591592,"0.0-4.112-1.112","9z1r0tjpthx1upo",664,"167.csv","","null","resources/maskTrios/BBA3.jpg","null","",NA,NA,NA,NA,""
"image-keyboard-response",350,1592800,"0.0-4.112-2.112","9z1r0tjpthx1upo",664,"167.csv","","null","resources/images/coin2.png","null","",NA,NA,NA,NA,""
"image-keyboard-response",351,1593608,"0.0-4.113-0.113","9z1r0tjpthx1upo",664,"167.csv","","806.7000000476837","resources/trios/L1T2A3.jpg","39","restless",0.5,0.4,0.5,0.37571410547197,"true"
"image-keyboard-response",352,1594023,"0.0-4.113-1.113","9z1r0tjpthx1upo",664,"167.csv","","null","resources/maskTrios/BBA3.jpg","null","",NA,NA,NA,NA,""
"image-keyboard-response",353,1595239,"0.0-4.113-2.113","9z1r0tjpthx1upo",664,"167.csv","","null","resources/images/coin2.png","null","",NA,NA,NA,NA,""
"image-keyboard-response",354,1596372,"0.0-4.114-0.114","9z1r0tjpthx1upo",664,"167.csv","","1131.9000000953674","resources/trios/L1T2A3.jpg","39","restless",0.5,0.3,0.5,0.390032749159151,"true"
"image-keyboard-response",355,1596776,"0.0-4.114-1.114","9z1r0tjpthx1upo",664,"167.csv","","null","resources/maskTrios/BBA3.jpg","null","",NA,NA,NA,NA,""
"image-keyboard-response",356,1597978,"0.0-4.114-2.114","9z1r0tjpthx1upo",664,"167.csv","","null","resources/images/coin2.png","null","",NA,NA,NA,NA,""
"image-keyboard-response",357,1598802,"0.0-4.115-0.115","9z1r0tjpthx1upo",664,"167.csv","","822.0999999046326","resources/trios/L1T2A3.jpg","39","restless",0.5,0.3,0.5,0.976180111128444,"false"
"image-keyboard-response",358,1599210,"0.0-4.115-1.115","9z1r0tjpthx1upo",664,"167.csv","","null","resources/maskTrios/BBA3.jpg","null","",NA,NA,NA,NA,""
"image-keyboard-response",359,1600416,"0.0-4.115-2.115","9z1r0tjpthx1upo",664,"167.csv","","null","resources/images/fishbone.png","null","",NA,NA,NA,NA,""
"image-keyboard-response",360,1601970,"0.0-4.116-0.116","9z1r0tjpthx1upo",664,"167.csv","","1551.3999998569489","resources/trios/L1T2A3.jpg","39","restless",0.5,0.3,0.5,0.391362206620057,"true"
"image-keyboard-response",361,1602377,"0.0-4.116-1.116","9z1r0tjpthx1upo",664,"167.csv","","null","resources/maskTrios/BBA3.jpg","null","",NA,NA,NA,NA,""
"image-keyboard-response",362,1603589,"0.0-4.116-2.116","9z1r0tjpthx1upo",664,"167.csv","","null","resources/images/coin2.png","null","",NA,NA,NA,NA,""
"image-keyboard-response",363,1604650,"0.0-4.117-0.117","9z1r0tjpthx1upo",664,"167.csv","","1059.1000001430511","resources/trios/L1T2A3.jpg","39","restless",0.5,0.3,0.5,0.565071208616187,"false"
"image-keyboard-response",364,1605067,"0.0-4.117-1.117","9z1r0tjpthx1upo",664,"167.csv","","null","resources/maskTrios/BBA3.jpg","null","",NA,NA,NA,NA,""
"image-keyboard-response",365,1606269,"0.0-4.117-2.117","9z1r0tjpthx1upo",664,"167.csv","","null","resources/images/fishbone.png","null","",NA,NA,NA,NA,""
"image-keyboard-response",366,1607377,"0.0-4.118-0.118","9z1r0tjpthx1upo",664,"167.csv","","1105.5","resources/trios/L1T2A3.jpg","39","restless",0.5,0.3,0.5,0.520861297460711,"false"
"image-keyboard-response",367,1607788,"0.0-4.118-1.118","9z1r0tjpthx1upo",664,"167.csv","","null","resources/maskTrios/BBA3.jpg","null","",NA,NA,NA,NA,""
"image-keyboard-response",368,1608997,"0.0-4.118-2.118","9z1r0tjpthx1upo",664,"167.csv","","null","resources/images/fishbone.png","null","",NA,NA,NA,NA,""
"image-keyboard-response",369,1610395,"0.0-4.119-0.119","9z1r0tjpthx1upo",664,"167.csv","","1396.0999999046326","resources/trios/L1T2A3.jpg","39","restless",0.5,0.3,0.5,0.715008360572453,"false"
"image-keyboard-response",370,1610808,"0.0-4.119-1.119","9z1r0tjpthx1upo",664,"167.csv","","null","resources/maskTrios/BBA3.jpg","null","",NA,NA,NA,NA,""
"image-keyboard-response",371,1612014,"0.0-4.119-2.119","9z1r0tjpthx1upo",664,"167.csv","","null","resources/images/fishbone.png","null","",NA,NA,NA,NA,""
"image-keyboard-response",372,1612088,"0.0-4.120-0.120","9z1r0tjpthx1upo",664,"167.csv","","71.10000014305115","resources/trios/L1T2A3.jpg","39","restless",0.5,0.3,0.5,0.452407981300641,"true"
"image-keyboard-response",373,1612513,"0.0-4.120-1.120","9z1r0tjpthx1upo",664,"167.csv","","null","resources/maskTrios/BBA3.jpg","null","",NA,NA,NA,NA,""
"image-keyboard-response",374,1613725,"0.0-4.120-2.120","9z1r0tjpthx1upo",664,"167.csv","","null","resources/images/coin2.png","null","",NA,NA,NA,NA,""
"image-keyboard-response",375,1614185,"0.0-4.121-0.121","9z1r0tjpthx1upo",664,"167.csv","","457.2000000476837","resources/trios/L1T2A3.jpg","39","restless",0.5,0.4,0.5,0.50397891942852,"false"
"image-keyboard-response",376,1614595,"0.0-4.121-1.121","9z1r0tjpthx1upo",664,"167.csv","","null","resources/maskTrios/BBA3.jpg","null","",NA,NA,NA,NA,""
"image-keyboard-response",377,1615799,"0.0-4.121-2.121","9z1r0tjpthx1upo",664,"167.csv","","null","resources/images/fishbone.png","null","",NA,NA,NA,NA,""
"image-keyboard-response",378,1616188,"0.0-4.122-0.122","9z1r0tjpthx1upo",664,"167.csv","","387","resources/trios/L1T2A3.jpg","39","restless",0.5,0.4,0.4,0.959063818290285,"false"
"image-keyboard-response",379,1616595,"0.0-4.122-1.122","9z1r0tjpthx1upo",664,"167.csv","","null","resources/maskTrios/BBA3.jpg","null","",NA,NA,NA,NA,""
"image-keyboard-response",380,1617806,"0.0-4.122-2.122","9z1r0tjpthx1upo",664,"167.csv","","null","resources/images/fishbone.png","null","",NA,NA,NA,NA,""
"image-keyboard-response",381,1618526,"0.0-4.123-0.123","9z1r0tjpthx1upo",664,"167.csv","","717.0999999046326","resources/trios/L1T2A3.jpg","39","restless",0.5,0.4,0.4,0.344712414236,"true"
"image-keyboard-response",382,1618933,"0.0-4.123-1.123","9z1r0tjpthx1upo",664,"167.csv","","null","resources/maskTrios/BBA3.jpg","null","",NA,NA,NA,NA,""
"image-keyboard-response",383,1620140,"0.0-4.123-2.123","9z1r0tjpthx1upo",664,"167.csv","","null","resources/images/coin2.png","null","",NA,NA,NA,NA,""
"image-keyboard-response",384,1622496,"0.0-4.124-0.124","9z1r0tjpthx1upo",664,"167.csv","","2353.600000143051","resources/trios/L1T2A3.jpg","39","restless",0.5,0.4,0.4,0.339839774555754,"true"
"image-keyboard-response",385,1622909,"0.0-4.124-1.124","9z1r0tjpthx1upo",664,"167.csv","","null","resources/maskTrios/BBA3.jpg","null","",NA,NA,NA,NA,""
"image-keyboard-response",386,1624127,"0.0-4.124-2.124","9z1r0tjpthx1upo",664,"167.csv","","null","resources/images/coin2.png","null","",NA,NA,NA,NA,""
"image-keyboard-response",387,1624851,"0.0-4.125-0.125","9z1r0tjpthx1upo",664,"167.csv","","723","resources/trios/L1T2A3.jpg","39","restless",0.5,0.4,0.5,0.909191978601306,"false"
"image-keyboard-response",388,1625258,"0.0-4.125-1.125","9z1r0tjpthx1upo",664,"167.csv","","null","resources/maskTrios/BBA3.jpg","null","",NA,NA,NA,NA,""
"image-keyboard-response",389,1626473,"0.0-4.125-2.125","9z1r0tjpthx1upo",664,"167.csv","","null","resources/images/fishbone.png","null","",NA,NA,NA,NA,""
"image-keyboard-response",390,1627278,"0.0-4.126-0.126","9z1r0tjpthx1upo",664,"167.csv","","803.5999999046326","resources/trios/L1T2A3.jpg","39","restless",0.5,0.5,0.5,0.802016422493907,"false"
"image-keyboard-response",391,1627682,"0.0-4.126-1.126","9z1r0tjpthx1upo",664,"167.csv","","null","resources/maskTrios/BBA3.jpg","null","",NA,NA,NA,NA,""
"image-keyboard-response",392,1628896,"0.0-4.126-2.126","9z1r0tjpthx1upo",664,"167.csv","","null","resources/images/fishbone.png","null","",NA,NA,NA,NA,""
"image-keyboard-response",393,1629352,"0.0-4.127-0.127","9z1r0tjpthx1upo",664,"167.csv","","452.90000009536743","resources/trios/L1T2A3.jpg","39","restless",0.5,0.5,0.6,0.407115997601432,"true"
"image-keyboard-response",394,1629763,"0.0-4.127-1.127","9z1r0tjpthx1upo",664,"167.csv","","null","resources/maskTrios/BBA3.jpg","null","",NA,NA,NA,NA,""
"image-keyboard-response",395,1630999,"0.0-4.127-2.127","9z1r0tjpthx1upo",664,"167.csv","","null","resources/images/coin2.png","null","",NA,NA,NA,NA,""
"image-keyboard-response",396,1634379,"0.0-4.128-0.128","9z1r0tjpthx1upo",664,"167.csv","","3378.100000143051","resources/trios/L1T2A3.jpg","39","restless",0.5,0.5,0.6,0.246256585540762,"true"
"image-keyboard-response",397,1634782,"0.0-4.128-1.128","9z1r0tjpthx1upo",664,"167.csv","","null","resources/maskTrios/BBA3.jpg","null","",NA,NA,NA,NA,""
"image-keyboard-response",398,1635990,"0.0-4.128-2.128","9z1r0tjpthx1upo",664,"167.csv","","null","resources/images/coin2.png","null","",NA,NA,NA,NA,""
"image-keyboard-response",399,1637460,"0.0-4.129-0.129","9z1r0tjpthx1upo",664,"167.csv","","1468.2000000476837","resources/trios/L1T2A3.jpg","39","restless",0.5,0.5,0.6,0.0158136642970008,"true"
"image-keyboard-response",400,1637871,"0.0-4.129-1.129","9z1r0tjpthx1upo",664,"167.csv","","null","resources/maskTrios/BBA3.jpg","null","",NA,NA,NA,NA,""
"image-keyboard-response",401,1639087,"0.0-4.129-2.129","9z1r0tjpthx1upo",664,"167.csv","","null","resources/images/coin2.png","null","",NA,NA,NA,NA,""
"image-keyboard-response",402,1641529,"0.0-4.130-0.130","9z1r0tjpthx1upo",664,"167.csv","","2440.4000000953674","resources/trios/L1T2A3.jpg","39","restless",0.5,0.5,0.6,0.935671235937461,"false"
"image-keyboard-response",403,1641937,"0.0-4.130-1.130","9z1r0tjpthx1upo",664,"167.csv","","null","resources/maskTrios/BBA3.jpg","null","",NA,NA,NA,NA,""
"image-keyboard-response",404,1643174,"0.0-4.130-2.130","9z1r0tjpthx1upo",664,"167.csv","","null","resources/images/fishbone.png","null","",NA,NA,NA,NA,""
"image-keyboard-response",405,1643503,"0.0-4.131-0.131","9z1r0tjpthx1upo",664,"167.csv","","327.7000000476837","resources/trios/L1T2A3.jpg","39","restless",0.5,0.5,0.6,0.924596063263685,"false"
"image-keyboard-response",406,1643919,"0.0-4.131-1.131","9z1r0tjpthx1upo",664,"167.csv","","null","resources/maskTrios/BBA3.jpg","null","",NA,NA,NA,NA,""
"image-keyboard-response",407,1645128,"0.0-4.131-2.131","9z1r0tjpthx1upo",664,"167.csv","","null","resources/images/fishbone.png","null","",NA,NA,NA,NA,""
"image-keyboard-response",408,1645554,"0.0-4.132-0.132","9z1r0tjpthx1upo",664,"167.csv","","423.89999985694885","resources/trios/L1T2A3.jpg","39","restless",0.5,0.5,0.6,0.686355685386198,"false"
"image-keyboard-response",409,1645961,"0.0-4.132-1.132","9z1r0tjpthx1upo",664,"167.csv","","null","resources/maskTrios/BBA3.jpg","null","",NA,NA,NA,NA,""
"image-keyboard-response",410,1647178,"0.0-4.132-2.132","9z1r0tjpthx1upo",664,"167.csv","","null","resources/images/fishbone.png","null","",NA,NA,NA,NA,""
"image-keyboard-response",411,1647515,"0.0-4.133-0.133","9z1r0tjpthx1upo",664,"167.csv","","334.7000000476837","resources/trios/L1T2A3.jpg","39","restless",0.5,0.5,0.6,0.948886538672673,"false"
"image-keyboard-response",412,1647931,"0.0-4.133-1.133","9z1r0tjpthx1upo",664,"167.csv","","null","resources/maskTrios/BBA3.jpg","null","",NA,NA,NA,NA,""
"image-keyboard-response",413,1649145,"0.0-4.133-2.133","9z1r0tjpthx1upo",664,"167.csv","","null","resources/images/fishbone.png","null","",NA,NA,NA,NA,""
"image-keyboard-response",414,1649405,"0.0-4.134-0.134","9z1r0tjpthx1upo",664,"167.csv","","257.89999985694885","resources/trios/L1T2A3.jpg","38","restless",0.5,0.5,0.6,0.824787220790828,"false"
"image-keyboard-response",415,1649815,"0.0-4.134-1.134","9z1r0tjpthx1upo",664,"167.csv","","null","resources/maskTrios/BT2B.jpg","null","",NA,NA,NA,NA,""
"image-keyboard-response",416,1651022,"0.0-4.134-2.134","9z1r0tjpthx1upo",664,"167.csv","","null","resources/images/fishbone.png","null","",NA,NA,NA,NA,""
"image-keyboard-response",417,1651378,"0.0-4.135-0.135","9z1r0tjpthx1upo",664,"167.csv","","353.19999980926514","resources/trios/L1T2A3.jpg","38","restless",0.5,0.5,0.6,0.310153605950019,"true"
"image-keyboard-response",418,1651791,"0.0-4.135-1.135","9z1r0tjpthx1upo",664,"167.csv","","null","resources/maskTrios/BT2B.jpg","null","",NA,NA,NA,NA,""
"image-keyboard-response",419,1653000,"0.0-4.135-2.135","9z1r0tjpthx1upo",664,"167.csv","","null","resources/images/coin2.png","null","",NA,NA,NA,NA,""
"image-keyboard-response",420,1653417,"0.0-4.136-0.136","9z1r0tjpthx1upo",664,"167.csv","","415.5","resources/trios/L1T2A3.jpg","38","restless",0.5,0.5,0.6,0.910716950161767,"false"
"image-keyboard-response",421,1653827,"0.0-4.136-1.136","9z1r0tjpthx1upo",664,"167.csv","","null","resources/maskTrios/BT2B.jpg","null","",NA,NA,NA,NA,""
"image-keyboard-response",422,1655053,"0.0-4.136-2.136","9z1r0tjpthx1upo",664,"167.csv","","null","resources/images/fishbone.png","null","",NA,NA,NA,NA,""
"image-keyboard-response",423,1655428,"0.0-4.137-0.137","9z1r0tjpthx1upo",664,"167.csv","","374.09999990463257","resources/trios/L1T2A3.jpg","39","restless",0.6,0.5,0.6,0.306974566261332,"true"
"image-keyboard-response",424,1655841,"0.0-4.137-1.137","9z1r0tjpthx1upo",664,"167.csv","","null","resources/maskTrios/BBA3.jpg","null","",NA,NA,NA,NA,""
"image-keyboard-response",425,1657055,"0.0-4.137-2.137","9z1r0tjpthx1upo",664,"167.csv","","null","resources/images/coin2.png","null","",NA,NA,NA,NA,""
"image-keyboard-response",426,1658226,"0.0-4.138-0.138","9z1r0tjpthx1upo",664,"167.csv","","1168.7000000476837","resources/trios/L1T2A3.jpg","39","restless",0.6,0.6,0.6,0.930507848903427,"false"
"image-keyboard-response",427,1658643,"0.0-4.138-1.138","9z1r0tjpthx1upo",664,"167.csv","","null","resources/maskTrios/BBA3.jpg","null","",NA,NA,NA,NA,""
"image-keyboard-response",428,1659852,"0.0-4.138-2.138","9z1r0tjpthx1upo",664,"167.csv","","null","resources/images/fishbone.png","null","",NA,NA,NA,NA,""
"image-keyboard-response",429,1661139,"0.0-4.139-0.139","9z1r0tjpthx1upo",664,"167.csv","","1284.1000001430511","resources/trios/L1T2A3.jpg","39","restless",0.6,0.6,0.6,0.0498782140036218,"true"
"image-keyboard-response",430,1661550,"0.0-4.139-1.139","9z1r0tjpthx1upo",664,"167.csv","","null","resources/maskTrios/BBA3.jpg","null","",NA,NA,NA,NA,""
"image-keyboard-response",431,1662766,"0.0-4.139-2.139","9z1r0tjpthx1upo",664,"167.csv","","null","resources/images/coin2.png","null","",NA,NA,NA,NA,""
"image-keyboard-response",432,1663918,"0.0-4.140-0.140","9z1r0tjpthx1upo",664,"167.csv","","1150","resources/trios/L1T2A3.jpg","39","restless",0.6,0.6,0.6,0.181144142684393,"true"
"image-keyboard-response",433,1664330,"0.0-4.140-1.140","9z1r0tjpthx1upo",664,"167.csv","","null","resources/maskTrios/BBA3.jpg","null","",NA,NA,NA,NA,""
"image-keyboard-response",434,1665546,"0.0-4.140-2.140","9z1r0tjpthx1upo",664,"167.csv","","null","resources/images/coin2.png","null","",NA,NA,NA,NA,""
"image-keyboard-response",435,1666980,"0.0-4.141-0.141","9z1r0tjpthx1upo",664,"167.csv","","1432.7000000476837","resources/trios/L1T2A3.jpg","39","restless",0.6,0.6,0.6,0.519419017034366,"true"
"image-keyboard-response",436,1667395,"0.0-4.141-1.141","9z1r0tjpthx1upo",664,"167.csv","","null","resources/maskTrios/BBA3.jpg","null","",NA,NA,NA,NA,""
"image-keyboard-response",437,1668607,"0.0-4.141-2.141","9z1r0tjpthx1upo",664,"167.csv","","null","resources/images/coin2.png","null","",NA,NA,NA,NA,""
"image-keyboard-response",438,1670689,"0.0-4.142-0.142","9z1r0tjpthx1upo",664,"167.csv","","2080.2999999523163","resources/trios/L1T2A3.jpg","39","restless",0.6,0.6,0.6,0.837642416848179,"false"
"image-keyboard-response",439,1671091,"0.0-4.142-1.142","9z1r0tjpthx1upo",664,"167.csv","","null","resources/maskTrios/BBA3.jpg","null","",NA,NA,NA,NA,""
"image-keyboard-response",440,1672303,"0.0-4.142-2.142","9z1r0tjpthx1upo",664,"167.csv","","null","resources/images/fishbone.png","null","",NA,NA,NA,NA,""
"image-keyboard-response",441,1673220,"0.0-4.143-0.143","9z1r0tjpthx1upo",664,"167.csv","","915.6000001430511","resources/trios/L1T2A3.jpg","39","restless",0.6,0.6,0.6,0.250063024640284,"true"
"image-keyboard-response",442,1673631,"0.0-4.143-1.143","9z1r0tjpthx1upo",664,"167.csv","","null","resources/maskTrios/BBA3.jpg","null","",NA,NA,NA,NA,""
"image-keyboard-response",443,1674837,"0.0-4.143-2.143","9z1r0tjpthx1upo",664,"167.csv","","null","resources/images/coin2.png","null","",NA,NA,NA,NA,""
"image-keyboard-response",444,1677065,"0.0-4.144-0.144","9z1r0tjpthx1upo",664,"167.csv","","2226","resources/trios/L1T2A3.jpg","39","restless",0.6,0.6,0.6,0.237801384573753,"true"
"image-keyboard-response",445,1677472,"0.0-4.144-1.144","9z1r0tjpthx1upo",664,"167.csv","","null","resources/maskTrios/BBA3.jpg","null","",NA,NA,NA,NA,""
"image-keyboard-response",446,1678690,"0.0-4.144-2.144","9z1r0tjpthx1upo",664,"167.csv","","null","resources/images/coin2.png","null","",NA,NA,NA,NA,""
"image-keyboard-response",447,1679327,"0.0-4.145-0.145","9z1r0tjpthx1upo",664,"167.csv","","634.5","resources/trios/L1T2A3.jpg","39","restless",0.6,0.6,0.7,0.804080254550958,"false"
"image-keyboard-response",448,1679731,"0.0-4.145-1.145","9z1r0tjpthx1upo",664,"167.csv","","null","resources/maskTrios/BBA3.jpg","null","",NA,NA,NA,NA,""
"image-keyboard-response",449,1680932,"0.0-4.145-2.145","9z1r0tjpthx1upo",664,"167.csv","","null","resources/images/fishbone.png","null","",NA,NA,NA,NA,""
"image-keyboard-response",450,1681272,"0.0-4.146-0.146","9z1r0tjpthx1upo",664,"167.csv","","336.7000000476837","resources/trios/L1T2A3.jpg","39","restless",0.6,0.6,0.7,0.75651365714278,"false"
"image-keyboard-response",451,1681677,"0.0-4.146-1.146","9z1r0tjpthx1upo",664,"167.csv","","null","resources/maskTrios/BBA3.jpg","null","",NA,NA,NA,NA,""
"image-keyboard-response",452,1682882,"0.0-4.146-2.146","9z1r0tjpthx1upo",664,"167.csv","","null","resources/images/fishbone.png","null","",NA,NA,NA,NA,""
"image-keyboard-response",453,1683135,"0.0-4.147-0.147","9z1r0tjpthx1upo",664,"167.csv","","249.79999995231628","resources/trios/L1T2A3.jpg","39","restless",0.6,0.6,0.7,0.449787239989206,"true"
"image-keyboard-response",454,1683549,"0.0-4.147-1.147","9z1r0tjpthx1upo",664,"167.csv","","null","resources/maskTrios/BBA3.jpg","null","",NA,NA,NA,NA,""
"image-keyboard-response",455,1684787,"0.0-4.147-2.147","9z1r0tjpthx1upo",664,"167.csv","","null","resources/images/coin2.png","null","",NA,NA,NA,NA,""
"image-keyboard-response",456,1687106,"0.0-4.148-0.148","9z1r0tjpthx1upo",664,"167.csv","","2317.399999856949","resources/trios/L1T2A3.jpg","39","restless",0.6,0.6,0.7,0.82608075318338,"false"
"image-keyboard-response",457,1687518,"0.0-4.148-1.148","9z1r0tjpthx1upo",664,"167.csv","","null","resources/maskTrios/BBA3.jpg","null","",NA,NA,NA,NA,""
"image-keyboard-response",458,1688722,"0.0-4.148-2.148","9z1r0tjpthx1upo",664,"167.csv","","null","resources/images/fishbone.png","null","",NA,NA,NA,NA,""
"image-keyboard-response",459,1689410,"0.0-4.149-0.149","9z1r0tjpthx1upo",664,"167.csv","","686.5","resources/trios/L1T2A3.jpg","39","restless",0.6,0.6,0.7,0.915830098184516,"false"
"image-keyboard-response",460,1689828,"0.0-4.149-1.149","9z1r0tjpthx1upo",664,"167.csv","","null","resources/maskTrios/BBA3.jpg","null","",NA,NA,NA,NA,""
"image-keyboard-response",461,1691037,"0.0-4.149-2.149","9z1r0tjpthx1upo",664,"167.csv","","null","resources/images/fishbone.png","null","",NA,NA,NA,NA,""
"image-keyboard-response",462,1692013,"0.0-4.150-0.150","9z1r0tjpthx1upo",664,"167.csv","","974.1999998092651","resources/trios/L1T2A3.jpg","39","restless",0.6,0.6,0.7,0.181705657863844,"true"
"image-keyboard-response",463,1692416,"0.0-4.150-1.150","9z1r0tjpthx1upo",664,"167.csv","","null","resources/maskTrios/BBA3.jpg","null","",NA,NA,NA,NA,""
"image-keyboard-response",464,1693620,"0.0-4.150-2.150","9z1r0tjpthx1upo",664,"167.csv","","null","resources/images/coin2.png","null","",NA,NA,NA,NA,""
"image-keyboard-response",465,1695094,"0.0-4.151-0.151","9z1r0tjpthx1upo",664,"167.csv","","1472.4000000953674","resources/trios/L1T2A3.jpg","39","restless",0.6,0.5,0.7,0.857074078057481,"false"
"image-keyboard-response",466,1695512,"0.0-4.151-1.151","9z1r0tjpthx1upo",664,"167.csv","","null","resources/maskTrios/BBA3.jpg","null","",NA,NA,NA,NA,""
"image-keyboard-response",467,1696727,"0.0-4.151-2.151","9z1r0tjpthx1upo",664,"167.csv","","null","resources/images/fishbone.png","null","",NA,NA,NA,NA,""
"image-keyboard-response",468,1697295,"0.0-4.152-0.152","9z1r0tjpthx1upo",664,"167.csv","","565.6999998092651","resources/trios/L1T2A3.jpg","39","restless",0.6,0.5,0.7,0.406739466804991,"true"
"image-keyboard-response",469,1697704,"0.0-4.152-1.152","9z1r0tjpthx1upo",664,"167.csv","","null","resources/maskTrios/BBA3.jpg","null","",NA,NA,NA,NA,""
"image-keyboard-response",470,1698910,"0.0-4.152-2.152","9z1r0tjpthx1upo",664,"167.csv","","null","resources/images/coin2.png","null","",NA,NA,NA,NA,""
"image-keyboard-response",471,1699368,"0.0-4.153-0.153","9z1r0tjpthx1upo",664,"167.csv","","455","resources/trios/L1T2A3.jpg","39","restless",0.6,0.5,0.8,0.788506730427151,"true"
"image-keyboard-response",472,1699777,"0.0-4.153-1.153","9z1r0tjpthx1upo",664,"167.csv","","null","resources/maskTrios/BBA3.jpg","null","",NA,NA,NA,NA,""
"image-keyboard-response",473,1700979,"0.0-4.153-2.153","9z1r0tjpthx1upo",664,"167.csv","","null","resources/images/coin2.png","null","",NA,NA,NA,NA,""
"image-keyboard-response",474,1701739,"0.0-4.154-0.154","9z1r0tjpthx1upo",664,"167.csv","","758.5999999046326","resources/trios/L1T2A3.jpg","39","restless",0.6,0.5,0.8,0.979428918757835,"false"
"image-keyboard-response",475,1702158,"0.0-4.154-1.154","9z1r0tjpthx1upo",664,"167.csv","","null","resources/maskTrios/BBA3.jpg","null","",NA,NA,NA,NA,""
"image-keyboard-response",476,1703390,"0.0-4.154-2.154","9z1r0tjpthx1upo",664,"167.csv","","null","resources/images/fishbone.png","null","",NA,NA,NA,NA,""
"image-keyboard-response",477,1703900,"0.0-4.155-0.155","9z1r0tjpthx1upo",664,"167.csv","","507.30000019073486","resources/trios/L1T2A3.jpg","39","restless",0.6,0.5,0.9,0.944437897488767,"false"
"image-keyboard-response",478,1704306,"0.0-4.155-1.155","9z1r0tjpthx1upo",664,"167.csv","","null","resources/maskTrios/BBA3.jpg","null","",NA,NA,NA,NA,""
"image-keyboard-response",479,1705510,"0.0-4.155-2.155","9z1r0tjpthx1upo",664,"167.csv","","null","resources/images/fishbone.png","null","",NA,NA,NA,NA,""
"image-keyboard-response",480,1706155,"0.0-4.156-0.156","9z1r0tjpthx1upo",664,"167.csv","","642.8999998569489","resources/trios/L1T2A3.jpg","39","restless",0.6,0.5,0.8,0.287103934397096,"true"
"image-keyboard-response",481,1706574,"0.0-4.156-1.156","9z1r0tjpthx1upo",664,"167.csv","","null","resources/maskTrios/BBA3.jpg","null","",NA,NA,NA,NA,""
"image-keyboard-response",482,1707781,"0.0-4.156-2.156","9z1r0tjpthx1upo",664,"167.csv","","null","resources/images/coin2.png","null","",NA,NA,NA,NA,""
"image-keyboard-response",483,1708647,"0.0-4.157-0.157","9z1r0tjpthx1upo",664,"167.csv","","863.7999999523163","resources/trios/L1T2A3.jpg","39","restless",0.6,0.5,0.8,0.0833624918712692,"true"
"image-keyboard-response",484,1709085,"0.0-4.157-1.157","9z1r0tjpthx1upo",664,"167.csv","","null","resources/maskTrios/BBA3.jpg","null","",NA,NA,NA,NA,""
"image-keyboard-response",485,1710314,"0.0-4.157-2.157","9z1r0tjpthx1upo",664,"167.csv","","null","resources/images/coin2.png","null","",NA,NA,NA,NA,""
"image-keyboard-response",486,1711522,"0.0-4.158-0.158","9z1r0tjpthx1upo",664,"167.csv","","1205.2000000476837","resources/trios/L1T2A3.jpg","39","restless",0.6,0.5,0.8,0.303748536742469,"true"
"image-keyboard-response",487,1711936,"0.0-4.158-1.158","9z1r0tjpthx1upo",664,"167.csv","","null","resources/maskTrios/BBA3.jpg","null","",NA,NA,NA,NA,""
"image-keyboard-response",488,1713141,"0.0-4.158-2.158","9z1r0tjpthx1upo",664,"167.csv","","null","resources/images/coin2.png","null","",NA,NA,NA,NA,""
"image-keyboard-response",489,1713529,"0.0-4.159-0.159","9z1r0tjpthx1upo",664,"167.csv","","385.09999990463257","resources/trios/L1T2A3.jpg","39","restless",0.6,0.5,0.8,0.496506166900379,"true"
"image-keyboard-response",490,1713931,"0.0-4.159-1.159","9z1r0tjpthx1upo",664,"167.csv","","null","resources/maskTrios/BBA3.jpg","null","",NA,NA,NA,NA,""
"image-keyboard-response",491,1715134,"0.0-4.159-2.159","9z1r0tjpthx1upo",664,"167.csv","","null","resources/images/coin2.png","null","",NA,NA,NA,NA,""
"image-keyboard-response",492,1715483,"0.0-4.160-0.160","9z1r0tjpthx1upo",664,"167.csv","","346.09999990463257","resources/trios/L1T2A3.jpg","39","restless",0.6,0.5,0.8,0.819937097341546,"false"
"image-keyboard-response",493,1715890,"0.0-4.160-1.160","9z1r0tjpthx1upo",664,"167.csv","","null","resources/maskTrios/BBA3.jpg","null","",NA,NA,NA,NA,""
"image-keyboard-response",494,1717118,"0.0-4.160-2.160","9z1r0tjpthx1upo",664,"167.csv","","null","resources/images/fishbone.png","null","",NA,NA,NA,NA,""
"image-keyboard-response",495,1717369,"0.0-4.161-0.161","9z1r0tjpthx1upo",664,"167.csv","","249.60000014305115","resources/trios/L1T2A3.jpg","39","restless",0.6,0.5,0.8,0.760519196462572,"true"
"image-keyboard-response",496,1717779,"0.0-4.161-1.161","9z1r0tjpthx1upo",664,"167.csv","","null","resources/maskTrios/BBA3.jpg","null","",NA,NA,NA,NA,""
"image-keyboard-response",497,1718992,"0.0-4.161-2.161","9z1r0tjpthx1upo",664,"167.csv","","null","resources/images/coin2.png","null","",NA,NA,NA,NA,""
"image-keyboard-response",498,1719255,"0.0-4.162-0.162","9z1r0tjpthx1upo",664,"167.csv","","260.7000000476837","resources/trios/L1T2A3.jpg","39","restless",0.6,0.5,0.8,0.229318047377584,"true"
"image-keyboard-response",499,1719660,"0.0-4.162-1.162","9z1r0tjpthx1upo",664,"167.csv","","null","resources/maskTrios/BBA3.jpg","null","",NA,NA,NA,NA,""
"image-keyboard-response",500,1720867,"0.0-4.162-2.162","9z1r0tjpthx1upo",664,"167.csv","","null","resources/images/coin2.png","null","",NA,NA,NA,NA,""
"image-keyboard-response",501,1721166,"0.0-4.163-0.163","9z1r0tjpthx1upo",664,"167.csv","","297.5","resources/trios/L1T2A3.jpg","39","restless",0.6,0.5,0.8,0.957580087888578,"false"
"image-keyboard-response",502,1721575,"0.0-4.163-1.163","9z1r0tjpthx1upo",664,"167.csv","","null","resources/maskTrios/BBA3.jpg","null","",NA,NA,NA,NA,""
"image-keyboard-response",503,1722791,"0.0-4.163-2.163","9z1r0tjpthx1upo",664,"167.csv","","null","resources/images/fishbone.png","null","",NA,NA,NA,NA,""
"image-keyboard-response",504,1723082,"0.0-4.164-0.164","9z1r0tjpthx1upo",664,"167.csv","","288.7000000476837","resources/trios/L1T2A3.jpg","39","restless",0.6,0.5,0.8,0.661987176320852,"true"
"image-keyboard-response",505,1723494,"0.0-4.164-1.164","9z1r0tjpthx1upo",664,"167.csv","","null","resources/maskTrios/BBA3.jpg","null","",NA,NA,NA,NA,""
"image-keyboard-response",506,1724702,"0.0-4.164-2.164","9z1r0tjpthx1upo",664,"167.csv","","null","resources/images/coin2.png","null","",NA,NA,NA,NA,""
"image-keyboard-response",507,1724795,"0.0-4.165-0.165","9z1r0tjpthx1upo",664,"167.csv","","91.59999990463257","resources/trios/L1T2A3.jpg","39","restless",0.6,0.5,0.8,0.093121883251752,"true"
"image-keyboard-response",508,1725207,"0.0-4.165-1.165","9z1r0tjpthx1upo",664,"167.csv","","null","resources/maskTrios/BBA3.jpg","null","",NA,NA,NA,NA,""
"image-keyboard-response",509,1726420,"0.0-4.165-2.165","9z1r0tjpthx1upo",664,"167.csv","","null","resources/images/coin2.png","null","",NA,NA,NA,NA,""
"image-keyboard-response",510,1726736,"0.0-4.166-0.166","9z1r0tjpthx1upo",664,"167.csv","","314","resources/trios/L1T2A3.jpg","39","restless",0.6,0.5,0.8,0.0224988699968105,"true"
"image-keyboard-response",511,1727149,"0.0-4.166-1.166","9z1r0tjpthx1upo",664,"167.csv","","null","resources/maskTrios/BBA3.jpg","null","",NA,NA,NA,NA,""
"image-keyboard-response",512,1728377,"0.0-4.166-2.166","9z1r0tjpthx1upo",664,"167.csv","","null","resources/images/coin2.png","null","",NA,NA,NA,NA,""
"image-keyboard-response",513,1728665,"0.0-4.167-0.167","9z1r0tjpthx1upo",664,"167.csv","","286.10000014305115","resources/trios/L1T2A3.jpg","39","restless",0.6,0.6,0.8,0.103028564529267,"true"
"image-keyboard-response",514,1729070,"0.0-4.167-1.167","9z1r0tjpthx1upo",664,"167.csv","","null","resources/maskTrios/BBA3.jpg","null","",NA,NA,NA,NA,""
"image-keyboard-response",515,1730282,"0.0-4.167-2.167","9z1r0tjpthx1upo",664,"167.csv","","null","resources/images/coin2.png","null","",NA,NA,NA,NA,""
"image-keyboard-response",516,1730832,"0.0-4.168-0.168","9z1r0tjpthx1upo",664,"167.csv","","547.7000000476837","resources/trios/L1T2A3.jpg","39","restless",0.6,0.6,0.8,0.417197724904508,"true"
"image-keyboard-response",517,1731240,"0.0-4.168-1.168","9z1r0tjpthx1upo",664,"167.csv","","null","resources/maskTrios/BBA3.jpg","null","",NA,NA,NA,NA,""
"image-keyboard-response",518,1732446,"0.0-4.168-2.168","9z1r0tjpthx1upo",664,"167.csv","","null","resources/images/coin2.png","null","",NA,NA,NA,NA,""
"image-keyboard-response",519,1733020,"0.0-4.169-0.169","9z1r0tjpthx1upo",664,"167.csv","","573","resources/trios/L1T2A3.jpg","39","restless",0.6,0.6,0.8,0.699788589405872,"true"
"image-keyboard-response",520,1733431,"0.0-4.169-1.169","9z1r0tjpthx1upo",664,"167.csv","","null","resources/maskTrios/BBA3.jpg","null","",NA,NA,NA,NA,""
"image-keyboard-response",521,1734645,"0.0-4.169-2.169","9z1r0tjpthx1upo",664,"167.csv","","null","resources/images/coin2.png","null","",NA,NA,NA,NA,""
"image-keyboard-response",522,1734964,"0.0-4.170-0.170","9z1r0tjpthx1upo",664,"167.csv","","317.90000009536743","resources/trios/L1T2A3.jpg","39","restless",0.5,0.6,0.7,0.957709972784158,"false"
"image-keyboard-response",523,1735382,"0.0-4.170-1.170","9z1r0tjpthx1upo",664,"167.csv","","null","resources/maskTrios/BBA3.jpg","null","",NA,NA,NA,NA,""
"image-keyboard-response",524,1736599,"0.0-4.170-2.170","9z1r0tjpthx1upo",664,"167.csv","","null","resources/images/fishbone.png","null","",NA,NA,NA,NA,""
"image-keyboard-response",525,1736929,"0.0-4.171-0.171","9z1r0tjpthx1upo",664,"167.csv","","328","resources/trios/L1T2A3.jpg","39","restless",0.5,0.7,0.7,0.794920247695288,"false"
"image-keyboard-response",526,1737338,"0.0-4.171-1.171","9z1r0tjpthx1upo",664,"167.csv","","null","resources/maskTrios/BBA3.jpg","null","",NA,NA,NA,NA,""
"image-keyboard-response",527,1738544,"0.0-4.171-2.171","9z1r0tjpthx1upo",664,"167.csv","","null","resources/images/fishbone.png","null","",NA,NA,NA,NA,""
"image-keyboard-response",528,1738874,"0.0-4.172-0.172","9z1r0tjpthx1upo",664,"167.csv","","331.2000000476837","resources/trios/L1T2A3.jpg","39","restless",0.5,0.8,0.6,0.810012769755522,"false"
"image-keyboard-response",529,1739290,"0.0-4.172-1.172","9z1r0tjpthx1upo",664,"167.csv","","null","resources/maskTrios/BBA3.jpg","null","",NA,NA,NA,NA,""
"image-keyboard-response",530,1740518,"0.0-4.172-2.172","9z1r0tjpthx1upo",664,"167.csv","","null","resources/images/fishbone.png","null","",NA,NA,NA,NA,""
"image-keyboard-response",531,1740748,"0.0-4.173-0.173","9z1r0tjpthx1upo",664,"167.csv","","228.19999980926514","resources/trios/L1T2A3.jpg","39","restless",0.5,0.8,0.6,0.126401215544447,"true"
"image-keyboard-response",532,1741165,"0.0-4.173-1.173","9z1r0tjpthx1upo",664,"167.csv","","null","resources/maskTrios/BBA3.jpg","null","",NA,NA,NA,NA,""
"image-keyboard-response",533,1742376,"0.0-4.173-2.173","9z1r0tjpthx1upo",664,"167.csv","","null","resources/images/coin2.png","null","",NA,NA,NA,NA,""
"image-keyboard-response",534,1742822,"0.0-4.174-0.174","9z1r0tjpthx1upo",664,"167.csv","","445","resources/trios/L1T2A3.jpg","39","restless",0.5,0.8,0.6,0.711073621317016,"false"
"image-keyboard-response",535,1743228,"0.0-4.174-1.174","9z1r0tjpthx1upo",664,"167.csv","","null","resources/maskTrios/BBA3.jpg","null","",NA,NA,NA,NA,""
"image-keyboard-response",536,1744436,"0.0-4.174-2.174","9z1r0tjpthx1upo",664,"167.csv","","null","resources/images/fishbone.png","null","",NA,NA,NA,NA,""
"image-keyboard-response",537,1744717,"0.0-4.175-0.175","9z1r0tjpthx1upo",664,"167.csv","","279.09999990463257","resources/trios/L1T2A3.jpg","39","restless",0.5,0.8,0.6,0.976104969203618,"false"
"image-keyboard-response",538,1745135,"0.0-4.175-1.175","9z1r0tjpthx1upo",664,"167.csv","","null","resources/maskTrios/BBA3.jpg","null","",NA,NA,NA,NA,""
"image-keyboard-response",539,1746376,"0.0-4.175-2.175","9z1r0tjpthx1upo",664,"167.csv","","null","resources/images/fishbone.png","null","",NA,NA,NA,NA,""
"image-keyboard-response",540,1746933,"0.0-4.176-0.176","9z1r0tjpthx1upo",664,"167.csv","","555.8000001907349","resources/trios/L1T2A3.jpg","39","restless",0.5,0.8,0.6,0.899153147532381,"false"
"image-keyboard-response",541,1747341,"0.0-4.176-1.176","9z1r0tjpthx1upo",664,"167.csv","","null","resources/maskTrios/BBA3.jpg","null","",NA,NA,NA,NA,""
"image-keyboard-response",542,1748551,"0.0-4.176-2.176","9z1r0tjpthx1upo",664,"167.csv","","null","resources/images/fishbone.png","null","",NA,NA,NA,NA,""
"image-keyboard-response",543,1749020,"0.0-4.177-0.177","9z1r0tjpthx1upo",664,"167.csv","","467.7000000476837","resources/trios/L1T2A3.jpg","39","restless",0.5,0.7,0.5,0.119960852458119,"true"
"image-keyboard-response",544,1749437,"0.0-4.177-1.177","9z1r0tjpthx1upo",664,"167.csv","","null","resources/maskTrios/BBA3.jpg","null","",NA,NA,NA,NA,""
"image-keyboard-response",545,1750641,"0.0-4.177-2.177","9z1r0tjpthx1upo",664,"167.csv","","null","resources/images/coin2.png","null","",NA,NA,NA,NA,""
"image-keyboard-response",546,1751610,"0.0-4.178-0.178","9z1r0tjpthx1upo",664,"167.csv","","967.5999999046326","resources/trios/L1T2A3.jpg","39","restless",0.5,0.7,0.5,0.412480002891523,"true"
"image-keyboard-response",547,1752034,"0.0-4.178-1.178","9z1r0tjpthx1upo",664,"167.csv","","null","resources/maskTrios/BBA3.jpg","null","",NA,NA,NA,NA,""
"image-keyboard-response",548,1753269,"0.0-4.178-2.178","9z1r0tjpthx1upo",664,"167.csv","","null","resources/images/coin2.png","null","",NA,NA,NA,NA,""
"image-keyboard-response",549,1753515,"0.0-4.179-0.179","9z1r0tjpthx1upo",664,"167.csv","","243.79999995231628","resources/trios/L1T2A3.jpg","39","restless",0.5,0.6,0.5,0.0949588303225206,"true"
"image-keyboard-response",550,1753926,"0.0-4.179-1.179","9z1r0tjpthx1upo",664,"167.csv","","null","resources/maskTrios/BBA3.jpg","null","",NA,NA,NA,NA,""
"image-keyboard-response",551,1755132,"0.0-4.179-2.179","9z1r0tjpthx1upo",664,"167.csv","","null","resources/images/coin2.png","null","",NA,NA,NA,NA,""
"image-keyboard-response",552,1755736,"0.0-4.180-0.180","9z1r0tjpthx1upo",664,"167.csv","","602.2999999523163","resources/trios/L1T2A3.jpg","39","restless",0.5,0.6,0.5,0.482795897246133,"true"
"image-keyboard-response",553,1756151,"0.0-4.180-1.180","9z1r0tjpthx1upo",664,"167.csv","","null","resources/maskTrios/BBA3.jpg","null","",NA,NA,NA,NA,""
"image-keyboard-response",554,1757367,"0.0-4.180-2.180","9z1r0tjpthx1upo",664,"167.csv","","null","resources/images/coin2.png","null","",NA,NA,NA,NA,""
"image-keyboard-response",555,1757657,"0.0-4.181-0.181","9z1r0tjpthx1upo",664,"167.csv","","287.7000000476837","resources/trios/L1T2A3.jpg","39","restless",0.5,0.6,0.5,0.488918751400934,"true"
"image-keyboard-response",556,1758064,"0.0-4.181-1.181","9z1r0tjpthx1upo",664,"167.csv","","null","resources/maskTrios/BBA3.jpg","null","",NA,NA,NA,NA,""
"image-keyboard-response",557,1759297,"0.0-4.181-2.181","9z1r0tjpthx1upo",664,"167.csv","","null","resources/images/coin2.png","null","",NA,NA,NA,NA,""
"image-keyboard-response",558,1759353,"0.0-4.182-0.182","9z1r0tjpthx1upo",664,"167.csv","","54.09999990463257","resources/trios/L1T2A3.jpg","39","restless",0.5,0.6,0.5,0.242691073093753,"true"
"image-keyboard-response",559,1759771,"0.0-4.182-1.182","9z1r0tjpthx1upo",664,"167.csv","","null","resources/maskTrios/BBA3.jpg","null","",NA,NA,NA,NA,""
"image-keyboard-response",560,1760983,"0.0-4.182-2.182","9z1r0tjpthx1upo",664,"167.csv","","null","resources/images/coin2.png","null","",NA,NA,NA,NA,""
"image-keyboard-response",561,1761250,"0.0-4.183-0.183","9z1r0tjpthx1upo",664,"167.csv","","264.90000009536743","resources/trios/L1T2A3.jpg","39","restless",0.5,0.6,0.5,0.790206435278585,"false"
"image-keyboard-response",562,1761652,"0.0-4.183-1.183","9z1r0tjpthx1upo",664,"167.csv","","null","resources/maskTrios/BBA3.jpg","null","",NA,NA,NA,NA,""
"image-keyboard-response",563,1762862,"0.0-4.183-2.183","9z1r0tjpthx1upo",664,"167.csv","","null","resources/images/fishbone.png","null","",NA,NA,NA,NA,""
"image-keyboard-response",564,1763537,"0.0-4.184-0.184","9z1r0tjpthx1upo",664,"167.csv","","672.2999999523163","resources/trios/L1T2A3.jpg","39","restless",0.6,0.6,0.5,0.178326005065106,"true"
"image-keyboard-response",565,1763947,"0.0-4.184-1.184","9z1r0tjpthx1upo",664,"167.csv","","null","resources/maskTrios/BBA3.jpg","null","",NA,NA,NA,NA,""
"image-keyboard-response",566,1765179,"0.0-4.184-2.184","9z1r0tjpthx1upo",664,"167.csv","","null","resources/images/coin2.png","null","",NA,NA,NA,NA,""
"image-keyboard-response",567,1765803,"0.0-4.185-0.185","9z1r0tjpthx1upo",664,"167.csv","","621.4000000953674","resources/trios/L1T2A3.jpg","39","restless",0.6,0.6,0.5,0.541581005725941,"false"
"image-keyboard-response",568,1766213,"0.0-4.185-1.185","9z1r0tjpthx1upo",664,"167.csv","","null","resources/maskTrios/BBA3.jpg","null","",NA,NA,NA,NA,""
"image-keyboard-response",569,1767417,"0.0-4.185-2.185","9z1r0tjpthx1upo",664,"167.csv","","null","resources/images/fishbone.png","null","",NA,NA,NA,NA,""
"image-keyboard-response",570,1768006,"0.0-4.186-0.186","9z1r0tjpthx1upo",664,"167.csv","","586.1999998092651","resources/trios/L1T2A3.jpg","39","restless",0.6,0.6,0.5,0.761731859672643,"false"
"image-keyboard-response",571,1768414,"0.0-4.186-1.186","9z1r0tjpthx1upo",664,"167.csv","","null","resources/maskTrios/BBA3.jpg","null","",NA,NA,NA,NA,""
"image-keyboard-response",572,1769619,"0.0-4.186-2.186","9z1r0tjpthx1upo",664,"167.csv","","null","resources/images/fishbone.png","null","",NA,NA,NA,NA,""
"image-keyboard-response",573,1769882,"0.0-4.187-0.187","9z1r0tjpthx1upo",664,"167.csv","","262","resources/trios/L1T2A3.jpg","39","restless",0.6,0.6,0.5,0.722960597173221,"false"
"image-keyboard-response",574,1770293,"0.0-4.187-1.187","9z1r0tjpthx1upo",664,"167.csv","","null","resources/maskTrios/BBA3.jpg","null","",NA,NA,NA,NA,""
"image-keyboard-response",575,1771516,"0.0-4.187-2.187","9z1r0tjpthx1upo",664,"167.csv","","null","resources/images/fishbone.png","null","",NA,NA,NA,NA,""
"image-keyboard-response",576,1771766,"0.0-4.188-0.188","9z1r0tjpthx1upo",664,"167.csv","","247.09999990463257","resources/trios/L1T2A3.jpg","39","restless",0.6,0.6,0.5,0.09043429792825,"true"
"image-keyboard-response",577,1772175,"0.0-4.188-1.188","9z1r0tjpthx1upo",664,"167.csv","","null","resources/maskTrios/BBA3.jpg","null","",NA,NA,NA,NA,""
"image-keyboard-response",578,1773384,"0.0-4.188-2.188","9z1r0tjpthx1upo",664,"167.csv","","null","resources/images/coin2.png","null","",NA,NA,NA,NA,""
"image-keyboard-response",579,1773793,"0.0-4.189-0.189","9z1r0tjpthx1upo",664,"167.csv","","406.7999999523163","resources/trios/L1T2A3.jpg","39","restless",0.6,0.6,0.5,0.897747607524834,"false"
"image-keyboard-response",580,1774204,"0.0-4.189-1.189","9z1r0tjpthx1upo",664,"167.csv","","null","resources/maskTrios/BBA3.jpg","null","",NA,NA,NA,NA,""
"image-keyboard-response",581,1775408,"0.0-4.189-2.189","9z1r0tjpthx1upo",664,"167.csv","","null","resources/images/fishbone.png","null","",NA,NA,NA,NA,""
"image-keyboard-response",582,1775945,"0.0-4.190-0.190","9z1r0tjpthx1upo",664,"167.csv","","535.2000000476837","resources/trios/L1T2A3.jpg","39","restless",0.6,0.6,0.5,0.820182058247225,"false"
"image-keyboard-response",583,1776351,"0.0-4.190-1.190","9z1r0tjpthx1upo",664,"167.csv","","null","resources/maskTrios/BBA3.jpg","null","",NA,NA,NA,NA,""
"image-keyboard-response",584,1777569,"0.0-4.190-2.190","9z1r0tjpthx1upo",664,"167.csv","","null","resources/images/fishbone.png","null","",NA,NA,NA,NA,""
"image-keyboard-response",585,1778175,"0.0-4.191-0.191","9z1r0tjpthx1upo",664,"167.csv","","603","resources/trios/L1T2A3.jpg","39","restless",0.6,0.6,0.5,0.145932031569311,"true"
"image-keyboard-response",586,1778584,"0.0-4.191-1.191","9z1r0tjpthx1upo",664,"167.csv","","null","resources/maskTrios/BBA3.jpg","null","",NA,NA,NA,NA,""
"image-keyboard-response",587,1779802,"0.0-4.191-2.191","9z1r0tjpthx1upo",664,"167.csv","","null","resources/images/coin2.png","null","",NA,NA,NA,NA,""
"image-keyboard-response",588,1780551,"0.0-4.192-0.192","9z1r0tjpthx1upo",664,"167.csv","","747.2999999523163","resources/trios/L1T2A3.jpg","39","restless",0.6,0.6,0.5,0.661573773954181,"false"
"image-keyboard-response",589,1780961,"0.0-4.192-1.192","9z1r0tjpthx1upo",664,"167.csv","","null","resources/maskTrios/BBA3.jpg","null","",NA,NA,NA,NA,""
"image-keyboard-response",590,1782172,"0.0-4.192-2.192","9z1r0tjpthx1upo",664,"167.csv","","null","resources/images/fishbone.png","null","",NA,NA,NA,NA,""
"image-keyboard-response",591,1782201,"0.0-4.193-0.193","9z1r0tjpthx1upo",664,"167.csv","","26.199999809265137","resources/trios/L1T2A3.jpg","39","restless",0.5,0.6,0.4,0.692635666519715,"false"
"image-keyboard-response",592,1782609,"0.0-4.193-1.193","9z1r0tjpthx1upo",664,"167.csv","","null","resources/maskTrios/BBA3.jpg","null","",NA,NA,NA,NA,""
"image-keyboard-response",593,1783837,"0.0-4.193-2.193","9z1r0tjpthx1upo",664,"167.csv","","null","resources/images/fishbone.png","null","",NA,NA,NA,NA,""
"image-keyboard-response",594,1784188,"0.0-4.194-0.194","9z1r0tjpthx1upo",664,"167.csv","","348.7999999523163","resources/trios/L1T2A3.jpg","39","restless",0.5,0.6,0.4,0.942935407190016,"false"
"image-keyboard-response",595,1784596,"0.0-4.194-1.194","9z1r0tjpthx1upo",664,"167.csv","","null","resources/maskTrios/BBA3.jpg","null","",NA,NA,NA,NA,""
"image-keyboard-response",596,1785802,"0.0-4.194-2.194","9z1r0tjpthx1upo",664,"167.csv","","null","resources/images/fishbone.png","null","",NA,NA,NA,NA,""
"image-keyboard-response",597,1787784,"0.0-4.195-0.195","9z1r0tjpthx1upo",664,"167.csv","","1979.7999999523163","resources/trios/L1T2A3.jpg","39","restless",0.5,0.6,0.4,0.00833386339113051,"true"
"image-keyboard-response",598,1788192,"0.0-4.195-1.195","9z1r0tjpthx1upo",664,"167.csv","","null","resources/maskTrios/BBA3.jpg","null","",NA,NA,NA,NA,""
"image-keyboard-response",599,1789417,"0.0-4.195-2.195","9z1r0tjpthx1upo",664,"167.csv","","null","resources/images/coin2.png","null","",NA,NA,NA,NA,""
"image-keyboard-response",600,1789817,"0.0-4.196-0.196","9z1r0tjpthx1upo",664,"167.csv","","398.2000000476837","resources/trios/L1T2A3.jpg","39","restless",0.5,0.6,0.3,0.409242795818836,"false"
"image-keyboard-response",601,1790229,"0.0-4.196-1.196","9z1r0tjpthx1upo",664,"167.csv","","null","resources/maskTrios/BBA3.jpg","null","",NA,NA,NA,NA,""
"image-keyboard-response",602,1791433,"0.0-4.196-2.196","9z1r0tjpthx1upo",664,"167.csv","","null","resources/images/fishbone.png","null","",NA,NA,NA,NA,""
"image-keyboard-response",603,1791835,"0.0-4.197-0.197","9z1r0tjpthx1upo",664,"167.csv","","401","resources/trios/L1T2A3.jpg","39","restless",0.5,0.7,0.3,0.79463957863955,"false"
"image-keyboard-response",604,1792241,"0.0-4.197-1.197","9z1r0tjpthx1upo",664,"167.csv","","null","resources/maskTrios/BBA3.jpg","null","",NA,NA,NA,NA,""
"image-keyboard-response",605,1793446,"0.0-4.197-2.197","9z1r0tjpthx1upo",664,"167.csv","","null","resources/images/fishbone.png","null","",NA,NA,NA,NA,""
"image-keyboard-response",606,1793732,"0.0-4.198-0.198","9z1r0tjpthx1upo",664,"167.csv","","283.7000000476837","resources/trios/L1T2A3.jpg","39","restless",0.5,0.8,0.3,0.284389886934295,"true"
"image-keyboard-response",607,1794148,"0.0-4.198-1.198","9z1r0tjpthx1upo",664,"167.csv","","null","resources/maskTrios/BBA3.jpg","null","",NA,NA,NA,NA,""
