"trial_type","trial_index","time_elapsed","internal_node_id","subject","participantCode","walkNumber","success","rt","stimulus","key_press","test_part","leftProb","midProb","rightProb","generatedNum","correct"
"pavlovia",0,1253,"0.0-0.0","98dasxn7uooldze",268,"78.csv","","","","","",NA,NA,NA,NA,""
"fullscreen",1,5482,"0.0-1.0","98dasxn7uooldze",268,"78.csv","true","","","","",NA,NA,NA,NA,""
"survey-html-form",2,32299,"0.0-2.0","98dasxn7uooldze",268,"78.csv","","26814.099999904633","","","",NA,NA,NA,NA,""
"image-keyboard-response",3,47584,"0.0-3.0-0.0","98dasxn7uooldze",268,"78.csv","","15284.599999904633","resources/images/parrot_nobg.png","13","",NA,NA,NA,NA,""
"image-keyboard-response",4,50589,"0.0-3.0-1.0","98dasxn7uooldze",268,"78.csv","","null","resources/image_sets/111.png","null","",NA,NA,NA,NA,""
"image-keyboard-response",5,56831,"0.0-3.0-2.0","98dasxn7uooldze",268,"78.csv","","6240.300000190735","resources/image_sets/left_highlight.png","37","",NA,NA,NA,NA,""
"image-keyboard-response",6,59674,"0.0-3.0-3.0","98dasxn7uooldze",268,"78.csv","","2838.399999856949","resources/image_sets/mid_highlight.png","38","",NA,NA,NA,NA,""
"image-keyboard-response",7,60389,"0.0-3.0-4.0","98dasxn7uooldze",268,"78.csv","","714.7000000476837","resources/image_sets/right_highlight.png","39","",NA,NA,NA,NA,""
"image-keyboard-response",8,64166,"0.0-3.0-5.0","98dasxn7uooldze",268,"78.csv","","3776","resources/image_sets/111.png","13","",NA,NA,NA,NA,""
"image-keyboard-response",9,66856,"0.0-3.0-6.0","98dasxn7uooldze",268,"78.csv","","2688.4000000953674","resources/images/coin2.png","13","",NA,NA,NA,NA,""
"image-keyboard-response",10,68868,"0.0-3.0-7.0","98dasxn7uooldze",268,"78.csv","","2011.2999999523163","resources/images/fishbone.png","13","",NA,NA,NA,NA,""
"html-keyboard-response",11,78741,"0.0-3.0-8.0","98dasxn7uooldze",268,"78.csv","","9872.099999904633","<p>You can track your coin total on the top right of your screen. </p><p>At the end of your journey you will be directed to a survey, so please click on the link before exiting the task</p><p>Press Enter to begin</p>","13","",NA,NA,NA,NA,""
"image-keyboard-response",12,80132,"0.0-4.0-0.0","98dasxn7uooldze",268,"78.csv","","1390.1999998092651","resources/trios/L4T2A2.jpg","37","restless",0.7,0.9,0.3,0.405334190777966,"true"
"image-keyboard-response",13,80546,"0.0-4.0-1.0","98dasxn7uooldze",268,"78.csv","","null","resources/maskTrios/L4BB.jpg","null","",NA,NA,NA,NA,""
"image-keyboard-response",14,81750,"0.0-4.0-2.0","98dasxn7uooldze",268,"78.csv","","null","resources/images/coin2.png","null","",NA,NA,NA,NA,""
"image-keyboard-response",15,83680,"0.0-4.1-0.1","98dasxn7uooldze",268,"78.csv","","1928.5999999046326","resources/trios/L4T2A2.jpg","39","restless",0.7,0.9,0.3,0.989405869337941,"false"
"image-keyboard-response",16,84089,"0.0-4.1-1.1","98dasxn7uooldze",268,"78.csv","","null","resources/maskTrios/BBA2.jpg","null","",NA,NA,NA,NA,""
"image-keyboard-response",17,85304,"0.0-4.1-2.1","98dasxn7uooldze",268,"78.csv","","null","resources/images/fishbone.png","null","",NA,NA,NA,NA,""
"image-keyboard-response",18,86003,"0.0-4.2-0.2","98dasxn7uooldze",268,"78.csv","","697.4000000953674","resources/trios/L4T2A2.jpg","38","restless",0.7,0.9,0.2,0.0610200800457856,"true"
"image-keyboard-response",19,86407,"0.0-4.2-1.2","98dasxn7uooldze",268,"78.csv","","null","resources/maskTrios/BT2B.jpg","null","",NA,NA,NA,NA,""
"image-keyboard-response",20,87610,"0.0-4.2-2.2","98dasxn7uooldze",268,"78.csv","","null","resources/images/coin2.png","null","",NA,NA,NA,NA,""
"image-keyboard-response",21,87875,"0.0-4.3-0.3","98dasxn7uooldze",268,"78.csv","","260.89999985694885","resources/trios/L4T2A2.jpg","38","restless",0.7,0.9,0.2,0.650677894556698,"true"
"image-keyboard-response",22,88288,"0.0-4.3-1.3","98dasxn7uooldze",268,"78.csv","","null","resources/maskTrios/BT2B.jpg","null","",NA,NA,NA,NA,""
"image-keyboard-response",23,89502,"0.0-4.3-2.3","98dasxn7uooldze",268,"78.csv","","null","resources/images/coin2.png","null","",NA,NA,NA,NA,""
"image-keyboard-response",24,89696,"0.0-4.4-0.4","98dasxn7uooldze",268,"78.csv","","192.29999995231628","resources/trios/L4T2A2.jpg","38","restless",0.7,0.9,0.2,0.25254523545941,"true"
"image-keyboard-response",25,90101,"0.0-4.4-1.4","98dasxn7uooldze",268,"78.csv","","null","resources/maskTrios/BT2B.jpg","null","",NA,NA,NA,NA,""
"image-keyboard-response",26,91313,"0.0-4.4-2.4","98dasxn7uooldze",268,"78.csv","","null","resources/images/coin2.png","null","",NA,NA,NA,NA,""
"image-keyboard-response",27,91568,"0.0-4.5-0.5","98dasxn7uooldze",268,"78.csv","","252.80000019073486","resources/trios/L4T2A2.jpg","37","restless",0.7,0.9,0.2,0.562562564661396,"true"
"image-keyboard-response",28,91975,"0.0-4.5-1.5","98dasxn7uooldze",268,"78.csv","","null","resources/maskTrios/L4BB.jpg","null","",NA,NA,NA,NA,""
"image-keyboard-response",29,93183,"0.0-4.5-2.5","98dasxn7uooldze",268,"78.csv","","null","resources/images/coin2.png","null","",NA,NA,NA,NA,""
"image-keyboard-response",30,93455,"0.0-4.6-0.6","98dasxn7uooldze",268,"78.csv","","270.2000000476837","resources/trios/L4T2A2.jpg","39","restless",0.7,0.8,0.2,0.254951452459893,"false"
"image-keyboard-response",31,93859,"0.0-4.6-1.6","98dasxn7uooldze",268,"78.csv","","null","resources/maskTrios/BBA2.jpg","null","",NA,NA,NA,NA,""
"image-keyboard-response",32,95075,"0.0-4.6-2.6","98dasxn7uooldze",268,"78.csv","","null","resources/images/fishbone.png","null","",NA,NA,NA,NA,""
"image-keyboard-response",33,95180,"0.0-4.7-0.7","98dasxn7uooldze",268,"78.csv","","103.10000014305115","resources/trios/L4T2A2.jpg","39","restless",0.7,0.8,0.2,0.221101556417124,"false"
"image-keyboard-response",34,95596,"0.0-4.7-1.7","98dasxn7uooldze",268,"78.csv","","null","resources/maskTrios/BBA2.jpg","null","",NA,NA,NA,NA,""
"image-keyboard-response",35,96800,"0.0-4.7-2.7","98dasxn7uooldze",268,"78.csv","","null","resources/images/fishbone.png","null","",NA,NA,NA,NA,""
"image-keyboard-response",36,97033,"0.0-4.8-0.8","98dasxn7uooldze",268,"78.csv","","231.69999980926514","resources/trios/L4T2A2.jpg","39","restless",0.7,0.8,0.2,0.24126298338403,"false"
"image-keyboard-response",37,97437,"0.0-4.8-1.8","98dasxn7uooldze",268,"78.csv","","null","resources/maskTrios/BBA2.jpg","null","",NA,NA,NA,NA,""
"image-keyboard-response",38,98641,"0.0-4.8-2.8","98dasxn7uooldze",268,"78.csv","","null","resources/images/fishbone.png","null","",NA,NA,NA,NA,""
"image-keyboard-response",39,98978,"0.0-4.9-0.9","98dasxn7uooldze",268,"78.csv","","335.89999985694885","resources/trios/L4T2A2.jpg","37","restless",0.7,0.8,0.3,0.70844768559175,"false"
"image-keyboard-response",40,99384,"0.0-4.9-1.9","98dasxn7uooldze",268,"78.csv","","null","resources/maskTrios/L4BB.jpg","null","",NA,NA,NA,NA,""
"image-keyboard-response",41,100591,"0.0-4.9-2.9","98dasxn7uooldze",268,"78.csv","","null","resources/images/fishbone.png","null","",NA,NA,NA,NA,""
"image-keyboard-response",42,100756,"0.0-4.10-0.10","98dasxn7uooldze",268,"78.csv","","164.10000014305115","resources/trios/L4T2A2.jpg","38","restless",0.7,0.8,0.4,0.265277456163047,"true"
"image-keyboard-response",43,101163,"0.0-4.10-1.10","98dasxn7uooldze",268,"78.csv","","null","resources/maskTrios/BT2B.jpg","null","",NA,NA,NA,NA,""
"image-keyboard-response",44,102367,"0.0-4.10-2.10","98dasxn7uooldze",268,"78.csv","","null","resources/images/coin2.png","null","",NA,NA,NA,NA,""
"image-keyboard-response",45,102704,"0.0-4.11-0.11","98dasxn7uooldze",268,"78.csv","","336","resources/trios/L4T2A2.jpg","38","restless",0.7,0.8,0.4,0.217190359211103,"true"
"image-keyboard-response",46,103117,"0.0-4.11-1.11","98dasxn7uooldze",268,"78.csv","","null","resources/maskTrios/BT2B.jpg","null","",NA,NA,NA,NA,""
"image-keyboard-response",47,104327,"0.0-4.11-2.11","98dasxn7uooldze",268,"78.csv","","null","resources/images/coin2.png","null","",NA,NA,NA,NA,""
"image-keyboard-response",48,104719,"0.0-4.12-0.12","98dasxn7uooldze",268,"78.csv","","391","resources/trios/L4T2A2.jpg","38","restless",0.8,0.8,0.4,0.954555065136515,"false"
"image-keyboard-response",49,105134,"0.0-4.12-1.12","98dasxn7uooldze",268,"78.csv","","null","resources/maskTrios/BT2B.jpg","null","",NA,NA,NA,NA,""
"image-keyboard-response",50,106337,"0.0-4.12-2.12","98dasxn7uooldze",268,"78.csv","","null","resources/images/fishbone.png","null","",NA,NA,NA,NA,""
"image-keyboard-response",51,106553,"0.0-4.13-0.13","98dasxn7uooldze",268,"78.csv","","214.79999995231628","resources/trios/L4T2A2.jpg","37","restless",0.8,0.8,0.4,0.702602139989483,"true"
"image-keyboard-response",52,106969,"0.0-4.13-1.13","98dasxn7uooldze",268,"78.csv","","null","resources/maskTrios/L4BB.jpg","null","",NA,NA,NA,NA,""
"image-keyboard-response",53,108174,"0.0-4.13-2.13","98dasxn7uooldze",268,"78.csv","","null","resources/images/coin2.png","null","",NA,NA,NA,NA,""
"image-keyboard-response",54,108573,"0.0-4.14-0.14","98dasxn7uooldze",268,"78.csv","","398.09999990463257","resources/trios/L4T2A2.jpg","37","restless",0.8,0.8,0.4,0.176578447611633,"true"
"image-keyboard-response",55,108979,"0.0-4.14-1.14","98dasxn7uooldze",268,"78.csv","","null","resources/maskTrios/L4BB.jpg","null","",NA,NA,NA,NA,""
"image-keyboard-response",56,110194,"0.0-4.14-2.14","98dasxn7uooldze",268,"78.csv","","null","resources/images/coin2.png","null","",NA,NA,NA,NA,""
"image-keyboard-response",57,110415,"0.0-4.15-0.15","98dasxn7uooldze",268,"78.csv","","219.70000004768372","resources/trios/L4T2A2.jpg","37","restless",0.8,0.8,0.4,0.564747258256341,"true"
"image-keyboard-response",58,110830,"0.0-4.15-1.15","98dasxn7uooldze",268,"78.csv","","null","resources/maskTrios/L4BB.jpg","null","",NA,NA,NA,NA,""
"image-keyboard-response",59,112044,"0.0-4.15-2.15","98dasxn7uooldze",268,"78.csv","","null","resources/images/coin2.png","null","",NA,NA,NA,NA,""
"image-keyboard-response",60,112073,"0.0-4.16-0.16","98dasxn7uooldze",268,"78.csv","","27.799999952316284","resources/trios/L4T2A2.jpg","39","restless",0.8,0.8,0.4,0.0134699556925719,"true"
"image-keyboard-response",61,112483,"0.0-4.16-1.16","98dasxn7uooldze",268,"78.csv","","null","resources/maskTrios/BBA2.jpg","null","",NA,NA,NA,NA,""
"image-keyboard-response",62,113689,"0.0-4.16-2.16","98dasxn7uooldze",268,"78.csv","","null","resources/images/coin2.png","null","",NA,NA,NA,NA,""
"image-keyboard-response",63,114505,"0.0-4.17-0.17","98dasxn7uooldze",268,"78.csv","","815.2000000476837","resources/trios/L4T2A2.jpg","38","restless",0.8,0.8,0.4,0.524212808458161,"true"
"image-keyboard-response",64,114911,"0.0-4.17-1.17","98dasxn7uooldze",268,"78.csv","","null","resources/maskTrios/BT2B.jpg","null","",NA,NA,NA,NA,""
"image-keyboard-response",65,116116,"0.0-4.17-2.17","98dasxn7uooldze",268,"78.csv","","null","resources/images/coin2.png","null","",NA,NA,NA,NA,""
"image-keyboard-response",66,116356,"0.0-4.18-0.18","98dasxn7uooldze",268,"78.csv","","238.5","resources/trios/L4T2A2.jpg","39","restless",0.8,0.8,0.4,0.410323637579412,"false"
"image-keyboard-response",67,116762,"0.0-4.18-1.18","98dasxn7uooldze",268,"78.csv","","null","resources/maskTrios/BBA2.jpg","null","",NA,NA,NA,NA,""
"image-keyboard-response",68,117976,"0.0-4.18-2.18","98dasxn7uooldze",268,"78.csv","","null","resources/images/fishbone.png","null","",NA,NA,NA,NA,""
"image-keyboard-response",69,118369,"0.0-4.19-0.19","98dasxn7uooldze",268,"78.csv","","391.39999985694885","resources/trios/L4T2A2.jpg","37","restless",0.8,0.8,0.5,0.357477417307553,"true"
"image-keyboard-response",70,118779,"0.0-4.19-1.19","98dasxn7uooldze",268,"78.csv","","null","resources/maskTrios/L4BB.jpg","null","",NA,NA,NA,NA,""
"image-keyboard-response",71,119990,"0.0-4.19-2.19","98dasxn7uooldze",268,"78.csv","","null","resources/images/coin2.png","null","",NA,NA,NA,NA,""
"image-keyboard-response",72,120402,"0.0-4.20-0.20","98dasxn7uooldze",268,"78.csv","","410.10000014305115","resources/trios/L4T2A2.jpg","37","restless",0.8,0.8,0.5,0.428592798180609,"true"
"image-keyboard-response",73,120805,"0.0-4.20-1.20","98dasxn7uooldze",268,"78.csv","","null","resources/maskTrios/L4BB.jpg","null","",NA,NA,NA,NA,""
"image-keyboard-response",74,122014,"0.0-4.20-2.20","98dasxn7uooldze",268,"78.csv","","null","resources/images/coin2.png","null","",NA,NA,NA,NA,""
"image-keyboard-response",75,122283,"0.0-4.21-0.21","98dasxn7uooldze",268,"78.csv","","268","resources/trios/L4T2A2.jpg","37","restless",0.8,0.8,0.5,0.779505865390824,"true"
"image-keyboard-response",76,122692,"0.0-4.21-1.21","98dasxn7uooldze",268,"78.csv","","null","resources/maskTrios/L4BB.jpg","null","",NA,NA,NA,NA,""
"image-keyboard-response",77,123897,"0.0-4.21-2.21","98dasxn7uooldze",268,"78.csv","","null","resources/images/coin2.png","null","",NA,NA,NA,NA,""
"image-keyboard-response",78,124043,"0.0-4.22-0.22","98dasxn7uooldze",268,"78.csv","","144.09999990463257","resources/trios/L4T2A2.jpg","39","restless",0.8,0.8,0.5,0.861784462729178,"false"
"image-keyboard-response",79,124447,"0.0-4.22-1.22","98dasxn7uooldze",268,"78.csv","","null","resources/maskTrios/BBA2.jpg","null","",NA,NA,NA,NA,""
"image-keyboard-response",80,125662,"0.0-4.22-2.22","98dasxn7uooldze",268,"78.csv","","null","resources/images/fishbone.png","null","",NA,NA,NA,NA,""
"image-keyboard-response",81,125957,"0.0-4.23-0.23","98dasxn7uooldze",268,"78.csv","","293.7999999523163","resources/trios/L4T2A2.jpg","38","restless",0.8,0.7,0.5,0.719523880437867,"false"
"image-keyboard-response",82,126370,"0.0-4.23-1.23","98dasxn7uooldze",268,"78.csv","","null","resources/maskTrios/BT2B.jpg","null","",NA,NA,NA,NA,""
"image-keyboard-response",83,127585,"0.0-4.23-2.23","98dasxn7uooldze",268,"78.csv","","null","resources/images/fishbone.png","null","",NA,NA,NA,NA,""
"image-keyboard-response",84,127802,"0.0-4.24-0.24","98dasxn7uooldze",268,"78.csv","","215.79999995231628","resources/trios/L4T2A2.jpg","37","restless",0.8,0.7,0.5,0.974917326345603,"false"
"image-keyboard-response",85,128213,"0.0-4.24-1.24","98dasxn7uooldze",268,"78.csv","","null","resources/maskTrios/L4BB.jpg","null","",NA,NA,NA,NA,""
"image-keyboard-response",86,129421,"0.0-4.24-2.24","98dasxn7uooldze",268,"78.csv","","null","resources/images/fishbone.png","null","",NA,NA,NA,NA,""
"image-keyboard-response",87,129612,"0.0-4.25-0.25","98dasxn7uooldze",268,"78.csv","","189.39999985694885","resources/trios/L4T2A2.jpg","37","restless",0.9,0.7,0.5,0.520584388054425,"true"
"image-keyboard-response",88,130026,"0.0-4.25-1.25","98dasxn7uooldze",268,"78.csv","","null","resources/maskTrios/L4BB.jpg","null","",NA,NA,NA,NA,""
"image-keyboard-response",89,131230,"0.0-4.25-2.25","98dasxn7uooldze",268,"78.csv","","null","resources/images/coin2.png","null","",NA,NA,NA,NA,""
"image-keyboard-response",90,131233,"0.0-4.26-0.26","98dasxn7uooldze",268,"78.csv","","1.5","resources/trios/L4T2A2.jpg","37","restless",0.9,0.7,0.5,0.725036078951339,"true"
"image-keyboard-response",91,131640,"0.0-4.26-1.26","98dasxn7uooldze",268,"78.csv","","null","resources/maskTrios/L4BB.jpg","null","",NA,NA,NA,NA,""
"image-keyboard-response",92,132850,"0.0-4.26-2.26","98dasxn7uooldze",268,"78.csv","","null","resources/images/coin2.png","null","",NA,NA,NA,NA,""
"image-keyboard-response",93,133076,"0.0-4.27-0.27","98dasxn7uooldze",268,"78.csv","","225","resources/trios/L4T2A2.jpg","37","restless",0.9,0.7,0.5,0.818274197146007,"true"
"image-keyboard-response",94,133490,"0.0-4.27-1.27","98dasxn7uooldze",268,"78.csv","","null","resources/maskTrios/L4BB.jpg","null","",NA,NA,NA,NA,""
"image-keyboard-response",95,134703,"0.0-4.27-2.27","98dasxn7uooldze",268,"78.csv","","null","resources/images/coin2.png","null","",NA,NA,NA,NA,""
"image-keyboard-response",96,134804,"0.0-4.28-0.28","98dasxn7uooldze",268,"78.csv","","99.70000004768372","resources/trios/L4T2A2.jpg","37","restless",0.9,0.7,0.5,0.873489787995173,"true"
"image-keyboard-response",97,135216,"0.0-4.28-1.28","98dasxn7uooldze",268,"78.csv","","null","resources/maskTrios/L4BB.jpg","null","",NA,NA,NA,NA,""
"image-keyboard-response",98,136425,"0.0-4.28-2.28","98dasxn7uooldze",268,"78.csv","","null","resources/images/coin2.png","null","",NA,NA,NA,NA,""
"image-keyboard-response",99,136629,"0.0-4.29-0.29","98dasxn7uooldze",268,"78.csv","","202.89999985694885","resources/trios/L4T2A2.jpg","39","restless",0.9,0.7,0.5,0.00920316474299754,"true"
"image-keyboard-response",100,137037,"0.0-4.29-1.29","98dasxn7uooldze",268,"78.csv","","null","resources/maskTrios/BBA2.jpg","null","",NA,NA,NA,NA,""
"image-keyboard-response",101,138241,"0.0-4.29-2.29","98dasxn7uooldze",268,"78.csv","","null","resources/images/coin2.png","null","",NA,NA,NA,NA,""
"image-keyboard-response",102,138422,"0.0-4.30-0.30","98dasxn7uooldze",268,"78.csv","","179.69999980926514","resources/trios/L4T2A2.jpg","39","restless",0.9,0.7,0.5,0.129992172576388,"true"
"image-keyboard-response",103,138831,"0.0-4.30-1.30","98dasxn7uooldze",268,"78.csv","","null","resources/maskTrios/BBA2.jpg","null","",NA,NA,NA,NA,""
"image-keyboard-response",104,140042,"0.0-4.30-2.30","98dasxn7uooldze",268,"78.csv","","null","resources/images/coin2.png","null","",NA,NA,NA,NA,""
"image-keyboard-response",105,140267,"0.0-4.31-0.31","98dasxn7uooldze",268,"78.csv","","224","resources/trios/L4T2A2.jpg","38","restless",0.9,0.7,0.5,0.774044154510609,"false"
"image-keyboard-response",106,140671,"0.0-4.31-1.31","98dasxn7uooldze",268,"78.csv","","null","resources/maskTrios/BT2B.jpg","null","",NA,NA,NA,NA,""
"image-keyboard-response",107,141874,"0.0-4.31-2.31","98dasxn7uooldze",268,"78.csv","","null","resources/images/fishbone.png","null","",NA,NA,NA,NA,""
"image-keyboard-response",108,142088,"0.0-4.32-0.32","98dasxn7uooldze",268,"78.csv","","213.39999985694885","resources/trios/L4T2A2.jpg","38","restless",0.9,0.8,0.5,0.254162671554336,"true"
"image-keyboard-response",109,142494,"0.0-4.32-1.32","98dasxn7uooldze",268,"78.csv","","null","resources/maskTrios/BT2B.jpg","null","",NA,NA,NA,NA,""
"image-keyboard-response",110,143696,"0.0-4.32-2.32","98dasxn7uooldze",268,"78.csv","","null","resources/images/coin2.png","null","",NA,NA,NA,NA,""
"image-keyboard-response",111,143919,"0.0-4.33-0.33","98dasxn7uooldze",268,"78.csv","","221.79999995231628","resources/trios/L4T2A2.jpg","38","restless",0.9,0.8,0.5,0.1660513404833,"true"
"image-keyboard-response",112,144325,"0.0-4.33-1.33","98dasxn7uooldze",268,"78.csv","","null","resources/maskTrios/BT2B.jpg","null","",NA,NA,NA,NA,""
"image-keyboard-response",113,145540,"0.0-4.33-2.33","98dasxn7uooldze",268,"78.csv","","null","resources/images/coin2.png","null","",NA,NA,NA,NA,""
"image-keyboard-response",114,145797,"0.0-4.34-0.34","98dasxn7uooldze",268,"78.csv","","256.2999999523163","resources/trios/L4T2A2.jpg","38","restless",0.9,0.8,0.5,0.956666467180342,"false"
"image-keyboard-response",115,146201,"0.0-4.34-1.34","98dasxn7uooldze",268,"78.csv","","null","resources/maskTrios/BT2B.jpg","null","",NA,NA,NA,NA,""
"image-keyboard-response",116,147414,"0.0-4.34-2.34","98dasxn7uooldze",268,"78.csv","","null","resources/images/fishbone.png","null","",NA,NA,NA,NA,""
"image-keyboard-response",117,147898,"0.0-4.35-0.35","98dasxn7uooldze",268,"78.csv","","482.7000000476837","resources/trios/L4T2A2.jpg","37","restless",0.9,0.8,0.5,0.0190326910699505,"true"
"image-keyboard-response",118,148300,"0.0-4.35-1.35","98dasxn7uooldze",268,"78.csv","","null","resources/maskTrios/L4BB.jpg","null","",NA,NA,NA,NA,""
"image-keyboard-response",119,149502,"0.0-4.35-2.35","98dasxn7uooldze",268,"78.csv","","null","resources/images/coin2.png","null","",NA,NA,NA,NA,""
"image-keyboard-response",120,149919,"0.0-4.36-0.36","98dasxn7uooldze",268,"78.csv","","415.2000000476837","resources/trios/L4T2A2.jpg","37","restless",0.9,0.8,0.6,0.903614857688758,"false"
"image-keyboard-response",121,150331,"0.0-4.36-1.36","98dasxn7uooldze",268,"78.csv","","null","resources/maskTrios/L4BB.jpg","null","",NA,NA,NA,NA,""
"image-keyboard-response",122,151547,"0.0-4.36-2.36","98dasxn7uooldze",268,"78.csv","","null","resources/images/fishbone.png","null","",NA,NA,NA,NA,""
"image-keyboard-response",123,151883,"0.0-4.37-0.37","98dasxn7uooldze",268,"78.csv","","334.40000009536743","resources/trios/L4T2A2.jpg","39","restless",0.8,0.7,0.6,0.0682346014639286,"true"
"image-keyboard-response",124,152289,"0.0-4.37-1.37","98dasxn7uooldze",268,"78.csv","","null","resources/maskTrios/BBA2.jpg","null","",NA,NA,NA,NA,""
"image-keyboard-response",125,153499,"0.0-4.37-2.37","98dasxn7uooldze",268,"78.csv","","null","resources/images/coin2.png","null","",NA,NA,NA,NA,""
"image-keyboard-response",126,153754,"0.0-4.38-0.38","98dasxn7uooldze",268,"78.csv","","254.09999990463257","resources/trios/L4T2A2.jpg","39","restless",0.8,0.7,0.6,0.598114747897726,"true"
"image-keyboard-response",127,154160,"0.0-4.38-1.38","98dasxn7uooldze",268,"78.csv","","null","resources/maskTrios/BBA2.jpg","null","",NA,NA,NA,NA,""
"image-keyboard-response",128,155362,"0.0-4.38-2.38","98dasxn7uooldze",268,"78.csv","","null","resources/images/coin2.png","null","",NA,NA,NA,NA,""
"image-keyboard-response",129,155495,"0.0-4.39-0.39","98dasxn7uooldze",268,"78.csv","","131.79999995231628","resources/trios/L4T2A2.jpg","38","restless",0.8,0.7,0.6,0.689966533587852,"true"
"image-keyboard-response",130,155899,"0.0-4.39-1.39","98dasxn7uooldze",268,"78.csv","","null","resources/maskTrios/BT2B.jpg","null","",NA,NA,NA,NA,""
"image-keyboard-response",131,157113,"0.0-4.39-2.39","98dasxn7uooldze",268,"78.csv","","null","resources/images/coin2.png","null","",NA,NA,NA,NA,""
"image-keyboard-response",132,157179,"0.0-4.40-0.40","98dasxn7uooldze",268,"78.csv","","64.39999985694885","resources/trios/L4T2A2.jpg","38","restless",0.8,0.7,0.6,0.343320205274654,"true"
"image-keyboard-response",133,157586,"0.0-4.40-1.40","98dasxn7uooldze",268,"78.csv","","null","resources/maskTrios/BT2B.jpg","null","",NA,NA,NA,NA,""
"image-keyboard-response",134,158788,"0.0-4.40-2.40","98dasxn7uooldze",268,"78.csv","","null","resources/images/coin2.png","null","",NA,NA,NA,NA,""
"image-keyboard-response",135,158837,"0.0-4.41-0.41","98dasxn7uooldze",268,"78.csv","","47.09999990463257","resources/trios/L4T2A2.jpg","38","restless",0.7,0.7,0.6,0.0807946700867317,"true"
"image-keyboard-response",136,159244,"0.0-4.41-1.41","98dasxn7uooldze",268,"78.csv","","null","resources/maskTrios/BT2B.jpg","null","",NA,NA,NA,NA,""
"image-keyboard-response",137,160448,"0.0-4.41-2.41","98dasxn7uooldze",268,"78.csv","","null","resources/images/coin2.png","null","",NA,NA,NA,NA,""
"image-keyboard-response",138,162196,"0.0-4.42-0.42","98dasxn7uooldze",268,"78.csv","","1747.1000001430511","resources/trios/L4T2A2.jpg","39","restless",0.7,0.7,0.6,0.0298387326789396,"true"
"image-keyboard-response",139,162614,"0.0-4.42-1.42","98dasxn7uooldze",268,"78.csv","","null","resources/maskTrios/BBA2.jpg","null","",NA,NA,NA,NA,""
"image-keyboard-response",140,163822,"0.0-4.42-2.42","98dasxn7uooldze",268,"78.csv","","null","resources/images/coin2.png","null","",NA,NA,NA,NA,""
"image-keyboard-response",141,164460,"0.0-4.43-0.43","98dasxn7uooldze",268,"78.csv","","636.5","resources/trios/L4T2A2.jpg","39","restless",0.7,0.7,0.6,0.0529360553636338,"true"
"image-keyboard-response",142,164865,"0.0-4.43-1.43","98dasxn7uooldze",268,"78.csv","","null","resources/maskTrios/BBA2.jpg","null","",NA,NA,NA,NA,""
"image-keyboard-response",143,166078,"0.0-4.43-2.43","98dasxn7uooldze",268,"78.csv","","null","resources/images/coin2.png","null","",NA,NA,NA,NA,""
"image-keyboard-response",144,166740,"0.0-4.44-0.44","98dasxn7uooldze",268,"78.csv","","661.5","resources/trios/L4T2A2.jpg","37","restless",0.7,0.6,0.6,0.787682053845759,"false"
"image-keyboard-response",145,167151,"0.0-4.44-1.44","98dasxn7uooldze",268,"78.csv","","null","resources/maskTrios/L4BB.jpg","null","",NA,NA,NA,NA,""
"image-keyboard-response",146,168360,"0.0-4.44-2.44","98dasxn7uooldze",268,"78.csv","","null","resources/images/fishbone.png","null","",NA,NA,NA,NA,""
"image-keyboard-response",147,168856,"0.0-4.45-0.45","98dasxn7uooldze",268,"78.csv","","494.7999999523163","resources/trios/L4T2A2.jpg","38","restless",0.7,0.6,0.6,0.158542860519131,"true"
"image-keyboard-response",148,169258,"0.0-4.45-1.45","98dasxn7uooldze",268,"78.csv","","null","resources/maskTrios/BT2B.jpg","null","",NA,NA,NA,NA,""
"image-keyboard-response",149,170461,"0.0-4.45-2.45","98dasxn7uooldze",268,"78.csv","","null","resources/images/coin2.png","null","",NA,NA,NA,NA,""
"image-keyboard-response",150,171559,"0.0-4.46-0.46","98dasxn7uooldze",268,"78.csv","","1097.0999999046326","resources/trios/L4T2A2.jpg","38","restless",0.7,0.6,0.6,0.242639612249002,"true"
"image-keyboard-response",151,171965,"0.0-4.46-1.46","98dasxn7uooldze",268,"78.csv","","null","resources/maskTrios/BT2B.jpg","null","",NA,NA,NA,NA,""
"image-keyboard-response",152,173171,"0.0-4.46-2.46","98dasxn7uooldze",268,"78.csv","","null","resources/images/coin2.png","null","",NA,NA,NA,NA,""
"image-keyboard-response",153,173649,"0.0-4.47-0.47","98dasxn7uooldze",268,"78.csv","","476.80000019073486","resources/trios/L4T2A2.jpg","39","restless",0.7,0.7,0.6,0.689678123752484,"false"
"image-keyboard-response",154,174052,"0.0-4.47-1.47","98dasxn7uooldze",268,"78.csv","","null","resources/maskTrios/BBA2.jpg","null","",NA,NA,NA,NA,""
"image-keyboard-response",155,175269,"0.0-4.47-2.47","98dasxn7uooldze",268,"78.csv","","null","resources/images/fishbone.png","null","",NA,NA,NA,NA,""
"image-keyboard-response",156,175644,"0.0-4.48-0.48","98dasxn7uooldze",268,"78.csv","","373.30000019073486","resources/trios/L4T2A2.jpg","37","restless",0.7,0.7,0.5,0.459753821051886,"true"
"image-keyboard-response",157,176054,"0.0-4.48-1.48","98dasxn7uooldze",268,"78.csv","","null","resources/maskTrios/L4BB.jpg","null","",NA,NA,NA,NA,""
"image-keyboard-response",158,177270,"0.0-4.48-2.48","98dasxn7uooldze",268,"78.csv","","null","resources/images/coin2.png","null","",NA,NA,NA,NA,""
"image-keyboard-response",159,177425,"0.0-4.49-0.49","98dasxn7uooldze",268,"78.csv","","153.90000009536743","resources/trios/L4T2A2.jpg","37","restless",0.7,0.7,0.5,0.50084126374154,"true"
"image-keyboard-response",160,177838,"0.0-4.49-1.49","98dasxn7uooldze",268,"78.csv","","null","resources/maskTrios/L4BB.jpg","null","",NA,NA,NA,NA,""
"image-keyboard-response",161,179054,"0.0-4.49-2.49","98dasxn7uooldze",268,"78.csv","","null","resources/images/coin2.png","null","",NA,NA,NA,NA,""
"image-keyboard-response",162,179280,"0.0-4.50-0.50","98dasxn7uooldze",268,"78.csv","","224.20000004768372","resources/trios/L4T2A2.jpg","38","restless",0.7,0.7,0.5,0.174652578425337,"true"
"image-keyboard-response",163,179685,"0.0-4.50-1.50","98dasxn7uooldze",268,"78.csv","","null","resources/maskTrios/BT2B.jpg","null","",NA,NA,NA,NA,""
"image-keyboard-response",164,180898,"0.0-4.50-2.50","98dasxn7uooldze",268,"78.csv","","null","resources/images/coin2.png","null","",NA,NA,NA,NA,""
"image-keyboard-response",165,181043,"0.0-4.51-0.51","98dasxn7uooldze",268,"78.csv","","143.29999995231628","resources/trios/L4T2A2.jpg","38","restless",0.6,0.7,0.5,0.757037763946922,"false"
"image-keyboard-response",166,181450,"0.0-4.51-1.51","98dasxn7uooldze",268,"78.csv","","null","resources/maskTrios/BT2B.jpg","null","",NA,NA,NA,NA,""
"image-keyboard-response",167,182666,"0.0-4.51-2.51","98dasxn7uooldze",268,"78.csv","","null","resources/images/fishbone.png","null","",NA,NA,NA,NA,""
"image-keyboard-response",168,183227,"0.0-4.52-0.52","98dasxn7uooldze",268,"78.csv","","559.8000001907349","resources/trios/L4T2A2.jpg","38","restless",0.5,0.7,0.5,0.263756383423229,"true"
"image-keyboard-response",169,183631,"0.0-4.52-1.52","98dasxn7uooldze",268,"78.csv","","null","resources/maskTrios/BT2B.jpg","null","",NA,NA,NA,NA,""
"image-keyboard-response",170,184833,"0.0-4.52-2.52","98dasxn7uooldze",268,"78.csv","","null","resources/images/coin2.png","null","",NA,NA,NA,NA,""
"image-keyboard-response",171,185279,"0.0-4.53-0.53","98dasxn7uooldze",268,"78.csv","","444.90000009536743","resources/trios/L4T2A2.jpg","38","restless",0.5,0.7,0.5,0.425560489996985,"true"
"image-keyboard-response",172,185694,"0.0-4.53-1.53","98dasxn7uooldze",268,"78.csv","","null","resources/maskTrios/BT2B.jpg","null","",NA,NA,NA,NA,""
"image-keyboard-response",173,186907,"0.0-4.53-2.53","98dasxn7uooldze",268,"78.csv","","null","resources/images/coin2.png","null","",NA,NA,NA,NA,""
"image-keyboard-response",174,187135,"0.0-4.54-0.54","98dasxn7uooldze",268,"78.csv","","226.5","resources/trios/L4T2A2.jpg","38","restless",0.5,0.7,0.5,0.351408169417786,"true"
"image-keyboard-response",175,187540,"0.0-4.54-1.54","98dasxn7uooldze",268,"78.csv","","null","resources/maskTrios/BT2B.jpg","null","",NA,NA,NA,NA,""
"image-keyboard-response",176,188741,"0.0-4.54-2.54","98dasxn7uooldze",268,"78.csv","","null","resources/images/coin2.png","null","",NA,NA,NA,NA,""
"image-keyboard-response",177,189149,"0.0-4.55-0.55","98dasxn7uooldze",268,"78.csv","","405.7999999523163","resources/trios/L4T2A2.jpg","38","restless",0.5,0.7,0.5,0.752646383040667,"false"
"image-keyboard-response",178,189557,"0.0-4.55-1.55","98dasxn7uooldze",268,"78.csv","","null","resources/maskTrios/BT2B.jpg","null","",NA,NA,NA,NA,""
"image-keyboard-response",179,190767,"0.0-4.55-2.55","98dasxn7uooldze",268,"78.csv","","null","resources/images/fishbone.png","null","",NA,NA,NA,NA,""
"image-keyboard-response",180,190850,"0.0-4.56-0.56","98dasxn7uooldze",268,"78.csv","","81.29999995231628","resources/trios/L4T2A2.jpg","39","restless",0.5,0.7,0.5,0.966821025071466,"false"
"image-keyboard-response",181,191262,"0.0-4.56-1.56","98dasxn7uooldze",268,"78.csv","","null","resources/maskTrios/BBA2.jpg","null","",NA,NA,NA,NA,""
"image-keyboard-response",182,192468,"0.0-4.56-2.56","98dasxn7uooldze",268,"78.csv","","null","resources/images/fishbone.png","null","",NA,NA,NA,NA,""
"image-keyboard-response",183,192666,"0.0-4.57-0.57","98dasxn7uooldze",268,"78.csv","","196.79999995231628","resources/trios/L4T2A2.jpg","37","restless",0.5,0.6,0.5,0.839449533928495,"false"
"image-keyboard-response",184,193069,"0.0-4.57-1.57","98dasxn7uooldze",268,"78.csv","","null","resources/maskTrios/L4BB.jpg","null","",NA,NA,NA,NA,""
"image-keyboard-response",185,194278,"0.0-4.57-2.57","98dasxn7uooldze",268,"78.csv","","null","resources/images/fishbone.png","null","",NA,NA,NA,NA,""
"image-keyboard-response",186,194312,"0.0-4.58-0.58","98dasxn7uooldze",268,"78.csv","","32.19999980926514","resources/trios/L4T2A2.jpg","37","restless",0.5,0.6,0.5,0.481055296192041,"true"
"image-keyboard-response",187,194725,"0.0-4.58-1.58","98dasxn7uooldze",268,"78.csv","","null","resources/maskTrios/L4BB.jpg","null","",NA,NA,NA,NA,""
"image-keyboard-response",188,195935,"0.0-4.58-2.58","98dasxn7uooldze",268,"78.csv","","null","resources/images/coin2.png","null","",NA,NA,NA,NA,""
"image-keyboard-response",189,196133,"0.0-4.59-0.59","98dasxn7uooldze",268,"78.csv","","196.90000009536743","resources/trios/L4T2A2.jpg","39","restless",0.5,0.6,0.5,0.187508314040401,"true"
"image-keyboard-response",190,196536,"0.0-4.59-1.59","98dasxn7uooldze",268,"78.csv","","null","resources/maskTrios/BBA2.jpg","null","",NA,NA,NA,NA,""
"image-keyboard-response",191,197748,"0.0-4.59-2.59","98dasxn7uooldze",268,"78.csv","","null","resources/images/coin2.png","null","",NA,NA,NA,NA,""
"image-keyboard-response",192,197793,"0.0-4.60-0.60","98dasxn7uooldze",268,"78.csv","","43.60000014305115","resources/trios/L4T2A2.jpg","39","restless",0.5,0.7,0.5,0.60896527843055,"false"
"image-keyboard-response",193,198209,"0.0-4.60-1.60","98dasxn7uooldze",268,"78.csv","","null","resources/maskTrios/BBA2.jpg","null","",NA,NA,NA,NA,""
"image-keyboard-response",194,199411,"0.0-4.60-2.60","98dasxn7uooldze",268,"78.csv","","null","resources/images/fishbone.png","null","",NA,NA,NA,NA,""
"image-keyboard-response",195,199777,"0.0-4.61-0.61","98dasxn7uooldze",268,"78.csv","","364.90000009536743","resources/trios/L4T2A2.jpg","38","restless",0.5,0.7,0.5,0.33041696204964,"true"
"image-keyboard-response",196,200189,"0.0-4.61-1.61","98dasxn7uooldze",268,"78.csv","","null","resources/maskTrios/BT2B.jpg","null","",NA,NA,NA,NA,""
"image-keyboard-response",197,201405,"0.0-4.61-2.61","98dasxn7uooldze",268,"78.csv","","null","resources/images/coin2.png","null","",NA,NA,NA,NA,""
"image-keyboard-response",198,202094,"0.0-4.62-0.62","98dasxn7uooldze",268,"78.csv","","687.5","resources/trios/L4T2A2.jpg","38","restless",0.5,0.7,0.5,0.100928258095639,"true"
"image-keyboard-response",199,202508,"0.0-4.62-1.62","98dasxn7uooldze",268,"78.csv","","null","resources/maskTrios/BT2B.jpg","null","",NA,NA,NA,NA,""
"image-keyboard-response",200,203724,"0.0-4.62-2.62","98dasxn7uooldze",268,"78.csv","","null","resources/images/coin2.png","null","",NA,NA,NA,NA,""
"image-keyboard-response",201,204170,"0.0-4.63-0.63","98dasxn7uooldze",268,"78.csv","","444.7999999523163","resources/trios/L4T2A2.jpg","39","restless",0.4,0.7,0.5,0.959870549697651,"false"
"image-keyboard-response",202,204583,"0.0-4.63-1.63","98dasxn7uooldze",268,"78.csv","","null","resources/maskTrios/BBA2.jpg","null","",NA,NA,NA,NA,""
"image-keyboard-response",203,205800,"0.0-4.63-2.63","98dasxn7uooldze",268,"78.csv","","null","resources/images/fishbone.png","null","",NA,NA,NA,NA,""
"image-keyboard-response",204,205889,"0.0-4.64-0.64","98dasxn7uooldze",268,"78.csv","","88.39999985694885","resources/trios/L4T2A2.jpg","37","restless",0.3,0.7,0.5,0.303175061256274,"false"
"image-keyboard-response",205,206291,"0.0-4.64-1.64","98dasxn7uooldze",268,"78.csv","","null","resources/maskTrios/L4BB.jpg","null","",NA,NA,NA,NA,""
"image-keyboard-response",206,207506,"0.0-4.64-2.64","98dasxn7uooldze",268,"78.csv","","null","resources/images/fishbone.png","null","",NA,NA,NA,NA,""
"image-keyboard-response",207,207888,"0.0-4.65-0.65","98dasxn7uooldze",268,"78.csv","","380.60000014305115","resources/trios/L4T2A2.jpg","37","restless",0.3,0.7,0.5,0.0491979744103035,"true"
"image-keyboard-response",208,208295,"0.0-4.65-1.65","98dasxn7uooldze",268,"78.csv","","null","resources/maskTrios/L4BB.jpg","null","",NA,NA,NA,NA,""
"image-keyboard-response",209,209509,"0.0-4.65-2.65","98dasxn7uooldze",268,"78.csv","","null","resources/images/coin2.png","null","",NA,NA,NA,NA,""
"image-keyboard-response",210,209984,"0.0-4.66-0.66","98dasxn7uooldze",268,"78.csv","","473.5","resources/trios/L4T2A2.jpg","37","restless",0.3,0.7,0.5,0.153845328601028,"true"
"image-keyboard-response",211,210399,"0.0-4.66-1.66","98dasxn7uooldze",268,"78.csv","","null","resources/maskTrios/L4BB.jpg","null","",NA,NA,NA,NA,""
"image-keyboard-response",212,211602,"0.0-4.66-2.66","98dasxn7uooldze",268,"78.csv","","null","resources/images/coin2.png","null","",NA,NA,NA,NA,""
"image-keyboard-response",213,212127,"0.0-4.67-0.67","98dasxn7uooldze",268,"78.csv","","523.7999999523163","resources/trios/L4T2A2.jpg","38","restless",0.3,0.7,0.5,0.19171685813605,"true"
"image-keyboard-response",214,212535,"0.0-4.67-1.67","98dasxn7uooldze",268,"78.csv","","null","resources/maskTrios/BT2B.jpg","null","",NA,NA,NA,NA,""
"image-keyboard-response",215,213738,"0.0-4.67-2.67","98dasxn7uooldze",268,"78.csv","","null","resources/images/coin2.png","null","",NA,NA,NA,NA,""
"image-keyboard-response",216,214392,"0.0-4.68-0.68","98dasxn7uooldze",268,"78.csv","","652.9000000953674","resources/trios/L4T2A2.jpg","38","restless",0.3,0.7,0.5,0.678253892089534,"true"
"image-keyboard-response",217,214805,"0.0-4.68-1.68","98dasxn7uooldze",268,"78.csv","","null","resources/maskTrios/BT2B.jpg","null","",NA,NA,NA,NA,""
"image-keyboard-response",218,216012,"0.0-4.68-2.68","98dasxn7uooldze",268,"78.csv","","null","resources/images/coin2.png","null","",NA,NA,NA,NA,""
"image-keyboard-response",219,216176,"0.0-4.69-0.69","98dasxn7uooldze",268,"78.csv","","163.59999990463257","resources/trios/L4T2A2.jpg","39","restless",0.3,0.7,0.5,0.0778840349155936,"true"
"image-keyboard-response",220,216593,"0.0-4.69-1.69","98dasxn7uooldze",268,"78.csv","","null","resources/maskTrios/BBA2.jpg","null","",NA,NA,NA,NA,""
"image-keyboard-response",221,217810,"0.0-4.69-2.69","98dasxn7uooldze",268,"78.csv","","null","resources/images/coin2.png","null","",NA,NA,NA,NA,""
"image-keyboard-response",222,218014,"0.0-4.70-0.70","98dasxn7uooldze",268,"78.csv","","202.60000014305115","resources/trios/L4T2A2.jpg","39","restless",0.3,0.7,0.4,0.126101910914406,"true"
"image-keyboard-response",223,218426,"0.0-4.70-1.70","98dasxn7uooldze",268,"78.csv","","null","resources/maskTrios/BBA2.jpg","null","",NA,NA,NA,NA,""
"image-keyboard-response",224,219629,"0.0-4.70-2.70","98dasxn7uooldze",268,"78.csv","","null","resources/images/coin2.png","null","",NA,NA,NA,NA,""
"image-keyboard-response",225,219868,"0.0-4.71-0.71","98dasxn7uooldze",268,"78.csv","","237.90000009536743","resources/trios/L4T2A2.jpg","37","restless",0.3,0.7,0.4,0.338315209261355,"false"
"image-keyboard-response",226,220279,"0.0-4.71-1.71","98dasxn7uooldze",268,"78.csv","","null","resources/maskTrios/L4BB.jpg","null","",NA,NA,NA,NA,""
"image-keyboard-response",227,221482,"0.0-4.71-2.71","98dasxn7uooldze",268,"78.csv","","null","resources/images/fishbone.png","null","",NA,NA,NA,NA,""
"image-keyboard-response",228,221714,"0.0-4.72-0.72","98dasxn7uooldze",268,"78.csv","","230.29999995231628","resources/trios/L4T2A2.jpg","39","restless",0.3,0.7,0.4,0.86150500398764,"false"
"image-keyboard-response",229,222126,"0.0-4.72-1.72","98dasxn7uooldze",268,"78.csv","","null","resources/maskTrios/BBA2.jpg","null","",NA,NA,NA,NA,""
"image-keyboard-response",230,223328,"0.0-4.72-2.72","98dasxn7uooldze",268,"78.csv","","null","resources/images/fishbone.png","null","",NA,NA,NA,NA,""
"image-keyboard-response",231,223383,"0.0-4.73-0.73","98dasxn7uooldze",268,"78.csv","","53.700000047683716","resources/trios/L4T2A2.jpg","38","restless",0.3,0.7,0.4,0.877792877922838,"false"
"image-keyboard-response",232,223800,"0.0-4.73-1.73","98dasxn7uooldze",268,"78.csv","","null","resources/maskTrios/BT2B.jpg","null","",NA,NA,NA,NA,""
"image-keyboard-response",233,225002,"0.0-4.73-2.73","98dasxn7uooldze",268,"78.csv","","null","resources/images/fishbone.png","null","",NA,NA,NA,NA,""
"image-keyboard-response",234,225125,"0.0-4.74-0.74","98dasxn7uooldze",268,"78.csv","","122.40000009536743","resources/trios/L4T2A2.jpg","37","restless",0.3,0.7,0.4,0.735552600837852,"false"
"image-keyboard-response",235,225537,"0.0-4.74-1.74","98dasxn7uooldze",268,"78.csv","","null","resources/maskTrios/L4BB.jpg","null","",NA,NA,NA,NA,""
"image-keyboard-response",236,226740,"0.0-4.74-2.74","98dasxn7uooldze",268,"78.csv","","null","resources/images/fishbone.png","null","",NA,NA,NA,NA,""
"image-keyboard-response",237,226950,"0.0-4.75-0.75","98dasxn7uooldze",268,"78.csv","","208.70000004768372","resources/trios/L4T2A2.jpg","39","restless",0.2,0.7,0.4,0.91863220623914,"false"
"image-keyboard-response",238,227356,"0.0-4.75-1.75","98dasxn7uooldze",268,"78.csv","","null","resources/maskTrios/BBA2.jpg","null","",NA,NA,NA,NA,""
"image-keyboard-response",239,228568,"0.0-4.75-2.75","98dasxn7uooldze",268,"78.csv","","null","resources/images/fishbone.png","null","",NA,NA,NA,NA,""
"image-keyboard-response",240,228830,"0.0-4.76-0.76","98dasxn7uooldze",268,"78.csv","","260.7000000476837","resources/trios/L4T2A2.jpg","38","restless",0.2,0.7,0.4,0.64002984489941,"true"
"image-keyboard-response",241,229232,"0.0-4.76-1.76","98dasxn7uooldze",268,"78.csv","","null","resources/maskTrios/BT2B.jpg","null","",NA,NA,NA,NA,""
"image-keyboard-response",242,230449,"0.0-4.76-2.76","98dasxn7uooldze",268,"78.csv","","null","resources/images/coin2.png","null","",NA,NA,NA,NA,""
"image-keyboard-response",243,230689,"0.0-4.77-0.77","98dasxn7uooldze",268,"78.csv","","238.5","resources/trios/L4T2A2.jpg","38","restless",0.2,0.7,0.4,0.0498768493950614,"true"
"image-keyboard-response",244,231096,"0.0-4.77-1.77","98dasxn7uooldze",268,"78.csv","","null","resources/maskTrios/BT2B.jpg","null","",NA,NA,NA,NA,""
"image-keyboard-response",245,232308,"0.0-4.77-2.77","98dasxn7uooldze",268,"78.csv","","null","resources/images/coin2.png","null","",NA,NA,NA,NA,""
"image-keyboard-response",246,232522,"0.0-4.78-0.78","98dasxn7uooldze",268,"78.csv","","212.90000009536743","resources/trios/L4T2A2.jpg","38","restless",0.2,0.7,0.4,0.877342000286797,"false"
"image-keyboard-response",247,232927,"0.0-4.78-1.78","98dasxn7uooldze",268,"78.csv","","null","resources/maskTrios/BT2B.jpg","null","",NA,NA,NA,NA,""
"image-keyboard-response",248,234138,"0.0-4.78-2.78","98dasxn7uooldze",268,"78.csv","","null","resources/images/fishbone.png","null","",NA,NA,NA,NA,""
"image-keyboard-response",249,234471,"0.0-4.79-0.79","98dasxn7uooldze",268,"78.csv","","331.40000009536743","resources/trios/L4T2A2.jpg","39","restless",0.2,0.7,0.4,0.851145126205302,"false"
"image-keyboard-response",250,234879,"0.0-4.79-1.79","98dasxn7uooldze",268,"78.csv","","null","resources/maskTrios/BBA2.jpg","null","",NA,NA,NA,NA,""
"image-keyboard-response",251,236093,"0.0-4.79-2.79","98dasxn7uooldze",268,"78.csv","","null","resources/images/fishbone.png","null","",NA,NA,NA,NA,""
"image-keyboard-response",252,236370,"0.0-4.80-0.80","98dasxn7uooldze",268,"78.csv","","275.40000009536743","resources/trios/L4T2A2.jpg","37","restless",0.2,0.7,0.4,0.170301524575211,"true"
"image-keyboard-response",253,236772,"0.0-4.80-1.80","98dasxn7uooldze",268,"78.csv","","null","resources/maskTrios/L4BB.jpg","null","",NA,NA,NA,NA,""
"image-keyboard-response",254,237989,"0.0-4.80-2.80","98dasxn7uooldze",268,"78.csv","","null","resources/images/coin2.png","null","",NA,NA,NA,NA,""
"image-keyboard-response",255,238277,"0.0-4.81-0.81","98dasxn7uooldze",268,"78.csv","","286.40000009536743","resources/trios/L4T2A2.jpg","39","restless",0.2,0.6,0.4,0.788787127462571,"false"
"image-keyboard-response",256,238683,"0.0-4.81-1.81","98dasxn7uooldze",268,"78.csv","","null","resources/maskTrios/BBA2.jpg","null","",NA,NA,NA,NA,""
"image-keyboard-response",257,239900,"0.0-4.81-2.81","98dasxn7uooldze",268,"78.csv","","null","resources/images/fishbone.png","null","",NA,NA,NA,NA,""
"image-keyboard-response",258,240554,"0.0-4.82-0.82","98dasxn7uooldze",268,"78.csv","","653.5","resources/trios/L4T2A2.jpg","38","restless",0.2,0.6,0.4,0.0548424995370425,"true"
"image-keyboard-response",259,240960,"0.0-4.82-1.82","98dasxn7uooldze",268,"78.csv","","null","resources/maskTrios/BT2B.jpg","null","",NA,NA,NA,NA,""
"image-keyboard-response",260,242161,"0.0-4.82-2.82","98dasxn7uooldze",268,"78.csv","","null","resources/images/coin2.png","null","",NA,NA,NA,NA,""
"image-keyboard-response",261,242406,"0.0-4.83-0.83","98dasxn7uooldze",268,"78.csv","","242.79999995231628","resources/trios/L4T2A2.jpg","38","restless",0.2,0.6,0.4,0.0233397547778482,"true"
"image-keyboard-response",262,242808,"0.0-4.83-1.83","98dasxn7uooldze",268,"78.csv","","null","resources/maskTrios/BT2B.jpg","null","",NA,NA,NA,NA,""
"image-keyboard-response",263,244010,"0.0-4.83-2.83","98dasxn7uooldze",268,"78.csv","","null","resources/images/coin2.png","null","",NA,NA,NA,NA,""
"image-keyboard-response",264,244503,"0.0-4.84-0.84","98dasxn7uooldze",268,"78.csv","","491.60000014305115","resources/trios/L4T2A2.jpg","38","restless",0.2,0.6,0.4,0.848369758735048,"false"
"image-keyboard-response",265,244908,"0.0-4.84-1.84","98dasxn7uooldze",268,"78.csv","","null","resources/maskTrios/BT2B.jpg","null","",NA,NA,NA,NA,""
"image-keyboard-response",266,246113,"0.0-4.84-2.84","98dasxn7uooldze",268,"78.csv","","null","resources/images/fishbone.png","null","",NA,NA,NA,NA,""
"image-keyboard-response",267,246643,"0.0-4.85-0.85","98dasxn7uooldze",268,"78.csv","","528.2999999523163","resources/trios/L4T2A2.jpg","38","restless",0.2,0.6,0.4,0.98677533403768,"false"
"image-keyboard-response",268,247056,"0.0-4.85-1.85","98dasxn7uooldze",268,"78.csv","","null","resources/maskTrios/BT2B.jpg","null","",NA,NA,NA,NA,""
"image-keyboard-response",269,248261,"0.0-4.85-2.85","98dasxn7uooldze",268,"78.csv","","null","resources/images/fishbone.png","null","",NA,NA,NA,NA,""
"image-keyboard-response",270,248485,"0.0-4.86-0.86","98dasxn7uooldze",268,"78.csv","","222.89999985694885","resources/trios/L4T2A2.jpg","38","restless",0.3,0.6,0.4,0.744866949649629,"false"
"image-keyboard-response",271,248891,"0.0-4.86-1.86","98dasxn7uooldze",268,"78.csv","","null","resources/maskTrios/BT2B.jpg","null","",NA,NA,NA,NA,""
"image-keyboard-response",272,250101,"0.0-4.86-2.86","98dasxn7uooldze",268,"78.csv","","null","resources/images/fishbone.png","null","",NA,NA,NA,NA,""
"image-keyboard-response",273,250708,"0.0-4.87-0.87","98dasxn7uooldze",268,"78.csv","","606.2000000476837","resources/trios/L4T2A2.jpg","38","restless",0.4,0.6,0.4,0.906839357654168,"false"
"image-keyboard-response",274,251111,"0.0-4.87-1.87","98dasxn7uooldze",268,"78.csv","","null","resources/maskTrios/BT2B.jpg","null","",NA,NA,NA,NA,""
"image-keyboard-response",275,252326,"0.0-4.87-2.87","98dasxn7uooldze",268,"78.csv","","null","resources/images/fishbone.png","null","",NA,NA,NA,NA,""
"image-keyboard-response",276,252580,"0.0-4.88-0.88","98dasxn7uooldze",268,"78.csv","","253.29999995231628","resources/trios/L4T2A2.jpg","37","restless",0.4,0.6,0.4,0.947341019471978,"false"
"image-keyboard-response",277,252987,"0.0-4.88-1.88","98dasxn7uooldze",268,"78.csv","","null","resources/maskTrios/L4BB.jpg","null","",NA,NA,NA,NA,""
"image-keyboard-response",278,254202,"0.0-4.88-2.88","98dasxn7uooldze",268,"78.csv","","null","resources/images/fishbone.png","null","",NA,NA,NA,NA,""
"image-keyboard-response",279,254531,"0.0-4.89-0.89","98dasxn7uooldze",268,"78.csv","","327.2000000476837","resources/trios/L4T2A2.jpg","37","restless",0.4,0.6,0.4,0.227505846512485,"true"
"image-keyboard-response",280,254945,"0.0-4.89-1.89","98dasxn7uooldze",268,"78.csv","","null","resources/maskTrios/L4BB.jpg","null","",NA,NA,NA,NA,""
"image-keyboard-response",281,256151,"0.0-4.89-2.89","98dasxn7uooldze",268,"78.csv","","null","resources/images/coin2.png","null","",NA,NA,NA,NA,""
"image-keyboard-response",282,256577,"0.0-4.90-0.90","98dasxn7uooldze",268,"78.csv","","424.7000000476837","resources/trios/L4T2A2.jpg","37","restless",0.4,0.6,0.4,0.261984593981391,"true"
"image-keyboard-response",283,256979,"0.0-4.90-1.90","98dasxn7uooldze",268,"78.csv","","null","resources/maskTrios/L4BB.jpg","null","",NA,NA,NA,NA,""
"image-keyboard-response",284,258184,"0.0-4.90-2.90","98dasxn7uooldze",268,"78.csv","","null","resources/images/coin2.png","null","",NA,NA,NA,NA,""
"image-keyboard-response",285,258649,"0.0-4.91-0.91","98dasxn7uooldze",268,"78.csv","","464.09999990463257","resources/trios/L4T2A2.jpg","37","restless",0.4,0.6,0.4,0.215942883364437,"true"
"image-keyboard-response",286,259053,"0.0-4.91-1.91","98dasxn7uooldze",268,"78.csv","","null","resources/maskTrios/L4BB.jpg","null","",NA,NA,NA,NA,""
"image-keyboard-response",287,260259,"0.0-4.91-2.91","98dasxn7uooldze",268,"78.csv","","null","resources/images/coin2.png","null","",NA,NA,NA,NA,""
"image-keyboard-response",288,260731,"0.0-4.92-0.92","98dasxn7uooldze",268,"78.csv","","471.30000019073486","resources/trios/L4T2A2.jpg","37","restless",0.4,0.6,0.4,0.337144524161141,"true"
"image-keyboard-response",289,261138,"0.0-4.92-1.92","98dasxn7uooldze",268,"78.csv","","null","resources/maskTrios/L4BB.jpg","null","",NA,NA,NA,NA,""
"image-keyboard-response",290,262347,"0.0-4.92-2.92","98dasxn7uooldze",268,"78.csv","","null","resources/images/coin2.png","null","",NA,NA,NA,NA,""
"image-keyboard-response",291,262620,"0.0-4.93-0.93","98dasxn7uooldze",268,"78.csv","","272.30000019073486","resources/trios/L4T2A2.jpg","38","restless",0.4,0.6,0.4,0.738372839703108,"false"
"image-keyboard-response",292,263025,"0.0-4.93-1.93","98dasxn7uooldze",268,"78.csv","","null","resources/maskTrios/BT2B.jpg","null","",NA,NA,NA,NA,""
"image-keyboard-response",293,264242,"0.0-4.93-2.93","98dasxn7uooldze",268,"78.csv","","null","resources/images/fishbone.png","null","",NA,NA,NA,NA,""
"image-keyboard-response",294,264428,"0.0-4.94-0.94","98dasxn7uooldze",268,"78.csv","","184.09999990463257","resources/trios/L4T2A2.jpg","38","restless",0.4,0.6,0.4,0.0404464077486564,"true"
"image-keyboard-response",295,264841,"0.0-4.94-1.94","98dasxn7uooldze",268,"78.csv","","null","resources/maskTrios/BT2B.jpg","null","",NA,NA,NA,NA,""
"image-keyboard-response",296,266054,"0.0-4.94-2.94","98dasxn7uooldze",268,"78.csv","","null","resources/images/coin2.png","null","",NA,NA,NA,NA,""
"image-keyboard-response",297,266464,"0.0-4.95-0.95","98dasxn7uooldze",268,"78.csv","","408.59999990463257","resources/trios/L4T2A2.jpg","37","restless",0.4,0.7,0.4,0.442290965449138,"false"
"image-keyboard-response",298,266867,"0.0-4.95-1.95","98dasxn7uooldze",268,"78.csv","","null","resources/maskTrios/L4BB.jpg","null","",NA,NA,NA,NA,""
"image-keyboard-response",299,268073,"0.0-4.95-2.95","98dasxn7uooldze",268,"78.csv","","null","resources/images/fishbone.png","null","",NA,NA,NA,NA,""
"image-keyboard-response",300,268122,"0.0-4.96-0.96","98dasxn7uooldze",268,"78.csv","","47.200000047683716","resources/trios/L4T2A2.jpg","39","restless",0.4,0.7,0.4,0.00662372223403596,"true"
"image-keyboard-response",301,268531,"0.0-4.96-1.96","98dasxn7uooldze",268,"78.csv","","null","resources/maskTrios/BBA2.jpg","null","",NA,NA,NA,NA,""
"image-keyboard-response",302,269746,"0.0-4.96-2.96","98dasxn7uooldze",268,"78.csv","","null","resources/images/coin2.png","null","",NA,NA,NA,NA,""
"image-keyboard-response",303,269765,"0.0-4.97-0.97","98dasxn7uooldze",268,"78.csv","","17.5","resources/trios/L4T2A2.jpg","39","restless",0.5,0.7,0.4,0.0910746894179542,"true"
"image-keyboard-response",304,270171,"0.0-4.97-1.97","98dasxn7uooldze",268,"78.csv","","null","resources/maskTrios/BBA2.jpg","null","",NA,NA,NA,NA,""
"image-keyboard-response",305,271388,"0.0-4.97-2.97","98dasxn7uooldze",268,"78.csv","","null","resources/images/coin2.png","null","",NA,NA,NA,NA,""
"image-keyboard-response",306,271433,"0.0-4.98-0.98","98dasxn7uooldze",268,"78.csv","","43.700000047683716","resources/trios/L4T2A2.jpg","39","restless",0.5,0.7,0.4,0.888618952226814,"false"
"image-keyboard-response",307,271843,"0.0-4.98-1.98","98dasxn7uooldze",268,"78.csv","","null","resources/maskTrios/BBA2.jpg","null","",NA,NA,NA,NA,""
"image-keyboard-response",308,273057,"0.0-4.98-2.98","98dasxn7uooldze",268,"78.csv","","null","resources/images/fishbone.png","null","",NA,NA,NA,NA,""
"image-keyboard-response",309,273148,"0.0-4.99-0.99","98dasxn7uooldze",268,"78.csv","","90.5","resources/trios/L4T2A2.jpg","38","restless",0.5,0.7,0.4,0.0698741014770277,"true"
"image-keyboard-response",310,273562,"0.0-4.99-1.99","98dasxn7uooldze",268,"78.csv","","null","resources/maskTrios/BT2B.jpg","null","",NA,NA,NA,NA,""
"image-keyboard-response",311,274764,"0.0-4.99-2.99","98dasxn7uooldze",268,"78.csv","","null","resources/images/coin2.png","null","",NA,NA,NA,NA,""
"image-keyboard-response",312,276389,"0.0-4.100-0.100","98dasxn7uooldze",268,"78.csv","","1624.5","resources/trios/L4T2A2.jpg","38","restless",0.5,0.7,0.4,0.832881761017756,"false"
"image-keyboard-response",313,276800,"0.0-4.100-1.100","98dasxn7uooldze",268,"78.csv","","null","resources/maskTrios/BT2B.jpg","null","",NA,NA,NA,NA,""
"image-keyboard-response",314,278017,"0.0-4.100-2.100","98dasxn7uooldze",268,"78.csv","","null","resources/images/fishbone.png","null","",NA,NA,NA,NA,""
"image-keyboard-response",315,278184,"0.0-4.101-0.101","98dasxn7uooldze",268,"78.csv","","165.70000004768372","resources/trios/L4T2A2.jpg","37","restless",0.5,0.7,0.4,0.604245874317307,"false"
"image-keyboard-response",316,278587,"0.0-4.101-1.101","98dasxn7uooldze",268,"78.csv","","null","resources/maskTrios/L4BB.jpg","null","",NA,NA,NA,NA,""
"image-keyboard-response",317,279791,"0.0-4.101-2.101","98dasxn7uooldze",268,"78.csv","","null","resources/images/fishbone.png","null","",NA,NA,NA,NA,""
"image-keyboard-response",318,280416,"0.0-4.102-0.102","98dasxn7uooldze",268,"78.csv","","623.8000001907349","resources/trios/L4T2A2.jpg","39","restless",0.5,0.7,0.4,0.234451774808424,"true"
"image-keyboard-response",319,280832,"0.0-4.102-1.102","98dasxn7uooldze",268,"78.csv","","null","resources/maskTrios/BBA2.jpg","null","",NA,NA,NA,NA,""
"image-keyboard-response",320,282037,"0.0-4.102-2.102","98dasxn7uooldze",268,"78.csv","","null","resources/images/coin2.png","null","",NA,NA,NA,NA,""
"image-keyboard-response",321,282308,"0.0-4.103-0.103","98dasxn7uooldze",268,"78.csv","","269.39999985694885","resources/trios/L4T2A2.jpg","39","restless",0.5,0.8,0.4,0.989014283230079,"false"
"image-keyboard-response",322,282716,"0.0-4.103-1.103","98dasxn7uooldze",268,"78.csv","","null","resources/maskTrios/BBA2.jpg","null","",NA,NA,NA,NA,""
"image-keyboard-response",323,283920,"0.0-4.103-2.103","98dasxn7uooldze",268,"78.csv","","null","resources/images/fishbone.png","null","",NA,NA,NA,NA,""
"image-keyboard-response",324,284152,"0.0-4.104-0.104","98dasxn7uooldze",268,"78.csv","","230.29999995231628","resources/trios/L4T2A2.jpg","39","restless",0.5,0.8,0.4,0.0789573361960383,"true"
"image-keyboard-response",325,284568,"0.0-4.104-1.104","98dasxn7uooldze",268,"78.csv","","null","resources/maskTrios/BBA2.jpg","null","",NA,NA,NA,NA,""
"image-keyboard-response",326,285774,"0.0-4.104-2.104","98dasxn7uooldze",268,"78.csv","","null","resources/images/coin2.png","null","",NA,NA,NA,NA,""
"image-keyboard-response",327,285910,"0.0-4.105-0.105","98dasxn7uooldze",268,"78.csv","","135.40000009536743","resources/trios/L4T2A2.jpg","39","restless",0.5,0.8,0.4,0.719916864844742,"false"
"image-keyboard-response",328,286327,"0.0-4.105-1.105","98dasxn7uooldze",268,"78.csv","","null","resources/maskTrios/BBA2.jpg","null","",NA,NA,NA,NA,""
"image-keyboard-response",329,287535,"0.0-4.105-2.105","98dasxn7uooldze",268,"78.csv","","null","resources/images/fishbone.png","null","",NA,NA,NA,NA,""
"image-keyboard-response",330,287590,"0.0-4.106-0.106","98dasxn7uooldze",268,"78.csv","","53.799999952316284","resources/trios/L4T2A2.jpg","39","restless",0.5,0.8,0.4,0.789207121190927,"false"
"image-keyboard-response",331,287997,"0.0-4.106-1.106","98dasxn7uooldze",268,"78.csv","","null","resources/maskTrios/BBA2.jpg","null","",NA,NA,NA,NA,""
"image-keyboard-response",332,289210,"0.0-4.106-2.106","98dasxn7uooldze",268,"78.csv","","null","resources/images/fishbone.png","null","",NA,NA,NA,NA,""
"image-keyboard-response",333,289433,"0.0-4.107-0.107","98dasxn7uooldze",268,"78.csv","","222.29999995231628","resources/trios/L4T2A2.jpg","39","restless",0.5,0.8,0.4,0.714440306601299,"false"
"image-keyboard-response",334,289842,"0.0-4.107-1.107","98dasxn7uooldze",268,"78.csv","","null","resources/maskTrios/BBA2.jpg","null","",NA,NA,NA,NA,""
"image-keyboard-response",335,291055,"0.0-4.107-2.107","98dasxn7uooldze",268,"78.csv","","null","resources/images/fishbone.png","null","",NA,NA,NA,NA,""
"image-keyboard-response",336,291314,"0.0-4.108-0.108","98dasxn7uooldze",268,"78.csv","","256.7999999523163","resources/trios/L4T2A2.jpg","37","restless",0.5,0.8,0.4,0.736622647005742,"false"
"image-keyboard-response",337,291729,"0.0-4.108-1.108","98dasxn7uooldze",268,"78.csv","","null","resources/maskTrios/L4BB.jpg","null","",NA,NA,NA,NA,""
"image-keyboard-response",338,292940,"0.0-4.108-2.108","98dasxn7uooldze",268,"78.csv","","null","resources/images/fishbone.png","null","",NA,NA,NA,NA,""
"image-keyboard-response",339,293461,"0.0-4.109-0.109","98dasxn7uooldze",268,"78.csv","","520","resources/trios/L4T2A2.jpg","37","restless",0.5,0.8,0.5,0.879324760170908,"false"
"image-keyboard-response",340,293875,"0.0-4.109-1.109","98dasxn7uooldze",268,"78.csv","","null","resources/maskTrios/L4BB.jpg","null","",NA,NA,NA,NA,""
"image-keyboard-response",341,295092,"0.0-4.109-2.109","98dasxn7uooldze",268,"78.csv","","null","resources/images/fishbone.png","null","",NA,NA,NA,NA,""
"image-keyboard-response",342,295326,"0.0-4.110-0.110","98dasxn7uooldze",268,"78.csv","","232.19999980926514","resources/trios/L4T2A2.jpg","38","restless",0.5,0.7,0.5,0.917822980962993,"false"
"image-keyboard-response",343,295738,"0.0-4.110-1.110","98dasxn7uooldze",268,"78.csv","","null","resources/maskTrios/BT2B.jpg","null","",NA,NA,NA,NA,""
"image-keyboard-response",344,296946,"0.0-4.110-2.110","98dasxn7uooldze",268,"78.csv","","null","resources/images/fishbone.png","null","",NA,NA,NA,NA,""
"image-keyboard-response",345,297716,"0.0-4.111-0.111","98dasxn7uooldze",268,"78.csv","","768.0999999046326","resources/trios/L4T2A2.jpg","37","restless",0.5,0.7,0.5,0.835652338680299,"false"
"image-keyboard-response",346,298118,"0.0-4.111-1.111","98dasxn7uooldze",268,"78.csv","","null","resources/maskTrios/L4BB.jpg","null","",NA,NA,NA,NA,""
"image-keyboard-response",347,299334,"0.0-4.111-2.111","98dasxn7uooldze",268,"78.csv","","null","resources/images/fishbone.png","null","",NA,NA,NA,NA,""
"image-keyboard-response",348,299437,"0.0-4.112-0.112","98dasxn7uooldze",268,"78.csv","","101.29999995231628","resources/trios/L4T2A2.jpg","39","restless",0.5,0.7,0.5,0.28823234522939,"true"
"image-keyboard-response",349,299847,"0.0-4.112-1.112","98dasxn7uooldze",268,"78.csv","","null","resources/maskTrios/BBA2.jpg","null","",NA,NA,NA,NA,""
"image-keyboard-response",350,301057,"0.0-4.112-2.112","98dasxn7uooldze",268,"78.csv","","null","resources/images/coin2.png","null","",NA,NA,NA,NA,""
"image-keyboard-response",351,301200,"0.0-4.113-0.113","98dasxn7uooldze",268,"78.csv","","141.59999990463257","resources/trios/L4T2A2.jpg","39","restless",0.5,0.7,0.5,0.15954392772813,"true"
"image-keyboard-response",352,301609,"0.0-4.113-1.113","98dasxn7uooldze",268,"78.csv","","null","resources/maskTrios/BBA2.jpg","null","",NA,NA,NA,NA,""
"image-keyboard-response",353,302816,"0.0-4.113-2.113","98dasxn7uooldze",268,"78.csv","","null","resources/images/coin2.png","null","",NA,NA,NA,NA,""
"image-keyboard-response",354,303098,"0.0-4.114-0.114","98dasxn7uooldze",268,"78.csv","","280.7999999523163","resources/trios/L4T2A2.jpg","39","restless",0.5,0.6,0.6,0.887941529011104,"false"
"image-keyboard-response",355,303504,"0.0-4.114-1.114","98dasxn7uooldze",268,"78.csv","","null","resources/maskTrios/BBA2.jpg","null","",NA,NA,NA,NA,""
"image-keyboard-response",356,304710,"0.0-4.114-2.114","98dasxn7uooldze",268,"78.csv","","null","resources/images/fishbone.png","null","",NA,NA,NA,NA,""
"image-keyboard-response",357,304758,"0.0-4.115-0.115","98dasxn7uooldze",268,"78.csv","","46.5","resources/trios/L4T2A2.jpg","37","restless",0.5,0.6,0.6,0.344855328663831,"true"
"image-keyboard-response",358,305167,"0.0-4.115-1.115","98dasxn7uooldze",268,"78.csv","","null","resources/maskTrios/L4BB.jpg","null","",NA,NA,NA,NA,""
"image-keyboard-response",359,306384,"0.0-4.115-2.115","98dasxn7uooldze",268,"78.csv","","null","resources/images/coin2.png","null","",NA,NA,NA,NA,""
"image-keyboard-response",360,306516,"0.0-4.116-0.116","98dasxn7uooldze",268,"78.csv","","130.5","resources/trios/L4T2A2.jpg","39","restless",0.5,0.5,0.6,0.018866143822049,"true"
"image-keyboard-response",361,306932,"0.0-4.116-1.116","98dasxn7uooldze",268,"78.csv","","null","resources/maskTrios/BBA2.jpg","null","",NA,NA,NA,NA,""
"image-keyboard-response",362,308138,"0.0-4.116-2.116","98dasxn7uooldze",268,"78.csv","","null","resources/images/coin2.png","null","",NA,NA,NA,NA,""
"image-keyboard-response",363,308342,"0.0-4.117-0.117","98dasxn7uooldze",268,"78.csv","","202.5","resources/trios/L4T2A2.jpg","37","restless",0.5,0.5,0.7,0.306596382280226,"true"
"image-keyboard-response",364,308753,"0.0-4.117-1.117","98dasxn7uooldze",268,"78.csv","","null","resources/maskTrios/L4BB.jpg","null","",NA,NA,NA,NA,""
"image-keyboard-response",365,309966,"0.0-4.117-2.117","98dasxn7uooldze",268,"78.csv","","null","resources/images/coin2.png","null","",NA,NA,NA,NA,""
"image-keyboard-response",366,310055,"0.0-4.118-0.118","98dasxn7uooldze",268,"78.csv","","88.5","resources/trios/L4T2A2.jpg","39","restless",0.5,0.5,0.7,0.100130477244457,"true"
"image-keyboard-response",367,310466,"0.0-4.118-1.118","98dasxn7uooldze",268,"78.csv","","null","resources/maskTrios/BBA2.jpg","null","",NA,NA,NA,NA,""
"image-keyboard-response",368,311674,"0.0-4.118-2.118","98dasxn7uooldze",268,"78.csv","","null","resources/images/coin2.png","null","",NA,NA,NA,NA,""
"image-keyboard-response",369,311871,"0.0-4.119-0.119","98dasxn7uooldze",268,"78.csv","","195.70000004768372","resources/trios/L4T2A2.jpg","38","restless",0.6,0.5,0.7,0.127391983381416,"true"
"image-keyboard-response",370,312280,"0.0-4.119-1.119","98dasxn7uooldze",268,"78.csv","","null","resources/maskTrios/BT2B.jpg","null","",NA,NA,NA,NA,""
"image-keyboard-response",371,313482,"0.0-4.119-2.119","98dasxn7uooldze",268,"78.csv","","null","resources/images/coin2.png","null","",NA,NA,NA,NA,""
"image-keyboard-response",372,313565,"0.0-4.120-0.120","98dasxn7uooldze",268,"78.csv","","82.60000014305115","resources/trios/L4T2A2.jpg","38","restless",0.6,0.5,0.7,0.0473160603322407,"true"
"image-keyboard-response",373,313968,"0.0-4.120-1.120","98dasxn7uooldze",268,"78.csv","","null","resources/maskTrios/BT2B.jpg","null","",NA,NA,NA,NA,""
"image-keyboard-response",374,315183,"0.0-4.120-2.120","98dasxn7uooldze",268,"78.csv","","null","resources/images/coin2.png","null","",NA,NA,NA,NA,""
"image-keyboard-response",375,315331,"0.0-4.121-0.121","98dasxn7uooldze",268,"78.csv","","146.5","resources/trios/L4T2A2.jpg","37","restless",0.6,0.5,0.7,0.893545931053936,"false"
"image-keyboard-response",376,315739,"0.0-4.121-1.121","98dasxn7uooldze",268,"78.csv","","null","resources/maskTrios/L4BB.jpg","null","",NA,NA,NA,NA,""
"image-keyboard-response",377,316941,"0.0-4.121-2.121","98dasxn7uooldze",268,"78.csv","","null","resources/images/fishbone.png","null","",NA,NA,NA,NA,""
"image-keyboard-response",378,317164,"0.0-4.122-0.122","98dasxn7uooldze",268,"78.csv","","221.5","resources/trios/L4T2A2.jpg","39","restless",0.6,0.5,0.7,0.458569277471511,"true"
"image-keyboard-response",379,317572,"0.0-4.122-1.122","98dasxn7uooldze",268,"78.csv","","null","resources/maskTrios/BBA2.jpg","null","",NA,NA,NA,NA,""
"image-keyboard-response",380,318774,"0.0-4.122-2.122","98dasxn7uooldze",268,"78.csv","","null","resources/images/coin2.png","null","",NA,NA,NA,NA,""
"image-keyboard-response",381,318994,"0.0-4.123-0.123","98dasxn7uooldze",268,"78.csv","","218.89999985694885","resources/trios/L4T2A2.jpg","39","restless",0.6,0.5,0.7,0.108502418434102,"true"
"image-keyboard-response",382,319405,"0.0-4.123-1.123","98dasxn7uooldze",268,"78.csv","","null","resources/maskTrios/BBA2.jpg","null","",NA,NA,NA,NA,""
"image-keyboard-response",383,320622,"0.0-4.123-2.123","98dasxn7uooldze",268,"78.csv","","null","resources/images/coin2.png","null","",NA,NA,NA,NA,""
"image-keyboard-response",384,320816,"0.0-4.124-0.124","98dasxn7uooldze",268,"78.csv","","193","resources/trios/L4T2A2.jpg","38","restless",0.6,0.5,0.7,0.419549670387936,"true"
"image-keyboard-response",385,321219,"0.0-4.124-1.124","98dasxn7uooldze",268,"78.csv","","null","resources/maskTrios/BT2B.jpg","null","",NA,NA,NA,NA,""
"image-keyboard-response",386,322436,"0.0-4.124-2.124","98dasxn7uooldze",268,"78.csv","","null","resources/images/coin2.png","null","",NA,NA,NA,NA,""
"image-keyboard-response",387,322510,"0.0-4.125-0.125","98dasxn7uooldze",268,"78.csv","","73.09999990463257","resources/trios/L4T2A2.jpg","38","restless",0.6,0.5,0.7,0.929001155848072,"false"
"image-keyboard-response",388,322916,"0.0-4.125-1.125","98dasxn7uooldze",268,"78.csv","","null","resources/maskTrios/BT2B.jpg","null","",NA,NA,NA,NA,""
"image-keyboard-response",389,324123,"0.0-4.125-2.125","98dasxn7uooldze",268,"78.csv","","null","resources/images/fishbone.png","null","",NA,NA,NA,NA,""
"image-keyboard-response",390,324409,"0.0-4.126-0.126","98dasxn7uooldze",268,"78.csv","","284.09999990463257","resources/trios/L4T2A2.jpg","39","restless",0.6,0.5,0.7,0.260298705008911,"true"
"image-keyboard-response",391,324817,"0.0-4.126-1.126","98dasxn7uooldze",268,"78.csv","","null","resources/maskTrios/BBA2.jpg","null","",NA,NA,NA,NA,""
"image-keyboard-response",392,326023,"0.0-4.126-2.126","98dasxn7uooldze",268,"78.csv","","null","resources/images/coin2.png","null","",NA,NA,NA,NA,""
"image-keyboard-response",393,326713,"0.0-4.127-0.127","98dasxn7uooldze",268,"78.csv","","688.8999998569489","resources/trios/L4T2A2.jpg","39","restless",0.6,0.5,0.7,0.030786415465381,"true"
"image-keyboard-response",394,327118,"0.0-4.127-1.127","98dasxn7uooldze",268,"78.csv","","null","resources/maskTrios/BBA2.jpg","null","",NA,NA,NA,NA,""
"image-keyboard-response",395,328324,"0.0-4.127-2.127","98dasxn7uooldze",268,"78.csv","","null","resources/images/coin2.png","null","",NA,NA,NA,NA,""
"image-keyboard-response",396,328449,"0.0-4.128-0.128","98dasxn7uooldze",268,"78.csv","","124.09999990463257","resources/trios/L4T2A2.jpg","37","restless",0.6,0.5,0.7,0.232951616537226,"true"
"image-keyboard-response",397,328861,"0.0-4.128-1.128","98dasxn7uooldze",268,"78.csv","","null","resources/maskTrios/L4BB.jpg","null","",NA,NA,NA,NA,""
"image-keyboard-response",398,330063,"0.0-4.128-2.128","98dasxn7uooldze",268,"78.csv","","null","resources/images/coin2.png","null","",NA,NA,NA,NA,""
"image-keyboard-response",399,330195,"0.0-4.129-0.129","98dasxn7uooldze",268,"78.csv","","131","resources/trios/L4T2A2.jpg","37","restless",0.6,0.5,0.7,0.997117625448892,"false"
"image-keyboard-response",400,330598,"0.0-4.129-1.129","98dasxn7uooldze",268,"78.csv","","null","resources/maskTrios/L4BB.jpg","null","",NA,NA,NA,NA,""
"image-keyboard-response",401,331800,"0.0-4.129-2.129","98dasxn7uooldze",268,"78.csv","","null","resources/images/fishbone.png","null","",NA,NA,NA,NA,""
"image-keyboard-response",402,332253,"0.0-4.130-0.130","98dasxn7uooldze",268,"78.csv","","451.5","resources/trios/L4T2A2.jpg","38","restless",0.5,0.5,0.7,0.018037026090657,"true"
"image-keyboard-response",403,332668,"0.0-4.130-1.130","98dasxn7uooldze",268,"78.csv","","null","resources/maskTrios/BT2B.jpg","null","",NA,NA,NA,NA,""
"image-keyboard-response",404,333884,"0.0-4.130-2.130","98dasxn7uooldze",268,"78.csv","","null","resources/images/coin2.png","null","",NA,NA,NA,NA,""
"image-keyboard-response",405,333980,"0.0-4.131-0.131","98dasxn7uooldze",268,"78.csv","","95.39999985694885","resources/trios/L4T2A2.jpg","38","restless",0.5,0.5,0.7,0.225360193084111,"true"
"image-keyboard-response",406,334388,"0.0-4.131-1.131","98dasxn7uooldze",268,"78.csv","","null","resources/maskTrios/BT2B.jpg","null","",NA,NA,NA,NA,""
"image-keyboard-response",407,335602,"0.0-4.131-2.131","98dasxn7uooldze",268,"78.csv","","null","resources/images/coin2.png","null","",NA,NA,NA,NA,""
"image-keyboard-response",408,335853,"0.0-4.132-0.132","98dasxn7uooldze",268,"78.csv","","249.29999995231628","resources/trios/L4T2A2.jpg","38","restless",0.4,0.5,0.7,0.702284088821888,"false"
"image-keyboard-response",409,336258,"0.0-4.132-1.132","98dasxn7uooldze",268,"78.csv","","null","resources/maskTrios/BT2B.jpg","null","",NA,NA,NA,NA,""
"image-keyboard-response",410,337460,"0.0-4.132-2.132","98dasxn7uooldze",268,"78.csv","","null","resources/images/fishbone.png","null","",NA,NA,NA,NA,""
"image-keyboard-response",411,337516,"0.0-4.133-0.133","98dasxn7uooldze",268,"78.csv","","54.5","resources/trios/L4T2A2.jpg","39","restless",0.4,0.5,0.7,0.913979635197084,"false"
"image-keyboard-response",412,337923,"0.0-4.133-1.133","98dasxn7uooldze",268,"78.csv","","null","resources/maskTrios/BBA2.jpg","null","",NA,NA,NA,NA,""
"image-keyboard-response",413,339137,"0.0-4.133-2.133","98dasxn7uooldze",268,"78.csv","","null","resources/images/fishbone.png","null","",NA,NA,NA,NA,""
"image-keyboard-response",414,339366,"0.0-4.134-0.134","98dasxn7uooldze",268,"78.csv","","227.20000004768372","resources/trios/L4T2A2.jpg","37","restless",0.4,0.5,0.7,0.498235385485431,"false"
"image-keyboard-response",415,339782,"0.0-4.134-1.134","98dasxn7uooldze",268,"78.csv","","null","resources/maskTrios/L4BB.jpg","null","",NA,NA,NA,NA,""
"image-keyboard-response",416,340984,"0.0-4.134-2.134","98dasxn7uooldze",268,"78.csv","","null","resources/images/fishbone.png","null","",NA,NA,NA,NA,""
"image-keyboard-response",417,341166,"0.0-4.135-0.135","98dasxn7uooldze",268,"78.csv","","180.69999980926514","resources/trios/L4T2A2.jpg","39","restless",0.4,0.5,0.7,0.432543556359815,"true"
"image-keyboard-response",418,341571,"0.0-4.135-1.135","98dasxn7uooldze",268,"78.csv","","null","resources/maskTrios/BBA2.jpg","null","",NA,NA,NA,NA,""
"image-keyboard-response",419,342774,"0.0-4.135-2.135","98dasxn7uooldze",268,"78.csv","","null","resources/images/coin2.png","null","",NA,NA,NA,NA,""
"image-keyboard-response",420,343000,"0.0-4.136-0.136","98dasxn7uooldze",268,"78.csv","","224.79999995231628","resources/trios/L4T2A2.jpg","38","restless",0.4,0.5,0.6,0.173905279763434,"true"
"image-keyboard-response",421,343414,"0.0-4.136-1.136","98dasxn7uooldze",268,"78.csv","","null","resources/maskTrios/BT2B.jpg","null","",NA,NA,NA,NA,""
"image-keyboard-response",422,344618,"0.0-4.136-2.136","98dasxn7uooldze",268,"78.csv","","null","resources/images/coin2.png","null","",NA,NA,NA,NA,""
"image-keyboard-response",423,344953,"0.0-4.137-0.137","98dasxn7uooldze",268,"78.csv","","333.7000000476837","resources/trios/L4T2A2.jpg","37","restless",0.4,0.5,0.5,0.85574749287252,"false"
"image-keyboard-response",424,345357,"0.0-4.137-1.137","98dasxn7uooldze",268,"78.csv","","null","resources/maskTrios/L4BB.jpg","null","",NA,NA,NA,NA,""
"image-keyboard-response",425,346566,"0.0-4.137-2.137","98dasxn7uooldze",268,"78.csv","","null","resources/images/fishbone.png","null","",NA,NA,NA,NA,""
"image-keyboard-response",426,346945,"0.0-4.138-0.138","98dasxn7uooldze",268,"78.csv","","377.69999980926514","resources/trios/L4T2A2.jpg","38","restless",0.4,0.4,0.5,0.222759466810765,"true"
"image-keyboard-response",427,347354,"0.0-4.138-1.138","98dasxn7uooldze",268,"78.csv","","null","resources/maskTrios/BT2B.jpg","null","",NA,NA,NA,NA,""
"image-keyboard-response",428,348563,"0.0-4.138-2.138","98dasxn7uooldze",268,"78.csv","","null","resources/images/coin2.png","null","",NA,NA,NA,NA,""
"image-keyboard-response",429,348883,"0.0-4.139-0.139","98dasxn7uooldze",268,"78.csv","","318.89999985694885","resources/trios/L4T2A2.jpg","38","restless",0.3,0.3,0.5,0.240326631414183,"true"
"image-keyboard-response",430,349289,"0.0-4.139-1.139","98dasxn7uooldze",268,"78.csv","","null","resources/maskTrios/BT2B.jpg","null","",NA,NA,NA,NA,""
"image-keyboard-response",431,350501,"0.0-4.139-2.139","98dasxn7uooldze",268,"78.csv","","null","resources/images/coin2.png","null","",NA,NA,NA,NA,""
"image-keyboard-response",432,351136,"0.0-4.140-0.140","98dasxn7uooldze",268,"78.csv","","634","resources/trios/L4T2A2.jpg","38","restless",0.3,0.3,0.5,0.259324962783958,"true"
"image-keyboard-response",433,351542,"0.0-4.140-1.140","98dasxn7uooldze",268,"78.csv","","null","resources/maskTrios/BT2B.jpg","null","",NA,NA,NA,NA,""
"image-keyboard-response",434,352749,"0.0-4.140-2.140","98dasxn7uooldze",268,"78.csv","","null","resources/images/coin2.png","null","",NA,NA,NA,NA,""
"image-keyboard-response",435,353206,"0.0-4.141-0.141","98dasxn7uooldze",268,"78.csv","","455.5","resources/trios/L4T2A2.jpg","39","restless",0.3,0.3,0.5,0.798532358634645,"false"
"image-keyboard-response",436,353620,"0.0-4.141-1.141","98dasxn7uooldze",268,"78.csv","","null","resources/maskTrios/BBA2.jpg","null","",NA,NA,NA,NA,""
"image-keyboard-response",437,354834,"0.0-4.141-2.141","98dasxn7uooldze",268,"78.csv","","null","resources/images/fishbone.png","null","",NA,NA,NA,NA,""
"image-keyboard-response",438,355132,"0.0-4.142-0.142","98dasxn7uooldze",268,"78.csv","","296.2999999523163","resources/trios/L4T2A2.jpg","37","restless",0.3,0.3,0.5,0.951884020356796,"false"
"image-keyboard-response",439,355539,"0.0-4.142-1.142","98dasxn7uooldze",268,"78.csv","","null","resources/maskTrios/L4BB.jpg","null","",NA,NA,NA,NA,""
"image-keyboard-response",440,356743,"0.0-4.142-2.142","98dasxn7uooldze",268,"78.csv","","null","resources/images/fishbone.png","null","",NA,NA,NA,NA,""
"image-keyboard-response",441,357316,"0.0-4.143-0.143","98dasxn7uooldze",268,"78.csv","","571.9000000953674","resources/trios/L4T2A2.jpg","38","restless",0.3,0.3,0.5,0.785881949229412,"false"
"image-keyboard-response",442,357721,"0.0-4.143-1.143","98dasxn7uooldze",268,"78.csv","","null","resources/maskTrios/BT2B.jpg","null","",NA,NA,NA,NA,""
"image-keyboard-response",443,358935,"0.0-4.143-2.143","98dasxn7uooldze",268,"78.csv","","null","resources/images/fishbone.png","null","",NA,NA,NA,NA,""
"image-keyboard-response",444,359208,"0.0-4.144-0.144","98dasxn7uooldze",268,"78.csv","","271.5","resources/trios/L4T2A2.jpg","38","restless",0.2,0.3,0.5,0.619854351460972,"false"
"image-keyboard-response",445,359613,"0.0-4.144-1.144","98dasxn7uooldze",268,"78.csv","","null","resources/maskTrios/BT2B.jpg","null","",NA,NA,NA,NA,""
"image-keyboard-response",446,360830,"0.0-4.144-2.144","98dasxn7uooldze",268,"78.csv","","null","resources/images/fishbone.png","null","",NA,NA,NA,NA,""
"image-keyboard-response",447,361093,"0.0-4.145-0.145","98dasxn7uooldze",268,"78.csv","","262","resources/trios/L4T2A2.jpg","39","restless",0.2,0.3,0.5,0.9616844671699,"false"
"image-keyboard-response",448,361496,"0.0-4.145-1.145","98dasxn7uooldze",268,"78.csv","","null","resources/maskTrios/BBA2.jpg","null","",NA,NA,NA,NA,""
"image-keyboard-response",449,362710,"0.0-4.145-2.145","98dasxn7uooldze",268,"78.csv","","null","resources/images/fishbone.png","null","",NA,NA,NA,NA,""
"image-keyboard-response",450,362855,"0.0-4.146-0.146","98dasxn7uooldze",268,"78.csv","","143.90000009536743","resources/trios/L4T2A2.jpg","37","restless",0.2,0.3,0.5,0.452533854954205,"false"
"image-keyboard-response",451,363261,"0.0-4.146-1.146","98dasxn7uooldze",268,"78.csv","","null","resources/maskTrios/L4BB.jpg","null","",NA,NA,NA,NA,""
"image-keyboard-response",452,364468,"0.0-4.146-2.146","98dasxn7uooldze",268,"78.csv","","null","resources/images/fishbone.png","null","",NA,NA,NA,NA,""
"image-keyboard-response",453,364670,"0.0-4.147-0.147","98dasxn7uooldze",268,"78.csv","","200.5","resources/trios/L4T2A2.jpg","37","restless",0.2,0.3,0.5,0.886504128634553,"false"
"image-keyboard-response",454,365079,"0.0-4.147-1.147","98dasxn7uooldze",268,"78.csv","","null","resources/maskTrios/L4BB.jpg","null","",NA,NA,NA,NA,""
"image-keyboard-response",455,366290,"0.0-4.147-2.147","98dasxn7uooldze",268,"78.csv","","null","resources/images/fishbone.png","null","",NA,NA,NA,NA,""
"image-keyboard-response",456,366557,"0.0-4.148-0.148","98dasxn7uooldze",268,"78.csv","","265.2999999523163","resources/trios/L4T2A2.jpg","37","restless",0.2,0.2,0.5,0.16988018018715,"true"
"image-keyboard-response",457,366969,"0.0-4.148-1.148","98dasxn7uooldze",268,"78.csv","","null","resources/maskTrios/L4BB.jpg","null","",NA,NA,NA,NA,""
"image-keyboard-response",458,368172,"0.0-4.148-2.148","98dasxn7uooldze",268,"78.csv","","null","resources/images/coin2.png","null","",NA,NA,NA,NA,""
"image-keyboard-response",459,368273,"0.0-4.149-0.149","98dasxn7uooldze",268,"78.csv","","100.5","resources/trios/L4T2A2.jpg","37","restless",0.2,0.2,0.5,0.249687360606063,"false"
"image-keyboard-response",460,368689,"0.0-4.149-1.149","98dasxn7uooldze",268,"78.csv","","null","resources/maskTrios/L4BB.jpg","null","",NA,NA,NA,NA,""
"image-keyboard-response",461,369895,"0.0-4.149-2.149","98dasxn7uooldze",268,"78.csv","","null","resources/images/fishbone.png","null","",NA,NA,NA,NA,""
"image-keyboard-response",462,370146,"0.0-4.150-0.150","98dasxn7uooldze",268,"78.csv","","249.10000014305115","resources/trios/L4T2A2.jpg","38","restless",0.2,0.2,0.5,0.814948301090059,"false"
"image-keyboard-response",463,370553,"0.0-4.150-1.150","98dasxn7uooldze",268,"78.csv","","null","resources/maskTrios/BT2B.jpg","null","",NA,NA,NA,NA,""
"image-keyboard-response",464,371761,"0.0-4.150-2.150","98dasxn7uooldze",268,"78.csv","","null","resources/images/fishbone.png","null","",NA,NA,NA,NA,""
"image-keyboard-response",465,371856,"0.0-4.151-0.151","98dasxn7uooldze",268,"78.csv","","93.5","resources/trios/L4T2A2.jpg","38","restless",0.2,0.2,0.5,0.505935038558242,"false"
"image-keyboard-response",466,372270,"0.0-4.151-1.151","98dasxn7uooldze",268,"78.csv","","null","resources/maskTrios/BT2B.jpg","null","",NA,NA,NA,NA,""
"image-keyboard-response",467,373473,"0.0-4.151-2.151","98dasxn7uooldze",268,"78.csv","","null","resources/images/fishbone.png","null","",NA,NA,NA,NA,""
"image-keyboard-response",468,373483,"0.0-4.152-0.152","98dasxn7uooldze",268,"78.csv","","9","resources/trios/L4T2A2.jpg","38","restless",0.2,0.2,0.5,0.502902302094105,"false"
"image-keyboard-response",469,373897,"0.0-4.152-1.152","98dasxn7uooldze",268,"78.csv","","null","resources/maskTrios/BT2B.jpg","null","",NA,NA,NA,NA,""
"image-keyboard-response",470,375103,"0.0-4.152-2.152","98dasxn7uooldze",268,"78.csv","","null","resources/images/fishbone.png","null","",NA,NA,NA,NA,""
"image-keyboard-response",471,375389,"0.0-4.153-0.153","98dasxn7uooldze",268,"78.csv","","284.60000014305115","resources/trios/L4T2A2.jpg","38","restless",0.2,0.2,0.5,0.015233635900501,"true"
"image-keyboard-response",472,375805,"0.0-4.153-1.153","98dasxn7uooldze",268,"78.csv","","null","resources/maskTrios/BT2B.jpg","null","",NA,NA,NA,NA,""
"image-keyboard-response",473,377010,"0.0-4.153-2.153","98dasxn7uooldze",268,"78.csv","","null","resources/images/coin2.png","null","",NA,NA,NA,NA,""
"image-keyboard-response",474,377162,"0.0-4.154-0.154","98dasxn7uooldze",268,"78.csv","","151.29999995231628","resources/trios/L4T2A2.jpg","38","restless",0.3,0.2,0.5,0.462091210871671,"false"
"image-keyboard-response",475,377578,"0.0-4.154-1.154","98dasxn7uooldze",268,"78.csv","","null","resources/maskTrios/BT2B.jpg","null","",NA,NA,NA,NA,""
"image-keyboard-response",476,378781,"0.0-4.154-2.154","98dasxn7uooldze",268,"78.csv","","null","resources/images/fishbone.png","null","",NA,NA,NA,NA,""
"image-keyboard-response",477,379228,"0.0-4.155-0.155","98dasxn7uooldze",268,"78.csv","","445.60000014305115","resources/trios/L4T2A2.jpg","39","restless",0.3,0.2,0.5,0.511011824653538,"false"
"image-keyboard-response",478,379634,"0.0-4.155-1.155","98dasxn7uooldze",268,"78.csv","","null","resources/maskTrios/BBA2.jpg","null","",NA,NA,NA,NA,""
"image-keyboard-response",479,380838,"0.0-4.155-2.155","98dasxn7uooldze",268,"78.csv","","null","resources/images/fishbone.png","null","",NA,NA,NA,NA,""
"image-keyboard-response",480,381030,"0.0-4.156-0.156","98dasxn7uooldze",268,"78.csv","","191.59999990463257","resources/trios/L4T2A2.jpg","37","restless",0.3,0.2,0.6,0.561521233318489,"false"
"image-keyboard-response",481,381436,"0.0-4.156-1.156","98dasxn7uooldze",268,"78.csv","","null","resources/maskTrios/L4BB.jpg","null","",NA,NA,NA,NA,""
"image-keyboard-response",482,382652,"0.0-4.156-2.156","98dasxn7uooldze",268,"78.csv","","null","resources/images/fishbone.png","null","",NA,NA,NA,NA,""
"image-keyboard-response",483,382716,"0.0-4.157-0.157","98dasxn7uooldze",268,"78.csv","","62.80000019073486","resources/trios/L4T2A2.jpg","39","restless",0.3,0.2,0.6,0.726152315104093,"false"
"image-keyboard-response",484,383125,"0.0-4.157-1.157","98dasxn7uooldze",268,"78.csv","","null","resources/maskTrios/BBA2.jpg","null","",NA,NA,NA,NA,""
"image-keyboard-response",485,384340,"0.0-4.157-2.157","98dasxn7uooldze",268,"78.csv","","null","resources/images/fishbone.png","null","",NA,NA,NA,NA,""
"image-keyboard-response",486,384348,"0.0-4.158-0.158","98dasxn7uooldze",268,"78.csv","","7.200000047683716","resources/trios/L4T2A2.jpg","37","restless",0.3,0.3,0.6,0.478834984107457,"false"
"image-keyboard-response",487,384766,"0.0-4.158-1.158","98dasxn7uooldze",268,"78.csv","","null","resources/maskTrios/L4BB.jpg","null","",NA,NA,NA,NA,""
"image-keyboard-response",488,385983,"0.0-4.158-2.158","98dasxn7uooldze",268,"78.csv","","null","resources/images/fishbone.png","null","",NA,NA,NA,NA,""
"image-keyboard-response",489,386066,"0.0-4.159-0.159","98dasxn7uooldze",268,"78.csv","","81.70000004768372","resources/trios/L4T2A2.jpg","37","restless",0.3,0.3,0.6,0.457187406385688,"false"
"image-keyboard-response",490,386473,"0.0-4.159-1.159","98dasxn7uooldze",268,"78.csv","","null","resources/maskTrios/L4BB.jpg","null","",NA,NA,NA,NA,""
"image-keyboard-response",491,387688,"0.0-4.159-2.159","98dasxn7uooldze",268,"78.csv","","null","resources/images/fishbone.png","null","",NA,NA,NA,NA,""
"image-keyboard-response",492,387758,"0.0-4.160-0.160","98dasxn7uooldze",268,"78.csv","","68.29999995231628","resources/trios/L4T2A2.jpg","37","restless",0.3,0.3,0.6,0.126627446852039,"true"
"image-keyboard-response",493,388175,"0.0-4.160-1.160","98dasxn7uooldze",268,"78.csv","","null","resources/maskTrios/L4BB.jpg","null","",NA,NA,NA,NA,""
"image-keyboard-response",494,389379,"0.0-4.160-2.160","98dasxn7uooldze",268,"78.csv","","null","resources/images/coin2.png","null","",NA,NA,NA,NA,""
"image-keyboard-response",495,389518,"0.0-4.161-0.161","98dasxn7uooldze",268,"78.csv","","138.10000014305115","resources/trios/L4T2A2.jpg","37","restless",0.3,0.3,0.6,0.660968150411165,"false"
"image-keyboard-response",496,389929,"0.0-4.161-1.161","98dasxn7uooldze",268,"78.csv","","null","resources/maskTrios/L4BB.jpg","null","",NA,NA,NA,NA,""
"image-keyboard-response",497,391146,"0.0-4.161-2.161","98dasxn7uooldze",268,"78.csv","","null","resources/images/fishbone.png","null","",NA,NA,NA,NA,""
"image-keyboard-response",498,391179,"0.0-4.162-0.162","98dasxn7uooldze",268,"78.csv","","32.799999952316284","resources/trios/L4T2A2.jpg","38","restless",0.3,0.3,0.6,0.831796699824803,"false"
"image-keyboard-response",499,391589,"0.0-4.162-1.162","98dasxn7uooldze",268,"78.csv","","null","resources/maskTrios/BT2B.jpg","null","",NA,NA,NA,NA,""
"image-keyboard-response",500,392793,"0.0-4.162-2.162","98dasxn7uooldze",268,"78.csv","","null","resources/images/fishbone.png","null","",NA,NA,NA,NA,""
"image-keyboard-response",501,393016,"0.0-4.163-0.163","98dasxn7uooldze",268,"78.csv","","222.40000009536743","resources/trios/L4T2A2.jpg","38","restless",0.3,0.3,0.6,0.742394781673878,"false"
"image-keyboard-response",502,393427,"0.0-4.163-1.163","98dasxn7uooldze",268,"78.csv","","null","resources/maskTrios/BT2B.jpg","null","",NA,NA,NA,NA,""
"image-keyboard-response",503,394630,"0.0-4.163-2.163","98dasxn7uooldze",268,"78.csv","","null","resources/images/fishbone.png","null","",NA,NA,NA,NA,""
"image-keyboard-response",504,394842,"0.0-4.164-0.164","98dasxn7uooldze",268,"78.csv","","211","resources/trios/L4T2A2.jpg","38","restless",0.3,0.3,0.6,0.407298508116833,"false"
"image-keyboard-response",505,395248,"0.0-4.164-1.164","98dasxn7uooldze",268,"78.csv","","null","resources/maskTrios/BT2B.jpg","null","",NA,NA,NA,NA,""
"image-keyboard-response",506,396451,"0.0-4.164-2.164","98dasxn7uooldze",268,"78.csv","","null","resources/images/fishbone.png","null","",NA,NA,NA,NA,""
"image-keyboard-response",507,396994,"0.0-4.165-0.165","98dasxn7uooldze",268,"78.csv","","541","resources/trios/L4T2A2.jpg","38","restless",0.3,0.3,0.6,0.647002301277973,"false"
"image-keyboard-response",508,397398,"0.0-4.165-1.165","98dasxn7uooldze",268,"78.csv","","null","resources/maskTrios/BT2B.jpg","null","",NA,NA,NA,NA,""
"image-keyboard-response",509,398613,"0.0-4.165-2.165","98dasxn7uooldze",268,"78.csv","","null","resources/images/fishbone.png","null","",NA,NA,NA,NA,""
"image-keyboard-response",510,398625,"0.0-4.166-0.166","98dasxn7uooldze",268,"78.csv","","11.200000047683716","resources/trios/L4T2A2.jpg","38","restless",0.3,0.3,0.6,0.279810690634489,"true"
"image-keyboard-response",511,399039,"0.0-4.166-1.166","98dasxn7uooldze",268,"78.csv","","null","resources/maskTrios/BT2B.jpg","null","",NA,NA,NA,NA,""
"image-keyboard-response",512,400256,"0.0-4.166-2.166","98dasxn7uooldze",268,"78.csv","","null","resources/images/coin2.png","null","",NA,NA,NA,NA,""
"image-keyboard-response",513,400389,"0.0-4.167-0.167","98dasxn7uooldze",268,"78.csv","","132.20000004768372","resources/trios/L4T2A2.jpg","39","restless",0.3,0.2,0.6,0.261115669911929,"true"
"image-keyboard-response",514,400793,"0.0-4.167-1.167","98dasxn7uooldze",268,"78.csv","","null","resources/maskTrios/BBA2.jpg","null","",NA,NA,NA,NA,""
"image-keyboard-response",515,401998,"0.0-4.167-2.167","98dasxn7uooldze",268,"78.csv","","null","resources/images/coin2.png","null","",NA,NA,NA,NA,""
"image-keyboard-response",516,402284,"0.0-4.168-0.168","98dasxn7uooldze",268,"78.csv","","284.09999990463257","resources/trios/L4T2A2.jpg","39","restless",0.3,0.2,0.6,0.0810420420822471,"true"
"image-keyboard-response",517,402694,"0.0-4.168-1.168","98dasxn7uooldze",268,"78.csv","","null","resources/maskTrios/BBA2.jpg","null","",NA,NA,NA,NA,""
"image-keyboard-response",518,403899,"0.0-4.168-2.168","98dasxn7uooldze",268,"78.csv","","null","resources/images/coin2.png","null","",NA,NA,NA,NA,""
"image-keyboard-response",519,403988,"0.0-4.169-0.169","98dasxn7uooldze",268,"78.csv","","87.80000019073486","resources/trios/L4T2A2.jpg","39","restless",0.3,0.2,0.6,0.080224931580039,"true"
"image-keyboard-response",520,404403,"0.0-4.169-1.169","98dasxn7uooldze",268,"78.csv","","null","resources/maskTrios/BBA2.jpg","null","",NA,NA,NA,NA,""
"image-keyboard-response",521,405618,"0.0-4.169-2.169","98dasxn7uooldze",268,"78.csv","","null","resources/images/coin2.png","null","",NA,NA,NA,NA,""
"image-keyboard-response",522,405698,"0.0-4.170-0.170","98dasxn7uooldze",268,"78.csv","","79","resources/trios/L4T2A2.jpg","37","restless",0.2,0.2,0.6,0.243741099983709,"false"
"image-keyboard-response",523,406105,"0.0-4.170-1.170","98dasxn7uooldze",268,"78.csv","","null","resources/maskTrios/L4BB.jpg","null","",NA,NA,NA,NA,""
"image-keyboard-response",524,407320,"0.0-4.170-2.170","98dasxn7uooldze",268,"78.csv","","null","resources/images/fishbone.png","null","",NA,NA,NA,NA,""
"image-keyboard-response",525,407426,"0.0-4.171-0.171","98dasxn7uooldze",268,"78.csv","","105.10000014305115","resources/trios/L4T2A2.jpg","39","restless",0.2,0.2,0.6,0.519218286988346,"true"
"image-keyboard-response",526,407843,"0.0-4.171-1.171","98dasxn7uooldze",268,"78.csv","","null","resources/maskTrios/BBA2.jpg","null","",NA,NA,NA,NA,""
"image-keyboard-response",527,409059,"0.0-4.171-2.171","98dasxn7uooldze",268,"78.csv","","null","resources/images/coin2.png","null","",NA,NA,NA,NA,""
"image-keyboard-response",528,409078,"0.0-4.172-0.172","98dasxn7uooldze",268,"78.csv","","17.799999952316284","resources/trios/L4T2A2.jpg","39","restless",0.2,0.2,0.6,0.823984986121262,"false"
"image-keyboard-response",529,409485,"0.0-4.172-1.172","98dasxn7uooldze",268,"78.csv","","null","resources/maskTrios/BBA2.jpg","null","",NA,NA,NA,NA,""
"image-keyboard-response",530,410691,"0.0-4.172-2.172","98dasxn7uooldze",268,"78.csv","","null","resources/images/fishbone.png","null","",NA,NA,NA,NA,""
"image-keyboard-response",531,410938,"0.0-4.173-0.173","98dasxn7uooldze",268,"78.csv","","245.09999990463257","resources/trios/L4T2A2.jpg","38","restless",0.2,0.2,0.6,0.920980749068617,"false"
"image-keyboard-response",532,411349,"0.0-4.173-1.173","98dasxn7uooldze",268,"78.csv","","null","resources/maskTrios/BT2B.jpg","null","",NA,NA,NA,NA,""
"image-keyboard-response",533,412555,"0.0-4.173-2.173","98dasxn7uooldze",268,"78.csv","","null","resources/images/fishbone.png","null","",NA,NA,NA,NA,""
"image-keyboard-response",534,412701,"0.0-4.174-0.174","98dasxn7uooldze",268,"78.csv","","143.39999985694885","resources/trios/L4T2A2.jpg","39","restless",0.2,0.2,0.6,0.821149878623037,"false"
"image-keyboard-response",535,413108,"0.0-4.174-1.174","98dasxn7uooldze",268,"78.csv","","null","resources/maskTrios/BBA2.jpg","null","",NA,NA,NA,NA,""
"image-keyboard-response",536,414325,"0.0-4.174-2.174","98dasxn7uooldze",268,"78.csv","","null","resources/images/fishbone.png","null","",NA,NA,NA,NA,""
"image-keyboard-response",537,414544,"0.0-4.175-0.175","98dasxn7uooldze",268,"78.csv","","218.59999990463257","resources/trios/L4T2A2.jpg","37","restless",0.3,0.2,0.6,0.493960825527683,"false"
"image-keyboard-response",538,414962,"0.0-4.175-1.175","98dasxn7uooldze",268,"78.csv","","null","resources/maskTrios/L4BB.jpg","null","",NA,NA,NA,NA,""
"image-keyboard-response",539,416173,"0.0-4.175-2.175","98dasxn7uooldze",268,"78.csv","","null","resources/images/fishbone.png","null","",NA,NA,NA,NA,""
"image-keyboard-response",540,416330,"0.0-4.176-0.176","98dasxn7uooldze",268,"78.csv","","155","resources/trios/L4T2A2.jpg","37","restless",0.3,0.2,0.6,0.479831079155153,"false"
"image-keyboard-response",541,416739,"0.0-4.176-1.176","98dasxn7uooldze",268,"78.csv","","null","resources/maskTrios/L4BB.jpg","null","",NA,NA,NA,NA,""
"image-keyboard-response",542,417941,"0.0-4.176-2.176","98dasxn7uooldze",268,"78.csv","","null","resources/images/fishbone.png","null","",NA,NA,NA,NA,""
"image-keyboard-response",543,417958,"0.0-4.177-0.177","98dasxn7uooldze",268,"78.csv","","15.699999809265137","resources/trios/L4T2A2.jpg","37","restless",0.3,0.2,0.7,0.788730428736545,"false"
"image-keyboard-response",544,418372,"0.0-4.177-1.177","98dasxn7uooldze",268,"78.csv","","null","resources/maskTrios/L4BB.jpg","null","",NA,NA,NA,NA,""
"image-keyboard-response",545,419586,"0.0-4.177-2.177","98dasxn7uooldze",268,"78.csv","","null","resources/images/fishbone.png","null","",NA,NA,NA,NA,""
"image-keyboard-response",546,419889,"0.0-4.178-0.178","98dasxn7uooldze",268,"78.csv","","301.39999985694885","resources/trios/L4T2A2.jpg","38","restless",0.3,0.2,0.7,0.14828748800781,"true"
"image-keyboard-response",547,420304,"0.0-4.178-1.178","98dasxn7uooldze",268,"78.csv","","null","resources/maskTrios/BT2B.jpg","null","",NA,NA,NA,NA,""
"image-keyboard-response",548,421511,"0.0-4.178-2.178","98dasxn7uooldze",268,"78.csv","","null","resources/images/coin2.png","null","",NA,NA,NA,NA,""
"image-keyboard-response",549,421685,"0.0-4.179-0.179","98dasxn7uooldze",268,"78.csv","","172.10000014305115","resources/trios/L4T2A2.jpg","38","restless",0.3,0.2,0.7,0.12079315093465,"true"
"image-keyboard-response",550,422102,"0.0-4.179-1.179","98dasxn7uooldze",268,"78.csv","","null","resources/maskTrios/BT2B.jpg","null","",NA,NA,NA,NA,""
"image-keyboard-response",551,423307,"0.0-4.179-2.179","98dasxn7uooldze",268,"78.csv","","null","resources/images/coin2.png","null","",NA,NA,NA,NA,""
"image-keyboard-response",552,423591,"0.0-4.180-0.180","98dasxn7uooldze",268,"78.csv","","282.40000009536743","resources/trios/L4T2A2.jpg","38","restless",0.3,0.2,0.7,0.223359023374927,"false"
"image-keyboard-response",553,423993,"0.0-4.180-1.180","98dasxn7uooldze",268,"78.csv","","null","resources/maskTrios/BT2B.jpg","null","",NA,NA,NA,NA,""
"image-keyboard-response",554,425210,"0.0-4.180-2.180","98dasxn7uooldze",268,"78.csv","","null","resources/images/fishbone.png","null","",NA,NA,NA,NA,""
"image-keyboard-response",555,425346,"0.0-4.181-0.181","98dasxn7uooldze",268,"78.csv","","135","resources/trios/L4T2A2.jpg","39","restless",0.3,0.2,0.7,0.0278702956405492,"true"
"image-keyboard-response",556,425763,"0.0-4.181-1.181","98dasxn7uooldze",268,"78.csv","","null","resources/maskTrios/BBA2.jpg","null","",NA,NA,NA,NA,""
"image-keyboard-response",557,426975,"0.0-4.181-2.181","98dasxn7uooldze",268,"78.csv","","null","resources/images/coin2.png","null","",NA,NA,NA,NA,""
"image-keyboard-response",558,427525,"0.0-4.182-0.182","98dasxn7uooldze",268,"78.csv","","548.7000000476837","resources/trios/L4T2A2.jpg","39","restless",0.3,0.2,0.7,0.10238746266175,"true"
"image-keyboard-response",559,427933,"0.0-4.182-1.182","98dasxn7uooldze",268,"78.csv","","null","resources/maskTrios/BBA2.jpg","null","",NA,NA,NA,NA,""
"image-keyboard-response",560,429135,"0.0-4.182-2.182","98dasxn7uooldze",268,"78.csv","","null","resources/images/coin2.png","null","",NA,NA,NA,NA,""
"image-keyboard-response",561,429687,"0.0-4.183-0.183","98dasxn7uooldze",268,"78.csv","","549.9000000953674","resources/trios/L4T2A2.jpg","39","restless",0.3,0.2,0.7,0.790886885790939,"false"
"image-keyboard-response",562,430103,"0.0-4.183-1.183","98dasxn7uooldze",268,"78.csv","","null","resources/maskTrios/BBA2.jpg","null","",NA,NA,NA,NA,""
"image-keyboard-response",563,431315,"0.0-4.183-2.183","98dasxn7uooldze",268,"78.csv","","null","resources/images/fishbone.png","null","",NA,NA,NA,NA,""
"image-keyboard-response",564,431384,"0.0-4.184-0.184","98dasxn7uooldze",268,"78.csv","","68.09999990463257","resources/trios/L4T2A2.jpg","37","restless",0.3,0.2,0.7,0.665990257656417,"false"
"image-keyboard-response",565,431793,"0.0-4.184-1.184","98dasxn7uooldze",268,"78.csv","","null","resources/maskTrios/L4BB.jpg","null","",NA,NA,NA,NA,""
"image-keyboard-response",566,432997,"0.0-4.184-2.184","98dasxn7uooldze",268,"78.csv","","null","resources/images/fishbone.png","null","",NA,NA,NA,NA,""
"image-keyboard-response",567,433250,"0.0-4.185-0.185","98dasxn7uooldze",268,"78.csv","","251.5","resources/trios/L4T2A2.jpg","38","restless",0.3,0.2,0.7,0.680117110445949,"false"
"image-keyboard-response",568,433659,"0.0-4.185-1.185","98dasxn7uooldze",268,"78.csv","","null","resources/maskTrios/BT2B.jpg","null","",NA,NA,NA,NA,""
"image-keyboard-response",569,434874,"0.0-4.185-2.185","98dasxn7uooldze",268,"78.csv","","null","resources/images/fishbone.png","null","",NA,NA,NA,NA,""
"image-keyboard-response",570,435144,"0.0-4.186-0.186","98dasxn7uooldze",268,"78.csv","","268.7999999523163","resources/trios/L4T2A2.jpg","39","restless",0.4,0.2,0.7,0.0291663156015665,"true"
"image-keyboard-response",571,435554,"0.0-4.186-1.186","98dasxn7uooldze",268,"78.csv","","null","resources/maskTrios/BBA2.jpg","null","",NA,NA,NA,NA,""
"image-keyboard-response",572,436768,"0.0-4.186-2.186","98dasxn7uooldze",268,"78.csv","","null","resources/images/coin2.png","null","",NA,NA,NA,NA,""
"image-keyboard-response",573,436804,"0.0-4.187-0.187","98dasxn7uooldze",268,"78.csv","","35.5","resources/trios/L4T2A2.jpg","39","restless",0.4,0.2,0.7,0.07632106780271,"true"
"image-keyboard-response",574,437212,"0.0-4.187-1.187","98dasxn7uooldze",268,"78.csv","","null","resources/maskTrios/BBA2.jpg","null","",NA,NA,NA,NA,""
"image-keyboard-response",575,438416,"0.0-4.187-2.187","98dasxn7uooldze",268,"78.csv","","null","resources/images/coin2.png","null","",NA,NA,NA,NA,""
"image-keyboard-response",576,438768,"0.0-4.188-0.188","98dasxn7uooldze",268,"78.csv","","350.5","resources/trios/L4T2A2.jpg","39","restless",0.5,0.2,0.7,0.388124493063929,"true"
"image-keyboard-response",577,439172,"0.0-4.188-1.188","98dasxn7uooldze",268,"78.csv","","null","resources/maskTrios/BBA2.jpg","null","",NA,NA,NA,NA,""
"image-keyboard-response",578,440374,"0.0-4.188-2.188","98dasxn7uooldze",268,"78.csv","","null","resources/images/coin2.png","null","",NA,NA,NA,NA,""
"image-keyboard-response",579,440644,"0.0-4.189-0.189","98dasxn7uooldze",268,"78.csv","","268.60000014305115","resources/trios/L4T2A2.jpg","39","restless",0.5,0.1,0.7,0.262885847005712,"true"
"image-keyboard-response",580,441050,"0.0-4.189-1.189","98dasxn7uooldze",268,"78.csv","","null","resources/maskTrios/BBA2.jpg","null","",NA,NA,NA,NA,""
"image-keyboard-response",581,442254,"0.0-4.189-2.189","98dasxn7uooldze",268,"78.csv","","null","resources/images/coin2.png","null","",NA,NA,NA,NA,""
"image-keyboard-response",582,442409,"0.0-4.190-0.190","98dasxn7uooldze",268,"78.csv","","153.70000004768372","resources/trios/L4T2A2.jpg","37","restless",0.5,0.1,0.7,0.608374673809773,"false"
"image-keyboard-response",583,442822,"0.0-4.190-1.190","98dasxn7uooldze",268,"78.csv","","null","resources/maskTrios/L4BB.jpg","null","",NA,NA,NA,NA,""
"image-keyboard-response",584,444038,"0.0-4.190-2.190","98dasxn7uooldze",268,"78.csv","","null","resources/images/fishbone.png","null","",NA,NA,NA,NA,""
"image-keyboard-response",585,444414,"0.0-4.191-0.191","98dasxn7uooldze",268,"78.csv","","374.59999990463257","resources/trios/L4T2A2.jpg","39","restless",0.5,0.1,0.7,0.499472482105356,"true"
"image-keyboard-response",586,444819,"0.0-4.191-1.191","98dasxn7uooldze",268,"78.csv","","null","resources/maskTrios/BBA2.jpg","null","",NA,NA,NA,NA,""
"image-keyboard-response",587,446025,"0.0-4.191-2.191","98dasxn7uooldze",268,"78.csv","","null","resources/images/coin2.png","null","",NA,NA,NA,NA,""
"image-keyboard-response",588,446129,"0.0-4.192-0.192","98dasxn7uooldze",268,"78.csv","","102.20000004768372","resources/trios/L4T2A2.jpg","39","restless",0.5,0.1,0.7,0.72729741522662,"false"
"image-keyboard-response",589,446545,"0.0-4.192-1.192","98dasxn7uooldze",268,"78.csv","","null","resources/maskTrios/BBA2.jpg","null","",NA,NA,NA,NA,""
"image-keyboard-response",590,447749,"0.0-4.192-2.192","98dasxn7uooldze",268,"78.csv","","null","resources/images/fishbone.png","null","",NA,NA,NA,NA,""
"image-keyboard-response",591,447960,"0.0-4.193-0.193","98dasxn7uooldze",268,"78.csv","","210","resources/trios/L4T2A2.jpg","38","restless",0.5,0.1,0.7,0.134084321884321,"false"
"image-keyboard-response",592,448365,"0.0-4.193-1.193","98dasxn7uooldze",268,"78.csv","","null","resources/maskTrios/BT2B.jpg","null","",NA,NA,NA,NA,""
"image-keyboard-response",593,449569,"0.0-4.193-2.193","98dasxn7uooldze",268,"78.csv","","null","resources/images/fishbone.png","null","",NA,NA,NA,NA,""
"image-keyboard-response",594,449729,"0.0-4.194-0.194","98dasxn7uooldze",268,"78.csv","","158.59999990463257","resources/trios/L4T2A2.jpg","37","restless",0.5,0.1,0.7,0.345620753658521,"true"
"image-keyboard-response",595,450138,"0.0-4.194-1.194","98dasxn7uooldze",268,"78.csv","","null","resources/maskTrios/L4BB.jpg","null","",NA,NA,NA,NA,""
"image-keyboard-response",596,451355,"0.0-4.194-2.194","98dasxn7uooldze",268,"78.csv","","null","resources/images/coin2.png","null","",NA,NA,NA,NA,""
"image-keyboard-response",597,451583,"0.0-4.195-0.195","98dasxn7uooldze",268,"78.csv","","227.29999995231628","resources/trios/L4T2A2.jpg","37","restless",0.5,0.1,0.6,0.300860396825538,"true"
"image-keyboard-response",598,451988,"0.0-4.195-1.195","98dasxn7uooldze",268,"78.csv","","null","resources/maskTrios/L4BB.jpg","null","",NA,NA,NA,NA,""
"image-keyboard-response",599,453204,"0.0-4.195-2.195","98dasxn7uooldze",268,"78.csv","","null","resources/images/coin2.png","null","",NA,NA,NA,NA,""
"image-keyboard-response",600,453222,"0.0-4.196-0.196","98dasxn7uooldze",268,"78.csv","","17.09999990463257","resources/trios/L4T2A2.jpg","37","restless",0.5,0.1,0.6,0.673565093646938,"false"
"image-keyboard-response",601,453630,"0.0-4.196-1.196","98dasxn7uooldze",268,"78.csv","","null","resources/maskTrios/L4BB.jpg","null","",NA,NA,NA,NA,""
"image-keyboard-response",602,454846,"0.0-4.196-2.196","98dasxn7uooldze",268,"78.csv","","null","resources/images/fishbone.png","null","",NA,NA,NA,NA,""
"image-keyboard-response",603,455116,"0.0-4.197-0.197","98dasxn7uooldze",268,"78.csv","","268.7000000476837","resources/trios/L4T2A2.jpg","39","restless",0.5,0.1,0.6,0.820437212283904,"false"
"image-keyboard-response",604,455524,"0.0-4.197-1.197","98dasxn7uooldze",268,"78.csv","","null","resources/maskTrios/BBA2.jpg","null","",NA,NA,NA,NA,""
"image-keyboard-response",605,456734,"0.0-4.197-2.197","98dasxn7uooldze",268,"78.csv","","null","resources/images/fishbone.png","null","",NA,NA,NA,NA,""
"image-keyboard-response",606,457017,"0.0-4.198-0.198","98dasxn7uooldze",268,"78.csv","","282.2000000476837","resources/trios/L4T2A2.jpg","38","restless",0.5,0.2,0.6,0.664744077748752,"false"
"image-keyboard-response",607,457429,"0.0-4.198-1.198","98dasxn7uooldze",268,"78.csv","","null","resources/maskTrios/BT2B.jpg","null","",NA,NA,NA,NA,""
"image-keyboard-response",608,458633,"0.0-4.198-2.198","98dasxn7uooldze",268,"78.csv","","null","resources/images/fishbone.png","null","",NA,NA,NA,NA,""
"image-keyboard-response",609,459008,"0.0-4.199-0.199","98dasxn7uooldze",268,"78.csv","","373.69999980926514","resources/trios/L4T2A2.jpg","37","restless",0.5,0.2,0.6,0.369309204825669,"true"
"image-keyboard-response",610,459417,"0.0-4.199-1.199","98dasxn7uooldze",268,"78.csv","","null","resources/maskTrios/L4BB.jpg","null","",NA,NA,NA,NA,""
"image-keyboard-response",611,460622,"0.0-4.199-2.199","98dasxn7uooldze",268,"78.csv","","null","resources/images/coin2.png","null","",NA,NA,NA,NA,""
"survey-text",612,545604,"0.0-5.0","98dasxn7uooldze",268,"78.csv","","84977.09999990463","","","",NA,NA,NA,NA,""
