"trial_type","trial_index","time_elapsed","internal_node_id","subject","participantCode","walkNumber","success","rt","stimulus","key_press","test_part","leftProb","midProb","rightProb","generatedNum","correct"
"pavlovia",0,522,"0.0-0.0","drynpn9t38hnzzq",168,"97.csv","","","","","",NA,NA,NA,NA,""
"fullscreen",1,5249,"0.0-1.0","drynpn9t38hnzzq",168,"97.csv","true","","","","",NA,NA,NA,NA,""
"survey-html-form",2,11945,"0.0-2.0","drynpn9t38hnzzq",168,"97.csv","","6694.900000095367","","","",NA,NA,NA,NA,""
"image-keyboard-response",3,19202,"0.0-3.0-0.0","drynpn9t38hnzzq",168,"97.csv","","7255.799999952316","resources/images/parrot_nobg.png","13","",NA,NA,NA,NA,""
"image-keyboard-response",4,22219,"0.0-3.0-1.0","drynpn9t38hnzzq",168,"97.csv","","null","resources/image_sets/111.png","null","",NA,NA,NA,NA,""
"image-keyboard-response",5,34906,"0.0-3.0-2.0","drynpn9t38hnzzq",168,"97.csv","","12686.5","resources/image_sets/left_highlight.png","37","",NA,NA,NA,NA,""
"image-keyboard-response",6,37601,"0.0-3.0-3.0","drynpn9t38hnzzq",168,"97.csv","","2693.9000000953674","resources/image_sets/mid_highlight.png","38","",NA,NA,NA,NA,""
"image-keyboard-response",7,38444,"0.0-3.0-4.0","drynpn9t38hnzzq",168,"97.csv","","842.7999999523163","resources/image_sets/right_highlight.png","39","",NA,NA,NA,NA,""
"image-keyboard-response",8,40947,"0.0-3.0-5.0","drynpn9t38hnzzq",168,"97.csv","","2502.2000000476837","resources/image_sets/111.png","13","",NA,NA,NA,NA,""
"image-keyboard-response",9,42072,"0.0-3.0-6.0","drynpn9t38hnzzq",168,"97.csv","","1124.7000000476837","resources/images/coin2.png","13","",NA,NA,NA,NA,""
"image-keyboard-response",10,42787,"0.0-3.0-7.0","drynpn9t38hnzzq",168,"97.csv","","713.7999999523163","resources/images/fishbone.png","13","",NA,NA,NA,NA,""
"html-keyboard-response",11,49428,"0.0-3.0-8.0","drynpn9t38hnzzq",168,"97.csv","","6640.800000190735","<p>You can track your coin total on the top right of your screen. </p><p>At the end of your journey you will be directed to a survey, so please click on the link before exiting the task</p><p>Press Enter to begin</p>","13","",NA,NA,NA,NA,""
"image-keyboard-response",12,70297,"0.0-4.0-0.0","drynpn9t38hnzzq",168,"97.csv","","20867.299999952316","resources/trios/L1T2A2.jpg","39","restless",0.7,0.3,0.9,0.83658776941981,"true"
"image-keyboard-response",13,70708,"0.0-4.0-1.0","drynpn9t38hnzzq",168,"97.csv","","null","resources/maskTrios/BBA2.jpg","null","",NA,NA,NA,NA,""
"image-keyboard-response",14,71914,"0.0-4.0-2.0","drynpn9t38hnzzq",168,"97.csv","","null","resources/images/coin2.png","null","",NA,NA,NA,NA,""
"image-keyboard-response",15,76256,"0.0-4.1-0.1","drynpn9t38hnzzq",168,"97.csv","","4340","resources/trios/L1T2A2.jpg","39","restless",0.7,0.3,0.9,0.0055451448900794,"true"
"image-keyboard-response",16,76672,"0.0-4.1-1.1","drynpn9t38hnzzq",168,"97.csv","","null","resources/maskTrios/BBA2.jpg","null","",NA,NA,NA,NA,""
"image-keyboard-response",17,77874,"0.0-4.1-2.1","drynpn9t38hnzzq",168,"97.csv","","null","resources/images/coin2.png","null","",NA,NA,NA,NA,""
"image-keyboard-response",18,82252,"0.0-4.2-0.2","drynpn9t38hnzzq",168,"97.csv","","4377.900000095367","resources/trios/L1T2A2.jpg","37","restless",0.7,0.3,0.8,0.421290567150625,"true"
"image-keyboard-response",19,82659,"0.0-4.2-1.2","drynpn9t38hnzzq",168,"97.csv","","null","resources/maskTrios/L1BB.jpg","null","",NA,NA,NA,NA,""
"image-keyboard-response",20,83873,"0.0-4.2-2.2","drynpn9t38hnzzq",168,"97.csv","","null","resources/images/coin2.png","null","",NA,NA,NA,NA,""
"image-keyboard-response",21,88068,"0.0-4.3-0.3","drynpn9t38hnzzq",168,"97.csv","","4194.400000095367","resources/trios/L1T2A2.jpg","38","restless",0.7,0.3,0.8,0.507270201515967,"false"
"image-keyboard-response",22,88478,"0.0-4.3-1.3","drynpn9t38hnzzq",168,"97.csv","","null","resources/maskTrios/BT2B.jpg","null","",NA,NA,NA,NA,""
"image-keyboard-response",23,89693,"0.0-4.3-2.3","drynpn9t38hnzzq",168,"97.csv","","null","resources/images/fishbone.png","null","",NA,NA,NA,NA,""
"image-keyboard-response",24,101413,"0.0-4.4-0.4","drynpn9t38hnzzq",168,"97.csv","","11718.699999809265","resources/trios/L1T2A2.jpg","39","restless",0.7,0.3,0.8,0.784959236548348,"true"
"image-keyboard-response",25,101818,"0.0-4.4-1.4","drynpn9t38hnzzq",168,"97.csv","","null","resources/maskTrios/BBA2.jpg","null","",NA,NA,NA,NA,""
"image-keyboard-response",26,103033,"0.0-4.4-2.4","drynpn9t38hnzzq",168,"97.csv","","null","resources/images/coin2.png","null","",NA,NA,NA,NA,""
"image-keyboard-response",27,107870,"0.0-4.5-0.5","drynpn9t38hnzzq",168,"97.csv","","4836.399999856949","resources/trios/L1T2A2.jpg","38","restless",0.6,0.3,0.8,0.626857991787266,"false"
"image-keyboard-response",28,108283,"0.0-4.5-1.5","drynpn9t38hnzzq",168,"97.csv","","null","resources/maskTrios/BT2B.jpg","null","",NA,NA,NA,NA,""
"image-keyboard-response",29,109486,"0.0-4.5-2.5","drynpn9t38hnzzq",168,"97.csv","","null","resources/images/fishbone.png","null","",NA,NA,NA,NA,""
"image-keyboard-response",30,111438,"0.0-4.6-0.6","drynpn9t38hnzzq",168,"97.csv","","1951","resources/trios/L1T2A2.jpg","39","restless",0.6,0.3,0.8,0.981501715305516,"false"
"image-keyboard-response",31,111853,"0.0-4.6-1.6","drynpn9t38hnzzq",168,"97.csv","","null","resources/maskTrios/BBA2.jpg","null","",NA,NA,NA,NA,""
"image-keyboard-response",32,113055,"0.0-4.6-2.6","drynpn9t38hnzzq",168,"97.csv","","null","resources/images/fishbone.png","null","",NA,NA,NA,NA,""
"image-keyboard-response",33,115683,"0.0-4.7-0.7","drynpn9t38hnzzq",168,"97.csv","","2627.9000000953674","resources/trios/L1T2A2.jpg","37","restless",0.6,0.3,0.8,0.0210544694902692,"true"
"image-keyboard-response",34,116089,"0.0-4.7-1.7","drynpn9t38hnzzq",168,"97.csv","","null","resources/maskTrios/L1BB.jpg","null","",NA,NA,NA,NA,""
"image-keyboard-response",35,117305,"0.0-4.7-2.7","drynpn9t38hnzzq",168,"97.csv","","null","resources/images/coin2.png","null","",NA,NA,NA,NA,""
"image-keyboard-response",36,118451,"0.0-4.8-0.8","drynpn9t38hnzzq",168,"97.csv","","1145.7000000476837","resources/trios/L1T2A2.jpg","37","restless",0.7,0.3,0.8,0.458651504604196,"true"
"image-keyboard-response",37,118857,"0.0-4.8-1.8","drynpn9t38hnzzq",168,"97.csv","","null","resources/maskTrios/L1BB.jpg","null","",NA,NA,NA,NA,""
"image-keyboard-response",38,120073,"0.0-4.8-2.8","drynpn9t38hnzzq",168,"97.csv","","null","resources/images/coin2.png","null","",NA,NA,NA,NA,""
"image-keyboard-response",39,120552,"0.0-4.9-0.9","drynpn9t38hnzzq",168,"97.csv","","478.7999999523163","resources/trios/L1T2A2.jpg","37","restless",0.7,0.3,0.8,0.00676903099583881,"true"
"image-keyboard-response",40,120957,"0.0-4.9-1.9","drynpn9t38hnzzq",168,"97.csv","","null","resources/maskTrios/L1BB.jpg","null","",NA,NA,NA,NA,""
"image-keyboard-response",41,122158,"0.0-4.9-2.9","drynpn9t38hnzzq",168,"97.csv","","null","resources/images/coin2.png","null","",NA,NA,NA,NA,""
"image-keyboard-response",42,122545,"0.0-4.10-0.10","drynpn9t38hnzzq",168,"97.csv","","386.2000000476837","resources/trios/L1T2A2.jpg","37","restless",0.7,0.3,0.8,0.881703580908044,"false"
"image-keyboard-response",43,122958,"0.0-4.10-1.10","drynpn9t38hnzzq",168,"97.csv","","null","resources/maskTrios/L1BB.jpg","null","",NA,NA,NA,NA,""
"image-keyboard-response",44,124173,"0.0-4.10-2.10","drynpn9t38hnzzq",168,"97.csv","","null","resources/images/fishbone.png","null","",NA,NA,NA,NA,""
"image-keyboard-response",45,124784,"0.0-4.11-0.11","drynpn9t38hnzzq",168,"97.csv","","610.5","resources/trios/L1T2A2.jpg","39","restless",0.7,0.3,0.8,0.699411829882869,"true"
"image-keyboard-response",46,125193,"0.0-4.11-1.11","drynpn9t38hnzzq",168,"97.csv","","null","resources/maskTrios/BBA2.jpg","null","",NA,NA,NA,NA,""
"image-keyboard-response",47,126395,"0.0-4.11-2.11","drynpn9t38hnzzq",168,"97.csv","","null","resources/images/coin2.png","null","",NA,NA,NA,NA,""
"image-keyboard-response",48,126831,"0.0-4.12-0.12","drynpn9t38hnzzq",168,"97.csv","","435.5","resources/trios/L1T2A2.jpg","39","restless",0.7,0.3,0.7,0.412774868175286,"true"
"image-keyboard-response",49,127243,"0.0-4.12-1.12","drynpn9t38hnzzq",168,"97.csv","","null","resources/maskTrios/BBA2.jpg","null","",NA,NA,NA,NA,""
"image-keyboard-response",50,128449,"0.0-4.12-2.12","drynpn9t38hnzzq",168,"97.csv","","null","resources/images/coin2.png","null","",NA,NA,NA,NA,""
"image-keyboard-response",51,163838,"0.0-4.13-0.13","drynpn9t38hnzzq",168,"97.csv","","35388.59999990463","resources/trios/L1T2A2.jpg","39","restless",0.7,0.3,0.7,0.849072336693107,"false"
"image-keyboard-response",52,164255,"0.0-4.13-1.13","drynpn9t38hnzzq",168,"97.csv","","null","resources/maskTrios/BBA2.jpg","null","",NA,NA,NA,NA,""
"image-keyboard-response",53,165458,"0.0-4.13-2.13","drynpn9t38hnzzq",168,"97.csv","","null","resources/images/fishbone.png","null","",NA,NA,NA,NA,""
"image-keyboard-response",54,165921,"0.0-4.14-0.14","drynpn9t38hnzzq",168,"97.csv","","461.89999985694885","resources/trios/L1T2A2.jpg","37","restless",0.7,0.2,0.7,0.940411946716325,"false"
"image-keyboard-response",55,166325,"0.0-4.14-1.14","drynpn9t38hnzzq",168,"97.csv","","null","resources/maskTrios/L1BB.jpg","null","",NA,NA,NA,NA,""
"image-keyboard-response",56,167541,"0.0-4.14-2.14","drynpn9t38hnzzq",168,"97.csv","","null","resources/images/fishbone.png","null","",NA,NA,NA,NA,""
"image-keyboard-response",57,169484,"0.0-4.15-0.15","drynpn9t38hnzzq",168,"97.csv","","1942.7000000476837","resources/trios/L1T2A2.jpg","38","restless",0.7,0.2,0.7,0.189682564494764,"true"
"image-keyboard-response",58,169892,"0.0-4.15-1.15","drynpn9t38hnzzq",168,"97.csv","","null","resources/maskTrios/BT2B.jpg","null","",NA,NA,NA,NA,""
"image-keyboard-response",59,171099,"0.0-4.15-2.15","drynpn9t38hnzzq",168,"97.csv","","null","resources/images/coin2.png","null","",NA,NA,NA,NA,""
"image-keyboard-response",60,171612,"0.0-4.16-0.16","drynpn9t38hnzzq",168,"97.csv","","512.7999999523163","resources/trios/L1T2A2.jpg","38","restless",0.7,0.2,0.7,0.266081429989987,"false"
"image-keyboard-response",61,172026,"0.0-4.16-1.16","drynpn9t38hnzzq",168,"97.csv","","null","resources/maskTrios/BT2B.jpg","null","",NA,NA,NA,NA,""
"image-keyboard-response",62,173241,"0.0-4.16-2.16","drynpn9t38hnzzq",168,"97.csv","","null","resources/images/fishbone.png","null","",NA,NA,NA,NA,""
"image-keyboard-response",63,173561,"0.0-4.17-0.17","drynpn9t38hnzzq",168,"97.csv","","318.39999985694885","resources/trios/L1T2A2.jpg","39","restless",0.7,0.2,0.6,0.408368463343088,"true"
"image-keyboard-response",64,173976,"0.0-4.17-1.17","drynpn9t38hnzzq",168,"97.csv","","null","resources/maskTrios/BBA2.jpg","null","",NA,NA,NA,NA,""
"image-keyboard-response",65,175193,"0.0-4.17-2.17","drynpn9t38hnzzq",168,"97.csv","","null","resources/images/coin2.png","null","",NA,NA,NA,NA,""
"image-keyboard-response",66,175573,"0.0-4.18-0.18","drynpn9t38hnzzq",168,"97.csv","","379","resources/trios/L1T2A2.jpg","39","restless",0.7,0.2,0.6,0.663642569692105,"false"
"image-keyboard-response",67,175978,"0.0-4.18-1.18","drynpn9t38hnzzq",168,"97.csv","","null","resources/maskTrios/BBA2.jpg","null","",NA,NA,NA,NA,""
"image-keyboard-response",68,177194,"0.0-4.18-2.18","drynpn9t38hnzzq",168,"97.csv","","null","resources/images/fishbone.png","null","",NA,NA,NA,NA,""
"image-keyboard-response",69,177603,"0.0-4.19-0.19","drynpn9t38hnzzq",168,"97.csv","","408.2999999523163","resources/trios/L1T2A2.jpg","37","restless",0.6,0.3,0.6,0.848370845550189,"false"
"image-keyboard-response",70,178012,"0.0-4.19-1.19","drynpn9t38hnzzq",168,"97.csv","","null","resources/maskTrios/L1BB.jpg","null","",NA,NA,NA,NA,""
"image-keyboard-response",71,179228,"0.0-4.19-2.19","drynpn9t38hnzzq",168,"97.csv","","null","resources/images/fishbone.png","null","",NA,NA,NA,NA,""
"image-keyboard-response",72,179599,"0.0-4.20-0.20","drynpn9t38hnzzq",168,"97.csv","","370.09999990463257","resources/trios/L1T2A2.jpg","39","restless",0.6,0.3,0.6,0.090092665933887,"true"
"image-keyboard-response",73,180012,"0.0-4.20-1.20","drynpn9t38hnzzq",168,"97.csv","","null","resources/maskTrios/BBA2.jpg","null","",NA,NA,NA,NA,""
"image-keyboard-response",74,181214,"0.0-4.20-2.20","drynpn9t38hnzzq",168,"97.csv","","null","resources/images/coin2.png","null","",NA,NA,NA,NA,""
"image-keyboard-response",75,181643,"0.0-4.21-0.21","drynpn9t38hnzzq",168,"97.csv","","428.30000019073486","resources/trios/L1T2A2.jpg","39","restless",0.6,0.3,0.6,0.896456807457346,"false"
"image-keyboard-response",76,182047,"0.0-4.21-1.21","drynpn9t38hnzzq",168,"97.csv","","null","resources/maskTrios/BBA2.jpg","null","",NA,NA,NA,NA,""
"image-keyboard-response",77,183249,"0.0-4.21-2.21","drynpn9t38hnzzq",168,"97.csv","","null","resources/images/fishbone.png","null","",NA,NA,NA,NA,""
"image-keyboard-response",78,183410,"0.0-4.22-0.22","drynpn9t38hnzzq",168,"97.csv","","160.40000009536743","resources/trios/L1T2A2.jpg","39","restless",0.6,0.3,0.6,0.158558084869587,"true"
"image-keyboard-response",79,183814,"0.0-4.22-1.22","drynpn9t38hnzzq",168,"97.csv","","null","resources/maskTrios/BBA2.jpg","null","",NA,NA,NA,NA,""
"image-keyboard-response",80,185030,"0.0-4.22-2.22","drynpn9t38hnzzq",168,"97.csv","","null","resources/images/coin2.png","null","",NA,NA,NA,NA,""
"image-keyboard-response",81,185169,"0.0-4.23-0.23","drynpn9t38hnzzq",168,"97.csv","","137.79999995231628","resources/trios/L1T2A2.jpg","39","restless",0.6,0.3,0.6,0.831645603831005,"false"
"image-keyboard-response",82,185582,"0.0-4.23-1.23","drynpn9t38hnzzq",168,"97.csv","","null","resources/maskTrios/BBA2.jpg","null","",NA,NA,NA,NA,""
"image-keyboard-response",83,186799,"0.0-4.23-2.23","drynpn9t38hnzzq",168,"97.csv","","null","resources/images/fishbone.png","null","",NA,NA,NA,NA,""
"image-keyboard-response",84,187543,"0.0-4.24-0.24","drynpn9t38hnzzq",168,"97.csv","","743.7999999523163","resources/trios/L1T2A2.jpg","38","restless",0.6,0.3,0.6,0.145433004354987,"true"
"image-keyboard-response",85,187950,"0.0-4.24-1.24","drynpn9t38hnzzq",168,"97.csv","","null","resources/maskTrios/BT2B.jpg","null","",NA,NA,NA,NA,""
"image-keyboard-response",86,189166,"0.0-4.24-2.24","drynpn9t38hnzzq",168,"97.csv","","null","resources/images/coin2.png","null","",NA,NA,NA,NA,""
"image-keyboard-response",87,189434,"0.0-4.25-0.25","drynpn9t38hnzzq",168,"97.csv","","267.40000009536743","resources/trios/L1T2A2.jpg","39","restless",0.6,0.3,0.6,0.0843066922143851,"true"
"image-keyboard-response",88,189850,"0.0-4.25-1.25","drynpn9t38hnzzq",168,"97.csv","","null","resources/maskTrios/BBA2.jpg","null","",NA,NA,NA,NA,""
"image-keyboard-response",89,191052,"0.0-4.25-2.25","drynpn9t38hnzzq",168,"97.csv","","null","resources/images/coin2.png","null","",NA,NA,NA,NA,""
"image-keyboard-response",90,191462,"0.0-4.26-0.26","drynpn9t38hnzzq",168,"97.csv","","409.39999985694885","resources/trios/L1T2A2.jpg","39","restless",0.6,0.3,0.6,0.994656302494865,"false"
"image-keyboard-response",91,191868,"0.0-4.26-1.26","drynpn9t38hnzzq",168,"97.csv","","null","resources/maskTrios/BBA2.jpg","null","",NA,NA,NA,NA,""
"image-keyboard-response",92,193078,"0.0-4.26-2.26","drynpn9t38hnzzq",168,"97.csv","","null","resources/images/fishbone.png","null","",NA,NA,NA,NA,""
"image-keyboard-response",93,193497,"0.0-4.27-0.27","drynpn9t38hnzzq",168,"97.csv","","417.7999999523163","resources/trios/L1T2A2.jpg","39","restless",0.6,0.3,0.6,0.0109010306115132,"true"
"image-keyboard-response",94,193910,"0.0-4.27-1.27","drynpn9t38hnzzq",168,"97.csv","","null","resources/maskTrios/BBA2.jpg","null","",NA,NA,NA,NA,""
"image-keyboard-response",95,195119,"0.0-4.27-2.27","drynpn9t38hnzzq",168,"97.csv","","null","resources/images/coin2.png","null","",NA,NA,NA,NA,""
"image-keyboard-response",96,195568,"0.0-4.28-0.28","drynpn9t38hnzzq",168,"97.csv","","448.2999999523163","resources/trios/L1T2A2.jpg","39","restless",0.6,0.3,0.6,0.766700696651769,"false"
"image-keyboard-response",97,195984,"0.0-4.28-1.28","drynpn9t38hnzzq",168,"97.csv","","null","resources/maskTrios/BBA2.jpg","null","",NA,NA,NA,NA,""
"image-keyboard-response",98,197201,"0.0-4.28-2.28","drynpn9t38hnzzq",168,"97.csv","","null","resources/images/fishbone.png","null","",NA,NA,NA,NA,""
"image-keyboard-response",99,197581,"0.0-4.29-0.29","drynpn9t38hnzzq",168,"97.csv","","378.60000014305115","resources/trios/L1T2A2.jpg","38","restless",0.6,0.4,0.6,0.202501186313079,"true"
"image-keyboard-response",100,197986,"0.0-4.29-1.29","drynpn9t38hnzzq",168,"97.csv","","null","resources/maskTrios/BT2B.jpg","null","",NA,NA,NA,NA,""
"image-keyboard-response",101,199203,"0.0-4.29-2.29","drynpn9t38hnzzq",168,"97.csv","","null","resources/images/coin2.png","null","",NA,NA,NA,NA,""
"image-keyboard-response",102,199438,"0.0-4.30-0.30","drynpn9t38hnzzq",168,"97.csv","","233.80000019073486","resources/trios/L1T2A2.jpg","39","restless",0.6,0.4,0.6,0.0141050453400104,"true"
"image-keyboard-response",103,199852,"0.0-4.30-1.30","drynpn9t38hnzzq",168,"97.csv","","null","resources/maskTrios/BBA2.jpg","null","",NA,NA,NA,NA,""
"image-keyboard-response",104,201068,"0.0-4.30-2.30","drynpn9t38hnzzq",168,"97.csv","","null","resources/images/coin2.png","null","",NA,NA,NA,NA,""
"image-keyboard-response",105,201095,"0.0-4.31-0.31","drynpn9t38hnzzq",168,"97.csv","","24.200000047683716","resources/trios/L1T2A2.jpg","39","restless",0.6,0.4,0.6,0.913013876413427,"false"
"image-keyboard-response",106,201506,"0.0-4.31-1.31","drynpn9t38hnzzq",168,"97.csv","","null","resources/maskTrios/BBA2.jpg","null","",NA,NA,NA,NA,""
"image-keyboard-response",107,202714,"0.0-4.31-2.31","drynpn9t38hnzzq",168,"97.csv","","null","resources/images/fishbone.png","null","",NA,NA,NA,NA,""
"image-keyboard-response",108,203382,"0.0-4.32-0.32","drynpn9t38hnzzq",168,"97.csv","","665.8999998569489","resources/trios/L1T2A2.jpg","38","restless",0.6,0.4,0.6,0.910330323051717,"false"
"image-keyboard-response",109,203789,"0.0-4.32-1.32","drynpn9t38hnzzq",168,"97.csv","","null","resources/maskTrios/BT2B.jpg","null","",NA,NA,NA,NA,""
"image-keyboard-response",110,205006,"0.0-4.32-2.32","drynpn9t38hnzzq",168,"97.csv","","null","resources/images/fishbone.png","null","",NA,NA,NA,NA,""
"image-keyboard-response",111,205550,"0.0-4.33-0.33","drynpn9t38hnzzq",168,"97.csv","","543.4000000953674","resources/trios/L1T2A2.jpg","39","restless",0.6,0.4,0.6,0.384735340975632,"true"
"image-keyboard-response",112,205956,"0.0-4.33-1.33","drynpn9t38hnzzq",168,"97.csv","","null","resources/maskTrios/BBA2.jpg","null","",NA,NA,NA,NA,""
"image-keyboard-response",113,207171,"0.0-4.33-2.33","drynpn9t38hnzzq",168,"97.csv","","null","resources/images/coin2.png","null","",NA,NA,NA,NA,""
"image-keyboard-response",114,207633,"0.0-4.34-0.34","drynpn9t38hnzzq",168,"97.csv","","460.19999980926514","resources/trios/L1T2A2.jpg","39","restless",0.6,0.4,0.6,0.189996958927154,"true"
"image-keyboard-response",115,208040,"0.0-4.34-1.34","drynpn9t38hnzzq",168,"97.csv","","null","resources/maskTrios/BBA2.jpg","null","",NA,NA,NA,NA,""
"image-keyboard-response",116,209256,"0.0-4.34-2.34","drynpn9t38hnzzq",168,"97.csv","","null","resources/images/coin2.png","null","",NA,NA,NA,NA,""
"image-keyboard-response",117,209559,"0.0-4.35-0.35","drynpn9t38hnzzq",168,"97.csv","","300.7999999523163","resources/trios/L1T2A2.jpg","39","restless",0.6,0.5,0.6,0.0247599942447523,"true"
"image-keyboard-response",118,209973,"0.0-4.35-1.35","drynpn9t38hnzzq",168,"97.csv","","null","resources/maskTrios/BBA2.jpg","null","",NA,NA,NA,NA,""
"image-keyboard-response",119,211190,"0.0-4.35-2.35","drynpn9t38hnzzq",168,"97.csv","","null","resources/images/coin2.png","null","",NA,NA,NA,NA,""
"image-keyboard-response",120,211539,"0.0-4.36-0.36","drynpn9t38hnzzq",168,"97.csv","","346.89999985694885","resources/trios/L1T2A2.jpg","39","restless",0.6,0.6,0.6,0.925072591523518,"false"
"image-keyboard-response",121,211956,"0.0-4.36-1.36","drynpn9t38hnzzq",168,"97.csv","","null","resources/maskTrios/BBA2.jpg","null","",NA,NA,NA,NA,""
"image-keyboard-response",122,213158,"0.0-4.36-2.36","drynpn9t38hnzzq",168,"97.csv","","null","resources/images/fishbone.png","null","",NA,NA,NA,NA,""
"image-keyboard-response",123,213228,"0.0-4.37-0.37","drynpn9t38hnzzq",168,"97.csv","","67.30000019073486","resources/trios/L1T2A2.jpg","37","restless",0.6,0.6,0.6,0.827765998073567,"false"
"image-keyboard-response",124,213640,"0.0-4.37-1.37","drynpn9t38hnzzq",168,"97.csv","","null","resources/maskTrios/L1BB.jpg","null","",NA,NA,NA,NA,""
"image-keyboard-response",125,214842,"0.0-4.37-2.37","drynpn9t38hnzzq",168,"97.csv","","null","resources/images/fishbone.png","null","",NA,NA,NA,NA,""
"image-keyboard-response",126,215442,"0.0-4.38-0.38","drynpn9t38hnzzq",168,"97.csv","","599.3999998569489","resources/trios/L1T2A2.jpg","38","restless",0.6,0.6,0.6,0.496784208423172,"true"
"image-keyboard-response",127,215859,"0.0-4.38-1.38","drynpn9t38hnzzq",168,"97.csv","","null","resources/maskTrios/BT2B.jpg","null","",NA,NA,NA,NA,""
"image-keyboard-response",128,217076,"0.0-4.38-2.38","drynpn9t38hnzzq",168,"97.csv","","null","resources/images/coin2.png","null","",NA,NA,NA,NA,""
"image-keyboard-response",129,217211,"0.0-4.39-0.39","drynpn9t38hnzzq",168,"97.csv","","132","resources/trios/L1T2A2.jpg","38","restless",0.6,0.6,0.5,0.862298013277958,"false"
"image-keyboard-response",130,217628,"0.0-4.39-1.39","drynpn9t38hnzzq",168,"97.csv","","null","resources/maskTrios/BT2B.jpg","null","",NA,NA,NA,NA,""
"image-keyboard-response",131,218843,"0.0-4.39-2.39","drynpn9t38hnzzq",168,"97.csv","","null","resources/images/fishbone.png","null","",NA,NA,NA,NA,""
"image-keyboard-response",132,219274,"0.0-4.40-0.40","drynpn9t38hnzzq",168,"97.csv","","428.7000000476837","resources/trios/L1T2A2.jpg","37","restless",0.6,0.6,0.5,0.252378927248388,"true"
"image-keyboard-response",133,219676,"0.0-4.40-1.40","drynpn9t38hnzzq",168,"97.csv","","null","resources/maskTrios/L1BB.jpg","null","",NA,NA,NA,NA,""
"image-keyboard-response",134,220891,"0.0-4.40-2.40","drynpn9t38hnzzq",168,"97.csv","","null","resources/images/coin2.png","null","",NA,NA,NA,NA,""
"image-keyboard-response",135,221251,"0.0-4.41-0.41","drynpn9t38hnzzq",168,"97.csv","","357.59999990463257","resources/trios/L1T2A2.jpg","38","restless",0.6,0.6,0.5,0.110120259024746,"true"
"image-keyboard-response",136,221660,"0.0-4.41-1.41","drynpn9t38hnzzq",168,"97.csv","","null","resources/maskTrios/BT2B.jpg","null","",NA,NA,NA,NA,""
"image-keyboard-response",137,222877,"0.0-4.41-2.41","drynpn9t38hnzzq",168,"97.csv","","null","resources/images/coin2.png","null","",NA,NA,NA,NA,""
"image-keyboard-response",138,223202,"0.0-4.42-0.42","drynpn9t38hnzzq",168,"97.csv","","322.40000009536743","resources/trios/L1T2A2.jpg","38","restless",0.6,0.6,0.5,0.3971478340195,"true"
"image-keyboard-response",139,223612,"0.0-4.42-1.42","drynpn9t38hnzzq",168,"97.csv","","null","resources/maskTrios/BT2B.jpg","null","",NA,NA,NA,NA,""
"image-keyboard-response",140,224829,"0.0-4.42-2.42","drynpn9t38hnzzq",168,"97.csv","","null","resources/images/coin2.png","null","",NA,NA,NA,NA,""
"image-keyboard-response",141,225149,"0.0-4.43-0.43","drynpn9t38hnzzq",168,"97.csv","","319.60000014305115","resources/trios/L1T2A2.jpg","38","restless",0.5,0.6,0.5,0.360189758229634,"true"
"image-keyboard-response",142,225562,"0.0-4.43-1.43","drynpn9t38hnzzq",168,"97.csv","","null","resources/maskTrios/BT2B.jpg","null","",NA,NA,NA,NA,""
"image-keyboard-response",143,226778,"0.0-4.43-2.43","drynpn9t38hnzzq",168,"97.csv","","null","resources/images/coin2.png","null","",NA,NA,NA,NA,""
"image-keyboard-response",144,227043,"0.0-4.44-0.44","drynpn9t38hnzzq",168,"97.csv","","262.09999990463257","resources/trios/L1T2A2.jpg","38","restless",0.5,0.5,0.6,0.468244843573295,"true"
"image-keyboard-response",145,227447,"0.0-4.44-1.44","drynpn9t38hnzzq",168,"97.csv","","null","resources/maskTrios/BT2B.jpg","null","",NA,NA,NA,NA,""
"image-keyboard-response",146,228663,"0.0-4.44-2.44","drynpn9t38hnzzq",168,"97.csv","","null","resources/images/coin2.png","null","",NA,NA,NA,NA,""
"image-keyboard-response",147,228765,"0.0-4.45-0.45","drynpn9t38hnzzq",168,"97.csv","","101.59999990463257","resources/trios/L1T2A2.jpg","38","restless",0.5,0.5,0.6,0.516039403831824,"false"
"image-keyboard-response",148,229182,"0.0-4.45-1.45","drynpn9t38hnzzq",168,"97.csv","","null","resources/maskTrios/BT2B.jpg","null","",NA,NA,NA,NA,""
"image-keyboard-response",149,230398,"0.0-4.45-2.45","drynpn9t38hnzzq",168,"97.csv","","null","resources/images/fishbone.png","null","",NA,NA,NA,NA,""
"image-keyboard-response",150,230473,"0.0-4.46-0.46","drynpn9t38hnzzq",168,"97.csv","","73.29999995231628","resources/trios/L1T2A2.jpg","39","restless",0.5,0.5,0.6,0.548036607775103,"true"
"image-keyboard-response",151,230882,"0.0-4.46-1.46","drynpn9t38hnzzq",168,"97.csv","","null","resources/maskTrios/BBA2.jpg","null","",NA,NA,NA,NA,""
"image-keyboard-response",152,232097,"0.0-4.46-2.46","drynpn9t38hnzzq",168,"97.csv","","null","resources/images/coin2.png","null","",NA,NA,NA,NA,""
"image-keyboard-response",153,232443,"0.0-4.47-0.47","drynpn9t38hnzzq",168,"97.csv","","345","resources/trios/L1T2A2.jpg","39","restless",0.5,0.5,0.6,0.419691464912093,"true"
"image-keyboard-response",154,232849,"0.0-4.47-1.47","drynpn9t38hnzzq",168,"97.csv","","null","resources/maskTrios/BBA2.jpg","null","",NA,NA,NA,NA,""
"image-keyboard-response",155,234067,"0.0-4.47-2.47","drynpn9t38hnzzq",168,"97.csv","","null","resources/images/coin2.png","null","",NA,NA,NA,NA,""
"image-keyboard-response",156,234102,"0.0-4.48-0.48","drynpn9t38hnzzq",168,"97.csv","","34.39999985694885","resources/trios/L1T2A2.jpg","39","restless",0.5,0.5,0.5,0.936837437593715,"false"
"image-keyboard-response",157,234511,"0.0-4.48-1.48","drynpn9t38hnzzq",168,"97.csv","","null","resources/maskTrios/BBA2.jpg","null","",NA,NA,NA,NA,""
"image-keyboard-response",158,235717,"0.0-4.48-2.48","drynpn9t38hnzzq",168,"97.csv","","null","resources/images/fishbone.png","null","",NA,NA,NA,NA,""
"image-keyboard-response",159,236049,"0.0-4.49-0.49","drynpn9t38hnzzq",168,"97.csv","","329.40000009536743","resources/trios/L1T2A2.jpg","38","restless",0.5,0.5,0.5,0.589613449551774,"false"
"image-keyboard-response",160,236467,"0.0-4.49-1.49","drynpn9t38hnzzq",168,"97.csv","","null","resources/maskTrios/BT2B.jpg","null","",NA,NA,NA,NA,""
"image-keyboard-response",161,237681,"0.0-4.49-2.49","drynpn9t38hnzzq",168,"97.csv","","null","resources/images/fishbone.png","null","",NA,NA,NA,NA,""
"image-keyboard-response",162,238142,"0.0-4.50-0.50","drynpn9t38hnzzq",168,"97.csv","","458.90000009536743","resources/trios/L1T2A2.jpg","37","restless",0.5,0.6,0.4,0.657825977858969,"false"
"image-keyboard-response",163,238552,"0.0-4.50-1.50","drynpn9t38hnzzq",168,"97.csv","","null","resources/maskTrios/L1BB.jpg","null","",NA,NA,NA,NA,""
"image-keyboard-response",164,239765,"0.0-4.50-2.50","drynpn9t38hnzzq",168,"97.csv","","null","resources/images/fishbone.png","null","",NA,NA,NA,NA,""
"image-keyboard-response",165,240326,"0.0-4.51-0.51","drynpn9t38hnzzq",168,"97.csv","","559.5","resources/trios/L1T2A2.jpg","39","restless",0.6,0.6,0.4,0.948454281965299,"false"
"image-keyboard-response",166,240736,"0.0-4.51-1.51","drynpn9t38hnzzq",168,"97.csv","","null","resources/maskTrios/BBA2.jpg","null","",NA,NA,NA,NA,""
"image-keyboard-response",167,241953,"0.0-4.51-2.51","drynpn9t38hnzzq",168,"97.csv","","null","resources/images/fishbone.png","null","",NA,NA,NA,NA,""
"image-keyboard-response",168,242163,"0.0-4.52-0.52","drynpn9t38hnzzq",168,"97.csv","","207.29999995231628","resources/trios/L1T2A2.jpg","38","restless",0.6,0.6,0.4,0.0854935327494448,"true"
"image-keyboard-response",169,242571,"0.0-4.52-1.52","drynpn9t38hnzzq",168,"97.csv","","null","resources/maskTrios/BT2B.jpg","null","",NA,NA,NA,NA,""
"image-keyboard-response",170,243786,"0.0-4.52-2.52","drynpn9t38hnzzq",168,"97.csv","","null","resources/images/coin2.png","null","",NA,NA,NA,NA,""
"image-keyboard-response",171,243926,"0.0-4.53-0.53","drynpn9t38hnzzq",168,"97.csv","","137.09999990463257","resources/trios/L1T2A2.jpg","38","restless",0.6,0.6,0.4,0.845995305002754,"false"
"image-keyboard-response",172,244334,"0.0-4.53-1.53","drynpn9t38hnzzq",168,"97.csv","","null","resources/maskTrios/BT2B.jpg","null","",NA,NA,NA,NA,""
"image-keyboard-response",173,245538,"0.0-4.53-2.53","drynpn9t38hnzzq",168,"97.csv","","null","resources/images/fishbone.png","null","",NA,NA,NA,NA,""
"image-keyboard-response",174,245794,"0.0-4.54-0.54","drynpn9t38hnzzq",168,"97.csv","","254","resources/trios/L1T2A2.jpg","39","restless",0.6,0.6,0.4,0.780180768931359,"false"
"image-keyboard-response",175,246206,"0.0-4.54-1.54","drynpn9t38hnzzq",168,"97.csv","","null","resources/maskTrios/BBA2.jpg","null","",NA,NA,NA,NA,""
"image-keyboard-response",176,247421,"0.0-4.54-2.54","drynpn9t38hnzzq",168,"97.csv","","null","resources/images/fishbone.png","null","",NA,NA,NA,NA,""
"image-keyboard-response",177,247805,"0.0-4.55-0.55","drynpn9t38hnzzq",168,"97.csv","","381.39999985694885","resources/trios/L1T2A2.jpg","37","restless",0.6,0.6,0.4,0.560855228410511,"true"
"image-keyboard-response",178,248221,"0.0-4.55-1.55","drynpn9t38hnzzq",168,"97.csv","","null","resources/maskTrios/L1BB.jpg","null","",NA,NA,NA,NA,""
"image-keyboard-response",179,249434,"0.0-4.55-2.55","drynpn9t38hnzzq",168,"97.csv","","null","resources/images/coin2.png","null","",NA,NA,NA,NA,""
"image-keyboard-response",180,249814,"0.0-4.56-0.56","drynpn9t38hnzzq",168,"97.csv","","378.89999985694885","resources/trios/L1T2A2.jpg","38","restless",0.6,0.6,0.4,0.979367368623307,"false"
"image-keyboard-response",181,250223,"0.0-4.56-1.56","drynpn9t38hnzzq",168,"97.csv","","null","resources/maskTrios/BT2B.jpg","null","",NA,NA,NA,NA,""
"image-keyboard-response",182,251425,"0.0-4.56-2.56","drynpn9t38hnzzq",168,"97.csv","","null","resources/images/fishbone.png","null","",NA,NA,NA,NA,""
"image-keyboard-response",183,251531,"0.0-4.57-0.57","drynpn9t38hnzzq",168,"97.csv","","103.10000014305115","resources/trios/L1T2A2.jpg","38","restless",0.5,0.6,0.3,0.305638567592455,"true"
"image-keyboard-response",184,251941,"0.0-4.57-1.57","drynpn9t38hnzzq",168,"97.csv","","null","resources/maskTrios/BT2B.jpg","null","",NA,NA,NA,NA,""
"image-keyboard-response",185,253157,"0.0-4.57-2.57","drynpn9t38hnzzq",168,"97.csv","","null","resources/images/coin2.png","null","",NA,NA,NA,NA,""
"image-keyboard-response",186,253313,"0.0-4.58-0.58","drynpn9t38hnzzq",168,"97.csv","","153.29999995231628","resources/trios/L1T2A2.jpg","38","restless",0.4,0.6,0.3,0.791180936896495,"false"
"image-keyboard-response",187,253725,"0.0-4.58-1.58","drynpn9t38hnzzq",168,"97.csv","","null","resources/maskTrios/BT2B.jpg","null","",NA,NA,NA,NA,""
"image-keyboard-response",188,254928,"0.0-4.58-2.58","drynpn9t38hnzzq",168,"97.csv","","null","resources/images/fishbone.png","null","",NA,NA,NA,NA,""
"image-keyboard-response",189,255275,"0.0-4.59-0.59","drynpn9t38hnzzq",168,"97.csv","","344.2999999523163","resources/trios/L1T2A2.jpg","38","restless",0.4,0.7,0.3,0.376341480020066,"true"
"image-keyboard-response",190,255691,"0.0-4.59-1.59","drynpn9t38hnzzq",168,"97.csv","","null","resources/maskTrios/BT2B.jpg","null","",NA,NA,NA,NA,""
"image-keyboard-response",191,256907,"0.0-4.59-2.59","drynpn9t38hnzzq",168,"97.csv","","null","resources/images/coin2.png","null","",NA,NA,NA,NA,""
"image-keyboard-response",192,257114,"0.0-4.60-0.60","drynpn9t38hnzzq",168,"97.csv","","205.30000019073486","resources/trios/L1T2A2.jpg","38","restless",0.3,0.8,0.3,0.604639769359948,"true"
"image-keyboard-response",193,257525,"0.0-4.60-1.60","drynpn9t38hnzzq",168,"97.csv","","null","resources/maskTrios/BT2B.jpg","null","",NA,NA,NA,NA,""
"image-keyboard-response",194,258740,"0.0-4.60-2.60","drynpn9t38hnzzq",168,"97.csv","","null","resources/images/coin2.png","null","",NA,NA,NA,NA,""
"image-keyboard-response",195,258853,"0.0-4.61-0.61","drynpn9t38hnzzq",168,"97.csv","","111.5","resources/trios/L1T2A2.jpg","38","restless",0.3,0.8,0.3,0.0115697268802903,"true"
"image-keyboard-response",196,259259,"0.0-4.61-1.61","drynpn9t38hnzzq",168,"97.csv","","null","resources/maskTrios/BT2B.jpg","null","",NA,NA,NA,NA,""
"image-keyboard-response",197,260475,"0.0-4.61-2.61","drynpn9t38hnzzq",168,"97.csv","","null","resources/images/coin2.png","null","",NA,NA,NA,NA,""
"image-keyboard-response",198,260758,"0.0-4.62-0.62","drynpn9t38hnzzq",168,"97.csv","","280.10000014305115","resources/trios/L1T2A2.jpg","38","restless",0.3,0.8,0.3,0.0567122444094721,"true"
"image-keyboard-response",199,261160,"0.0-4.62-1.62","drynpn9t38hnzzq",168,"97.csv","","null","resources/maskTrios/BT2B.jpg","null","",NA,NA,NA,NA,""
"image-keyboard-response",200,262376,"0.0-4.62-2.62","drynpn9t38hnzzq",168,"97.csv","","null","resources/images/coin2.png","null","",NA,NA,NA,NA,""
"image-keyboard-response",201,263082,"0.0-4.63-0.63","drynpn9t38hnzzq",168,"97.csv","","704.1000001430511","resources/trios/L1T2A2.jpg","38","restless",0.3,0.8,0.3,0.298684963722757,"true"
"image-keyboard-response",202,263493,"0.0-4.63-1.63","drynpn9t38hnzzq",168,"97.csv","","null","resources/maskTrios/BT2B.jpg","null","",NA,NA,NA,NA,""
"image-keyboard-response",203,264709,"0.0-4.63-2.63","drynpn9t38hnzzq",168,"97.csv","","null","resources/images/coin2.png","null","",NA,NA,NA,NA,""
"image-keyboard-response",204,264837,"0.0-4.64-0.64","drynpn9t38hnzzq",168,"97.csv","","125.5","resources/trios/L1T2A2.jpg","38","restless",0.3,0.8,0.3,0.955090130236923,"false"
"image-keyboard-response",205,265243,"0.0-4.64-1.64","drynpn9t38hnzzq",168,"97.csv","","null","resources/maskTrios/BT2B.jpg","null","",NA,NA,NA,NA,""
"image-keyboard-response",206,266460,"0.0-4.64-2.64","drynpn9t38hnzzq",168,"97.csv","","null","resources/images/fishbone.png","null","",NA,NA,NA,NA,""
"image-keyboard-response",207,266682,"0.0-4.65-0.65","drynpn9t38hnzzq",168,"97.csv","","221","resources/trios/L1T2A2.jpg","38","restless",0.3,0.8,0.3,0.0201110870722125,"true"
"image-keyboard-response",208,267097,"0.0-4.65-1.65","drynpn9t38hnzzq",168,"97.csv","","null","resources/maskTrios/BT2B.jpg","null","",NA,NA,NA,NA,""
"image-keyboard-response",209,268312,"0.0-4.65-2.65","drynpn9t38hnzzq",168,"97.csv","","null","resources/images/coin2.png","null","",NA,NA,NA,NA,""
"image-keyboard-response",210,268391,"0.0-4.66-0.66","drynpn9t38hnzzq",168,"97.csv","","77.10000014305115","resources/trios/L1T2A2.jpg","38","restless",0.3,0.7,0.3,0.411941972941014,"true"
"image-keyboard-response",211,268796,"0.0-4.66-1.66","drynpn9t38hnzzq",168,"97.csv","","null","resources/maskTrios/BT2B.jpg","null","",NA,NA,NA,NA,""
"image-keyboard-response",212,270011,"0.0-4.66-2.66","drynpn9t38hnzzq",168,"97.csv","","null","resources/images/coin2.png","null","",NA,NA,NA,NA,""
"image-keyboard-response",213,270221,"0.0-4.67-0.67","drynpn9t38hnzzq",168,"97.csv","","205.79999995231628","resources/trios/L1T2A2.jpg","38","restless",0.3,0.7,0.3,0.396554930155424,"true"
"image-keyboard-response",214,270630,"0.0-4.67-1.67","drynpn9t38hnzzq",168,"97.csv","","null","resources/maskTrios/BT2B.jpg","null","",NA,NA,NA,NA,""
"image-keyboard-response",215,271833,"0.0-4.67-2.67","drynpn9t38hnzzq",168,"97.csv","","null","resources/images/coin2.png","null","",NA,NA,NA,NA,""
"image-keyboard-response",216,272134,"0.0-4.68-0.68","drynpn9t38hnzzq",168,"97.csv","","296.40000009536743","resources/trios/L1T2A2.jpg","38","restless",0.3,0.7,0.3,0.28510187648908,"true"
"image-keyboard-response",217,272540,"0.0-4.68-1.68","drynpn9t38hnzzq",168,"97.csv","","null","resources/maskTrios/BT2B.jpg","null","",NA,NA,NA,NA,""
"image-keyboard-response",218,273748,"0.0-4.68-2.68","drynpn9t38hnzzq",168,"97.csv","","null","resources/images/coin2.png","null","",NA,NA,NA,NA,""
"image-keyboard-response",219,274018,"0.0-4.69-0.69","drynpn9t38hnzzq",168,"97.csv","","268.40000009536743","resources/trios/L1T2A2.jpg","38","restless",0.3,0.7,0.3,0.982886036188412,"false"
"image-keyboard-response",220,274431,"0.0-4.69-1.69","drynpn9t38hnzzq",168,"97.csv","","null","resources/maskTrios/BT2B.jpg","null","",NA,NA,NA,NA,""
"image-keyboard-response",221,275648,"0.0-4.69-2.69","drynpn9t38hnzzq",168,"97.csv","","null","resources/images/fishbone.png","null","",NA,NA,NA,NA,""
"image-keyboard-response",222,275685,"0.0-4.70-0.70","drynpn9t38hnzzq",168,"97.csv","","36.80000019073486","resources/trios/L1T2A2.jpg","38","restless",0.3,0.7,0.3,0.665574918954508,"true"
"image-keyboard-response",223,276098,"0.0-4.70-1.70","drynpn9t38hnzzq",168,"97.csv","","null","resources/maskTrios/BT2B.jpg","null","",NA,NA,NA,NA,""
"image-keyboard-response",224,277314,"0.0-4.70-2.70","drynpn9t38hnzzq",168,"97.csv","","null","resources/images/coin2.png","null","",NA,NA,NA,NA,""
"image-keyboard-response",225,277325,"0.0-4.71-0.71","drynpn9t38hnzzq",168,"97.csv","","9.700000047683716","resources/trios/L1T2A2.jpg","38","restless",0.3,0.7,0.3,0.066768727064618,"true"
"image-keyboard-response",226,277733,"0.0-4.71-1.71","drynpn9t38hnzzq",168,"97.csv","","null","resources/maskTrios/BT2B.jpg","null","",NA,NA,NA,NA,""
"image-keyboard-response",227,278946,"0.0-4.71-2.71","drynpn9t38hnzzq",168,"97.csv","","null","resources/images/coin2.png","null","",NA,NA,NA,NA,""
"image-keyboard-response",228,279185,"0.0-4.72-0.72","drynpn9t38hnzzq",168,"97.csv","","238.5","resources/trios/L1T2A2.jpg","38","restless",0.4,0.6,0.3,0.485619255361105,"true"
"image-keyboard-response",229,279600,"0.0-4.72-1.72","drynpn9t38hnzzq",168,"97.csv","","null","resources/maskTrios/BT2B.jpg","null","",NA,NA,NA,NA,""
"image-keyboard-response",230,280816,"0.0-4.72-2.72","drynpn9t38hnzzq",168,"97.csv","","null","resources/images/coin2.png","null","",NA,NA,NA,NA,""
"image-keyboard-response",231,281077,"0.0-4.73-0.73","drynpn9t38hnzzq",168,"97.csv","","259.69999980926514","resources/trios/L1T2A2.jpg","38","restless",0.4,0.6,0.3,0.542787775769986,"true"
"image-keyboard-response",232,281484,"0.0-4.73-1.73","drynpn9t38hnzzq",168,"97.csv","","null","resources/maskTrios/BT2B.jpg","null","",NA,NA,NA,NA,""
"image-keyboard-response",233,282701,"0.0-4.73-2.73","drynpn9t38hnzzq",168,"97.csv","","null","resources/images/coin2.png","null","",NA,NA,NA,NA,""
"image-keyboard-response",234,282894,"0.0-4.74-0.74","drynpn9t38hnzzq",168,"97.csv","","190.39999985694885","resources/trios/L1T2A2.jpg","38","restless",0.4,0.6,0.3,0.934158229321985,"false"
"image-keyboard-response",235,283304,"0.0-4.74-1.74","drynpn9t38hnzzq",168,"97.csv","","null","resources/maskTrios/BT2B.jpg","null","",NA,NA,NA,NA,""
"image-keyboard-response",236,284519,"0.0-4.74-2.74","drynpn9t38hnzzq",168,"97.csv","","null","resources/images/fishbone.png","null","",NA,NA,NA,NA,""
"image-keyboard-response",237,284621,"0.0-4.75-0.75","drynpn9t38hnzzq",168,"97.csv","","101.19999980926514","resources/trios/L1T2A2.jpg","38","restless",0.4,0.6,0.3,0.788270090383741,"false"
"image-keyboard-response",238,285033,"0.0-4.75-1.75","drynpn9t38hnzzq",168,"97.csv","","null","resources/maskTrios/BT2B.jpg","null","",NA,NA,NA,NA,""
"image-keyboard-response",239,286235,"0.0-4.75-2.75","drynpn9t38hnzzq",168,"97.csv","","null","resources/images/fishbone.png","null","",NA,NA,NA,NA,""
"image-keyboard-response",240,286517,"0.0-4.76-0.76","drynpn9t38hnzzq",168,"97.csv","","281.2999999523163","resources/trios/L1T2A2.jpg","38","restless",0.4,0.6,0.3,0.401835673664385,"true"
"image-keyboard-response",241,286921,"0.0-4.76-1.76","drynpn9t38hnzzq",168,"97.csv","","null","resources/maskTrios/BT2B.jpg","null","",NA,NA,NA,NA,""
"image-keyboard-response",242,288137,"0.0-4.76-2.76","drynpn9t38hnzzq",168,"97.csv","","null","resources/images/coin2.png","null","",NA,NA,NA,NA,""
"image-keyboard-response",243,288413,"0.0-4.77-0.77","drynpn9t38hnzzq",168,"97.csv","","274.5","resources/trios/L1T2A2.jpg","38","restless",0.4,0.6,0.3,0.313838598518251,"true"
"image-keyboard-response",244,288820,"0.0-4.77-1.77","drynpn9t38hnzzq",168,"97.csv","","null","resources/maskTrios/BT2B.jpg","null","",NA,NA,NA,NA,""
"image-keyboard-response",245,290021,"0.0-4.77-2.77","drynpn9t38hnzzq",168,"97.csv","","null","resources/images/coin2.png","null","",NA,NA,NA,NA,""
"image-keyboard-response",246,290125,"0.0-4.78-0.78","drynpn9t38hnzzq",168,"97.csv","","103.19999980926514","resources/trios/L1T2A2.jpg","38","restless",0.4,0.6,0.3,0.880267927493002,"false"
"image-keyboard-response",247,290538,"0.0-4.78-1.78","drynpn9t38hnzzq",168,"97.csv","","null","resources/maskTrios/BT2B.jpg","null","",NA,NA,NA,NA,""
"image-keyboard-response",248,291753,"0.0-4.78-2.78","drynpn9t38hnzzq",168,"97.csv","","null","resources/images/fishbone.png","null","",NA,NA,NA,NA,""
"image-keyboard-response",249,291810,"0.0-4.79-0.79","drynpn9t38hnzzq",168,"97.csv","","56.700000047683716","resources/trios/L1T2A2.jpg","38","restless",0.4,0.6,0.4,0.798017914300005,"false"
"image-keyboard-response",250,292221,"0.0-4.79-1.79","drynpn9t38hnzzq",168,"97.csv","","null","resources/maskTrios/BT2B.jpg","null","",NA,NA,NA,NA,""
"image-keyboard-response",251,293439,"0.0-4.79-2.79","drynpn9t38hnzzq",168,"97.csv","","null","resources/images/fishbone.png","null","",NA,NA,NA,NA,""
"image-keyboard-response",252,293521,"0.0-4.80-0.80","drynpn9t38hnzzq",168,"97.csv","","79.79999995231628","resources/trios/L1T2A2.jpg","38","restless",0.4,0.6,0.4,0.854002641882679,"false"
"image-keyboard-response",253,293923,"0.0-4.80-1.80","drynpn9t38hnzzq",168,"97.csv","","null","resources/maskTrios/BT2B.jpg","null","",NA,NA,NA,NA,""
"image-keyboard-response",254,295139,"0.0-4.80-2.80","drynpn9t38hnzzq",168,"97.csv","","null","resources/images/fishbone.png","null","",NA,NA,NA,NA,""
"image-keyboard-response",255,296173,"0.0-4.81-0.81","drynpn9t38hnzzq",168,"97.csv","","1033","resources/trios/L1T2A2.jpg","38","restless",0.4,0.6,0.4,0.459676033255991,"true"
"image-keyboard-response",256,296574,"0.0-4.81-1.81","drynpn9t38hnzzq",168,"97.csv","","null","resources/maskTrios/BT2B.jpg","null","",NA,NA,NA,NA,""
"image-keyboard-response",257,297791,"0.0-4.81-2.81","drynpn9t38hnzzq",168,"97.csv","","null","resources/images/coin2.png","null","",NA,NA,NA,NA,""
"image-keyboard-response",258,297935,"0.0-4.82-0.82","drynpn9t38hnzzq",168,"97.csv","","142","resources/trios/L1T2A2.jpg","38","restless",0.4,0.6,0.4,0.0659583802388586,"true"
"image-keyboard-response",259,298341,"0.0-4.82-1.82","drynpn9t38hnzzq",168,"97.csv","","null","resources/maskTrios/BT2B.jpg","null","",NA,NA,NA,NA,""
"image-keyboard-response",260,299558,"0.0-4.82-2.82","drynpn9t38hnzzq",168,"97.csv","","null","resources/images/coin2.png","null","",NA,NA,NA,NA,""
"image-keyboard-response",261,299951,"0.0-4.83-0.83","drynpn9t38hnzzq",168,"97.csv","","390.5","resources/trios/L1T2A2.jpg","38","restless",0.4,0.6,0.3,0.0374109647120044,"true"
"image-keyboard-response",262,300358,"0.0-4.83-1.83","drynpn9t38hnzzq",168,"97.csv","","null","resources/maskTrios/BT2B.jpg","null","",NA,NA,NA,NA,""
"image-keyboard-response",263,301561,"0.0-4.83-2.83","drynpn9t38hnzzq",168,"97.csv","","null","resources/images/coin2.png","null","",NA,NA,NA,NA,""
"image-keyboard-response",264,301677,"0.0-4.84-0.84","drynpn9t38hnzzq",168,"97.csv","","115.20000004768372","resources/trios/L1T2A2.jpg","38","restless",0.4,0.5,0.3,0.608514769488225,"false"
"image-keyboard-response",265,302091,"0.0-4.84-1.84","drynpn9t38hnzzq",168,"97.csv","","null","resources/maskTrios/BT2B.jpg","null","",NA,NA,NA,NA,""
"image-keyboard-response",266,303293,"0.0-4.84-2.84","drynpn9t38hnzzq",168,"97.csv","","null","resources/images/fishbone.png","null","",NA,NA,NA,NA,""
"image-keyboard-response",267,303436,"0.0-4.85-0.85","drynpn9t38hnzzq",168,"97.csv","","140.09999990463257","resources/trios/L1T2A2.jpg","38","restless",0.5,0.5,0.3,0.494509660410093,"true"
"image-keyboard-response",268,303849,"0.0-4.85-1.85","drynpn9t38hnzzq",168,"97.csv","","null","resources/maskTrios/BT2B.jpg","null","",NA,NA,NA,NA,""
"image-keyboard-response",269,305061,"0.0-4.85-2.85","drynpn9t38hnzzq",168,"97.csv","","null","resources/images/coin2.png","null","",NA,NA,NA,NA,""
"image-keyboard-response",270,305365,"0.0-4.86-0.86","drynpn9t38hnzzq",168,"97.csv","","301.89999985694885","resources/trios/L1T2A2.jpg","38","restless",0.5,0.5,0.3,0.0177250205315178,"true"
"image-keyboard-response",271,305778,"0.0-4.86-1.86","drynpn9t38hnzzq",168,"97.csv","","null","resources/maskTrios/BT2B.jpg","null","",NA,NA,NA,NA,""
"image-keyboard-response",272,306993,"0.0-4.86-2.86","drynpn9t38hnzzq",168,"97.csv","","null","resources/images/coin2.png","null","",NA,NA,NA,NA,""
"image-keyboard-response",273,308045,"0.0-4.87-0.87","drynpn9t38hnzzq",168,"97.csv","","1050","resources/trios/L1T2A2.jpg","37","restless",0.6,0.5,0.3,0.185240309199631,"true"
"image-keyboard-response",274,308459,"0.0-4.87-1.87","drynpn9t38hnzzq",168,"97.csv","","null","resources/maskTrios/L1BB.jpg","null","",NA,NA,NA,NA,""
"image-keyboard-response",275,309677,"0.0-4.87-2.87","drynpn9t38hnzzq",168,"97.csv","","null","resources/images/coin2.png","null","",NA,NA,NA,NA,""
"image-keyboard-response",276,310079,"0.0-4.88-0.88","drynpn9t38hnzzq",168,"97.csv","","401.2000000476837","resources/trios/L1T2A2.jpg","37","restless",0.6,0.5,0.3,0.276124152805046,"true"
"image-keyboard-response",277,310496,"0.0-4.88-1.88","drynpn9t38hnzzq",168,"97.csv","","null","resources/maskTrios/L1BB.jpg","null","",NA,NA,NA,NA,""
"image-keyboard-response",278,311711,"0.0-4.88-2.88","drynpn9t38hnzzq",168,"97.csv","","null","resources/images/coin2.png","null","",NA,NA,NA,NA,""
"image-keyboard-response",279,312019,"0.0-4.89-0.89","drynpn9t38hnzzq",168,"97.csv","","306.40000009536743","resources/trios/L1T2A2.jpg","37","restless",0.6,0.5,0.3,0.960256489066069,"false"
"image-keyboard-response",280,312429,"0.0-4.89-1.89","drynpn9t38hnzzq",168,"97.csv","","null","resources/maskTrios/L1BB.jpg","null","",NA,NA,NA,NA,""
"image-keyboard-response",281,313646,"0.0-4.89-2.89","drynpn9t38hnzzq",168,"97.csv","","null","resources/images/fishbone.png","null","",NA,NA,NA,NA,""
"image-keyboard-response",282,313941,"0.0-4.90-0.90","drynpn9t38hnzzq",168,"97.csv","","293.89999985694885","resources/trios/L1T2A2.jpg","39","restless",0.6,0.5,0.3,0.987094026833589,"false"
"image-keyboard-response",283,314347,"0.0-4.90-1.90","drynpn9t38hnzzq",168,"97.csv","","null","resources/maskTrios/BBA2.jpg","null","",NA,NA,NA,NA,""
"image-keyboard-response",284,315562,"0.0-4.90-2.90","drynpn9t38hnzzq",168,"97.csv","","null","resources/images/fishbone.png","null","",NA,NA,NA,NA,""
"image-keyboard-response",285,316055,"0.0-4.91-0.91","drynpn9t38hnzzq",168,"97.csv","","491.60000014305115","resources/trios/L1T2A2.jpg","38","restless",0.6,0.5,0.3,0.711463021333844,"false"
"image-keyboard-response",286,316465,"0.0-4.91-1.91","drynpn9t38hnzzq",168,"97.csv","","null","resources/maskTrios/BT2B.jpg","null","",NA,NA,NA,NA,""
"image-keyboard-response",287,317681,"0.0-4.91-2.91","drynpn9t38hnzzq",168,"97.csv","","null","resources/images/fishbone.png","null","",NA,NA,NA,NA,""
"image-keyboard-response",288,317827,"0.0-4.92-0.92","drynpn9t38hnzzq",168,"97.csv","","144.70000004768372","resources/trios/L1T2A2.jpg","37","restless",0.6,0.5,0.3,0.0247132636698766,"true"
"image-keyboard-response",289,318233,"0.0-4.92-1.92","drynpn9t38hnzzq",168,"97.csv","","null","resources/maskTrios/L1BB.jpg","null","",NA,NA,NA,NA,""
"image-keyboard-response",290,319446,"0.0-4.92-2.92","drynpn9t38hnzzq",168,"97.csv","","null","resources/images/coin2.png","null","",NA,NA,NA,NA,""
"image-keyboard-response",291,319702,"0.0-4.93-0.93","drynpn9t38hnzzq",168,"97.csv","","254.70000004768372","resources/trios/L1T2A2.jpg","37","restless",0.6,0.5,0.3,0.448448502509065,"true"
"image-keyboard-response",292,320115,"0.0-4.93-1.93","drynpn9t38hnzzq",168,"97.csv","","null","resources/maskTrios/L1BB.jpg","null","",NA,NA,NA,NA,""
"image-keyboard-response",293,321332,"0.0-4.93-2.93","drynpn9t38hnzzq",168,"97.csv","","null","resources/images/coin2.png","null","",NA,NA,NA,NA,""
"image-keyboard-response",294,321542,"0.0-4.94-0.94","drynpn9t38hnzzq",168,"97.csv","","208.5","resources/trios/L1T2A2.jpg","37","restless",0.7,0.5,0.3,0.50455144434478,"true"
"image-keyboard-response",295,321950,"0.0-4.94-1.94","drynpn9t38hnzzq",168,"97.csv","","null","resources/maskTrios/L1BB.jpg","null","",NA,NA,NA,NA,""
"image-keyboard-response",296,323166,"0.0-4.94-2.94","drynpn9t38hnzzq",168,"97.csv","","null","resources/images/coin2.png","null","",NA,NA,NA,NA,""
"image-keyboard-response",297,323286,"0.0-4.95-0.95","drynpn9t38hnzzq",168,"97.csv","","118","resources/trios/L1T2A2.jpg","37","restless",0.7,0.5,0.3,0.628302120201101,"true"
"image-keyboard-response",298,323699,"0.0-4.95-1.95","drynpn9t38hnzzq",168,"97.csv","","null","resources/maskTrios/L1BB.jpg","null","",NA,NA,NA,NA,""
"image-keyboard-response",299,324916,"0.0-4.95-2.95","drynpn9t38hnzzq",168,"97.csv","","null","resources/images/coin2.png","null","",NA,NA,NA,NA,""
"image-keyboard-response",300,325382,"0.0-4.96-0.96","drynpn9t38hnzzq",168,"97.csv","","464.90000009536743","resources/trios/L1T2A2.jpg","37","restless",0.7,0.5,0.3,0.773957369596184,"false"
"image-keyboard-response",301,325785,"0.0-4.96-1.96","drynpn9t38hnzzq",168,"97.csv","","null","resources/maskTrios/L1BB.jpg","null","",NA,NA,NA,NA,""
"image-keyboard-response",302,327000,"0.0-4.96-2.96","drynpn9t38hnzzq",168,"97.csv","","null","resources/images/fishbone.png","null","",NA,NA,NA,NA,""
"image-keyboard-response",303,328554,"0.0-4.97-0.97","drynpn9t38hnzzq",168,"97.csv","","1553.1000001430511","resources/trios/L1T2A2.jpg","38","restless",0.7,0.5,0.3,0.623612760627119,"false"
"image-keyboard-response",304,328970,"0.0-4.97-1.97","drynpn9t38hnzzq",168,"97.csv","","null","resources/maskTrios/BT2B.jpg","null","",NA,NA,NA,NA,""
"image-keyboard-response",305,330179,"0.0-4.97-2.97","drynpn9t38hnzzq",168,"97.csv","","null","resources/images/fishbone.png","null","",NA,NA,NA,NA,""
"image-keyboard-response",306,330510,"0.0-4.98-0.98","drynpn9t38hnzzq",168,"97.csv","","328.80000019073486","resources/trios/L1T2A2.jpg","38","restless",0.7,0.5,0.3,0.11200832408884,"true"
"image-keyboard-response",307,330921,"0.0-4.98-1.98","drynpn9t38hnzzq",168,"97.csv","","null","resources/maskTrios/BT2B.jpg","null","",NA,NA,NA,NA,""
"image-keyboard-response",308,332136,"0.0-4.98-2.98","drynpn9t38hnzzq",168,"97.csv","","null","resources/images/coin2.png","null","",NA,NA,NA,NA,""
"image-keyboard-response",309,332329,"0.0-4.99-0.99","drynpn9t38hnzzq",168,"97.csv","","192.70000004768372","resources/trios/L1T2A2.jpg","38","restless",0.7,0.5,0.3,0.773898978347085,"false"
"image-keyboard-response",310,332737,"0.0-4.99-1.99","drynpn9t38hnzzq",168,"97.csv","","null","resources/maskTrios/BT2B.jpg","null","",NA,NA,NA,NA,""
"image-keyboard-response",311,333954,"0.0-4.99-2.99","drynpn9t38hnzzq",168,"97.csv","","null","resources/images/fishbone.png","null","",NA,NA,NA,NA,""
"image-keyboard-response",312,334066,"0.0-4.100-0.100","drynpn9t38hnzzq",168,"97.csv","","109.59999990463257","resources/trios/L1T2A2.jpg","38","restless",0.7,0.5,0.3,0.222073707663103,"true"
"image-keyboard-response",313,334473,"0.0-4.100-1.100","drynpn9t38hnzzq",168,"97.csv","","null","resources/maskTrios/BT2B.jpg","null","",NA,NA,NA,NA,""
"image-keyboard-response",314,335689,"0.0-4.100-2.100","drynpn9t38hnzzq",168,"97.csv","","null","resources/images/coin2.png","null","",NA,NA,NA,NA,""
"image-keyboard-response",315,335738,"0.0-4.101-0.101","drynpn9t38hnzzq",168,"97.csv","","47","resources/trios/L1T2A2.jpg","38","restless",0.7,0.5,0.3,0.316054024124806,"true"
"image-keyboard-response",316,336139,"0.0-4.101-1.101","drynpn9t38hnzzq",168,"97.csv","","null","resources/maskTrios/BT2B.jpg","null","",NA,NA,NA,NA,""
"image-keyboard-response",317,337354,"0.0-4.101-2.101","drynpn9t38hnzzq",168,"97.csv","","null","resources/images/coin2.png","null","",NA,NA,NA,NA,""
"image-keyboard-response",318,337694,"0.0-4.102-0.102","drynpn9t38hnzzq",168,"97.csv","","339.09999990463257","resources/trios/L1T2A2.jpg","38","restless",0.7,0.5,0.4,0.218512844011079,"true"
"image-keyboard-response",319,338098,"0.0-4.102-1.102","drynpn9t38hnzzq",168,"97.csv","","null","resources/maskTrios/BT2B.jpg","null","",NA,NA,NA,NA,""
"image-keyboard-response",320,339305,"0.0-4.102-2.102","drynpn9t38hnzzq",168,"97.csv","","null","resources/images/coin2.png","null","",NA,NA,NA,NA,""
"image-keyboard-response",321,339592,"0.0-4.103-0.103","drynpn9t38hnzzq",168,"97.csv","","286","resources/trios/L1T2A2.jpg","38","restless",0.7,0.6,0.3,0.996389042863617,"false"
"image-keyboard-response",322,339999,"0.0-4.103-1.103","drynpn9t38hnzzq",168,"97.csv","","null","resources/maskTrios/BT2B.jpg","null","",NA,NA,NA,NA,""
"image-keyboard-response",323,341207,"0.0-4.103-2.103","drynpn9t38hnzzq",168,"97.csv","","null","resources/images/fishbone.png","null","",NA,NA,NA,NA,""
"image-keyboard-response",324,341443,"0.0-4.104-0.104","drynpn9t38hnzzq",168,"97.csv","","234.29999995231628","resources/trios/L1T2A2.jpg","38","restless",0.7,0.6,0.2,0.282463047394916,"true"
"image-keyboard-response",325,341857,"0.0-4.104-1.104","drynpn9t38hnzzq",168,"97.csv","","null","resources/maskTrios/BT2B.jpg","null","",NA,NA,NA,NA,""
"image-keyboard-response",326,343074,"0.0-4.104-2.104","drynpn9t38hnzzq",168,"97.csv","","null","resources/images/coin2.png","null","",NA,NA,NA,NA,""
"image-keyboard-response",327,343738,"0.0-4.105-0.105","drynpn9t38hnzzq",168,"97.csv","","661.2000000476837","resources/trios/L1T2A2.jpg","38","restless",0.7,0.6,0.2,0.039105981094673,"true"
"image-keyboard-response",328,344142,"0.0-4.105-1.105","drynpn9t38hnzzq",168,"97.csv","","null","resources/maskTrios/BT2B.jpg","null","",NA,NA,NA,NA,""
"image-keyboard-response",329,345358,"0.0-4.105-2.105","drynpn9t38hnzzq",168,"97.csv","","null","resources/images/coin2.png","null","",NA,NA,NA,NA,""
"image-keyboard-response",330,351241,"0.0-4.106-0.106","drynpn9t38hnzzq",168,"97.csv","","5882","resources/trios/L1T2A2.jpg","38","restless",0.7,0.6,0.2,0.180170583383536,"true"
"image-keyboard-response",331,351659,"0.0-4.106-1.106","drynpn9t38hnzzq",168,"97.csv","","null","resources/maskTrios/BT2B.jpg","null","",NA,NA,NA,NA,""
"image-keyboard-response",332,352861,"0.0-4.106-2.106","drynpn9t38hnzzq",168,"97.csv","","null","resources/images/coin2.png","null","",NA,NA,NA,NA,""
"image-keyboard-response",333,353455,"0.0-4.107-0.107","drynpn9t38hnzzq",168,"97.csv","","591.2000000476837","resources/trios/L1T2A2.jpg","38","restless",0.7,0.6,0.2,0.450310255606028,"true"
"image-keyboard-response",334,353862,"0.0-4.107-1.107","drynpn9t38hnzzq",168,"97.csv","","null","resources/maskTrios/BT2B.jpg","null","",NA,NA,NA,NA,""
"image-keyboard-response",335,355077,"0.0-4.107-2.107","drynpn9t38hnzzq",168,"97.csv","","null","resources/images/coin2.png","null","",NA,NA,NA,NA,""
"image-keyboard-response",336,355351,"0.0-4.108-0.108","drynpn9t38hnzzq",168,"97.csv","","271.7999999523163","resources/trios/L1T2A2.jpg","38","restless",0.7,0.6,0.3,0.825095044977701,"false"
"image-keyboard-response",337,355764,"0.0-4.108-1.108","drynpn9t38hnzzq",168,"97.csv","","null","resources/maskTrios/BT2B.jpg","null","",NA,NA,NA,NA,""
"image-keyboard-response",338,356980,"0.0-4.108-2.108","drynpn9t38hnzzq",168,"97.csv","","null","resources/images/fishbone.png","null","",NA,NA,NA,NA,""
"image-keyboard-response",339,357299,"0.0-4.109-0.109","drynpn9t38hnzzq",168,"97.csv","","318.40000009536743","resources/trios/L1T2A2.jpg","38","restless",0.7,0.6,0.3,0.992281070196382,"false"
"image-keyboard-response",340,357714,"0.0-4.109-1.109","drynpn9t38hnzzq",168,"97.csv","","null","resources/maskTrios/BT2B.jpg","null","",NA,NA,NA,NA,""
"image-keyboard-response",341,358929,"0.0-4.109-2.109","drynpn9t38hnzzq",168,"97.csv","","null","resources/images/fishbone.png","null","",NA,NA,NA,NA,""
"image-keyboard-response",342,359555,"0.0-4.110-0.110","drynpn9t38hnzzq",168,"97.csv","","624","resources/trios/L1T2A2.jpg","38","restless",0.7,0.6,0.3,0.247096287522694,"true"
"image-keyboard-response",343,359962,"0.0-4.110-1.110","drynpn9t38hnzzq",168,"97.csv","","null","resources/maskTrios/BT2B.jpg","null","",NA,NA,NA,NA,""
"image-keyboard-response",344,361165,"0.0-4.110-2.110","drynpn9t38hnzzq",168,"97.csv","","null","resources/images/coin2.png","null","",NA,NA,NA,NA,""
"image-keyboard-response",345,361167,"0.0-4.111-0.111","drynpn9t38hnzzq",168,"97.csv","","0.20000004768371582","resources/trios/L1T2A2.jpg","38","restless",0.7,0.6,0.3,0.428873807394336,"true"
"image-keyboard-response",346,361581,"0.0-4.111-1.111","drynpn9t38hnzzq",168,"97.csv","","null","resources/maskTrios/BT2B.jpg","null","",NA,NA,NA,NA,""
"image-keyboard-response",347,362783,"0.0-4.111-2.111","drynpn9t38hnzzq",168,"97.csv","","null","resources/images/coin2.png","null","",NA,NA,NA,NA,""
"image-keyboard-response",348,363670,"0.0-4.112-0.112","drynpn9t38hnzzq",168,"97.csv","","886.6999998092651","resources/trios/L1T2A2.jpg","38","restless",0.7,0.6,0.3,0.0665672216244813,"true"
"image-keyboard-response",349,364084,"0.0-4.112-1.112","drynpn9t38hnzzq",168,"97.csv","","null","resources/maskTrios/BT2B.jpg","null","",NA,NA,NA,NA,""
"image-keyboard-response",350,365298,"0.0-4.112-2.112","drynpn9t38hnzzq",168,"97.csv","","null","resources/images/coin2.png","null","",NA,NA,NA,NA,""
"image-keyboard-response",351,365605,"0.0-4.113-0.113","drynpn9t38hnzzq",168,"97.csv","","305.59999990463257","resources/trios/L1T2A2.jpg","38","restless",0.7,0.6,0.4,0.445584894419982,"true"
"image-keyboard-response",352,366016,"0.0-4.113-1.113","drynpn9t38hnzzq",168,"97.csv","","null","resources/maskTrios/BT2B.jpg","null","",NA,NA,NA,NA,""
"image-keyboard-response",353,367231,"0.0-4.113-2.113","drynpn9t38hnzzq",168,"97.csv","","null","resources/images/coin2.png","null","",NA,NA,NA,NA,""
"image-keyboard-response",354,367709,"0.0-4.114-0.114","drynpn9t38hnzzq",168,"97.csv","","476.89999985694885","resources/trios/L1T2A2.jpg","37","restless",0.7,0.7,0.4,0.354474864494468,"true"
"image-keyboard-response",355,368117,"0.0-4.114-1.114","drynpn9t38hnzzq",168,"97.csv","","null","resources/maskTrios/L1BB.jpg","null","",NA,NA,NA,NA,""
"image-keyboard-response",356,369318,"0.0-4.114-2.114","drynpn9t38hnzzq",168,"97.csv","","null","resources/images/coin2.png","null","",NA,NA,NA,NA,""
"image-keyboard-response",357,369347,"0.0-4.115-0.115","drynpn9t38hnzzq",168,"97.csv","","26.800000190734863","resources/trios/L1T2A2.jpg","37","restless",0.7,0.7,0.4,0.742652411008438,"false"
"image-keyboard-response",358,369751,"0.0-4.115-1.115","drynpn9t38hnzzq",168,"97.csv","","null","resources/maskTrios/L1BB.jpg","null","",NA,NA,NA,NA,""
"image-keyboard-response",359,370969,"0.0-4.115-2.115","drynpn9t38hnzzq",168,"97.csv","","null","resources/images/fishbone.png","null","",NA,NA,NA,NA,""
"image-keyboard-response",360,382007,"0.0-4.116-0.116","drynpn9t38hnzzq",168,"97.csv","","11038","resources/trios/L1T2A2.jpg","38","restless",0.7,0.7,0.4,0.950670308167301,"false"
"image-keyboard-response",361,382423,"0.0-4.116-1.116","drynpn9t38hnzzq",168,"97.csv","","null","resources/maskTrios/BT2B.jpg","null","",NA,NA,NA,NA,""
"image-keyboard-response",362,383638,"0.0-4.116-2.116","drynpn9t38hnzzq",168,"97.csv","","null","resources/images/fishbone.png","null","",NA,NA,NA,NA,""
"image-keyboard-response",363,384591,"0.0-4.117-0.117","drynpn9t38hnzzq",168,"97.csv","","949.7999999523163","resources/trios/L1T2A2.jpg","38","restless",0.7,0.7,0.4,0.15857234225673,"true"
"image-keyboard-response",364,385006,"0.0-4.117-1.117","drynpn9t38hnzzq",168,"97.csv","","null","resources/maskTrios/BT2B.jpg","null","",NA,NA,NA,NA,""
"image-keyboard-response",365,386223,"0.0-4.117-2.117","drynpn9t38hnzzq",168,"97.csv","","null","resources/images/coin2.png","null","",NA,NA,NA,NA,""
"image-keyboard-response",366,388869,"0.0-4.118-0.118","drynpn9t38hnzzq",168,"97.csv","","2644.0999999046326","resources/trios/L1T2A2.jpg","38","restless",0.7,0.7,0.4,0.196296671391843,"true"
"image-keyboard-response",367,389276,"0.0-4.118-1.118","drynpn9t38hnzzq",168,"97.csv","","null","resources/maskTrios/BT2B.jpg","null","",NA,NA,NA,NA,""
"image-keyboard-response",368,390491,"0.0-4.118-2.118","drynpn9t38hnzzq",168,"97.csv","","null","resources/images/coin2.png","null","",NA,NA,NA,NA,""
"image-keyboard-response",369,390985,"0.0-4.119-0.119","drynpn9t38hnzzq",168,"97.csv","","491.10000014305115","resources/trios/L1T2A2.jpg","38","restless",0.7,0.7,0.4,0.562326489725579,"true"
"image-keyboard-response",370,391392,"0.0-4.119-1.119","drynpn9t38hnzzq",168,"97.csv","","null","resources/maskTrios/BT2B.jpg","null","",NA,NA,NA,NA,""
"image-keyboard-response",371,392608,"0.0-4.119-2.119","drynpn9t38hnzzq",168,"97.csv","","null","resources/images/coin2.png","null","",NA,NA,NA,NA,""
"image-keyboard-response",372,403061,"0.0-4.120-0.120","drynpn9t38hnzzq",168,"97.csv","","10451.400000095367","resources/trios/L1T2A2.jpg","38","restless",0.7,0.6,0.4,0.516462727196176,"true"
"image-keyboard-response",373,403464,"0.0-4.120-1.120","drynpn9t38hnzzq",168,"97.csv","","null","resources/maskTrios/BT2B.jpg","null","",NA,NA,NA,NA,""
"image-keyboard-response",374,404681,"0.0-4.120-2.120","drynpn9t38hnzzq",168,"97.csv","","null","resources/images/coin2.png","null","",NA,NA,NA,NA,""
"image-keyboard-response",375,405056,"0.0-4.121-0.121","drynpn9t38hnzzq",168,"97.csv","","372.5","resources/trios/L1T2A2.jpg","38","restless",0.7,0.6,0.4,0.318886923613187,"true"
"image-keyboard-response",376,405465,"0.0-4.121-1.121","drynpn9t38hnzzq",168,"97.csv","","null","resources/maskTrios/BT2B.jpg","null","",NA,NA,NA,NA,""
"image-keyboard-response",377,406681,"0.0-4.121-2.121","drynpn9t38hnzzq",168,"97.csv","","null","resources/images/coin2.png","null","",NA,NA,NA,NA,""
"image-keyboard-response",378,407018,"0.0-4.122-0.122","drynpn9t38hnzzq",168,"97.csv","","335.30000019073486","resources/trios/L1T2A2.jpg","39","restless",0.7,0.6,0.4,0.489272371012972,"false"
"image-keyboard-response",379,407432,"0.0-4.122-1.122","drynpn9t38hnzzq",168,"97.csv","","null","resources/maskTrios/BBA2.jpg","null","",NA,NA,NA,NA,""
"image-keyboard-response",380,408649,"0.0-4.122-2.122","drynpn9t38hnzzq",168,"97.csv","","null","resources/images/fishbone.png","null","",NA,NA,NA,NA,""
"image-keyboard-response",381,409012,"0.0-4.123-0.123","drynpn9t38hnzzq",168,"97.csv","","361.2000000476837","resources/trios/L1T2A2.jpg","39","restless",0.7,0.6,0.4,0.569594757135781,"false"
"image-keyboard-response",382,409416,"0.0-4.123-1.123","drynpn9t38hnzzq",168,"97.csv","","null","resources/maskTrios/BBA2.jpg","null","",NA,NA,NA,NA,""
"image-keyboard-response",383,410631,"0.0-4.123-2.123","drynpn9t38hnzzq",168,"97.csv","","null","resources/images/fishbone.png","null","",NA,NA,NA,NA,""
"image-keyboard-response",384,410697,"0.0-4.124-0.124","drynpn9t38hnzzq",168,"97.csv","","63.700000047683716","resources/trios/L1T2A2.jpg","38","restless",0.7,0.6,0.4,0.247018545253904,"true"
"image-keyboard-response",385,411101,"0.0-4.124-1.124","drynpn9t38hnzzq",168,"97.csv","","null","resources/maskTrios/BT2B.jpg","null","",NA,NA,NA,NA,""
"image-keyboard-response",386,412318,"0.0-4.124-2.124","drynpn9t38hnzzq",168,"97.csv","","null","resources/images/coin2.png","null","",NA,NA,NA,NA,""
"image-keyboard-response",387,412321,"0.0-4.125-0.125","drynpn9t38hnzzq",168,"97.csv","","0.7999999523162842","resources/trios/L1T2A2.jpg","37","restless",0.7,0.6,0.4,0.838468262388366,"false"
"image-keyboard-response",388,412735,"0.0-4.125-1.125","drynpn9t38hnzzq",168,"97.csv","","null","resources/maskTrios/L1BB.jpg","null","",NA,NA,NA,NA,""
"image-keyboard-response",389,413951,"0.0-4.125-2.125","drynpn9t38hnzzq",168,"97.csv","","null","resources/images/fishbone.png","null","",NA,NA,NA,NA,""
"image-keyboard-response",390,414015,"0.0-4.126-0.126","drynpn9t38hnzzq",168,"97.csv","","63.40000009536743","resources/trios/L1T2A2.jpg","38","restless",0.7,0.6,0.4,0.352691460498735,"true"
"image-keyboard-response",391,414418,"0.0-4.126-1.126","drynpn9t38hnzzq",168,"97.csv","","null","resources/maskTrios/BT2B.jpg","null","",NA,NA,NA,NA,""
"image-keyboard-response",392,415635,"0.0-4.126-2.126","drynpn9t38hnzzq",168,"97.csv","","null","resources/images/coin2.png","null","",NA,NA,NA,NA,""
"image-keyboard-response",393,415762,"0.0-4.127-0.127","drynpn9t38hnzzq",168,"97.csv","","126.5","resources/trios/L1T2A2.jpg","38","restless",0.7,0.6,0.4,0.643135582895766,"false"
"image-keyboard-response",394,416168,"0.0-4.127-1.127","drynpn9t38hnzzq",168,"97.csv","","null","resources/maskTrios/BT2B.jpg","null","",NA,NA,NA,NA,""
"image-keyboard-response",395,417369,"0.0-4.127-2.127","drynpn9t38hnzzq",168,"97.csv","","null","resources/images/fishbone.png","null","",NA,NA,NA,NA,""
"image-keyboard-response",396,417402,"0.0-4.128-0.128","drynpn9t38hnzzq",168,"97.csv","","32.5","resources/trios/L1T2A2.jpg","38","restless",0.7,0.6,0.4,0.347371087067412,"true"
"image-keyboard-response",397,417819,"0.0-4.128-1.128","drynpn9t38hnzzq",168,"97.csv","","null","resources/maskTrios/BT2B.jpg","null","",NA,NA,NA,NA,""
"image-keyboard-response",398,419022,"0.0-4.128-2.128","drynpn9t38hnzzq",168,"97.csv","","null","resources/images/coin2.png","null","",NA,NA,NA,NA,""
"image-keyboard-response",399,419196,"0.0-4.129-0.129","drynpn9t38hnzzq",168,"97.csv","","172.40000009536743","resources/trios/L1T2A2.jpg","39","restless",0.7,0.6,0.4,0.986451946573497,"false"
"image-keyboard-response",400,419604,"0.0-4.129-1.129","drynpn9t38hnzzq",168,"97.csv","","null","resources/maskTrios/BBA2.jpg","null","",NA,NA,NA,NA,""
"image-keyboard-response",401,420819,"0.0-4.129-2.129","drynpn9t38hnzzq",168,"97.csv","","null","resources/images/fishbone.png","null","",NA,NA,NA,NA,""
"image-keyboard-response",402,421023,"0.0-4.130-0.130","drynpn9t38hnzzq",168,"97.csv","","203.59999990463257","resources/trios/L1T2A2.jpg","38","restless",0.7,0.6,0.4,0.430122857993515,"true"
"image-keyboard-response",403,421436,"0.0-4.130-1.130","drynpn9t38hnzzq",168,"97.csv","","null","resources/maskTrios/BT2B.jpg","null","",NA,NA,NA,NA,""
"image-keyboard-response",404,422652,"0.0-4.130-2.130","drynpn9t38hnzzq",168,"97.csv","","null","resources/images/coin2.png","null","",NA,NA,NA,NA,""
"image-keyboard-response",405,422867,"0.0-4.131-0.131","drynpn9t38hnzzq",168,"97.csv","","212.90000009536743","resources/trios/L1T2A2.jpg","38","restless",0.7,0.6,0.4,0.165478843443306,"true"
"image-keyboard-response",406,423272,"0.0-4.131-1.131","drynpn9t38hnzzq",168,"97.csv","","null","resources/maskTrios/BT2B.jpg","null","",NA,NA,NA,NA,""
"image-keyboard-response",407,424487,"0.0-4.131-2.131","drynpn9t38hnzzq",168,"97.csv","","null","resources/images/coin2.png","null","",NA,NA,NA,NA,""
"image-keyboard-response",408,424754,"0.0-4.132-0.132","drynpn9t38hnzzq",168,"97.csv","","266.10000014305115","resources/trios/L1T2A2.jpg","38","restless",0.7,0.6,0.4,0.38699441953989,"true"
"image-keyboard-response",409,425171,"0.0-4.132-1.132","drynpn9t38hnzzq",168,"97.csv","","null","resources/maskTrios/BT2B.jpg","null","",NA,NA,NA,NA,""
"image-keyboard-response",410,426375,"0.0-4.132-2.132","drynpn9t38hnzzq",168,"97.csv","","null","resources/images/coin2.png","null","",NA,NA,NA,NA,""
"image-keyboard-response",411,426641,"0.0-4.133-0.133","drynpn9t38hnzzq",168,"97.csv","","264.40000009536743","resources/trios/L1T2A2.jpg","38","restless",0.7,0.6,0.4,0.225895934090064,"true"
"image-keyboard-response",412,427057,"0.0-4.133-1.133","drynpn9t38hnzzq",168,"97.csv","","null","resources/maskTrios/BT2B.jpg","null","",NA,NA,NA,NA,""
"image-keyboard-response",413,428272,"0.0-4.133-2.133","drynpn9t38hnzzq",168,"97.csv","","null","resources/images/coin2.png","null","",NA,NA,NA,NA,""
"image-keyboard-response",414,428587,"0.0-4.134-0.134","drynpn9t38hnzzq",168,"97.csv","","313.59999990463257","resources/trios/L1T2A2.jpg","38","restless",0.7,0.6,0.4,0.886705949056683,"false"
"image-keyboard-response",415,428991,"0.0-4.134-1.134","drynpn9t38hnzzq",168,"97.csv","","null","resources/maskTrios/BT2B.jpg","null","",NA,NA,NA,NA,""
"image-keyboard-response",416,430205,"0.0-4.134-2.134","drynpn9t38hnzzq",168,"97.csv","","null","resources/images/fishbone.png","null","",NA,NA,NA,NA,""
"image-keyboard-response",417,430729,"0.0-4.135-0.135","drynpn9t38hnzzq",168,"97.csv","","522.7999999523163","resources/trios/L1T2A2.jpg","39","restless",0.8,0.6,0.4,0.0673547100928884,"true"
"image-keyboard-response",418,431143,"0.0-4.135-1.135","drynpn9t38hnzzq",168,"97.csv","","null","resources/maskTrios/BBA2.jpg","null","",NA,NA,NA,NA,""
"image-keyboard-response",419,432359,"0.0-4.135-2.135","drynpn9t38hnzzq",168,"97.csv","","null","resources/images/coin2.png","null","",NA,NA,NA,NA,""
"image-keyboard-response",420,432422,"0.0-4.136-0.136","drynpn9t38hnzzq",168,"97.csv","","60.90000009536743","resources/trios/L1T2A2.jpg","39","restless",0.8,0.6,0.4,0.473842121761418,"false"
"image-keyboard-response",421,432826,"0.0-4.136-1.136","drynpn9t38hnzzq",168,"97.csv","","null","resources/maskTrios/BBA2.jpg","null","",NA,NA,NA,NA,""
"image-keyboard-response",422,434041,"0.0-4.136-2.136","drynpn9t38hnzzq",168,"97.csv","","null","resources/images/fishbone.png","null","",NA,NA,NA,NA,""
"image-keyboard-response",423,434286,"0.0-4.137-0.137","drynpn9t38hnzzq",168,"97.csv","","244","resources/trios/L1T2A2.jpg","39","restless",0.8,0.6,0.4,0.548161032125532,"false"
"image-keyboard-response",424,434692,"0.0-4.137-1.137","drynpn9t38hnzzq",168,"97.csv","","null","resources/maskTrios/BBA2.jpg","null","",NA,NA,NA,NA,""
"image-keyboard-response",425,435893,"0.0-4.137-2.137","drynpn9t38hnzzq",168,"97.csv","","null","resources/images/fishbone.png","null","",NA,NA,NA,NA,""
"image-keyboard-response",426,436226,"0.0-4.138-0.138","drynpn9t38hnzzq",168,"97.csv","","331.90000009536743","resources/trios/L1T2A2.jpg","39","restless",0.8,0.6,0.4,0.102403834831809,"true"
"image-keyboard-response",427,436629,"0.0-4.138-1.138","drynpn9t38hnzzq",168,"97.csv","","null","resources/maskTrios/BBA2.jpg","null","",NA,NA,NA,NA,""
"image-keyboard-response",428,437843,"0.0-4.138-2.138","drynpn9t38hnzzq",168,"97.csv","","null","resources/images/coin2.png","null","",NA,NA,NA,NA,""
"image-keyboard-response",429,438009,"0.0-4.139-0.139","drynpn9t38hnzzq",168,"97.csv","","163.10000014305115","resources/trios/L1T2A2.jpg","39","restless",0.8,0.6,0.4,0.636023751187406,"false"
"image-keyboard-response",430,438426,"0.0-4.139-1.139","drynpn9t38hnzzq",168,"97.csv","","null","resources/maskTrios/BBA2.jpg","null","",NA,NA,NA,NA,""
"image-keyboard-response",431,439643,"0.0-4.139-2.139","drynpn9t38hnzzq",168,"97.csv","","null","resources/images/fishbone.png","null","",NA,NA,NA,NA,""
"image-keyboard-response",432,439921,"0.0-4.140-0.140","drynpn9t38hnzzq",168,"97.csv","","276.09999990463257","resources/trios/L1T2A2.jpg","37","restless",0.8,0.6,0.4,0.937692219806315,"false"
"image-keyboard-response",433,440328,"0.0-4.140-1.140","drynpn9t38hnzzq",168,"97.csv","","null","resources/maskTrios/L1BB.jpg","null","",NA,NA,NA,NA,""
"image-keyboard-response",434,441529,"0.0-4.140-2.140","drynpn9t38hnzzq",168,"97.csv","","null","resources/images/fishbone.png","null","",NA,NA,NA,NA,""
"image-keyboard-response",435,441905,"0.0-4.141-0.141","drynpn9t38hnzzq",168,"97.csv","","375.39999985694885","resources/trios/L1T2A2.jpg","37","restless",0.8,0.6,0.4,0.727735437847561,"true"
"image-keyboard-response",436,442312,"0.0-4.141-1.141","drynpn9t38hnzzq",168,"97.csv","","null","resources/maskTrios/L1BB.jpg","null","",NA,NA,NA,NA,""
"image-keyboard-response",437,443528,"0.0-4.141-2.141","drynpn9t38hnzzq",168,"97.csv","","null","resources/images/coin2.png","null","",NA,NA,NA,NA,""
"image-keyboard-response",438,443591,"0.0-4.142-0.142","drynpn9t38hnzzq",168,"97.csv","","60.60000014305115","resources/trios/L1T2A2.jpg","37","restless",0.8,0.7,0.4,0.760121902457672,"true"
"image-keyboard-response",439,443996,"0.0-4.142-1.142","drynpn9t38hnzzq",168,"97.csv","","null","resources/maskTrios/L1BB.jpg","null","",NA,NA,NA,NA,""
"image-keyboard-response",440,445213,"0.0-4.142-2.142","drynpn9t38hnzzq",168,"97.csv","","null","resources/images/coin2.png","null","",NA,NA,NA,NA,""
"image-keyboard-response",441,445225,"0.0-4.143-0.143","drynpn9t38hnzzq",168,"97.csv","","11.200000047683716","resources/trios/L1T2A2.jpg","37","restless",0.9,0.7,0.4,0.756050204865485,"true"
"image-keyboard-response",442,445631,"0.0-4.143-1.143","drynpn9t38hnzzq",168,"97.csv","","null","resources/maskTrios/L1BB.jpg","null","",NA,NA,NA,NA,""
"image-keyboard-response",443,446845,"0.0-4.143-2.143","drynpn9t38hnzzq",168,"97.csv","","null","resources/images/coin2.png","null","",NA,NA,NA,NA,""
"image-keyboard-response",444,447031,"0.0-4.144-0.144","drynpn9t38hnzzq",168,"97.csv","","182.40000009536743","resources/trios/L1T2A2.jpg","37","restless",0.9,0.7,0.4,0.535151580082193,"true"
"image-keyboard-response",445,447436,"0.0-4.144-1.144","drynpn9t38hnzzq",168,"97.csv","","null","resources/maskTrios/L1BB.jpg","null","",NA,NA,NA,NA,""
"image-keyboard-response",446,448653,"0.0-4.144-2.144","drynpn9t38hnzzq",168,"97.csv","","null","resources/images/coin2.png","null","",NA,NA,NA,NA,""
"image-keyboard-response",447,448656,"0.0-4.145-0.145","drynpn9t38hnzzq",168,"97.csv","","0.8000001907348633","resources/trios/L1T2A2.jpg","37","restless",0.9,0.7,0.4,0.456136818111155,"true"
"image-keyboard-response",448,449063,"0.0-4.145-1.145","drynpn9t38hnzzq",168,"97.csv","","null","resources/maskTrios/L1BB.jpg","null","",NA,NA,NA,NA,""
"image-keyboard-response",449,450266,"0.0-4.145-2.145","drynpn9t38hnzzq",168,"97.csv","","null","resources/images/coin2.png","null","",NA,NA,NA,NA,""
"image-keyboard-response",450,450488,"0.0-4.146-0.146","drynpn9t38hnzzq",168,"97.csv","","220.20000004768372","resources/trios/L1T2A2.jpg","37","restless",0.9,0.7,0.4,0.258110978206167,"true"
"image-keyboard-response",451,450899,"0.0-4.146-1.146","drynpn9t38hnzzq",168,"97.csv","","null","resources/maskTrios/L1BB.jpg","null","",NA,NA,NA,NA,""
"image-keyboard-response",452,452115,"0.0-4.146-2.146","drynpn9t38hnzzq",168,"97.csv","","null","resources/images/coin2.png","null","",NA,NA,NA,NA,""
"image-keyboard-response",453,452435,"0.0-4.147-0.147","drynpn9t38hnzzq",168,"97.csv","","317.90000009536743","resources/trios/L1T2A2.jpg","37","restless",0.8,0.7,0.4,0.471319874345507,"true"
"image-keyboard-response",454,452850,"0.0-4.147-1.147","drynpn9t38hnzzq",168,"97.csv","","null","resources/maskTrios/L1BB.jpg","null","",NA,NA,NA,NA,""
"image-keyboard-response",455,454065,"0.0-4.147-2.147","drynpn9t38hnzzq",168,"97.csv","","null","resources/images/coin2.png","null","",NA,NA,NA,NA,""
"image-keyboard-response",456,454363,"0.0-4.148-0.148","drynpn9t38hnzzq",168,"97.csv","","296.09999990463257","resources/trios/L1T2A2.jpg","37","restless",0.8,0.7,0.4,0.154679702368879,"true"
"image-keyboard-response",457,454767,"0.0-4.148-1.148","drynpn9t38hnzzq",168,"97.csv","","null","resources/maskTrios/L1BB.jpg","null","",NA,NA,NA,NA,""
"image-keyboard-response",458,455983,"0.0-4.148-2.148","drynpn9t38hnzzq",168,"97.csv","","null","resources/images/coin2.png","null","",NA,NA,NA,NA,""
"image-keyboard-response",459,456134,"0.0-4.149-0.149","drynpn9t38hnzzq",168,"97.csv","","150.19999980926514","resources/trios/L1T2A2.jpg","37","restless",0.8,0.6,0.4,0.0616464373380043,"true"
"image-keyboard-response",460,456535,"0.0-4.149-1.149","drynpn9t38hnzzq",168,"97.csv","","null","resources/maskTrios/L1BB.jpg","null","",NA,NA,NA,NA,""
"image-keyboard-response",461,457751,"0.0-4.149-2.149","drynpn9t38hnzzq",168,"97.csv","","null","resources/images/coin2.png","null","",NA,NA,NA,NA,""
"image-keyboard-response",462,457890,"0.0-4.150-0.150","drynpn9t38hnzzq",168,"97.csv","","136.89999985694885","resources/trios/L1T2A2.jpg","37","restless",0.8,0.6,0.4,0.927713031420195,"false"
"image-keyboard-response",463,458304,"0.0-4.150-1.150","drynpn9t38hnzzq",168,"97.csv","","null","resources/maskTrios/L1BB.jpg","null","",NA,NA,NA,NA,""
"image-keyboard-response",464,459518,"0.0-4.150-2.150","drynpn9t38hnzzq",168,"97.csv","","null","resources/images/fishbone.png","null","",NA,NA,NA,NA,""
"image-keyboard-response",465,459626,"0.0-4.151-0.151","drynpn9t38hnzzq",168,"97.csv","","105.89999985694885","resources/trios/L1T2A2.jpg","37","restless",0.8,0.6,0.4,0.896769454071002,"false"
"image-keyboard-response",466,460037,"0.0-4.151-1.151","drynpn9t38hnzzq",168,"97.csv","","null","resources/maskTrios/L1BB.jpg","null","",NA,NA,NA,NA,""
"image-keyboard-response",467,461251,"0.0-4.151-2.151","drynpn9t38hnzzq",168,"97.csv","","null","resources/images/fishbone.png","null","",NA,NA,NA,NA,""
"image-keyboard-response",468,461367,"0.0-4.152-0.152","drynpn9t38hnzzq",168,"97.csv","","115.20000004768372","resources/trios/L1T2A2.jpg","37","restless",0.8,0.6,0.4,0.805081921973084,"false"
"image-keyboard-response",469,461770,"0.0-4.152-1.152","drynpn9t38hnzzq",168,"97.csv","","null","resources/maskTrios/L1BB.jpg","null","",NA,NA,NA,NA,""
"image-keyboard-response",470,462986,"0.0-4.152-2.152","drynpn9t38hnzzq",168,"97.csv","","null","resources/images/fishbone.png","null","",NA,NA,NA,NA,""
"image-keyboard-response",471,463094,"0.0-4.153-0.153","drynpn9t38hnzzq",168,"97.csv","","104.79999995231628","resources/trios/L1T2A2.jpg","37","restless",0.7,0.5,0.4,0.92385112008308,"false"
"image-keyboard-response",472,463505,"0.0-4.153-1.153","drynpn9t38hnzzq",168,"97.csv","","null","resources/maskTrios/L1BB.jpg","null","",NA,NA,NA,NA,""
"image-keyboard-response",473,464721,"0.0-4.153-2.153","drynpn9t38hnzzq",168,"97.csv","","null","resources/images/fishbone.png","null","",NA,NA,NA,NA,""
"image-keyboard-response",474,464945,"0.0-4.154-0.154","drynpn9t38hnzzq",168,"97.csv","","221.70000004768372","resources/trios/L1T2A2.jpg","37","restless",0.7,0.5,0.4,0.169225046315363,"true"
"image-keyboard-response",475,465352,"0.0-4.154-1.154","drynpn9t38hnzzq",168,"97.csv","","null","resources/maskTrios/L1BB.jpg","null","",NA,NA,NA,NA,""
"image-keyboard-response",476,466554,"0.0-4.154-2.154","drynpn9t38hnzzq",168,"97.csv","","null","resources/images/coin2.png","null","",NA,NA,NA,NA,""
"image-keyboard-response",477,466878,"0.0-4.155-0.155","drynpn9t38hnzzq",168,"97.csv","","323","resources/trios/L1T2A2.jpg","37","restless",0.6,0.5,0.4,0.497443125200407,"true"
"image-keyboard-response",478,467289,"0.0-4.155-1.155","drynpn9t38hnzzq",168,"97.csv","","null","resources/maskTrios/L1BB.jpg","null","",NA,NA,NA,NA,""
"image-keyboard-response",479,468505,"0.0-4.155-2.155","drynpn9t38hnzzq",168,"97.csv","","null","resources/images/coin2.png","null","",NA,NA,NA,NA,""
"image-keyboard-response",480,468714,"0.0-4.156-0.156","drynpn9t38hnzzq",168,"97.csv","","207.5","resources/trios/L1T2A2.jpg","37","restless",0.6,0.6,0.4,0.893846393368505,"false"
"image-keyboard-response",481,469117,"0.0-4.156-1.156","drynpn9t38hnzzq",168,"97.csv","","null","resources/maskTrios/L1BB.jpg","null","",NA,NA,NA,NA,""
"image-keyboard-response",482,470325,"0.0-4.156-2.156","drynpn9t38hnzzq",168,"97.csv","","null","resources/images/fishbone.png","null","",NA,NA,NA,NA,""
"image-keyboard-response",483,470529,"0.0-4.157-0.157","drynpn9t38hnzzq",168,"97.csv","","203.20000004768372","resources/trios/L1T2A2.jpg","37","restless",0.6,0.6,0.4,0.644973957836961,"false"
"image-keyboard-response",484,470940,"0.0-4.157-1.157","drynpn9t38hnzzq",168,"97.csv","","null","resources/maskTrios/L1BB.jpg","null","",NA,NA,NA,NA,""
"image-keyboard-response",485,472156,"0.0-4.157-2.157","drynpn9t38hnzzq",168,"97.csv","","null","resources/images/fishbone.png","null","",NA,NA,NA,NA,""
"image-keyboard-response",486,472393,"0.0-4.158-0.158","drynpn9t38hnzzq",168,"97.csv","","235.90000009536743","resources/trios/L1T2A2.jpg","37","restless",0.6,0.6,0.4,0.492608498855869,"true"
"image-keyboard-response",487,472808,"0.0-4.158-1.158","drynpn9t38hnzzq",168,"97.csv","","null","resources/maskTrios/L1BB.jpg","null","",NA,NA,NA,NA,""
"image-keyboard-response",488,474023,"0.0-4.158-2.158","drynpn9t38hnzzq",168,"97.csv","","null","resources/images/coin2.png","null","",NA,NA,NA,NA,""
"image-keyboard-response",489,474263,"0.0-4.159-0.159","drynpn9t38hnzzq",168,"97.csv","","237.79999995231628","resources/trios/L1T2A2.jpg","37","restless",0.6,0.5,0.4,0.617688123926537,"false"
"image-keyboard-response",490,474676,"0.0-4.159-1.159","drynpn9t38hnzzq",168,"97.csv","","null","resources/maskTrios/L1BB.jpg","null","",NA,NA,NA,NA,""
"image-keyboard-response",491,475877,"0.0-4.159-2.159","drynpn9t38hnzzq",168,"97.csv","","null","resources/images/fishbone.png","null","",NA,NA,NA,NA,""
"image-keyboard-response",492,476122,"0.0-4.160-0.160","drynpn9t38hnzzq",168,"97.csv","","242.39999985694885","resources/trios/L1T2A2.jpg","37","restless",0.6,0.5,0.4,0.845110474552117,"false"
"image-keyboard-response",493,476526,"0.0-4.160-1.160","drynpn9t38hnzzq",168,"97.csv","","null","resources/maskTrios/L1BB.jpg","null","",NA,NA,NA,NA,""
"image-keyboard-response",494,477741,"0.0-4.160-2.160","drynpn9t38hnzzq",168,"97.csv","","null","resources/images/fishbone.png","null","",NA,NA,NA,NA,""
"image-keyboard-response",495,477967,"0.0-4.161-0.161","drynpn9t38hnzzq",168,"97.csv","","224.5","resources/trios/L1T2A2.jpg","38","restless",0.6,0.5,0.4,0.335726030259571,"true"
"image-keyboard-response",496,478377,"0.0-4.161-1.161","drynpn9t38hnzzq",168,"97.csv","","null","resources/maskTrios/BT2B.jpg","null","",NA,NA,NA,NA,""
"image-keyboard-response",497,479593,"0.0-4.161-2.161","drynpn9t38hnzzq",168,"97.csv","","null","resources/images/coin2.png","null","",NA,NA,NA,NA,""
"image-keyboard-response",498,479651,"0.0-4.162-0.162","drynpn9t38hnzzq",168,"97.csv","","55.10000014305115","resources/trios/L1T2A2.jpg","38","restless",0.6,0.5,0.4,0.391815569762993,"true"
"image-keyboard-response",499,480061,"0.0-4.162-1.162","drynpn9t38hnzzq",168,"97.csv","","null","resources/maskTrios/BT2B.jpg","null","",NA,NA,NA,NA,""
"image-keyboard-response",500,481277,"0.0-4.162-2.162","drynpn9t38hnzzq",168,"97.csv","","null","resources/images/coin2.png","null","",NA,NA,NA,NA,""
"image-keyboard-response",501,481438,"0.0-4.163-0.163","drynpn9t38hnzzq",168,"97.csv","","159.60000014305115","resources/trios/L1T2A2.jpg","38","restless",0.6,0.5,0.4,0.357443346432801,"true"
"image-keyboard-response",502,481845,"0.0-4.163-1.163","drynpn9t38hnzzq",168,"97.csv","","null","resources/maskTrios/BT2B.jpg","null","",NA,NA,NA,NA,""
"image-keyboard-response",503,483060,"0.0-4.163-2.163","drynpn9t38hnzzq",168,"97.csv","","null","resources/images/coin2.png","null","",NA,NA,NA,NA,""
"image-keyboard-response",504,483352,"0.0-4.164-0.164","drynpn9t38hnzzq",168,"97.csv","","290.7000000476837","resources/trios/L1T2A2.jpg","38","restless",0.6,0.5,0.4,0.844324839133131,"false"
"image-keyboard-response",505,483762,"0.0-4.164-1.164","drynpn9t38hnzzq",168,"97.csv","","null","resources/maskTrios/BT2B.jpg","null","",NA,NA,NA,NA,""
"image-keyboard-response",506,484977,"0.0-4.164-2.164","drynpn9t38hnzzq",168,"97.csv","","null","resources/images/fishbone.png","null","",NA,NA,NA,NA,""
"image-keyboard-response",507,485279,"0.0-4.165-0.165","drynpn9t38hnzzq",168,"97.csv","","299.60000014305115","resources/trios/L1T2A2.jpg","38","restless",0.6,0.5,0.4,0.79284797328429,"false"
"image-keyboard-response",508,485696,"0.0-4.165-1.165","drynpn9t38hnzzq",168,"97.csv","","null","resources/maskTrios/BT2B.jpg","null","",NA,NA,NA,NA,""
"image-keyboard-response",509,486898,"0.0-4.165-2.165","drynpn9t38hnzzq",168,"97.csv","","null","resources/images/fishbone.png","null","",NA,NA,NA,NA,""
"image-keyboard-response",510,487023,"0.0-4.166-0.166","drynpn9t38hnzzq",168,"97.csv","","121.59999990463257","resources/trios/L1T2A2.jpg","38","restless",0.6,0.5,0.4,0.934458810358189,"false"
"image-keyboard-response",511,487431,"0.0-4.166-1.166","drynpn9t38hnzzq",168,"97.csv","","null","resources/maskTrios/BT2B.jpg","null","",NA,NA,NA,NA,""
"image-keyboard-response",512,488646,"0.0-4.166-2.166","drynpn9t38hnzzq",168,"97.csv","","null","resources/images/fishbone.png","null","",NA,NA,NA,NA,""
"image-keyboard-response",513,488827,"0.0-4.167-0.167","drynpn9t38hnzzq",168,"97.csv","","179.70000004768372","resources/trios/L1T2A2.jpg","38","restless",0.6,0.5,0.4,0.844081430231309,"false"
"image-keyboard-response",514,489231,"0.0-4.167-1.167","drynpn9t38hnzzq",168,"97.csv","","null","resources/maskTrios/BT2B.jpg","null","",NA,NA,NA,NA,""
"image-keyboard-response",515,490445,"0.0-4.167-2.167","drynpn9t38hnzzq",168,"97.csv","","null","resources/images/fishbone.png","null","",NA,NA,NA,NA,""
"image-keyboard-response",516,490691,"0.0-4.168-0.168","drynpn9t38hnzzq",168,"97.csv","","244.20000004768372","resources/trios/L1T2A2.jpg","38","restless",0.6,0.5,0.4,0.379205620431084,"true"
"image-keyboard-response",517,491098,"0.0-4.168-1.168","drynpn9t38hnzzq",168,"97.csv","","null","resources/maskTrios/BT2B.jpg","null","",NA,NA,NA,NA,""
"image-keyboard-response",518,492314,"0.0-4.168-2.168","drynpn9t38hnzzq",168,"97.csv","","null","resources/images/coin2.png","null","",NA,NA,NA,NA,""
"image-keyboard-response",519,492461,"0.0-4.169-0.169","drynpn9t38hnzzq",168,"97.csv","","145.60000014305115","resources/trios/L1T2A2.jpg","38","restless",0.6,0.5,0.4,0.72736693501587,"false"
"image-keyboard-response",520,492865,"0.0-4.169-1.169","drynpn9t38hnzzq",168,"97.csv","","null","resources/maskTrios/BT2B.jpg","null","",NA,NA,NA,NA,""
"image-keyboard-response",521,494081,"0.0-4.169-2.169","drynpn9t38hnzzq",168,"97.csv","","null","resources/images/fishbone.png","null","",NA,NA,NA,NA,""
"image-keyboard-response",522,494242,"0.0-4.170-0.170","drynpn9t38hnzzq",168,"97.csv","","160.59999990463257","resources/trios/L1T2A2.jpg","38","restless",0.6,0.5,0.4,0.167180461153137,"true"
"image-keyboard-response",523,494650,"0.0-4.170-1.170","drynpn9t38hnzzq",168,"97.csv","","null","resources/maskTrios/BT2B.jpg","null","",NA,NA,NA,NA,""
"image-keyboard-response",524,495866,"0.0-4.170-2.170","drynpn9t38hnzzq",168,"97.csv","","null","resources/images/coin2.png","null","",NA,NA,NA,NA,""
"image-keyboard-response",525,495957,"0.0-4.171-0.171","drynpn9t38hnzzq",168,"97.csv","","90.29999995231628","resources/trios/L1T2A2.jpg","38","restless",0.6,0.5,0.4,0.240100635992741,"true"
"image-keyboard-response",526,496367,"0.0-4.171-1.171","drynpn9t38hnzzq",168,"97.csv","","null","resources/maskTrios/BT2B.jpg","null","",NA,NA,NA,NA,""
"image-keyboard-response",527,497583,"0.0-4.171-2.171","drynpn9t38hnzzq",168,"97.csv","","null","resources/images/coin2.png","null","",NA,NA,NA,NA,""
"image-keyboard-response",528,497761,"0.0-4.172-0.172","drynpn9t38hnzzq",168,"97.csv","","176.90000009536743","resources/trios/L1T2A2.jpg","38","restless",0.6,0.5,0.4,0.950665944521128,"false"
"image-keyboard-response",529,498166,"0.0-4.172-1.172","drynpn9t38hnzzq",168,"97.csv","","null","resources/maskTrios/BT2B.jpg","null","",NA,NA,NA,NA,""
"image-keyboard-response",530,499382,"0.0-4.172-2.172","drynpn9t38hnzzq",168,"97.csv","","null","resources/images/fishbone.png","null","",NA,NA,NA,NA,""
"image-keyboard-response",531,499454,"0.0-4.173-0.173","drynpn9t38hnzzq",168,"97.csv","","69.70000004768372","resources/trios/L1T2A2.jpg","38","restless",0.5,0.5,0.4,0.126731924672514,"true"
"image-keyboard-response",532,499869,"0.0-4.173-1.173","drynpn9t38hnzzq",168,"97.csv","","null","resources/maskTrios/BT2B.jpg","null","",NA,NA,NA,NA,""
"image-keyboard-response",533,501086,"0.0-4.173-2.173","drynpn9t38hnzzq",168,"97.csv","","null","resources/images/coin2.png","null","",NA,NA,NA,NA,""
"image-keyboard-response",534,501166,"0.0-4.174-0.174","drynpn9t38hnzzq",168,"97.csv","","79.09999990463257","resources/trios/L1T2A2.jpg","38","restless",0.5,0.4,0.4,0.706511142891399,"false"
"image-keyboard-response",535,501569,"0.0-4.174-1.174","drynpn9t38hnzzq",168,"97.csv","","null","resources/maskTrios/BT2B.jpg","null","",NA,NA,NA,NA,""
"image-keyboard-response",536,502784,"0.0-4.174-2.174","drynpn9t38hnzzq",168,"97.csv","","null","resources/images/fishbone.png","null","",NA,NA,NA,NA,""
"image-keyboard-response",537,503005,"0.0-4.175-0.175","drynpn9t38hnzzq",168,"97.csv","","217.89999985694885","resources/trios/L1T2A2.jpg","38","restless",0.5,0.3,0.4,0.671530431613484,"false"
"image-keyboard-response",538,503420,"0.0-4.175-1.175","drynpn9t38hnzzq",168,"97.csv","","null","resources/maskTrios/BT2B.jpg","null","",NA,NA,NA,NA,""
"image-keyboard-response",539,504622,"0.0-4.175-2.175","drynpn9t38hnzzq",168,"97.csv","","null","resources/images/fishbone.png","null","",NA,NA,NA,NA,""
"image-keyboard-response",540,504912,"0.0-4.176-0.176","drynpn9t38hnzzq",168,"97.csv","","288.89999985694885","resources/trios/L1T2A2.jpg","37","restless",0.5,0.3,0.4,0.445915829816169,"true"
"image-keyboard-response",541,505320,"0.0-4.176-1.176","drynpn9t38hnzzq",168,"97.csv","","null","resources/maskTrios/L1BB.jpg","null","",NA,NA,NA,NA,""
"image-keyboard-response",542,506536,"0.0-4.176-2.176","drynpn9t38hnzzq",168,"97.csv","","null","resources/images/coin2.png","null","",NA,NA,NA,NA,""
"image-keyboard-response",543,507842,"0.0-4.177-0.177","drynpn9t38hnzzq",168,"97.csv","","1302.6000001430511","resources/trios/L1T2A2.jpg","37","restless",0.5,0.3,0.4,0.981560404379345,"false"
"image-keyboard-response",544,508255,"0.0-4.177-1.177","drynpn9t38hnzzq",168,"97.csv","","null","resources/maskTrios/L1BB.jpg","null","",NA,NA,NA,NA,""
"image-keyboard-response",545,509469,"0.0-4.177-2.177","drynpn9t38hnzzq",168,"97.csv","","null","resources/images/fishbone.png","null","",NA,NA,NA,NA,""
"image-keyboard-response",546,509747,"0.0-4.178-0.178","drynpn9t38hnzzq",168,"97.csv","","275.2000000476837","resources/trios/L1T2A2.jpg","37","restless",0.5,0.3,0.4,0.541706455564941,"false"
"image-keyboard-response",547,510155,"0.0-4.178-1.178","drynpn9t38hnzzq",168,"97.csv","","null","resources/maskTrios/L1BB.jpg","null","",NA,NA,NA,NA,""
"image-keyboard-response",548,511372,"0.0-4.178-2.178","drynpn9t38hnzzq",168,"97.csv","","null","resources/images/fishbone.png","null","",NA,NA,NA,NA,""
"image-keyboard-response",549,511433,"0.0-4.179-0.179","drynpn9t38hnzzq",168,"97.csv","","58.5","resources/trios/L1T2A2.jpg","37","restless",0.4,0.3,0.4,0.1800767629305,"true"
"image-keyboard-response",550,511838,"0.0-4.179-1.179","drynpn9t38hnzzq",168,"97.csv","","null","resources/maskTrios/L1BB.jpg","null","",NA,NA,NA,NA,""
"image-keyboard-response",551,513040,"0.0-4.179-2.179","drynpn9t38hnzzq",168,"97.csv","","null","resources/images/coin2.png","null","",NA,NA,NA,NA,""
"image-keyboard-response",552,513067,"0.0-4.180-0.180","drynpn9t38hnzzq",168,"97.csv","","25.299999952316284","resources/trios/L1T2A2.jpg","37","restless",0.4,0.3,0.4,0.513906369279528,"false"
"image-keyboard-response",553,513473,"0.0-4.180-1.180","drynpn9t38hnzzq",168,"97.csv","","null","resources/maskTrios/L1BB.jpg","null","",NA,NA,NA,NA,""
"image-keyboard-response",554,514690,"0.0-4.180-2.180","drynpn9t38hnzzq",168,"97.csv","","null","resources/images/fishbone.png","null","",NA,NA,NA,NA,""
"image-keyboard-response",555,515173,"0.0-4.181-0.181","drynpn9t38hnzzq",168,"97.csv","","481.09999990463257","resources/trios/L1T2A2.jpg","38","restless",0.3,0.3,0.4,0.370009678241263,"false"
"image-keyboard-response",556,515590,"0.0-4.181-1.181","drynpn9t38hnzzq",168,"97.csv","","null","resources/maskTrios/BT2B.jpg","null","",NA,NA,NA,NA,""
"image-keyboard-response",557,516806,"0.0-4.181-2.181","drynpn9t38hnzzq",168,"97.csv","","null","resources/images/fishbone.png","null","",NA,NA,NA,NA,""
"image-keyboard-response",558,517111,"0.0-4.182-0.182","drynpn9t38hnzzq",168,"97.csv","","301.60000014305115","resources/trios/L1T2A2.jpg","38","restless",0.3,0.3,0.4,0.140232182107616,"true"
"image-keyboard-response",559,517526,"0.0-4.182-1.182","drynpn9t38hnzzq",168,"97.csv","","null","resources/maskTrios/BT2B.jpg","null","",NA,NA,NA,NA,""
"image-keyboard-response",560,518741,"0.0-4.182-2.182","drynpn9t38hnzzq",168,"97.csv","","null","resources/images/coin2.png","null","",NA,NA,NA,NA,""
"image-keyboard-response",561,518891,"0.0-4.183-0.183","drynpn9t38hnzzq",168,"97.csv","","147.59999990463257","resources/trios/L1T2A2.jpg","38","restless",0.2,0.3,0.4,0.000405683428238879,"true"
"image-keyboard-response",562,519309,"0.0-4.183-1.183","drynpn9t38hnzzq",168,"97.csv","","null","resources/maskTrios/BT2B.jpg","null","",NA,NA,NA,NA,""
"image-keyboard-response",563,520526,"0.0-4.183-2.183","drynpn9t38hnzzq",168,"97.csv","","null","resources/images/coin2.png","null","",NA,NA,NA,NA,""
"image-keyboard-response",564,520560,"0.0-4.184-0.184","drynpn9t38hnzzq",168,"97.csv","","31.5","resources/trios/L1T2A2.jpg","38","restless",0.2,0.3,0.4,0.801141288799115,"false"
"image-keyboard-response",565,520965,"0.0-4.184-1.184","drynpn9t38hnzzq",168,"97.csv","","null","resources/maskTrios/BT2B.jpg","null","",NA,NA,NA,NA,""
"image-keyboard-response",566,522176,"0.0-4.184-2.184","drynpn9t38hnzzq",168,"97.csv","","null","resources/images/fishbone.png","null","",NA,NA,NA,NA,""
"image-keyboard-response",567,522442,"0.0-4.185-0.185","drynpn9t38hnzzq",168,"97.csv","","263.2000000476837","resources/trios/L1T2A2.jpg","38","restless",0.2,0.3,0.4,0.277750061552716,"true"
"image-keyboard-response",568,522859,"0.0-4.185-1.185","drynpn9t38hnzzq",168,"97.csv","","null","resources/maskTrios/BT2B.jpg","null","",NA,NA,NA,NA,""
"image-keyboard-response",569,524074,"0.0-4.185-2.185","drynpn9t38hnzzq",168,"97.csv","","null","resources/images/coin2.png","null","",NA,NA,NA,NA,""
"image-keyboard-response",570,524369,"0.0-4.186-0.186","drynpn9t38hnzzq",168,"97.csv","","294.90000009536743","resources/trios/L1T2A2.jpg","38","restless",0.2,0.3,0.5,0.996610991633805,"false"
"image-keyboard-response",571,524778,"0.0-4.186-1.186","drynpn9t38hnzzq",168,"97.csv","","null","resources/maskTrios/BT2B.jpg","null","",NA,NA,NA,NA,""
"image-keyboard-response",572,525995,"0.0-4.186-2.186","drynpn9t38hnzzq",168,"97.csv","","null","resources/images/fishbone.png","null","",NA,NA,NA,NA,""
"image-keyboard-response",573,526129,"0.0-4.187-0.187","drynpn9t38hnzzq",168,"97.csv","","131.79999995231628","resources/trios/L1T2A2.jpg","38","restless",0.2,0.4,0.6,0.195854000486147,"true"
"image-keyboard-response",574,526545,"0.0-4.187-1.187","drynpn9t38hnzzq",168,"97.csv","","null","resources/maskTrios/BT2B.jpg","null","",NA,NA,NA,NA,""
"image-keyboard-response",575,527760,"0.0-4.187-2.187","drynpn9t38hnzzq",168,"97.csv","","null","resources/images/coin2.png","null","",NA,NA,NA,NA,""
"image-keyboard-response",576,527786,"0.0-4.188-0.188","drynpn9t38hnzzq",168,"97.csv","","24","resources/trios/L1T2A2.jpg","38","restless",0.2,0.5,0.6,0.766577226992339,"false"
"image-keyboard-response",577,528197,"0.0-4.188-1.188","drynpn9t38hnzzq",168,"97.csv","","null","resources/maskTrios/BT2B.jpg","null","",NA,NA,NA,NA,""
"image-keyboard-response",578,529411,"0.0-4.188-2.188","drynpn9t38hnzzq",168,"97.csv","","null","resources/images/fishbone.png","null","",NA,NA,NA,NA,""
"image-keyboard-response",579,529786,"0.0-4.189-0.189","drynpn9t38hnzzq",168,"97.csv","","372.39999985694885","resources/trios/L1T2A2.jpg","38","restless",0.2,0.5,0.5,0.46767077512814,"true"
"image-keyboard-response",580,530196,"0.0-4.189-1.189","drynpn9t38hnzzq",168,"97.csv","","null","resources/maskTrios/BT2B.jpg","null","",NA,NA,NA,NA,""
"image-keyboard-response",581,531411,"0.0-4.189-2.189","drynpn9t38hnzzq",168,"97.csv","","null","resources/images/coin2.png","null","",NA,NA,NA,NA,""
"image-keyboard-response",582,531564,"0.0-4.190-0.190","drynpn9t38hnzzq",168,"97.csv","","151.20000004768372","resources/trios/L1T2A2.jpg","38","restless",0.2,0.5,0.6,0.184141713364992,"true"
"image-keyboard-response",583,531980,"0.0-4.190-1.190","drynpn9t38hnzzq",168,"97.csv","","null","resources/maskTrios/BT2B.jpg","null","",NA,NA,NA,NA,""
"image-keyboard-response",584,533197,"0.0-4.190-2.190","drynpn9t38hnzzq",168,"97.csv","","null","resources/images/coin2.png","null","",NA,NA,NA,NA,""
"image-keyboard-response",585,533218,"0.0-4.191-0.191","drynpn9t38hnzzq",168,"97.csv","","19.200000047683716","resources/trios/L1T2A2.jpg","38","restless",0.2,0.5,0.6,0.842796205133399,"false"
"image-keyboard-response",586,533631,"0.0-4.191-1.191","drynpn9t38hnzzq",168,"97.csv","","null","resources/maskTrios/BT2B.jpg","null","",NA,NA,NA,NA,""
"image-keyboard-response",587,534847,"0.0-4.191-2.191","drynpn9t38hnzzq",168,"97.csv","","null","resources/images/fishbone.png","null","",NA,NA,NA,NA,""
"image-keyboard-response",588,535843,"0.0-4.192-0.192","drynpn9t38hnzzq",168,"97.csv","","993.7999999523163","resources/trios/L1T2A2.jpg","38","restless",0.2,0.5,0.6,0.790388139636788,"false"
"image-keyboard-response",589,536260,"0.0-4.192-1.192","drynpn9t38hnzzq",168,"97.csv","","null","resources/maskTrios/BT2B.jpg","null","",NA,NA,NA,NA,""
"image-keyboard-response",590,537466,"0.0-4.192-2.192","drynpn9t38hnzzq",168,"97.csv","","null","resources/images/fishbone.png","null","",NA,NA,NA,NA,""
"image-keyboard-response",591,537663,"0.0-4.193-0.193","drynpn9t38hnzzq",168,"97.csv","","195.5","resources/trios/L1T2A2.jpg","38","restless",0.2,0.5,0.6,0.375723744045647,"true"
"image-keyboard-response",592,538066,"0.0-4.193-1.193","drynpn9t38hnzzq",168,"97.csv","","null","resources/maskTrios/BT2B.jpg","null","",NA,NA,NA,NA,""
"image-keyboard-response",593,539281,"0.0-4.193-2.193","drynpn9t38hnzzq",168,"97.csv","","null","resources/images/coin2.png","null","",NA,NA,NA,NA,""
"image-keyboard-response",594,539809,"0.0-4.194-0.194","drynpn9t38hnzzq",168,"97.csv","","525","resources/trios/L1T2A2.jpg","37","restless",0.2,0.5,0.6,0.780391615046008,"false"
"image-keyboard-response",595,540217,"0.0-4.194-1.194","drynpn9t38hnzzq",168,"97.csv","","null","resources/maskTrios/L1BB.jpg","null","",NA,NA,NA,NA,""
"image-keyboard-response",596,541433,"0.0-4.194-2.194","drynpn9t38hnzzq",168,"97.csv","","null","resources/images/fishbone.png","null","",NA,NA,NA,NA,""
"image-keyboard-response",597,541482,"0.0-4.195-0.195","drynpn9t38hnzzq",168,"97.csv","","47.80000019073486","resources/trios/L1T2A2.jpg","38","restless",0.2,0.5,0.6,0.502608396121163,"false"
"image-keyboard-response",598,541884,"0.0-4.195-1.195","drynpn9t38hnzzq",168,"97.csv","","null","resources/maskTrios/BT2B.jpg","null","",NA,NA,NA,NA,""
"image-keyboard-response",599,543098,"0.0-4.195-2.195","drynpn9t38hnzzq",168,"97.csv","","null","resources/images/fishbone.png","null","",NA,NA,NA,NA,""
"image-keyboard-response",600,543307,"0.0-4.196-0.196","drynpn9t38hnzzq",168,"97.csv","","208.29999995231628","resources/trios/L1T2A2.jpg","39","restless",0.2,0.5,0.6,0.741765104676271,"false"
"image-keyboard-response",601,543718,"0.0-4.196-1.196","drynpn9t38hnzzq",168,"97.csv","","null","resources/maskTrios/BBA2.jpg","null","",NA,NA,NA,NA,""
"image-keyboard-response",602,544932,"0.0-4.196-2.196","drynpn9t38hnzzq",168,"97.csv","","null","resources/images/fishbone.png","null","",NA,NA,NA,NA,""
"image-keyboard-response",603,548597,"0.0-4.197-0.197","drynpn9t38hnzzq",168,"97.csv","","3672.2000000476837","resources/trios/L1T2A2.jpg","37","restless",0.2,0.5,0.6,0.65337543847124,"false"
"image-keyboard-response",604,549011,"0.0-4.197-1.197","drynpn9t38hnzzq",168,"97.csv","","null","resources/maskTrios/L1BB.jpg","null","",NA,NA,NA,NA,""
"image-keyboard-response",605,550213,"0.0-4.197-2.197","drynpn9t38hnzzq",168,"97.csv","","null","resources/images/fishbone.png","null","",NA,NA,NA,NA,""
"image-keyboard-response",606,550518,"0.0-4.198-0.198","drynpn9t38hnzzq",168,"97.csv","","302.5","resources/trios/L1T2A2.jpg","38","restless",0.2,0.5,0.6,0.531226084057626,"false"
"image-keyboard-response",607,550929,"0.0-4.198-1.198","drynpn9t38hnzzq",168,"97.csv","","null","resources/maskTrios/BT2B.jpg","null","",NA,NA,NA,NA,""
"image-keyboard-response",608,552144,"0.0-4.198-2.198","drynpn9t38hnzzq",168,"97.csv","","null","resources/images/fishbone.png","null","",NA,NA,NA,NA,""
"image-keyboard-response",609,552922,"0.0-4.199-0.199","drynpn9t38hnzzq",168,"97.csv","","775.4000000953674","resources/trios/L1T2A2.jpg","38","restless",0.2,0.5,0.6,0.126588960397592,"true"
"image-keyboard-response",610,553336,"0.0-4.199-1.199","drynpn9t38hnzzq",168,"97.csv","","null","resources/maskTrios/BT2B.jpg","null","",NA,NA,NA,NA,""
"image-keyboard-response",611,554547,"0.0-4.199-2.199","drynpn9t38hnzzq",168,"97.csv","","null","resources/images/coin2.png","null","",NA,NA,NA,NA,""
