"trial_type","trial_index","time_elapsed","internal_node_id","subject","participantCode","walkNumber","success","rt","stimulus","key_press","test_part","leftProb","midProb","rightProb","generatedNum","correct"
"pavlovia",0,972,"0.0-0.0","2bj4hnwl1uvy1op",696,"108.csv","","","","","",NA,NA,NA,NA,""
"fullscreen",1,5600,"0.0-1.0","2bj4hnwl1uvy1op",696,"108.csv","true","","","","",NA,NA,NA,NA,""
"survey-html-form",2,27703,"0.0-2.0","2bj4hnwl1uvy1op",696,"108.csv","","22102","","","",NA,NA,NA,NA,""
"image-keyboard-response",3,55970,"0.0-3.0-0.0","2bj4hnwl1uvy1op",696,"108.csv","","28266","resources/images/parrot_nobg.png","13","",NA,NA,NA,NA,""
"image-keyboard-response",4,58984,"0.0-3.0-1.0","2bj4hnwl1uvy1op",696,"108.csv","","null","resources/image_sets/111.png","null","",NA,NA,NA,NA,""
"image-keyboard-response",5,72211,"0.0-3.0-2.0","2bj4hnwl1uvy1op",696,"108.csv","","13226","resources/image_sets/left_highlight.png","37","",NA,NA,NA,NA,""
"image-keyboard-response",6,73602,"0.0-3.0-3.0","2bj4hnwl1uvy1op",696,"108.csv","","1391","resources/image_sets/mid_highlight.png","38","",NA,NA,NA,NA,""
"image-keyboard-response",7,74483,"0.0-3.0-4.0","2bj4hnwl1uvy1op",696,"108.csv","","880","resources/image_sets/right_highlight.png","39","",NA,NA,NA,NA,""
"image-keyboard-response",8,82467,"0.0-3.0-5.0","2bj4hnwl1uvy1op",696,"108.csv","","7983","resources/image_sets/111.png","13","",NA,NA,NA,NA,""
"image-keyboard-response",9,85427,"0.0-3.0-6.0","2bj4hnwl1uvy1op",696,"108.csv","","2959","resources/images/coin2.png","13","",NA,NA,NA,NA,""
"image-keyboard-response",10,87514,"0.0-3.0-7.0","2bj4hnwl1uvy1op",696,"108.csv","","2088","resources/images/fishbone.png","13","",NA,NA,NA,NA,""
"html-keyboard-response",11,95907,"0.0-3.0-8.0","2bj4hnwl1uvy1op",696,"108.csv","","8392","<p>You can track your coin total on the top right of your screen. </p><p>At the end of your journey you will be directed to a survey, so please click on the link before exiting the task</p><p>Press Enter to begin</p>","13","",NA,NA,NA,NA,""
"image-keyboard-response",12,97643,"0.0-4.0-0.0","2bj4hnwl1uvy1op",696,"108.csv","","1735","resources/trios/L1T2A3.jpg","38","restless",0.9,0.3,0.7,0.315112866562065,"false"
"image-keyboard-response",13,98053,"0.0-4.0-1.0","2bj4hnwl1uvy1op",696,"108.csv","","null","resources/maskTrios/BT2B.jpg","null","",NA,NA,NA,NA,""
"image-keyboard-response",14,99266,"0.0-4.0-2.0","2bj4hnwl1uvy1op",696,"108.csv","","null","resources/images/fishbone.png","null","",NA,NA,NA,NA,""
"image-keyboard-response",15,102354,"0.0-4.1-0.1","2bj4hnwl1uvy1op",696,"108.csv","","3088","resources/trios/L1T2A3.jpg","39","restless",0.9,0.3,0.7,0.724020233213151,"false"
"image-keyboard-response",16,102771,"0.0-4.1-1.1","2bj4hnwl1uvy1op",696,"108.csv","","null","resources/maskTrios/BBA3.jpg","null","",NA,NA,NA,NA,""
"image-keyboard-response",17,103986,"0.0-4.1-2.1","2bj4hnwl1uvy1op",696,"108.csv","","null","resources/images/fishbone.png","null","",NA,NA,NA,NA,""
"image-keyboard-response",18,105794,"0.0-4.2-0.2","2bj4hnwl1uvy1op",696,"108.csv","","1808","resources/trios/L1T2A3.jpg","38","restless",0.9,0.3,0.7,0.419150953396337,"false"
"image-keyboard-response",19,106211,"0.0-4.2-1.2","2bj4hnwl1uvy1op",696,"108.csv","","null","resources/maskTrios/BT2B.jpg","null","",NA,NA,NA,NA,""
"image-keyboard-response",20,107424,"0.0-4.2-2.2","2bj4hnwl1uvy1op",696,"108.csv","","null","resources/images/fishbone.png","null","",NA,NA,NA,NA,""
"image-keyboard-response",21,107899,"0.0-4.3-0.3","2bj4hnwl1uvy1op",696,"108.csv","","474","resources/trios/L1T2A3.jpg","37","restless",0.9,0.3,0.7,0.865631067573856,"true"
"image-keyboard-response",22,108311,"0.0-4.3-1.3","2bj4hnwl1uvy1op",696,"108.csv","","null","resources/maskTrios/L1BB.jpg","null","",NA,NA,NA,NA,""
"image-keyboard-response",23,109518,"0.0-4.3-2.3","2bj4hnwl1uvy1op",696,"108.csv","","null","resources/images/coin2.png","null","",NA,NA,NA,NA,""
"image-keyboard-response",24,111171,"0.0-4.4-0.4","2bj4hnwl1uvy1op",696,"108.csv","","1652","resources/trios/L1T2A3.jpg","37","restless",0.9,0.3,0.7,0.934378376892423,"false"
"image-keyboard-response",25,111573,"0.0-4.4-1.4","2bj4hnwl1uvy1op",696,"108.csv","","null","resources/maskTrios/L1BB.jpg","null","",NA,NA,NA,NA,""
"image-keyboard-response",26,112776,"0.0-4.4-2.4","2bj4hnwl1uvy1op",696,"108.csv","","null","resources/images/fishbone.png","null","",NA,NA,NA,NA,""
"image-keyboard-response",27,114362,"0.0-4.5-0.5","2bj4hnwl1uvy1op",696,"108.csv","","1585","resources/trios/L1T2A3.jpg","39","restless",0.9,0.3,0.7,0.224665007410323,"true"
"image-keyboard-response",28,114779,"0.0-4.5-1.5","2bj4hnwl1uvy1op",696,"108.csv","","null","resources/maskTrios/BBA3.jpg","null","",NA,NA,NA,NA,""
"image-keyboard-response",29,115991,"0.0-4.5-2.5","2bj4hnwl1uvy1op",696,"108.csv","","null","resources/images/coin2.png","null","",NA,NA,NA,NA,""
"image-keyboard-response",30,117114,"0.0-4.6-0.6","2bj4hnwl1uvy1op",696,"108.csv","","1122","resources/trios/L1T2A3.jpg","38","restless",0.9,0.3,0.7,0.724206344963218,"false"
"image-keyboard-response",31,117529,"0.0-4.6-1.6","2bj4hnwl1uvy1op",696,"108.csv","","null","resources/maskTrios/BT2B.jpg","null","",NA,NA,NA,NA,""
"image-keyboard-response",32,118742,"0.0-4.6-2.6","2bj4hnwl1uvy1op",696,"108.csv","","null","resources/images/fishbone.png","null","",NA,NA,NA,NA,""
"image-keyboard-response",33,120059,"0.0-4.7-0.7","2bj4hnwl1uvy1op",696,"108.csv","","1315","resources/trios/L1T2A3.jpg","37","restless",0.9,0.3,0.7,0.962424879815985,"false"
"image-keyboard-response",34,120464,"0.0-4.7-1.7","2bj4hnwl1uvy1op",696,"108.csv","","null","resources/maskTrios/L1BB.jpg","null","",NA,NA,NA,NA,""
"image-keyboard-response",35,121676,"0.0-4.7-2.7","2bj4hnwl1uvy1op",696,"108.csv","","null","resources/images/fishbone.png","null","",NA,NA,NA,NA,""
"image-keyboard-response",36,122691,"0.0-4.8-0.8","2bj4hnwl1uvy1op",696,"108.csv","","1015","resources/trios/L1T2A3.jpg","37","restless",0.9,0.3,0.7,0.9103307790023,"false"
"image-keyboard-response",37,123106,"0.0-4.8-1.8","2bj4hnwl1uvy1op",696,"108.csv","","null","resources/maskTrios/L1BB.jpg","null","",NA,NA,NA,NA,""
"image-keyboard-response",38,124308,"0.0-4.8-2.8","2bj4hnwl1uvy1op",696,"108.csv","","null","resources/images/fishbone.png","null","",NA,NA,NA,NA,""
"image-keyboard-response",39,124691,"0.0-4.9-0.9","2bj4hnwl1uvy1op",696,"108.csv","","382","resources/trios/L1T2A3.jpg","38","restless",0.9,0.3,0.7,0.512781252796906,"false"
"image-keyboard-response",40,125103,"0.0-4.9-1.9","2bj4hnwl1uvy1op",696,"108.csv","","null","resources/maskTrios/BT2B.jpg","null","",NA,NA,NA,NA,""
"image-keyboard-response",41,126317,"0.0-4.9-2.9","2bj4hnwl1uvy1op",696,"108.csv","","null","resources/images/fishbone.png","null","",NA,NA,NA,NA,""
"image-keyboard-response",42,126842,"0.0-4.10-0.10","2bj4hnwl1uvy1op",696,"108.csv","","525","resources/trios/L1T2A3.jpg","38","restless",0.9,0.3,0.7,0.421216072458279,"false"
"image-keyboard-response",43,127247,"0.0-4.10-1.10","2bj4hnwl1uvy1op",696,"108.csv","","null","resources/maskTrios/BT2B.jpg","null","",NA,NA,NA,NA,""
"image-keyboard-response",44,128459,"0.0-4.10-2.10","2bj4hnwl1uvy1op",696,"108.csv","","null","resources/images/fishbone.png","null","",NA,NA,NA,NA,""
"image-keyboard-response",45,128722,"0.0-4.11-0.11","2bj4hnwl1uvy1op",696,"108.csv","","262","resources/trios/L1T2A3.jpg","39","restless",0.9,0.3,0.7,0.224044122523806,"true"
"image-keyboard-response",46,129130,"0.0-4.11-1.11","2bj4hnwl1uvy1op",696,"108.csv","","null","resources/maskTrios/BBA3.jpg","null","",NA,NA,NA,NA,""
"image-keyboard-response",47,130345,"0.0-4.11-2.11","2bj4hnwl1uvy1op",696,"108.csv","","null","resources/images/coin2.png","null","",NA,NA,NA,NA,""
"image-keyboard-response",48,131227,"0.0-4.12-0.12","2bj4hnwl1uvy1op",696,"108.csv","","880","resources/trios/L1T2A3.jpg","38","restless",0.8,0.3,0.7,0.2564193173645,"true"
"image-keyboard-response",49,131635,"0.0-4.12-1.12","2bj4hnwl1uvy1op",696,"108.csv","","null","resources/maskTrios/BT2B.jpg","null","",NA,NA,NA,NA,""
"image-keyboard-response",50,132850,"0.0-4.12-2.12","2bj4hnwl1uvy1op",696,"108.csv","","null","resources/images/coin2.png","null","",NA,NA,NA,NA,""
"image-keyboard-response",51,133514,"0.0-4.13-0.13","2bj4hnwl1uvy1op",696,"108.csv","","664","resources/trios/L1T2A3.jpg","37","restless",0.8,0.3,0.7,0.572754748055966,"true"
"image-keyboard-response",52,133927,"0.0-4.13-1.13","2bj4hnwl1uvy1op",696,"108.csv","","null","resources/maskTrios/L1BB.jpg","null","",NA,NA,NA,NA,""
"image-keyboard-response",53,135142,"0.0-4.13-2.13","2bj4hnwl1uvy1op",696,"108.csv","","null","resources/images/coin2.png","null","",NA,NA,NA,NA,""
"image-keyboard-response",54,136194,"0.0-4.14-0.14","2bj4hnwl1uvy1op",696,"108.csv","","1052","resources/trios/L1T2A3.jpg","38","restless",0.8,0.3,0.7,0.447155242155738,"false"
"image-keyboard-response",55,136599,"0.0-4.14-1.14","2bj4hnwl1uvy1op",696,"108.csv","","null","resources/maskTrios/BT2B.jpg","null","",NA,NA,NA,NA,""
"image-keyboard-response",56,137810,"0.0-4.14-2.14","2bj4hnwl1uvy1op",696,"108.csv","","null","resources/images/fishbone.png","null","",NA,NA,NA,NA,""
"image-keyboard-response",57,138179,"0.0-4.15-0.15","2bj4hnwl1uvy1op",696,"108.csv","","367","resources/trios/L1T2A3.jpg","39","restless",0.8,0.3,0.7,0.767388076278527,"false"
"image-keyboard-response",58,138588,"0.0-4.15-1.15","2bj4hnwl1uvy1op",696,"108.csv","","null","resources/maskTrios/BBA3.jpg","null","",NA,NA,NA,NA,""
"image-keyboard-response",59,139800,"0.0-4.15-2.15","2bj4hnwl1uvy1op",696,"108.csv","","null","resources/images/fishbone.png","null","",NA,NA,NA,NA,""
"image-keyboard-response",60,140098,"0.0-4.16-0.16","2bj4hnwl1uvy1op",696,"108.csv","","297","resources/trios/L1T2A3.jpg","37","restless",0.8,0.3,0.7,0.765372910835938,"true"
"image-keyboard-response",61,140500,"0.0-4.16-1.16","2bj4hnwl1uvy1op",696,"108.csv","","null","resources/maskTrios/L1BB.jpg","null","",NA,NA,NA,NA,""
"image-keyboard-response",62,141714,"0.0-4.16-2.16","2bj4hnwl1uvy1op",696,"108.csv","","null","resources/images/coin2.png","null","",NA,NA,NA,NA,""
"image-keyboard-response",63,142227,"0.0-4.17-0.17","2bj4hnwl1uvy1op",696,"108.csv","","512","resources/trios/L1T2A3.jpg","37","restless",0.8,0.3,0.7,0.841782009176754,"false"
"image-keyboard-response",64,142636,"0.0-4.17-1.17","2bj4hnwl1uvy1op",696,"108.csv","","null","resources/maskTrios/L1BB.jpg","null","",NA,NA,NA,NA,""
"image-keyboard-response",65,143851,"0.0-4.17-2.17","2bj4hnwl1uvy1op",696,"108.csv","","null","resources/images/fishbone.png","null","",NA,NA,NA,NA,""
"image-keyboard-response",66,144130,"0.0-4.18-0.18","2bj4hnwl1uvy1op",696,"108.csv","","278","resources/trios/L1T2A3.jpg","39","restless",0.8,0.3,0.8,0.431290627338592,"true"
"image-keyboard-response",67,144535,"0.0-4.18-1.18","2bj4hnwl1uvy1op",696,"108.csv","","null","resources/maskTrios/BBA3.jpg","null","",NA,NA,NA,NA,""
"image-keyboard-response",68,145746,"0.0-4.18-2.18","2bj4hnwl1uvy1op",696,"108.csv","","null","resources/images/coin2.png","null","",NA,NA,NA,NA,""
"image-keyboard-response",69,146634,"0.0-4.19-0.19","2bj4hnwl1uvy1op",696,"108.csv","","888","resources/trios/L1T2A3.jpg","37","restless",0.8,0.3,0.8,0.486075203641011,"true"
"image-keyboard-response",70,147047,"0.0-4.19-1.19","2bj4hnwl1uvy1op",696,"108.csv","","null","resources/maskTrios/L1BB.jpg","null","",NA,NA,NA,NA,""
"image-keyboard-response",71,148258,"0.0-4.19-2.19","2bj4hnwl1uvy1op",696,"108.csv","","null","resources/images/coin2.png","null","",NA,NA,NA,NA,""
"image-keyboard-response",72,148674,"0.0-4.20-0.20","2bj4hnwl1uvy1op",696,"108.csv","","414","resources/trios/L1T2A3.jpg","38","restless",0.8,0.3,0.8,0.109613639020858,"true"
"image-keyboard-response",73,149080,"0.0-4.20-1.20","2bj4hnwl1uvy1op",696,"108.csv","","null","resources/maskTrios/BT2B.jpg","null","",NA,NA,NA,NA,""
"image-keyboard-response",74,150292,"0.0-4.20-2.20","2bj4hnwl1uvy1op",696,"108.csv","","null","resources/images/coin2.png","null","",NA,NA,NA,NA,""
"image-keyboard-response",75,151491,"0.0-4.21-0.21","2bj4hnwl1uvy1op",696,"108.csv","","1197","resources/trios/L1T2A3.jpg","37","restless",0.8,0.2,0.8,0.714086545914466,"true"
"image-keyboard-response",76,151907,"0.0-4.21-1.21","2bj4hnwl1uvy1op",696,"108.csv","","null","resources/maskTrios/L1BB.jpg","null","",NA,NA,NA,NA,""
"image-keyboard-response",77,153121,"0.0-4.21-2.21","2bj4hnwl1uvy1op",696,"108.csv","","null","resources/images/coin2.png","null","",NA,NA,NA,NA,""
"image-keyboard-response",78,155314,"0.0-4.22-0.22","2bj4hnwl1uvy1op",696,"108.csv","","2193","resources/trios/L1T2A3.jpg","39","restless",0.7,0.2,0.8,0.272330056730744,"true"
"image-keyboard-response",79,155729,"0.0-4.22-1.22","2bj4hnwl1uvy1op",696,"108.csv","","null","resources/maskTrios/BBA3.jpg","null","",NA,NA,NA,NA,""
"image-keyboard-response",80,156943,"0.0-4.22-2.22","2bj4hnwl1uvy1op",696,"108.csv","","null","resources/images/coin2.png","null","",NA,NA,NA,NA,""
"image-keyboard-response",81,157978,"0.0-4.23-0.23","2bj4hnwl1uvy1op",696,"108.csv","","1035","resources/trios/L1T2A3.jpg","39","restless",0.7,0.2,0.8,0.768687045139727,"true"
"image-keyboard-response",82,158392,"0.0-4.23-1.23","2bj4hnwl1uvy1op",696,"108.csv","","null","resources/maskTrios/BBA3.jpg","null","",NA,NA,NA,NA,""
"image-keyboard-response",83,159605,"0.0-4.23-2.23","2bj4hnwl1uvy1op",696,"108.csv","","null","resources/images/coin2.png","null","",NA,NA,NA,NA,""
"image-keyboard-response",84,159938,"0.0-4.24-0.24","2bj4hnwl1uvy1op",696,"108.csv","","332","resources/trios/L1T2A3.jpg","38","restless",0.7,0.2,0.8,0.718761171482079,"false"
"image-keyboard-response",85,160352,"0.0-4.24-1.24","2bj4hnwl1uvy1op",696,"108.csv","","null","resources/maskTrios/BT2B.jpg","null","",NA,NA,NA,NA,""
"image-keyboard-response",86,161566,"0.0-4.24-2.24","2bj4hnwl1uvy1op",696,"108.csv","","null","resources/images/fishbone.png","null","",NA,NA,NA,NA,""
"image-keyboard-response",87,162098,"0.0-4.25-0.25","2bj4hnwl1uvy1op",696,"108.csv","","532","resources/trios/L1T2A3.jpg","38","restless",0.7,0.2,0.8,0.908753316687812,"false"
"image-keyboard-response",88,162513,"0.0-4.25-1.25","2bj4hnwl1uvy1op",696,"108.csv","","null","resources/maskTrios/BT2B.jpg","null","",NA,NA,NA,NA,""
"image-keyboard-response",89,163728,"0.0-4.25-2.25","2bj4hnwl1uvy1op",696,"108.csv","","null","resources/images/fishbone.png","null","",NA,NA,NA,NA,""
"image-keyboard-response",90,164098,"0.0-4.26-0.26","2bj4hnwl1uvy1op",696,"108.csv","","370","resources/trios/L1T2A3.jpg","37","restless",0.6,0.2,0.8,0.848523818578037,"false"
"image-keyboard-response",91,164507,"0.0-4.26-1.26","2bj4hnwl1uvy1op",696,"108.csv","","null","resources/maskTrios/L1BB.jpg","null","",NA,NA,NA,NA,""
"image-keyboard-response",92,165720,"0.0-4.26-2.26","2bj4hnwl1uvy1op",696,"108.csv","","null","resources/images/fishbone.png","null","",NA,NA,NA,NA,""
"image-keyboard-response",93,166002,"0.0-4.27-0.27","2bj4hnwl1uvy1op",696,"108.csv","","281","resources/trios/L1T2A3.jpg","39","restless",0.6,0.2,0.8,0.490490982464539,"true"
"image-keyboard-response",94,166406,"0.0-4.27-1.27","2bj4hnwl1uvy1op",696,"108.csv","","null","resources/maskTrios/BBA3.jpg","null","",NA,NA,NA,NA,""
"image-keyboard-response",95,167608,"0.0-4.27-2.27","2bj4hnwl1uvy1op",696,"108.csv","","null","resources/images/coin2.png","null","",NA,NA,NA,NA,""
"image-keyboard-response",96,167898,"0.0-4.28-0.28","2bj4hnwl1uvy1op",696,"108.csv","","290","resources/trios/L1T2A3.jpg","38","restless",0.6,0.1,0.8,0.879068842070196,"false"
"image-keyboard-response",97,168303,"0.0-4.28-1.28","2bj4hnwl1uvy1op",696,"108.csv","","null","resources/maskTrios/BT2B.jpg","null","",NA,NA,NA,NA,""
"image-keyboard-response",98,169513,"0.0-4.28-2.28","2bj4hnwl1uvy1op",696,"108.csv","","null","resources/images/fishbone.png","null","",NA,NA,NA,NA,""
"image-keyboard-response",99,169970,"0.0-4.29-0.29","2bj4hnwl1uvy1op",696,"108.csv","","457","resources/trios/L1T2A3.jpg","37","restless",0.5,0.1,0.8,0.305708761121752,"true"
"image-keyboard-response",100,170374,"0.0-4.29-1.29","2bj4hnwl1uvy1op",696,"108.csv","","null","resources/maskTrios/L1BB.jpg","null","",NA,NA,NA,NA,""
"image-keyboard-response",101,171587,"0.0-4.29-2.29","2bj4hnwl1uvy1op",696,"108.csv","","null","resources/images/coin2.png","null","",NA,NA,NA,NA,""
"image-keyboard-response",102,172122,"0.0-4.30-0.30","2bj4hnwl1uvy1op",696,"108.csv","","535","resources/trios/L1T2A3.jpg","37","restless",0.5,0.1,0.8,0.0690710927566065,"true"
"image-keyboard-response",103,172534,"0.0-4.30-1.30","2bj4hnwl1uvy1op",696,"108.csv","","null","resources/maskTrios/L1BB.jpg","null","",NA,NA,NA,NA,""
"image-keyboard-response",104,173748,"0.0-4.30-2.30","2bj4hnwl1uvy1op",696,"108.csv","","null","resources/images/coin2.png","null","",NA,NA,NA,NA,""
"image-keyboard-response",105,174083,"0.0-4.31-0.31","2bj4hnwl1uvy1op",696,"108.csv","","334","resources/trios/L1T2A3.jpg","39","restless",0.5,0.1,0.8,0.425503818806395,"true"
"image-keyboard-response",106,174491,"0.0-4.31-1.31","2bj4hnwl1uvy1op",696,"108.csv","","null","resources/maskTrios/BBA3.jpg","null","",NA,NA,NA,NA,""
"image-keyboard-response",107,175704,"0.0-4.31-2.31","2bj4hnwl1uvy1op",696,"108.csv","","null","resources/images/coin2.png","null","",NA,NA,NA,NA,""
"image-keyboard-response",108,178019,"0.0-4.32-0.32","2bj4hnwl1uvy1op",696,"108.csv","","2314","resources/trios/L1T2A3.jpg","37","restless",0.5,0.1,0.8,0.611310579942062,"false"
"image-keyboard-response",109,178423,"0.0-4.32-1.32","2bj4hnwl1uvy1op",696,"108.csv","","null","resources/maskTrios/L1BB.jpg","null","",NA,NA,NA,NA,""
"image-keyboard-response",110,179627,"0.0-4.32-2.32","2bj4hnwl1uvy1op",696,"108.csv","","null","resources/images/fishbone.png","null","",NA,NA,NA,NA,""
"image-keyboard-response",111,179874,"0.0-4.33-0.33","2bj4hnwl1uvy1op",696,"108.csv","","246","resources/trios/L1T2A3.jpg","38","restless",0.5,0.1,0.8,0.352838988415702,"false"
"image-keyboard-response",112,180276,"0.0-4.33-1.33","2bj4hnwl1uvy1op",696,"108.csv","","null","resources/maskTrios/BT2B.jpg","null","",NA,NA,NA,NA,""
"image-keyboard-response",113,181492,"0.0-4.33-2.33","2bj4hnwl1uvy1op",696,"108.csv","","null","resources/images/fishbone.png","null","",NA,NA,NA,NA,""
"image-keyboard-response",114,181762,"0.0-4.34-0.34","2bj4hnwl1uvy1op",696,"108.csv","","270","resources/trios/L1T2A3.jpg","39","restless",0.5,0.1,0.7,0.349082447099341,"true"
"image-keyboard-response",115,182178,"0.0-4.34-1.34","2bj4hnwl1uvy1op",696,"108.csv","","null","resources/maskTrios/BBA3.jpg","null","",NA,NA,NA,NA,""
"image-keyboard-response",116,183394,"0.0-4.34-2.34","2bj4hnwl1uvy1op",696,"108.csv","","null","resources/images/coin2.png","null","",NA,NA,NA,NA,""
"image-keyboard-response",117,183818,"0.0-4.35-0.35","2bj4hnwl1uvy1op",696,"108.csv","","423","resources/trios/L1T2A3.jpg","39","restless",0.5,0.1,0.7,0.355499877903941,"true"
"image-keyboard-response",118,184220,"0.0-4.35-1.35","2bj4hnwl1uvy1op",696,"108.csv","","null","resources/maskTrios/BBA3.jpg","null","",NA,NA,NA,NA,""
"image-keyboard-response",119,185429,"0.0-4.35-2.35","2bj4hnwl1uvy1op",696,"108.csv","","null","resources/images/coin2.png","null","",NA,NA,NA,NA,""
"image-keyboard-response",120,187562,"0.0-4.36-0.36","2bj4hnwl1uvy1op",696,"108.csv","","2132","resources/trios/L1T2A3.jpg","38","restless",0.5,0.1,0.7,0.815643540479636,"false"
"image-keyboard-response",121,187977,"0.0-4.36-1.36","2bj4hnwl1uvy1op",696,"108.csv","","null","resources/maskTrios/BT2B.jpg","null","",NA,NA,NA,NA,""
"image-keyboard-response",122,189188,"0.0-4.36-2.36","2bj4hnwl1uvy1op",696,"108.csv","","null","resources/images/fishbone.png","null","",NA,NA,NA,NA,""
"image-keyboard-response",123,189722,"0.0-4.37-0.37","2bj4hnwl1uvy1op",696,"108.csv","","533","resources/trios/L1T2A3.jpg","37","restless",0.5,0.1,0.6,0.359977899554863,"true"
"image-keyboard-response",124,190135,"0.0-4.37-1.37","2bj4hnwl1uvy1op",696,"108.csv","","null","resources/maskTrios/L1BB.jpg","null","",NA,NA,NA,NA,""
"image-keyboard-response",125,191345,"0.0-4.37-2.37","2bj4hnwl1uvy1op",696,"108.csv","","null","resources/images/coin2.png","null","",NA,NA,NA,NA,""
"image-keyboard-response",126,191802,"0.0-4.38-0.38","2bj4hnwl1uvy1op",696,"108.csv","","456","resources/trios/L1T2A3.jpg","38","restless",0.5,0.1,0.6,0.392146126229372,"false"
"image-keyboard-response",127,192211,"0.0-4.38-1.38","2bj4hnwl1uvy1op",696,"108.csv","","null","resources/maskTrios/BT2B.jpg","null","",NA,NA,NA,NA,""
"image-keyboard-response",128,193424,"0.0-4.38-2.38","2bj4hnwl1uvy1op",696,"108.csv","","null","resources/images/fishbone.png","null","",NA,NA,NA,NA,""
"image-keyboard-response",129,193762,"0.0-4.39-0.39","2bj4hnwl1uvy1op",696,"108.csv","","337","resources/trios/L1T2A3.jpg","39","restless",0.5,0.1,0.5,0.379811594826411,"true"
"image-keyboard-response",130,194167,"0.0-4.39-1.39","2bj4hnwl1uvy1op",696,"108.csv","","null","resources/maskTrios/BBA3.jpg","null","",NA,NA,NA,NA,""
"image-keyboard-response",131,195377,"0.0-4.39-2.39","2bj4hnwl1uvy1op",696,"108.csv","","null","resources/images/coin2.png","null","",NA,NA,NA,NA,""
"image-keyboard-response",132,196810,"0.0-4.40-0.40","2bj4hnwl1uvy1op",696,"108.csv","","1432","resources/trios/L1T2A3.jpg","39","restless",0.5,0.1,0.5,0.617421445868554,"false"
"image-keyboard-response",133,197218,"0.0-4.40-1.40","2bj4hnwl1uvy1op",696,"108.csv","","null","resources/maskTrios/BBA3.jpg","null","",NA,NA,NA,NA,""
"image-keyboard-response",134,198432,"0.0-4.40-2.40","2bj4hnwl1uvy1op",696,"108.csv","","null","resources/images/fishbone.png","null","",NA,NA,NA,NA,""
"image-keyboard-response",135,198690,"0.0-4.41-0.41","2bj4hnwl1uvy1op",696,"108.csv","","258","resources/trios/L1T2A3.jpg","38","restless",0.5,0.1,0.5,0.686223791970658,"false"
"image-keyboard-response",136,199101,"0.0-4.41-1.41","2bj4hnwl1uvy1op",696,"108.csv","","null","resources/maskTrios/BT2B.jpg","null","",NA,NA,NA,NA,""
"image-keyboard-response",137,200303,"0.0-4.41-2.41","2bj4hnwl1uvy1op",696,"108.csv","","null","resources/images/fishbone.png","null","",NA,NA,NA,NA,""
"image-keyboard-response",138,200586,"0.0-4.42-0.42","2bj4hnwl1uvy1op",696,"108.csv","","282","resources/trios/L1T2A3.jpg","37","restless",0.6,0.2,0.5,0.154001118496967,"true"
"image-keyboard-response",139,200994,"0.0-4.42-1.42","2bj4hnwl1uvy1op",696,"108.csv","","null","resources/maskTrios/L1BB.jpg","null","",NA,NA,NA,NA,""
"image-keyboard-response",140,202211,"0.0-4.42-2.42","2bj4hnwl1uvy1op",696,"108.csv","","null","resources/images/coin2.png","null","",NA,NA,NA,NA,""
"image-keyboard-response",141,203466,"0.0-4.43-0.43","2bj4hnwl1uvy1op",696,"108.csv","","1255","resources/trios/L1T2A3.jpg","38","restless",0.6,0.2,0.5,0.884423212869551,"false"
"image-keyboard-response",142,203876,"0.0-4.43-1.43","2bj4hnwl1uvy1op",696,"108.csv","","null","resources/maskTrios/BT2B.jpg","null","",NA,NA,NA,NA,""
"image-keyboard-response",143,205080,"0.0-4.43-2.43","2bj4hnwl1uvy1op",696,"108.csv","","null","resources/images/fishbone.png","null","",NA,NA,NA,NA,""
"image-keyboard-response",144,205346,"0.0-4.44-0.44","2bj4hnwl1uvy1op",696,"108.csv","","265","resources/trios/L1T2A3.jpg","37","restless",0.6,0.2,0.4,0.359086328469301,"true"
"image-keyboard-response",145,205748,"0.0-4.44-1.44","2bj4hnwl1uvy1op",696,"108.csv","","null","resources/maskTrios/L1BB.jpg","null","",NA,NA,NA,NA,""
"image-keyboard-response",146,206963,"0.0-4.44-2.44","2bj4hnwl1uvy1op",696,"108.csv","","null","resources/images/coin2.png","null","",NA,NA,NA,NA,""
"image-keyboard-response",147,207410,"0.0-4.45-0.45","2bj4hnwl1uvy1op",696,"108.csv","","446","resources/trios/L1T2A3.jpg","38","restless",0.6,0.2,0.3,0.552589592680887,"false"
"image-keyboard-response",148,207823,"0.0-4.45-1.45","2bj4hnwl1uvy1op",696,"108.csv","","null","resources/maskTrios/BT2B.jpg","null","",NA,NA,NA,NA,""
"image-keyboard-response",149,209035,"0.0-4.45-2.45","2bj4hnwl1uvy1op",696,"108.csv","","null","resources/images/fishbone.png","null","",NA,NA,NA,NA,""
"image-keyboard-response",150,209410,"0.0-4.46-0.46","2bj4hnwl1uvy1op",696,"108.csv","","374","resources/trios/L1T2A3.jpg","37","restless",0.5,0.2,0.3,0.078979634858559,"true"
"image-keyboard-response",151,209822,"0.0-4.46-1.46","2bj4hnwl1uvy1op",696,"108.csv","","null","resources/maskTrios/L1BB.jpg","null","",NA,NA,NA,NA,""
"image-keyboard-response",152,211032,"0.0-4.46-2.46","2bj4hnwl1uvy1op",696,"108.csv","","null","resources/images/coin2.png","null","",NA,NA,NA,NA,""
"image-keyboard-response",153,211474,"0.0-4.47-0.47","2bj4hnwl1uvy1op",696,"108.csv","","442","resources/trios/L1T2A3.jpg","38","restless",0.5,0.2,0.3,0.303832127994896,"false"
"image-keyboard-response",154,211890,"0.0-4.47-1.47","2bj4hnwl1uvy1op",696,"108.csv","","null","resources/maskTrios/BT2B.jpg","null","",NA,NA,NA,NA,""
"image-keyboard-response",155,213105,"0.0-4.47-2.47","2bj4hnwl1uvy1op",696,"108.csv","","null","resources/images/fishbone.png","null","",NA,NA,NA,NA,""
"image-keyboard-response",156,213426,"0.0-4.48-0.48","2bj4hnwl1uvy1op",696,"108.csv","","321","resources/trios/L1T2A3.jpg","39","restless",0.5,0.2,0.3,0.64254901545634,"false"
"image-keyboard-response",157,213835,"0.0-4.48-1.48","2bj4hnwl1uvy1op",696,"108.csv","","null","resources/maskTrios/BBA3.jpg","null","",NA,NA,NA,NA,""
"image-keyboard-response",158,215037,"0.0-4.48-2.48","2bj4hnwl1uvy1op",696,"108.csv","","null","resources/images/fishbone.png","null","",NA,NA,NA,NA,""
"image-keyboard-response",159,215314,"0.0-4.49-0.49","2bj4hnwl1uvy1op",696,"108.csv","","277","resources/trios/L1T2A3.jpg","37","restless",0.5,0.2,0.3,0.488477352195707,"true"
"image-keyboard-response",160,215722,"0.0-4.49-1.49","2bj4hnwl1uvy1op",696,"108.csv","","null","resources/maskTrios/L1BB.jpg","null","",NA,NA,NA,NA,""
"image-keyboard-response",161,216937,"0.0-4.49-2.49","2bj4hnwl1uvy1op",696,"108.csv","","null","resources/images/coin2.png","null","",NA,NA,NA,NA,""
"image-keyboard-response",162,217771,"0.0-4.50-0.50","2bj4hnwl1uvy1op",696,"108.csv","","833","resources/trios/L1T2A3.jpg","37","restless",0.5,0.2,0.3,0.231049489904158,"true"
"image-keyboard-response",163,218184,"0.0-4.50-1.50","2bj4hnwl1uvy1op",696,"108.csv","","null","resources/maskTrios/L1BB.jpg","null","",NA,NA,NA,NA,""
"image-keyboard-response",164,219397,"0.0-4.50-2.50","2bj4hnwl1uvy1op",696,"108.csv","","null","resources/images/coin2.png","null","",NA,NA,NA,NA,""
"image-keyboard-response",165,220210,"0.0-4.51-0.51","2bj4hnwl1uvy1op",696,"108.csv","","812","resources/trios/L1T2A3.jpg","38","restless",0.5,0.2,0.3,0.17933822355216,"true"
"image-keyboard-response",166,220612,"0.0-4.51-1.51","2bj4hnwl1uvy1op",696,"108.csv","","null","resources/maskTrios/BT2B.jpg","null","",NA,NA,NA,NA,""
"image-keyboard-response",167,221828,"0.0-4.51-2.51","2bj4hnwl1uvy1op",696,"108.csv","","null","resources/images/coin2.png","null","",NA,NA,NA,NA,""
"image-keyboard-response",168,222186,"0.0-4.52-0.52","2bj4hnwl1uvy1op",696,"108.csv","","358","resources/trios/L1T2A3.jpg","38","restless",0.5,0.3,0.3,0.812300089053516,"false"
"image-keyboard-response",169,222594,"0.0-4.52-1.52","2bj4hnwl1uvy1op",696,"108.csv","","null","resources/maskTrios/BT2B.jpg","null","",NA,NA,NA,NA,""
"image-keyboard-response",170,223798,"0.0-4.52-2.52","2bj4hnwl1uvy1op",696,"108.csv","","null","resources/images/fishbone.png","null","",NA,NA,NA,NA,""
"image-keyboard-response",171,224290,"0.0-4.53-0.53","2bj4hnwl1uvy1op",696,"108.csv","","490","resources/trios/L1T2A3.jpg","39","restless",0.5,0.3,0.3,0.970378353958982,"false"
"image-keyboard-response",172,224695,"0.0-4.53-1.53","2bj4hnwl1uvy1op",696,"108.csv","","null","resources/maskTrios/BBA3.jpg","null","",NA,NA,NA,NA,""
"image-keyboard-response",173,225902,"0.0-4.53-2.53","2bj4hnwl1uvy1op",696,"108.csv","","null","resources/images/fishbone.png","null","",NA,NA,NA,NA,""
"image-keyboard-response",174,226170,"0.0-4.54-0.54","2bj4hnwl1uvy1op",696,"108.csv","","267","resources/trios/L1T2A3.jpg","37","restless",0.5,0.3,0.3,0.585087567923223,"false"
"image-keyboard-response",175,226575,"0.0-4.54-1.54","2bj4hnwl1uvy1op",696,"108.csv","","null","resources/maskTrios/L1BB.jpg","null","",NA,NA,NA,NA,""
"image-keyboard-response",176,227787,"0.0-4.54-2.54","2bj4hnwl1uvy1op",696,"108.csv","","null","resources/images/fishbone.png","null","",NA,NA,NA,NA,""
"image-keyboard-response",177,228138,"0.0-4.55-0.55","2bj4hnwl1uvy1op",696,"108.csv","","351","resources/trios/L1T2A3.jpg","38","restless",0.6,0.3,0.3,0.767608793336982,"false"
"image-keyboard-response",178,228548,"0.0-4.55-1.55","2bj4hnwl1uvy1op",696,"108.csv","","null","resources/maskTrios/BT2B.jpg","null","",NA,NA,NA,NA,""
"image-keyboard-response",179,229750,"0.0-4.55-2.55","2bj4hnwl1uvy1op",696,"108.csv","","null","resources/images/fishbone.png","null","",NA,NA,NA,NA,""
"image-keyboard-response",180,230186,"0.0-4.56-0.56","2bj4hnwl1uvy1op",696,"108.csv","","435","resources/trios/L1T2A3.jpg","39","restless",0.7,0.3,0.3,0.0675794325415577,"true"
"image-keyboard-response",181,230601,"0.0-4.56-1.56","2bj4hnwl1uvy1op",696,"108.csv","","null","resources/maskTrios/BBA3.jpg","null","",NA,NA,NA,NA,""
"image-keyboard-response",182,231816,"0.0-4.56-2.56","2bj4hnwl1uvy1op",696,"108.csv","","null","resources/images/coin2.png","null","",NA,NA,NA,NA,""
"image-keyboard-response",183,232122,"0.0-4.57-0.57","2bj4hnwl1uvy1op",696,"108.csv","","304","resources/trios/L1T2A3.jpg","39","restless",0.7,0.4,0.3,0.521838826531714,"false"
"image-keyboard-response",184,232533,"0.0-4.57-1.57","2bj4hnwl1uvy1op",696,"108.csv","","null","resources/maskTrios/BBA3.jpg","null","",NA,NA,NA,NA,""
"image-keyboard-response",185,233739,"0.0-4.57-2.57","2bj4hnwl1uvy1op",696,"108.csv","","null","resources/images/fishbone.png","null","",NA,NA,NA,NA,""
"image-keyboard-response",186,234059,"0.0-4.58-0.58","2bj4hnwl1uvy1op",696,"108.csv","","318","resources/trios/L1T2A3.jpg","38","restless",0.7,0.4,0.3,0.351069478529336,"true"
"image-keyboard-response",187,234464,"0.0-4.58-1.58","2bj4hnwl1uvy1op",696,"108.csv","","null","resources/maskTrios/BT2B.jpg","null","",NA,NA,NA,NA,""
"image-keyboard-response",188,235673,"0.0-4.58-2.58","2bj4hnwl1uvy1op",696,"108.csv","","null","resources/images/coin2.png","null","",NA,NA,NA,NA,""
"image-keyboard-response",189,235954,"0.0-4.59-0.59","2bj4hnwl1uvy1op",696,"108.csv","","281","resources/trios/L1T2A3.jpg","38","restless",0.7,0.4,0.3,0.639744910047722,"false"
"image-keyboard-response",190,236359,"0.0-4.59-1.59","2bj4hnwl1uvy1op",696,"108.csv","","null","resources/maskTrios/BT2B.jpg","null","",NA,NA,NA,NA,""
"image-keyboard-response",191,237567,"0.0-4.59-2.59","2bj4hnwl1uvy1op",696,"108.csv","","null","resources/images/fishbone.png","null","",NA,NA,NA,NA,""
"image-keyboard-response",192,237890,"0.0-4.60-0.60","2bj4hnwl1uvy1op",696,"108.csv","","323","resources/trios/L1T2A3.jpg","37","restless",0.7,0.4,0.3,0.176905692657528,"true"
"image-keyboard-response",193,238299,"0.0-4.60-1.60","2bj4hnwl1uvy1op",696,"108.csv","","null","resources/maskTrios/L1BB.jpg","null","",NA,NA,NA,NA,""
"image-keyboard-response",194,239513,"0.0-4.60-2.60","2bj4hnwl1uvy1op",696,"108.csv","","null","resources/images/coin2.png","null","",NA,NA,NA,NA,""
"image-keyboard-response",195,239954,"0.0-4.61-0.61","2bj4hnwl1uvy1op",696,"108.csv","","440","resources/trios/L1T2A3.jpg","37","restless",0.7,0.4,0.3,0.380534644055413,"true"
"image-keyboard-response",196,240359,"0.0-4.61-1.61","2bj4hnwl1uvy1op",696,"108.csv","","null","resources/maskTrios/L1BB.jpg","null","",NA,NA,NA,NA,""
"image-keyboard-response",197,241561,"0.0-4.61-2.61","2bj4hnwl1uvy1op",696,"108.csv","","null","resources/images/coin2.png","null","",NA,NA,NA,NA,""
"image-keyboard-response",198,242034,"0.0-4.62-0.62","2bj4hnwl1uvy1op",696,"108.csv","","473","resources/trios/L1T2A3.jpg","38","restless",0.7,0.4,0.3,0.157857820298425,"true"
"image-keyboard-response",199,242438,"0.0-4.62-1.62","2bj4hnwl1uvy1op",696,"108.csv","","null","resources/maskTrios/BT2B.jpg","null","",NA,NA,NA,NA,""
"image-keyboard-response",200,243652,"0.0-4.62-2.62","2bj4hnwl1uvy1op",696,"108.csv","","null","resources/images/coin2.png","null","",NA,NA,NA,NA,""
"image-keyboard-response",201,244291,"0.0-4.63-0.63","2bj4hnwl1uvy1op",696,"108.csv","","637","resources/trios/L1T2A3.jpg","37","restless",0.7,0.4,0.3,0.394289719840195,"true"
"image-keyboard-response",202,244695,"0.0-4.63-1.63","2bj4hnwl1uvy1op",696,"108.csv","","null","resources/maskTrios/L1BB.jpg","null","",NA,NA,NA,NA,""
"image-keyboard-response",203,245906,"0.0-4.63-2.63","2bj4hnwl1uvy1op",696,"108.csv","","null","resources/images/coin2.png","null","",NA,NA,NA,NA,""
"image-keyboard-response",204,247019,"0.0-4.64-0.64","2bj4hnwl1uvy1op",696,"108.csv","","1112","resources/trios/L1T2A3.jpg","38","restless",0.7,0.4,0.3,0.645449356752144,"false"
"image-keyboard-response",205,247431,"0.0-4.64-1.64","2bj4hnwl1uvy1op",696,"108.csv","","null","resources/maskTrios/BT2B.jpg","null","",NA,NA,NA,NA,""
"image-keyboard-response",206,248632,"0.0-4.64-2.64","2bj4hnwl1uvy1op",696,"108.csv","","null","resources/images/fishbone.png","null","",NA,NA,NA,NA,""
"image-keyboard-response",207,248914,"0.0-4.65-0.65","2bj4hnwl1uvy1op",696,"108.csv","","283","resources/trios/L1T2A3.jpg","39","restless",0.7,0.4,0.3,0.00568295748733894,"true"
"image-keyboard-response",208,249318,"0.0-4.65-1.65","2bj4hnwl1uvy1op",696,"108.csv","","null","resources/maskTrios/BBA3.jpg","null","",NA,NA,NA,NA,""
"image-keyboard-response",209,250530,"0.0-4.65-2.65","2bj4hnwl1uvy1op",696,"108.csv","","null","resources/images/coin2.png","null","",NA,NA,NA,NA,""
"image-keyboard-response",210,250802,"0.0-4.66-0.66","2bj4hnwl1uvy1op",696,"108.csv","","271","resources/trios/L1T2A3.jpg","37","restless",0.7,0.5,0.3,0.0607133810162199,"true"
"image-keyboard-response",211,251213,"0.0-4.66-1.66","2bj4hnwl1uvy1op",696,"108.csv","","null","resources/maskTrios/L1BB.jpg","null","",NA,NA,NA,NA,""
"image-keyboard-response",212,252422,"0.0-4.66-2.66","2bj4hnwl1uvy1op",696,"108.csv","","null","resources/images/coin2.png","null","",NA,NA,NA,NA,""
"image-keyboard-response",213,252738,"0.0-4.67-0.67","2bj4hnwl1uvy1op",696,"108.csv","","316","resources/trios/L1T2A3.jpg","39","restless",0.7,0.5,0.3,0.202955771749438,"true"
"image-keyboard-response",214,253149,"0.0-4.67-1.67","2bj4hnwl1uvy1op",696,"108.csv","","null","resources/maskTrios/BBA3.jpg","null","",NA,NA,NA,NA,""
"image-keyboard-response",215,254363,"0.0-4.67-2.67","2bj4hnwl1uvy1op",696,"108.csv","","null","resources/images/coin2.png","null","",NA,NA,NA,NA,""
"image-keyboard-response",216,255363,"0.0-4.68-0.68","2bj4hnwl1uvy1op",696,"108.csv","","1000","resources/trios/L1T2A3.jpg","39","restless",0.7,0.5,0.3,0.590966463776556,"false"
"image-keyboard-response",217,255766,"0.0-4.68-1.68","2bj4hnwl1uvy1op",696,"108.csv","","null","resources/maskTrios/BBA3.jpg","null","",NA,NA,NA,NA,""
"image-keyboard-response",218,256975,"0.0-4.68-2.68","2bj4hnwl1uvy1op",696,"108.csv","","null","resources/images/fishbone.png","null","",NA,NA,NA,NA,""
"image-keyboard-response",219,257234,"0.0-4.69-0.69","2bj4hnwl1uvy1op",696,"108.csv","","259","resources/trios/L1T2A3.jpg","38","restless",0.7,0.5,0.3,0.424801551172775,"true"
"image-keyboard-response",220,257649,"0.0-4.69-1.69","2bj4hnwl1uvy1op",696,"108.csv","","null","resources/maskTrios/BT2B.jpg","null","",NA,NA,NA,NA,""
"image-keyboard-response",221,258865,"0.0-4.69-2.69","2bj4hnwl1uvy1op",696,"108.csv","","null","resources/images/coin2.png","null","",NA,NA,NA,NA,""
"image-keyboard-response",222,259162,"0.0-4.70-0.70","2bj4hnwl1uvy1op",696,"108.csv","","296","resources/trios/L1T2A3.jpg","38","restless",0.6,0.5,0.3,0.604237518235944,"false"
"image-keyboard-response",223,259566,"0.0-4.70-1.70","2bj4hnwl1uvy1op",696,"108.csv","","null","resources/maskTrios/BT2B.jpg","null","",NA,NA,NA,NA,""
"image-keyboard-response",224,260776,"0.0-4.70-2.70","2bj4hnwl1uvy1op",696,"108.csv","","null","resources/images/fishbone.png","null","",NA,NA,NA,NA,""
"image-keyboard-response",225,261043,"0.0-4.71-0.71","2bj4hnwl1uvy1op",696,"108.csv","","266","resources/trios/L1T2A3.jpg","39","restless",0.6,0.5,0.3,0.200890192907268,"true"
"image-keyboard-response",226,261458,"0.0-4.71-1.71","2bj4hnwl1uvy1op",696,"108.csv","","null","resources/maskTrios/BBA3.jpg","null","",NA,NA,NA,NA,""
"image-keyboard-response",227,262671,"0.0-4.71-2.71","2bj4hnwl1uvy1op",696,"108.csv","","null","resources/images/coin2.png","null","",NA,NA,NA,NA,""
"image-keyboard-response",228,263443,"0.0-4.72-0.72","2bj4hnwl1uvy1op",696,"108.csv","","770","resources/trios/L1T2A3.jpg","37","restless",0.7,0.5,0.2,0.869220177085395,"false"
"image-keyboard-response",229,263854,"0.0-4.72-1.72","2bj4hnwl1uvy1op",696,"108.csv","","null","resources/maskTrios/L1BB.jpg","null","",NA,NA,NA,NA,""
"image-keyboard-response",230,265058,"0.0-4.72-2.72","2bj4hnwl1uvy1op",696,"108.csv","","null","resources/images/fishbone.png","null","",NA,NA,NA,NA,""
"image-keyboard-response",231,265451,"0.0-4.73-0.73","2bj4hnwl1uvy1op",696,"108.csv","","392","resources/trios/L1T2A3.jpg","39","restless",0.7,0.5,0.3,0.784149247367801,"false"
"image-keyboard-response",232,265854,"0.0-4.73-1.73","2bj4hnwl1uvy1op",696,"108.csv","","null","resources/maskTrios/BBA3.jpg","null","",NA,NA,NA,NA,""
"image-keyboard-response",233,267056,"0.0-4.73-2.73","2bj4hnwl1uvy1op",696,"108.csv","","null","resources/images/fishbone.png","null","",NA,NA,NA,NA,""
"image-keyboard-response",234,267403,"0.0-4.74-0.74","2bj4hnwl1uvy1op",696,"108.csv","","346","resources/trios/L1T2A3.jpg","38","restless",0.7,0.5,0.3,0.735964655747527,"false"
"image-keyboard-response",235,267818,"0.0-4.74-1.74","2bj4hnwl1uvy1op",696,"108.csv","","null","resources/maskTrios/BT2B.jpg","null","",NA,NA,NA,NA,""
"image-keyboard-response",236,269030,"0.0-4.74-2.74","2bj4hnwl1uvy1op",696,"108.csv","","null","resources/images/fishbone.png","null","",NA,NA,NA,NA,""
"image-keyboard-response",237,269378,"0.0-4.75-0.75","2bj4hnwl1uvy1op",696,"108.csv","","347","resources/trios/L1T2A3.jpg","37","restless",0.7,0.5,0.3,0.597351716624249,"true"
"image-keyboard-response",238,269780,"0.0-4.75-1.75","2bj4hnwl1uvy1op",696,"108.csv","","null","resources/maskTrios/L1BB.jpg","null","",NA,NA,NA,NA,""
"image-keyboard-response",239,270990,"0.0-4.75-2.75","2bj4hnwl1uvy1op",696,"108.csv","","null","resources/images/coin2.png","null","",NA,NA,NA,NA,""
"image-keyboard-response",240,271298,"0.0-4.76-0.76","2bj4hnwl1uvy1op",696,"108.csv","","308","resources/trios/L1T2A3.jpg","37","restless",0.7,0.5,0.3,0.19803654404573,"true"
"image-keyboard-response",241,271703,"0.0-4.76-1.76","2bj4hnwl1uvy1op",696,"108.csv","","null","resources/maskTrios/L1BB.jpg","null","",NA,NA,NA,NA,""
"image-keyboard-response",242,272915,"0.0-4.76-2.76","2bj4hnwl1uvy1op",696,"108.csv","","null","resources/images/coin2.png","null","",NA,NA,NA,NA,""
"image-keyboard-response",243,273562,"0.0-4.77-0.77","2bj4hnwl1uvy1op",696,"108.csv","","647","resources/trios/L1T2A3.jpg","37","restless",0.6,0.5,0.3,0.0720000393737892,"true"
"image-keyboard-response",244,273970,"0.0-4.77-1.77","2bj4hnwl1uvy1op",696,"108.csv","","null","resources/maskTrios/L1BB.jpg","null","",NA,NA,NA,NA,""
"image-keyboard-response",245,275185,"0.0-4.77-2.77","2bj4hnwl1uvy1op",696,"108.csv","","null","resources/images/coin2.png","null","",NA,NA,NA,NA,""
"image-keyboard-response",246,275531,"0.0-4.78-0.78","2bj4hnwl1uvy1op",696,"108.csv","","345","resources/trios/L1T2A3.jpg","39","restless",0.6,0.5,0.3,0.364813307482367,"false"
"image-keyboard-response",247,275935,"0.0-4.78-1.78","2bj4hnwl1uvy1op",696,"108.csv","","null","resources/maskTrios/BBA3.jpg","null","",NA,NA,NA,NA,""
"image-keyboard-response",248,277147,"0.0-4.78-2.78","2bj4hnwl1uvy1op",696,"108.csv","","null","resources/images/fishbone.png","null","",NA,NA,NA,NA,""
"image-keyboard-response",249,277443,"0.0-4.79-0.79","2bj4hnwl1uvy1op",696,"108.csv","","295","resources/trios/L1T2A3.jpg","38","restless",0.6,0.5,0.3,0.758465481058302,"false"
"image-keyboard-response",250,277845,"0.0-4.79-1.79","2bj4hnwl1uvy1op",696,"108.csv","","null","resources/maskTrios/BT2B.jpg","null","",NA,NA,NA,NA,""
"image-keyboard-response",251,279060,"0.0-4.79-2.79","2bj4hnwl1uvy1op",696,"108.csv","","null","resources/images/fishbone.png","null","",NA,NA,NA,NA,""
"image-keyboard-response",252,279418,"0.0-4.80-0.80","2bj4hnwl1uvy1op",696,"108.csv","","358","resources/trios/L1T2A3.jpg","39","restless",0.5,0.5,0.3,0.476241311213194,"false"
"image-keyboard-response",253,279824,"0.0-4.80-1.80","2bj4hnwl1uvy1op",696,"108.csv","","null","resources/maskTrios/BBA3.jpg","null","",NA,NA,NA,NA,""
"image-keyboard-response",254,281033,"0.0-4.80-2.80","2bj4hnwl1uvy1op",696,"108.csv","","null","resources/images/fishbone.png","null","",NA,NA,NA,NA,""
"image-keyboard-response",255,281698,"0.0-4.81-0.81","2bj4hnwl1uvy1op",696,"108.csv","","664","resources/trios/L1T2A3.jpg","37","restless",0.5,0.5,0.3,0.290842574998168,"true"
"image-keyboard-response",256,282101,"0.0-4.81-1.81","2bj4hnwl1uvy1op",696,"108.csv","","null","resources/maskTrios/L1BB.jpg","null","",NA,NA,NA,NA,""
"image-keyboard-response",257,283311,"0.0-4.81-2.81","2bj4hnwl1uvy1op",696,"108.csv","","null","resources/images/coin2.png","null","",NA,NA,NA,NA,""
"image-keyboard-response",258,283786,"0.0-4.82-0.82","2bj4hnwl1uvy1op",696,"108.csv","","475","resources/trios/L1T2A3.jpg","37","restless",0.5,0.5,0.3,0.211656900092938,"true"
"image-keyboard-response",259,284198,"0.0-4.82-1.82","2bj4hnwl1uvy1op",696,"108.csv","","null","resources/maskTrios/L1BB.jpg","null","",NA,NA,NA,NA,""
"image-keyboard-response",260,285412,"0.0-4.82-2.82","2bj4hnwl1uvy1op",696,"108.csv","","null","resources/images/coin2.png","null","",NA,NA,NA,NA,""
"image-keyboard-response",261,285723,"0.0-4.83-0.83","2bj4hnwl1uvy1op",696,"108.csv","","311","resources/trios/L1T2A3.jpg","38","restless",0.5,0.5,0.3,0.930748289395296,"false"
"image-keyboard-response",262,286127,"0.0-4.83-1.83","2bj4hnwl1uvy1op",696,"108.csv","","null","resources/maskTrios/BT2B.jpg","null","",NA,NA,NA,NA,""
"image-keyboard-response",263,287340,"0.0-4.83-2.83","2bj4hnwl1uvy1op",696,"108.csv","","null","resources/images/fishbone.png","null","",NA,NA,NA,NA,""
"image-keyboard-response",264,288346,"0.0-4.84-0.84","2bj4hnwl1uvy1op",696,"108.csv","","1005","resources/trios/L1T2A3.jpg","37","restless",0.5,0.5,0.3,0.0774674646935374,"true"
"image-keyboard-response",265,288753,"0.0-4.84-1.84","2bj4hnwl1uvy1op",696,"108.csv","","null","resources/maskTrios/L1BB.jpg","null","",NA,NA,NA,NA,""
"image-keyboard-response",266,289966,"0.0-4.84-2.84","2bj4hnwl1uvy1op",696,"108.csv","","null","resources/images/coin2.png","null","",NA,NA,NA,NA,""
"image-keyboard-response",267,290546,"0.0-4.85-0.85","2bj4hnwl1uvy1op",696,"108.csv","","580","resources/trios/L1T2A3.jpg","39","restless",0.5,0.5,0.3,0.464243707953475,"false"
"image-keyboard-response",268,290950,"0.0-4.85-1.85","2bj4hnwl1uvy1op",696,"108.csv","","null","resources/maskTrios/BBA3.jpg","null","",NA,NA,NA,NA,""
"image-keyboard-response",269,292160,"0.0-4.85-2.85","2bj4hnwl1uvy1op",696,"108.csv","","null","resources/images/fishbone.png","null","",NA,NA,NA,NA,""
"image-keyboard-response",270,292482,"0.0-4.86-0.86","2bj4hnwl1uvy1op",696,"108.csv","","322","resources/trios/L1T2A3.jpg","37","restless",0.5,0.5,0.3,0.492139454264885,"true"
"image-keyboard-response",271,292889,"0.0-4.86-1.86","2bj4hnwl1uvy1op",696,"108.csv","","null","resources/maskTrios/L1BB.jpg","null","",NA,NA,NA,NA,""
"image-keyboard-response",272,294090,"0.0-4.86-2.86","2bj4hnwl1uvy1op",696,"108.csv","","null","resources/images/coin2.png","null","",NA,NA,NA,NA,""
"image-keyboard-response",273,294698,"0.0-4.87-0.87","2bj4hnwl1uvy1op",696,"108.csv","","606","resources/trios/L1T2A3.jpg","38","restless",0.5,0.5,0.3,0.303521455783752,"true"
"image-keyboard-response",274,295100,"0.0-4.87-1.87","2bj4hnwl1uvy1op",696,"108.csv","","null","resources/maskTrios/BT2B.jpg","null","",NA,NA,NA,NA,""
"image-keyboard-response",275,296313,"0.0-4.87-2.87","2bj4hnwl1uvy1op",696,"108.csv","","null","resources/images/coin2.png","null","",NA,NA,NA,NA,""
"image-keyboard-response",276,296659,"0.0-4.88-0.88","2bj4hnwl1uvy1op",696,"108.csv","","344","resources/trios/L1T2A3.jpg","38","restless",0.4,0.5,0.3,0.36059014761223,"true"
"image-keyboard-response",277,297072,"0.0-4.88-1.88","2bj4hnwl1uvy1op",696,"108.csv","","null","resources/maskTrios/BT2B.jpg","null","",NA,NA,NA,NA,""
"image-keyboard-response",278,298286,"0.0-4.88-2.88","2bj4hnwl1uvy1op",696,"108.csv","","null","resources/images/coin2.png","null","",NA,NA,NA,NA,""
"image-keyboard-response",279,299339,"0.0-4.89-0.89","2bj4hnwl1uvy1op",696,"108.csv","","1051","resources/trios/L1T2A3.jpg","37","restless",0.4,0.5,0.3,0.149864327575636,"true"
"image-keyboard-response",280,299742,"0.0-4.89-1.89","2bj4hnwl1uvy1op",696,"108.csv","","null","resources/maskTrios/L1BB.jpg","null","",NA,NA,NA,NA,""
"image-keyboard-response",281,300951,"0.0-4.89-2.89","2bj4hnwl1uvy1op",696,"108.csv","","null","resources/images/coin2.png","null","",NA,NA,NA,NA,""
"image-keyboard-response",282,301259,"0.0-4.90-0.90","2bj4hnwl1uvy1op",696,"108.csv","","306","resources/trios/L1T2A3.jpg","39","restless",0.4,0.5,0.3,0.609406100714452,"false"
"image-keyboard-response",283,301666,"0.0-4.90-1.90","2bj4hnwl1uvy1op",696,"108.csv","","null","resources/maskTrios/BBA3.jpg","null","",NA,NA,NA,NA,""
"image-keyboard-response",284,302876,"0.0-4.90-2.90","2bj4hnwl1uvy1op",696,"108.csv","","null","resources/images/fishbone.png","null","",NA,NA,NA,NA,""
"image-keyboard-response",285,303226,"0.0-4.91-0.91","2bj4hnwl1uvy1op",696,"108.csv","","349","resources/trios/L1T2A3.jpg","37","restless",0.4,0.5,0.3,0.186571354586351,"true"
"image-keyboard-response",286,303638,"0.0-4.91-1.91","2bj4hnwl1uvy1op",696,"108.csv","","null","resources/maskTrios/L1BB.jpg","null","",NA,NA,NA,NA,""
"image-keyboard-response",287,304853,"0.0-4.91-2.91","2bj4hnwl1uvy1op",696,"108.csv","","null","resources/images/coin2.png","null","",NA,NA,NA,NA,""
"image-keyboard-response",288,305794,"0.0-4.92-0.92","2bj4hnwl1uvy1op",696,"108.csv","","941","resources/trios/L1T2A3.jpg","38","restless",0.4,0.5,0.3,0.41819027267701,"true"
"image-keyboard-response",289,306202,"0.0-4.92-1.92","2bj4hnwl1uvy1op",696,"108.csv","","null","resources/maskTrios/BT2B.jpg","null","",NA,NA,NA,NA,""
"image-keyboard-response",290,307405,"0.0-4.92-2.92","2bj4hnwl1uvy1op",696,"108.csv","","null","resources/images/coin2.png","null","",NA,NA,NA,NA,""
"image-keyboard-response",291,308443,"0.0-4.93-0.93","2bj4hnwl1uvy1op",696,"108.csv","","1036","resources/trios/L1T2A3.jpg","37","restless",0.4,0.5,0.2,0.168236355836533,"true"
"image-keyboard-response",292,308851,"0.0-4.93-1.93","2bj4hnwl1uvy1op",696,"108.csv","","null","resources/maskTrios/L1BB.jpg","null","",NA,NA,NA,NA,""
"image-keyboard-response",293,310065,"0.0-4.93-2.93","2bj4hnwl1uvy1op",696,"108.csv","","null","resources/images/coin2.png","null","",NA,NA,NA,NA,""
"image-keyboard-response",294,310699,"0.0-4.94-0.94","2bj4hnwl1uvy1op",696,"108.csv","","634","resources/trios/L1T2A3.jpg","39","restless",0.4,0.4,0.2,0.812998581553336,"false"
"image-keyboard-response",295,311108,"0.0-4.94-1.94","2bj4hnwl1uvy1op",696,"108.csv","","null","resources/maskTrios/BBA3.jpg","null","",NA,NA,NA,NA,""
"image-keyboard-response",296,312320,"0.0-4.94-2.94","2bj4hnwl1uvy1op",696,"108.csv","","null","resources/images/fishbone.png","null","",NA,NA,NA,NA,""
"image-keyboard-response",297,312626,"0.0-4.95-0.95","2bj4hnwl1uvy1op",696,"108.csv","","306","resources/trios/L1T2A3.jpg","38","restless",0.4,0.4,0.2,0.639965537629713,"false"
"image-keyboard-response",298,313032,"0.0-4.95-1.95","2bj4hnwl1uvy1op",696,"108.csv","","null","resources/maskTrios/BT2B.jpg","null","",NA,NA,NA,NA,""
"image-keyboard-response",299,314245,"0.0-4.95-2.95","2bj4hnwl1uvy1op",696,"108.csv","","null","resources/images/fishbone.png","null","",NA,NA,NA,NA,""
"image-keyboard-response",300,314506,"0.0-4.96-0.96","2bj4hnwl1uvy1op",696,"108.csv","","261","resources/trios/L1T2A3.jpg","37","restless",0.4,0.4,0.2,0.832733430219801,"false"
"image-keyboard-response",301,314908,"0.0-4.96-1.96","2bj4hnwl1uvy1op",696,"108.csv","","null","resources/maskTrios/L1BB.jpg","null","",NA,NA,NA,NA,""
"image-keyboard-response",302,316118,"0.0-4.96-2.96","2bj4hnwl1uvy1op",696,"108.csv","","null","resources/images/fishbone.png","null","",NA,NA,NA,NA,""
"image-keyboard-response",303,316498,"0.0-4.97-0.97","2bj4hnwl1uvy1op",696,"108.csv","","379","resources/trios/L1T2A3.jpg","38","restless",0.5,0.5,0.2,0.577151593455742,"false"
"image-keyboard-response",304,316911,"0.0-4.97-1.97","2bj4hnwl1uvy1op",696,"108.csv","","null","resources/maskTrios/BT2B.jpg","null","",NA,NA,NA,NA,""
"image-keyboard-response",305,318119,"0.0-4.97-2.97","2bj4hnwl1uvy1op",696,"108.csv","","null","resources/images/fishbone.png","null","",NA,NA,NA,NA,""
"image-keyboard-response",306,318394,"0.0-4.98-0.98","2bj4hnwl1uvy1op",696,"108.csv","","274","resources/trios/L1T2A3.jpg","39","restless",0.5,0.5,0.2,0.800876514746564,"false"
"image-keyboard-response",307,318804,"0.0-4.98-1.98","2bj4hnwl1uvy1op",696,"108.csv","","null","resources/maskTrios/BBA3.jpg","null","",NA,NA,NA,NA,""
"image-keyboard-response",308,320005,"0.0-4.98-2.98","2bj4hnwl1uvy1op",696,"108.csv","","null","resources/images/fishbone.png","null","",NA,NA,NA,NA,""
"image-keyboard-response",309,320275,"0.0-4.99-0.99","2bj4hnwl1uvy1op",696,"108.csv","","270","resources/trios/L1T2A3.jpg","37","restless",0.5,0.5,0.2,0.920314881063416,"false"
"image-keyboard-response",310,320688,"0.0-4.99-1.99","2bj4hnwl1uvy1op",696,"108.csv","","null","resources/maskTrios/L1BB.jpg","null","",NA,NA,NA,NA,""
"image-keyboard-response",311,321899,"0.0-4.99-2.99","2bj4hnwl1uvy1op",696,"108.csv","","null","resources/images/fishbone.png","null","",NA,NA,NA,NA,""
"image-keyboard-response",312,322738,"0.0-4.100-0.100","2bj4hnwl1uvy1op",696,"108.csv","","838","resources/trios/L1T2A3.jpg","37","restless",0.5,0.5,0.1,0.0277421308746848,"true"
"image-keyboard-response",313,323144,"0.0-4.100-1.100","2bj4hnwl1uvy1op",696,"108.csv","","null","resources/maskTrios/L1BB.jpg","null","",NA,NA,NA,NA,""
"image-keyboard-response",314,324358,"0.0-4.100-2.100","2bj4hnwl1uvy1op",696,"108.csv","","null","resources/images/coin2.png","null","",NA,NA,NA,NA,""
"image-keyboard-response",315,324715,"0.0-4.101-0.101","2bj4hnwl1uvy1op",696,"108.csv","","356","resources/trios/L1T2A3.jpg","38","restless",0.5,0.5,0.1,0.0784132272861375,"true"
"image-keyboard-response",316,325117,"0.0-4.101-1.101","2bj4hnwl1uvy1op",696,"108.csv","","null","resources/maskTrios/BT2B.jpg","null","",NA,NA,NA,NA,""
"image-keyboard-response",317,326332,"0.0-4.101-2.101","2bj4hnwl1uvy1op",696,"108.csv","","null","resources/images/coin2.png","null","",NA,NA,NA,NA,""
"image-keyboard-response",318,326834,"0.0-4.102-0.102","2bj4hnwl1uvy1op",696,"108.csv","","501","resources/trios/L1T2A3.jpg","37","restless",0.5,0.5,0.1,0.383472969708066,"true"
"image-keyboard-response",319,327246,"0.0-4.102-1.102","2bj4hnwl1uvy1op",696,"108.csv","","null","resources/maskTrios/L1BB.jpg","null","",NA,NA,NA,NA,""
"image-keyboard-response",320,328460,"0.0-4.102-2.102","2bj4hnwl1uvy1op",696,"108.csv","","null","resources/images/coin2.png","null","",NA,NA,NA,NA,""
"image-keyboard-response",321,328835,"0.0-4.103-0.103","2bj4hnwl1uvy1op",696,"108.csv","","373","resources/trios/L1T2A3.jpg","37","restless",0.5,0.5,0.1,0.0767993713170385,"true"
"image-keyboard-response",322,329239,"0.0-4.103-1.103","2bj4hnwl1uvy1op",696,"108.csv","","null","resources/maskTrios/L1BB.jpg","null","",NA,NA,NA,NA,""
"image-keyboard-response",323,330451,"0.0-4.103-2.103","2bj4hnwl1uvy1op",696,"108.csv","","null","resources/images/coin2.png","null","",NA,NA,NA,NA,""
"image-keyboard-response",324,330859,"0.0-4.104-0.104","2bj4hnwl1uvy1op",696,"108.csv","","407","resources/trios/L1T2A3.jpg","38","restless",0.5,0.5,0.1,0.623717384598608,"false"
"image-keyboard-response",325,331274,"0.0-4.104-1.104","2bj4hnwl1uvy1op",696,"108.csv","","null","resources/maskTrios/BT2B.jpg","null","",NA,NA,NA,NA,""
"image-keyboard-response",326,332488,"0.0-4.104-2.104","2bj4hnwl1uvy1op",696,"108.csv","","null","resources/images/fishbone.png","null","",NA,NA,NA,NA,""
"image-keyboard-response",327,332754,"0.0-4.105-0.105","2bj4hnwl1uvy1op",696,"108.csv","","265","resources/trios/L1T2A3.jpg","37","restless",0.6,0.5,0.1,0.787550052948164,"false"
"image-keyboard-response",328,333159,"0.0-4.105-1.105","2bj4hnwl1uvy1op",696,"108.csv","","null","resources/maskTrios/L1BB.jpg","null","",NA,NA,NA,NA,""
"image-keyboard-response",329,334371,"0.0-4.105-2.105","2bj4hnwl1uvy1op",696,"108.csv","","null","resources/images/fishbone.png","null","",NA,NA,NA,NA,""
"image-keyboard-response",330,334650,"0.0-4.106-0.106","2bj4hnwl1uvy1op",696,"108.csv","","279","resources/trios/L1T2A3.jpg","37","restless",0.6,0.5,0.1,0.172009104038252,"true"
"image-keyboard-response",331,335053,"0.0-4.106-1.106","2bj4hnwl1uvy1op",696,"108.csv","","null","resources/maskTrios/L1BB.jpg","null","",NA,NA,NA,NA,""
"image-keyboard-response",332,336260,"0.0-4.106-2.106","2bj4hnwl1uvy1op",696,"108.csv","","null","resources/images/coin2.png","null","",NA,NA,NA,NA,""
"image-keyboard-response",333,336578,"0.0-4.107-0.107","2bj4hnwl1uvy1op",696,"108.csv","","318","resources/trios/L1T2A3.jpg","39","restless",0.6,0.5,0.1,0.232067439409147,"false"
"image-keyboard-response",334,336990,"0.0-4.107-1.107","2bj4hnwl1uvy1op",696,"108.csv","","null","resources/maskTrios/BBA3.jpg","null","",NA,NA,NA,NA,""
"image-keyboard-response",335,338193,"0.0-4.107-2.107","2bj4hnwl1uvy1op",696,"108.csv","","null","resources/images/fishbone.png","null","",NA,NA,NA,NA,""
"image-keyboard-response",336,338546,"0.0-4.108-0.108","2bj4hnwl1uvy1op",696,"108.csv","","353","resources/trios/L1T2A3.jpg","37","restless",0.6,0.4,0.1,0.543093125859279,"true"
"image-keyboard-response",337,338955,"0.0-4.108-1.108","2bj4hnwl1uvy1op",696,"108.csv","","null","resources/maskTrios/L1BB.jpg","null","",NA,NA,NA,NA,""
"image-keyboard-response",338,340166,"0.0-4.108-2.108","2bj4hnwl1uvy1op",696,"108.csv","","null","resources/images/coin2.png","null","",NA,NA,NA,NA,""
"image-keyboard-response",339,340450,"0.0-4.109-0.109","2bj4hnwl1uvy1op",696,"108.csv","","284","resources/trios/L1T2A3.jpg","38","restless",0.6,0.4,0.1,0.107610859509153,"true"
"image-keyboard-response",340,340866,"0.0-4.109-1.109","2bj4hnwl1uvy1op",696,"108.csv","","null","resources/maskTrios/BT2B.jpg","null","",NA,NA,NA,NA,""
"image-keyboard-response",341,342079,"0.0-4.109-2.109","2bj4hnwl1uvy1op",696,"108.csv","","null","resources/images/coin2.png","null","",NA,NA,NA,NA,""
"image-keyboard-response",342,342578,"0.0-4.110-0.110","2bj4hnwl1uvy1op",696,"108.csv","","498","resources/trios/L1T2A3.jpg","38","restless",0.5,0.4,0.1,0.366649514689099,"true"
"image-keyboard-response",343,342985,"0.0-4.110-1.110","2bj4hnwl1uvy1op",696,"108.csv","","null","resources/maskTrios/BT2B.jpg","null","",NA,NA,NA,NA,""
"image-keyboard-response",344,344196,"0.0-4.110-2.110","2bj4hnwl1uvy1op",696,"108.csv","","null","resources/images/coin2.png","null","",NA,NA,NA,NA,""
"image-keyboard-response",345,344618,"0.0-4.111-0.111","2bj4hnwl1uvy1op",696,"108.csv","","421","resources/trios/L1T2A3.jpg","38","restless",0.5,0.4,0.1,0.984523084803836,"false"
"image-keyboard-response",346,345026,"0.0-4.111-1.111","2bj4hnwl1uvy1op",696,"108.csv","","null","resources/maskTrios/BT2B.jpg","null","",NA,NA,NA,NA,""
"image-keyboard-response",347,346228,"0.0-4.111-2.111","2bj4hnwl1uvy1op",696,"108.csv","","null","resources/images/fishbone.png","null","",NA,NA,NA,NA,""
"image-keyboard-response",348,346594,"0.0-4.112-0.112","2bj4hnwl1uvy1op",696,"108.csv","","366","resources/trios/L1T2A3.jpg","37","restless",0.5,0.4,0.1,0.437618317491284,"true"
"image-keyboard-response",349,346999,"0.0-4.112-1.112","2bj4hnwl1uvy1op",696,"108.csv","","null","resources/maskTrios/L1BB.jpg","null","",NA,NA,NA,NA,""
"image-keyboard-response",350,348209,"0.0-4.112-2.112","2bj4hnwl1uvy1op",696,"108.csv","","null","resources/images/coin2.png","null","",NA,NA,NA,NA,""
"image-keyboard-response",351,348506,"0.0-4.113-0.113","2bj4hnwl1uvy1op",696,"108.csv","","296","resources/trios/L1T2A3.jpg","39","restless",0.5,0.4,0.1,0.247906655914165,"false"
"image-keyboard-response",352,348910,"0.0-4.113-1.113","2bj4hnwl1uvy1op",696,"108.csv","","null","resources/maskTrios/BBA3.jpg","null","",NA,NA,NA,NA,""
"image-keyboard-response",353,350119,"0.0-4.113-2.113","2bj4hnwl1uvy1op",696,"108.csv","","null","resources/images/fishbone.png","null","",NA,NA,NA,NA,""
"image-keyboard-response",354,350427,"0.0-4.114-0.114","2bj4hnwl1uvy1op",696,"108.csv","","307","resources/trios/L1T2A3.jpg","37","restless",0.5,0.4,0.1,0.518643267873313,"false"
"image-keyboard-response",355,350837,"0.0-4.114-1.114","2bj4hnwl1uvy1op",696,"108.csv","","null","resources/maskTrios/L1BB.jpg","null","",NA,NA,NA,NA,""
"image-keyboard-response",356,352050,"0.0-4.114-2.114","2bj4hnwl1uvy1op",696,"108.csv","","null","resources/images/fishbone.png","null","",NA,NA,NA,NA,""
"image-keyboard-response",357,352395,"0.0-4.115-0.115","2bj4hnwl1uvy1op",696,"108.csv","","344","resources/trios/L1T2A3.jpg","38","restless",0.5,0.4,0.1,0.539049753433473,"false"
"image-keyboard-response",358,352797,"0.0-4.115-1.115","2bj4hnwl1uvy1op",696,"108.csv","","null","resources/maskTrios/BT2B.jpg","null","",NA,NA,NA,NA,""
"image-keyboard-response",359,353999,"0.0-4.115-2.115","2bj4hnwl1uvy1op",696,"108.csv","","null","resources/images/fishbone.png","null","",NA,NA,NA,NA,""
"image-keyboard-response",360,354299,"0.0-4.116-0.116","2bj4hnwl1uvy1op",696,"108.csv","","299","resources/trios/L1T2A3.jpg","37","restless",0.5,0.4,0.1,0.0472498412000193,"true"
"image-keyboard-response",361,354712,"0.0-4.116-1.116","2bj4hnwl1uvy1op",696,"108.csv","","null","resources/maskTrios/L1BB.jpg","null","",NA,NA,NA,NA,""
"image-keyboard-response",362,355922,"0.0-4.116-2.116","2bj4hnwl1uvy1op",696,"108.csv","","null","resources/images/coin2.png","null","",NA,NA,NA,NA,""
"image-keyboard-response",363,356330,"0.0-4.117-0.117","2bj4hnwl1uvy1op",696,"108.csv","","408","resources/trios/L1T2A3.jpg","37","restless",0.5,0.4,0.1,0.418707372187333,"true"
"image-keyboard-response",364,356734,"0.0-4.117-1.117","2bj4hnwl1uvy1op",696,"108.csv","","null","resources/maskTrios/L1BB.jpg","null","",NA,NA,NA,NA,""
"image-keyboard-response",365,357949,"0.0-4.117-2.117","2bj4hnwl1uvy1op",696,"108.csv","","null","resources/images/coin2.png","null","",NA,NA,NA,NA,""
"image-keyboard-response",366,358498,"0.0-4.118-0.118","2bj4hnwl1uvy1op",696,"108.csv","","549","resources/trios/L1T2A3.jpg","38","restless",0.5,0.4,0.1,0.556705404342686,"false"
"image-keyboard-response",367,358913,"0.0-4.118-1.118","2bj4hnwl1uvy1op",696,"108.csv","","null","resources/maskTrios/BT2B.jpg","null","",NA,NA,NA,NA,""
"image-keyboard-response",368,360116,"0.0-4.118-2.118","2bj4hnwl1uvy1op",696,"108.csv","","null","resources/images/fishbone.png","null","",NA,NA,NA,NA,""
"image-keyboard-response",369,360379,"0.0-4.119-0.119","2bj4hnwl1uvy1op",696,"108.csv","","262","resources/trios/L1T2A3.jpg","37","restless",0.5,0.4,0.1,0.873705268061084,"false"
"image-keyboard-response",370,360785,"0.0-4.119-1.119","2bj4hnwl1uvy1op",696,"108.csv","","null","resources/maskTrios/L1BB.jpg","null","",NA,NA,NA,NA,""
"image-keyboard-response",371,361986,"0.0-4.119-2.119","2bj4hnwl1uvy1op",696,"108.csv","","null","resources/images/fishbone.png","null","",NA,NA,NA,NA,""
"image-keyboard-response",372,362330,"0.0-4.120-0.120","2bj4hnwl1uvy1op",696,"108.csv","","344","resources/trios/L1T2A3.jpg","37","restless",0.5,0.4,0.1,0.0108417333629196,"true"
"image-keyboard-response",373,362745,"0.0-4.120-1.120","2bj4hnwl1uvy1op",696,"108.csv","","null","resources/maskTrios/L1BB.jpg","null","",NA,NA,NA,NA,""
"image-keyboard-response",374,363960,"0.0-4.120-2.120","2bj4hnwl1uvy1op",696,"108.csv","","null","resources/images/coin2.png","null","",NA,NA,NA,NA,""
"image-keyboard-response",375,366522,"0.0-4.121-0.121","2bj4hnwl1uvy1op",696,"108.csv","","2561","resources/trios/L1T2A3.jpg","38","restless",0.5,0.4,0.1,0.518706599409205,"false"
"image-keyboard-response",376,366939,"0.0-4.121-1.121","2bj4hnwl1uvy1op",696,"108.csv","","null","resources/maskTrios/BT2B.jpg","null","",NA,NA,NA,NA,""
"image-keyboard-response",377,368149,"0.0-4.121-2.121","2bj4hnwl1uvy1op",696,"108.csv","","null","resources/images/fishbone.png","null","",NA,NA,NA,NA,""
"image-keyboard-response",378,368410,"0.0-4.122-0.122","2bj4hnwl1uvy1op",696,"108.csv","","261","resources/trios/L1T2A3.jpg","37","restless",0.5,0.4,0.2,0.83635772978134,"false"
"image-keyboard-response",379,368815,"0.0-4.122-1.122","2bj4hnwl1uvy1op",696,"108.csv","","null","resources/maskTrios/L1BB.jpg","null","",NA,NA,NA,NA,""
"image-keyboard-response",380,370028,"0.0-4.122-2.122","2bj4hnwl1uvy1op",696,"108.csv","","null","resources/images/fishbone.png","null","",NA,NA,NA,NA,""
"image-keyboard-response",381,370338,"0.0-4.123-0.123","2bj4hnwl1uvy1op",696,"108.csv","","309","resources/trios/L1T2A3.jpg","39","restless",0.5,0.4,0.2,0.235247097935348,"false"
"image-keyboard-response",382,370740,"0.0-4.123-1.123","2bj4hnwl1uvy1op",696,"108.csv","","null","resources/maskTrios/BBA3.jpg","null","",NA,NA,NA,NA,""
"image-keyboard-response",383,371952,"0.0-4.123-2.123","2bj4hnwl1uvy1op",696,"108.csv","","null","resources/images/fishbone.png","null","",NA,NA,NA,NA,""
"image-keyboard-response",384,372219,"0.0-4.124-0.124","2bj4hnwl1uvy1op",696,"108.csv","","265","resources/trios/L1T2A3.jpg","37","restless",0.5,0.4,0.2,0.668071146327265,"false"
"image-keyboard-response",385,372620,"0.0-4.124-1.124","2bj4hnwl1uvy1op",696,"108.csv","","null","resources/maskTrios/L1BB.jpg","null","",NA,NA,NA,NA,""
"image-keyboard-response",386,373829,"0.0-4.124-2.124","2bj4hnwl1uvy1op",696,"108.csv","","null","resources/images/fishbone.png","null","",NA,NA,NA,NA,""
"image-keyboard-response",387,374250,"0.0-4.125-0.125","2bj4hnwl1uvy1op",696,"108.csv","","420","resources/trios/L1T2A3.jpg","37","restless",0.5,0.5,0.2,0.854642485992642,"false"
"image-keyboard-response",388,374657,"0.0-4.125-1.125","2bj4hnwl1uvy1op",696,"108.csv","","null","resources/maskTrios/L1BB.jpg","null","",NA,NA,NA,NA,""
"image-keyboard-response",389,375860,"0.0-4.125-2.125","2bj4hnwl1uvy1op",696,"108.csv","","null","resources/images/fishbone.png","null","",NA,NA,NA,NA,""
"image-keyboard-response",390,376138,"0.0-4.126-0.126","2bj4hnwl1uvy1op",696,"108.csv","","279","resources/trios/L1T2A3.jpg","38","restless",0.5,0.5,0.2,0.180153876541485,"true"
"image-keyboard-response",391,376541,"0.0-4.126-1.126","2bj4hnwl1uvy1op",696,"108.csv","","null","resources/maskTrios/BT2B.jpg","null","",NA,NA,NA,NA,""
"image-keyboard-response",392,377750,"0.0-4.126-2.126","2bj4hnwl1uvy1op",696,"108.csv","","null","resources/images/coin2.png","null","",NA,NA,NA,NA,""
"image-keyboard-response",393,378259,"0.0-4.127-0.127","2bj4hnwl1uvy1op",696,"108.csv","","508","resources/trios/L1T2A3.jpg","38","restless",0.5,0.5,0.2,0.970008127509957,"false"
"image-keyboard-response",394,378667,"0.0-4.127-1.127","2bj4hnwl1uvy1op",696,"108.csv","","null","resources/maskTrios/BT2B.jpg","null","",NA,NA,NA,NA,""
"image-keyboard-response",395,379873,"0.0-4.127-2.127","2bj4hnwl1uvy1op",696,"108.csv","","null","resources/images/fishbone.png","null","",NA,NA,NA,NA,""
"image-keyboard-response",396,380178,"0.0-4.128-0.128","2bj4hnwl1uvy1op",696,"108.csv","","304","resources/trios/L1T2A3.jpg","37","restless",0.5,0.5,0.2,0.663862225243027,"false"
"image-keyboard-response",397,380591,"0.0-4.128-1.128","2bj4hnwl1uvy1op",696,"108.csv","","null","resources/maskTrios/L1BB.jpg","null","",NA,NA,NA,NA,""
"image-keyboard-response",398,381800,"0.0-4.128-2.128","2bj4hnwl1uvy1op",696,"108.csv","","null","resources/images/fishbone.png","null","",NA,NA,NA,NA,""
"image-keyboard-response",399,382322,"0.0-4.129-0.129","2bj4hnwl1uvy1op",696,"108.csv","","521","resources/trios/L1T2A3.jpg","39","restless",0.5,0.5,0.2,0.675223054453821,"false"
"image-keyboard-response",400,382728,"0.0-4.129-1.129","2bj4hnwl1uvy1op",696,"108.csv","","null","resources/maskTrios/BBA3.jpg","null","",NA,NA,NA,NA,""
"image-keyboard-response",401,383932,"0.0-4.129-2.129","2bj4hnwl1uvy1op",696,"108.csv","","null","resources/images/fishbone.png","null","",NA,NA,NA,NA,""
"image-keyboard-response",402,384163,"0.0-4.130-0.130","2bj4hnwl1uvy1op",696,"108.csv","","230","resources/trios/L1T2A3.jpg","37","restless",0.5,0.5,0.2,0.192567079712814,"true"
"image-keyboard-response",403,384569,"0.0-4.130-1.130","2bj4hnwl1uvy1op",696,"108.csv","","null","resources/maskTrios/L1BB.jpg","null","",NA,NA,NA,NA,""
"image-keyboard-response",404,385774,"0.0-4.130-2.130","2bj4hnwl1uvy1op",696,"108.csv","","null","resources/images/coin2.png","null","",NA,NA,NA,NA,""
"image-keyboard-response",405,386106,"0.0-4.131-0.131","2bj4hnwl1uvy1op",696,"108.csv","","332","resources/trios/L1T2A3.jpg","37","restless",0.5,0.5,0.2,0.219643438897903,"true"
"image-keyboard-response",406,386517,"0.0-4.131-1.131","2bj4hnwl1uvy1op",696,"108.csv","","null","resources/maskTrios/L1BB.jpg","null","",NA,NA,NA,NA,""
"image-keyboard-response",407,387729,"0.0-4.131-2.131","2bj4hnwl1uvy1op",696,"108.csv","","null","resources/images/coin2.png","null","",NA,NA,NA,NA,""
"image-keyboard-response",408,389075,"0.0-4.132-0.132","2bj4hnwl1uvy1op",696,"108.csv","","1344","resources/trios/L1T2A3.jpg","38","restless",0.5,0.5,0.2,0.815685366966167,"false"
"image-keyboard-response",409,389487,"0.0-4.132-1.132","2bj4hnwl1uvy1op",696,"108.csv","","null","resources/maskTrios/BT2B.jpg","null","",NA,NA,NA,NA,""
"image-keyboard-response",410,390690,"0.0-4.132-2.132","2bj4hnwl1uvy1op",696,"108.csv","","null","resources/images/fishbone.png","null","",NA,NA,NA,NA,""
"image-keyboard-response",411,390979,"0.0-4.133-0.133","2bj4hnwl1uvy1op",696,"108.csv","","288","resources/trios/L1T2A3.jpg","37","restless",0.5,0.5,0.2,0.613749272365547,"false"
"image-keyboard-response",412,391392,"0.0-4.133-1.133","2bj4hnwl1uvy1op",696,"108.csv","","null","resources/maskTrios/L1BB.jpg","null","",NA,NA,NA,NA,""
"image-keyboard-response",413,392594,"0.0-4.133-2.133","2bj4hnwl1uvy1op",696,"108.csv","","null","resources/images/fishbone.png","null","",NA,NA,NA,NA,""
"image-keyboard-response",414,393163,"0.0-4.134-0.134","2bj4hnwl1uvy1op",696,"108.csv","","568","resources/trios/L1T2A3.jpg","39","restless",0.5,0.5,0.2,0.459534049081459,"false"
"image-keyboard-response",415,393574,"0.0-4.134-1.134","2bj4hnwl1uvy1op",696,"108.csv","","null","resources/maskTrios/BBA3.jpg","null","",NA,NA,NA,NA,""
"image-keyboard-response",416,394786,"0.0-4.134-2.134","2bj4hnwl1uvy1op",696,"108.csv","","null","resources/images/fishbone.png","null","",NA,NA,NA,NA,""
"image-keyboard-response",417,395419,"0.0-4.135-0.135","2bj4hnwl1uvy1op",696,"108.csv","","632","resources/trios/L1T2A3.jpg","39","restless",0.5,0.5,0.2,0.626461900243782,"false"
"image-keyboard-response",418,395824,"0.0-4.135-1.135","2bj4hnwl1uvy1op",696,"108.csv","","null","resources/maskTrios/BBA3.jpg","null","",NA,NA,NA,NA,""
"image-keyboard-response",419,397034,"0.0-4.135-2.135","2bj4hnwl1uvy1op",696,"108.csv","","null","resources/images/fishbone.png","null","",NA,NA,NA,NA,""
"image-keyboard-response",420,397354,"0.0-4.136-0.136","2bj4hnwl1uvy1op",696,"108.csv","","320","resources/trios/L1T2A3.jpg","38","restless",0.5,0.5,0.2,0.0352141723816608,"true"
"image-keyboard-response",421,397769,"0.0-4.136-1.136","2bj4hnwl1uvy1op",696,"108.csv","","null","resources/maskTrios/BT2B.jpg","null","",NA,NA,NA,NA,""
"image-keyboard-response",422,398982,"0.0-4.136-2.136","2bj4hnwl1uvy1op",696,"108.csv","","null","resources/images/coin2.png","null","",NA,NA,NA,NA,""
"image-keyboard-response",423,399427,"0.0-4.137-0.137","2bj4hnwl1uvy1op",696,"108.csv","","444","resources/trios/L1T2A3.jpg","37","restless",0.5,0.6,0.2,0.0844099337061668,"true"
"image-keyboard-response",424,399831,"0.0-4.137-1.137","2bj4hnwl1uvy1op",696,"108.csv","","null","resources/maskTrios/L1BB.jpg","null","",NA,NA,NA,NA,""
"image-keyboard-response",425,401033,"0.0-4.137-2.137","2bj4hnwl1uvy1op",696,"108.csv","","null","resources/images/coin2.png","null","",NA,NA,NA,NA,""
"image-keyboard-response",426,401354,"0.0-4.138-0.138","2bj4hnwl1uvy1op",696,"108.csv","","320","resources/trios/L1T2A3.jpg","37","restless",0.5,0.6,0.3,0.121903337554482,"true"
"image-keyboard-response",427,401768,"0.0-4.138-1.138","2bj4hnwl1uvy1op",696,"108.csv","","null","resources/maskTrios/L1BB.jpg","null","",NA,NA,NA,NA,""
"image-keyboard-response",428,402976,"0.0-4.138-2.138","2bj4hnwl1uvy1op",696,"108.csv","","null","resources/images/coin2.png","null","",NA,NA,NA,NA,""
"image-keyboard-response",429,403283,"0.0-4.139-0.139","2bj4hnwl1uvy1op",696,"108.csv","","307","resources/trios/L1T2A3.jpg","37","restless",0.4,0.6,0.3,0.27891292838377,"true"
"image-keyboard-response",430,403694,"0.0-4.139-1.139","2bj4hnwl1uvy1op",696,"108.csv","","null","resources/maskTrios/L1BB.jpg","null","",NA,NA,NA,NA,""
"image-keyboard-response",431,404909,"0.0-4.139-2.139","2bj4hnwl1uvy1op",696,"108.csv","","null","resources/images/coin2.png","null","",NA,NA,NA,NA,""
"image-keyboard-response",432,405243,"0.0-4.140-0.140","2bj4hnwl1uvy1op",696,"108.csv","","333","resources/trios/L1T2A3.jpg","38","restless",0.5,0.6,0.3,0.840830523587376,"false"
"image-keyboard-response",433,405652,"0.0-4.140-1.140","2bj4hnwl1uvy1op",696,"108.csv","","null","resources/maskTrios/BT2B.jpg","null","",NA,NA,NA,NA,""
"image-keyboard-response",434,406860,"0.0-4.140-2.140","2bj4hnwl1uvy1op",696,"108.csv","","null","resources/images/fishbone.png","null","",NA,NA,NA,NA,""
"image-keyboard-response",435,407178,"0.0-4.141-0.141","2bj4hnwl1uvy1op",696,"108.csv","","317","resources/trios/L1T2A3.jpg","37","restless",0.5,0.6,0.3,0.761575338234459,"false"
"image-keyboard-response",436,407590,"0.0-4.141-1.141","2bj4hnwl1uvy1op",696,"108.csv","","null","resources/maskTrios/L1BB.jpg","null","",NA,NA,NA,NA,""
"image-keyboard-response",437,408804,"0.0-4.141-2.141","2bj4hnwl1uvy1op",696,"108.csv","","null","resources/images/fishbone.png","null","",NA,NA,NA,NA,""
"image-keyboard-response",438,409203,"0.0-4.142-0.142","2bj4hnwl1uvy1op",696,"108.csv","","399","resources/trios/L1T2A3.jpg","37","restless",0.5,0.7,0.4,0.453300636694838,"true"
"image-keyboard-response",439,409612,"0.0-4.142-1.142","2bj4hnwl1uvy1op",696,"108.csv","","null","resources/maskTrios/L1BB.jpg","null","",NA,NA,NA,NA,""
"image-keyboard-response",440,410823,"0.0-4.142-2.142","2bj4hnwl1uvy1op",696,"108.csv","","null","resources/images/coin2.png","null","",NA,NA,NA,NA,""
"image-keyboard-response",441,411123,"0.0-4.143-0.143","2bj4hnwl1uvy1op",696,"108.csv","","299","resources/trios/L1T2A3.jpg","37","restless",0.5,0.7,0.4,0.97127316548151,"false"
"image-keyboard-response",442,411539,"0.0-4.143-1.143","2bj4hnwl1uvy1op",696,"108.csv","","null","resources/maskTrios/L1BB.jpg","null","",NA,NA,NA,NA,""
"image-keyboard-response",443,412755,"0.0-4.143-2.143","2bj4hnwl1uvy1op",696,"108.csv","","null","resources/images/fishbone.png","null","",NA,NA,NA,NA,""
"image-keyboard-response",444,413035,"0.0-4.144-0.144","2bj4hnwl1uvy1op",696,"108.csv","","279","resources/trios/L1T2A3.jpg","38","restless",0.4,0.7,0.5,0.143841316325082,"true"
"image-keyboard-response",445,413437,"0.0-4.144-1.144","2bj4hnwl1uvy1op",696,"108.csv","","null","resources/maskTrios/BT2B.jpg","null","",NA,NA,NA,NA,""
"image-keyboard-response",446,414651,"0.0-4.144-2.144","2bj4hnwl1uvy1op",696,"108.csv","","null","resources/images/coin2.png","null","",NA,NA,NA,NA,""
"image-keyboard-response",447,415267,"0.0-4.145-0.145","2bj4hnwl1uvy1op",696,"108.csv","","616","resources/trios/L1T2A3.jpg","37","restless",0.4,0.8,0.5,0.963963755351102,"false"
"image-keyboard-response",448,415677,"0.0-4.145-1.145","2bj4hnwl1uvy1op",696,"108.csv","","null","resources/maskTrios/L1BB.jpg","null","",NA,NA,NA,NA,""
"image-keyboard-response",449,416889,"0.0-4.145-2.145","2bj4hnwl1uvy1op",696,"108.csv","","null","resources/images/fishbone.png","null","",NA,NA,NA,NA,""
"image-keyboard-response",450,417146,"0.0-4.146-0.146","2bj4hnwl1uvy1op",696,"108.csv","","257","resources/trios/L1T2A3.jpg","39","restless",0.3,0.7,0.5,0.216705855989554,"true"
"image-keyboard-response",451,417559,"0.0-4.146-1.146","2bj4hnwl1uvy1op",696,"108.csv","","null","resources/maskTrios/BBA3.jpg","null","",NA,NA,NA,NA,""
"image-keyboard-response",452,418769,"0.0-4.146-2.146","2bj4hnwl1uvy1op",696,"108.csv","","null","resources/images/coin2.png","null","",NA,NA,NA,NA,""
"image-keyboard-response",453,419250,"0.0-4.147-0.147","2bj4hnwl1uvy1op",696,"108.csv","","481","resources/trios/L1T2A3.jpg","39","restless",0.3,0.6,0.5,0.437998630652556,"true"
"image-keyboard-response",454,419653,"0.0-4.147-1.147","2bj4hnwl1uvy1op",696,"108.csv","","null","resources/maskTrios/BBA3.jpg","null","",NA,NA,NA,NA,""
"image-keyboard-response",455,420861,"0.0-4.147-2.147","2bj4hnwl1uvy1op",696,"108.csv","","null","resources/images/coin2.png","null","",NA,NA,NA,NA,""
"image-keyboard-response",456,421170,"0.0-4.148-0.148","2bj4hnwl1uvy1op",696,"108.csv","","309","resources/trios/L1T2A3.jpg","37","restless",0.3,0.6,0.5,0.13872382522021,"true"
"image-keyboard-response",457,421578,"0.0-4.148-1.148","2bj4hnwl1uvy1op",696,"108.csv","","null","resources/maskTrios/L1BB.jpg","null","",NA,NA,NA,NA,""
"image-keyboard-response",458,422795,"0.0-4.148-2.148","2bj4hnwl1uvy1op",696,"108.csv","","null","resources/images/coin2.png","null","",NA,NA,NA,NA,""
"image-keyboard-response",459,423154,"0.0-4.149-0.149","2bj4hnwl1uvy1op",696,"108.csv","","359","resources/trios/L1T2A3.jpg","37","restless",0.3,0.6,0.5,0.607359475636981,"false"
"image-keyboard-response",460,423571,"0.0-4.149-1.149","2bj4hnwl1uvy1op",696,"108.csv","","null","resources/maskTrios/L1BB.jpg","null","",NA,NA,NA,NA,""
"image-keyboard-response",461,424785,"0.0-4.149-2.149","2bj4hnwl1uvy1op",696,"108.csv","","null","resources/images/fishbone.png","null","",NA,NA,NA,NA,""
"image-keyboard-response",462,425074,"0.0-4.150-0.150","2bj4hnwl1uvy1op",696,"108.csv","","289","resources/trios/L1T2A3.jpg","38","restless",0.3,0.6,0.5,0.751090930265446,"false"
"image-keyboard-response",463,425482,"0.0-4.150-1.150","2bj4hnwl1uvy1op",696,"108.csv","","null","resources/maskTrios/BT2B.jpg","null","",NA,NA,NA,NA,""
"image-keyboard-response",464,426694,"0.0-4.150-2.150","2bj4hnwl1uvy1op",696,"108.csv","","null","resources/images/fishbone.png","null","",NA,NA,NA,NA,""
"image-keyboard-response",465,427114,"0.0-4.151-0.151","2bj4hnwl1uvy1op",696,"108.csv","","420","resources/trios/L1T2A3.jpg","37","restless",0.3,0.6,0.5,0.743652202460868,"false"
"image-keyboard-response",466,427531,"0.0-4.151-1.151","2bj4hnwl1uvy1op",696,"108.csv","","null","resources/maskTrios/L1BB.jpg","null","",NA,NA,NA,NA,""
"image-keyboard-response",467,428742,"0.0-4.151-2.151","2bj4hnwl1uvy1op",696,"108.csv","","null","resources/images/fishbone.png","null","",NA,NA,NA,NA,""
"image-keyboard-response",468,429211,"0.0-4.152-0.152","2bj4hnwl1uvy1op",696,"108.csv","","469","resources/trios/L1T2A3.jpg","39","restless",0.3,0.6,0.5,0.85488756290571,"false"
"image-keyboard-response",469,429612,"0.0-4.152-1.152","2bj4hnwl1uvy1op",696,"108.csv","","null","resources/maskTrios/BBA3.jpg","null","",NA,NA,NA,NA,""
"image-keyboard-response",470,430816,"0.0-4.152-2.152","2bj4hnwl1uvy1op",696,"108.csv","","null","resources/images/fishbone.png","null","",NA,NA,NA,NA,""
"image-keyboard-response",471,431090,"0.0-4.153-0.153","2bj4hnwl1uvy1op",696,"108.csv","","273","resources/trios/L1T2A3.jpg","38","restless",0.3,0.6,0.5,0.44964753172341,"true"
"image-keyboard-response",472,431502,"0.0-4.153-1.153","2bj4hnwl1uvy1op",696,"108.csv","","null","resources/maskTrios/BT2B.jpg","null","",NA,NA,NA,NA,""
"image-keyboard-response",473,432717,"0.0-4.153-2.153","2bj4hnwl1uvy1op",696,"108.csv","","null","resources/images/coin2.png","null","",NA,NA,NA,NA,""
"image-keyboard-response",474,433394,"0.0-4.154-0.154","2bj4hnwl1uvy1op",696,"108.csv","","676","resources/trios/L1T2A3.jpg","38","restless",0.3,0.6,0.5,0.0502186495503825,"true"
"image-keyboard-response",475,433807,"0.0-4.154-1.154","2bj4hnwl1uvy1op",696,"108.csv","","null","resources/maskTrios/BT2B.jpg","null","",NA,NA,NA,NA,""
"image-keyboard-response",476,435020,"0.0-4.154-2.154","2bj4hnwl1uvy1op",696,"108.csv","","null","resources/images/coin2.png","null","",NA,NA,NA,NA,""
"image-keyboard-response",477,435547,"0.0-4.155-0.155","2bj4hnwl1uvy1op",696,"108.csv","","526","resources/trios/L1T2A3.jpg","38","restless",0.3,0.6,0.5,0.769915306994491,"false"
"image-keyboard-response",478,435949,"0.0-4.155-1.155","2bj4hnwl1uvy1op",696,"108.csv","","null","resources/maskTrios/BT2B.jpg","null","",NA,NA,NA,NA,""
"image-keyboard-response",479,437163,"0.0-4.155-2.155","2bj4hnwl1uvy1op",696,"108.csv","","null","resources/images/fishbone.png","null","",NA,NA,NA,NA,""
"image-keyboard-response",480,437602,"0.0-4.156-0.156","2bj4hnwl1uvy1op",696,"108.csv","","439","resources/trios/L1T2A3.jpg","37","restless",0.3,0.6,0.5,0.585630330974379,"false"
"image-keyboard-response",481,438011,"0.0-4.156-1.156","2bj4hnwl1uvy1op",696,"108.csv","","null","resources/maskTrios/L1BB.jpg","null","",NA,NA,NA,NA,""
"image-keyboard-response",482,439222,"0.0-4.156-2.156","2bj4hnwl1uvy1op",696,"108.csv","","null","resources/images/fishbone.png","null","",NA,NA,NA,NA,""
"image-keyboard-response",483,440019,"0.0-4.157-0.157","2bj4hnwl1uvy1op",696,"108.csv","","796","resources/trios/L1T2A3.jpg","37","restless",0.3,0.6,0.5,0.989775375336315,"false"
"image-keyboard-response",484,440424,"0.0-4.157-1.157","2bj4hnwl1uvy1op",696,"108.csv","","null","resources/maskTrios/L1BB.jpg","null","",NA,NA,NA,NA,""
"image-keyboard-response",485,441633,"0.0-4.157-2.157","2bj4hnwl1uvy1op",696,"108.csv","","null","resources/images/fishbone.png","null","",NA,NA,NA,NA,""
"image-keyboard-response",486,441979,"0.0-4.158-0.158","2bj4hnwl1uvy1op",696,"108.csv","","345","resources/trios/L1T2A3.jpg","38","restless",0.3,0.6,0.4,0.963876789130238,"false"
"image-keyboard-response",487,442384,"0.0-4.158-1.158","2bj4hnwl1uvy1op",696,"108.csv","","null","resources/maskTrios/BT2B.jpg","null","",NA,NA,NA,NA,""
"image-keyboard-response",488,443600,"0.0-4.158-2.158","2bj4hnwl1uvy1op",696,"108.csv","","null","resources/images/fishbone.png","null","",NA,NA,NA,NA,""
"image-keyboard-response",489,443987,"0.0-4.159-0.159","2bj4hnwl1uvy1op",696,"108.csv","","386","resources/trios/L1T2A3.jpg","39","restless",0.3,0.6,0.4,0.234637310607607,"true"
"image-keyboard-response",490,444398,"0.0-4.159-1.159","2bj4hnwl1uvy1op",696,"108.csv","","null","resources/maskTrios/BBA3.jpg","null","",NA,NA,NA,NA,""
"image-keyboard-response",491,445609,"0.0-4.159-2.159","2bj4hnwl1uvy1op",696,"108.csv","","null","resources/images/coin2.png","null","",NA,NA,NA,NA,""
"image-keyboard-response",492,445875,"0.0-4.160-0.160","2bj4hnwl1uvy1op",696,"108.csv","","265","resources/trios/L1T2A3.jpg","37","restless",0.3,0.6,0.4,0.96003961688757,"false"
"image-keyboard-response",493,446289,"0.0-4.160-1.160","2bj4hnwl1uvy1op",696,"108.csv","","null","resources/maskTrios/L1BB.jpg","null","",NA,NA,NA,NA,""
"image-keyboard-response",494,447503,"0.0-4.160-2.160","2bj4hnwl1uvy1op",696,"108.csv","","null","resources/images/fishbone.png","null","",NA,NA,NA,NA,""
"image-keyboard-response",495,447779,"0.0-4.161-0.161","2bj4hnwl1uvy1op",696,"108.csv","","275","resources/trios/L1T2A3.jpg","39","restless",0.3,0.6,0.5,0.299338112634604,"true"
"image-keyboard-response",496,448187,"0.0-4.161-1.161","2bj4hnwl1uvy1op",696,"108.csv","","null","resources/maskTrios/BBA3.jpg","null","",NA,NA,NA,NA,""
"image-keyboard-response",497,449402,"0.0-4.161-2.161","2bj4hnwl1uvy1op",696,"108.csv","","null","resources/images/coin2.png","null","",NA,NA,NA,NA,""
"image-keyboard-response",498,449851,"0.0-4.162-0.162","2bj4hnwl1uvy1op",696,"108.csv","","449","resources/trios/L1T2A3.jpg","38","restless",0.3,0.6,0.5,0.362109357700431,"true"
"image-keyboard-response",499,450258,"0.0-4.162-1.162","2bj4hnwl1uvy1op",696,"108.csv","","null","resources/maskTrios/BT2B.jpg","null","",NA,NA,NA,NA,""
"image-keyboard-response",500,451473,"0.0-4.162-2.162","2bj4hnwl1uvy1op",696,"108.csv","","null","resources/images/coin2.png","null","",NA,NA,NA,NA,""
"image-keyboard-response",501,451882,"0.0-4.163-0.163","2bj4hnwl1uvy1op",696,"108.csv","","409","resources/trios/L1T2A3.jpg","37","restless",0.3,0.6,0.5,0.65310909882764,"false"
"image-keyboard-response",502,452283,"0.0-4.163-1.163","2bj4hnwl1uvy1op",696,"108.csv","","null","resources/maskTrios/L1BB.jpg","null","",NA,NA,NA,NA,""
"image-keyboard-response",503,453498,"0.0-4.163-2.163","2bj4hnwl1uvy1op",696,"108.csv","","null","resources/images/fishbone.png","null","",NA,NA,NA,NA,""
"image-keyboard-response",504,453963,"0.0-4.164-0.164","2bj4hnwl1uvy1op",696,"108.csv","","464","resources/trios/L1T2A3.jpg","38","restless",0.3,0.6,0.5,0.105488458357171,"true"
"image-keyboard-response",505,454368,"0.0-4.164-1.164","2bj4hnwl1uvy1op",696,"108.csv","","null","resources/maskTrios/BT2B.jpg","null","",NA,NA,NA,NA,""
"image-keyboard-response",506,455582,"0.0-4.164-2.164","2bj4hnwl1uvy1op",696,"108.csv","","null","resources/images/coin2.png","null","",NA,NA,NA,NA,""
"image-keyboard-response",507,455859,"0.0-4.165-0.165","2bj4hnwl1uvy1op",696,"108.csv","","277","resources/trios/L1T2A3.jpg","37","restless",0.3,0.6,0.5,0.0102979227955036,"true"
"image-keyboard-response",508,456265,"0.0-4.165-1.165","2bj4hnwl1uvy1op",696,"108.csv","","null","resources/maskTrios/L1BB.jpg","null","",NA,NA,NA,NA,""
"image-keyboard-response",509,457473,"0.0-4.165-2.165","2bj4hnwl1uvy1op",696,"108.csv","","null","resources/images/coin2.png","null","",NA,NA,NA,NA,""
"image-keyboard-response",510,457762,"0.0-4.166-0.166","2bj4hnwl1uvy1op",696,"108.csv","","288","resources/trios/L1T2A3.jpg","37","restless",0.3,0.6,0.5,0.555130378358662,"false"
"image-keyboard-response",511,458175,"0.0-4.166-1.166","2bj4hnwl1uvy1op",696,"108.csv","","null","resources/maskTrios/L1BB.jpg","null","",NA,NA,NA,NA,""
"image-keyboard-response",512,459385,"0.0-4.166-2.166","2bj4hnwl1uvy1op",696,"108.csv","","null","resources/images/fishbone.png","null","",NA,NA,NA,NA,""
"image-keyboard-response",513,459899,"0.0-4.167-0.167","2bj4hnwl1uvy1op",696,"108.csv","","514","resources/trios/L1T2A3.jpg","38","restless",0.3,0.6,0.5,0.120218319338086,"true"
"image-keyboard-response",514,460314,"0.0-4.167-1.167","2bj4hnwl1uvy1op",696,"108.csv","","null","resources/maskTrios/BT2B.jpg","null","",NA,NA,NA,NA,""
"image-keyboard-response",515,461517,"0.0-4.167-2.167","2bj4hnwl1uvy1op",696,"108.csv","","null","resources/images/coin2.png","null","",NA,NA,NA,NA,""
"image-keyboard-response",516,462211,"0.0-4.168-0.168","2bj4hnwl1uvy1op",696,"108.csv","","694","resources/trios/L1T2A3.jpg","38","restless",0.3,0.6,0.5,0.913083567260038,"false"
"image-keyboard-response",517,462614,"0.0-4.168-1.168","2bj4hnwl1uvy1op",696,"108.csv","","null","resources/maskTrios/BT2B.jpg","null","",NA,NA,NA,NA,""
"image-keyboard-response",518,463823,"0.0-4.168-2.168","2bj4hnwl1uvy1op",696,"108.csv","","null","resources/images/fishbone.png","null","",NA,NA,NA,NA,""
"image-keyboard-response",519,464602,"0.0-4.169-0.169","2bj4hnwl1uvy1op",696,"108.csv","","779","resources/trios/L1T2A3.jpg","37","restless",0.3,0.6,0.5,0.163068605271639,"true"
"image-keyboard-response",520,465007,"0.0-4.169-1.169","2bj4hnwl1uvy1op",696,"108.csv","","null","resources/maskTrios/L1BB.jpg","null","",NA,NA,NA,NA,""
"image-keyboard-response",521,466222,"0.0-4.169-2.169","2bj4hnwl1uvy1op",696,"108.csv","","null","resources/images/coin2.png","null","",NA,NA,NA,NA,""
"image-keyboard-response",522,466571,"0.0-4.170-0.170","2bj4hnwl1uvy1op",696,"108.csv","","348","resources/trios/L1T2A3.jpg","37","restless",0.3,0.6,0.5,0.933091230220003,"false"
"image-keyboard-response",523,466984,"0.0-4.170-1.170","2bj4hnwl1uvy1op",696,"108.csv","","null","resources/maskTrios/L1BB.jpg","null","",NA,NA,NA,NA,""
"image-keyboard-response",524,468196,"0.0-4.170-2.170","2bj4hnwl1uvy1op",696,"108.csv","","null","resources/images/fishbone.png","null","",NA,NA,NA,NA,""
"image-keyboard-response",525,469074,"0.0-4.171-0.171","2bj4hnwl1uvy1op",696,"108.csv","","877","resources/trios/L1T2A3.jpg","38","restless",0.3,0.6,0.5,0.433042055436476,"true"
"image-keyboard-response",526,469487,"0.0-4.171-1.171","2bj4hnwl1uvy1op",696,"108.csv","","null","resources/maskTrios/BT2B.jpg","null","",NA,NA,NA,NA,""
"image-keyboard-response",527,470700,"0.0-4.171-2.171","2bj4hnwl1uvy1op",696,"108.csv","","null","resources/images/coin2.png","null","",NA,NA,NA,NA,""
"image-keyboard-response",528,471490,"0.0-4.172-0.172","2bj4hnwl1uvy1op",696,"108.csv","","789","resources/trios/L1T2A3.jpg","38","restless",0.3,0.6,0.5,0.879005356463784,"false"
"image-keyboard-response",529,471896,"0.0-4.172-1.172","2bj4hnwl1uvy1op",696,"108.csv","","null","resources/maskTrios/BT2B.jpg","null","",NA,NA,NA,NA,""
"image-keyboard-response",530,473106,"0.0-4.172-2.172","2bj4hnwl1uvy1op",696,"108.csv","","null","resources/images/fishbone.png","null","",NA,NA,NA,NA,""
"image-keyboard-response",531,473530,"0.0-4.173-0.173","2bj4hnwl1uvy1op",696,"108.csv","","424","resources/trios/L1T2A3.jpg","37","restless",0.3,0.6,0.6,0.658021343255805,"false"
"image-keyboard-response",532,473943,"0.0-4.173-1.173","2bj4hnwl1uvy1op",696,"108.csv","","null","resources/maskTrios/L1BB.jpg","null","",NA,NA,NA,NA,""
"image-keyboard-response",533,475157,"0.0-4.173-2.173","2bj4hnwl1uvy1op",696,"108.csv","","null","resources/images/fishbone.png","null","",NA,NA,NA,NA,""
"image-keyboard-response",534,475491,"0.0-4.174-0.174","2bj4hnwl1uvy1op",696,"108.csv","","332","resources/trios/L1T2A3.jpg","39","restless",0.3,0.6,0.6,0.854149138463552,"false"
"image-keyboard-response",535,475904,"0.0-4.174-1.174","2bj4hnwl1uvy1op",696,"108.csv","","null","resources/maskTrios/BBA3.jpg","null","",NA,NA,NA,NA,""
"image-keyboard-response",536,477107,"0.0-4.174-2.174","2bj4hnwl1uvy1op",696,"108.csv","","null","resources/images/fishbone.png","null","",NA,NA,NA,NA,""
"image-keyboard-response",537,477402,"0.0-4.175-0.175","2bj4hnwl1uvy1op",696,"108.csv","","295","resources/trios/L1T2A3.jpg","39","restless",0.3,0.6,0.6,0.857970034269379,"false"
"image-keyboard-response",538,477818,"0.0-4.175-1.175","2bj4hnwl1uvy1op",696,"108.csv","","null","resources/maskTrios/BBA3.jpg","null","",NA,NA,NA,NA,""
"image-keyboard-response",539,479034,"0.0-4.175-2.175","2bj4hnwl1uvy1op",696,"108.csv","","null","resources/images/fishbone.png","null","",NA,NA,NA,NA,""
"image-keyboard-response",540,479314,"0.0-4.176-0.176","2bj4hnwl1uvy1op",696,"108.csv","","279","resources/trios/L1T2A3.jpg","38","restless",0.3,0.6,0.6,0.722022418360634,"false"
"image-keyboard-response",541,479719,"0.0-4.176-1.176","2bj4hnwl1uvy1op",696,"108.csv","","null","resources/maskTrios/BT2B.jpg","null","",NA,NA,NA,NA,""
"image-keyboard-response",542,480931,"0.0-4.176-2.176","2bj4hnwl1uvy1op",696,"108.csv","","null","resources/images/fishbone.png","null","",NA,NA,NA,NA,""
"image-keyboard-response",543,481298,"0.0-4.177-0.177","2bj4hnwl1uvy1op",696,"108.csv","","367","resources/trios/L1T2A3.jpg","37","restless",0.4,0.6,0.6,0.390573793632315,"true"
"image-keyboard-response",544,481708,"0.0-4.177-1.177","2bj4hnwl1uvy1op",696,"108.csv","","null","resources/maskTrios/L1BB.jpg","null","",NA,NA,NA,NA,""
"image-keyboard-response",545,482918,"0.0-4.177-2.177","2bj4hnwl1uvy1op",696,"108.csv","","null","resources/images/coin2.png","null","",NA,NA,NA,NA,""
"image-keyboard-response",546,483506,"0.0-4.178-0.178","2bj4hnwl1uvy1op",696,"108.csv","","587","resources/trios/L1T2A3.jpg","37","restless",0.4,0.6,0.6,0.221493566929049,"true"
"image-keyboard-response",547,483918,"0.0-4.178-1.178","2bj4hnwl1uvy1op",696,"108.csv","","null","resources/maskTrios/L1BB.jpg","null","",NA,NA,NA,NA,""
"image-keyboard-response",548,485129,"0.0-4.178-2.178","2bj4hnwl1uvy1op",696,"108.csv","","null","resources/images/coin2.png","null","",NA,NA,NA,NA,""
"image-keyboard-response",549,485602,"0.0-4.179-0.179","2bj4hnwl1uvy1op",696,"108.csv","","473","resources/trios/L1T2A3.jpg","37","restless",0.4,0.6,0.6,0.000810338650651943,"true"
"image-keyboard-response",550,486018,"0.0-4.179-1.179","2bj4hnwl1uvy1op",696,"108.csv","","null","resources/maskTrios/L1BB.jpg","null","",NA,NA,NA,NA,""
"image-keyboard-response",551,487219,"0.0-4.179-2.179","2bj4hnwl1uvy1op",696,"108.csv","","null","resources/images/coin2.png","null","",NA,NA,NA,NA,""
"image-keyboard-response",552,487587,"0.0-4.180-0.180","2bj4hnwl1uvy1op",696,"108.csv","","368","resources/trios/L1T2A3.jpg","38","restless",0.4,0.6,0.6,0.00492696472495302,"true"
"image-keyboard-response",553,487999,"0.0-4.180-1.180","2bj4hnwl1uvy1op",696,"108.csv","","null","resources/maskTrios/BT2B.jpg","null","",NA,NA,NA,NA,""
"image-keyboard-response",554,489208,"0.0-4.180-2.180","2bj4hnwl1uvy1op",696,"108.csv","","null","resources/images/coin2.png","null","",NA,NA,NA,NA,""
"image-keyboard-response",555,489643,"0.0-4.181-0.181","2bj4hnwl1uvy1op",696,"108.csv","","433","resources/trios/L1T2A3.jpg","38","restless",0.4,0.6,0.6,0.809927616186648,"false"
"image-keyboard-response",556,490046,"0.0-4.181-1.181","2bj4hnwl1uvy1op",696,"108.csv","","null","resources/maskTrios/BT2B.jpg","null","",NA,NA,NA,NA,""
"image-keyboard-response",557,491259,"0.0-4.181-2.181","2bj4hnwl1uvy1op",696,"108.csv","","null","resources/images/fishbone.png","null","",NA,NA,NA,NA,""
"image-keyboard-response",558,491795,"0.0-4.182-0.182","2bj4hnwl1uvy1op",696,"108.csv","","535","resources/trios/L1T2A3.jpg","37","restless",0.4,0.6,0.6,0.910168884299772,"false"
"image-keyboard-response",559,492209,"0.0-4.182-1.182","2bj4hnwl1uvy1op",696,"108.csv","","null","resources/maskTrios/L1BB.jpg","null","",NA,NA,NA,NA,""
"image-keyboard-response",560,493423,"0.0-4.182-2.182","2bj4hnwl1uvy1op",696,"108.csv","","null","resources/images/fishbone.png","null","",NA,NA,NA,NA,""
"image-keyboard-response",561,493874,"0.0-4.183-0.183","2bj4hnwl1uvy1op",696,"108.csv","","450","resources/trios/L1T2A3.jpg","39","restless",0.4,0.6,0.6,0.199310988494446,"true"
"image-keyboard-response",562,494289,"0.0-4.183-1.183","2bj4hnwl1uvy1op",696,"108.csv","","null","resources/maskTrios/BBA3.jpg","null","",NA,NA,NA,NA,""
"image-keyboard-response",563,495504,"0.0-4.183-2.183","2bj4hnwl1uvy1op",696,"108.csv","","null","resources/images/coin2.png","null","",NA,NA,NA,NA,""
"image-keyboard-response",564,496179,"0.0-4.184-0.184","2bj4hnwl1uvy1op",696,"108.csv","","674","resources/trios/L1T2A3.jpg","37","restless",0.4,0.6,0.6,0.476317814077488,"false"
"image-keyboard-response",565,496594,"0.0-4.184-1.184","2bj4hnwl1uvy1op",696,"108.csv","","null","resources/maskTrios/L1BB.jpg","null","",NA,NA,NA,NA,""
"image-keyboard-response",566,497796,"0.0-4.184-2.184","2bj4hnwl1uvy1op",696,"108.csv","","null","resources/images/fishbone.png","null","",NA,NA,NA,NA,""
"image-keyboard-response",567,498163,"0.0-4.185-0.185","2bj4hnwl1uvy1op",696,"108.csv","","365","resources/trios/L1T2A3.jpg","38","restless",0.4,0.6,0.6,0.791379537876013,"false"
"image-keyboard-response",568,498572,"0.0-4.185-1.185","2bj4hnwl1uvy1op",696,"108.csv","","null","resources/maskTrios/BT2B.jpg","null","",NA,NA,NA,NA,""
"image-keyboard-response",569,499779,"0.0-4.185-2.185","2bj4hnwl1uvy1op",696,"108.csv","","null","resources/images/fishbone.png","null","",NA,NA,NA,NA,""
"image-keyboard-response",570,500074,"0.0-4.186-0.186","2bj4hnwl1uvy1op",696,"108.csv","","294","resources/trios/L1T2A3.jpg","39","restless",0.4,0.6,0.6,0.507188176096065,"true"
"image-keyboard-response",571,500479,"0.0-4.186-1.186","2bj4hnwl1uvy1op",696,"108.csv","","null","resources/maskTrios/BBA3.jpg","null","",NA,NA,NA,NA,""
"image-keyboard-response",572,501690,"0.0-4.186-2.186","2bj4hnwl1uvy1op",696,"108.csv","","null","resources/images/coin2.png","null","",NA,NA,NA,NA,""
"image-keyboard-response",573,502170,"0.0-4.187-0.187","2bj4hnwl1uvy1op",696,"108.csv","","479","resources/trios/L1T2A3.jpg","39","restless",0.5,0.5,0.6,0.374145267138305,"true"
"image-keyboard-response",574,502578,"0.0-4.187-1.187","2bj4hnwl1uvy1op",696,"108.csv","","null","resources/maskTrios/BBA3.jpg","null","",NA,NA,NA,NA,""
"image-keyboard-response",575,503790,"0.0-4.187-2.187","2bj4hnwl1uvy1op",696,"108.csv","","null","resources/images/coin2.png","null","",NA,NA,NA,NA,""
"image-keyboard-response",576,504371,"0.0-4.188-0.188","2bj4hnwl1uvy1op",696,"108.csv","","579","resources/trios/L1T2A3.jpg","37","restless",0.5,0.5,0.6,0.561380219414599,"false"
"image-keyboard-response",577,504776,"0.0-4.188-1.188","2bj4hnwl1uvy1op",696,"108.csv","","null","resources/maskTrios/L1BB.jpg","null","",NA,NA,NA,NA,""
"image-keyboard-response",578,505991,"0.0-4.188-2.188","2bj4hnwl1uvy1op",696,"108.csv","","null","resources/images/fishbone.png","null","",NA,NA,NA,NA,""
"image-keyboard-response",579,506426,"0.0-4.189-0.189","2bj4hnwl1uvy1op",696,"108.csv","","435","resources/trios/L1T2A3.jpg","39","restless",0.5,0.5,0.6,0.717063085482013,"false"
"image-keyboard-response",580,506831,"0.0-4.189-1.189","2bj4hnwl1uvy1op",696,"108.csv","","null","resources/maskTrios/BBA3.jpg","null","",NA,NA,NA,NA,""
"image-keyboard-response",581,508044,"0.0-4.189-2.189","2bj4hnwl1uvy1op",696,"108.csv","","null","resources/images/fishbone.png","null","",NA,NA,NA,NA,""
"image-keyboard-response",582,508354,"0.0-4.190-0.190","2bj4hnwl1uvy1op",696,"108.csv","","309","resources/trios/L1T2A3.jpg","37","restless",0.5,0.6,0.6,0.670199294166213,"false"
"image-keyboard-response",583,508758,"0.0-4.190-1.190","2bj4hnwl1uvy1op",696,"108.csv","","null","resources/maskTrios/L1BB.jpg","null","",NA,NA,NA,NA,""
"image-keyboard-response",584,509971,"0.0-4.190-2.190","2bj4hnwl1uvy1op",696,"108.csv","","null","resources/images/fishbone.png","null","",NA,NA,NA,NA,""
"image-keyboard-response",585,510258,"0.0-4.191-0.191","2bj4hnwl1uvy1op",696,"108.csv","","287","resources/trios/L1T2A3.jpg","38","restless",0.5,0.7,0.6,0.151447775048205,"true"
"image-keyboard-response",586,510670,"0.0-4.191-1.191","2bj4hnwl1uvy1op",696,"108.csv","","null","resources/maskTrios/BT2B.jpg","null","",NA,NA,NA,NA,""
"image-keyboard-response",587,511881,"0.0-4.191-2.191","2bj4hnwl1uvy1op",696,"108.csv","","null","resources/images/coin2.png","null","",NA,NA,NA,NA,""
"image-keyboard-response",588,512331,"0.0-4.192-0.192","2bj4hnwl1uvy1op",696,"108.csv","","450","resources/trios/L1T2A3.jpg","38","restless",0.5,0.7,0.6,0.829308904712922,"false"
"image-keyboard-response",589,512738,"0.0-4.192-1.192","2bj4hnwl1uvy1op",696,"108.csv","","null","resources/maskTrios/BT2B.jpg","null","",NA,NA,NA,NA,""
"image-keyboard-response",590,513952,"0.0-4.192-2.192","2bj4hnwl1uvy1op",696,"108.csv","","null","resources/images/fishbone.png","null","",NA,NA,NA,NA,""
"image-keyboard-response",591,514442,"0.0-4.193-0.193","2bj4hnwl1uvy1op",696,"108.csv","","490","resources/trios/L1T2A3.jpg","39","restless",0.5,0.7,0.6,0.701246341202165,"false"
"image-keyboard-response",592,514853,"0.0-4.193-1.193","2bj4hnwl1uvy1op",696,"108.csv","","null","resources/maskTrios/BBA3.jpg","null","",NA,NA,NA,NA,""
"image-keyboard-response",593,516067,"0.0-4.193-2.193","2bj4hnwl1uvy1op",696,"108.csv","","null","resources/images/fishbone.png","null","",NA,NA,NA,NA,""
"image-keyboard-response",594,516291,"0.0-4.194-0.194","2bj4hnwl1uvy1op",696,"108.csv","","223","resources/trios/L1T2A3.jpg","37","restless",0.5,0.7,0.6,0.0921411602858235,"true"
"image-keyboard-response",595,516704,"0.0-4.194-1.194","2bj4hnwl1uvy1op",696,"108.csv","","null","resources/maskTrios/L1BB.jpg","null","",NA,NA,NA,NA,""
"image-keyboard-response",596,517905,"0.0-4.194-2.194","2bj4hnwl1uvy1op",696,"108.csv","","null","resources/images/coin2.png","null","",NA,NA,NA,NA,""
"image-keyboard-response",597,518163,"0.0-4.195-0.195","2bj4hnwl1uvy1op",696,"108.csv","","258","resources/trios/L1T2A3.jpg","37","restless",0.5,0.7,0.6,0.284520522828476,"true"
"image-keyboard-response",598,518571,"0.0-4.195-1.195","2bj4hnwl1uvy1op",696,"108.csv","","null","resources/maskTrios/L1BB.jpg","null","",NA,NA,NA,NA,""
"image-keyboard-response",599,519774,"0.0-4.195-2.195","2bj4hnwl1uvy1op",696,"108.csv","","null","resources/images/coin2.png","null","",NA,NA,NA,NA,""
"image-keyboard-response",600,520162,"0.0-4.196-0.196","2bj4hnwl1uvy1op",696,"108.csv","","387","resources/trios/L1T2A3.jpg","37","restless",0.5,0.7,0.7,0.226703960866441,"true"
"image-keyboard-response",601,520565,"0.0-4.196-1.196","2bj4hnwl1uvy1op",696,"108.csv","","null","resources/maskTrios/L1BB.jpg","null","",NA,NA,NA,NA,""
"image-keyboard-response",602,521779,"0.0-4.196-2.196","2bj4hnwl1uvy1op",696,"108.csv","","null","resources/images/coin2.png","null","",NA,NA,NA,NA,""
"image-keyboard-response",603,522066,"0.0-4.197-0.197","2bj4hnwl1uvy1op",696,"108.csv","","286","resources/trios/L1T2A3.jpg","38","restless",0.5,0.7,0.7,0.401621835350364,"true"
"image-keyboard-response",604,522475,"0.0-4.197-1.197","2bj4hnwl1uvy1op",696,"108.csv","","null","resources/maskTrios/BT2B.jpg","null","",NA,NA,NA,NA,""
"image-keyboard-response",605,523679,"0.0-4.197-2.197","2bj4hnwl1uvy1op",696,"108.csv","","null","resources/images/coin2.png","null","",NA,NA,NA,NA,""
"image-keyboard-response",606,524027,"0.0-4.198-0.198","2bj4hnwl1uvy1op",696,"108.csv","","346","resources/trios/L1T2A3.jpg","37","restless",0.5,0.7,0.7,0.955641728332789,"false"
"image-keyboard-response",607,524439,"0.0-4.198-1.198","2bj4hnwl1uvy1op",696,"108.csv","","null","resources/maskTrios/L1BB.jpg","null","",NA,NA,NA,NA,""
"image-keyboard-response",608,525649,"0.0-4.198-2.198","2bj4hnwl1uvy1op",696,"108.csv","","null","resources/images/fishbone.png","null","",NA,NA,NA,NA,""
"image-keyboard-response",609,526162,"0.0-4.199-0.199","2bj4hnwl1uvy1op",696,"108.csv","","513","resources/trios/L1T2A3.jpg","38","restless",0.5,0.7,0.7,0.261669457155384,"true"
"image-keyboard-response",610,526566,"0.0-4.199-1.199","2bj4hnwl1uvy1op",696,"108.csv","","null","resources/maskTrios/BT2B.jpg","null","",NA,NA,NA,NA,""
"image-keyboard-response",611,527781,"0.0-4.199-2.199","2bj4hnwl1uvy1op",696,"108.csv","","null","resources/images/coin2.png","null","",NA,NA,NA,NA,""
"survey-text",612,608344,"0.0-5.0","2bj4hnwl1uvy1op",696,"108.csv","","80562","","","",NA,NA,NA,NA,""
