"trial_type","trial_index","time_elapsed","internal_node_id","subject","participantCode","walkNumber","success","rt","stimulus","key_press","test_part","leftProb","midProb","rightProb","generatedNum","correct"
"pavlovia",0,928,"0.0-0.0","jew5qbseds9j9kw",117,"72.csv","","","","","",NA,NA,NA,NA,""
"fullscreen",1,2869,"0.0-1.0","jew5qbseds9j9kw",117,"72.csv","true","","","","",NA,NA,NA,NA,""
"survey-html-form",2,21352,"0.0-2.0","jew5qbseds9j9kw",117,"72.csv","","18478.80000001192","","","",NA,NA,NA,NA,""
"image-keyboard-response",3,27387,"0.0-3.0-0.0","jew5qbseds9j9kw",117,"72.csv","","6030.099999964237","resources/images/parrot_nobg.png","13","",NA,NA,NA,NA,""
"image-keyboard-response",4,30392,"0.0-3.0-1.0","jew5qbseds9j9kw",117,"72.csv","","null","resources/image_sets/111.png","null","",NA,NA,NA,NA,""
"image-keyboard-response",5,42708,"0.0-3.0-2.0","jew5qbseds9j9kw",117,"72.csv","","12313.699999988079","resources/image_sets/left_highlight.png","37","",NA,NA,NA,NA,""
"image-keyboard-response",6,44257,"0.0-3.0-3.0","jew5qbseds9j9kw",117,"72.csv","","1553.4000000357628","resources/image_sets/mid_highlight.png","38","",NA,NA,NA,NA,""
"image-keyboard-response",7,45058,"0.0-3.0-4.0","jew5qbseds9j9kw",117,"72.csv","","798.2000000476837","resources/image_sets/right_highlight.png","39","",NA,NA,NA,NA,""
"image-keyboard-response",8,48112,"0.0-3.0-5.0","jew5qbseds9j9kw",117,"72.csv","","3051.599999964237","resources/image_sets/111.png","13","",NA,NA,NA,NA,""
"image-keyboard-response",9,52365,"0.0-3.0-6.0","jew5qbseds9j9kw",117,"72.csv","","4251.399999976158","resources/images/coin2.png","13","",NA,NA,NA,NA,""
"image-keyboard-response",10,55241,"0.0-3.0-7.0","jew5qbseds9j9kw",117,"72.csv","","2873.800000011921","resources/images/fishbone.png","13","",NA,NA,NA,NA,""
"html-keyboard-response",11,62280,"0.0-3.0-8.0","jew5qbseds9j9kw",117,"72.csv","","7037.5","<p>You can track your coin total on the top right of your screen. </p><p>At the end of your journey you will be directed to a survey, so please click on the link before exiting the task</p><p>Press Enter to begin</p>","13","",NA,NA,NA,NA,""
"image-keyboard-response",12,67924,"0.0-4.0-0.0","jew5qbseds9j9kw",117,"72.csv","","5640","resources/trios/L1T2A3.jpg","37","restless",0.9,0.7,0.3,0.292753794343154,"true"
"image-keyboard-response",13,68343,"0.0-4.0-1.0","jew5qbseds9j9kw",117,"72.csv","","null","resources/maskTrios/L1BB.jpg","null","",NA,NA,NA,NA,""
"image-keyboard-response",14,69559,"0.0-4.0-2.0","jew5qbseds9j9kw",117,"72.csv","","null","resources/images/coin2.png","null","",NA,NA,NA,NA,""
"image-keyboard-response",15,70842,"0.0-4.1-0.1","jew5qbseds9j9kw",117,"72.csv","","1279.5","resources/trios/L1T2A3.jpg","38","restless",0.9,0.7,0.3,0.96263328420945,"false"
"image-keyboard-response",16,71258,"0.0-4.1-1.1","jew5qbseds9j9kw",117,"72.csv","","null","resources/maskTrios/BT2B.jpg","null","",NA,NA,NA,NA,""
"image-keyboard-response",17,72474,"0.0-4.1-2.1","jew5qbseds9j9kw",117,"72.csv","","null","resources/images/fishbone.png","null","",NA,NA,NA,NA,""
"image-keyboard-response",18,72917,"0.0-4.2-0.2","jew5qbseds9j9kw",117,"72.csv","","439.0999999642372","resources/trios/L1T2A3.jpg","39","restless",0.9,0.7,0.3,0.165308049582865,"true"
"image-keyboard-response",19,73325,"0.0-4.2-1.2","jew5qbseds9j9kw",117,"72.csv","","null","resources/maskTrios/BBA3.jpg","null","",NA,NA,NA,NA,""
"image-keyboard-response",20,74538,"0.0-4.2-2.2","jew5qbseds9j9kw",117,"72.csv","","null","resources/images/coin2.png","null","",NA,NA,NA,NA,""
"image-keyboard-response",21,75046,"0.0-4.3-0.3","jew5qbseds9j9kw",117,"72.csv","","504.89999997615814","resources/trios/L1T2A3.jpg","37","restless",0.9,0.7,0.3,0.888969414322459,"true"
"image-keyboard-response",22,75451,"0.0-4.3-1.3","jew5qbseds9j9kw",117,"72.csv","","null","resources/maskTrios/L1BB.jpg","null","",NA,NA,NA,NA,""
"image-keyboard-response",23,76665,"0.0-4.3-2.3","jew5qbseds9j9kw",117,"72.csv","","null","resources/images/coin2.png","null","",NA,NA,NA,NA,""
"image-keyboard-response",24,77021,"0.0-4.4-0.4","jew5qbseds9j9kw",117,"72.csv","","352.89999997615814","resources/trios/L1T2A3.jpg","37","restless",0.9,0.7,0.3,0.771790299195795,"true"
"image-keyboard-response",25,77437,"0.0-4.4-1.4","jew5qbseds9j9kw",117,"72.csv","","null","resources/maskTrios/L1BB.jpg","null","",NA,NA,NA,NA,""
"image-keyboard-response",26,78648,"0.0-4.4-2.4","jew5qbseds9j9kw",117,"72.csv","","null","resources/images/coin2.png","null","",NA,NA,NA,NA,""
"image-keyboard-response",27,78946,"0.0-4.5-0.5","jew5qbseds9j9kw",117,"72.csv","","294.5","resources/trios/L1T2A3.jpg","37","restless",0.9,0.6,0.3,0.103251089929919,"true"
"image-keyboard-response",28,79357,"0.0-4.5-1.5","jew5qbseds9j9kw",117,"72.csv","","null","resources/maskTrios/L1BB.jpg","null","",NA,NA,NA,NA,""
"image-keyboard-response",29,80569,"0.0-4.5-2.5","jew5qbseds9j9kw",117,"72.csv","","null","resources/images/coin2.png","null","",NA,NA,NA,NA,""
"image-keyboard-response",30,80823,"0.0-4.6-0.6","jew5qbseds9j9kw",117,"72.csv","","250.19999998807907","resources/trios/L1T2A3.jpg","37","restless",0.9,0.6,0.3,0.0240991411620355,"true"
"image-keyboard-response",31,81229,"0.0-4.6-1.6","jew5qbseds9j9kw",117,"72.csv","","null","resources/maskTrios/L1BB.jpg","null","",NA,NA,NA,NA,""
"image-keyboard-response",32,82448,"0.0-4.6-2.6","jew5qbseds9j9kw",117,"72.csv","","null","resources/images/coin2.png","null","",NA,NA,NA,NA,""
"image-keyboard-response",33,82748,"0.0-4.7-0.7","jew5qbseds9j9kw",117,"72.csv","","296.7999999523163","resources/trios/L1T2A3.jpg","37","restless",0.9,0.6,0.4,0.028432441046083,"true"
"image-keyboard-response",34,83157,"0.0-4.7-1.7","jew5qbseds9j9kw",117,"72.csv","","null","resources/maskTrios/L1BB.jpg","null","",NA,NA,NA,NA,""
"image-keyboard-response",35,84372,"0.0-4.7-2.7","jew5qbseds9j9kw",117,"72.csv","","null","resources/images/coin2.png","null","",NA,NA,NA,NA,""
"image-keyboard-response",36,84632,"0.0-4.8-0.8","jew5qbseds9j9kw",117,"72.csv","","256.9000000357628","resources/trios/L1T2A3.jpg","37","restless",0.9,0.7,0.4,0.978944702214525,"false"
"image-keyboard-response",37,85048,"0.0-4.8-1.8","jew5qbseds9j9kw",117,"72.csv","","null","resources/maskTrios/L1BB.jpg","null","",NA,NA,NA,NA,""
"image-keyboard-response",38,86261,"0.0-4.8-2.8","jew5qbseds9j9kw",117,"72.csv","","null","resources/images/fishbone.png","null","",NA,NA,NA,NA,""
"image-keyboard-response",39,86715,"0.0-4.9-0.9","jew5qbseds9j9kw",117,"72.csv","","450.7999999523163","resources/trios/L1T2A3.jpg","38","restless",0.9,0.7,0.4,0.000375233879748693,"true"
"image-keyboard-response",40,87127,"0.0-4.9-1.9","jew5qbseds9j9kw",117,"72.csv","","null","resources/maskTrios/BT2B.jpg","null","",NA,NA,NA,NA,""
"image-keyboard-response",41,88339,"0.0-4.9-2.9","jew5qbseds9j9kw",117,"72.csv","","null","resources/images/coin2.png","null","",NA,NA,NA,NA,""
"image-keyboard-response",42,88534,"0.0-4.10-0.10","jew5qbseds9j9kw",117,"72.csv","","191.89999997615814","resources/trios/L1T2A3.jpg","38","restless",0.9,0.7,0.4,0.314493834805054,"true"
"image-keyboard-response",43,88953,"0.0-4.10-1.10","jew5qbseds9j9kw",117,"72.csv","","null","resources/maskTrios/BT2B.jpg","null","",NA,NA,NA,NA,""
"image-keyboard-response",44,90164,"0.0-4.10-2.10","jew5qbseds9j9kw",117,"72.csv","","null","resources/images/coin2.png","null","",NA,NA,NA,NA,""
"image-keyboard-response",45,90429,"0.0-4.11-0.11","jew5qbseds9j9kw",117,"72.csv","","261.60000002384186","resources/trios/L1T2A3.jpg","38","restless",0.9,0.7,0.4,0.519215367844651,"true"
"image-keyboard-response",46,90840,"0.0-4.11-1.11","jew5qbseds9j9kw",117,"72.csv","","null","resources/maskTrios/BT2B.jpg","null","",NA,NA,NA,NA,""
"image-keyboard-response",47,92052,"0.0-4.11-2.11","jew5qbseds9j9kw",117,"72.csv","","null","resources/images/coin2.png","null","",NA,NA,NA,NA,""
"image-keyboard-response",48,92160,"0.0-4.12-0.12","jew5qbseds9j9kw",117,"72.csv","","106","resources/trios/L1T2A3.jpg","38","restless",0.9,0.7,0.4,0.726990537123077,"false"
"image-keyboard-response",49,92572,"0.0-4.12-1.12","jew5qbseds9j9kw",117,"72.csv","","null","resources/maskTrios/BT2B.jpg","null","",NA,NA,NA,NA,""
"image-keyboard-response",50,93783,"0.0-4.12-2.12","jew5qbseds9j9kw",117,"72.csv","","null","resources/images/fishbone.png","null","",NA,NA,NA,NA,""
"image-keyboard-response",51,94059,"0.0-4.13-0.13","jew5qbseds9j9kw",117,"72.csv","","272.39999997615814","resources/trios/L1T2A3.jpg","39","restless",0.9,0.8,0.4,0.439517811662014,"false"
"image-keyboard-response",52,94477,"0.0-4.13-1.13","jew5qbseds9j9kw",117,"72.csv","","null","resources/maskTrios/BBA3.jpg","null","",NA,NA,NA,NA,""
"image-keyboard-response",53,95689,"0.0-4.13-2.13","jew5qbseds9j9kw",117,"72.csv","","null","resources/images/fishbone.png","null","",NA,NA,NA,NA,""
"image-keyboard-response",54,95985,"0.0-4.14-0.14","jew5qbseds9j9kw",117,"72.csv","","293.5","resources/trios/L1T2A3.jpg","38","restless",0.9,0.8,0.4,0.0729551924402878,"true"
"image-keyboard-response",55,96397,"0.0-4.14-1.14","jew5qbseds9j9kw",117,"72.csv","","null","resources/maskTrios/BT2B.jpg","null","",NA,NA,NA,NA,""
"image-keyboard-response",56,97611,"0.0-4.14-2.14","jew5qbseds9j9kw",117,"72.csv","","null","resources/images/coin2.png","null","",NA,NA,NA,NA,""
"image-keyboard-response",57,98798,"0.0-4.15-0.15","jew5qbseds9j9kw",117,"72.csv","","1183.3999999761581","resources/trios/L1T2A3.jpg","38","restless",0.9,0.8,0.4,0.0244919438703839,"true"
"image-keyboard-response",58,99203,"0.0-4.15-1.15","jew5qbseds9j9kw",117,"72.csv","","null","resources/maskTrios/BT2B.jpg","null","",NA,NA,NA,NA,""
"image-keyboard-response",59,100417,"0.0-4.15-2.15","jew5qbseds9j9kw",117,"72.csv","","null","resources/images/coin2.png","null","",NA,NA,NA,NA,""
"image-keyboard-response",60,101052,"0.0-4.16-0.16","jew5qbseds9j9kw",117,"72.csv","","631.6999999880791","resources/trios/L1T2A3.jpg","38","restless",0.9,0.8,0.4,0.788157107293135,"true"
"image-keyboard-response",61,101465,"0.0-4.16-1.16","jew5qbseds9j9kw",117,"72.csv","","null","resources/maskTrios/BT2B.jpg","null","",NA,NA,NA,NA,""
"image-keyboard-response",62,102680,"0.0-4.16-2.16","jew5qbseds9j9kw",117,"72.csv","","null","resources/images/coin2.png","null","",NA,NA,NA,NA,""
"image-keyboard-response",63,102951,"0.0-4.17-0.17","jew5qbseds9j9kw",117,"72.csv","","268.19999998807907","resources/trios/L1T2A3.jpg","38","restless",0.9,0.8,0.4,0.0443474345028474,"true"
"image-keyboard-response",64,103357,"0.0-4.17-1.17","jew5qbseds9j9kw",117,"72.csv","","null","resources/maskTrios/BT2B.jpg","null","",NA,NA,NA,NA,""
"image-keyboard-response",65,104582,"0.0-4.17-2.17","jew5qbseds9j9kw",117,"72.csv","","null","resources/images/coin2.png","null","",NA,NA,NA,NA,""
"image-keyboard-response",66,104974,"0.0-4.18-0.18","jew5qbseds9j9kw",117,"72.csv","","389","resources/trios/L1T2A3.jpg","38","restless",0.9,0.9,0.4,0.00630092022212292,"true"
"image-keyboard-response",67,105386,"0.0-4.18-1.18","jew5qbseds9j9kw",117,"72.csv","","null","resources/maskTrios/BT2B.jpg","null","",NA,NA,NA,NA,""
"image-keyboard-response",68,106598,"0.0-4.18-2.18","jew5qbseds9j9kw",117,"72.csv","","null","resources/images/coin2.png","null","",NA,NA,NA,NA,""
"image-keyboard-response",69,106879,"0.0-4.19-0.19","jew5qbseds9j9kw",117,"72.csv","","278.5","resources/trios/L1T2A3.jpg","38","restless",0.9,0.9,0.4,0.021532899321189,"true"
"image-keyboard-response",70,107291,"0.0-4.19-1.19","jew5qbseds9j9kw",117,"72.csv","","null","resources/maskTrios/BT2B.jpg","null","",NA,NA,NA,NA,""
"image-keyboard-response",71,108505,"0.0-4.19-2.19","jew5qbseds9j9kw",117,"72.csv","","null","resources/images/coin2.png","null","",NA,NA,NA,NA,""
"image-keyboard-response",72,108793,"0.0-4.20-0.20","jew5qbseds9j9kw",117,"72.csv","","284.5999999642372","resources/trios/L1T2A3.jpg","38","restless",0.9,0.9,0.4,0.859696087757423,"true"
"image-keyboard-response",73,109198,"0.0-4.20-1.20","jew5qbseds9j9kw",117,"72.csv","","null","resources/maskTrios/BT2B.jpg","null","",NA,NA,NA,NA,""
"image-keyboard-response",74,110410,"0.0-4.20-2.20","jew5qbseds9j9kw",117,"72.csv","","null","resources/images/coin2.png","null","",NA,NA,NA,NA,""
"image-keyboard-response",75,110486,"0.0-4.21-0.21","jew5qbseds9j9kw",117,"72.csv","","71.5","resources/trios/L1T2A3.jpg","38","restless",0.9,0.9,0.4,0.905407657468521,"false"
"image-keyboard-response",76,110898,"0.0-4.21-1.21","jew5qbseds9j9kw",117,"72.csv","","null","resources/maskTrios/BT2B.jpg","null","",NA,NA,NA,NA,""
"image-keyboard-response",77,112109,"0.0-4.21-2.21","jew5qbseds9j9kw",117,"72.csv","","null","resources/images/fishbone.png","null","",NA,NA,NA,NA,""
"image-keyboard-response",78,112886,"0.0-4.22-0.22","jew5qbseds9j9kw",117,"72.csv","","773.5999999642372","resources/trios/L1T2A3.jpg","37","restless",0.9,0.9,0.4,0.128439780079446,"true"
"image-keyboard-response",79,113291,"0.0-4.22-1.22","jew5qbseds9j9kw",117,"72.csv","","null","resources/maskTrios/L1BB.jpg","null","",NA,NA,NA,NA,""
"image-keyboard-response",80,114503,"0.0-4.22-2.22","jew5qbseds9j9kw",117,"72.csv","","null","resources/images/coin2.png","null","",NA,NA,NA,NA,""
"image-keyboard-response",81,114816,"0.0-4.23-0.23","jew5qbseds9j9kw",117,"72.csv","","309.5","resources/trios/L1T2A3.jpg","37","restless",0.9,0.9,0.4,0.887728553852961,"true"
"image-keyboard-response",82,115227,"0.0-4.23-1.23","jew5qbseds9j9kw",117,"72.csv","","null","resources/maskTrios/L1BB.jpg","null","",NA,NA,NA,NA,""
"image-keyboard-response",83,116440,"0.0-4.23-2.23","jew5qbseds9j9kw",117,"72.csv","","null","resources/images/coin2.png","null","",NA,NA,NA,NA,""
"image-keyboard-response",84,116889,"0.0-4.24-0.24","jew5qbseds9j9kw",117,"72.csv","","446","resources/trios/L1T2A3.jpg","37","restless",0.9,0.9,0.5,0.8523890040396,"true"
"image-keyboard-response",85,117307,"0.0-4.24-1.24","jew5qbseds9j9kw",117,"72.csv","","null","resources/maskTrios/L1BB.jpg","null","",NA,NA,NA,NA,""
"image-keyboard-response",86,118523,"0.0-4.24-2.24","jew5qbseds9j9kw",117,"72.csv","","null","resources/images/coin2.png","null","",NA,NA,NA,NA,""
"image-keyboard-response",87,118887,"0.0-4.25-0.25","jew5qbseds9j9kw",117,"72.csv","","360.9000000357628","resources/trios/L1T2A3.jpg","37","restless",0.9,0.8,0.5,0.251912645404684,"true"
"image-keyboard-response",88,119294,"0.0-4.25-1.25","jew5qbseds9j9kw",117,"72.csv","","null","resources/maskTrios/L1BB.jpg","null","",NA,NA,NA,NA,""
"image-keyboard-response",89,120503,"0.0-4.25-2.25","jew5qbseds9j9kw",117,"72.csv","","null","resources/images/coin2.png","null","",NA,NA,NA,NA,""
"image-keyboard-response",90,120611,"0.0-4.26-0.26","jew5qbseds9j9kw",117,"72.csv","","104.5","resources/trios/L1T2A3.jpg","37","restless",0.8,0.8,0.5,0.88880963230229,"false"
"image-keyboard-response",91,121022,"0.0-4.26-1.26","jew5qbseds9j9kw",117,"72.csv","","null","resources/maskTrios/L1BB.jpg","null","",NA,NA,NA,NA,""
"image-keyboard-response",92,122235,"0.0-4.26-2.26","jew5qbseds9j9kw",117,"72.csv","","null","resources/images/fishbone.png","null","",NA,NA,NA,NA,""
"image-keyboard-response",93,122479,"0.0-4.27-0.27","jew5qbseds9j9kw",117,"72.csv","","240.5999999642372","resources/trios/L1T2A3.jpg","39","restless",0.7,0.8,0.6,0.964472064567346,"false"
"image-keyboard-response",94,122896,"0.0-4.27-1.27","jew5qbseds9j9kw",117,"72.csv","","null","resources/maskTrios/BBA3.jpg","null","",NA,NA,NA,NA,""
"image-keyboard-response",95,124110,"0.0-4.27-2.27","jew5qbseds9j9kw",117,"72.csv","","null","resources/images/fishbone.png","null","",NA,NA,NA,NA,""
"image-keyboard-response",96,124694,"0.0-4.28-0.28","jew5qbseds9j9kw",117,"72.csv","","580.1999999880791","resources/trios/L1T2A3.jpg","38","restless",0.7,0.8,0.6,0.482127016847919,"true"
"image-keyboard-response",97,125103,"0.0-4.28-1.28","jew5qbseds9j9kw",117,"72.csv","","null","resources/maskTrios/BT2B.jpg","null","",NA,NA,NA,NA,""
"image-keyboard-response",98,126315,"0.0-4.28-2.28","jew5qbseds9j9kw",117,"72.csv","","null","resources/images/coin2.png","null","",NA,NA,NA,NA,""
"image-keyboard-response",99,126548,"0.0-4.29-0.29","jew5qbseds9j9kw",117,"72.csv","","230.39999997615814","resources/trios/L1T2A3.jpg","38","restless",0.7,0.8,0.6,0.975243890676695,"false"
"image-keyboard-response",100,126960,"0.0-4.29-1.29","jew5qbseds9j9kw",117,"72.csv","","null","resources/maskTrios/BT2B.jpg","null","",NA,NA,NA,NA,""
"image-keyboard-response",101,128172,"0.0-4.29-2.29","jew5qbseds9j9kw",117,"72.csv","","null","resources/images/fishbone.png","null","",NA,NA,NA,NA,""
"image-keyboard-response",102,128580,"0.0-4.30-0.30","jew5qbseds9j9kw",117,"72.csv","","404.7000000476837","resources/trios/L1T2A3.jpg","37","restless",0.7,0.8,0.6,0.172175437547972,"true"
"image-keyboard-response",103,128991,"0.0-4.30-1.30","jew5qbseds9j9kw",117,"72.csv","","null","resources/maskTrios/L1BB.jpg","null","",NA,NA,NA,NA,""
"image-keyboard-response",104,130203,"0.0-4.30-2.30","jew5qbseds9j9kw",117,"72.csv","","null","resources/images/coin2.png","null","",NA,NA,NA,NA,""
"image-keyboard-response",105,130470,"0.0-4.31-0.31","jew5qbseds9j9kw",117,"72.csv","","263.9000000357628","resources/trios/L1T2A3.jpg","37","restless",0.7,0.8,0.6,0.536343514371191,"true"
"image-keyboard-response",106,130882,"0.0-4.31-1.31","jew5qbseds9j9kw",117,"72.csv","","null","resources/maskTrios/L1BB.jpg","null","",NA,NA,NA,NA,""
"image-keyboard-response",107,132094,"0.0-4.31-2.31","jew5qbseds9j9kw",117,"72.csv","","null","resources/images/coin2.png","null","",NA,NA,NA,NA,""
"image-keyboard-response",108,132384,"0.0-4.32-0.32","jew5qbseds9j9kw",117,"72.csv","","286.69999998807907","resources/trios/L1T2A3.jpg","37","restless",0.7,0.8,0.6,0.920596088477242,"false"
"image-keyboard-response",109,132791,"0.0-4.32-1.32","jew5qbseds9j9kw",117,"72.csv","","null","resources/maskTrios/L1BB.jpg","null","",NA,NA,NA,NA,""
"image-keyboard-response",110,134004,"0.0-4.32-2.32","jew5qbseds9j9kw",117,"72.csv","","null","resources/images/fishbone.png","null","",NA,NA,NA,NA,""
"image-keyboard-response",111,150793,"0.0-4.33-0.33","jew5qbseds9j9kw",117,"72.csv","","16786.700000047684","resources/trios/L1T2A3.jpg","37","restless",0.6,0.8,0.6,0.896556389464033,"false"
"image-keyboard-response",112,151213,"0.0-4.33-1.33","jew5qbseds9j9kw",117,"72.csv","","null","resources/maskTrios/L1BB.jpg","null","",NA,NA,NA,NA,""
"image-keyboard-response",113,152425,"0.0-4.33-2.33","jew5qbseds9j9kw",117,"72.csv","","null","resources/images/fishbone.png","null","",NA,NA,NA,NA,""
"image-keyboard-response",114,152789,"0.0-4.34-0.34","jew5qbseds9j9kw",117,"72.csv","","361.80000001192093","resources/trios/L1T2A3.jpg","38","restless",0.5,0.8,0.6,0.733345304145706,"true"
"image-keyboard-response",115,153197,"0.0-4.34-1.34","jew5qbseds9j9kw",117,"72.csv","","null","resources/maskTrios/BT2B.jpg","null","",NA,NA,NA,NA,""
"image-keyboard-response",116,154408,"0.0-4.34-2.34","jew5qbseds9j9kw",117,"72.csv","","null","resources/images/coin2.png","null","",NA,NA,NA,NA,""
"image-keyboard-response",117,154694,"0.0-4.35-0.35","jew5qbseds9j9kw",117,"72.csv","","282.9000000357628","resources/trios/L1T2A3.jpg","38","restless",0.5,0.8,0.6,0.0481281110495584,"true"
"image-keyboard-response",118,155102,"0.0-4.35-1.35","jew5qbseds9j9kw",117,"72.csv","","null","resources/maskTrios/BT2B.jpg","null","",NA,NA,NA,NA,""
"image-keyboard-response",119,156315,"0.0-4.35-2.35","jew5qbseds9j9kw",117,"72.csv","","null","resources/images/coin2.png","null","",NA,NA,NA,NA,""
"image-keyboard-response",120,156359,"0.0-4.36-0.36","jew5qbseds9j9kw",117,"72.csv","","40.39999997615814","resources/trios/L1T2A3.jpg","38","restless",0.5,0.7,0.6,0.139095773019476,"true"
"image-keyboard-response",121,156773,"0.0-4.36-1.36","jew5qbseds9j9kw",117,"72.csv","","null","resources/maskTrios/BT2B.jpg","null","",NA,NA,NA,NA,""
"image-keyboard-response",122,157984,"0.0-4.36-2.36","jew5qbseds9j9kw",117,"72.csv","","null","resources/images/coin2.png","null","",NA,NA,NA,NA,""
"image-keyboard-response",123,158386,"0.0-4.37-0.37","jew5qbseds9j9kw",117,"72.csv","","398.39999997615814","resources/trios/L1T2A3.jpg","38","restless",0.5,0.7,0.6,0.505420263481428,"true"
"image-keyboard-response",124,158800,"0.0-4.37-1.37","jew5qbseds9j9kw",117,"72.csv","","null","resources/maskTrios/BT2B.jpg","null","",NA,NA,NA,NA,""
"image-keyboard-response",125,160011,"0.0-4.37-2.37","jew5qbseds9j9kw",117,"72.csv","","null","resources/images/coin2.png","null","",NA,NA,NA,NA,""
"image-keyboard-response",126,160187,"0.0-4.38-0.38","jew5qbseds9j9kw",117,"72.csv","","172.60000002384186","resources/trios/L1T2A3.jpg","37","restless",0.4,0.7,0.6,0.351145052939732,"true"
"image-keyboard-response",127,160594,"0.0-4.38-1.38","jew5qbseds9j9kw",117,"72.csv","","null","resources/maskTrios/L1BB.jpg","null","",NA,NA,NA,NA,""
"image-keyboard-response",128,161807,"0.0-4.38-2.38","jew5qbseds9j9kw",117,"72.csv","","null","resources/images/coin2.png","null","",NA,NA,NA,NA,""
"image-keyboard-response",129,162099,"0.0-4.39-0.39","jew5qbseds9j9kw",117,"72.csv","","288.0999999642372","resources/trios/L1T2A3.jpg","37","restless",0.4,0.7,0.6,0.398395599183395,"true"
"image-keyboard-response",130,162517,"0.0-4.39-1.39","jew5qbseds9j9kw",117,"72.csv","","null","resources/maskTrios/L1BB.jpg","null","",NA,NA,NA,NA,""
"image-keyboard-response",131,163727,"0.0-4.39-2.39","jew5qbseds9j9kw",117,"72.csv","","null","resources/images/coin2.png","null","",NA,NA,NA,NA,""
"image-keyboard-response",132,163942,"0.0-4.40-0.40","jew5qbseds9j9kw",117,"72.csv","","213.30000001192093","resources/trios/L1T2A3.jpg","38","restless",0.4,0.7,0.6,0.84879593143541,"false"
"image-keyboard-response",133,164355,"0.0-4.40-1.40","jew5qbseds9j9kw",117,"72.csv","","null","resources/maskTrios/BT2B.jpg","null","",NA,NA,NA,NA,""
"image-keyboard-response",134,165567,"0.0-4.40-2.40","jew5qbseds9j9kw",117,"72.csv","","null","resources/images/fishbone.png","null","",NA,NA,NA,NA,""
"image-keyboard-response",135,166060,"0.0-4.41-0.41","jew5qbseds9j9kw",117,"72.csv","","490.19999998807907","resources/trios/L1T2A3.jpg","37","restless",0.4,0.6,0.6,0.467607532748867,"false"
"image-keyboard-response",136,166479,"0.0-4.41-1.41","jew5qbseds9j9kw",117,"72.csv","","null","resources/maskTrios/L1BB.jpg","null","",NA,NA,NA,NA,""
"image-keyboard-response",137,167690,"0.0-4.41-2.41","jew5qbseds9j9kw",117,"72.csv","","null","resources/images/fishbone.png","null","",NA,NA,NA,NA,""
"image-keyboard-response",138,167718,"0.0-4.42-0.42","jew5qbseds9j9kw",117,"72.csv","","26.600000023841858","resources/trios/L1T2A3.jpg","39","restless",0.4,0.6,0.6,0.26349872095667,"true"
"image-keyboard-response",139,168132,"0.0-4.42-1.42","jew5qbseds9j9kw",117,"72.csv","","null","resources/maskTrios/BBA3.jpg","null","",NA,NA,NA,NA,""
"image-keyboard-response",140,169343,"0.0-4.42-2.42","jew5qbseds9j9kw",117,"72.csv","","null","resources/images/coin2.png","null","",NA,NA,NA,NA,""
"image-keyboard-response",141,169756,"0.0-4.43-0.43","jew5qbseds9j9kw",117,"72.csv","","410.60000002384186","resources/trios/L1T2A3.jpg","39","restless",0.4,0.6,0.6,0.834003198569226,"false"
"image-keyboard-response",142,170162,"0.0-4.43-1.43","jew5qbseds9j9kw",117,"72.csv","","null","resources/maskTrios/BBA3.jpg","null","",NA,NA,NA,NA,""
"image-keyboard-response",143,171376,"0.0-4.43-2.43","jew5qbseds9j9kw",117,"72.csv","","null","resources/images/fishbone.png","null","",NA,NA,NA,NA,""
"image-keyboard-response",144,171647,"0.0-4.44-0.44","jew5qbseds9j9kw",117,"72.csv","","267.69999998807907","resources/trios/L1T2A3.jpg","38","restless",0.4,0.6,0.5,0.941789572260058,"false"
"image-keyboard-response",145,172052,"0.0-4.44-1.44","jew5qbseds9j9kw",117,"72.csv","","null","resources/maskTrios/BT2B.jpg","null","",NA,NA,NA,NA,""
"image-keyboard-response",146,173264,"0.0-4.44-2.44","jew5qbseds9j9kw",117,"72.csv","","null","resources/images/fishbone.png","null","",NA,NA,NA,NA,""
"image-keyboard-response",147,173528,"0.0-4.45-0.45","jew5qbseds9j9kw",117,"72.csv","","260.69999998807907","resources/trios/L1T2A3.jpg","37","restless",0.5,0.6,0.5,0.214342596359011,"true"
"image-keyboard-response",148,173941,"0.0-4.45-1.45","jew5qbseds9j9kw",117,"72.csv","","null","resources/maskTrios/L1BB.jpg","null","",NA,NA,NA,NA,""
"image-keyboard-response",149,175154,"0.0-4.45-2.45","jew5qbseds9j9kw",117,"72.csv","","null","resources/images/coin2.png","null","",NA,NA,NA,NA,""
"image-keyboard-response",150,175242,"0.0-4.46-0.46","jew5qbseds9j9kw",117,"72.csv","","84.5","resources/trios/L1T2A3.jpg","37","restless",0.5,0.6,0.5,0.799897102521865,"false"
"image-keyboard-response",151,175663,"0.0-4.46-1.46","jew5qbseds9j9kw",117,"72.csv","","null","resources/maskTrios/L1BB.jpg","null","",NA,NA,NA,NA,""
"image-keyboard-response",152,176876,"0.0-4.46-2.46","jew5qbseds9j9kw",117,"72.csv","","null","resources/images/fishbone.png","null","",NA,NA,NA,NA,""
"image-keyboard-response",153,177219,"0.0-4.47-0.47","jew5qbseds9j9kw",117,"72.csv","","340","resources/trios/L1T2A3.jpg","38","restless",0.5,0.6,0.5,0.995854867853817,"false"
"image-keyboard-response",154,177631,"0.0-4.47-1.47","jew5qbseds9j9kw",117,"72.csv","","null","resources/maskTrios/BT2B.jpg","null","",NA,NA,NA,NA,""
"image-keyboard-response",155,178843,"0.0-4.47-2.47","jew5qbseds9j9kw",117,"72.csv","","null","resources/images/fishbone.png","null","",NA,NA,NA,NA,""
"image-keyboard-response",156,179048,"0.0-4.48-0.48","jew5qbseds9j9kw",117,"72.csv","","201.39999997615814","resources/trios/L1T2A3.jpg","39","restless",0.5,0.6,0.4,0.0924414156695819,"true"
"image-keyboard-response",157,179458,"0.0-4.48-1.48","jew5qbseds9j9kw",117,"72.csv","","null","resources/maskTrios/BBA3.jpg","null","",NA,NA,NA,NA,""
"image-keyboard-response",158,180674,"0.0-4.48-2.48","jew5qbseds9j9kw",117,"72.csv","","null","resources/images/coin2.png","null","",NA,NA,NA,NA,""
"image-keyboard-response",159,181250,"0.0-4.49-0.49","jew5qbseds9j9kw",117,"72.csv","","574.5","resources/trios/L1T2A3.jpg","39","restless",0.5,0.5,0.4,0.793020189362432,"false"
"image-keyboard-response",160,181666,"0.0-4.49-1.49","jew5qbseds9j9kw",117,"72.csv","","null","resources/maskTrios/BBA3.jpg","null","",NA,NA,NA,NA,""
"image-keyboard-response",161,182879,"0.0-4.49-2.49","jew5qbseds9j9kw",117,"72.csv","","null","resources/images/fishbone.png","null","",NA,NA,NA,NA,""
"image-keyboard-response",162,183580,"0.0-4.50-0.50","jew5qbseds9j9kw",117,"72.csv","","698.6000000238419","resources/trios/L1T2A3.jpg","37","restless",0.5,0.5,0.4,0.156043286033442,"true"
"image-keyboard-response",163,183999,"0.0-4.50-1.50","jew5qbseds9j9kw",117,"72.csv","","null","resources/maskTrios/L1BB.jpg","null","",NA,NA,NA,NA,""
"image-keyboard-response",164,185210,"0.0-4.50-2.50","jew5qbseds9j9kw",117,"72.csv","","null","resources/images/coin2.png","null","",NA,NA,NA,NA,""
"image-keyboard-response",165,185542,"0.0-4.51-0.51","jew5qbseds9j9kw",117,"72.csv","","328.30000001192093","resources/trios/L1T2A3.jpg","37","restless",0.5,0.5,0.4,0.738505881445563,"false"
"image-keyboard-response",166,185949,"0.0-4.51-1.51","jew5qbseds9j9kw",117,"72.csv","","null","resources/maskTrios/L1BB.jpg","null","",NA,NA,NA,NA,""
"image-keyboard-response",167,187162,"0.0-4.51-2.51","jew5qbseds9j9kw",117,"72.csv","","null","resources/images/fishbone.png","null","",NA,NA,NA,NA,""
"image-keyboard-response",168,187411,"0.0-4.52-0.52","jew5qbseds9j9kw",117,"72.csv","","246","resources/trios/L1T2A3.jpg","38","restless",0.5,0.5,0.4,0.935605607343269,"false"
"image-keyboard-response",169,187824,"0.0-4.52-1.52","jew5qbseds9j9kw",117,"72.csv","","null","resources/maskTrios/BT2B.jpg","null","",NA,NA,NA,NA,""
"image-keyboard-response",170,189037,"0.0-4.52-2.52","jew5qbseds9j9kw",117,"72.csv","","null","resources/images/fishbone.png","null","",NA,NA,NA,NA,""
"image-keyboard-response",171,191922,"0.0-4.53-0.53","jew5qbseds9j9kw",117,"72.csv","","2882.300000011921","resources/trios/L1T2A3.jpg","38","restless",0.5,0.5,0.4,0.841467871849634,"false"
"image-keyboard-response",172,192328,"0.0-4.53-1.53","jew5qbseds9j9kw",117,"72.csv","","null","resources/maskTrios/BT2B.jpg","null","",NA,NA,NA,NA,""
"image-keyboard-response",173,193541,"0.0-4.53-2.53","jew5qbseds9j9kw",117,"72.csv","","null","resources/images/fishbone.png","null","",NA,NA,NA,NA,""
"image-keyboard-response",174,193748,"0.0-4.54-0.54","jew5qbseds9j9kw",117,"72.csv","","195.9000000357628","resources/trios/L1T2A3.jpg","37","restless",0.5,0.5,0.4,0.805297885321144,"false"
"image-keyboard-response",175,194155,"0.0-4.54-1.54","jew5qbseds9j9kw",117,"72.csv","","null","resources/maskTrios/L1BB.jpg","null","",NA,NA,NA,NA,""
"image-keyboard-response",176,195368,"0.0-4.54-2.54","jew5qbseds9j9kw",117,"72.csv","","null","resources/images/fishbone.png","null","",NA,NA,NA,NA,""
"image-keyboard-response",177,195674,"0.0-4.55-0.55","jew5qbseds9j9kw",117,"72.csv","","303.39999997615814","resources/trios/L1T2A3.jpg","39","restless",0.5,0.5,0.4,0.17370252965426,"true"
"image-keyboard-response",178,196088,"0.0-4.55-1.55","jew5qbseds9j9kw",117,"72.csv","","null","resources/maskTrios/BBA3.jpg","null","",NA,NA,NA,NA,""
"image-keyboard-response",179,197302,"0.0-4.55-2.55","jew5qbseds9j9kw",117,"72.csv","","null","resources/images/coin2.png","null","",NA,NA,NA,NA,""
"image-keyboard-response",180,197675,"0.0-4.56-0.56","jew5qbseds9j9kw",117,"72.csv","","371.39999997615814","resources/trios/L1T2A3.jpg","39","restless",0.6,0.5,0.4,0.868581714068375,"false"
"image-keyboard-response",181,198089,"0.0-4.56-1.56","jew5qbseds9j9kw",117,"72.csv","","null","resources/maskTrios/BBA3.jpg","null","",NA,NA,NA,NA,""
"image-keyboard-response",182,199300,"0.0-4.56-2.56","jew5qbseds9j9kw",117,"72.csv","","null","resources/images/fishbone.png","null","",NA,NA,NA,NA,""
"image-keyboard-response",183,199676,"0.0-4.57-0.57","jew5qbseds9j9kw",117,"72.csv","","372.39999997615814","resources/trios/L1T2A3.jpg","38","restless",0.6,0.4,0.4,0.362197291339849,"true"
"image-keyboard-response",184,200087,"0.0-4.57-1.57","jew5qbseds9j9kw",117,"72.csv","","null","resources/maskTrios/BT2B.jpg","null","",NA,NA,NA,NA,""
"image-keyboard-response",185,201298,"0.0-4.57-2.57","jew5qbseds9j9kw",117,"72.csv","","null","resources/images/coin2.png","null","",NA,NA,NA,NA,""
"image-keyboard-response",186,201473,"0.0-4.58-0.58","jew5qbseds9j9kw",117,"72.csv","","171.69999998807907","resources/trios/L1T2A3.jpg","38","restless",0.6,0.4,0.4,0.650995003971786,"false"
"image-keyboard-response",187,201881,"0.0-4.58-1.58","jew5qbseds9j9kw",117,"72.csv","","null","resources/maskTrios/BT2B.jpg","null","",NA,NA,NA,NA,""
"image-keyboard-response",188,203093,"0.0-4.58-2.58","jew5qbseds9j9kw",117,"72.csv","","null","resources/images/fishbone.png","null","",NA,NA,NA,NA,""
"image-keyboard-response",189,203326,"0.0-4.59-0.59","jew5qbseds9j9kw",117,"72.csv","","229.0999999642372","resources/trios/L1T2A3.jpg","37","restless",0.6,0.4,0.4,0.924106878374042,"false"
"image-keyboard-response",190,203739,"0.0-4.59-1.59","jew5qbseds9j9kw",117,"72.csv","","null","resources/maskTrios/L1BB.jpg","null","",NA,NA,NA,NA,""
"image-keyboard-response",191,204953,"0.0-4.59-2.59","jew5qbseds9j9kw",117,"72.csv","","null","resources/images/fishbone.png","null","",NA,NA,NA,NA,""
"image-keyboard-response",192,205297,"0.0-4.60-0.60","jew5qbseds9j9kw",117,"72.csv","","341.0999999642372","resources/trios/L1T2A3.jpg","37","restless",0.5,0.4,0.4,0.510536759148181,"false"
"image-keyboard-response",193,205710,"0.0-4.60-1.60","jew5qbseds9j9kw",117,"72.csv","","null","resources/maskTrios/L1BB.jpg","null","",NA,NA,NA,NA,""
"image-keyboard-response",194,206923,"0.0-4.60-2.60","jew5qbseds9j9kw",117,"72.csv","","null","resources/images/fishbone.png","null","",NA,NA,NA,NA,""
"image-keyboard-response",195,206966,"0.0-4.61-0.61","jew5qbseds9j9kw",117,"72.csv","","39.59999996423721","resources/trios/L1T2A3.jpg","39","restless",0.5,0.4,0.4,0.874541363030679,"false"
"image-keyboard-response",196,207379,"0.0-4.61-1.61","jew5qbseds9j9kw",117,"72.csv","","null","resources/maskTrios/BBA3.jpg","null","",NA,NA,NA,NA,""
"image-keyboard-response",197,208592,"0.0-4.61-2.61","jew5qbseds9j9kw",117,"72.csv","","null","resources/images/fishbone.png","null","",NA,NA,NA,NA,""
"image-keyboard-response",198,208988,"0.0-4.62-0.62","jew5qbseds9j9kw",117,"72.csv","","393.10000002384186","resources/trios/L1T2A3.jpg","38","restless",0.5,0.4,0.4,0.603340094517116,"false"
"image-keyboard-response",199,209394,"0.0-4.62-1.62","jew5qbseds9j9kw",117,"72.csv","","null","resources/maskTrios/BT2B.jpg","null","",NA,NA,NA,NA,""
"image-keyboard-response",200,210607,"0.0-4.62-2.62","jew5qbseds9j9kw",117,"72.csv","","null","resources/images/fishbone.png","null","",NA,NA,NA,NA,""
"image-keyboard-response",201,210939,"0.0-4.63-0.63","jew5qbseds9j9kw",117,"72.csv","","329.69999998807907","resources/trios/L1T2A3.jpg","37","restless",0.5,0.4,0.5,0.574281422099003,"false"
"image-keyboard-response",202,211347,"0.0-4.63-1.63","jew5qbseds9j9kw",117,"72.csv","","null","resources/maskTrios/L1BB.jpg","null","",NA,NA,NA,NA,""
"image-keyboard-response",203,212562,"0.0-4.63-2.63","jew5qbseds9j9kw",117,"72.csv","","null","resources/images/fishbone.png","null","",NA,NA,NA,NA,""
"image-keyboard-response",204,212869,"0.0-4.64-0.64","jew5qbseds9j9kw",117,"72.csv","","304.60000002384186","resources/trios/L1T2A3.jpg","39","restless",0.5,0.4,0.6,0.426444207468985,"true"
"image-keyboard-response",205,213286,"0.0-4.64-1.64","jew5qbseds9j9kw",117,"72.csv","","null","resources/maskTrios/BBA3.jpg","null","",NA,NA,NA,NA,""
"image-keyboard-response",206,214497,"0.0-4.64-2.64","jew5qbseds9j9kw",117,"72.csv","","null","resources/images/coin2.png","null","",NA,NA,NA,NA,""
"image-keyboard-response",207,214934,"0.0-4.65-0.65","jew5qbseds9j9kw",117,"72.csv","","433.60000002384186","resources/trios/L1T2A3.jpg","38","restless",0.5,0.4,0.6,0.364690987104598,"true"
"image-keyboard-response",208,215348,"0.0-4.65-1.65","jew5qbseds9j9kw",117,"72.csv","","null","resources/maskTrios/BT2B.jpg","null","",NA,NA,NA,NA,""
"image-keyboard-response",209,216561,"0.0-4.65-2.65","jew5qbseds9j9kw",117,"72.csv","","null","resources/images/coin2.png","null","",NA,NA,NA,NA,""
"image-keyboard-response",210,216784,"0.0-4.66-0.66","jew5qbseds9j9kw",117,"72.csv","","220.19999998807907","resources/trios/L1T2A3.jpg","38","restless",0.5,0.5,0.7,0.979561670862536,"false"
"image-keyboard-response",211,217192,"0.0-4.66-1.66","jew5qbseds9j9kw",117,"72.csv","","null","resources/maskTrios/BT2B.jpg","null","",NA,NA,NA,NA,""
"image-keyboard-response",212,218405,"0.0-4.66-2.66","jew5qbseds9j9kw",117,"72.csv","","null","resources/images/fishbone.png","null","",NA,NA,NA,NA,""
"image-keyboard-response",213,218725,"0.0-4.67-0.67","jew5qbseds9j9kw",117,"72.csv","","317.69999998807907","resources/trios/L1T2A3.jpg","39","restless",0.5,0.5,0.7,0.424923310836867,"true"
"image-keyboard-response",214,219144,"0.0-4.67-1.67","jew5qbseds9j9kw",117,"72.csv","","null","resources/maskTrios/BBA3.jpg","null","",NA,NA,NA,NA,""
"image-keyboard-response",215,220357,"0.0-4.67-2.67","jew5qbseds9j9kw",117,"72.csv","","null","resources/images/coin2.png","null","",NA,NA,NA,NA,""
"image-keyboard-response",216,220626,"0.0-4.68-0.68","jew5qbseds9j9kw",117,"72.csv","","265.7000000476837","resources/trios/L1T2A3.jpg","37","restless",0.5,0.5,0.8,0.580183999590499,"false"
"image-keyboard-response",217,221033,"0.0-4.68-1.68","jew5qbseds9j9kw",117,"72.csv","","null","resources/maskTrios/L1BB.jpg","null","",NA,NA,NA,NA,""
"image-keyboard-response",218,222245,"0.0-4.68-2.68","jew5qbseds9j9kw",117,"72.csv","","null","resources/images/fishbone.png","null","",NA,NA,NA,NA,""
"image-keyboard-response",219,222356,"0.0-4.69-0.69","jew5qbseds9j9kw",117,"72.csv","","107.39999997615814","resources/trios/L1T2A3.jpg","39","restless",0.5,0.5,0.8,0.533931196874346,"true"
"image-keyboard-response",220,222765,"0.0-4.69-1.69","jew5qbseds9j9kw",117,"72.csv","","null","resources/maskTrios/BBA3.jpg","null","",NA,NA,NA,NA,""
"image-keyboard-response",221,223980,"0.0-4.69-2.69","jew5qbseds9j9kw",117,"72.csv","","null","resources/images/coin2.png","null","",NA,NA,NA,NA,""
"image-keyboard-response",222,224197,"0.0-4.70-0.70","jew5qbseds9j9kw",117,"72.csv","","213.30000001192093","resources/trios/L1T2A3.jpg","39","restless",0.5,0.5,0.9,0.58853670688003,"true"
"image-keyboard-response",223,224609,"0.0-4.70-1.70","jew5qbseds9j9kw",117,"72.csv","","null","resources/maskTrios/BBA3.jpg","null","",NA,NA,NA,NA,""
"image-keyboard-response",224,225822,"0.0-4.70-2.70","jew5qbseds9j9kw",117,"72.csv","","null","resources/images/coin2.png","null","",NA,NA,NA,NA,""
"image-keyboard-response",225,226097,"0.0-4.71-0.71","jew5qbseds9j9kw",117,"72.csv","","271","resources/trios/L1T2A3.jpg","39","restless",0.5,0.5,0.9,0.640784868012471,"true"
"image-keyboard-response",226,226515,"0.0-4.71-1.71","jew5qbseds9j9kw",117,"72.csv","","null","resources/maskTrios/BBA3.jpg","null","",NA,NA,NA,NA,""
"image-keyboard-response",227,227728,"0.0-4.71-2.71","jew5qbseds9j9kw",117,"72.csv","","null","resources/images/coin2.png","null","",NA,NA,NA,NA,""
"image-keyboard-response",228,228200,"0.0-4.72-0.72","jew5qbseds9j9kw",117,"72.csv","","468.5","resources/trios/L1T2A3.jpg","39","restless",0.5,0.5,0.8,0.481779670029713,"true"
"image-keyboard-response",229,228609,"0.0-4.72-1.72","jew5qbseds9j9kw",117,"72.csv","","null","resources/maskTrios/BBA3.jpg","null","",NA,NA,NA,NA,""
"image-keyboard-response",230,229819,"0.0-4.72-2.72","jew5qbseds9j9kw",117,"72.csv","","null","resources/images/coin2.png","null","",NA,NA,NA,NA,""
"image-keyboard-response",231,229881,"0.0-4.73-0.73","jew5qbseds9j9kw",117,"72.csv","","59.5","resources/trios/L1T2A3.jpg","39","restless",0.5,0.5,0.8,0.779961774462789,"true"
"image-keyboard-response",232,230291,"0.0-4.73-1.73","jew5qbseds9j9kw",117,"72.csv","","null","resources/maskTrios/BBA3.jpg","null","",NA,NA,NA,NA,""
"image-keyboard-response",233,231503,"0.0-4.73-2.73","jew5qbseds9j9kw",117,"72.csv","","null","resources/images/coin2.png","null","",NA,NA,NA,NA,""
"image-keyboard-response",234,231551,"0.0-4.74-0.74","jew5qbseds9j9kw",117,"72.csv","","44.40000003576279","resources/trios/L1T2A3.jpg","39","restless",0.5,0.5,0.8,0.0399987870272493,"true"
"image-keyboard-response",235,231960,"0.0-4.74-1.74","jew5qbseds9j9kw",117,"72.csv","","null","resources/maskTrios/BBA3.jpg","null","",NA,NA,NA,NA,""
"image-keyboard-response",236,233164,"0.0-4.74-2.74","jew5qbseds9j9kw",117,"72.csv","","null","resources/images/coin2.png","null","",NA,NA,NA,NA,""
"image-keyboard-response",237,233936,"0.0-4.75-0.75","jew5qbseds9j9kw",117,"72.csv","","768.9000000357628","resources/trios/L1T2A3.jpg","39","restless",0.5,0.4,0.8,0.329733800660063,"true"
"image-keyboard-response",238,234342,"0.0-4.75-1.75","jew5qbseds9j9kw",117,"72.csv","","null","resources/maskTrios/BBA3.jpg","null","",NA,NA,NA,NA,""
"image-keyboard-response",239,235556,"0.0-4.75-2.75","jew5qbseds9j9kw",117,"72.csv","","null","resources/images/coin2.png","null","",NA,NA,NA,NA,""
"image-keyboard-response",240,236083,"0.0-4.76-0.76","jew5qbseds9j9kw",117,"72.csv","","524","resources/trios/L1T2A3.jpg","39","restless",0.5,0.4,0.8,0.342698083310161,"true"
"image-keyboard-response",241,236500,"0.0-4.76-1.76","jew5qbseds9j9kw",117,"72.csv","","null","resources/maskTrios/BBA3.jpg","null","",NA,NA,NA,NA,""
"image-keyboard-response",242,237714,"0.0-4.76-2.76","jew5qbseds9j9kw",117,"72.csv","","null","resources/images/coin2.png","null","",NA,NA,NA,NA,""
"image-keyboard-response",243,237768,"0.0-4.77-0.77","jew5qbseds9j9kw",117,"72.csv","","50.69999998807907","resources/trios/L1T2A3.jpg","39","restless",0.5,0.4,0.8,0.8190026790002,"false"
"image-keyboard-response",244,238187,"0.0-4.77-1.77","jew5qbseds9j9kw",117,"72.csv","","null","resources/maskTrios/BBA3.jpg","null","",NA,NA,NA,NA,""
"image-keyboard-response",245,239399,"0.0-4.77-2.77","jew5qbseds9j9kw",117,"72.csv","","null","resources/images/fishbone.png","null","",NA,NA,NA,NA,""
"image-keyboard-response",246,239580,"0.0-4.78-0.78","jew5qbseds9j9kw",117,"72.csv","","178","resources/trios/L1T2A3.jpg","38","restless",0.5,0.4,0.8,0.166487628966382,"true"
"image-keyboard-response",247,239998,"0.0-4.78-1.78","jew5qbseds9j9kw",117,"72.csv","","null","resources/maskTrios/BT2B.jpg","null","",NA,NA,NA,NA,""
"image-keyboard-response",248,241211,"0.0-4.78-2.78","jew5qbseds9j9kw",117,"72.csv","","null","resources/images/coin2.png","null","",NA,NA,NA,NA,""
"image-keyboard-response",249,241773,"0.0-4.79-0.79","jew5qbseds9j9kw",117,"72.csv","","558.8000000119209","resources/trios/L1T2A3.jpg","38","restless",0.5,0.4,0.8,0.66619599972323,"false"
"image-keyboard-response",250,242187,"0.0-4.79-1.79","jew5qbseds9j9kw",117,"72.csv","","null","resources/maskTrios/BT2B.jpg","null","",NA,NA,NA,NA,""
"image-keyboard-response",251,243401,"0.0-4.79-2.79","jew5qbseds9j9kw",117,"72.csv","","null","resources/images/fishbone.png","null","",NA,NA,NA,NA,""
"image-keyboard-response",252,243764,"0.0-4.80-0.80","jew5qbseds9j9kw",117,"72.csv","","359.9000000357628","resources/trios/L1T2A3.jpg","37","restless",0.5,0.4,0.8,0.5314580552221,"false"
"image-keyboard-response",253,244172,"0.0-4.80-1.80","jew5qbseds9j9kw",117,"72.csv","","null","resources/maskTrios/L1BB.jpg","null","",NA,NA,NA,NA,""
"image-keyboard-response",254,245389,"0.0-4.80-2.80","jew5qbseds9j9kw",117,"72.csv","","null","resources/images/fishbone.png","null","",NA,NA,NA,NA,""
"image-keyboard-response",255,245649,"0.0-4.81-0.81","jew5qbseds9j9kw",117,"72.csv","","256.5","resources/trios/L1T2A3.jpg","39","restless",0.5,0.4,0.9,0.860145919378238,"true"
"image-keyboard-response",256,246054,"0.0-4.81-1.81","jew5qbseds9j9kw",117,"72.csv","","null","resources/maskTrios/BBA3.jpg","null","",NA,NA,NA,NA,""
"image-keyboard-response",257,247268,"0.0-4.81-2.81","jew5qbseds9j9kw",117,"72.csv","","null","resources/images/coin2.png","null","",NA,NA,NA,NA,""
"image-keyboard-response",258,247510,"0.0-4.82-0.82","jew5qbseds9j9kw",117,"72.csv","","239.20000004768372","resources/trios/L1T2A3.jpg","39","restless",0.5,0.4,0.9,0.745779671335528,"true"
"image-keyboard-response",259,247929,"0.0-4.82-1.82","jew5qbseds9j9kw",117,"72.csv","","null","resources/maskTrios/BBA3.jpg","null","",NA,NA,NA,NA,""
"image-keyboard-response",260,249142,"0.0-4.82-2.82","jew5qbseds9j9kw",117,"72.csv","","null","resources/images/coin2.png","null","",NA,NA,NA,NA,""
"image-keyboard-response",261,249425,"0.0-4.83-0.83","jew5qbseds9j9kw",117,"72.csv","","280.4000000357628","resources/trios/L1T2A3.jpg","39","restless",0.5,0.4,0.9,0.469950375545802,"true"
"image-keyboard-response",262,249835,"0.0-4.83-1.83","jew5qbseds9j9kw",117,"72.csv","","null","resources/maskTrios/BBA3.jpg","null","",NA,NA,NA,NA,""
"image-keyboard-response",263,251048,"0.0-4.83-2.83","jew5qbseds9j9kw",117,"72.csv","","null","resources/images/coin2.png","null","",NA,NA,NA,NA,""
"image-keyboard-response",264,251237,"0.0-4.84-0.84","jew5qbseds9j9kw",117,"72.csv","","186.0999999642372","resources/trios/L1T2A3.jpg","39","restless",0.5,0.4,0.9,0.967900941612806,"false"
"image-keyboard-response",265,251646,"0.0-4.84-1.84","jew5qbseds9j9kw",117,"72.csv","","null","resources/maskTrios/BBA3.jpg","null","",NA,NA,NA,NA,""
"image-keyboard-response",266,252859,"0.0-4.84-2.84","jew5qbseds9j9kw",117,"72.csv","","null","resources/images/fishbone.png","null","",NA,NA,NA,NA,""
"image-keyboard-response",267,253188,"0.0-4.85-0.85","jew5qbseds9j9kw",117,"72.csv","","325.89999997615814","resources/trios/L1T2A3.jpg","38","restless",0.5,0.4,0.9,0.521951242839531,"false"
"image-keyboard-response",268,253599,"0.0-4.85-1.85","jew5qbseds9j9kw",117,"72.csv","","null","resources/maskTrios/BT2B.jpg","null","",NA,NA,NA,NA,""
"image-keyboard-response",269,254812,"0.0-4.85-2.85","jew5qbseds9j9kw",117,"72.csv","","null","resources/images/fishbone.png","null","",NA,NA,NA,NA,""
"image-keyboard-response",270,255102,"0.0-4.86-0.86","jew5qbseds9j9kw",117,"72.csv","","287.7000000476837","resources/trios/L1T2A3.jpg","38","restless",0.4,0.4,0.9,0.189159547990702,"true"
"image-keyboard-response",271,255520,"0.0-4.86-1.86","jew5qbseds9j9kw",117,"72.csv","","null","resources/maskTrios/BT2B.jpg","null","",NA,NA,NA,NA,""
"image-keyboard-response",272,256733,"0.0-4.86-2.86","jew5qbseds9j9kw",117,"72.csv","","null","resources/images/coin2.png","null","",NA,NA,NA,NA,""
"image-keyboard-response",273,257189,"0.0-4.87-0.87","jew5qbseds9j9kw",117,"72.csv","","453","resources/trios/L1T2A3.jpg","38","restless",0.4,0.4,0.8,0.312405795335001,"true"
"image-keyboard-response",274,257605,"0.0-4.87-1.87","jew5qbseds9j9kw",117,"72.csv","","null","resources/maskTrios/BT2B.jpg","null","",NA,NA,NA,NA,""
"image-keyboard-response",275,258819,"0.0-4.87-2.87","jew5qbseds9j9kw",117,"72.csv","","null","resources/images/coin2.png","null","",NA,NA,NA,NA,""
"image-keyboard-response",276,259086,"0.0-4.88-0.88","jew5qbseds9j9kw",117,"72.csv","","263.39999997615814","resources/trios/L1T2A3.jpg","38","restless",0.4,0.4,0.8,0.890025936527413,"false"
"image-keyboard-response",277,259496,"0.0-4.88-1.88","jew5qbseds9j9kw",117,"72.csv","","null","resources/maskTrios/BT2B.jpg","null","",NA,NA,NA,NA,""
"image-keyboard-response",278,260709,"0.0-4.88-2.88","jew5qbseds9j9kw",117,"72.csv","","null","resources/images/fishbone.png","null","",NA,NA,NA,NA,""
"image-keyboard-response",279,261172,"0.0-4.89-0.89","jew5qbseds9j9kw",117,"72.csv","","459.89999997615814","resources/trios/L1T2A3.jpg","37","restless",0.4,0.4,0.7,0.0336970204975087,"true"
"image-keyboard-response",280,261591,"0.0-4.89-1.89","jew5qbseds9j9kw",117,"72.csv","","null","resources/maskTrios/L1BB.jpg","null","",NA,NA,NA,NA,""
"image-keyboard-response",281,262804,"0.0-4.89-2.89","jew5qbseds9j9kw",117,"72.csv","","null","resources/images/coin2.png","null","",NA,NA,NA,NA,""
"image-keyboard-response",282,263048,"0.0-4.90-0.90","jew5qbseds9j9kw",117,"72.csv","","240.69999998807907","resources/trios/L1T2A3.jpg","37","restless",0.4,0.4,0.7,0.646329945422371,"false"
"image-keyboard-response",283,263466,"0.0-4.90-1.90","jew5qbseds9j9kw",117,"72.csv","","null","resources/maskTrios/L1BB.jpg","null","",NA,NA,NA,NA,""
"image-keyboard-response",284,264682,"0.0-4.90-2.90","jew5qbseds9j9kw",117,"72.csv","","null","resources/images/fishbone.png","null","",NA,NA,NA,NA,""
"image-keyboard-response",285,264953,"0.0-4.91-0.91","jew5qbseds9j9kw",117,"72.csv","","267.2999999523163","resources/trios/L1T2A3.jpg","39","restless",0.4,0.4,0.7,0.200182908391565,"true"
"image-keyboard-response",286,265360,"0.0-4.91-1.91","jew5qbseds9j9kw",117,"72.csv","","null","resources/maskTrios/BBA3.jpg","null","",NA,NA,NA,NA,""
"image-keyboard-response",287,266573,"0.0-4.91-2.91","jew5qbseds9j9kw",117,"72.csv","","null","resources/images/coin2.png","null","",NA,NA,NA,NA,""
"image-keyboard-response",288,266837,"0.0-4.92-0.92","jew5qbseds9j9kw",117,"72.csv","","260.30000001192093","resources/trios/L1T2A3.jpg","39","restless",0.4,0.4,0.7,0.104144388600557,"true"
"image-keyboard-response",289,267249,"0.0-4.92-1.92","jew5qbseds9j9kw",117,"72.csv","","null","resources/maskTrios/BBA3.jpg","null","",NA,NA,NA,NA,""
"image-keyboard-response",290,268462,"0.0-4.92-2.92","jew5qbseds9j9kw",117,"72.csv","","null","resources/images/coin2.png","null","",NA,NA,NA,NA,""
"image-keyboard-response",291,268606,"0.0-4.93-0.93","jew5qbseds9j9kw",117,"72.csv","","140.89999997615814","resources/trios/L1T2A3.jpg","39","restless",0.4,0.4,0.7,0.767691714489106,"false"
"image-keyboard-response",292,269014,"0.0-4.93-1.93","jew5qbseds9j9kw",117,"72.csv","","null","resources/maskTrios/BBA3.jpg","null","",NA,NA,NA,NA,""
"image-keyboard-response",293,270222,"0.0-4.93-2.93","jew5qbseds9j9kw",117,"72.csv","","null","resources/images/fishbone.png","null","",NA,NA,NA,NA,""
"image-keyboard-response",294,270728,"0.0-4.94-0.94","jew5qbseds9j9kw",117,"72.csv","","503","resources/trios/L1T2A3.jpg","39","restless",0.4,0.4,0.8,0.131437061824923,"true"
"image-keyboard-response",295,271140,"0.0-4.94-1.94","jew5qbseds9j9kw",117,"72.csv","","null","resources/maskTrios/BBA3.jpg","null","",NA,NA,NA,NA,""
"image-keyboard-response",296,272350,"0.0-4.94-2.94","jew5qbseds9j9kw",117,"72.csv","","null","resources/images/coin2.png","null","",NA,NA,NA,NA,""
"image-keyboard-response",297,272870,"0.0-4.95-0.95","jew5qbseds9j9kw",117,"72.csv","","516.8000000119209","resources/trios/L1T2A3.jpg","39","restless",0.4,0.4,0.8,0.800695864686191,"false"
"image-keyboard-response",298,273279,"0.0-4.95-1.95","jew5qbseds9j9kw",117,"72.csv","","null","resources/maskTrios/BBA3.jpg","null","",NA,NA,NA,NA,""
"image-keyboard-response",299,274493,"0.0-4.95-2.95","jew5qbseds9j9kw",117,"72.csv","","null","resources/images/fishbone.png","null","",NA,NA,NA,NA,""
"image-keyboard-response",300,274778,"0.0-4.96-0.96","jew5qbseds9j9kw",117,"72.csv","","281.80000001192093","resources/trios/L1T2A3.jpg","38","restless",0.4,0.4,0.8,0.5678727449443,"false"
"image-keyboard-response",301,275187,"0.0-4.96-1.96","jew5qbseds9j9kw",117,"72.csv","","null","resources/maskTrios/BT2B.jpg","null","",NA,NA,NA,NA,""
"image-keyboard-response",302,276401,"0.0-4.96-2.96","jew5qbseds9j9kw",117,"72.csv","","null","resources/images/fishbone.png","null","",NA,NA,NA,NA,""
"image-keyboard-response",303,276727,"0.0-4.97-0.97","jew5qbseds9j9kw",117,"72.csv","","323","resources/trios/L1T2A3.jpg","38","restless",0.4,0.4,0.8,0.105374572199641,"true"
"image-keyboard-response",304,277142,"0.0-4.97-1.97","jew5qbseds9j9kw",117,"72.csv","","null","resources/maskTrios/BT2B.jpg","null","",NA,NA,NA,NA,""
"image-keyboard-response",305,278355,"0.0-4.97-2.97","jew5qbseds9j9kw",117,"72.csv","","null","resources/images/coin2.png","null","",NA,NA,NA,NA,""
"image-keyboard-response",306,278659,"0.0-4.98-0.98","jew5qbseds9j9kw",117,"72.csv","","301.39999997615814","resources/trios/L1T2A3.jpg","37","restless",0.4,0.4,0.9,0.281383736955201,"true"
"image-keyboard-response",307,279063,"0.0-4.98-1.98","jew5qbseds9j9kw",117,"72.csv","","null","resources/maskTrios/L1BB.jpg","null","",NA,NA,NA,NA,""
"image-keyboard-response",308,280276,"0.0-4.98-2.98","jew5qbseds9j9kw",117,"72.csv","","null","resources/images/coin2.png","null","",NA,NA,NA,NA,""
"image-keyboard-response",309,280608,"0.0-4.99-0.99","jew5qbseds9j9kw",117,"72.csv","","329.10000002384186","resources/trios/L1T2A3.jpg","39","restless",0.4,0.4,0.9,0.934059361673578,"false"
"image-keyboard-response",310,281016,"0.0-4.99-1.99","jew5qbseds9j9kw",117,"72.csv","","null","resources/maskTrios/BBA3.jpg","null","",NA,NA,NA,NA,""
"image-keyboard-response",311,282225,"0.0-4.99-2.99","jew5qbseds9j9kw",117,"72.csv","","null","resources/images/fishbone.png","null","",NA,NA,NA,NA,""
"image-keyboard-response",312,282400,"0.0-4.100-0.100","jew5qbseds9j9kw",117,"72.csv","","173.30000001192093","resources/trios/L1T2A3.jpg","37","restless",0.5,0.4,0.9,0.794247321985191,"false"
"image-keyboard-response",313,282809,"0.0-4.100-1.100","jew5qbseds9j9kw",117,"72.csv","","null","resources/maskTrios/L1BB.jpg","null","",NA,NA,NA,NA,""
"image-keyboard-response",314,284022,"0.0-4.100-2.100","jew5qbseds9j9kw",117,"72.csv","","null","resources/images/fishbone.png","null","",NA,NA,NA,NA,""
"image-keyboard-response",315,284168,"0.0-4.101-0.101","jew5qbseds9j9kw",117,"72.csv","","143","resources/trios/L1T2A3.jpg","38","restless",0.5,0.4,0.9,0.172627681387677,"true"
"image-keyboard-response",316,284574,"0.0-4.101-1.101","jew5qbseds9j9kw",117,"72.csv","","null","resources/maskTrios/BT2B.jpg","null","",NA,NA,NA,NA,""
"image-keyboard-response",317,285786,"0.0-4.101-2.101","jew5qbseds9j9kw",117,"72.csv","","null","resources/images/coin2.png","null","",NA,NA,NA,NA,""
"image-keyboard-response",318,288006,"0.0-4.102-0.102","jew5qbseds9j9kw",117,"72.csv","","2216.899999976158","resources/trios/L1T2A3.jpg","38","restless",0.4,0.4,0.9,0.971521658162921,"false"
"image-keyboard-response",319,288416,"0.0-4.102-1.102","jew5qbseds9j9kw",117,"72.csv","","null","resources/maskTrios/BT2B.jpg","null","",NA,NA,NA,NA,""
"image-keyboard-response",320,289627,"0.0-4.102-2.102","jew5qbseds9j9kw",117,"72.csv","","null","resources/images/fishbone.png","null","",NA,NA,NA,NA,""
"image-keyboard-response",321,289743,"0.0-4.103-0.103","jew5qbseds9j9kw",117,"72.csv","","113.39999997615814","resources/trios/L1T2A3.jpg","38","restless",0.4,0.4,0.8,0.085519598006957,"true"
"image-keyboard-response",322,290162,"0.0-4.103-1.103","jew5qbseds9j9kw",117,"72.csv","","null","resources/maskTrios/BT2B.jpg","null","",NA,NA,NA,NA,""
"image-keyboard-response",323,291375,"0.0-4.103-2.103","jew5qbseds9j9kw",117,"72.csv","","null","resources/images/coin2.png","null","",NA,NA,NA,NA,""
"image-keyboard-response",324,291609,"0.0-4.104-0.104","jew5qbseds9j9kw",117,"72.csv","","230.9000000357628","resources/trios/L1T2A3.jpg","38","restless",0.4,0.4,0.8,0.376035008721666,"true"
"image-keyboard-response",325,292021,"0.0-4.104-1.104","jew5qbseds9j9kw",117,"72.csv","","null","resources/maskTrios/BT2B.jpg","null","",NA,NA,NA,NA,""
"image-keyboard-response",326,293233,"0.0-4.104-2.104","jew5qbseds9j9kw",117,"72.csv","","null","resources/images/coin2.png","null","",NA,NA,NA,NA,""
"image-keyboard-response",327,293455,"0.0-4.105-0.105","jew5qbseds9j9kw",117,"72.csv","","218.30000001192093","resources/trios/L1T2A3.jpg","38","restless",0.4,0.4,0.8,0.271474099186524,"true"
"image-keyboard-response",328,293862,"0.0-4.105-1.105","jew5qbseds9j9kw",117,"72.csv","","null","resources/maskTrios/BT2B.jpg","null","",NA,NA,NA,NA,""
"image-keyboard-response",329,295074,"0.0-4.105-2.105","jew5qbseds9j9kw",117,"72.csv","","null","resources/images/coin2.png","null","",NA,NA,NA,NA,""
"image-keyboard-response",330,295399,"0.0-4.106-0.106","jew5qbseds9j9kw",117,"72.csv","","322.19999998807907","resources/trios/L1T2A3.jpg","38","restless",0.4,0.4,0.8,0.826817707312323,"false"
"image-keyboard-response",331,295814,"0.0-4.106-1.106","jew5qbseds9j9kw",117,"72.csv","","null","resources/maskTrios/BT2B.jpg","null","",NA,NA,NA,NA,""
"image-keyboard-response",332,297028,"0.0-4.106-2.106","jew5qbseds9j9kw",117,"72.csv","","null","resources/images/fishbone.png","null","",NA,NA,NA,NA,""
"image-keyboard-response",333,297188,"0.0-4.107-0.107","jew5qbseds9j9kw",117,"72.csv","","156.89999997615814","resources/trios/L1T2A3.jpg","37","restless",0.4,0.4,0.8,0.687544183754806,"false"
"image-keyboard-response",334,297595,"0.0-4.107-1.107","jew5qbseds9j9kw",117,"72.csv","","null","resources/maskTrios/L1BB.jpg","null","",NA,NA,NA,NA,""
"image-keyboard-response",335,298807,"0.0-4.107-2.107","jew5qbseds9j9kw",117,"72.csv","","null","resources/images/fishbone.png","null","",NA,NA,NA,NA,""
"image-keyboard-response",336,299262,"0.0-4.108-0.108","jew5qbseds9j9kw",117,"72.csv","","451.80000001192093","resources/trios/L1T2A3.jpg","39","restless",0.4,0.3,0.8,0.533352710690393,"true"
"image-keyboard-response",337,299675,"0.0-4.108-1.108","jew5qbseds9j9kw",117,"72.csv","","null","resources/maskTrios/BBA3.jpg","null","",NA,NA,NA,NA,""
"image-keyboard-response",338,300886,"0.0-4.108-2.108","jew5qbseds9j9kw",117,"72.csv","","null","resources/images/coin2.png","null","",NA,NA,NA,NA,""
"image-keyboard-response",339,301742,"0.0-4.109-0.109","jew5qbseds9j9kw",117,"72.csv","","852.3000000119209","resources/trios/L1T2A3.jpg","37","restless",0.5,0.3,0.8,0.225451220847829,"true"
"image-keyboard-response",340,302160,"0.0-4.109-1.109","jew5qbseds9j9kw",117,"72.csv","","null","resources/maskTrios/L1BB.jpg","null","",NA,NA,NA,NA,""
"image-keyboard-response",341,303374,"0.0-4.109-2.109","jew5qbseds9j9kw",117,"72.csv","","null","resources/images/coin2.png","null","",NA,NA,NA,NA,""
"image-keyboard-response",342,303655,"0.0-4.110-0.110","jew5qbseds9j9kw",117,"72.csv","","278.0999999642372","resources/trios/L1T2A3.jpg","37","restless",0.5,0.3,0.8,0.804726460015623,"false"
"image-keyboard-response",343,304066,"0.0-4.110-1.110","jew5qbseds9j9kw",117,"72.csv","","null","resources/maskTrios/L1BB.jpg","null","",NA,NA,NA,NA,""
"image-keyboard-response",344,305280,"0.0-4.110-2.110","jew5qbseds9j9kw",117,"72.csv","","null","resources/images/fishbone.png","null","",NA,NA,NA,NA,""
"image-keyboard-response",345,305795,"0.0-4.111-0.111","jew5qbseds9j9kw",117,"72.csv","","512","resources/trios/L1T2A3.jpg","39","restless",0.5,0.3,0.7,0.965255332599702,"false"
"image-keyboard-response",346,306211,"0.0-4.111-1.111","jew5qbseds9j9kw",117,"72.csv","","null","resources/maskTrios/BBA3.jpg","null","",NA,NA,NA,NA,""
"image-keyboard-response",347,307423,"0.0-4.111-2.111","jew5qbseds9j9kw",117,"72.csv","","null","resources/images/fishbone.png","null","",NA,NA,NA,NA,""
"image-keyboard-response",348,307824,"0.0-4.112-0.112","jew5qbseds9j9kw",117,"72.csv","","398.5","resources/trios/L1T2A3.jpg","38","restless",0.5,0.3,0.7,0.39646657243316,"false"
"image-keyboard-response",349,308241,"0.0-4.112-1.112","jew5qbseds9j9kw",117,"72.csv","","null","resources/maskTrios/BT2B.jpg","null","",NA,NA,NA,NA,""
"image-keyboard-response",350,309454,"0.0-4.112-2.112","jew5qbseds9j9kw",117,"72.csv","","null","resources/images/fishbone.png","null","",NA,NA,NA,NA,""
"image-keyboard-response",351,309564,"0.0-4.113-0.113","jew5qbseds9j9kw",117,"72.csv","","106.79999995231628","resources/trios/L1T2A3.jpg","39","restless",0.5,0.3,0.7,0.118854608287478,"true"
"image-keyboard-response",352,309973,"0.0-4.113-1.113","jew5qbseds9j9kw",117,"72.csv","","null","resources/maskTrios/BBA3.jpg","null","",NA,NA,NA,NA,""
"image-keyboard-response",353,311183,"0.0-4.113-2.113","jew5qbseds9j9kw",117,"72.csv","","null","resources/images/coin2.png","null","",NA,NA,NA,NA,""
"image-keyboard-response",354,311453,"0.0-4.114-0.114","jew5qbseds9j9kw",117,"72.csv","","266.89999997615814","resources/trios/L1T2A3.jpg","39","restless",0.5,0.3,0.7,0.780588804305411,"false"
"image-keyboard-response",355,311860,"0.0-4.114-1.114","jew5qbseds9j9kw",117,"72.csv","","null","resources/maskTrios/BBA3.jpg","null","",NA,NA,NA,NA,""
"image-keyboard-response",356,313073,"0.0-4.114-2.114","jew5qbseds9j9kw",117,"72.csv","","null","resources/images/fishbone.png","null","",NA,NA,NA,NA,""
"image-keyboard-response",357,313647,"0.0-4.115-0.115","jew5qbseds9j9kw",117,"72.csv","","571.8999999761581","resources/trios/L1T2A3.jpg","37","restless",0.5,0.3,0.8,0.11370789904879,"true"
"image-keyboard-response",358,314064,"0.0-4.115-1.115","jew5qbseds9j9kw",117,"72.csv","","null","resources/maskTrios/L1BB.jpg","null","",NA,NA,NA,NA,""
"image-keyboard-response",359,315276,"0.0-4.115-2.115","jew5qbseds9j9kw",117,"72.csv","","null","resources/images/coin2.png","null","",NA,NA,NA,NA,""
"image-keyboard-response",360,315620,"0.0-4.116-0.116","jew5qbseds9j9kw",117,"72.csv","","340.30000001192093","resources/trios/L1T2A3.jpg","37","restless",0.4,0.3,0.7,0.889046381235274,"false"
"image-keyboard-response",361,316033,"0.0-4.116-1.116","jew5qbseds9j9kw",117,"72.csv","","null","resources/maskTrios/L1BB.jpg","null","",NA,NA,NA,NA,""
"image-keyboard-response",362,317245,"0.0-4.116-2.116","jew5qbseds9j9kw",117,"72.csv","","null","resources/images/fishbone.png","null","",NA,NA,NA,NA,""
"image-keyboard-response",363,317549,"0.0-4.117-0.117","jew5qbseds9j9kw",117,"72.csv","","302.5999999642372","resources/trios/L1T2A3.jpg","38","restless",0.5,0.3,0.7,0.173828679775088,"true"
"image-keyboard-response",364,317954,"0.0-4.117-1.117","jew5qbseds9j9kw",117,"72.csv","","null","resources/maskTrios/BT2B.jpg","null","",NA,NA,NA,NA,""
"image-keyboard-response",365,319167,"0.0-4.117-2.117","jew5qbseds9j9kw",117,"72.csv","","null","resources/images/coin2.png","null","",NA,NA,NA,NA,""
"image-keyboard-response",366,319339,"0.0-4.118-0.118","jew5qbseds9j9kw",117,"72.csv","","168","resources/trios/L1T2A3.jpg","38","restless",0.5,0.3,0.7,0.403353302641137,"false"
"image-keyboard-response",367,319749,"0.0-4.118-1.118","jew5qbseds9j9kw",117,"72.csv","","null","resources/maskTrios/BT2B.jpg","null","",NA,NA,NA,NA,""
"image-keyboard-response",368,320962,"0.0-4.118-2.118","jew5qbseds9j9kw",117,"72.csv","","null","resources/images/fishbone.png","null","",NA,NA,NA,NA,""
"image-keyboard-response",369,321248,"0.0-4.119-0.119","jew5qbseds9j9kw",117,"72.csv","","282","resources/trios/L1T2A3.jpg","39","restless",0.5,0.3,0.7,0.581972896029363,"true"
"image-keyboard-response",370,321656,"0.0-4.119-1.119","jew5qbseds9j9kw",117,"72.csv","","null","resources/maskTrios/BBA3.jpg","null","",NA,NA,NA,NA,""
"image-keyboard-response",371,322869,"0.0-4.119-2.119","jew5qbseds9j9kw",117,"72.csv","","null","resources/images/coin2.png","null","",NA,NA,NA,NA,""
"image-keyboard-response",372,323246,"0.0-4.120-0.120","jew5qbseds9j9kw",117,"72.csv","","373.89999997615814","resources/trios/L1T2A3.jpg","37","restless",0.6,0.3,0.7,0.93110541679334,"false"
"image-keyboard-response",373,323657,"0.0-4.120-1.120","jew5qbseds9j9kw",117,"72.csv","","null","resources/maskTrios/L1BB.jpg","null","",NA,NA,NA,NA,""
"image-keyboard-response",374,324870,"0.0-4.120-2.120","jew5qbseds9j9kw",117,"72.csv","","null","resources/images/fishbone.png","null","",NA,NA,NA,NA,""
"image-keyboard-response",375,324974,"0.0-4.121-0.121","jew5qbseds9j9kw",117,"72.csv","","100.19999998807907","resources/trios/L1T2A3.jpg","38","restless",0.6,0.3,0.7,0.648703081408551,"false"
"image-keyboard-response",376,325391,"0.0-4.121-1.121","jew5qbseds9j9kw",117,"72.csv","","null","resources/maskTrios/BT2B.jpg","null","",NA,NA,NA,NA,""
"image-keyboard-response",377,326604,"0.0-4.121-2.121","jew5qbseds9j9kw",117,"72.csv","","null","resources/images/fishbone.png","null","",NA,NA,NA,NA,""
"image-keyboard-response",378,326955,"0.0-4.122-0.122","jew5qbseds9j9kw",117,"72.csv","","346.89999997615814","resources/trios/L1T2A3.jpg","39","restless",0.6,0.3,0.7,0.534931700069384,"true"
"image-keyboard-response",379,327360,"0.0-4.122-1.122","jew5qbseds9j9kw",117,"72.csv","","null","resources/maskTrios/BBA3.jpg","null","",NA,NA,NA,NA,""
"image-keyboard-response",380,328574,"0.0-4.122-2.122","jew5qbseds9j9kw",117,"72.csv","","null","resources/images/coin2.png","null","",NA,NA,NA,NA,""
"image-keyboard-response",381,328830,"0.0-4.123-0.123","jew5qbseds9j9kw",117,"72.csv","","253.19999998807907","resources/trios/L1T2A3.jpg","38","restless",0.6,0.3,0.7,0.894479333192686,"false"
"image-keyboard-response",382,329235,"0.0-4.123-1.123","jew5qbseds9j9kw",117,"72.csv","","null","resources/maskTrios/BT2B.jpg","null","",NA,NA,NA,NA,""
"image-keyboard-response",383,330451,"0.0-4.123-2.123","jew5qbseds9j9kw",117,"72.csv","","null","resources/images/fishbone.png","null","",NA,NA,NA,NA,""
"image-keyboard-response",384,330781,"0.0-4.124-0.124","jew5qbseds9j9kw",117,"72.csv","","327.0999999642372","resources/trios/L1T2A3.jpg","37","restless",0.6,0.3,0.7,0.0310880092482422,"true"
"image-keyboard-response",385,331191,"0.0-4.124-1.124","jew5qbseds9j9kw",117,"72.csv","","null","resources/maskTrios/L1BB.jpg","null","",NA,NA,NA,NA,""
"image-keyboard-response",386,332404,"0.0-4.124-2.124","jew5qbseds9j9kw",117,"72.csv","","null","resources/images/coin2.png","null","",NA,NA,NA,NA,""
"image-keyboard-response",387,333658,"0.0-4.125-0.125","jew5qbseds9j9kw",117,"72.csv","","1250.2999999523163","resources/trios/L1T2A3.jpg","39","restless",0.6,0.3,0.7,0.685748612624547,"true"
"image-keyboard-response",388,334075,"0.0-4.125-1.125","jew5qbseds9j9kw",117,"72.csv","","null","resources/maskTrios/BBA3.jpg","null","",NA,NA,NA,NA,""
"image-keyboard-response",389,335288,"0.0-4.125-2.125","jew5qbseds9j9kw",117,"72.csv","","null","resources/images/coin2.png","null","",NA,NA,NA,NA,""
"image-keyboard-response",390,336588,"0.0-4.126-0.126","jew5qbseds9j9kw",117,"72.csv","","1296.9000000357628","resources/trios/L1T2A3.jpg","39","restless",0.6,0.3,0.7,0.414483759568487,"true"
"image-keyboard-response",391,337004,"0.0-4.126-1.126","jew5qbseds9j9kw",117,"72.csv","","null","resources/maskTrios/BBA3.jpg","null","",NA,NA,NA,NA,""
"image-keyboard-response",392,338218,"0.0-4.126-2.126","jew5qbseds9j9kw",117,"72.csv","","null","resources/images/coin2.png","null","",NA,NA,NA,NA,""
"image-keyboard-response",393,338632,"0.0-4.127-0.127","jew5qbseds9j9kw",117,"72.csv","","410.5","resources/trios/L1T2A3.jpg","37","restless",0.6,0.3,0.7,0.539479191161952,"true"
"image-keyboard-response",394,339041,"0.0-4.127-1.127","jew5qbseds9j9kw",117,"72.csv","","null","resources/maskTrios/L1BB.jpg","null","",NA,NA,NA,NA,""
"image-keyboard-response",395,340254,"0.0-4.127-2.127","jew5qbseds9j9kw",117,"72.csv","","null","resources/images/coin2.png","null","",NA,NA,NA,NA,""
"image-keyboard-response",396,340597,"0.0-4.128-0.128","jew5qbseds9j9kw",117,"72.csv","","340.7999999523163","resources/trios/L1T2A3.jpg","38","restless",0.6,0.2,0.7,0.216295998074722,"false"
"image-keyboard-response",397,341009,"0.0-4.128-1.128","jew5qbseds9j9kw",117,"72.csv","","null","resources/maskTrios/BT2B.jpg","null","",NA,NA,NA,NA,""
"image-keyboard-response",398,342222,"0.0-4.128-2.128","jew5qbseds9j9kw",117,"72.csv","","null","resources/images/fishbone.png","null","",NA,NA,NA,NA,""
"image-keyboard-response",399,342507,"0.0-4.129-0.129","jew5qbseds9j9kw",117,"72.csv","","282.5","resources/trios/L1T2A3.jpg","39","restless",0.6,0.2,0.6,0.0879124200124159,"true"
"image-keyboard-response",400,342915,"0.0-4.129-1.129","jew5qbseds9j9kw",117,"72.csv","","null","resources/maskTrios/BBA3.jpg","null","",NA,NA,NA,NA,""
"image-keyboard-response",401,344128,"0.0-4.129-2.129","jew5qbseds9j9kw",117,"72.csv","","null","resources/images/coin2.png","null","",NA,NA,NA,NA,""
"image-keyboard-response",402,344439,"0.0-4.130-0.130","jew5qbseds9j9kw",117,"72.csv","","307.39999997615814","resources/trios/L1T2A3.jpg","39","restless",0.6,0.2,0.6,0.846426678788903,"false"
"image-keyboard-response",403,344852,"0.0-4.130-1.130","jew5qbseds9j9kw",117,"72.csv","","null","resources/maskTrios/BBA3.jpg","null","",NA,NA,NA,NA,""
"image-keyboard-response",404,346066,"0.0-4.130-2.130","jew5qbseds9j9kw",117,"72.csv","","null","resources/images/fishbone.png","null","",NA,NA,NA,NA,""
"image-keyboard-response",405,346133,"0.0-4.131-0.131","jew5qbseds9j9kw",117,"72.csv","","63.700000047683716","resources/trios/L1T2A3.jpg","37","restless",0.6,0.2,0.6,0.820488041457517,"false"
"image-keyboard-response",406,346538,"0.0-4.131-1.131","jew5qbseds9j9kw",117,"72.csv","","null","resources/maskTrios/L1BB.jpg","null","",NA,NA,NA,NA,""
"image-keyboard-response",407,347753,"0.0-4.131-2.131","jew5qbseds9j9kw",117,"72.csv","","null","resources/images/fishbone.png","null","",NA,NA,NA,NA,""
"image-keyboard-response",408,347795,"0.0-4.132-0.132","jew5qbseds9j9kw",117,"72.csv","","38.80000001192093","resources/trios/L1T2A3.jpg","38","restless",0.6,0.2,0.6,0.15695130478774,"true"
"image-keyboard-response",409,348210,"0.0-4.132-1.132","jew5qbseds9j9kw",117,"72.csv","","null","resources/maskTrios/BT2B.jpg","null","",NA,NA,NA,NA,""
"image-keyboard-response",410,349424,"0.0-4.132-2.132","jew5qbseds9j9kw",117,"72.csv","","null","resources/images/coin2.png","null","",NA,NA,NA,NA,""
"image-keyboard-response",411,349699,"0.0-4.133-0.133","jew5qbseds9j9kw",117,"72.csv","","272","resources/trios/L1T2A3.jpg","38","restless",0.6,0.2,0.6,0.0458333415809715,"true"
"image-keyboard-response",412,350116,"0.0-4.133-1.133","jew5qbseds9j9kw",117,"72.csv","","null","resources/maskTrios/BT2B.jpg","null","",NA,NA,NA,NA,""
"image-keyboard-response",413,351328,"0.0-4.133-2.133","jew5qbseds9j9kw",117,"72.csv","","null","resources/images/coin2.png","null","",NA,NA,NA,NA,""
"image-keyboard-response",414,351608,"0.0-4.134-0.134","jew5qbseds9j9kw",117,"72.csv","","277.19999998807907","resources/trios/L1T2A3.jpg","38","restless",0.6,0.2,0.6,0.705287417044822,"false"
"image-keyboard-response",415,352022,"0.0-4.134-1.134","jew5qbseds9j9kw",117,"72.csv","","null","resources/maskTrios/BT2B.jpg","null","",NA,NA,NA,NA,""
"image-keyboard-response",416,353238,"0.0-4.134-2.134","jew5qbseds9j9kw",117,"72.csv","","null","resources/images/fishbone.png","null","",NA,NA,NA,NA,""
"image-keyboard-response",417,353709,"0.0-4.135-0.135","jew5qbseds9j9kw",117,"72.csv","","468.10000002384186","resources/trios/L1T2A3.jpg","37","restless",0.6,0.2,0.5,0.359900698157544,"true"
"image-keyboard-response",418,354120,"0.0-4.135-1.135","jew5qbseds9j9kw",117,"72.csv","","null","resources/maskTrios/L1BB.jpg","null","",NA,NA,NA,NA,""
"image-keyboard-response",419,355332,"0.0-4.135-2.135","jew5qbseds9j9kw",117,"72.csv","","null","resources/images/coin2.png","null","",NA,NA,NA,NA,""
"image-keyboard-response",420,355680,"0.0-4.136-0.136","jew5qbseds9j9kw",117,"72.csv","","344.19999998807907","resources/trios/L1T2A3.jpg","37","restless",0.6,0.3,0.4,0.625701297739185,"false"
"image-keyboard-response",421,356088,"0.0-4.136-1.136","jew5qbseds9j9kw",117,"72.csv","","null","resources/maskTrios/L1BB.jpg","null","",NA,NA,NA,NA,""
"image-keyboard-response",422,357300,"0.0-4.136-2.136","jew5qbseds9j9kw",117,"72.csv","","null","resources/images/fishbone.png","null","",NA,NA,NA,NA,""
"image-keyboard-response",423,357522,"0.0-4.137-0.137","jew5qbseds9j9kw",117,"72.csv","","218","resources/trios/L1T2A3.jpg","39","restless",0.7,0.3,0.4,0.0475613209702621,"true"
"image-keyboard-response",424,357930,"0.0-4.137-1.137","jew5qbseds9j9kw",117,"72.csv","","null","resources/maskTrios/BBA3.jpg","null","",NA,NA,NA,NA,""
"image-keyboard-response",425,359144,"0.0-4.137-2.137","jew5qbseds9j9kw",117,"72.csv","","null","resources/images/coin2.png","null","",NA,NA,NA,NA,""
"image-keyboard-response",426,359281,"0.0-4.138-0.138","jew5qbseds9j9kw",117,"72.csv","","133.39999997615814","resources/trios/L1T2A3.jpg","38","restless",0.7,0.3,0.4,0.860514973337202,"false"
"image-keyboard-response",427,359695,"0.0-4.138-1.138","jew5qbseds9j9kw",117,"72.csv","","null","resources/maskTrios/BT2B.jpg","null","",NA,NA,NA,NA,""
"image-keyboard-response",428,360907,"0.0-4.138-2.138","jew5qbseds9j9kw",117,"72.csv","","null","resources/images/fishbone.png","null","",NA,NA,NA,NA,""
"image-keyboard-response",429,361170,"0.0-4.139-0.139","jew5qbseds9j9kw",117,"72.csv","","259.39999997615814","resources/trios/L1T2A3.jpg","37","restless",0.7,0.3,0.4,0.593766312514886,"true"
"image-keyboard-response",430,361583,"0.0-4.139-1.139","jew5qbseds9j9kw",117,"72.csv","","null","resources/maskTrios/L1BB.jpg","null","",NA,NA,NA,NA,""
"image-keyboard-response",431,362797,"0.0-4.139-2.139","jew5qbseds9j9kw",117,"72.csv","","null","resources/images/coin2.png","null","",NA,NA,NA,NA,""
"image-keyboard-response",432,363146,"0.0-4.140-0.140","jew5qbseds9j9kw",117,"72.csv","","346.39999997615814","resources/trios/L1T2A3.jpg","39","restless",0.7,0.3,0.4,0.303622798058826,"true"
"image-keyboard-response",433,363554,"0.0-4.140-1.140","jew5qbseds9j9kw",117,"72.csv","","null","resources/maskTrios/BBA3.jpg","null","",NA,NA,NA,NA,""
"image-keyboard-response",434,364767,"0.0-4.140-2.140","jew5qbseds9j9kw",117,"72.csv","","null","resources/images/coin2.png","null","",NA,NA,NA,NA,""
"image-keyboard-response",435,365083,"0.0-4.141-0.141","jew5qbseds9j9kw",117,"72.csv","","313.30000001192093","resources/trios/L1T2A3.jpg","37","restless",0.6,0.3,0.4,0.109390305745435,"true"
"image-keyboard-response",436,365500,"0.0-4.141-1.141","jew5qbseds9j9kw",117,"72.csv","","null","resources/maskTrios/L1BB.jpg","null","",NA,NA,NA,NA,""
"image-keyboard-response",437,366707,"0.0-4.141-2.141","jew5qbseds9j9kw",117,"72.csv","","null","resources/images/coin2.png","null","",NA,NA,NA,NA,""
"image-keyboard-response",438,367034,"0.0-4.142-0.142","jew5qbseds9j9kw",117,"72.csv","","323.89999997615814","resources/trios/L1T2A3.jpg","39","restless",0.7,0.3,0.4,0.346179987418746,"true"
"image-keyboard-response",439,367448,"0.0-4.142-1.142","jew5qbseds9j9kw",117,"72.csv","","null","resources/maskTrios/BBA3.jpg","null","",NA,NA,NA,NA,""
"image-keyboard-response",440,368662,"0.0-4.142-2.142","jew5qbseds9j9kw",117,"72.csv","","null","resources/images/coin2.png","null","",NA,NA,NA,NA,""
"image-keyboard-response",441,368948,"0.0-4.143-0.143","jew5qbseds9j9kw",117,"72.csv","","283","resources/trios/L1T2A3.jpg","37","restless",0.7,0.3,0.4,0.382140443158312,"true"
"image-keyboard-response",442,369355,"0.0-4.143-1.143","jew5qbseds9j9kw",117,"72.csv","","null","resources/maskTrios/L1BB.jpg","null","",NA,NA,NA,NA,""
"image-keyboard-response",443,370567,"0.0-4.143-2.143","jew5qbseds9j9kw",117,"72.csv","","null","resources/images/coin2.png","null","",NA,NA,NA,NA,""
"image-keyboard-response",444,370834,"0.0-4.144-0.144","jew5qbseds9j9kw",117,"72.csv","","263.39999997615814","resources/trios/L1T2A3.jpg","39","restless",0.7,0.3,0.4,0.718497602742591,"false"
"image-keyboard-response",445,371245,"0.0-4.144-1.144","jew5qbseds9j9kw",117,"72.csv","","null","resources/maskTrios/BBA3.jpg","null","",NA,NA,NA,NA,""
"image-keyboard-response",446,372458,"0.0-4.144-2.144","jew5qbseds9j9kw",117,"72.csv","","null","resources/images/fishbone.png","null","",NA,NA,NA,NA,""
"image-keyboard-response",447,372710,"0.0-4.145-0.145","jew5qbseds9j9kw",117,"72.csv","","248.19999998807907","resources/trios/L1T2A3.jpg","38","restless",0.7,0.3,0.4,0.312445346164432,"false"
"image-keyboard-response",448,373121,"0.0-4.145-1.145","jew5qbseds9j9kw",117,"72.csv","","null","resources/maskTrios/BT2B.jpg","null","",NA,NA,NA,NA,""
"image-keyboard-response",449,374333,"0.0-4.145-2.145","jew5qbseds9j9kw",117,"72.csv","","null","resources/images/fishbone.png","null","",NA,NA,NA,NA,""
"image-keyboard-response",450,374583,"0.0-4.146-0.146","jew5qbseds9j9kw",117,"72.csv","","247.39999997615814","resources/trios/L1T2A3.jpg","37","restless",0.7,0.3,0.4,0.538890322337576,"true"
"image-keyboard-response",451,374997,"0.0-4.146-1.146","jew5qbseds9j9kw",117,"72.csv","","null","resources/maskTrios/L1BB.jpg","null","",NA,NA,NA,NA,""
"image-keyboard-response",452,376206,"0.0-4.146-2.146","jew5qbseds9j9kw",117,"72.csv","","null","resources/images/coin2.png","null","",NA,NA,NA,NA,""
"image-keyboard-response",453,376789,"0.0-4.147-0.147","jew5qbseds9j9kw",117,"72.csv","","580.1000000238419","resources/trios/L1T2A3.jpg","37","restless",0.7,0.3,0.4,0.0851501194550919,"true"
"image-keyboard-response",454,377202,"0.0-4.147-1.147","jew5qbseds9j9kw",117,"72.csv","","null","resources/maskTrios/L1BB.jpg","null","",NA,NA,NA,NA,""
"image-keyboard-response",455,378414,"0.0-4.147-2.147","jew5qbseds9j9kw",117,"72.csv","","null","resources/images/coin2.png","null","",NA,NA,NA,NA,""
"image-keyboard-response",456,378833,"0.0-4.148-0.148","jew5qbseds9j9kw",117,"72.csv","","415.5","resources/trios/L1T2A3.jpg","37","restless",0.7,0.3,0.4,0.971692377968838,"false"
"image-keyboard-response",457,379249,"0.0-4.148-1.148","jew5qbseds9j9kw",117,"72.csv","","null","resources/maskTrios/L1BB.jpg","null","",NA,NA,NA,NA,""
"image-keyboard-response",458,380457,"0.0-4.148-2.148","jew5qbseds9j9kw",117,"72.csv","","null","resources/images/fishbone.png","null","",NA,NA,NA,NA,""
"image-keyboard-response",459,380683,"0.0-4.149-0.149","jew5qbseds9j9kw",117,"72.csv","","222.5","resources/trios/L1T2A3.jpg","38","restless",0.7,0.3,0.4,0.571374854287914,"false"
"image-keyboard-response",460,381102,"0.0-4.149-1.149","jew5qbseds9j9kw",117,"72.csv","","null","resources/maskTrios/BT2B.jpg","null","",NA,NA,NA,NA,""
"image-keyboard-response",461,382316,"0.0-4.149-2.149","jew5qbseds9j9kw",117,"72.csv","","null","resources/images/fishbone.png","null","",NA,NA,NA,NA,""
"image-keyboard-response",462,382606,"0.0-4.150-0.150","jew5qbseds9j9kw",117,"72.csv","","286.69999998807907","resources/trios/L1T2A3.jpg","38","restless",0.7,0.3,0.4,0.906939374344383,"false"
"image-keyboard-response",463,383011,"0.0-4.150-1.150","jew5qbseds9j9kw",117,"72.csv","","null","resources/maskTrios/BT2B.jpg","null","",NA,NA,NA,NA,""
"image-keyboard-response",464,384225,"0.0-4.150-2.150","jew5qbseds9j9kw",117,"72.csv","","null","resources/images/fishbone.png","null","",NA,NA,NA,NA,""
"image-keyboard-response",465,384444,"0.0-4.151-0.151","jew5qbseds9j9kw",117,"72.csv","","215.80000001192093","resources/trios/L1T2A3.jpg","38","restless",0.7,0.4,0.4,0.0287277197219664,"true"
"image-keyboard-response",466,384855,"0.0-4.151-1.151","jew5qbseds9j9kw",117,"72.csv","","null","resources/maskTrios/BT2B.jpg","null","",NA,NA,NA,NA,""
"image-keyboard-response",467,386068,"0.0-4.151-2.151","jew5qbseds9j9kw",117,"72.csv","","null","resources/images/coin2.png","null","",NA,NA,NA,NA,""
"image-keyboard-response",468,386450,"0.0-4.152-0.152","jew5qbseds9j9kw",117,"72.csv","","378.5999999642372","resources/trios/L1T2A3.jpg","38","restless",0.7,0.4,0.4,0.921468506720508,"false"
"image-keyboard-response",469,386858,"0.0-4.152-1.152","jew5qbseds9j9kw",117,"72.csv","","null","resources/maskTrios/BT2B.jpg","null","",NA,NA,NA,NA,""
"image-keyboard-response",470,388071,"0.0-4.152-2.152","jew5qbseds9j9kw",117,"72.csv","","null","resources/images/fishbone.png","null","",NA,NA,NA,NA,""
"image-keyboard-response",471,388281,"0.0-4.153-0.153","jew5qbseds9j9kw",117,"72.csv","","206.79999995231628","resources/trios/L1T2A3.jpg","37","restless",0.6,0.4,0.3,0.826651195734678,"false"
"image-keyboard-response",472,388685,"0.0-4.153-1.153","jew5qbseds9j9kw",117,"72.csv","","null","resources/maskTrios/L1BB.jpg","null","",NA,NA,NA,NA,""
"image-keyboard-response",473,389896,"0.0-4.153-2.153","jew5qbseds9j9kw",117,"72.csv","","null","resources/images/fishbone.png","null","",NA,NA,NA,NA,""
"image-keyboard-response",474,389956,"0.0-4.154-0.154","jew5qbseds9j9kw",117,"72.csv","","56.60000002384186","resources/trios/L1T2A3.jpg","39","restless",0.6,0.4,0.3,0.576260956635567,"false"
"image-keyboard-response",475,390368,"0.0-4.154-1.154","jew5qbseds9j9kw",117,"72.csv","","null","resources/maskTrios/BBA3.jpg","null","",NA,NA,NA,NA,""
"image-keyboard-response",476,391580,"0.0-4.154-2.154","jew5qbseds9j9kw",117,"72.csv","","null","resources/images/fishbone.png","null","",NA,NA,NA,NA,""
"image-keyboard-response",477,391586,"0.0-4.155-0.155","jew5qbseds9j9kw",117,"72.csv","","1.199999988079071","resources/trios/L1T2A3.jpg","38","restless",0.6,0.4,0.3,0.906553694581013,"false"
"image-keyboard-response",478,391990,"0.0-4.155-1.155","jew5qbseds9j9kw",117,"72.csv","","null","resources/maskTrios/BT2B.jpg","null","",NA,NA,NA,NA,""
"image-keyboard-response",479,393203,"0.0-4.155-2.155","jew5qbseds9j9kw",117,"72.csv","","null","resources/images/fishbone.png","null","",NA,NA,NA,NA,""
"image-keyboard-response",480,393225,"0.0-4.156-0.156","jew5qbseds9j9kw",117,"72.csv","","19","resources/trios/L1T2A3.jpg","37","restless",0.6,0.4,0.3,0.0142818132662441,"true"
"image-keyboard-response",481,393642,"0.0-4.156-1.156","jew5qbseds9j9kw",117,"72.csv","","null","resources/maskTrios/L1BB.jpg","null","",NA,NA,NA,NA,""
"image-keyboard-response",482,394857,"0.0-4.156-2.156","jew5qbseds9j9kw",117,"72.csv","","null","resources/images/coin2.png","null","",NA,NA,NA,NA,""
"image-keyboard-response",483,395069,"0.0-4.157-0.157","jew5qbseds9j9kw",117,"72.csv","","209.30000001192093","resources/trios/L1T2A3.jpg","37","restless",0.6,0.4,0.3,0.427604977066718,"true"
"image-keyboard-response",484,395487,"0.0-4.157-1.157","jew5qbseds9j9kw",117,"72.csv","","null","resources/maskTrios/L1BB.jpg","null","",NA,NA,NA,NA,""
"image-keyboard-response",485,396700,"0.0-4.157-2.157","jew5qbseds9j9kw",117,"72.csv","","null","resources/images/coin2.png","null","",NA,NA,NA,NA,""
"image-keyboard-response",486,397052,"0.0-4.158-0.158","jew5qbseds9j9kw",117,"72.csv","","348.5999999642372","resources/trios/L1T2A3.jpg","37","restless",0.6,0.4,0.3,0.94109362054668,"false"
"image-keyboard-response",487,397471,"0.0-4.158-1.158","jew5qbseds9j9kw",117,"72.csv","","null","resources/maskTrios/L1BB.jpg","null","",NA,NA,NA,NA,""
"image-keyboard-response",488,398684,"0.0-4.158-2.158","jew5qbseds9j9kw",117,"72.csv","","null","resources/images/fishbone.png","null","",NA,NA,NA,NA,""
"image-keyboard-response",489,398882,"0.0-4.159-0.159","jew5qbseds9j9kw",117,"72.csv","","194.30000001192093","resources/trios/L1T2A3.jpg","38","restless",0.6,0.4,0.3,0.990500441039757,"false"
"image-keyboard-response",490,399298,"0.0-4.159-1.159","jew5qbseds9j9kw",117,"72.csv","","null","resources/maskTrios/BT2B.jpg","null","",NA,NA,NA,NA,""
"image-keyboard-response",491,400514,"0.0-4.159-2.159","jew5qbseds9j9kw",117,"72.csv","","null","resources/images/fishbone.png","null","",NA,NA,NA,NA,""
"image-keyboard-response",492,400951,"0.0-4.160-0.160","jew5qbseds9j9kw",117,"72.csv","","433","resources/trios/L1T2A3.jpg","39","restless",0.6,0.4,0.3,0.151041319083947,"true"
"image-keyboard-response",493,401365,"0.0-4.160-1.160","jew5qbseds9j9kw",117,"72.csv","","null","resources/maskTrios/BBA3.jpg","null","",NA,NA,NA,NA,""
"image-keyboard-response",494,402579,"0.0-4.160-2.160","jew5qbseds9j9kw",117,"72.csv","","null","resources/images/coin2.png","null","",NA,NA,NA,NA,""
"image-keyboard-response",495,402617,"0.0-4.161-0.161","jew5qbseds9j9kw",117,"72.csv","","35.19999998807907","resources/trios/L1T2A3.jpg","39","restless",0.6,0.4,0.3,0.7178567948205,"false"
"image-keyboard-response",496,403036,"0.0-4.161-1.161","jew5qbseds9j9kw",117,"72.csv","","null","resources/maskTrios/BBA3.jpg","null","",NA,NA,NA,NA,""
"image-keyboard-response",497,404250,"0.0-4.161-2.161","jew5qbseds9j9kw",117,"72.csv","","null","resources/images/fishbone.png","null","",NA,NA,NA,NA,""
"image-keyboard-response",498,404406,"0.0-4.162-0.162","jew5qbseds9j9kw",117,"72.csv","","152.39999997615814","resources/trios/L1T2A3.jpg","37","restless",0.6,0.4,0.2,0.707097086557963,"false"
"image-keyboard-response",499,404817,"0.0-4.162-1.162","jew5qbseds9j9kw",117,"72.csv","","null","resources/maskTrios/L1BB.jpg","null","",NA,NA,NA,NA,""
"image-keyboard-response",500,406031,"0.0-4.162-2.162","jew5qbseds9j9kw",117,"72.csv","","null","resources/images/fishbone.png","null","",NA,NA,NA,NA,""
"image-keyboard-response",501,406343,"0.0-4.163-0.163","jew5qbseds9j9kw",117,"72.csv","","308.4000000357628","resources/trios/L1T2A3.jpg","38","restless",0.6,0.4,0.2,0.650911041204499,"false"
"image-keyboard-response",502,406755,"0.0-4.163-1.163","jew5qbseds9j9kw",117,"72.csv","","null","resources/maskTrios/BT2B.jpg","null","",NA,NA,NA,NA,""
"image-keyboard-response",503,407970,"0.0-4.163-2.163","jew5qbseds9j9kw",117,"72.csv","","null","resources/images/fishbone.png","null","",NA,NA,NA,NA,""
"image-keyboard-response",504,408948,"0.0-4.164-0.164","jew5qbseds9j9kw",117,"72.csv","","977.5","resources/trios/L1T2A3.jpg","38","restless",0.6,0.4,0.2,0.434893822779314,"false"
"image-keyboard-response",505,409355,"0.0-4.164-1.164","jew5qbseds9j9kw",117,"72.csv","","null","resources/maskTrios/BT2B.jpg","null","",NA,NA,NA,NA,""
"image-keyboard-response",506,410567,"0.0-4.164-2.164","jew5qbseds9j9kw",117,"72.csv","","null","resources/images/fishbone.png","null","",NA,NA,NA,NA,""
"image-keyboard-response",507,410652,"0.0-4.165-0.165","jew5qbseds9j9kw",117,"72.csv","","81.89999997615814","resources/trios/L1T2A3.jpg","37","restless",0.6,0.4,0.2,0.771909282178871,"false"
"image-keyboard-response",508,411070,"0.0-4.165-1.165","jew5qbseds9j9kw",117,"72.csv","","null","resources/maskTrios/L1BB.jpg","null","",NA,NA,NA,NA,""
"image-keyboard-response",509,412282,"0.0-4.165-2.165","jew5qbseds9j9kw",117,"72.csv","","null","resources/images/fishbone.png","null","",NA,NA,NA,NA,""
"image-keyboard-response",510,412634,"0.0-4.166-0.166","jew5qbseds9j9kw",117,"72.csv","","348.19999998807907","resources/trios/L1T2A3.jpg","39","restless",0.6,0.4,0.2,0.105702380423041,"true"
"image-keyboard-response",511,413054,"0.0-4.166-1.166","jew5qbseds9j9kw",117,"72.csv","","null","resources/maskTrios/BBA3.jpg","null","",NA,NA,NA,NA,""
"image-keyboard-response",512,414267,"0.0-4.166-2.166","jew5qbseds9j9kw",117,"72.csv","","null","resources/images/coin2.png","null","",NA,NA,NA,NA,""
"image-keyboard-response",513,414465,"0.0-4.167-0.167","jew5qbseds9j9kw",117,"72.csv","","195.19999998807907","resources/trios/L1T2A3.jpg","39","restless",0.6,0.4,0.2,0.415467554033235,"false"
"image-keyboard-response",514,414880,"0.0-4.167-1.167","jew5qbseds9j9kw",117,"72.csv","","null","resources/maskTrios/BBA3.jpg","null","",NA,NA,NA,NA,""
"image-keyboard-response",515,416094,"0.0-4.167-2.167","jew5qbseds9j9kw",117,"72.csv","","null","resources/images/fishbone.png","null","",NA,NA,NA,NA,""
"image-keyboard-response",516,416427,"0.0-4.168-0.168","jew5qbseds9j9kw",117,"72.csv","","330.10000002384186","resources/trios/L1T2A3.jpg","37","restless",0.6,0.4,0.2,0.921005950612763,"false"
"image-keyboard-response",517,416833,"0.0-4.168-1.168","jew5qbseds9j9kw",117,"72.csv","","null","resources/maskTrios/L1BB.jpg","null","",NA,NA,NA,NA,""
"image-keyboard-response",518,418045,"0.0-4.168-2.168","jew5qbseds9j9kw",117,"72.csv","","null","resources/images/fishbone.png","null","",NA,NA,NA,NA,""
"image-keyboard-response",519,418647,"0.0-4.169-0.169","jew5qbseds9j9kw",117,"72.csv","","598.6000000238419","resources/trios/L1T2A3.jpg","38","restless",0.5,0.4,0.2,0.398881709104295,"true"
"image-keyboard-response",520,419056,"0.0-4.169-1.169","jew5qbseds9j9kw",117,"72.csv","","null","resources/maskTrios/BT2B.jpg","null","",NA,NA,NA,NA,""
"image-keyboard-response",521,420268,"0.0-4.169-2.169","jew5qbseds9j9kw",117,"72.csv","","null","resources/images/coin2.png","null","",NA,NA,NA,NA,""
"image-keyboard-response",522,420464,"0.0-4.170-0.170","jew5qbseds9j9kw",117,"72.csv","","192.30000001192093","resources/trios/L1T2A3.jpg","38","restless",0.5,0.4,0.2,0.887133180980758,"false"
"image-keyboard-response",523,420882,"0.0-4.170-1.170","jew5qbseds9j9kw",117,"72.csv","","null","resources/maskTrios/BT2B.jpg","null","",NA,NA,NA,NA,""
"image-keyboard-response",524,422095,"0.0-4.170-2.170","jew5qbseds9j9kw",117,"72.csv","","null","resources/images/fishbone.png","null","",NA,NA,NA,NA,""
"image-keyboard-response",525,422213,"0.0-4.171-0.171","jew5qbseds9j9kw",117,"72.csv","","114.59999996423721","resources/trios/L1T2A3.jpg","37","restless",0.5,0.4,0.2,0.323133932159119,"true"
"image-keyboard-response",526,422630,"0.0-4.171-1.171","jew5qbseds9j9kw",117,"72.csv","","null","resources/maskTrios/L1BB.jpg","null","",NA,NA,NA,NA,""
"image-keyboard-response",527,423845,"0.0-4.171-2.171","jew5qbseds9j9kw",117,"72.csv","","null","resources/images/coin2.png","null","",NA,NA,NA,NA,""
"image-keyboard-response",528,424417,"0.0-4.172-0.172","jew5qbseds9j9kw",117,"72.csv","","569.1999999880791","resources/trios/L1T2A3.jpg","39","restless",0.5,0.4,0.2,0.141215314396976,"true"
"image-keyboard-response",529,424822,"0.0-4.172-1.172","jew5qbseds9j9kw",117,"72.csv","","null","resources/maskTrios/BBA3.jpg","null","",NA,NA,NA,NA,""
"image-keyboard-response",530,426035,"0.0-4.172-2.172","jew5qbseds9j9kw",117,"72.csv","","null","resources/images/coin2.png","null","",NA,NA,NA,NA,""
"image-keyboard-response",531,426298,"0.0-4.173-0.173","jew5qbseds9j9kw",117,"72.csv","","259.69999998807907","resources/trios/L1T2A3.jpg","37","restless",0.5,0.4,0.2,0.612442929006875,"false"
"image-keyboard-response",532,426712,"0.0-4.173-1.173","jew5qbseds9j9kw",117,"72.csv","","null","resources/maskTrios/L1BB.jpg","null","",NA,NA,NA,NA,""
"image-keyboard-response",533,427927,"0.0-4.173-2.173","jew5qbseds9j9kw",117,"72.csv","","null","resources/images/fishbone.png","null","",NA,NA,NA,NA,""
"image-keyboard-response",534,428362,"0.0-4.174-0.174","jew5qbseds9j9kw",117,"72.csv","","431.80000001192093","resources/trios/L1T2A3.jpg","38","restless",0.5,0.3,0.2,0.533642146586528,"false"
"image-keyboard-response",535,428778,"0.0-4.174-1.174","jew5qbseds9j9kw",117,"72.csv","","null","resources/maskTrios/BT2B.jpg","null","",NA,NA,NA,NA,""
"image-keyboard-response",536,429992,"0.0-4.174-2.174","jew5qbseds9j9kw",117,"72.csv","","null","resources/images/fishbone.png","null","",NA,NA,NA,NA,""
"image-keyboard-response",537,431829,"0.0-4.175-0.175","jew5qbseds9j9kw",117,"72.csv","","1833.199999988079","resources/trios/L1T2A3.jpg","39","restless",0.5,0.3,0.2,0.308905857849057,"false"
"image-keyboard-response",538,432244,"0.0-4.175-1.175","jew5qbseds9j9kw",117,"72.csv","","null","resources/maskTrios/BBA3.jpg","null","",NA,NA,NA,NA,""
"image-keyboard-response",539,433457,"0.0-4.175-2.175","jew5qbseds9j9kw",117,"72.csv","","null","resources/images/fishbone.png","null","",NA,NA,NA,NA,""
"image-keyboard-response",540,433807,"0.0-4.176-0.176","jew5qbseds9j9kw",117,"72.csv","","344.80000001192093","resources/trios/L1T2A3.jpg","37","restless",0.5,0.3,0.2,0.538730081934905,"false"
"image-keyboard-response",541,434213,"0.0-4.176-1.176","jew5qbseds9j9kw",117,"72.csv","","null","resources/maskTrios/L1BB.jpg","null","",NA,NA,NA,NA,""
"image-keyboard-response",542,435427,"0.0-4.176-2.176","jew5qbseds9j9kw",117,"72.csv","","null","resources/images/fishbone.png","null","",NA,NA,NA,NA,""
"image-keyboard-response",543,435774,"0.0-4.177-0.177","jew5qbseds9j9kw",117,"72.csv","","343.10000002384186","resources/trios/L1T2A3.jpg","38","restless",0.5,0.2,0.2,0.141647949462369,"true"
"image-keyboard-response",544,436186,"0.0-4.177-1.177","jew5qbseds9j9kw",117,"72.csv","","null","resources/maskTrios/BT2B.jpg","null","",NA,NA,NA,NA,""
"image-keyboard-response",545,437400,"0.0-4.177-2.177","jew5qbseds9j9kw",117,"72.csv","","null","resources/images/coin2.png","null","",NA,NA,NA,NA,""
"image-keyboard-response",546,437684,"0.0-4.178-0.178","jew5qbseds9j9kw",117,"72.csv","","280.89999997615814","resources/trios/L1T2A3.jpg","39","restless",0.5,0.2,0.2,0.000966656848622183,"true"
"image-keyboard-response",547,438092,"0.0-4.178-1.178","jew5qbseds9j9kw",117,"72.csv","","null","resources/maskTrios/BBA3.jpg","null","",NA,NA,NA,NA,""
"image-keyboard-response",548,439305,"0.0-4.178-2.178","jew5qbseds9j9kw",117,"72.csv","","null","resources/images/coin2.png","null","",NA,NA,NA,NA,""
"image-keyboard-response",549,439685,"0.0-4.179-0.179","jew5qbseds9j9kw",117,"72.csv","","377.5","resources/trios/L1T2A3.jpg","37","restless",0.5,0.2,0.2,0.457954257100563,"true"
"image-keyboard-response",550,440093,"0.0-4.179-1.179","jew5qbseds9j9kw",117,"72.csv","","null","resources/maskTrios/L1BB.jpg","null","",NA,NA,NA,NA,""
"image-keyboard-response",551,441308,"0.0-4.179-2.179","jew5qbseds9j9kw",117,"72.csv","","null","resources/images/coin2.png","null","",NA,NA,NA,NA,""
"image-keyboard-response",552,441705,"0.0-4.180-0.180","jew5qbseds9j9kw",117,"72.csv","","393.7999999523163","resources/trios/L1T2A3.jpg","38","restless",0.5,0.2,0.2,0.0372517068012761,"true"
"image-keyboard-response",553,442111,"0.0-4.180-1.180","jew5qbseds9j9kw",117,"72.csv","","null","resources/maskTrios/BT2B.jpg","null","",NA,NA,NA,NA,""
"image-keyboard-response",554,443325,"0.0-4.180-2.180","jew5qbseds9j9kw",117,"72.csv","","null","resources/images/coin2.png","null","",NA,NA,NA,NA,""
"image-keyboard-response",555,443770,"0.0-4.181-0.181","jew5qbseds9j9kw",117,"72.csv","","441.60000002384186","resources/trios/L1T2A3.jpg","39","restless",0.4,0.2,0.2,0.474648354476899,"false"
"image-keyboard-response",556,444189,"0.0-4.181-1.181","jew5qbseds9j9kw",117,"72.csv","","null","resources/maskTrios/BBA3.jpg","null","",NA,NA,NA,NA,""
"image-keyboard-response",557,445403,"0.0-4.181-2.181","jew5qbseds9j9kw",117,"72.csv","","null","resources/images/fishbone.png","null","",NA,NA,NA,NA,""
"image-keyboard-response",558,445574,"0.0-4.182-0.182","jew5qbseds9j9kw",117,"72.csv","","167.60000002384186","resources/trios/L1T2A3.jpg","37","restless",0.4,0.2,0.2,0.256940674043453,"true"
"image-keyboard-response",559,445986,"0.0-4.182-1.182","jew5qbseds9j9kw",117,"72.csv","","null","resources/maskTrios/L1BB.jpg","null","",NA,NA,NA,NA,""
"image-keyboard-response",560,447200,"0.0-4.182-2.182","jew5qbseds9j9kw",117,"72.csv","","null","resources/images/coin2.png","null","",NA,NA,NA,NA,""
"image-keyboard-response",561,447402,"0.0-4.183-0.183","jew5qbseds9j9kw",117,"72.csv","","198.9000000357628","resources/trios/L1T2A3.jpg","39","restless",0.4,0.2,0.3,0.726632717116737,"false"
"image-keyboard-response",562,447814,"0.0-4.183-1.183","jew5qbseds9j9kw",117,"72.csv","","null","resources/maskTrios/BBA3.jpg","null","",NA,NA,NA,NA,""
"image-keyboard-response",563,449026,"0.0-4.183-2.183","jew5qbseds9j9kw",117,"72.csv","","null","resources/images/fishbone.png","null","",NA,NA,NA,NA,""
"image-keyboard-response",564,449256,"0.0-4.184-0.184","jew5qbseds9j9kw",117,"72.csv","","226.19999998807907","resources/trios/L1T2A3.jpg","38","restless",0.4,0.2,0.3,0.967719031750446,"false"
"image-keyboard-response",565,449665,"0.0-4.184-1.184","jew5qbseds9j9kw",117,"72.csv","","null","resources/maskTrios/BT2B.jpg","null","",NA,NA,NA,NA,""
"image-keyboard-response",566,450879,"0.0-4.184-2.184","jew5qbseds9j9kw",117,"72.csv","","null","resources/images/fishbone.png","null","",NA,NA,NA,NA,""
"image-keyboard-response",567,451297,"0.0-4.185-0.185","jew5qbseds9j9kw",117,"72.csv","","414.60000002384186","resources/trios/L1T2A3.jpg","37","restless",0.4,0.3,0.3,0.311232171938699,"true"
"image-keyboard-response",568,451713,"0.0-4.185-1.185","jew5qbseds9j9kw",117,"72.csv","","null","resources/maskTrios/L1BB.jpg","null","",NA,NA,NA,NA,""
"image-keyboard-response",569,452927,"0.0-4.185-2.185","jew5qbseds9j9kw",117,"72.csv","","null","resources/images/coin2.png","null","",NA,NA,NA,NA,""
"image-keyboard-response",570,453125,"0.0-4.186-0.186","jew5qbseds9j9kw",117,"72.csv","","194.69999998807907","resources/trios/L1T2A3.jpg","39","restless",0.4,0.3,0.3,0.584953739842327,"false"
"image-keyboard-response",571,453541,"0.0-4.186-1.186","jew5qbseds9j9kw",117,"72.csv","","null","resources/maskTrios/BBA3.jpg","null","",NA,NA,NA,NA,""
"image-keyboard-response",572,454754,"0.0-4.186-2.186","jew5qbseds9j9kw",117,"72.csv","","null","resources/images/fishbone.png","null","",NA,NA,NA,NA,""
"image-keyboard-response",573,454769,"0.0-4.187-0.187","jew5qbseds9j9kw",117,"72.csv","","11","resources/trios/L1T2A3.jpg","37","restless",0.4,0.3,0.3,0.434438868494651,"false"
"image-keyboard-response",574,455180,"0.0-4.187-1.187","jew5qbseds9j9kw",117,"72.csv","","null","resources/maskTrios/L1BB.jpg","null","",NA,NA,NA,NA,""
"image-keyboard-response",575,456394,"0.0-4.187-2.187","jew5qbseds9j9kw",117,"72.csv","","null","resources/images/fishbone.png","null","",NA,NA,NA,NA,""
"image-keyboard-response",576,456852,"0.0-4.188-0.188","jew5qbseds9j9kw",117,"72.csv","","454.69999998807907","resources/trios/L1T2A3.jpg","38","restless",0.4,0.3,0.3,0.90521154644788,"false"
"image-keyboard-response",577,457260,"0.0-4.188-1.188","jew5qbseds9j9kw",117,"72.csv","","null","resources/maskTrios/BT2B.jpg","null","",NA,NA,NA,NA,""
"image-keyboard-response",578,458474,"0.0-4.188-2.188","jew5qbseds9j9kw",117,"72.csv","","null","resources/images/fishbone.png","null","",NA,NA,NA,NA,""
"image-keyboard-response",579,458849,"0.0-4.189-0.189","jew5qbseds9j9kw",117,"72.csv","","371.80000001192093","resources/trios/L1T2A3.jpg","37","restless",0.4,0.3,0.3,0.849698132744441,"false"
"image-keyboard-response",580,459262,"0.0-4.189-1.189","jew5qbseds9j9kw",117,"72.csv","","null","resources/maskTrios/L1BB.jpg","null","",NA,NA,NA,NA,""
"image-keyboard-response",581,460476,"0.0-4.189-2.189","jew5qbseds9j9kw",117,"72.csv","","null","resources/images/fishbone.png","null","",NA,NA,NA,NA,""
"image-keyboard-response",582,460881,"0.0-4.190-0.190","jew5qbseds9j9kw",117,"72.csv","","401.19999998807907","resources/trios/L1T2A3.jpg","39","restless",0.5,0.4,0.3,0.574100753573905,"false"
"image-keyboard-response",583,461295,"0.0-4.190-1.190","jew5qbseds9j9kw",117,"72.csv","","null","resources/maskTrios/BBA3.jpg","null","",NA,NA,NA,NA,""
"image-keyboard-response",584,462508,"0.0-4.190-2.190","jew5qbseds9j9kw",117,"72.csv","","null","resources/images/fishbone.png","null","",NA,NA,NA,NA,""
"image-keyboard-response",585,462532,"0.0-4.191-0.191","jew5qbseds9j9kw",117,"72.csv","","21.399999976158142","resources/trios/L1T2A3.jpg","37","restless",0.5,0.4,0.3,0.614502531147036,"false"
"image-keyboard-response",586,462947,"0.0-4.191-1.191","jew5qbseds9j9kw",117,"72.csv","","null","resources/maskTrios/L1BB.jpg","null","",NA,NA,NA,NA,""
"image-keyboard-response",587,464160,"0.0-4.191-2.191","jew5qbseds9j9kw",117,"72.csv","","null","resources/images/fishbone.png","null","",NA,NA,NA,NA,""
"image-keyboard-response",588,464399,"0.0-4.192-0.192","jew5qbseds9j9kw",117,"72.csv","","235.5","resources/trios/L1T2A3.jpg","38","restless",0.5,0.4,0.3,0.794844680871359,"false"
"image-keyboard-response",589,464807,"0.0-4.192-1.192","jew5qbseds9j9kw",117,"72.csv","","null","resources/maskTrios/BT2B.jpg","null","",NA,NA,NA,NA,""
"image-keyboard-response",590,466020,"0.0-4.192-2.192","jew5qbseds9j9kw",117,"72.csv","","null","resources/images/fishbone.png","null","",NA,NA,NA,NA,""
"image-keyboard-response",591,466372,"0.0-4.193-0.193","jew5qbseds9j9kw",117,"72.csv","","348.69999998807907","resources/trios/L1T2A3.jpg","39","restless",0.5,0.4,0.3,0.882031828087082,"false"
"image-keyboard-response",592,466790,"0.0-4.193-1.193","jew5qbseds9j9kw",117,"72.csv","","null","resources/maskTrios/BBA3.jpg","null","",NA,NA,NA,NA,""
"image-keyboard-response",593,468003,"0.0-4.193-2.193","jew5qbseds9j9kw",117,"72.csv","","null","resources/images/fishbone.png","null","",NA,NA,NA,NA,""
"image-keyboard-response",594,468403,"0.0-4.194-0.194","jew5qbseds9j9kw",117,"72.csv","","396.5","resources/trios/L1T2A3.jpg","37","restless",0.5,0.4,0.3,0.396037038263826,"true"
"image-keyboard-response",595,468808,"0.0-4.194-1.194","jew5qbseds9j9kw",117,"72.csv","","null","resources/maskTrios/L1BB.jpg","null","",NA,NA,NA,NA,""
"image-keyboard-response",596,470024,"0.0-4.194-2.194","jew5qbseds9j9kw",117,"72.csv","","null","resources/images/coin2.png","null","",NA,NA,NA,NA,""
"image-keyboard-response",597,470368,"0.0-4.195-0.195","jew5qbseds9j9kw",117,"72.csv","","341.2000000476837","resources/trios/L1T2A3.jpg","37","restless",0.5,0.4,0.3,0.0670782129550755,"true"
"image-keyboard-response",598,470779,"0.0-4.195-1.195","jew5qbseds9j9kw",117,"72.csv","","null","resources/maskTrios/L1BB.jpg","null","",NA,NA,NA,NA,""
"image-keyboard-response",599,471992,"0.0-4.195-2.195","jew5qbseds9j9kw",117,"72.csv","","null","resources/images/coin2.png","null","",NA,NA,NA,NA,""
"image-keyboard-response",600,472178,"0.0-4.196-0.196","jew5qbseds9j9kw",117,"72.csv","","182.5999999642372","resources/trios/L1T2A3.jpg","37","restless",0.5,0.4,0.3,0.999571454835234,"false"
"image-keyboard-response",601,472591,"0.0-4.196-1.196","jew5qbseds9j9kw",117,"72.csv","","null","resources/maskTrios/L1BB.jpg","null","",NA,NA,NA,NA,""
"image-keyboard-response",602,473806,"0.0-4.196-2.196","jew5qbseds9j9kw",117,"72.csv","","null","resources/images/fishbone.png","null","",NA,NA,NA,NA,""
"image-keyboard-response",603,474127,"0.0-4.197-0.197","jew5qbseds9j9kw",117,"72.csv","","317.0999999642372","resources/trios/L1T2A3.jpg","38","restless",0.4,0.4,0.3,0.0672347904026167,"true"
"image-keyboard-response",604,474547,"0.0-4.197-1.197","jew5qbseds9j9kw",117,"72.csv","","null","resources/maskTrios/BT2B.jpg","null","",NA,NA,NA,NA,""
"image-keyboard-response",605,475758,"0.0-4.197-2.197","jew5qbseds9j9kw",117,"72.csv","","null","resources/images/coin2.png","null","",NA,NA,NA,NA,""
"image-keyboard-response",606,476123,"0.0-4.198-0.198","jew5qbseds9j9kw",117,"72.csv","","361.5999999642372","resources/trios/L1T2A3.jpg","39","restless",0.4,0.4,0.2,0.858961054329048,"false"
"image-keyboard-response",607,476530,"0.0-4.198-1.198","jew5qbseds9j9kw",117,"72.csv","","null","resources/maskTrios/BBA3.jpg","null","",NA,NA,NA,NA,""
"image-keyboard-response",608,477744,"0.0-4.198-2.198","jew5qbseds9j9kw",117,"72.csv","","null","resources/images/fishbone.png","null","",NA,NA,NA,NA,""
"image-keyboard-response",609,477978,"0.0-4.199-0.199","jew5qbseds9j9kw",117,"72.csv","","230.5","resources/trios/L1T2A3.jpg","38","restless",0.4,0.4,0.3,0.847864457790805,"false"
"image-keyboard-response",610,478384,"0.0-4.199-1.199","jew5qbseds9j9kw",117,"72.csv","","null","resources/maskTrios/BT2B.jpg","null","",NA,NA,NA,NA,""
"image-keyboard-response",611,479597,"0.0-4.199-2.199","jew5qbseds9j9kw",117,"72.csv","","null","resources/images/fishbone.png","null","",NA,NA,NA,NA,""
"survey-text",612,491695,"0.0-5.0","jew5qbseds9j9kw",117,"72.csv","","12083","","","",NA,NA,NA,NA,""
