"trial_type","trial_index","time_elapsed","internal_node_id","subject","participantCode","walkNumber","success","rt","stimulus","key_press","test_part","leftProb","midProb","rightProb","generatedNum","correct"
"pavlovia",0,747,"0.0-0.0","tgdugzqgqvl0tok",522,"168.csv","","","","","",NA,NA,NA,NA,""
"fullscreen",1,4763,"0.0-1.0","tgdugzqgqvl0tok",522,"168.csv","true","","","","",NA,NA,NA,NA,""
"survey-html-form",2,12402,"0.0-2.0","tgdugzqgqvl0tok",522,"168.csv","","7636.5","","","",NA,NA,NA,NA,""
"image-keyboard-response",3,45120,"0.0-3.0-0.0","tgdugzqgqvl0tok",522,"168.csv","","32714.600000023842","resources/images/parrot_nobg.png","13","",NA,NA,NA,NA,""
"image-keyboard-response",4,48122,"0.0-3.0-1.0","tgdugzqgqvl0tok",522,"168.csv","","null","resources/image_sets/111.png","null","",NA,NA,NA,NA,""
"image-keyboard-response",5,61118,"0.0-3.0-2.0","tgdugzqgqvl0tok",522,"168.csv","","12993.300000011921","resources/image_sets/left_highlight.png","37","",NA,NA,NA,NA,""
"image-keyboard-response",6,64230,"0.0-3.0-3.0","tgdugzqgqvl0tok",522,"168.csv","","3110.699999988079","resources/image_sets/mid_highlight.png","38","",NA,NA,NA,NA,""
"image-keyboard-response",7,68302,"0.0-3.0-4.0","tgdugzqgqvl0tok",522,"168.csv","","4070.400000035763","resources/image_sets/right_highlight.png","39","",NA,NA,NA,NA,""
"image-keyboard-response",8,71798,"0.0-3.0-5.0","tgdugzqgqvl0tok",522,"168.csv","","3494.600000023842","resources/image_sets/111.png","13","",NA,NA,NA,NA,""
"image-keyboard-response",9,79814,"0.0-3.0-6.0","tgdugzqgqvl0tok",522,"168.csv","","8014.899999976158","resources/images/coin2.png","13","",NA,NA,NA,NA,""
"image-keyboard-response",10,85502,"0.0-3.0-7.0","tgdugzqgqvl0tok",522,"168.csv","","5687","resources/images/fishbone.png","13","",NA,NA,NA,NA,""
"html-keyboard-response",11,93942,"0.0-3.0-8.0","tgdugzqgqvl0tok",522,"168.csv","","8438.5","<p>You can track your coin total on the top right of your screen. </p><p>At the end of your journey you will be directed to a survey, so please click on the link before exiting the task</p><p>Press Enter to begin</p>","13","",NA,NA,NA,NA,""
"image-keyboard-response",12,101694,"0.0-4.0-0.0","tgdugzqgqvl0tok",522,"168.csv","","7749.5","resources/trios/L1T2A3.jpg","38","restless",0.7,0.9,0.3,0.811133583461169,"true"
"image-keyboard-response",13,102099,"0.0-4.0-1.0","tgdugzqgqvl0tok",522,"168.csv","","null","resources/maskTrios/BT2B.jpg","null","",NA,NA,NA,NA,""
"image-keyboard-response",14,103304,"0.0-4.0-2.0","tgdugzqgqvl0tok",522,"168.csv","","null","resources/images/coin2.png","null","",NA,NA,NA,NA,""
"image-keyboard-response",15,106254,"0.0-4.1-0.1","tgdugzqgqvl0tok",522,"168.csv","","2947.5","resources/trios/L1T2A3.jpg","38","restless",0.7,0.9,0.3,0.435930363464654,"true"
"image-keyboard-response",16,106656,"0.0-4.1-1.1","tgdugzqgqvl0tok",522,"168.csv","","null","resources/maskTrios/BT2B.jpg","null","",NA,NA,NA,NA,""
"image-keyboard-response",17,107859,"0.0-4.1-2.1","tgdugzqgqvl0tok",522,"168.csv","","null","resources/images/coin2.png","null","",NA,NA,NA,NA,""
"image-keyboard-response",18,108366,"0.0-4.2-0.2","tgdugzqgqvl0tok",522,"168.csv","","504.69999998807907","resources/trios/L1T2A3.jpg","38","restless",0.7,0.9,0.3,0.79779602500119,"true"
"image-keyboard-response",19,108768,"0.0-4.2-1.2","tgdugzqgqvl0tok",522,"168.csv","","null","resources/maskTrios/BT2B.jpg","null","",NA,NA,NA,NA,""
"image-keyboard-response",20,109970,"0.0-4.2-2.2","tgdugzqgqvl0tok",522,"168.csv","","null","resources/images/coin2.png","null","",NA,NA,NA,NA,""
"image-keyboard-response",21,111478,"0.0-4.3-0.3","tgdugzqgqvl0tok",522,"168.csv","","1505.5","resources/trios/L1T2A3.jpg","38","restless",0.7,0.9,0.3,0.769025916043484,"true"
"image-keyboard-response",22,111880,"0.0-4.3-1.3","tgdugzqgqvl0tok",522,"168.csv","","null","resources/maskTrios/BT2B.jpg","null","",NA,NA,NA,NA,""
"image-keyboard-response",23,113082,"0.0-4.3-2.3","tgdugzqgqvl0tok",522,"168.csv","","null","resources/images/coin2.png","null","",NA,NA,NA,NA,""
"image-keyboard-response",24,113342,"0.0-4.4-0.4","tgdugzqgqvl0tok",522,"168.csv","","258.0999999642372","resources/trios/L1T2A3.jpg","38","restless",0.7,0.9,0.3,0.974550903576427,"false"
"image-keyboard-response",25,113750,"0.0-4.4-1.4","tgdugzqgqvl0tok",522,"168.csv","","null","resources/maskTrios/BT2B.jpg","null","",NA,NA,NA,NA,""
"image-keyboard-response",26,114952,"0.0-4.4-2.4","tgdugzqgqvl0tok",522,"168.csv","","null","resources/images/fishbone.png","null","",NA,NA,NA,NA,""
"image-keyboard-response",27,117294,"0.0-4.5-0.5","tgdugzqgqvl0tok",522,"168.csv","","2340.2999999523163","resources/trios/L1T2A3.jpg","38","restless",0.7,0.9,0.2,0.241723911616724,"true"
"image-keyboard-response",28,117696,"0.0-4.5-1.5","tgdugzqgqvl0tok",522,"168.csv","","null","resources/maskTrios/BT2B.jpg","null","",NA,NA,NA,NA,""
"image-keyboard-response",29,118899,"0.0-4.5-2.5","tgdugzqgqvl0tok",522,"168.csv","","null","resources/images/coin2.png","null","",NA,NA,NA,NA,""
"image-keyboard-response",30,119502,"0.0-4.6-0.6","tgdugzqgqvl0tok",522,"168.csv","","600.6999999880791","resources/trios/L1T2A3.jpg","38","restless",0.7,0.9,0.1,0.126316471814328,"true"
"image-keyboard-response",31,119904,"0.0-4.6-1.6","tgdugzqgqvl0tok",522,"168.csv","","null","resources/maskTrios/BT2B.jpg","null","",NA,NA,NA,NA,""
"image-keyboard-response",32,121108,"0.0-4.6-2.6","tgdugzqgqvl0tok",522,"168.csv","","null","resources/images/coin2.png","null","",NA,NA,NA,NA,""
"image-keyboard-response",33,121773,"0.0-4.7-0.7","tgdugzqgqvl0tok",522,"168.csv","","663.8999999761581","resources/trios/L1T2A3.jpg","38","restless",0.6,0.9,0.2,0.691420276608889,"true"
"image-keyboard-response",34,122176,"0.0-4.7-1.7","tgdugzqgqvl0tok",522,"168.csv","","null","resources/maskTrios/BT2B.jpg","null","",NA,NA,NA,NA,""
"image-keyboard-response",35,123378,"0.0-4.7-2.7","tgdugzqgqvl0tok",522,"168.csv","","null","resources/images/coin2.png","null","",NA,NA,NA,NA,""
"image-keyboard-response",36,124846,"0.0-4.8-0.8","tgdugzqgqvl0tok",522,"168.csv","","1465.8999999761581","resources/trios/L1T2A3.jpg","38","restless",0.6,0.9,0.2,0.523481805242763,"true"
"image-keyboard-response",37,125248,"0.0-4.8-1.8","tgdugzqgqvl0tok",522,"168.csv","","null","resources/maskTrios/BT2B.jpg","null","",NA,NA,NA,NA,""
"image-keyboard-response",38,126451,"0.0-4.8-2.8","tgdugzqgqvl0tok",522,"168.csv","","null","resources/images/coin2.png","null","",NA,NA,NA,NA,""
"image-keyboard-response",39,128685,"0.0-4.9-0.9","tgdugzqgqvl0tok",522,"168.csv","","2232.599999964237","resources/trios/L1T2A3.jpg","38","restless",0.5,0.9,0.3,0.589899132953307,"true"
"image-keyboard-response",40,129088,"0.0-4.9-1.9","tgdugzqgqvl0tok",522,"168.csv","","null","resources/maskTrios/BT2B.jpg","null","",NA,NA,NA,NA,""
"image-keyboard-response",41,130291,"0.0-4.9-2.9","tgdugzqgqvl0tok",522,"168.csv","","null","resources/images/coin2.png","null","",NA,NA,NA,NA,""
"image-keyboard-response",42,131149,"0.0-4.10-0.10","tgdugzqgqvl0tok",522,"168.csv","","857.0999999642372","resources/trios/L1T2A3.jpg","38","restless",0.5,0.9,0.3,0.85257608175132,"true"
"image-keyboard-response",43,131552,"0.0-4.10-1.10","tgdugzqgqvl0tok",522,"168.csv","","null","resources/maskTrios/BT2B.jpg","null","",NA,NA,NA,NA,""
"image-keyboard-response",44,132754,"0.0-4.10-2.10","tgdugzqgqvl0tok",522,"168.csv","","null","resources/images/coin2.png","null","",NA,NA,NA,NA,""
"image-keyboard-response",45,133029,"0.0-4.11-0.11","tgdugzqgqvl0tok",522,"168.csv","","273.30000001192093","resources/trios/L1T2A3.jpg","38","restless",0.5,0.9,0.3,0.208589239039082,"true"
"image-keyboard-response",46,133432,"0.0-4.11-1.11","tgdugzqgqvl0tok",522,"168.csv","","null","resources/maskTrios/BT2B.jpg","null","",NA,NA,NA,NA,""
"image-keyboard-response",47,134634,"0.0-4.11-2.11","tgdugzqgqvl0tok",522,"168.csv","","null","resources/images/coin2.png","null","",NA,NA,NA,NA,""
"image-keyboard-response",48,134902,"0.0-4.12-0.12","tgdugzqgqvl0tok",522,"168.csv","","265.69999998807907","resources/trios/L1T2A3.jpg","38","restless",0.5,0.9,0.3,0.8950121130043,"true"
"image-keyboard-response",49,135304,"0.0-4.12-1.12","tgdugzqgqvl0tok",522,"168.csv","","null","resources/maskTrios/BT2B.jpg","null","",NA,NA,NA,NA,""
"image-keyboard-response",50,136505,"0.0-4.12-2.12","tgdugzqgqvl0tok",522,"168.csv","","null","resources/images/coin2.png","null","",NA,NA,NA,NA,""
"image-keyboard-response",51,136629,"0.0-4.13-0.13","tgdugzqgqvl0tok",522,"168.csv","","122.39999997615814","resources/trios/L1T2A3.jpg","38","restless",0.6,0.9,0.3,0.0520024662876482,"true"
"image-keyboard-response",52,137032,"0.0-4.13-1.13","tgdugzqgqvl0tok",522,"168.csv","","null","resources/maskTrios/BT2B.jpg","null","",NA,NA,NA,NA,""
"image-keyboard-response",53,138234,"0.0-4.13-2.13","tgdugzqgqvl0tok",522,"168.csv","","null","resources/images/coin2.png","null","",NA,NA,NA,NA,""
"image-keyboard-response",54,138629,"0.0-4.14-0.14","tgdugzqgqvl0tok",522,"168.csv","","393.5","resources/trios/L1T2A3.jpg","38","restless",0.6,0.8,0.3,0.496143719261544,"true"
"image-keyboard-response",55,139032,"0.0-4.14-1.14","tgdugzqgqvl0tok",522,"168.csv","","null","resources/maskTrios/BT2B.jpg","null","",NA,NA,NA,NA,""
"image-keyboard-response",56,140234,"0.0-4.14-2.14","tgdugzqgqvl0tok",522,"168.csv","","null","resources/images/coin2.png","null","",NA,NA,NA,NA,""
"image-keyboard-response",57,141109,"0.0-4.15-0.15","tgdugzqgqvl0tok",522,"168.csv","","874.1999999880791","resources/trios/L1T2A3.jpg","38","restless",0.6,0.8,0.3,0.98363248876993,"false"
"image-keyboard-response",58,141512,"0.0-4.15-1.15","tgdugzqgqvl0tok",522,"168.csv","","null","resources/maskTrios/BT2B.jpg","null","",NA,NA,NA,NA,""
"image-keyboard-response",59,142714,"0.0-4.15-2.15","tgdugzqgqvl0tok",522,"168.csv","","null","resources/images/fishbone.png","null","",NA,NA,NA,NA,""
"image-keyboard-response",60,143149,"0.0-4.16-0.16","tgdugzqgqvl0tok",522,"168.csv","","433.7999999523163","resources/trios/L1T2A3.jpg","38","restless",0.6,0.8,0.3,0.135938420269591,"true"
"image-keyboard-response",61,143550,"0.0-4.16-1.16","tgdugzqgqvl0tok",522,"168.csv","","null","resources/maskTrios/BT2B.jpg","null","",NA,NA,NA,NA,""
"image-keyboard-response",62,144753,"0.0-4.16-2.16","tgdugzqgqvl0tok",522,"168.csv","","null","resources/images/coin2.png","null","",NA,NA,NA,NA,""
"image-keyboard-response",63,145238,"0.0-4.17-0.17","tgdugzqgqvl0tok",522,"168.csv","","483.19999998807907","resources/trios/L1T2A3.jpg","38","restless",0.6,0.8,0.3,0.803259334352277,"false"
"image-keyboard-response",64,145640,"0.0-4.17-1.17","tgdugzqgqvl0tok",522,"168.csv","","null","resources/maskTrios/BT2B.jpg","null","",NA,NA,NA,NA,""
"image-keyboard-response",65,146842,"0.0-4.17-2.17","tgdugzqgqvl0tok",522,"168.csv","","null","resources/images/fishbone.png","null","",NA,NA,NA,NA,""
"image-keyboard-response",66,148302,"0.0-4.18-0.18","tgdugzqgqvl0tok",522,"168.csv","","1457.699999988079","resources/trios/L1T2A3.jpg","39","restless",0.6,0.8,0.3,0.606229619825843,"false"
"image-keyboard-response",67,148704,"0.0-4.18-1.18","tgdugzqgqvl0tok",522,"168.csv","","null","resources/maskTrios/BBA3.jpg","null","",NA,NA,NA,NA,""
"image-keyboard-response",68,149905,"0.0-4.18-2.18","tgdugzqgqvl0tok",522,"168.csv","","null","resources/images/fishbone.png","null","",NA,NA,NA,NA,""
"image-keyboard-response",69,151373,"0.0-4.19-0.19","tgdugzqgqvl0tok",522,"168.csv","","1467","resources/trios/L1T2A3.jpg","39","restless",0.6,0.8,0.3,0.371260814087307,"false"
"image-keyboard-response",70,151776,"0.0-4.19-1.19","tgdugzqgqvl0tok",522,"168.csv","","null","resources/maskTrios/BBA3.jpg","null","",NA,NA,NA,NA,""
"image-keyboard-response",71,152978,"0.0-4.19-2.19","tgdugzqgqvl0tok",522,"168.csv","","null","resources/images/fishbone.png","null","",NA,NA,NA,NA,""
"image-keyboard-response",72,153989,"0.0-4.20-0.20","tgdugzqgqvl0tok",522,"168.csv","","1009.1999999880791","resources/trios/L1T2A3.jpg","37","restless",0.6,0.7,0.3,0.696117476103604,"false"
"image-keyboard-response",73,154392,"0.0-4.20-1.20","tgdugzqgqvl0tok",522,"168.csv","","null","resources/maskTrios/L1BB.jpg","null","",NA,NA,NA,NA,""
"image-keyboard-response",74,155594,"0.0-4.20-2.20","tgdugzqgqvl0tok",522,"168.csv","","null","resources/images/fishbone.png","null","",NA,NA,NA,NA,""
"image-keyboard-response",75,156486,"0.0-4.21-0.21","tgdugzqgqvl0tok",522,"168.csv","","890.6000000238419","resources/trios/L1T2A3.jpg","37","restless",0.6,0.7,0.3,0.963744804714666,"false"
"image-keyboard-response",76,156888,"0.0-4.21-1.21","tgdugzqgqvl0tok",522,"168.csv","","null","resources/maskTrios/L1BB.jpg","null","",NA,NA,NA,NA,""
"image-keyboard-response",77,158090,"0.0-4.21-2.21","tgdugzqgqvl0tok",522,"168.csv","","null","resources/images/fishbone.png","null","",NA,NA,NA,NA,""
"image-keyboard-response",78,158405,"0.0-4.22-0.22","tgdugzqgqvl0tok",522,"168.csv","","313.5","resources/trios/L1T2A3.jpg","38","restless",0.6,0.7,0.3,0.146830639901559,"true"
"image-keyboard-response",79,158808,"0.0-4.22-1.22","tgdugzqgqvl0tok",522,"168.csv","","null","resources/maskTrios/BT2B.jpg","null","",NA,NA,NA,NA,""
"image-keyboard-response",80,160009,"0.0-4.22-2.22","tgdugzqgqvl0tok",522,"168.csv","","null","resources/images/coin2.png","null","",NA,NA,NA,NA,""
"image-keyboard-response",81,160221,"0.0-4.23-0.23","tgdugzqgqvl0tok",522,"168.csv","","210.39999997615814","resources/trios/L1T2A3.jpg","38","restless",0.6,0.7,0.4,0.868756226158254,"false"
"image-keyboard-response",82,160623,"0.0-4.23-1.23","tgdugzqgqvl0tok",522,"168.csv","","null","resources/maskTrios/BT2B.jpg","null","",NA,NA,NA,NA,""
"image-keyboard-response",83,161825,"0.0-4.23-2.23","tgdugzqgqvl0tok",522,"168.csv","","null","resources/images/fishbone.png","null","",NA,NA,NA,NA,""
"image-keyboard-response",84,162069,"0.0-4.24-0.24","tgdugzqgqvl0tok",522,"168.csv","","242.79999995231628","resources/trios/L1T2A3.jpg","38","restless",0.6,0.7,0.4,0.120020602031862,"true"
"image-keyboard-response",85,162471,"0.0-4.24-1.24","tgdugzqgqvl0tok",522,"168.csv","","null","resources/maskTrios/BT2B.jpg","null","",NA,NA,NA,NA,""
"image-keyboard-response",86,163673,"0.0-4.24-2.24","tgdugzqgqvl0tok",522,"168.csv","","null","resources/images/coin2.png","null","",NA,NA,NA,NA,""
"image-keyboard-response",87,163757,"0.0-4.25-0.25","tgdugzqgqvl0tok",522,"168.csv","","82.5","resources/trios/L1T2A3.jpg","38","restless",0.6,0.6,0.4,0.995393731969701,"false"
"image-keyboard-response",88,164159,"0.0-4.25-1.25","tgdugzqgqvl0tok",522,"168.csv","","null","resources/maskTrios/BT2B.jpg","null","",NA,NA,NA,NA,""
"image-keyboard-response",89,165361,"0.0-4.25-2.25","tgdugzqgqvl0tok",522,"168.csv","","null","resources/images/fishbone.png","null","",NA,NA,NA,NA,""
"image-keyboard-response",90,165510,"0.0-4.26-0.26","tgdugzqgqvl0tok",522,"168.csv","","146.39999997615814","resources/trios/L1T2A3.jpg","38","restless",0.7,0.6,0.4,0.456952576242257,"true"
"image-keyboard-response",91,165912,"0.0-4.26-1.26","tgdugzqgqvl0tok",522,"168.csv","","null","resources/maskTrios/BT2B.jpg","null","",NA,NA,NA,NA,""
"image-keyboard-response",92,167114,"0.0-4.26-2.26","tgdugzqgqvl0tok",522,"168.csv","","null","resources/images/coin2.png","null","",NA,NA,NA,NA,""
"image-keyboard-response",93,167398,"0.0-4.27-0.27","tgdugzqgqvl0tok",522,"168.csv","","282","resources/trios/L1T2A3.jpg","38","restless",0.7,0.6,0.4,0.586545970652633,"true"
"image-keyboard-response",94,167800,"0.0-4.27-1.27","tgdugzqgqvl0tok",522,"168.csv","","null","resources/maskTrios/BT2B.jpg","null","",NA,NA,NA,NA,""
"image-keyboard-response",95,169001,"0.0-4.27-2.27","tgdugzqgqvl0tok",522,"168.csv","","null","resources/images/coin2.png","null","",NA,NA,NA,NA,""
"image-keyboard-response",96,169013,"0.0-4.28-0.28","tgdugzqgqvl0tok",522,"168.csv","","10.400000035762787","resources/trios/L1T2A3.jpg","38","restless",0.7,0.6,0.4,0.19501566858198,"true"
"image-keyboard-response",97,169431,"0.0-4.28-1.28","tgdugzqgqvl0tok",522,"168.csv","","null","resources/maskTrios/BT2B.jpg","null","",NA,NA,NA,NA,""
"image-keyboard-response",98,170633,"0.0-4.28-2.28","tgdugzqgqvl0tok",522,"168.csv","","null","resources/images/coin2.png","null","",NA,NA,NA,NA,""
"image-keyboard-response",99,171573,"0.0-4.29-0.29","tgdugzqgqvl0tok",522,"168.csv","","938.5","resources/trios/L1T2A3.jpg","38","restless",0.7,0.5,0.5,0.477375200415656,"true"
"image-keyboard-response",100,171976,"0.0-4.29-1.29","tgdugzqgqvl0tok",522,"168.csv","","null","resources/maskTrios/BT2B.jpg","null","",NA,NA,NA,NA,""
"image-keyboard-response",101,173178,"0.0-4.29-2.29","tgdugzqgqvl0tok",522,"168.csv","","null","resources/images/coin2.png","null","",NA,NA,NA,NA,""
"image-keyboard-response",102,174093,"0.0-4.30-0.30","tgdugzqgqvl0tok",522,"168.csv","","913.8999999761581","resources/trios/L1T2A3.jpg","38","restless",0.8,0.5,0.5,0.49219866090704,"true"
"image-keyboard-response",103,174497,"0.0-4.30-1.30","tgdugzqgqvl0tok",522,"168.csv","","null","resources/maskTrios/BT2B.jpg","null","",NA,NA,NA,NA,""
"image-keyboard-response",104,175698,"0.0-4.30-2.30","tgdugzqgqvl0tok",522,"168.csv","","null","resources/images/coin2.png","null","",NA,NA,NA,NA,""
"image-keyboard-response",105,176581,"0.0-4.31-0.31","tgdugzqgqvl0tok",522,"168.csv","","881.5","resources/trios/L1T2A3.jpg","38","restless",0.8,0.5,0.5,0.827882064557474,"false"
"image-keyboard-response",106,176983,"0.0-4.31-1.31","tgdugzqgqvl0tok",522,"168.csv","","null","resources/maskTrios/BT2B.jpg","null","",NA,NA,NA,NA,""
"image-keyboard-response",107,178184,"0.0-4.31-2.31","tgdugzqgqvl0tok",522,"168.csv","","null","resources/images/fishbone.png","null","",NA,NA,NA,NA,""
"image-keyboard-response",108,178846,"0.0-4.32-0.32","tgdugzqgqvl0tok",522,"168.csv","","659.5999999642372","resources/trios/L1T2A3.jpg","38","restless",0.8,0.5,0.5,0.815174328132524,"false"
"image-keyboard-response",109,179248,"0.0-4.32-1.32","tgdugzqgqvl0tok",522,"168.csv","","null","resources/maskTrios/BT2B.jpg","null","",NA,NA,NA,NA,""
"image-keyboard-response",110,180450,"0.0-4.32-2.32","tgdugzqgqvl0tok",522,"168.csv","","null","resources/images/fishbone.png","null","",NA,NA,NA,NA,""
"image-keyboard-response",111,180749,"0.0-4.33-0.33","tgdugzqgqvl0tok",522,"168.csv","","297.89999997615814","resources/trios/L1T2A3.jpg","38","restless",0.8,0.5,0.5,0.069929891407283,"true"
"image-keyboard-response",112,181152,"0.0-4.33-1.33","tgdugzqgqvl0tok",522,"168.csv","","null","resources/maskTrios/BT2B.jpg","null","",NA,NA,NA,NA,""
"image-keyboard-response",113,182354,"0.0-4.33-2.33","tgdugzqgqvl0tok",522,"168.csv","","null","resources/images/coin2.png","null","",NA,NA,NA,NA,""
"image-keyboard-response",114,182646,"0.0-4.34-0.34","tgdugzqgqvl0tok",522,"168.csv","","290.2999999523163","resources/trios/L1T2A3.jpg","38","restless",0.8,0.5,0.5,0.195744741194472,"true"
"image-keyboard-response",115,183048,"0.0-4.34-1.34","tgdugzqgqvl0tok",522,"168.csv","","null","resources/maskTrios/BT2B.jpg","null","",NA,NA,NA,NA,""
"image-keyboard-response",116,184250,"0.0-4.34-2.34","tgdugzqgqvl0tok",522,"168.csv","","null","resources/images/coin2.png","null","",NA,NA,NA,NA,""
"image-keyboard-response",117,184566,"0.0-4.35-0.35","tgdugzqgqvl0tok",522,"168.csv","","314.19999998807907","resources/trios/L1T2A3.jpg","38","restless",0.9,0.5,0.5,0.693490515356921,"false"
"image-keyboard-response",118,184968,"0.0-4.35-1.35","tgdugzqgqvl0tok",522,"168.csv","","null","resources/maskTrios/BT2B.jpg","null","",NA,NA,NA,NA,""
"image-keyboard-response",119,186169,"0.0-4.35-2.35","tgdugzqgqvl0tok",522,"168.csv","","null","resources/images/fishbone.png","null","",NA,NA,NA,NA,""
"image-keyboard-response",120,186814,"0.0-4.36-0.36","tgdugzqgqvl0tok",522,"168.csv","","643.0999999642372","resources/trios/L1T2A3.jpg","37","restless",0.9,0.5,0.5,0.516676487242562,"true"
"image-keyboard-response",121,187216,"0.0-4.36-1.36","tgdugzqgqvl0tok",522,"168.csv","","null","resources/maskTrios/L1BB.jpg","null","",NA,NA,NA,NA,""
"image-keyboard-response",122,188419,"0.0-4.36-2.36","tgdugzqgqvl0tok",522,"168.csv","","null","resources/images/coin2.png","null","",NA,NA,NA,NA,""
"image-keyboard-response",123,188757,"0.0-4.37-0.37","tgdugzqgqvl0tok",522,"168.csv","","337.10000002384186","resources/trios/L1T2A3.jpg","37","restless",0.9,0.5,0.5,0.0206018560529531,"true"
"image-keyboard-response",124,189160,"0.0-4.37-1.37","tgdugzqgqvl0tok",522,"168.csv","","null","resources/maskTrios/L1BB.jpg","null","",NA,NA,NA,NA,""
"image-keyboard-response",125,190361,"0.0-4.37-2.37","tgdugzqgqvl0tok",522,"168.csv","","null","resources/images/coin2.png","null","",NA,NA,NA,NA,""
"image-keyboard-response",126,190622,"0.0-4.38-0.38","tgdugzqgqvl0tok",522,"168.csv","","259","resources/trios/L1T2A3.jpg","37","restless",0.9,0.5,0.5,0.791502277505507,"true"
"image-keyboard-response",127,191024,"0.0-4.38-1.38","tgdugzqgqvl0tok",522,"168.csv","","null","resources/maskTrios/L1BB.jpg","null","",NA,NA,NA,NA,""
"image-keyboard-response",128,192226,"0.0-4.38-2.38","tgdugzqgqvl0tok",522,"168.csv","","null","resources/images/coin2.png","null","",NA,NA,NA,NA,""
"image-keyboard-response",129,192470,"0.0-4.39-0.39","tgdugzqgqvl0tok",522,"168.csv","","241.69999998807907","resources/trios/L1T2A3.jpg","37","restless",0.9,0.4,0.5,0.728074460753893,"true"
"image-keyboard-response",130,192872,"0.0-4.39-1.39","tgdugzqgqvl0tok",522,"168.csv","","null","resources/maskTrios/L1BB.jpg","null","",NA,NA,NA,NA,""
"image-keyboard-response",131,194074,"0.0-4.39-2.39","tgdugzqgqvl0tok",522,"168.csv","","null","resources/images/coin2.png","null","",NA,NA,NA,NA,""
"image-keyboard-response",132,194325,"0.0-4.40-0.40","tgdugzqgqvl0tok",522,"168.csv","","250.10000002384186","resources/trios/L1T2A3.jpg","37","restless",0.9,0.4,0.5,0.0420922054980097,"true"
"image-keyboard-response",133,194728,"0.0-4.40-1.40","tgdugzqgqvl0tok",522,"168.csv","","null","resources/maskTrios/L1BB.jpg","null","",NA,NA,NA,NA,""
"image-keyboard-response",134,195929,"0.0-4.40-2.40","tgdugzqgqvl0tok",522,"168.csv","","null","resources/images/coin2.png","null","",NA,NA,NA,NA,""
"image-keyboard-response",135,196182,"0.0-4.41-0.41","tgdugzqgqvl0tok",522,"168.csv","","250.79999995231628","resources/trios/L1T2A3.jpg","37","restless",0.8,0.4,0.5,0.282539381465547,"true"
"image-keyboard-response",136,196589,"0.0-4.41-1.41","tgdugzqgqvl0tok",522,"168.csv","","null","resources/maskTrios/L1BB.jpg","null","",NA,NA,NA,NA,""
"image-keyboard-response",137,197790,"0.0-4.41-2.41","tgdugzqgqvl0tok",522,"168.csv","","null","resources/images/coin2.png","null","",NA,NA,NA,NA,""
"image-keyboard-response",138,197990,"0.0-4.42-0.42","tgdugzqgqvl0tok",522,"168.csv","","197.39999997615814","resources/trios/L1T2A3.jpg","37","restless",0.8,0.4,0.5,0.217959546094004,"true"
"image-keyboard-response",139,198391,"0.0-4.42-1.42","tgdugzqgqvl0tok",522,"168.csv","","null","resources/maskTrios/L1BB.jpg","null","",NA,NA,NA,NA,""
"image-keyboard-response",140,199593,"0.0-4.42-2.42","tgdugzqgqvl0tok",522,"168.csv","","null","resources/images/coin2.png","null","",NA,NA,NA,NA,""
"image-keyboard-response",141,199862,"0.0-4.43-0.43","tgdugzqgqvl0tok",522,"168.csv","","268.10000002384186","resources/trios/L1T2A3.jpg","37","restless",0.8,0.4,0.5,0.932328739701659,"false"
"image-keyboard-response",142,200263,"0.0-4.43-1.43","tgdugzqgqvl0tok",522,"168.csv","","null","resources/maskTrios/L1BB.jpg","null","",NA,NA,NA,NA,""
"image-keyboard-response",143,201465,"0.0-4.43-2.43","tgdugzqgqvl0tok",522,"168.csv","","null","resources/images/fishbone.png","null","",NA,NA,NA,NA,""
"image-keyboard-response",144,201734,"0.0-4.44-0.44","tgdugzqgqvl0tok",522,"168.csv","","267.39999997615814","resources/trios/L1T2A3.jpg","37","restless",0.8,0.4,0.6,0.865519024519023,"false"
"image-keyboard-response",145,202137,"0.0-4.44-1.44","tgdugzqgqvl0tok",522,"168.csv","","null","resources/maskTrios/L1BB.jpg","null","",NA,NA,NA,NA,""
"image-keyboard-response",146,203338,"0.0-4.44-2.44","tgdugzqgqvl0tok",522,"168.csv","","null","resources/images/fishbone.png","null","",NA,NA,NA,NA,""
"image-keyboard-response",147,203574,"0.0-4.45-0.45","tgdugzqgqvl0tok",522,"168.csv","","233.89999997615814","resources/trios/L1T2A3.jpg","39","restless",0.8,0.3,0.5,0.765292529347621,"false"
"image-keyboard-response",148,203975,"0.0-4.45-1.45","tgdugzqgqvl0tok",522,"168.csv","","null","resources/maskTrios/BBA3.jpg","null","",NA,NA,NA,NA,""
"image-keyboard-response",149,205178,"0.0-4.45-2.45","tgdugzqgqvl0tok",522,"168.csv","","null","resources/images/fishbone.png","null","",NA,NA,NA,NA,""
"image-keyboard-response",150,205414,"0.0-4.46-0.46","tgdugzqgqvl0tok",522,"168.csv","","234.29999995231628","resources/trios/L1T2A3.jpg","39","restless",0.8,0.3,0.5,0.905759732162515,"false"
"image-keyboard-response",151,205816,"0.0-4.46-1.46","tgdugzqgqvl0tok",522,"168.csv","","null","resources/maskTrios/BBA3.jpg","null","",NA,NA,NA,NA,""
"image-keyboard-response",152,207018,"0.0-4.46-2.46","tgdugzqgqvl0tok",522,"168.csv","","null","resources/images/fishbone.png","null","",NA,NA,NA,NA,""
"image-keyboard-response",153,207278,"0.0-4.47-0.47","tgdugzqgqvl0tok",522,"168.csv","","258.19999998807907","resources/trios/L1T2A3.jpg","38","restless",0.8,0.3,0.5,0.496184424240521,"false"
"image-keyboard-response",154,207680,"0.0-4.47-1.47","tgdugzqgqvl0tok",522,"168.csv","","null","resources/maskTrios/BT2B.jpg","null","",NA,NA,NA,NA,""
"image-keyboard-response",155,208881,"0.0-4.47-2.47","tgdugzqgqvl0tok",522,"168.csv","","null","resources/images/fishbone.png","null","",NA,NA,NA,NA,""
"image-keyboard-response",156,209125,"0.0-4.48-0.48","tgdugzqgqvl0tok",522,"168.csv","","242.89999997615814","resources/trios/L1T2A3.jpg","38","restless",0.8,0.3,0.5,0.451816371643425,"false"
"image-keyboard-response",157,209528,"0.0-4.48-1.48","tgdugzqgqvl0tok",522,"168.csv","","null","resources/maskTrios/BT2B.jpg","null","",NA,NA,NA,NA,""
"image-keyboard-response",158,210730,"0.0-4.48-2.48","tgdugzqgqvl0tok",522,"168.csv","","null","resources/images/fishbone.png","null","",NA,NA,NA,NA,""
"image-keyboard-response",159,210989,"0.0-4.49-0.49","tgdugzqgqvl0tok",522,"168.csv","","258.19999998807907","resources/trios/L1T2A3.jpg","37","restless",0.8,0.2,0.5,0.492104364070693,"true"
"image-keyboard-response",160,211392,"0.0-4.49-1.49","tgdugzqgqvl0tok",522,"168.csv","","null","resources/maskTrios/L1BB.jpg","null","",NA,NA,NA,NA,""
"image-keyboard-response",161,212594,"0.0-4.49-2.49","tgdugzqgqvl0tok",522,"168.csv","","null","resources/images/coin2.png","null","",NA,NA,NA,NA,""
"image-keyboard-response",162,212838,"0.0-4.50-0.50","tgdugzqgqvl0tok",522,"168.csv","","242.60000002384186","resources/trios/L1T2A3.jpg","37","restless",0.8,0.2,0.5,0.486318467813648,"true"
"image-keyboard-response",163,213240,"0.0-4.50-1.50","tgdugzqgqvl0tok",522,"168.csv","","null","resources/maskTrios/L1BB.jpg","null","",NA,NA,NA,NA,""
"image-keyboard-response",164,214442,"0.0-4.50-2.50","tgdugzqgqvl0tok",522,"168.csv","","null","resources/images/coin2.png","null","",NA,NA,NA,NA,""
"image-keyboard-response",165,214758,"0.0-4.51-0.51","tgdugzqgqvl0tok",522,"168.csv","","313.5999999642372","resources/trios/L1T2A3.jpg","37","restless",0.8,0.2,0.5,0.72343072504445,"true"
"image-keyboard-response",166,215160,"0.0-4.51-1.51","tgdugzqgqvl0tok",522,"168.csv","","null","resources/maskTrios/L1BB.jpg","null","",NA,NA,NA,NA,""
"image-keyboard-response",167,216362,"0.0-4.51-2.51","tgdugzqgqvl0tok",522,"168.csv","","null","resources/images/coin2.png","null","",NA,NA,NA,NA,""
"image-keyboard-response",168,216581,"0.0-4.52-0.52","tgdugzqgqvl0tok",522,"168.csv","","217.5","resources/trios/L1T2A3.jpg","37","restless",0.7,0.2,0.6,0.975012598787874,"false"
"image-keyboard-response",169,216983,"0.0-4.52-1.52","tgdugzqgqvl0tok",522,"168.csv","","null","resources/maskTrios/L1BB.jpg","null","",NA,NA,NA,NA,""
"image-keyboard-response",170,218185,"0.0-4.52-2.52","tgdugzqgqvl0tok",522,"168.csv","","null","resources/images/fishbone.png","null","",NA,NA,NA,NA,""
"image-keyboard-response",171,218398,"0.0-4.53-0.53","tgdugzqgqvl0tok",522,"168.csv","","211.0999999642372","resources/trios/L1T2A3.jpg","37","restless",0.7,0.2,0.6,0.23547247156459,"true"
"image-keyboard-response",172,218800,"0.0-4.53-1.53","tgdugzqgqvl0tok",522,"168.csv","","null","resources/maskTrios/L1BB.jpg","null","",NA,NA,NA,NA,""
"image-keyboard-response",173,220001,"0.0-4.53-2.53","tgdugzqgqvl0tok",522,"168.csv","","null","resources/images/coin2.png","null","",NA,NA,NA,NA,""
"image-keyboard-response",174,220286,"0.0-4.54-0.54","tgdugzqgqvl0tok",522,"168.csv","","283.5","resources/trios/L1T2A3.jpg","37","restless",0.7,0.2,0.6,0.838580292395931,"false"
"image-keyboard-response",175,220688,"0.0-4.54-1.54","tgdugzqgqvl0tok",522,"168.csv","","null","resources/maskTrios/L1BB.jpg","null","",NA,NA,NA,NA,""
"image-keyboard-response",176,221890,"0.0-4.54-2.54","tgdugzqgqvl0tok",522,"168.csv","","null","resources/images/fishbone.png","null","",NA,NA,NA,NA,""
"image-keyboard-response",177,222358,"0.0-4.55-0.55","tgdugzqgqvl0tok",522,"168.csv","","465.80000001192093","resources/trios/L1T2A3.jpg","37","restless",0.7,0.2,0.6,0.216824683665955,"true"
"image-keyboard-response",178,222759,"0.0-4.55-1.55","tgdugzqgqvl0tok",522,"168.csv","","null","resources/maskTrios/L1BB.jpg","null","",NA,NA,NA,NA,""
"image-keyboard-response",179,223972,"0.0-4.55-2.55","tgdugzqgqvl0tok",522,"168.csv","","null","resources/images/coin2.png","null","",NA,NA,NA,NA,""
"image-keyboard-response",180,224414,"0.0-4.56-0.56","tgdugzqgqvl0tok",522,"168.csv","","440.5","resources/trios/L1T2A3.jpg","37","restless",0.8,0.2,0.6,0.731887207821646,"true"
"image-keyboard-response",181,224817,"0.0-4.56-1.56","tgdugzqgqvl0tok",522,"168.csv","","null","resources/maskTrios/L1BB.jpg","null","",NA,NA,NA,NA,""
"image-keyboard-response",182,226020,"0.0-4.56-2.56","tgdugzqgqvl0tok",522,"168.csv","","null","resources/images/coin2.png","null","",NA,NA,NA,NA,""
"image-keyboard-response",183,226414,"0.0-4.57-0.57","tgdugzqgqvl0tok",522,"168.csv","","392.19999998807907","resources/trios/L1T2A3.jpg","37","restless",0.8,0.2,0.6,0.54425918733211,"true"
"image-keyboard-response",184,226816,"0.0-4.57-1.57","tgdugzqgqvl0tok",522,"168.csv","","null","resources/maskTrios/L1BB.jpg","null","",NA,NA,NA,NA,""
"image-keyboard-response",185,228018,"0.0-4.57-2.57","tgdugzqgqvl0tok",522,"168.csv","","null","resources/images/coin2.png","null","",NA,NA,NA,NA,""
"image-keyboard-response",186,228542,"0.0-4.58-0.58","tgdugzqgqvl0tok",522,"168.csv","","522","resources/trios/L1T2A3.jpg","37","restless",0.8,0.2,0.6,0.0969738640801516,"true"
"image-keyboard-response",187,228958,"0.0-4.58-1.58","tgdugzqgqvl0tok",522,"168.csv","","null","resources/maskTrios/L1BB.jpg","null","",NA,NA,NA,NA,""
"image-keyboard-response",188,230161,"0.0-4.58-2.58","tgdugzqgqvl0tok",522,"168.csv","","null","resources/images/coin2.png","null","",NA,NA,NA,NA,""
"image-keyboard-response",189,230718,"0.0-4.59-0.59","tgdugzqgqvl0tok",522,"168.csv","","555.4000000357628","resources/trios/L1T2A3.jpg","37","restless",0.8,0.2,0.6,0.996211063959034,"false"
"image-keyboard-response",190,231120,"0.0-4.59-1.59","tgdugzqgqvl0tok",522,"168.csv","","null","resources/maskTrios/L1BB.jpg","null","",NA,NA,NA,NA,""
"image-keyboard-response",191,232322,"0.0-4.59-2.59","tgdugzqgqvl0tok",522,"168.csv","","null","resources/images/fishbone.png","null","",NA,NA,NA,NA,""
"image-keyboard-response",192,232661,"0.0-4.60-0.60","tgdugzqgqvl0tok",522,"168.csv","","338.0999999642372","resources/trios/L1T2A3.jpg","37","restless",0.8,0.2,0.6,0.0840945784386309,"true"
"image-keyboard-response",193,233064,"0.0-4.60-1.60","tgdugzqgqvl0tok",522,"168.csv","","null","resources/maskTrios/L1BB.jpg","null","",NA,NA,NA,NA,""
"image-keyboard-response",194,234266,"0.0-4.60-2.60","tgdugzqgqvl0tok",522,"168.csv","","null","resources/images/coin2.png","null","",NA,NA,NA,NA,""
"image-keyboard-response",195,234582,"0.0-4.61-0.61","tgdugzqgqvl0tok",522,"168.csv","","314.60000002384186","resources/trios/L1T2A3.jpg","37","restless",0.7,0.2,0.6,0.681283638208497,"true"
"image-keyboard-response",196,234984,"0.0-4.61-1.61","tgdugzqgqvl0tok",522,"168.csv","","null","resources/maskTrios/L1BB.jpg","null","",NA,NA,NA,NA,""
"image-keyboard-response",197,236185,"0.0-4.61-2.61","tgdugzqgqvl0tok",522,"168.csv","","null","resources/images/coin2.png","null","",NA,NA,NA,NA,""
"image-keyboard-response",198,236606,"0.0-4.62-0.62","tgdugzqgqvl0tok",522,"168.csv","","418.60000002384186","resources/trios/L1T2A3.jpg","38","restless",0.7,0.2,0.6,0.827961010991466,"false"
"image-keyboard-response",199,237007,"0.0-4.62-1.62","tgdugzqgqvl0tok",522,"168.csv","","null","resources/maskTrios/BT2B.jpg","null","",NA,NA,NA,NA,""
"image-keyboard-response",200,238209,"0.0-4.62-2.62","tgdugzqgqvl0tok",522,"168.csv","","null","resources/images/fishbone.png","null","",NA,NA,NA,NA,""
"image-keyboard-response",201,238662,"0.0-4.63-0.63","tgdugzqgqvl0tok",522,"168.csv","","450.39999997615814","resources/trios/L1T2A3.jpg","37","restless",0.7,0.2,0.6,0.13129860314376,"true"
"image-keyboard-response",202,239065,"0.0-4.63-1.63","tgdugzqgqvl0tok",522,"168.csv","","null","resources/maskTrios/L1BB.jpg","null","",NA,NA,NA,NA,""
"image-keyboard-response",203,240267,"0.0-4.63-2.63","tgdugzqgqvl0tok",522,"168.csv","","null","resources/images/coin2.png","null","",NA,NA,NA,NA,""
"image-keyboard-response",204,240574,"0.0-4.64-0.64","tgdugzqgqvl0tok",522,"168.csv","","305.39999997615814","resources/trios/L1T2A3.jpg","37","restless",0.7,0.2,0.6,0.504901276220658,"true"
"image-keyboard-response",205,240976,"0.0-4.64-1.64","tgdugzqgqvl0tok",522,"168.csv","","null","resources/maskTrios/L1BB.jpg","null","",NA,NA,NA,NA,""
"image-keyboard-response",206,242178,"0.0-4.64-2.64","tgdugzqgqvl0tok",522,"168.csv","","null","resources/images/coin2.png","null","",NA,NA,NA,NA,""
"image-keyboard-response",207,242629,"0.0-4.65-0.65","tgdugzqgqvl0tok",522,"168.csv","","450.19999998807907","resources/trios/L1T2A3.jpg","37","restless",0.7,0.2,0.6,0.779249077293492,"false"
"image-keyboard-response",208,243032,"0.0-4.65-1.65","tgdugzqgqvl0tok",522,"168.csv","","null","resources/maskTrios/L1BB.jpg","null","",NA,NA,NA,NA,""
"image-keyboard-response",209,244233,"0.0-4.65-2.65","tgdugzqgqvl0tok",522,"168.csv","","null","resources/images/fishbone.png","null","",NA,NA,NA,NA,""
"image-keyboard-response",210,245846,"0.0-4.66-0.66","tgdugzqgqvl0tok",522,"168.csv","","1610.9000000357628","resources/trios/L1T2A3.jpg","37","restless",0.7,0.2,0.6,0.650451415512904,"true"
"image-keyboard-response",211,246248,"0.0-4.66-1.66","tgdugzqgqvl0tok",522,"168.csv","","null","resources/maskTrios/L1BB.jpg","null","",NA,NA,NA,NA,""
"image-keyboard-response",212,247450,"0.0-4.66-2.66","tgdugzqgqvl0tok",522,"168.csv","","null","resources/images/coin2.png","null","",NA,NA,NA,NA,""
"image-keyboard-response",213,247829,"0.0-4.67-0.67","tgdugzqgqvl0tok",522,"168.csv","","377.69999998807907","resources/trios/L1T2A3.jpg","37","restless",0.7,0.2,0.6,0.324950704319223,"true"
"image-keyboard-response",214,248232,"0.0-4.67-1.67","tgdugzqgqvl0tok",522,"168.csv","","null","resources/maskTrios/L1BB.jpg","null","",NA,NA,NA,NA,""
"image-keyboard-response",215,249433,"0.0-4.67-2.67","tgdugzqgqvl0tok",522,"168.csv","","null","resources/images/coin2.png","null","",NA,NA,NA,NA,""
"image-keyboard-response",216,249606,"0.0-4.68-0.68","tgdugzqgqvl0tok",522,"168.csv","","170.19999998807907","resources/trios/L1T2A3.jpg","37","restless",0.7,0.2,0.6,0.0936714399571545,"true"
"image-keyboard-response",217,250008,"0.0-4.68-1.68","tgdugzqgqvl0tok",522,"168.csv","","null","resources/maskTrios/L1BB.jpg","null","",NA,NA,NA,NA,""
"image-keyboard-response",218,251210,"0.0-4.68-2.68","tgdugzqgqvl0tok",522,"168.csv","","null","resources/images/coin2.png","null","",NA,NA,NA,NA,""
"image-keyboard-response",219,251429,"0.0-4.69-0.69","tgdugzqgqvl0tok",522,"168.csv","","217.79999995231628","resources/trios/L1T2A3.jpg","38","restless",0.7,0.2,0.6,0.815719611493527,"false"
"image-keyboard-response",220,251832,"0.0-4.69-1.69","tgdugzqgqvl0tok",522,"168.csv","","null","resources/maskTrios/BT2B.jpg","null","",NA,NA,NA,NA,""
"image-keyboard-response",221,253033,"0.0-4.69-2.69","tgdugzqgqvl0tok",522,"168.csv","","null","resources/images/fishbone.png","null","",NA,NA,NA,NA,""
"image-keyboard-response",222,253293,"0.0-4.70-0.70","tgdugzqgqvl0tok",522,"168.csv","","258.5999999642372","resources/trios/L1T2A3.jpg","37","restless",0.7,0.2,0.6,0.934264772073828,"false"
"image-keyboard-response",223,253696,"0.0-4.70-1.70","tgdugzqgqvl0tok",522,"168.csv","","null","resources/maskTrios/L1BB.jpg","null","",NA,NA,NA,NA,""
"image-keyboard-response",224,254898,"0.0-4.70-2.70","tgdugzqgqvl0tok",522,"168.csv","","null","resources/images/fishbone.png","null","",NA,NA,NA,NA,""
"image-keyboard-response",225,254997,"0.0-4.71-0.71","tgdugzqgqvl0tok",522,"168.csv","","97.89999997615814","resources/trios/L1T2A3.jpg","37","restless",0.6,0.2,0.6,0.417114046085383,"true"
"image-keyboard-response",226,255400,"0.0-4.71-1.71","tgdugzqgqvl0tok",522,"168.csv","","null","resources/maskTrios/L1BB.jpg","null","",NA,NA,NA,NA,""
"image-keyboard-response",227,256601,"0.0-4.71-2.71","tgdugzqgqvl0tok",522,"168.csv","","null","resources/images/coin2.png","null","",NA,NA,NA,NA,""
"image-keyboard-response",228,256854,"0.0-4.72-0.72","tgdugzqgqvl0tok",522,"168.csv","","250.69999998807907","resources/trios/L1T2A3.jpg","37","restless",0.6,0.2,0.6,0.833516249307634,"false"
"image-keyboard-response",229,257256,"0.0-4.72-1.72","tgdugzqgqvl0tok",522,"168.csv","","null","resources/maskTrios/L1BB.jpg","null","",NA,NA,NA,NA,""
"image-keyboard-response",230,258458,"0.0-4.72-2.72","tgdugzqgqvl0tok",522,"168.csv","","null","resources/images/fishbone.png","null","",NA,NA,NA,NA,""
"image-keyboard-response",231,258733,"0.0-4.73-0.73","tgdugzqgqvl0tok",522,"168.csv","","273.89999997615814","resources/trios/L1T2A3.jpg","37","restless",0.6,0.3,0.6,0.349503672397702,"true"
"image-keyboard-response",232,259136,"0.0-4.73-1.73","tgdugzqgqvl0tok",522,"168.csv","","null","resources/maskTrios/L1BB.jpg","null","",NA,NA,NA,NA,""
"image-keyboard-response",233,260338,"0.0-4.73-2.73","tgdugzqgqvl0tok",522,"168.csv","","null","resources/images/coin2.png","null","",NA,NA,NA,NA,""
"image-keyboard-response",234,260773,"0.0-4.74-0.74","tgdugzqgqvl0tok",522,"168.csv","","434","resources/trios/L1T2A3.jpg","37","restless",0.6,0.4,0.6,0.131379591936685,"true"
"image-keyboard-response",235,261175,"0.0-4.74-1.74","tgdugzqgqvl0tok",522,"168.csv","","null","resources/maskTrios/L1BB.jpg","null","",NA,NA,NA,NA,""
"image-keyboard-response",236,262377,"0.0-4.74-2.74","tgdugzqgqvl0tok",522,"168.csv","","null","resources/images/coin2.png","null","",NA,NA,NA,NA,""
"image-keyboard-response",237,262677,"0.0-4.75-0.75","tgdugzqgqvl0tok",522,"168.csv","","298.30000001192093","resources/trios/L1T2A3.jpg","37","restless",0.6,0.4,0.6,0.163585320519773,"true"
"image-keyboard-response",238,263079,"0.0-4.75-1.75","tgdugzqgqvl0tok",522,"168.csv","","null","resources/maskTrios/L1BB.jpg","null","",NA,NA,NA,NA,""
"image-keyboard-response",239,264282,"0.0-4.75-2.75","tgdugzqgqvl0tok",522,"168.csv","","null","resources/images/coin2.png","null","",NA,NA,NA,NA,""
"image-keyboard-response",240,264557,"0.0-4.76-0.76","tgdugzqgqvl0tok",522,"168.csv","","274.19999998807907","resources/trios/L1T2A3.jpg","37","restless",0.6,0.4,0.6,0.212782221963069,"true"
"image-keyboard-response",241,264960,"0.0-4.76-1.76","tgdugzqgqvl0tok",522,"168.csv","","null","resources/maskTrios/L1BB.jpg","null","",NA,NA,NA,NA,""
"image-keyboard-response",242,266162,"0.0-4.76-2.76","tgdugzqgqvl0tok",522,"168.csv","","null","resources/images/coin2.png","null","",NA,NA,NA,NA,""
"image-keyboard-response",243,266365,"0.0-4.77-0.77","tgdugzqgqvl0tok",522,"168.csv","","201.80000001192093","resources/trios/L1T2A3.jpg","37","restless",0.6,0.4,0.6,0.311096683916288,"true"
"image-keyboard-response",244,266768,"0.0-4.77-1.77","tgdugzqgqvl0tok",522,"168.csv","","null","resources/maskTrios/L1BB.jpg","null","",NA,NA,NA,NA,""
"image-keyboard-response",245,267970,"0.0-4.77-2.77","tgdugzqgqvl0tok",522,"168.csv","","null","resources/images/coin2.png","null","",NA,NA,NA,NA,""
"image-keyboard-response",246,268230,"0.0-4.78-0.78","tgdugzqgqvl0tok",522,"168.csv","","258.5","resources/trios/L1T2A3.jpg","37","restless",0.6,0.4,0.6,0.197863691021435,"true"
"image-keyboard-response",247,268631,"0.0-4.78-1.78","tgdugzqgqvl0tok",522,"168.csv","","null","resources/maskTrios/L1BB.jpg","null","",NA,NA,NA,NA,""
"image-keyboard-response",248,269833,"0.0-4.78-2.78","tgdugzqgqvl0tok",522,"168.csv","","null","resources/images/coin2.png","null","",NA,NA,NA,NA,""
"image-keyboard-response",249,270181,"0.0-4.79-0.79","tgdugzqgqvl0tok",522,"168.csv","","346.39999997615814","resources/trios/L1T2A3.jpg","37","restless",0.6,0.4,0.6,0.167509582512121,"true"
"image-keyboard-response",250,270584,"0.0-4.79-1.79","tgdugzqgqvl0tok",522,"168.csv","","null","resources/maskTrios/L1BB.jpg","null","",NA,NA,NA,NA,""
"image-keyboard-response",251,271785,"0.0-4.79-2.79","tgdugzqgqvl0tok",522,"168.csv","","null","resources/images/coin2.png","null","",NA,NA,NA,NA,""
"image-keyboard-response",252,272069,"0.0-4.80-0.80","tgdugzqgqvl0tok",522,"168.csv","","282.39999997615814","resources/trios/L1T2A3.jpg","37","restless",0.6,0.4,0.6,0.341497649028039,"true"
"image-keyboard-response",253,272476,"0.0-4.80-1.80","tgdugzqgqvl0tok",522,"168.csv","","null","resources/maskTrios/L1BB.jpg","null","",NA,NA,NA,NA,""
"image-keyboard-response",254,273678,"0.0-4.80-2.80","tgdugzqgqvl0tok",522,"168.csv","","null","resources/images/coin2.png","null","",NA,NA,NA,NA,""
"image-keyboard-response",255,273965,"0.0-4.81-0.81","tgdugzqgqvl0tok",522,"168.csv","","285.69999998807907","resources/trios/L1T2A3.jpg","37","restless",0.6,0.4,0.6,0.989603167850944,"false"
"image-keyboard-response",256,274368,"0.0-4.81-1.81","tgdugzqgqvl0tok",522,"168.csv","","null","resources/maskTrios/L1BB.jpg","null","",NA,NA,NA,NA,""
"image-keyboard-response",257,275570,"0.0-4.81-2.81","tgdugzqgqvl0tok",522,"168.csv","","null","resources/images/fishbone.png","null","",NA,NA,NA,NA,""
"image-keyboard-response",258,275925,"0.0-4.82-0.82","tgdugzqgqvl0tok",522,"168.csv","","354.0999999642372","resources/trios/L1T2A3.jpg","37","restless",0.7,0.4,0.6,0.12345073107063,"true"
"image-keyboard-response",259,276328,"0.0-4.82-1.82","tgdugzqgqvl0tok",522,"168.csv","","null","resources/maskTrios/L1BB.jpg","null","",NA,NA,NA,NA,""
"image-keyboard-response",260,277530,"0.0-4.82-2.82","tgdugzqgqvl0tok",522,"168.csv","","null","resources/images/coin2.png","null","",NA,NA,NA,NA,""
"image-keyboard-response",261,277629,"0.0-4.83-0.83","tgdugzqgqvl0tok",522,"168.csv","","98","resources/trios/L1T2A3.jpg","37","restless",0.7,0.4,0.6,0.8668533556512,"false"
"image-keyboard-response",262,278033,"0.0-4.83-1.83","tgdugzqgqvl0tok",522,"168.csv","","null","resources/maskTrios/L1BB.jpg","null","",NA,NA,NA,NA,""
"image-keyboard-response",263,279234,"0.0-4.83-2.83","tgdugzqgqvl0tok",522,"168.csv","","null","resources/images/fishbone.png","null","",NA,NA,NA,NA,""
"image-keyboard-response",264,279582,"0.0-4.84-0.84","tgdugzqgqvl0tok",522,"168.csv","","346","resources/trios/L1T2A3.jpg","38","restless",0.7,0.4,0.6,0.843948634465715,"false"
"image-keyboard-response",265,279985,"0.0-4.84-1.84","tgdugzqgqvl0tok",522,"168.csv","","null","resources/maskTrios/BT2B.jpg","null","",NA,NA,NA,NA,""
"image-keyboard-response",266,281187,"0.0-4.84-2.84","tgdugzqgqvl0tok",522,"168.csv","","null","resources/images/fishbone.png","null","",NA,NA,NA,NA,""
"image-keyboard-response",267,281581,"0.0-4.85-0.85","tgdugzqgqvl0tok",522,"168.csv","","393","resources/trios/L1T2A3.jpg","39","restless",0.7,0.4,0.6,0.685653309152564,"false"
"image-keyboard-response",268,281984,"0.0-4.85-1.85","tgdugzqgqvl0tok",522,"168.csv","","null","resources/maskTrios/BBA3.jpg","null","",NA,NA,NA,NA,""
"image-keyboard-response",269,283185,"0.0-4.85-2.85","tgdugzqgqvl0tok",522,"168.csv","","null","resources/images/fishbone.png","null","",NA,NA,NA,NA,""
"image-keyboard-response",270,283469,"0.0-4.86-0.86","tgdugzqgqvl0tok",522,"168.csv","","282.39999997615814","resources/trios/L1T2A3.jpg","39","restless",0.7,0.4,0.6,0.359007357805457,"true"
"image-keyboard-response",271,283872,"0.0-4.86-1.86","tgdugzqgqvl0tok",522,"168.csv","","null","resources/maskTrios/BBA3.jpg","null","",NA,NA,NA,NA,""
"image-keyboard-response",272,285074,"0.0-4.86-2.86","tgdugzqgqvl0tok",522,"168.csv","","null","resources/images/coin2.png","null","",NA,NA,NA,NA,""
"image-keyboard-response",273,285429,"0.0-4.87-0.87","tgdugzqgqvl0tok",522,"168.csv","","354","resources/trios/L1T2A3.jpg","39","restless",0.7,0.4,0.6,0.770387045515886,"false"
"image-keyboard-response",274,285831,"0.0-4.87-1.87","tgdugzqgqvl0tok",522,"168.csv","","null","resources/maskTrios/BBA3.jpg","null","",NA,NA,NA,NA,""
"image-keyboard-response",275,287033,"0.0-4.87-2.87","tgdugzqgqvl0tok",522,"168.csv","","null","resources/images/fishbone.png","null","",NA,NA,NA,NA,""
"image-keyboard-response",276,287509,"0.0-4.88-0.88","tgdugzqgqvl0tok",522,"168.csv","","474.2999999523163","resources/trios/L1T2A3.jpg","37","restless",0.7,0.4,0.6,0.227132854373999,"true"
"image-keyboard-response",277,287912,"0.0-4.88-1.88","tgdugzqgqvl0tok",522,"168.csv","","null","resources/maskTrios/L1BB.jpg","null","",NA,NA,NA,NA,""
"image-keyboard-response",278,289114,"0.0-4.88-2.88","tgdugzqgqvl0tok",522,"168.csv","","null","resources/images/coin2.png","null","",NA,NA,NA,NA,""
"image-keyboard-response",279,289309,"0.0-4.89-0.89","tgdugzqgqvl0tok",522,"168.csv","","193.69999998807907","resources/trios/L1T2A3.jpg","37","restless",0.6,0.4,0.6,0.223806729239291,"true"
"image-keyboard-response",280,289712,"0.0-4.89-1.89","tgdugzqgqvl0tok",522,"168.csv","","null","resources/maskTrios/L1BB.jpg","null","",NA,NA,NA,NA,""
"image-keyboard-response",281,290914,"0.0-4.89-2.89","tgdugzqgqvl0tok",522,"168.csv","","null","resources/images/coin2.png","null","",NA,NA,NA,NA,""
"image-keyboard-response",282,291022,"0.0-4.90-0.90","tgdugzqgqvl0tok",522,"168.csv","","106.10000002384186","resources/trios/L1T2A3.jpg","37","restless",0.6,0.4,0.6,0.669562735112867,"false"
"image-keyboard-response",283,291424,"0.0-4.90-1.90","tgdugzqgqvl0tok",522,"168.csv","","null","resources/maskTrios/L1BB.jpg","null","",NA,NA,NA,NA,""
"image-keyboard-response",284,292626,"0.0-4.90-2.90","tgdugzqgqvl0tok",522,"168.csv","","null","resources/images/fishbone.png","null","",NA,NA,NA,NA,""
"image-keyboard-response",285,292853,"0.0-4.91-0.91","tgdugzqgqvl0tok",522,"168.csv","","226.19999998807907","resources/trios/L1T2A3.jpg","37","restless",0.6,0.4,0.5,0.986672939320465,"false"
"image-keyboard-response",286,293255,"0.0-4.91-1.91","tgdugzqgqvl0tok",522,"168.csv","","null","resources/maskTrios/L1BB.jpg","null","",NA,NA,NA,NA,""
"image-keyboard-response",287,294457,"0.0-4.91-2.91","tgdugzqgqvl0tok",522,"168.csv","","null","resources/images/fishbone.png","null","",NA,NA,NA,NA,""
"image-keyboard-response",288,294477,"0.0-4.92-0.92","tgdugzqgqvl0tok",522,"168.csv","","18.399999976158142","resources/trios/L1T2A3.jpg","37","restless",0.7,0.4,0.5,0.186823175554938,"true"
"image-keyboard-response",289,294880,"0.0-4.92-1.92","tgdugzqgqvl0tok",522,"168.csv","","null","resources/maskTrios/L1BB.jpg","null","",NA,NA,NA,NA,""
"image-keyboard-response",290,296081,"0.0-4.92-2.92","tgdugzqgqvl0tok",522,"168.csv","","null","resources/images/coin2.png","null","",NA,NA,NA,NA,""
"image-keyboard-response",291,296325,"0.0-4.93-0.93","tgdugzqgqvl0tok",522,"168.csv","","242.39999997615814","resources/trios/L1T2A3.jpg","37","restless",0.7,0.4,0.5,0.681009091198677,"true"
"image-keyboard-response",292,296727,"0.0-4.93-1.93","tgdugzqgqvl0tok",522,"168.csv","","null","resources/maskTrios/L1BB.jpg","null","",NA,NA,NA,NA,""
"image-keyboard-response",293,297929,"0.0-4.93-2.93","tgdugzqgqvl0tok",522,"168.csv","","null","resources/images/coin2.png","null","",NA,NA,NA,NA,""
"image-keyboard-response",294,298101,"0.0-4.94-0.94","tgdugzqgqvl0tok",522,"168.csv","","170.39999997615814","resources/trios/L1T2A3.jpg","37","restless",0.7,0.4,0.5,0.979477957366108,"false"
"image-keyboard-response",295,298504,"0.0-4.94-1.94","tgdugzqgqvl0tok",522,"168.csv","","null","resources/maskTrios/L1BB.jpg","null","",NA,NA,NA,NA,""
"image-keyboard-response",296,299705,"0.0-4.94-2.94","tgdugzqgqvl0tok",522,"168.csv","","null","resources/images/fishbone.png","null","",NA,NA,NA,NA,""
"image-keyboard-response",297,299917,"0.0-4.95-0.95","tgdugzqgqvl0tok",522,"168.csv","","210.69999998807907","resources/trios/L1T2A3.jpg","37","restless",0.7,0.4,0.5,0.789431820763206,"false"
"image-keyboard-response",298,300320,"0.0-4.95-1.95","tgdugzqgqvl0tok",522,"168.csv","","null","resources/maskTrios/L1BB.jpg","null","",NA,NA,NA,NA,""
"image-keyboard-response",299,301522,"0.0-4.95-2.95","tgdugzqgqvl0tok",522,"168.csv","","null","resources/images/fishbone.png","null","",NA,NA,NA,NA,""
"image-keyboard-response",300,301718,"0.0-4.96-0.96","tgdugzqgqvl0tok",522,"168.csv","","194.30000001192093","resources/trios/L1T2A3.jpg","37","restless",0.7,0.4,0.5,0.285727858215636,"true"
"image-keyboard-response",301,302120,"0.0-4.96-1.96","tgdugzqgqvl0tok",522,"168.csv","","null","resources/maskTrios/L1BB.jpg","null","",NA,NA,NA,NA,""
"image-keyboard-response",302,303322,"0.0-4.96-2.96","tgdugzqgqvl0tok",522,"168.csv","","null","resources/images/coin2.png","null","",NA,NA,NA,NA,""
"image-keyboard-response",303,303654,"0.0-4.97-0.97","tgdugzqgqvl0tok",522,"168.csv","","329.5","resources/trios/L1T2A3.jpg","37","restless",0.7,0.4,0.5,0.143639185941272,"true"
"image-keyboard-response",304,304056,"0.0-4.97-1.97","tgdugzqgqvl0tok",522,"168.csv","","null","resources/maskTrios/L1BB.jpg","null","",NA,NA,NA,NA,""
"image-keyboard-response",305,305258,"0.0-4.97-2.97","tgdugzqgqvl0tok",522,"168.csv","","null","resources/images/coin2.png","null","",NA,NA,NA,NA,""
"image-keyboard-response",306,305374,"0.0-4.98-0.98","tgdugzqgqvl0tok",522,"168.csv","","114.19999998807907","resources/trios/L1T2A3.jpg","37","restless",0.7,0.4,0.5,0.800608611912768,"false"
"image-keyboard-response",307,305776,"0.0-4.98-1.98","tgdugzqgqvl0tok",522,"168.csv","","null","resources/maskTrios/L1BB.jpg","null","",NA,NA,NA,NA,""
"image-keyboard-response",308,306978,"0.0-4.98-2.98","tgdugzqgqvl0tok",522,"168.csv","","null","resources/images/fishbone.png","null","",NA,NA,NA,NA,""
"image-keyboard-response",309,307574,"0.0-4.99-0.99","tgdugzqgqvl0tok",522,"168.csv","","594.3000000119209","resources/trios/L1T2A3.jpg","37","restless",0.7,0.4,0.5,0.365773309870457,"true"
"image-keyboard-response",310,307978,"0.0-4.99-1.99","tgdugzqgqvl0tok",522,"168.csv","","null","resources/maskTrios/L1BB.jpg","null","",NA,NA,NA,NA,""
"image-keyboard-response",311,309180,"0.0-4.99-2.99","tgdugzqgqvl0tok",522,"168.csv","","null","resources/images/coin2.png","null","",NA,NA,NA,NA,""
"image-keyboard-response",312,309462,"0.0-4.100-0.100","tgdugzqgqvl0tok",522,"168.csv","","280.30000001192093","resources/trios/L1T2A3.jpg","37","restless",0.7,0.4,0.5,0.15274810411166,"true"
"image-keyboard-response",313,309863,"0.0-4.100-1.100","tgdugzqgqvl0tok",522,"168.csv","","null","resources/maskTrios/L1BB.jpg","null","",NA,NA,NA,NA,""
"image-keyboard-response",314,311065,"0.0-4.100-2.100","tgdugzqgqvl0tok",522,"168.csv","","null","resources/images/coin2.png","null","",NA,NA,NA,NA,""
"image-keyboard-response",315,311270,"0.0-4.101-0.101","tgdugzqgqvl0tok",522,"168.csv","","203.10000002384186","resources/trios/L1T2A3.jpg","37","restless",0.7,0.4,0.5,0.724425746383854,"false"
"image-keyboard-response",316,311672,"0.0-4.101-1.101","tgdugzqgqvl0tok",522,"168.csv","","null","resources/maskTrios/L1BB.jpg","null","",NA,NA,NA,NA,""
"image-keyboard-response",317,312877,"0.0-4.101-2.101","tgdugzqgqvl0tok",522,"168.csv","","null","resources/images/fishbone.png","null","",NA,NA,NA,NA,""
"image-keyboard-response",318,313110,"0.0-4.102-0.102","tgdugzqgqvl0tok",522,"168.csv","","231.0999999642372","resources/trios/L1T2A3.jpg","37","restless",0.7,0.4,0.4,0.788561110245642,"false"
"image-keyboard-response",319,313512,"0.0-4.102-1.102","tgdugzqgqvl0tok",522,"168.csv","","null","resources/maskTrios/L1BB.jpg","null","",NA,NA,NA,NA,""
"image-keyboard-response",320,314713,"0.0-4.102-2.102","tgdugzqgqvl0tok",522,"168.csv","","null","resources/images/fishbone.png","null","",NA,NA,NA,NA,""
"image-keyboard-response",321,315126,"0.0-4.103-0.103","tgdugzqgqvl0tok",522,"168.csv","","410.5","resources/trios/L1T2A3.jpg","37","restless",0.7,0.4,0.3,0.287923016063892,"true"
"image-keyboard-response",322,315528,"0.0-4.103-1.103","tgdugzqgqvl0tok",522,"168.csv","","null","resources/maskTrios/L1BB.jpg","null","",NA,NA,NA,NA,""
"image-keyboard-response",323,316730,"0.0-4.103-2.103","tgdugzqgqvl0tok",522,"168.csv","","null","resources/images/coin2.png","null","",NA,NA,NA,NA,""
"image-keyboard-response",324,317366,"0.0-4.104-0.104","tgdugzqgqvl0tok",522,"168.csv","","634","resources/trios/L1T2A3.jpg","37","restless",0.7,0.4,0.3,0.0436124756025555,"true"
"image-keyboard-response",325,317768,"0.0-4.104-1.104","tgdugzqgqvl0tok",522,"168.csv","","null","resources/maskTrios/L1BB.jpg","null","",NA,NA,NA,NA,""
"image-keyboard-response",326,318970,"0.0-4.104-2.104","tgdugzqgqvl0tok",522,"168.csv","","null","resources/images/coin2.png","null","",NA,NA,NA,NA,""
"image-keyboard-response",327,319654,"0.0-4.105-0.105","tgdugzqgqvl0tok",522,"168.csv","","682.1999999880791","resources/trios/L1T2A3.jpg","37","restless",0.7,0.4,0.3,0.696302166943611,"true"
"image-keyboard-response",328,320055,"0.0-4.105-1.105","tgdugzqgqvl0tok",522,"168.csv","","null","resources/maskTrios/L1BB.jpg","null","",NA,NA,NA,NA,""
"image-keyboard-response",329,321258,"0.0-4.105-2.105","tgdugzqgqvl0tok",522,"168.csv","","null","resources/images/coin2.png","null","",NA,NA,NA,NA,""
"image-keyboard-response",330,321646,"0.0-4.106-0.106","tgdugzqgqvl0tok",522,"168.csv","","386.0999999642372","resources/trios/L1T2A3.jpg","37","restless",0.7,0.4,0.3,0.257634881792276,"true"
"image-keyboard-response",331,322048,"0.0-4.106-1.106","tgdugzqgqvl0tok",522,"168.csv","","null","resources/maskTrios/L1BB.jpg","null","",NA,NA,NA,NA,""
"image-keyboard-response",332,323250,"0.0-4.106-2.106","tgdugzqgqvl0tok",522,"168.csv","","null","resources/images/coin2.png","null","",NA,NA,NA,NA,""
"image-keyboard-response",333,324142,"0.0-4.107-0.107","tgdugzqgqvl0tok",522,"168.csv","","889.8999999761581","resources/trios/L1T2A3.jpg","37","restless",0.7,0.4,0.3,0.672765462661074,"true"
"image-keyboard-response",334,324544,"0.0-4.107-1.107","tgdugzqgqvl0tok",522,"168.csv","","null","resources/maskTrios/L1BB.jpg","null","",NA,NA,NA,NA,""
"image-keyboard-response",335,325746,"0.0-4.107-2.107","tgdugzqgqvl0tok",522,"168.csv","","null","resources/images/coin2.png","null","",NA,NA,NA,NA,""
"image-keyboard-response",336,325942,"0.0-4.108-0.108","tgdugzqgqvl0tok",522,"168.csv","","193.5999999642372","resources/trios/L1T2A3.jpg","37","restless",0.7,0.5,0.3,0.118714357648202,"true"
"image-keyboard-response",337,326344,"0.0-4.108-1.108","tgdugzqgqvl0tok",522,"168.csv","","null","resources/maskTrios/L1BB.jpg","null","",NA,NA,NA,NA,""
"image-keyboard-response",338,327546,"0.0-4.108-2.108","tgdugzqgqvl0tok",522,"168.csv","","null","resources/images/coin2.png","null","",NA,NA,NA,NA,""
"image-keyboard-response",339,328142,"0.0-4.109-0.109","tgdugzqgqvl0tok",522,"168.csv","","593.6999999880791","resources/trios/L1T2A3.jpg","37","restless",0.7,0.5,0.3,0.726272539262268,"false"
"image-keyboard-response",340,328544,"0.0-4.109-1.109","tgdugzqgqvl0tok",522,"168.csv","","null","resources/maskTrios/L1BB.jpg","null","",NA,NA,NA,NA,""
"image-keyboard-response",341,329746,"0.0-4.109-2.109","tgdugzqgqvl0tok",522,"168.csv","","null","resources/images/fishbone.png","null","",NA,NA,NA,NA,""
"image-keyboard-response",342,329926,"0.0-4.110-0.110","tgdugzqgqvl0tok",522,"168.csv","","178.29999995231628","resources/trios/L1T2A3.jpg","37","restless",0.7,0.5,0.3,0.327094578872957,"true"
"image-keyboard-response",343,330328,"0.0-4.110-1.110","tgdugzqgqvl0tok",522,"168.csv","","null","resources/maskTrios/L1BB.jpg","null","",NA,NA,NA,NA,""
"image-keyboard-response",344,331530,"0.0-4.110-2.110","tgdugzqgqvl0tok",522,"168.csv","","null","resources/images/coin2.png","null","",NA,NA,NA,NA,""
"image-keyboard-response",345,331814,"0.0-4.111-0.111","tgdugzqgqvl0tok",522,"168.csv","","282.10000002384186","resources/trios/L1T2A3.jpg","37","restless",0.7,0.5,0.3,0.933809481620298,"false"
"image-keyboard-response",346,332218,"0.0-4.111-1.111","tgdugzqgqvl0tok",522,"168.csv","","null","resources/maskTrios/L1BB.jpg","null","",NA,NA,NA,NA,""
"image-keyboard-response",347,333419,"0.0-4.111-2.111","tgdugzqgqvl0tok",522,"168.csv","","null","resources/images/fishbone.png","null","",NA,NA,NA,NA,""
"image-keyboard-response",348,333766,"0.0-4.112-0.112","tgdugzqgqvl0tok",522,"168.csv","","344.69999998807907","resources/trios/L1T2A3.jpg","37","restless",0.7,0.5,0.4,0.123525312980081,"true"
"image-keyboard-response",349,334168,"0.0-4.112-1.112","tgdugzqgqvl0tok",522,"168.csv","","null","resources/maskTrios/L1BB.jpg","null","",NA,NA,NA,NA,""
"image-keyboard-response",350,335370,"0.0-4.112-2.112","tgdugzqgqvl0tok",522,"168.csv","","null","resources/images/coin2.png","null","",NA,NA,NA,NA,""
"image-keyboard-response",351,335622,"0.0-4.113-0.113","tgdugzqgqvl0tok",522,"168.csv","","250.4000000357628","resources/trios/L1T2A3.jpg","37","restless",0.7,0.5,0.4,0.281794461783008,"true"
"image-keyboard-response",352,336025,"0.0-4.113-1.113","tgdugzqgqvl0tok",522,"168.csv","","null","resources/maskTrios/L1BB.jpg","null","",NA,NA,NA,NA,""
"image-keyboard-response",353,337226,"0.0-4.113-2.113","tgdugzqgqvl0tok",522,"168.csv","","null","resources/images/coin2.png","null","",NA,NA,NA,NA,""
"image-keyboard-response",354,339725,"0.0-4.114-0.114","tgdugzqgqvl0tok",522,"168.csv","","2497.699999988079","resources/trios/L1T2A3.jpg","37","restless",0.7,0.5,0.4,0.168137421568068,"true"
"image-keyboard-response",355,340127,"0.0-4.114-1.114","tgdugzqgqvl0tok",522,"168.csv","","null","resources/maskTrios/L1BB.jpg","null","",NA,NA,NA,NA,""
"image-keyboard-response",356,341329,"0.0-4.114-2.114","tgdugzqgqvl0tok",522,"168.csv","","null","resources/images/coin2.png","null","",NA,NA,NA,NA,""
"image-keyboard-response",357,341598,"0.0-4.115-0.115","tgdugzqgqvl0tok",522,"168.csv","","268.0999999642372","resources/trios/L1T2A3.jpg","37","restless",0.8,0.5,0.4,0.582425481102555,"true"
"image-keyboard-response",358,341999,"0.0-4.115-1.115","tgdugzqgqvl0tok",522,"168.csv","","null","resources/maskTrios/L1BB.jpg","null","",NA,NA,NA,NA,""
"image-keyboard-response",359,343201,"0.0-4.115-2.115","tgdugzqgqvl0tok",522,"168.csv","","null","resources/images/coin2.png","null","",NA,NA,NA,NA,""
"image-keyboard-response",360,343486,"0.0-4.116-0.116","tgdugzqgqvl0tok",522,"168.csv","","283.10000002384186","resources/trios/L1T2A3.jpg","37","restless",0.7,0.6,0.4,0.797272571660144,"false"
"image-keyboard-response",361,343888,"0.0-4.116-1.116","tgdugzqgqvl0tok",522,"168.csv","","null","resources/maskTrios/L1BB.jpg","null","",NA,NA,NA,NA,""
"image-keyboard-response",362,345089,"0.0-4.116-2.116","tgdugzqgqvl0tok",522,"168.csv","","null","resources/images/fishbone.png","null","",NA,NA,NA,NA,""
"image-keyboard-response",363,345382,"0.0-4.117-0.117","tgdugzqgqvl0tok",522,"168.csv","","290.39999997615814","resources/trios/L1T2A3.jpg","37","restless",0.7,0.6,0.5,0.40691299432089,"true"
"image-keyboard-response",364,345784,"0.0-4.117-1.117","tgdugzqgqvl0tok",522,"168.csv","","null","resources/maskTrios/L1BB.jpg","null","",NA,NA,NA,NA,""
"image-keyboard-response",365,346986,"0.0-4.117-2.117","tgdugzqgqvl0tok",522,"168.csv","","null","resources/images/coin2.png","null","",NA,NA,NA,NA,""
"image-keyboard-response",366,347262,"0.0-4.118-0.118","tgdugzqgqvl0tok",522,"168.csv","","273.9000000357628","resources/trios/L1T2A3.jpg","37","restless",0.7,0.6,0.5,0.847655701312095,"false"
"image-keyboard-response",367,347665,"0.0-4.118-1.118","tgdugzqgqvl0tok",522,"168.csv","","null","resources/maskTrios/L1BB.jpg","null","",NA,NA,NA,NA,""
"image-keyboard-response",368,348866,"0.0-4.118-2.118","tgdugzqgqvl0tok",522,"168.csv","","null","resources/images/fishbone.png","null","",NA,NA,NA,NA,""
"image-keyboard-response",369,349166,"0.0-4.119-0.119","tgdugzqgqvl0tok",522,"168.csv","","298","resources/trios/L1T2A3.jpg","38","restless",0.7,0.6,0.5,0.366073252189641,"true"
"image-keyboard-response",370,349568,"0.0-4.119-1.119","tgdugzqgqvl0tok",522,"168.csv","","null","resources/maskTrios/BT2B.jpg","null","",NA,NA,NA,NA,""
"image-keyboard-response",371,350770,"0.0-4.119-2.119","tgdugzqgqvl0tok",522,"168.csv","","null","resources/images/coin2.png","null","",NA,NA,NA,NA,""
"image-keyboard-response",372,350950,"0.0-4.120-0.120","tgdugzqgqvl0tok",522,"168.csv","","177.69999998807907","resources/trios/L1T2A3.jpg","38","restless",0.7,0.6,0.5,0.0718443297464517,"true"
"image-keyboard-response",373,351352,"0.0-4.120-1.120","tgdugzqgqvl0tok",522,"168.csv","","null","resources/maskTrios/BT2B.jpg","null","",NA,NA,NA,NA,""
"image-keyboard-response",374,352554,"0.0-4.120-2.120","tgdugzqgqvl0tok",522,"168.csv","","null","resources/images/coin2.png","null","",NA,NA,NA,NA,""
"image-keyboard-response",375,352862,"0.0-4.121-0.121","tgdugzqgqvl0tok",522,"168.csv","","305.5999999642372","resources/trios/L1T2A3.jpg","38","restless",0.6,0.6,0.5,0.575530209775004,"true"
"image-keyboard-response",376,353264,"0.0-4.121-1.121","tgdugzqgqvl0tok",522,"168.csv","","null","resources/maskTrios/BT2B.jpg","null","",NA,NA,NA,NA,""
"image-keyboard-response",377,354466,"0.0-4.121-2.121","tgdugzqgqvl0tok",522,"168.csv","","null","resources/images/coin2.png","null","",NA,NA,NA,NA,""
"image-keyboard-response",378,354686,"0.0-4.122-0.122","tgdugzqgqvl0tok",522,"168.csv","","218.10000002384186","resources/trios/L1T2A3.jpg","38","restless",0.6,0.6,0.5,0.572821511161204,"true"
"image-keyboard-response",379,355088,"0.0-4.122-1.122","tgdugzqgqvl0tok",522,"168.csv","","null","resources/maskTrios/BT2B.jpg","null","",NA,NA,NA,NA,""
"image-keyboard-response",380,356290,"0.0-4.122-2.122","tgdugzqgqvl0tok",522,"168.csv","","null","resources/images/coin2.png","null","",NA,NA,NA,NA,""
"image-keyboard-response",381,356590,"0.0-4.123-0.123","tgdugzqgqvl0tok",522,"168.csv","","298","resources/trios/L1T2A3.jpg","38","restless",0.6,0.6,0.5,0.491208492621274,"true"
"image-keyboard-response",382,356992,"0.0-4.123-1.123","tgdugzqgqvl0tok",522,"168.csv","","null","resources/maskTrios/BT2B.jpg","null","",NA,NA,NA,NA,""
"image-keyboard-response",383,358195,"0.0-4.123-2.123","tgdugzqgqvl0tok",522,"168.csv","","null","resources/images/coin2.png","null","",NA,NA,NA,NA,""
"image-keyboard-response",384,358390,"0.0-4.124-0.124","tgdugzqgqvl0tok",522,"168.csv","","193.80000001192093","resources/trios/L1T2A3.jpg","38","restless",0.6,0.6,0.5,0.96489065262397,"false"
"image-keyboard-response",385,358792,"0.0-4.124-1.124","tgdugzqgqvl0tok",522,"168.csv","","null","resources/maskTrios/BT2B.jpg","null","",NA,NA,NA,NA,""
"image-keyboard-response",386,359994,"0.0-4.124-2.124","tgdugzqgqvl0tok",522,"168.csv","","null","resources/images/fishbone.png","null","",NA,NA,NA,NA,""
"image-keyboard-response",387,360110,"0.0-4.125-0.125","tgdugzqgqvl0tok",522,"168.csv","","113.80000001192093","resources/trios/L1T2A3.jpg","38","restless",0.6,0.6,0.5,0.346225757369893,"true"
"image-keyboard-response",388,360511,"0.0-4.125-1.125","tgdugzqgqvl0tok",522,"168.csv","","null","resources/maskTrios/BT2B.jpg","null","",NA,NA,NA,NA,""
"image-keyboard-response",389,361713,"0.0-4.125-2.125","tgdugzqgqvl0tok",522,"168.csv","","null","resources/images/coin2.png","null","",NA,NA,NA,NA,""
"image-keyboard-response",390,361990,"0.0-4.126-0.126","tgdugzqgqvl0tok",522,"168.csv","","275","resources/trios/L1T2A3.jpg","38","restless",0.6,0.6,0.5,0.331283539721565,"true"
"image-keyboard-response",391,362392,"0.0-4.126-1.126","tgdugzqgqvl0tok",522,"168.csv","","null","resources/maskTrios/BT2B.jpg","null","",NA,NA,NA,NA,""
"image-keyboard-response",392,363594,"0.0-4.126-2.126","tgdugzqgqvl0tok",522,"168.csv","","null","resources/images/coin2.png","null","",NA,NA,NA,NA,""
"image-keyboard-response",393,363878,"0.0-4.127-0.127","tgdugzqgqvl0tok",522,"168.csv","","281.7999999523163","resources/trios/L1T2A3.jpg","38","restless",0.6,0.6,0.5,0.671511878874732,"false"
"image-keyboard-response",394,364280,"0.0-4.127-1.127","tgdugzqgqvl0tok",522,"168.csv","","null","resources/maskTrios/BT2B.jpg","null","",NA,NA,NA,NA,""
"image-keyboard-response",395,365482,"0.0-4.127-2.127","tgdugzqgqvl0tok",522,"168.csv","","null","resources/images/fishbone.png","null","",NA,NA,NA,NA,""
"image-keyboard-response",396,365710,"0.0-4.128-0.128","tgdugzqgqvl0tok",522,"168.csv","","225.69999998807907","resources/trios/L1T2A3.jpg","38","restless",0.6,0.6,0.5,0.847594488305446,"false"
"image-keyboard-response",397,366112,"0.0-4.128-1.128","tgdugzqgqvl0tok",522,"168.csv","","null","resources/maskTrios/BT2B.jpg","null","",NA,NA,NA,NA,""
"image-keyboard-response",398,367314,"0.0-4.128-2.128","tgdugzqgqvl0tok",522,"168.csv","","null","resources/images/fishbone.png","null","",NA,NA,NA,NA,""
"image-keyboard-response",399,367558,"0.0-4.129-0.129","tgdugzqgqvl0tok",522,"168.csv","","241.60000002384186","resources/trios/L1T2A3.jpg","38","restless",0.6,0.6,0.5,0.182293675625375,"true"
"image-keyboard-response",400,367960,"0.0-4.129-1.129","tgdugzqgqvl0tok",522,"168.csv","","null","resources/maskTrios/BT2B.jpg","null","",NA,NA,NA,NA,""
"image-keyboard-response",401,369163,"0.0-4.129-2.129","tgdugzqgqvl0tok",522,"168.csv","","null","resources/images/coin2.png","null","",NA,NA,NA,NA,""
"image-keyboard-response",402,369550,"0.0-4.130-0.130","tgdugzqgqvl0tok",522,"168.csv","","385.80000001192093","resources/trios/L1T2A3.jpg","38","restless",0.6,0.6,0.5,0.187563417318617,"true"
"image-keyboard-response",403,369952,"0.0-4.130-1.130","tgdugzqgqvl0tok",522,"168.csv","","null","resources/maskTrios/BT2B.jpg","null","",NA,NA,NA,NA,""
"image-keyboard-response",404,371153,"0.0-4.130-2.130","tgdugzqgqvl0tok",522,"168.csv","","null","resources/images/coin2.png","null","",NA,NA,NA,NA,""
"image-keyboard-response",405,371406,"0.0-4.131-0.131","tgdugzqgqvl0tok",522,"168.csv","","250.69999998807907","resources/trios/L1T2A3.jpg","38","restless",0.6,0.6,0.4,0.50172374733916,"true"
"image-keyboard-response",406,371808,"0.0-4.131-1.131","tgdugzqgqvl0tok",522,"168.csv","","null","resources/maskTrios/BT2B.jpg","null","",NA,NA,NA,NA,""
"image-keyboard-response",407,373010,"0.0-4.131-2.131","tgdugzqgqvl0tok",522,"168.csv","","null","resources/images/coin2.png","null","",NA,NA,NA,NA,""
"image-keyboard-response",408,373278,"0.0-4.132-0.132","tgdugzqgqvl0tok",522,"168.csv","","265.5999999642372","resources/trios/L1T2A3.jpg","38","restless",0.6,0.6,0.4,0.912377549583013,"false"
"image-keyboard-response",409,373680,"0.0-4.132-1.132","tgdugzqgqvl0tok",522,"168.csv","","null","resources/maskTrios/BT2B.jpg","null","",NA,NA,NA,NA,""
"image-keyboard-response",410,374882,"0.0-4.132-2.132","tgdugzqgqvl0tok",522,"168.csv","","null","resources/images/fishbone.png","null","",NA,NA,NA,NA,""
"image-keyboard-response",411,375278,"0.0-4.133-0.133","tgdugzqgqvl0tok",522,"168.csv","","393.39999997615814","resources/trios/L1T2A3.jpg","39","restless",0.6,0.6,0.4,0.48902974025627,"false"
"image-keyboard-response",412,375680,"0.0-4.133-1.133","tgdugzqgqvl0tok",522,"168.csv","","null","resources/maskTrios/BBA3.jpg","null","",NA,NA,NA,NA,""
"image-keyboard-response",413,376882,"0.0-4.133-2.133","tgdugzqgqvl0tok",522,"168.csv","","null","resources/images/fishbone.png","null","",NA,NA,NA,NA,""
"image-keyboard-response",414,377094,"0.0-4.134-0.134","tgdugzqgqvl0tok",522,"168.csv","","210","resources/trios/L1T2A3.jpg","39","restless",0.6,0.6,0.4,0.343153840485122,"true"
"image-keyboard-response",415,377496,"0.0-4.134-1.134","tgdugzqgqvl0tok",522,"168.csv","","null","resources/maskTrios/BBA3.jpg","null","",NA,NA,NA,NA,""
"image-keyboard-response",416,378697,"0.0-4.134-2.134","tgdugzqgqvl0tok",522,"168.csv","","null","resources/images/coin2.png","null","",NA,NA,NA,NA,""
"image-keyboard-response",417,378998,"0.0-4.135-0.135","tgdugzqgqvl0tok",522,"168.csv","","298.5999999642372","resources/trios/L1T2A3.jpg","39","restless",0.6,0.6,0.4,0.11449911855569,"true"
"image-keyboard-response",418,379400,"0.0-4.135-1.135","tgdugzqgqvl0tok",522,"168.csv","","null","resources/maskTrios/BBA3.jpg","null","",NA,NA,NA,NA,""
"image-keyboard-response",419,380602,"0.0-4.135-2.135","tgdugzqgqvl0tok",522,"168.csv","","null","resources/images/coin2.png","null","",NA,NA,NA,NA,""
"image-keyboard-response",420,380822,"0.0-4.136-0.136","tgdugzqgqvl0tok",522,"168.csv","","218.4000000357628","resources/trios/L1T2A3.jpg","39","restless",0.6,0.5,0.4,0.0730461999783629,"true"
"image-keyboard-response",421,381225,"0.0-4.136-1.136","tgdugzqgqvl0tok",522,"168.csv","","null","resources/maskTrios/BBA3.jpg","null","",NA,NA,NA,NA,""
"image-keyboard-response",422,382428,"0.0-4.136-2.136","tgdugzqgqvl0tok",522,"168.csv","","null","resources/images/coin2.png","null","",NA,NA,NA,NA,""
"image-keyboard-response",423,382630,"0.0-4.137-0.137","tgdugzqgqvl0tok",522,"168.csv","","200.29999995231628","resources/trios/L1T2A3.jpg","39","restless",0.5,0.5,0.4,0.208255570666598,"true"
"image-keyboard-response",424,383032,"0.0-4.137-1.137","tgdugzqgqvl0tok",522,"168.csv","","null","resources/maskTrios/BBA3.jpg","null","",NA,NA,NA,NA,""
"image-keyboard-response",425,384234,"0.0-4.137-2.137","tgdugzqgqvl0tok",522,"168.csv","","null","resources/images/coin2.png","null","",NA,NA,NA,NA,""
"image-keyboard-response",426,384390,"0.0-4.138-0.138","tgdugzqgqvl0tok",522,"168.csv","","155.29999995231628","resources/trios/L1T2A3.jpg","39","restless",0.5,0.5,0.4,0.391483966371955,"true"
"image-keyboard-response",427,384792,"0.0-4.138-1.138","tgdugzqgqvl0tok",522,"168.csv","","null","resources/maskTrios/BBA3.jpg","null","",NA,NA,NA,NA,""
"image-keyboard-response",428,385994,"0.0-4.138-2.138","tgdugzqgqvl0tok",522,"168.csv","","null","resources/images/coin2.png","null","",NA,NA,NA,NA,""
"image-keyboard-response",429,386182,"0.0-4.139-0.139","tgdugzqgqvl0tok",522,"168.csv","","186.30000001192093","resources/trios/L1T2A3.jpg","39","restless",0.5,0.5,0.4,0.767129459537912,"false"
"image-keyboard-response",430,386584,"0.0-4.139-1.139","tgdugzqgqvl0tok",522,"168.csv","","null","resources/maskTrios/BBA3.jpg","null","",NA,NA,NA,NA,""
"image-keyboard-response",431,387786,"0.0-4.139-2.139","tgdugzqgqvl0tok",522,"168.csv","","null","resources/images/fishbone.png","null","",NA,NA,NA,NA,""
"image-keyboard-response",432,387998,"0.0-4.140-0.140","tgdugzqgqvl0tok",522,"168.csv","","210.39999997615814","resources/trios/L1T2A3.jpg","39","restless",0.5,0.5,0.4,0.728129825293746,"false"
"image-keyboard-response",433,388400,"0.0-4.140-1.140","tgdugzqgqvl0tok",522,"168.csv","","null","resources/maskTrios/BBA3.jpg","null","",NA,NA,NA,NA,""
"image-keyboard-response",434,389602,"0.0-4.140-2.140","tgdugzqgqvl0tok",522,"168.csv","","null","resources/images/fishbone.png","null","",NA,NA,NA,NA,""
"image-keyboard-response",435,390014,"0.0-4.141-0.141","tgdugzqgqvl0tok",522,"168.csv","","410.39999997615814","resources/trios/L1T2A3.jpg","39","restless",0.6,0.5,0.4,0.918673998086838,"false"
"image-keyboard-response",436,390416,"0.0-4.141-1.141","tgdugzqgqvl0tok",522,"168.csv","","null","resources/maskTrios/BBA3.jpg","null","",NA,NA,NA,NA,""
"image-keyboard-response",437,391618,"0.0-4.141-2.141","tgdugzqgqvl0tok",522,"168.csv","","null","resources/images/fishbone.png","null","",NA,NA,NA,NA,""
"image-keyboard-response",438,391894,"0.0-4.142-0.142","tgdugzqgqvl0tok",522,"168.csv","","274.60000002384186","resources/trios/L1T2A3.jpg","37","restless",0.6,0.5,0.4,0.142859060128326,"true"
"image-keyboard-response",439,392296,"0.0-4.142-1.142","tgdugzqgqvl0tok",522,"168.csv","","null","resources/maskTrios/L1BB.jpg","null","",NA,NA,NA,NA,""
"image-keyboard-response",440,393498,"0.0-4.142-2.142","tgdugzqgqvl0tok",522,"168.csv","","null","resources/images/coin2.png","null","",NA,NA,NA,NA,""
"image-keyboard-response",441,393702,"0.0-4.143-0.143","tgdugzqgqvl0tok",522,"168.csv","","202.30000001192093","resources/trios/L1T2A3.jpg","37","restless",0.5,0.5,0.4,0.241485655071945,"true"
"image-keyboard-response",442,394113,"0.0-4.143-1.143","tgdugzqgqvl0tok",522,"168.csv","","null","resources/maskTrios/L1BB.jpg","null","",NA,NA,NA,NA,""
"image-keyboard-response",443,395315,"0.0-4.143-2.143","tgdugzqgqvl0tok",522,"168.csv","","null","resources/images/coin2.png","null","",NA,NA,NA,NA,""
"image-keyboard-response",444,395670,"0.0-4.144-0.144","tgdugzqgqvl0tok",522,"168.csv","","353.69999998807907","resources/trios/L1T2A3.jpg","37","restless",0.5,0.5,0.4,0.263739226686688,"true"
"image-keyboard-response",445,396071,"0.0-4.144-1.144","tgdugzqgqvl0tok",522,"168.csv","","null","resources/maskTrios/L1BB.jpg","null","",NA,NA,NA,NA,""
"image-keyboard-response",446,397273,"0.0-4.144-2.144","tgdugzqgqvl0tok",522,"168.csv","","null","resources/images/coin2.png","null","",NA,NA,NA,NA,""
"image-keyboard-response",447,397510,"0.0-4.145-0.145","tgdugzqgqvl0tok",522,"168.csv","","234.69999998807907","resources/trios/L1T2A3.jpg","37","restless",0.6,0.5,0.4,0.658961796784825,"false"
"image-keyboard-response",448,397912,"0.0-4.145-1.145","tgdugzqgqvl0tok",522,"168.csv","","null","resources/maskTrios/L1BB.jpg","null","",NA,NA,NA,NA,""
"image-keyboard-response",449,399113,"0.0-4.145-2.145","tgdugzqgqvl0tok",522,"168.csv","","null","resources/images/fishbone.png","null","",NA,NA,NA,NA,""
"image-keyboard-response",450,399366,"0.0-4.146-0.146","tgdugzqgqvl0tok",522,"168.csv","","250.89999997615814","resources/trios/L1T2A3.jpg","37","restless",0.6,0.5,0.4,0.111495081336355,"true"
"image-keyboard-response",451,399768,"0.0-4.146-1.146","tgdugzqgqvl0tok",522,"168.csv","","null","resources/maskTrios/L1BB.jpg","null","",NA,NA,NA,NA,""
"image-keyboard-response",452,400970,"0.0-4.146-2.146","tgdugzqgqvl0tok",522,"168.csv","","null","resources/images/coin2.png","null","",NA,NA,NA,NA,""
"image-keyboard-response",453,401213,"0.0-4.147-0.147","tgdugzqgqvl0tok",522,"168.csv","","241.30000001192093","resources/trios/L1T2A3.jpg","37","restless",0.6,0.5,0.4,0.464825263462862,"true"
"image-keyboard-response",454,401614,"0.0-4.147-1.147","tgdugzqgqvl0tok",522,"168.csv","","null","resources/maskTrios/L1BB.jpg","null","",NA,NA,NA,NA,""
"image-keyboard-response",455,402816,"0.0-4.147-2.147","tgdugzqgqvl0tok",522,"168.csv","","null","resources/images/coin2.png","null","",NA,NA,NA,NA,""
"image-keyboard-response",456,403134,"0.0-4.148-0.148","tgdugzqgqvl0tok",522,"168.csv","","315.80000001192093","resources/trios/L1T2A3.jpg","37","restless",0.6,0.5,0.4,0.458054058871087,"true"
"image-keyboard-response",457,403536,"0.0-4.148-1.148","tgdugzqgqvl0tok",522,"168.csv","","null","resources/maskTrios/L1BB.jpg","null","",NA,NA,NA,NA,""
"image-keyboard-response",458,404738,"0.0-4.148-2.148","tgdugzqgqvl0tok",522,"168.csv","","null","resources/images/coin2.png","null","",NA,NA,NA,NA,""
"image-keyboard-response",459,405006,"0.0-4.149-0.149","tgdugzqgqvl0tok",522,"168.csv","","265.39999997615814","resources/trios/L1T2A3.jpg","37","restless",0.6,0.5,0.4,0.67555798813163,"false"
"image-keyboard-response",460,405408,"0.0-4.149-1.149","tgdugzqgqvl0tok",522,"168.csv","","null","resources/maskTrios/L1BB.jpg","null","",NA,NA,NA,NA,""
"image-keyboard-response",461,406610,"0.0-4.149-2.149","tgdugzqgqvl0tok",522,"168.csv","","null","resources/images/fishbone.png","null","",NA,NA,NA,NA,""
"image-keyboard-response",462,406862,"0.0-4.150-0.150","tgdugzqgqvl0tok",522,"168.csv","","250.0999999642372","resources/trios/L1T2A3.jpg","37","restless",0.6,0.5,0.4,0.840044967212101,"false"
"image-keyboard-response",463,407264,"0.0-4.150-1.150","tgdugzqgqvl0tok",522,"168.csv","","null","resources/maskTrios/L1BB.jpg","null","",NA,NA,NA,NA,""
"image-keyboard-response",464,408465,"0.0-4.150-2.150","tgdugzqgqvl0tok",522,"168.csv","","null","resources/images/fishbone.png","null","",NA,NA,NA,NA,""
"image-keyboard-response",465,408686,"0.0-4.151-0.151","tgdugzqgqvl0tok",522,"168.csv","","218.69999998807907","resources/trios/L1T2A3.jpg","38","restless",0.5,0.5,0.4,0.675571291841413,"false"
"image-keyboard-response",466,409089,"0.0-4.151-1.151","tgdugzqgqvl0tok",522,"168.csv","","null","resources/maskTrios/BT2B.jpg","null","",NA,NA,NA,NA,""
"image-keyboard-response",467,410291,"0.0-4.151-2.151","tgdugzqgqvl0tok",522,"168.csv","","null","resources/images/fishbone.png","null","",NA,NA,NA,NA,""
"image-keyboard-response",468,410534,"0.0-4.152-0.152","tgdugzqgqvl0tok",522,"168.csv","","240.89999997615814","resources/trios/L1T2A3.jpg","39","restless",0.5,0.5,0.4,0.383186821091408,"true"
"image-keyboard-response",469,410936,"0.0-4.152-1.152","tgdugzqgqvl0tok",522,"168.csv","","null","resources/maskTrios/BBA3.jpg","null","",NA,NA,NA,NA,""
"image-keyboard-response",470,412139,"0.0-4.152-2.152","tgdugzqgqvl0tok",522,"168.csv","","null","resources/images/coin2.png","null","",NA,NA,NA,NA,""
"image-keyboard-response",471,412318,"0.0-4.153-0.153","tgdugzqgqvl0tok",522,"168.csv","","177.39999997615814","resources/trios/L1T2A3.jpg","39","restless",0.5,0.5,0.4,0.64687111716085,"false"
"image-keyboard-response",472,412720,"0.0-4.153-1.153","tgdugzqgqvl0tok",522,"168.csv","","null","resources/maskTrios/BBA3.jpg","null","",NA,NA,NA,NA,""
"image-keyboard-response",473,413921,"0.0-4.153-2.153","tgdugzqgqvl0tok",522,"168.csv","","null","resources/images/fishbone.png","null","",NA,NA,NA,NA,""
"image-keyboard-response",474,414118,"0.0-4.154-0.154","tgdugzqgqvl0tok",522,"168.csv","","195.10000002384186","resources/trios/L1T2A3.jpg","39","restless",0.4,0.5,0.4,0.847658100683927,"false"
"image-keyboard-response",475,414520,"0.0-4.154-1.154","tgdugzqgqvl0tok",522,"168.csv","","null","resources/maskTrios/BBA3.jpg","null","",NA,NA,NA,NA,""
"image-keyboard-response",476,415722,"0.0-4.154-2.154","tgdugzqgqvl0tok",522,"168.csv","","null","resources/images/fishbone.png","null","",NA,NA,NA,NA,""
"image-keyboard-response",477,415934,"0.0-4.155-0.155","tgdugzqgqvl0tok",522,"168.csv","","210.30000001192093","resources/trios/L1T2A3.jpg","38","restless",0.4,0.5,0.4,0.0542808405575719,"true"
"image-keyboard-response",478,416337,"0.0-4.155-1.155","tgdugzqgqvl0tok",522,"168.csv","","null","resources/maskTrios/BT2B.jpg","null","",NA,NA,NA,NA,""
"image-keyboard-response",479,417540,"0.0-4.155-2.155","tgdugzqgqvl0tok",522,"168.csv","","null","resources/images/coin2.png","null","",NA,NA,NA,NA,""
"image-keyboard-response",480,417790,"0.0-4.156-0.156","tgdugzqgqvl0tok",522,"168.csv","","248.10000002384186","resources/trios/L1T2A3.jpg","38","restless",0.4,0.5,0.4,0.868826420741845,"false"
"image-keyboard-response",481,418192,"0.0-4.156-1.156","tgdugzqgqvl0tok",522,"168.csv","","null","resources/maskTrios/BT2B.jpg","null","",NA,NA,NA,NA,""
"image-keyboard-response",482,419394,"0.0-4.156-2.156","tgdugzqgqvl0tok",522,"168.csv","","null","resources/images/fishbone.png","null","",NA,NA,NA,NA,""
"image-keyboard-response",483,419662,"0.0-4.157-0.157","tgdugzqgqvl0tok",522,"168.csv","","266.30000001192093","resources/trios/L1T2A3.jpg","37","restless",0.4,0.5,0.4,0.321601238760938,"true"
"image-keyboard-response",484,420073,"0.0-4.157-1.157","tgdugzqgqvl0tok",522,"168.csv","","null","resources/maskTrios/L1BB.jpg","null","",NA,NA,NA,NA,""
"image-keyboard-response",485,421274,"0.0-4.157-2.157","tgdugzqgqvl0tok",522,"168.csv","","null","resources/images/coin2.png","null","",NA,NA,NA,NA,""
"image-keyboard-response",486,421566,"0.0-4.158-0.158","tgdugzqgqvl0tok",522,"168.csv","","289.80000001192093","resources/trios/L1T2A3.jpg","37","restless",0.4,0.5,0.4,0.243832386422135,"true"
"image-keyboard-response",487,421968,"0.0-4.158-1.158","tgdugzqgqvl0tok",522,"168.csv","","null","resources/maskTrios/L1BB.jpg","null","",NA,NA,NA,NA,""
"image-keyboard-response",488,423170,"0.0-4.158-2.158","tgdugzqgqvl0tok",522,"168.csv","","null","resources/images/coin2.png","null","",NA,NA,NA,NA,""
"image-keyboard-response",489,423406,"0.0-4.159-0.159","tgdugzqgqvl0tok",522,"168.csv","","233.80000001192093","resources/trios/L1T2A3.jpg","37","restless",0.4,0.4,0.4,0.919982863691407,"false"
"image-keyboard-response",490,423808,"0.0-4.159-1.159","tgdugzqgqvl0tok",522,"168.csv","","null","resources/maskTrios/L1BB.jpg","null","",NA,NA,NA,NA,""
"image-keyboard-response",491,425010,"0.0-4.159-2.159","tgdugzqgqvl0tok",522,"168.csv","","null","resources/images/fishbone.png","null","",NA,NA,NA,NA,""
"image-keyboard-response",492,425246,"0.0-4.160-0.160","tgdugzqgqvl0tok",522,"168.csv","","234.30000001192093","resources/trios/L1T2A3.jpg","37","restless",0.4,0.4,0.4,0.840566271345613,"false"
"image-keyboard-response",493,425648,"0.0-4.160-1.160","tgdugzqgqvl0tok",522,"168.csv","","null","resources/maskTrios/L1BB.jpg","null","",NA,NA,NA,NA,""
"image-keyboard-response",494,426849,"0.0-4.160-2.160","tgdugzqgqvl0tok",522,"168.csv","","null","resources/images/fishbone.png","null","",NA,NA,NA,NA,""
"image-keyboard-response",495,426982,"0.0-4.161-0.161","tgdugzqgqvl0tok",522,"168.csv","","130.39999997615814","resources/trios/L1T2A3.jpg","37","restless",0.4,0.4,0.4,0.903685861184974,"false"
"image-keyboard-response",496,427385,"0.0-4.161-1.161","tgdugzqgqvl0tok",522,"168.csv","","null","resources/maskTrios/L1BB.jpg","null","",NA,NA,NA,NA,""
"image-keyboard-response",497,428587,"0.0-4.161-2.161","tgdugzqgqvl0tok",522,"168.csv","","null","resources/images/fishbone.png","null","",NA,NA,NA,NA,""
"image-keyboard-response",498,428670,"0.0-4.162-0.162","tgdugzqgqvl0tok",522,"168.csv","","81.30000001192093","resources/trios/L1T2A3.jpg","37","restless",0.4,0.4,0.4,0.178137538698502,"true"
"image-keyboard-response",499,429073,"0.0-4.162-1.162","tgdugzqgqvl0tok",522,"168.csv","","null","resources/maskTrios/L1BB.jpg","null","",NA,NA,NA,NA,""
"image-keyboard-response",500,430275,"0.0-4.162-2.162","tgdugzqgqvl0tok",522,"168.csv","","null","resources/images/coin2.png","null","",NA,NA,NA,NA,""
"image-keyboard-response",501,430374,"0.0-4.163-0.163","tgdugzqgqvl0tok",522,"168.csv","","96.69999998807907","resources/trios/L1T2A3.jpg","37","restless",0.4,0.4,0.4,0.215172804883875,"true"
"image-keyboard-response",502,430776,"0.0-4.163-1.163","tgdugzqgqvl0tok",522,"168.csv","","null","resources/maskTrios/L1BB.jpg","null","",NA,NA,NA,NA,""
"image-keyboard-response",503,431978,"0.0-4.163-2.163","tgdugzqgqvl0tok",522,"168.csv","","null","resources/images/coin2.png","null","",NA,NA,NA,NA,""
"image-keyboard-response",504,432198,"0.0-4.164-0.164","tgdugzqgqvl0tok",522,"168.csv","","218.39999997615814","resources/trios/L1T2A3.jpg","37","restless",0.4,0.4,0.5,0.362819730634809,"true"
"image-keyboard-response",505,432600,"0.0-4.164-1.164","tgdugzqgqvl0tok",522,"168.csv","","null","resources/maskTrios/L1BB.jpg","null","",NA,NA,NA,NA,""
"image-keyboard-response",506,433803,"0.0-4.164-2.164","tgdugzqgqvl0tok",522,"168.csv","","null","resources/images/coin2.png","null","",NA,NA,NA,NA,""
"image-keyboard-response",507,433918,"0.0-4.165-0.165","tgdugzqgqvl0tok",522,"168.csv","","113.39999997615814","resources/trios/L1T2A3.jpg","37","restless",0.4,0.3,0.5,0.873989353841938,"false"
"image-keyboard-response",508,434320,"0.0-4.165-1.165","tgdugzqgqvl0tok",522,"168.csv","","null","resources/maskTrios/L1BB.jpg","null","",NA,NA,NA,NA,""
"image-keyboard-response",509,435522,"0.0-4.165-2.165","tgdugzqgqvl0tok",522,"168.csv","","null","resources/images/fishbone.png","null","",NA,NA,NA,NA,""
"image-keyboard-response",510,435638,"0.0-4.166-0.166","tgdugzqgqvl0tok",522,"168.csv","","114","resources/trios/L1T2A3.jpg","38","restless",0.4,0.3,0.5,0.796474962350343,"false"
"image-keyboard-response",511,436041,"0.0-4.166-1.166","tgdugzqgqvl0tok",522,"168.csv","","null","resources/maskTrios/BT2B.jpg","null","",NA,NA,NA,NA,""
"image-keyboard-response",512,437242,"0.0-4.166-2.166","tgdugzqgqvl0tok",522,"168.csv","","null","resources/images/fishbone.png","null","",NA,NA,NA,NA,""
"image-keyboard-response",513,437621,"0.0-4.167-0.167","tgdugzqgqvl0tok",522,"168.csv","","377.69999998807907","resources/trios/L1T2A3.jpg","38","restless",0.4,0.3,0.6,0.211220461362076,"true"
"image-keyboard-response",514,438023,"0.0-4.167-1.167","tgdugzqgqvl0tok",522,"168.csv","","null","resources/maskTrios/BT2B.jpg","null","",NA,NA,NA,NA,""
"image-keyboard-response",515,439225,"0.0-4.167-2.167","tgdugzqgqvl0tok",522,"168.csv","","null","resources/images/coin2.png","null","",NA,NA,NA,NA,""
"image-keyboard-response",516,439550,"0.0-4.168-0.168","tgdugzqgqvl0tok",522,"168.csv","","322.69999998807907","resources/trios/L1T2A3.jpg","38","restless",0.4,0.3,0.6,0.27957043797068,"true"
"image-keyboard-response",517,439952,"0.0-4.168-1.168","tgdugzqgqvl0tok",522,"168.csv","","null","resources/maskTrios/BT2B.jpg","null","",NA,NA,NA,NA,""
"image-keyboard-response",518,441154,"0.0-4.168-2.168","tgdugzqgqvl0tok",522,"168.csv","","null","resources/images/coin2.png","null","",NA,NA,NA,NA,""
"image-keyboard-response",519,441534,"0.0-4.169-0.169","tgdugzqgqvl0tok",522,"168.csv","","377.5","resources/trios/L1T2A3.jpg","38","restless",0.4,0.3,0.6,0.677692498668966,"false"
"image-keyboard-response",520,441936,"0.0-4.169-1.169","tgdugzqgqvl0tok",522,"168.csv","","null","resources/maskTrios/BT2B.jpg","null","",NA,NA,NA,NA,""
"image-keyboard-response",521,443138,"0.0-4.169-2.169","tgdugzqgqvl0tok",522,"168.csv","","null","resources/images/fishbone.png","null","",NA,NA,NA,NA,""
"image-keyboard-response",522,443254,"0.0-4.170-0.170","tgdugzqgqvl0tok",522,"168.csv","","113.59999996423721","resources/trios/L1T2A3.jpg","38","restless",0.4,0.3,0.6,0.424168115813424,"false"
"image-keyboard-response",523,443655,"0.0-4.170-1.170","tgdugzqgqvl0tok",522,"168.csv","","null","resources/maskTrios/BT2B.jpg","null","",NA,NA,NA,NA,""
"image-keyboard-response",524,444858,"0.0-4.170-2.170","tgdugzqgqvl0tok",522,"168.csv","","null","resources/images/fishbone.png","null","",NA,NA,NA,NA,""
"image-keyboard-response",525,446174,"0.0-4.171-0.171","tgdugzqgqvl0tok",522,"168.csv","","1314.699999988079","resources/trios/L1T2A3.jpg","39","restless",0.4,0.3,0.6,0.730258063740271,"false"
"image-keyboard-response",526,446578,"0.0-4.171-1.171","tgdugzqgqvl0tok",522,"168.csv","","null","resources/maskTrios/BBA3.jpg","null","",NA,NA,NA,NA,""
"image-keyboard-response",527,447780,"0.0-4.171-2.171","tgdugzqgqvl0tok",522,"168.csv","","null","resources/images/fishbone.png","null","",NA,NA,NA,NA,""
"image-keyboard-response",528,447854,"0.0-4.172-0.172","tgdugzqgqvl0tok",522,"168.csv","","71.5","resources/trios/L1T2A3.jpg","39","restless",0.4,0.4,0.6,0.963332401380931,"false"
"image-keyboard-response",529,448255,"0.0-4.172-1.172","tgdugzqgqvl0tok",522,"168.csv","","null","resources/maskTrios/BBA3.jpg","null","",NA,NA,NA,NA,""
"image-keyboard-response",530,449458,"0.0-4.172-2.172","tgdugzqgqvl0tok",522,"168.csv","","null","resources/images/fishbone.png","null","",NA,NA,NA,NA,""
"image-keyboard-response",531,449486,"0.0-4.173-0.173","tgdugzqgqvl0tok",522,"168.csv","","25.80000001192093","resources/trios/L1T2A3.jpg","39","restless",0.4,0.4,0.6,0.638313867336055,"false"
"image-keyboard-response",532,449888,"0.0-4.173-1.173","tgdugzqgqvl0tok",522,"168.csv","","null","resources/maskTrios/BBA3.jpg","null","",NA,NA,NA,NA,""
"image-keyboard-response",533,451090,"0.0-4.173-2.173","tgdugzqgqvl0tok",522,"168.csv","","null","resources/images/fishbone.png","null","",NA,NA,NA,NA,""
"image-keyboard-response",534,451294,"0.0-4.174-0.174","tgdugzqgqvl0tok",522,"168.csv","","201.5","resources/trios/L1T2A3.jpg","37","restless",0.4,0.4,0.6,0.123938458315444,"true"
"image-keyboard-response",535,451696,"0.0-4.174-1.174","tgdugzqgqvl0tok",522,"168.csv","","null","resources/maskTrios/L1BB.jpg","null","",NA,NA,NA,NA,""
"image-keyboard-response",536,452898,"0.0-4.174-2.174","tgdugzqgqvl0tok",522,"168.csv","","null","resources/images/coin2.png","null","",NA,NA,NA,NA,""
"image-keyboard-response",537,453142,"0.0-4.175-0.175","tgdugzqgqvl0tok",522,"168.csv","","242.30000001192093","resources/trios/L1T2A3.jpg","37","restless",0.4,0.4,0.6,0.11139297746564,"true"
"image-keyboard-response",538,453544,"0.0-4.175-1.175","tgdugzqgqvl0tok",522,"168.csv","","null","resources/maskTrios/L1BB.jpg","null","",NA,NA,NA,NA,""
"image-keyboard-response",539,454747,"0.0-4.175-2.175","tgdugzqgqvl0tok",522,"168.csv","","null","resources/images/coin2.png","null","",NA,NA,NA,NA,""
"image-keyboard-response",540,455046,"0.0-4.176-0.176","tgdugzqgqvl0tok",522,"168.csv","","297.19999998807907","resources/trios/L1T2A3.jpg","37","restless",0.4,0.4,0.6,0.088118872338796,"true"
"image-keyboard-response",541,455448,"0.0-4.176-1.176","tgdugzqgqvl0tok",522,"168.csv","","null","resources/maskTrios/L1BB.jpg","null","",NA,NA,NA,NA,""
"image-keyboard-response",542,456650,"0.0-4.176-2.176","tgdugzqgqvl0tok",522,"168.csv","","null","resources/images/coin2.png","null","",NA,NA,NA,NA,""
"image-keyboard-response",543,456766,"0.0-4.177-0.177","tgdugzqgqvl0tok",522,"168.csv","","113.90000003576279","resources/trios/L1T2A3.jpg","37","restless",0.3,0.4,0.6,0.903620013975386,"false"
"image-keyboard-response",544,457168,"0.0-4.177-1.177","tgdugzqgqvl0tok",522,"168.csv","","null","resources/maskTrios/L1BB.jpg","null","",NA,NA,NA,NA,""
"image-keyboard-response",545,458370,"0.0-4.177-2.177","tgdugzqgqvl0tok",522,"168.csv","","null","resources/images/fishbone.png","null","",NA,NA,NA,NA,""
"image-keyboard-response",546,458502,"0.0-4.178-0.178","tgdugzqgqvl0tok",522,"168.csv","","129.80000001192093","resources/trios/L1T2A3.jpg","37","restless",0.3,0.4,0.6,0.511825482151591,"false"
"image-keyboard-response",547,458905,"0.0-4.178-1.178","tgdugzqgqvl0tok",522,"168.csv","","null","resources/maskTrios/L1BB.jpg","null","",NA,NA,NA,NA,""
"image-keyboard-response",548,460106,"0.0-4.178-2.178","tgdugzqgqvl0tok",522,"168.csv","","null","resources/images/fishbone.png","null","",NA,NA,NA,NA,""
"image-keyboard-response",549,460342,"0.0-4.179-0.179","tgdugzqgqvl0tok",522,"168.csv","","233.89999997615814","resources/trios/L1T2A3.jpg","38","restless",0.3,0.4,0.6,0.0444256446733673,"true"
"image-keyboard-response",550,460744,"0.0-4.179-1.179","tgdugzqgqvl0tok",522,"168.csv","","null","resources/maskTrios/BT2B.jpg","null","",NA,NA,NA,NA,""
"image-keyboard-response",551,461946,"0.0-4.179-2.179","tgdugzqgqvl0tok",522,"168.csv","","null","resources/images/coin2.png","null","",NA,NA,NA,NA,""
"image-keyboard-response",552,462470,"0.0-4.180-0.180","tgdugzqgqvl0tok",522,"168.csv","","522.5999999642372","resources/trios/L1T2A3.jpg","38","restless",0.3,0.4,0.6,0.145881060394794,"true"
"image-keyboard-response",553,462872,"0.0-4.180-1.180","tgdugzqgqvl0tok",522,"168.csv","","null","resources/maskTrios/BT2B.jpg","null","",NA,NA,NA,NA,""
"image-keyboard-response",554,464074,"0.0-4.180-2.180","tgdugzqgqvl0tok",522,"168.csv","","null","resources/images/coin2.png","null","",NA,NA,NA,NA,""
"image-keyboard-response",555,464174,"0.0-4.181-0.181","tgdugzqgqvl0tok",522,"168.csv","","97.80000001192093","resources/trios/L1T2A3.jpg","38","restless",0.3,0.4,0.6,0.496309629723092,"false"
"image-keyboard-response",556,464576,"0.0-4.181-1.181","tgdugzqgqvl0tok",522,"168.csv","","null","resources/maskTrios/BT2B.jpg","null","",NA,NA,NA,NA,""
"image-keyboard-response",557,465778,"0.0-4.181-2.181","tgdugzqgqvl0tok",522,"168.csv","","null","resources/images/fishbone.png","null","",NA,NA,NA,NA,""
"image-keyboard-response",558,466046,"0.0-4.182-0.182","tgdugzqgqvl0tok",522,"168.csv","","265.7999999523163","resources/trios/L1T2A3.jpg","38","restless",0.3,0.4,0.6,0.665678385140961,"false"
"image-keyboard-response",559,466448,"0.0-4.182-1.182","tgdugzqgqvl0tok",522,"168.csv","","null","resources/maskTrios/BT2B.jpg","null","",NA,NA,NA,NA,""
"image-keyboard-response",560,467650,"0.0-4.182-2.182","tgdugzqgqvl0tok",522,"168.csv","","null","resources/images/fishbone.png","null","",NA,NA,NA,NA,""
"image-keyboard-response",561,467870,"0.0-4.183-0.183","tgdugzqgqvl0tok",522,"168.csv","","218.60000002384186","resources/trios/L1T2A3.jpg","38","restless",0.3,0.4,0.6,0.248654519922226,"true"
"image-keyboard-response",562,468273,"0.0-4.183-1.183","tgdugzqgqvl0tok",522,"168.csv","","null","resources/maskTrios/BT2B.jpg","null","",NA,NA,NA,NA,""
"image-keyboard-response",563,469475,"0.0-4.183-2.183","tgdugzqgqvl0tok",522,"168.csv","","null","resources/images/coin2.png","null","",NA,NA,NA,NA,""
"image-keyboard-response",564,469694,"0.0-4.184-0.184","tgdugzqgqvl0tok",522,"168.csv","","217","resources/trios/L1T2A3.jpg","38","restless",0.3,0.4,0.6,0.216223313458416,"true"
"image-keyboard-response",565,470096,"0.0-4.184-1.184","tgdugzqgqvl0tok",522,"168.csv","","null","resources/maskTrios/BT2B.jpg","null","",NA,NA,NA,NA,""
"image-keyboard-response",566,471298,"0.0-4.184-2.184","tgdugzqgqvl0tok",522,"168.csv","","null","resources/images/coin2.png","null","",NA,NA,NA,NA,""
"image-keyboard-response",567,471454,"0.0-4.185-0.185","tgdugzqgqvl0tok",522,"168.csv","","153.5","resources/trios/L1T2A3.jpg","38","restless",0.3,0.5,0.6,0.122610256440466,"true"
"image-keyboard-response",568,471856,"0.0-4.185-1.185","tgdugzqgqvl0tok",522,"168.csv","","null","resources/maskTrios/BT2B.jpg","null","",NA,NA,NA,NA,""
"image-keyboard-response",569,473058,"0.0-4.185-2.185","tgdugzqgqvl0tok",522,"168.csv","","null","resources/images/coin2.png","null","",NA,NA,NA,NA,""
"image-keyboard-response",570,473246,"0.0-4.186-0.186","tgdugzqgqvl0tok",522,"168.csv","","185.39999997615814","resources/trios/L1T2A3.jpg","38","restless",0.3,0.5,0.6,0.196120157524622,"true"
"image-keyboard-response",571,473648,"0.0-4.186-1.186","tgdugzqgqvl0tok",522,"168.csv","","null","resources/maskTrios/BT2B.jpg","null","",NA,NA,NA,NA,""
"image-keyboard-response",572,474850,"0.0-4.186-2.186","tgdugzqgqvl0tok",522,"168.csv","","null","resources/images/coin2.png","null","",NA,NA,NA,NA,""
"image-keyboard-response",573,475070,"0.0-4.187-0.187","tgdugzqgqvl0tok",522,"168.csv","","217.5999999642372","resources/trios/L1T2A3.jpg","38","restless",0.3,0.5,0.7,0.463046395191591,"true"
"image-keyboard-response",574,475472,"0.0-4.187-1.187","tgdugzqgqvl0tok",522,"168.csv","","null","resources/maskTrios/BT2B.jpg","null","",NA,NA,NA,NA,""
"image-keyboard-response",575,476674,"0.0-4.187-2.187","tgdugzqgqvl0tok",522,"168.csv","","null","resources/images/coin2.png","null","",NA,NA,NA,NA,""
"image-keyboard-response",576,476830,"0.0-4.188-0.188","tgdugzqgqvl0tok",522,"168.csv","","153.5999999642372","resources/trios/L1T2A3.jpg","38","restless",0.3,0.5,0.7,0.331472105657946,"true"
"image-keyboard-response",577,477231,"0.0-4.188-1.188","tgdugzqgqvl0tok",522,"168.csv","","null","resources/maskTrios/BT2B.jpg","null","",NA,NA,NA,NA,""
"image-keyboard-response",578,478433,"0.0-4.188-2.188","tgdugzqgqvl0tok",522,"168.csv","","null","resources/images/coin2.png","null","",NA,NA,NA,NA,""
"image-keyboard-response",579,478670,"0.0-4.189-0.189","tgdugzqgqvl0tok",522,"168.csv","","235.60000002384186","resources/trios/L1T2A3.jpg","38","restless",0.2,0.5,0.7,0.41047168214485,"true"
"image-keyboard-response",580,479072,"0.0-4.189-1.189","tgdugzqgqvl0tok",522,"168.csv","","null","resources/maskTrios/BT2B.jpg","null","",NA,NA,NA,NA,""
"image-keyboard-response",581,480274,"0.0-4.189-2.189","tgdugzqgqvl0tok",522,"168.csv","","null","resources/images/coin2.png","null","",NA,NA,NA,NA,""
"image-keyboard-response",582,480542,"0.0-4.190-0.190","tgdugzqgqvl0tok",522,"168.csv","","265.69999998807907","resources/trios/L1T2A3.jpg","38","restless",0.2,0.5,0.7,0.280481139390739,"true"
"image-keyboard-response",583,480944,"0.0-4.190-1.190","tgdugzqgqvl0tok",522,"168.csv","","null","resources/maskTrios/BT2B.jpg","null","",NA,NA,NA,NA,""
"image-keyboard-response",584,482145,"0.0-4.190-2.190","tgdugzqgqvl0tok",522,"168.csv","","null","resources/images/coin2.png","null","",NA,NA,NA,NA,""
"image-keyboard-response",585,482414,"0.0-4.191-0.191","tgdugzqgqvl0tok",522,"168.csv","","266.5","resources/trios/L1T2A3.jpg","38","restless",0.2,0.5,0.7,0.251180885111335,"true"
"image-keyboard-response",586,482816,"0.0-4.191-1.191","tgdugzqgqvl0tok",522,"168.csv","","null","resources/maskTrios/BT2B.jpg","null","",NA,NA,NA,NA,""
"image-keyboard-response",587,484018,"0.0-4.191-2.191","tgdugzqgqvl0tok",522,"168.csv","","null","resources/images/coin2.png","null","",NA,NA,NA,NA,""
"image-keyboard-response",588,484278,"0.0-4.192-0.192","tgdugzqgqvl0tok",522,"168.csv","","257.5999999642372","resources/trios/L1T2A3.jpg","38","restless",0.2,0.5,0.7,0.683606889605588,"false"
"image-keyboard-response",589,484681,"0.0-4.192-1.192","tgdugzqgqvl0tok",522,"168.csv","","null","resources/maskTrios/BT2B.jpg","null","",NA,NA,NA,NA,""
"image-keyboard-response",590,485883,"0.0-4.192-2.192","tgdugzqgqvl0tok",522,"168.csv","","null","resources/images/fishbone.png","null","",NA,NA,NA,NA,""
"image-keyboard-response",591,486094,"0.0-4.193-0.193","tgdugzqgqvl0tok",522,"168.csv","","209","resources/trios/L1T2A3.jpg","38","restless",0.2,0.5,0.7,0.589679112451609,"false"
"image-keyboard-response",592,486496,"0.0-4.193-1.193","tgdugzqgqvl0tok",522,"168.csv","","null","resources/maskTrios/BT2B.jpg","null","",NA,NA,NA,NA,""
"image-keyboard-response",593,487698,"0.0-4.193-2.193","tgdugzqgqvl0tok",522,"168.csv","","null","resources/images/fishbone.png","null","",NA,NA,NA,NA,""
"image-keyboard-response",594,487982,"0.0-4.194-0.194","tgdugzqgqvl0tok",522,"168.csv","","281.5999999642372","resources/trios/L1T2A3.jpg","38","restless",0.2,0.4,0.7,0.613327814480981,"false"
"image-keyboard-response",595,488385,"0.0-4.194-1.194","tgdugzqgqvl0tok",522,"168.csv","","null","resources/maskTrios/BT2B.jpg","null","",NA,NA,NA,NA,""
"image-keyboard-response",596,489586,"0.0-4.194-2.194","tgdugzqgqvl0tok",522,"168.csv","","null","resources/images/fishbone.png","null","",NA,NA,NA,NA,""
"image-keyboard-response",597,489718,"0.0-4.195-0.195","tgdugzqgqvl0tok",522,"168.csv","","129.89999997615814","resources/trios/L1T2A3.jpg","37","restless",0.2,0.4,0.7,0.470661825946306,"false"
"image-keyboard-response",598,490120,"0.0-4.195-1.195","tgdugzqgqvl0tok",522,"168.csv","","null","resources/maskTrios/L1BB.jpg","null","",NA,NA,NA,NA,""
"image-keyboard-response",599,491322,"0.0-4.195-2.195","tgdugzqgqvl0tok",522,"168.csv","","null","resources/images/fishbone.png","null","",NA,NA,NA,NA,""
"image-keyboard-response",600,491414,"0.0-4.196-0.196","tgdugzqgqvl0tok",522,"168.csv","","90.10000002384186","resources/trios/L1T2A3.jpg","37","restless",0.3,0.5,0.7,0.0269464079819517,"true"
"image-keyboard-response",601,491816,"0.0-4.196-1.196","tgdugzqgqvl0tok",522,"168.csv","","null","resources/maskTrios/L1BB.jpg","null","",NA,NA,NA,NA,""
"image-keyboard-response",602,493018,"0.0-4.196-2.196","tgdugzqgqvl0tok",522,"168.csv","","null","resources/images/coin2.png","null","",NA,NA,NA,NA,""
"image-keyboard-response",603,493222,"0.0-4.197-0.197","tgdugzqgqvl0tok",522,"168.csv","","202.10000002384186","resources/trios/L1T2A3.jpg","37","restless",0.4,0.5,0.7,0.939428220215089,"false"
"image-keyboard-response",604,493624,"0.0-4.197-1.197","tgdugzqgqvl0tok",522,"168.csv","","null","resources/maskTrios/L1BB.jpg","null","",NA,NA,NA,NA,""
"image-keyboard-response",605,494825,"0.0-4.197-2.197","tgdugzqgqvl0tok",522,"168.csv","","null","resources/images/fishbone.png","null","",NA,NA,NA,NA,""
"image-keyboard-response",606,494949,"0.0-4.198-0.198","tgdugzqgqvl0tok",522,"168.csv","","122.19999998807907","resources/trios/L1T2A3.jpg","39","restless",0.4,0.5,0.7,0.826706874455772,"false"
"image-keyboard-response",607,495350,"0.0-4.198-1.198","tgdugzqgqvl0tok",522,"168.csv","","null","resources/maskTrios/BBA3.jpg","null","",NA,NA,NA,NA,""
