"trial_type","trial_index","time_elapsed","internal_node_id","subject","participantCode","walkNumber","success","rt","stimulus","key_press","test_part","leftProb","midProb","rightProb","generatedNum","correct"
"pavlovia",0,1354,"0.0-0.0","2k438krwd3k4xqx",649,"11.csv","","","","","",NA,NA,NA,NA,""
"fullscreen",1,79570,"0.0-1.0","2k438krwd3k4xqx",649,"11.csv","true","","","","",NA,NA,NA,NA,""
"survey-html-form",2,111995,"0.0-2.0","2k438krwd3k4xqx",649,"11.csv","","32418.60000000149","","","",NA,NA,NA,NA,""
"image-keyboard-response",3,128307,"0.0-3.0-0.0","2k438krwd3k4xqx",649,"11.csv","","16309.199999999255","resources/images/parrot_nobg.png","13","",NA,NA,NA,NA,""
"image-keyboard-response",4,131313,"0.0-3.0-1.0","2k438krwd3k4xqx",649,"11.csv","","null","resources/image_sets/111.png","null","",NA,NA,NA,NA,""
"image-keyboard-response",5,139647,"0.0-3.0-2.0","2k438krwd3k4xqx",649,"11.csv","","8332.39999999851","resources/image_sets/left_highlight.png","37","",NA,NA,NA,NA,""
"image-keyboard-response",6,148044,"0.0-3.0-3.0","2k438krwd3k4xqx",649,"11.csv","","8395.39999999851","resources/image_sets/mid_highlight.png","38","",NA,NA,NA,NA,""
"image-keyboard-response",7,149663,"0.0-3.0-4.0","2k438krwd3k4xqx",649,"11.csv","","1618.300000000745","resources/image_sets/right_highlight.png","39","",NA,NA,NA,NA,""
"image-keyboard-response",8,153381,"0.0-3.0-5.0","2k438krwd3k4xqx",649,"11.csv","","3717.599999997765","resources/image_sets/111.png","13","",NA,NA,NA,NA,""
"image-keyboard-response",9,156455,"0.0-3.0-6.0","2k438krwd3k4xqx",649,"11.csv","","3073.10000000149","resources/images/coin2.png","13","",NA,NA,NA,NA,""
"image-keyboard-response",10,158976,"0.0-3.0-7.0","2k438krwd3k4xqx",649,"11.csv","","2520.199999999255","resources/images/fishbone.png","13","",NA,NA,NA,NA,""
"html-keyboard-response",11,161919,"0.0-3.0-8.0","2k438krwd3k4xqx",649,"11.csv","","2942.199999999255","<p>You can track your coin total on the top right of your screen. </p><p>At the end of your journey you will be directed to a survey, so please click on the link before exiting the task</p><p>Press Enter to begin</p>","13","",NA,NA,NA,NA,""
"image-keyboard-response",12,163876,"0.0-4.0-0.0","2k438krwd3k4xqx",649,"11.csv","","1954.9000000022352","resources/trios/L1T2A3.jpg","37","restless",0.9,0.3,0.7,0.397810448491323,"true"
"image-keyboard-response",13,164282,"0.0-4.0-1.0","2k438krwd3k4xqx",649,"11.csv","","null","resources/maskTrios/L1BB.jpg","null","",NA,NA,NA,NA,""
"image-keyboard-response",14,165489,"0.0-4.0-2.0","2k438krwd3k4xqx",649,"11.csv","","null","resources/images/coin2.png","null","",NA,NA,NA,NA,""
"image-keyboard-response",15,167398,"0.0-4.1-0.1","2k438krwd3k4xqx",649,"11.csv","","1907.6000000014901","resources/trios/L1T2A3.jpg","38","restless",0.9,0.3,0.7,0.733891831017268,"false"
"image-keyboard-response",16,167803,"0.0-4.1-1.1","2k438krwd3k4xqx",649,"11.csv","","null","resources/maskTrios/BT2B.jpg","null","",NA,NA,NA,NA,""
"image-keyboard-response",17,169010,"0.0-4.1-2.1","2k438krwd3k4xqx",649,"11.csv","","null","resources/images/fishbone.png","null","",NA,NA,NA,NA,""
"image-keyboard-response",18,171374,"0.0-4.2-0.2","2k438krwd3k4xqx",649,"11.csv","","2362.39999999851","resources/trios/L1T2A3.jpg","37","restless",0.9,0.3,0.7,0.865949250264432,"true"
"image-keyboard-response",19,171780,"0.0-4.2-1.2","2k438krwd3k4xqx",649,"11.csv","","null","resources/maskTrios/L1BB.jpg","null","",NA,NA,NA,NA,""
"image-keyboard-response",20,172988,"0.0-4.2-2.2","2k438krwd3k4xqx",649,"11.csv","","null","resources/images/coin2.png","null","",NA,NA,NA,NA,""
"image-keyboard-response",21,174605,"0.0-4.3-0.3","2k438krwd3k4xqx",649,"11.csv","","1615.5999999977648","resources/trios/L1T2A3.jpg","37","restless",0.8,0.3,0.6,0.125362646643413,"true"
"image-keyboard-response",22,175010,"0.0-4.3-1.3","2k438krwd3k4xqx",649,"11.csv","","null","resources/maskTrios/L1BB.jpg","null","",NA,NA,NA,NA,""
"image-keyboard-response",23,176217,"0.0-4.3-2.3","2k438krwd3k4xqx",649,"11.csv","","null","resources/images/coin2.png","null","",NA,NA,NA,NA,""
"image-keyboard-response",24,177617,"0.0-4.4-0.4","2k438krwd3k4xqx",649,"11.csv","","1398.800000000745","resources/trios/L1T2A3.jpg","38","restless",0.8,0.3,0.6,0.690512840302051,"false"
"image-keyboard-response",25,178029,"0.0-4.4-1.4","2k438krwd3k4xqx",649,"11.csv","","null","resources/maskTrios/BT2B.jpg","null","",NA,NA,NA,NA,""
"image-keyboard-response",26,179234,"0.0-4.4-2.4","2k438krwd3k4xqx",649,"11.csv","","null","resources/images/fishbone.png","null","",NA,NA,NA,NA,""
"image-keyboard-response",27,179530,"0.0-4.5-0.5","2k438krwd3k4xqx",649,"11.csv","","294.80000000074506","resources/trios/L1T2A3.jpg","37","restless",0.7,0.3,0.6,0.864726761017548,"false"
"image-keyboard-response",28,179938,"0.0-4.5-1.5","2k438krwd3k4xqx",649,"11.csv","","null","resources/maskTrios/L1BB.jpg","null","",NA,NA,NA,NA,""
"image-keyboard-response",29,181145,"0.0-4.5-2.5","2k438krwd3k4xqx",649,"11.csv","","null","resources/images/fishbone.png","null","",NA,NA,NA,NA,""
"image-keyboard-response",30,181555,"0.0-4.6-0.6","2k438krwd3k4xqx",649,"11.csv","","408.30000000074506","resources/trios/L1T2A3.jpg","39","restless",0.7,0.3,0.6,0.335226581126719,"true"
"image-keyboard-response",31,181966,"0.0-4.6-1.6","2k438krwd3k4xqx",649,"11.csv","","null","resources/maskTrios/BBA3.jpg","null","",NA,NA,NA,NA,""
"image-keyboard-response",32,183174,"0.0-4.6-2.6","2k438krwd3k4xqx",649,"11.csv","","null","resources/images/coin2.png","null","",NA,NA,NA,NA,""
"image-keyboard-response",33,183916,"0.0-4.7-0.7","2k438krwd3k4xqx",649,"11.csv","","740.8999999985099","resources/trios/L1T2A3.jpg","39","restless",0.7,0.3,0.6,0.901748873687721,"false"
"image-keyboard-response",34,184322,"0.0-4.7-1.7","2k438krwd3k4xqx",649,"11.csv","","null","resources/maskTrios/BBA3.jpg","null","",NA,NA,NA,NA,""
"image-keyboard-response",35,185529,"0.0-4.7-2.7","2k438krwd3k4xqx",649,"11.csv","","null","resources/images/fishbone.png","null","",NA,NA,NA,NA,""
"image-keyboard-response",36,185901,"0.0-4.8-0.8","2k438krwd3k4xqx",649,"11.csv","","370.5","resources/trios/L1T2A3.jpg","38","restless",0.7,0.4,0.6,0.58633198308736,"false"
"image-keyboard-response",37,186307,"0.0-4.8-1.8","2k438krwd3k4xqx",649,"11.csv","","null","resources/maskTrios/BT2B.jpg","null","",NA,NA,NA,NA,""
"image-keyboard-response",38,187518,"0.0-4.8-2.8","2k438krwd3k4xqx",649,"11.csv","","null","resources/images/fishbone.png","null","",NA,NA,NA,NA,""
"image-keyboard-response",39,187968,"0.0-4.9-0.9","2k438krwd3k4xqx",649,"11.csv","","448.8999999985099","resources/trios/L1T2A3.jpg","37","restless",0.7,0.4,0.6,0.130020061926134,"true"
"image-keyboard-response",40,188378,"0.0-4.9-1.9","2k438krwd3k4xqx",649,"11.csv","","null","resources/maskTrios/L1BB.jpg","null","",NA,NA,NA,NA,""
"image-keyboard-response",41,189585,"0.0-4.9-2.9","2k438krwd3k4xqx",649,"11.csv","","null","resources/images/coin2.png","null","",NA,NA,NA,NA,""
"image-keyboard-response",42,190182,"0.0-4.10-0.10","2k438krwd3k4xqx",649,"11.csv","","596","resources/trios/L1T2A3.jpg","37","restless",0.7,0.4,0.6,0.886991246498111,"false"
"image-keyboard-response",43,190589,"0.0-4.10-1.10","2k438krwd3k4xqx",649,"11.csv","","null","resources/maskTrios/L1BB.jpg","null","",NA,NA,NA,NA,""
"image-keyboard-response",44,191797,"0.0-4.10-2.10","2k438krwd3k4xqx",649,"11.csv","","null","resources/images/fishbone.png","null","",NA,NA,NA,NA,""
"image-keyboard-response",45,192773,"0.0-4.11-0.11","2k438krwd3k4xqx",649,"11.csv","","975.9000000022352","resources/trios/L1T2A3.jpg","37","restless",0.6,0.4,0.6,0.0217437423072711,"true"
"image-keyboard-response",46,193180,"0.0-4.11-1.11","2k438krwd3k4xqx",649,"11.csv","","null","resources/maskTrios/L1BB.jpg","null","",NA,NA,NA,NA,""
"image-keyboard-response",47,194388,"0.0-4.11-2.11","2k438krwd3k4xqx",649,"11.csv","","null","resources/images/coin2.png","null","",NA,NA,NA,NA,""
"image-keyboard-response",48,195339,"0.0-4.12-0.12","2k438krwd3k4xqx",649,"11.csv","","950.4000000022352","resources/trios/L1T2A3.jpg","37","restless",0.6,0.4,0.6,0.582842195158433,"true"
"image-keyboard-response",49,195749,"0.0-4.12-1.12","2k438krwd3k4xqx",649,"11.csv","","null","resources/maskTrios/L1BB.jpg","null","",NA,NA,NA,NA,""
"image-keyboard-response",50,196954,"0.0-4.12-2.12","2k438krwd3k4xqx",649,"11.csv","","null","resources/images/coin2.png","null","",NA,NA,NA,NA,""
"image-keyboard-response",51,197705,"0.0-4.13-0.13","2k438krwd3k4xqx",649,"11.csv","","749.6000000014901","resources/trios/L1T2A3.jpg","37","restless",0.6,0.4,0.7,0.936398571870623,"false"
"image-keyboard-response",52,198114,"0.0-4.13-1.13","2k438krwd3k4xqx",649,"11.csv","","null","resources/maskTrios/L1BB.jpg","null","",NA,NA,NA,NA,""
"image-keyboard-response",53,199321,"0.0-4.13-2.13","2k438krwd3k4xqx",649,"11.csv","","null","resources/images/fishbone.png","null","",NA,NA,NA,NA,""
"image-keyboard-response",54,199683,"0.0-4.14-0.14","2k438krwd3k4xqx",649,"11.csv","","360.0999999977648","resources/trios/L1T2A3.jpg","39","restless",0.6,0.4,0.7,0.852132275486424,"false"
"image-keyboard-response",55,200090,"0.0-4.14-1.14","2k438krwd3k4xqx",649,"11.csv","","null","resources/maskTrios/BBA3.jpg","null","",NA,NA,NA,NA,""
"image-keyboard-response",56,201298,"0.0-4.14-2.14","2k438krwd3k4xqx",649,"11.csv","","null","resources/images/fishbone.png","null","",NA,NA,NA,NA,""
"image-keyboard-response",57,201695,"0.0-4.15-0.15","2k438krwd3k4xqx",649,"11.csv","","395.80000000074506","resources/trios/L1T2A3.jpg","38","restless",0.5,0.4,0.7,0.639444062082215,"false"
"image-keyboard-response",58,202099,"0.0-4.15-1.15","2k438krwd3k4xqx",649,"11.csv","","null","resources/maskTrios/BT2B.jpg","null","",NA,NA,NA,NA,""
"image-keyboard-response",59,203308,"0.0-4.15-2.15","2k438krwd3k4xqx",649,"11.csv","","null","resources/images/fishbone.png","null","",NA,NA,NA,NA,""
"image-keyboard-response",60,203981,"0.0-4.16-0.16","2k438krwd3k4xqx",649,"11.csv","","671.9000000022352","resources/trios/L1T2A3.jpg","37","restless",0.6,0.4,0.6,0.141247518689133,"true"
"image-keyboard-response",61,204387,"0.0-4.16-1.16","2k438krwd3k4xqx",649,"11.csv","","null","resources/maskTrios/L1BB.jpg","null","",NA,NA,NA,NA,""
"image-keyboard-response",62,205593,"0.0-4.16-2.16","2k438krwd3k4xqx",649,"11.csv","","null","resources/images/coin2.png","null","",NA,NA,NA,NA,""
"image-keyboard-response",63,205968,"0.0-4.17-0.17","2k438krwd3k4xqx",649,"11.csv","","373.69999999925494","resources/trios/L1T2A3.jpg","38","restless",0.5,0.4,0.6,0.514077405162591,"false"
"image-keyboard-response",64,206377,"0.0-4.17-1.17","2k438krwd3k4xqx",649,"11.csv","","null","resources/maskTrios/BT2B.jpg","null","",NA,NA,NA,NA,""
"image-keyboard-response",65,207585,"0.0-4.17-2.17","2k438krwd3k4xqx",649,"11.csv","","null","resources/images/fishbone.png","null","",NA,NA,NA,NA,""
"image-keyboard-response",66,209083,"0.0-4.18-0.18","2k438krwd3k4xqx",649,"11.csv","","1496.3999999985099","resources/trios/L1T2A3.jpg","37","restless",0.5,0.4,0.6,0.401727910961193,"true"
"image-keyboard-response",67,209490,"0.0-4.18-1.18","2k438krwd3k4xqx",649,"11.csv","","null","resources/maskTrios/L1BB.jpg","null","",NA,NA,NA,NA,""
"image-keyboard-response",68,210697,"0.0-4.18-2.18","2k438krwd3k4xqx",649,"11.csv","","null","resources/images/coin2.png","null","",NA,NA,NA,NA,""
"image-keyboard-response",69,211498,"0.0-4.19-0.19","2k438krwd3k4xqx",649,"11.csv","","799.1999999992549","resources/trios/L1T2A3.jpg","37","restless",0.5,0.4,0.6,0.435140531816535,"true"
"image-keyboard-response",70,211905,"0.0-4.19-1.19","2k438krwd3k4xqx",649,"11.csv","","null","resources/maskTrios/L1BB.jpg","null","",NA,NA,NA,NA,""
"image-keyboard-response",71,213114,"0.0-4.19-2.19","2k438krwd3k4xqx",649,"11.csv","","null","resources/images/coin2.png","null","",NA,NA,NA,NA,""
"image-keyboard-response",72,214019,"0.0-4.20-0.20","2k438krwd3k4xqx",649,"11.csv","","904.3999999985099","resources/trios/L1T2A3.jpg","37","restless",0.5,0.4,0.6,0.772228773228833,"false"
"image-keyboard-response",73,214429,"0.0-4.20-1.20","2k438krwd3k4xqx",649,"11.csv","","null","resources/maskTrios/L1BB.jpg","null","",NA,NA,NA,NA,""
"image-keyboard-response",74,215635,"0.0-4.20-2.20","2k438krwd3k4xqx",649,"11.csv","","null","resources/images/fishbone.png","null","",NA,NA,NA,NA,""
"image-keyboard-response",75,217506,"0.0-4.21-0.21","2k438krwd3k4xqx",649,"11.csv","","1869.199999999255","resources/trios/L1T2A3.jpg","38","restless",0.4,0.4,0.6,0.683348314124342,"false"
"image-keyboard-response",76,217918,"0.0-4.21-1.21","2k438krwd3k4xqx",649,"11.csv","","null","resources/maskTrios/BT2B.jpg","null","",NA,NA,NA,NA,""
"image-keyboard-response",77,219124,"0.0-4.21-2.21","2k438krwd3k4xqx",649,"11.csv","","null","resources/images/fishbone.png","null","",NA,NA,NA,NA,""
"image-keyboard-response",78,219482,"0.0-4.22-0.22","2k438krwd3k4xqx",649,"11.csv","","356.30000000074506","resources/trios/L1T2A3.jpg","37","restless",0.4,0.5,0.6,0.991706500712149,"false"
"image-keyboard-response",79,219889,"0.0-4.22-1.22","2k438krwd3k4xqx",649,"11.csv","","null","resources/maskTrios/L1BB.jpg","null","",NA,NA,NA,NA,""
"image-keyboard-response",80,221097,"0.0-4.22-2.22","2k438krwd3k4xqx",649,"11.csv","","null","resources/images/fishbone.png","null","",NA,NA,NA,NA,""
"image-keyboard-response",81,221422,"0.0-4.23-0.23","2k438krwd3k4xqx",649,"11.csv","","323.5999999977648","resources/trios/L1T2A3.jpg","39","restless",0.4,0.5,0.6,0.85611610983335,"false"
"image-keyboard-response",82,221830,"0.0-4.23-1.23","2k438krwd3k4xqx",649,"11.csv","","null","resources/maskTrios/BBA3.jpg","null","",NA,NA,NA,NA,""
"image-keyboard-response",83,223035,"0.0-4.23-2.23","2k438krwd3k4xqx",649,"11.csv","","null","resources/images/fishbone.png","null","",NA,NA,NA,NA,""
"image-keyboard-response",84,223332,"0.0-4.24-0.24","2k438krwd3k4xqx",649,"11.csv","","295.5","resources/trios/L1T2A3.jpg","38","restless",0.4,0.5,0.6,0.474916694956009,"true"
"image-keyboard-response",85,223738,"0.0-4.24-1.24","2k438krwd3k4xqx",649,"11.csv","","null","resources/maskTrios/BT2B.jpg","null","",NA,NA,NA,NA,""
"image-keyboard-response",86,224946,"0.0-4.24-2.24","2k438krwd3k4xqx",649,"11.csv","","null","resources/images/coin2.png","null","",NA,NA,NA,NA,""
"image-keyboard-response",87,225265,"0.0-4.25-0.25","2k438krwd3k4xqx",649,"11.csv","","316.80000000074506","resources/trios/L1T2A3.jpg","38","restless",0.4,0.5,0.6,0.189180772552453,"true"
"image-keyboard-response",88,225677,"0.0-4.25-1.25","2k438krwd3k4xqx",649,"11.csv","","null","resources/maskTrios/BT2B.jpg","null","",NA,NA,NA,NA,""
"image-keyboard-response",89,226881,"0.0-4.25-2.25","2k438krwd3k4xqx",649,"11.csv","","null","resources/images/coin2.png","null","",NA,NA,NA,NA,""
"image-keyboard-response",90,227645,"0.0-4.26-0.26","2k438krwd3k4xqx",649,"11.csv","","762.5999999977648","resources/trios/L1T2A3.jpg","38","restless",0.3,0.5,0.6,0.0231454934573359,"true"
"image-keyboard-response",91,228051,"0.0-4.26-1.26","2k438krwd3k4xqx",649,"11.csv","","null","resources/maskTrios/BT2B.jpg","null","",NA,NA,NA,NA,""
"image-keyboard-response",92,229258,"0.0-4.26-2.26","2k438krwd3k4xqx",649,"11.csv","","null","resources/images/coin2.png","null","",NA,NA,NA,NA,""
"image-keyboard-response",93,230069,"0.0-4.27-0.27","2k438krwd3k4xqx",649,"11.csv","","809.7000000029802","resources/trios/L1T2A3.jpg","38","restless",0.3,0.5,0.6,0.280782794222849,"true"
"image-keyboard-response",94,230475,"0.0-4.27-1.27","2k438krwd3k4xqx",649,"11.csv","","null","resources/maskTrios/BT2B.jpg","null","",NA,NA,NA,NA,""
"image-keyboard-response",95,231683,"0.0-4.27-2.27","2k438krwd3k4xqx",649,"11.csv","","null","resources/images/coin2.png","null","",NA,NA,NA,NA,""
"image-keyboard-response",96,232402,"0.0-4.28-0.28","2k438krwd3k4xqx",649,"11.csv","","717.6000000014901","resources/trios/L1T2A3.jpg","38","restless",0.3,0.5,0.6,0.787994821185033,"false"
"image-keyboard-response",97,232813,"0.0-4.28-1.28","2k438krwd3k4xqx",649,"11.csv","","null","resources/maskTrios/BT2B.jpg","null","",NA,NA,NA,NA,""
"image-keyboard-response",98,234019,"0.0-4.28-2.28","2k438krwd3k4xqx",649,"11.csv","","null","resources/images/fishbone.png","null","",NA,NA,NA,NA,""
"image-keyboard-response",99,234322,"0.0-4.29-0.29","2k438krwd3k4xqx",649,"11.csv","","301.3999999985099","resources/trios/L1T2A3.jpg","39","restless",0.3,0.6,0.6,0.0686189386604461,"true"
"image-keyboard-response",100,234732,"0.0-4.29-1.29","2k438krwd3k4xqx",649,"11.csv","","null","resources/maskTrios/BBA3.jpg","null","",NA,NA,NA,NA,""
"image-keyboard-response",101,235941,"0.0-4.29-2.29","2k438krwd3k4xqx",649,"11.csv","","null","resources/images/coin2.png","null","",NA,NA,NA,NA,""
"image-keyboard-response",102,236342,"0.0-4.30-0.30","2k438krwd3k4xqx",649,"11.csv","","398.80000000074506","resources/trios/L1T2A3.jpg","39","restless",0.3,0.6,0.6,0.42678965185177,"true"
"image-keyboard-response",103,236747,"0.0-4.30-1.30","2k438krwd3k4xqx",649,"11.csv","","null","resources/maskTrios/BBA3.jpg","null","",NA,NA,NA,NA,""
"image-keyboard-response",104,237958,"0.0-4.30-2.30","2k438krwd3k4xqx",649,"11.csv","","null","resources/images/coin2.png","null","",NA,NA,NA,NA,""
"image-keyboard-response",105,238443,"0.0-4.31-0.31","2k438krwd3k4xqx",649,"11.csv","","483.5","resources/trios/L1T2A3.jpg","39","restless",0.3,0.6,0.6,0.11494734143574,"true"
"image-keyboard-response",106,238852,"0.0-4.31-1.31","2k438krwd3k4xqx",649,"11.csv","","null","resources/maskTrios/BBA3.jpg","null","",NA,NA,NA,NA,""
"image-keyboard-response",107,240058,"0.0-4.31-2.31","2k438krwd3k4xqx",649,"11.csv","","null","resources/images/coin2.png","null","",NA,NA,NA,NA,""
"image-keyboard-response",108,240728,"0.0-4.32-0.32","2k438krwd3k4xqx",649,"11.csv","","668.1999999992549","resources/trios/L1T2A3.jpg","37","restless",0.3,0.6,0.6,0.671552115301703,"false"
"image-keyboard-response",109,241142,"0.0-4.32-1.32","2k438krwd3k4xqx",649,"11.csv","","null","resources/maskTrios/L1BB.jpg","null","",NA,NA,NA,NA,""
"image-keyboard-response",110,242345,"0.0-4.32-2.32","2k438krwd3k4xqx",649,"11.csv","","null","resources/images/fishbone.png","null","",NA,NA,NA,NA,""
"image-keyboard-response",111,242847,"0.0-4.33-0.33","2k438krwd3k4xqx",649,"11.csv","","500.6000000014901","resources/trios/L1T2A3.jpg","37","restless",0.4,0.6,0.6,0.844868789174657,"false"
"image-keyboard-response",112,243254,"0.0-4.33-1.33","2k438krwd3k4xqx",649,"11.csv","","null","resources/maskTrios/L1BB.jpg","null","",NA,NA,NA,NA,""
"image-keyboard-response",113,244460,"0.0-4.33-2.33","2k438krwd3k4xqx",649,"11.csv","","null","resources/images/fishbone.png","null","",NA,NA,NA,NA,""
"image-keyboard-response",114,244748,"0.0-4.34-0.34","2k438krwd3k4xqx",649,"11.csv","","287.19999999925494","resources/trios/L1T2A3.jpg","39","restless",0.4,0.6,0.6,0.947260512452873,"false"
"image-keyboard-response",115,245155,"0.0-4.34-1.34","2k438krwd3k4xqx",649,"11.csv","","null","resources/maskTrios/BBA3.jpg","null","",NA,NA,NA,NA,""
"image-keyboard-response",116,246362,"0.0-4.34-2.34","2k438krwd3k4xqx",649,"11.csv","","null","resources/images/fishbone.png","null","",NA,NA,NA,NA,""
"image-keyboard-response",117,246632,"0.0-4.35-0.35","2k438krwd3k4xqx",649,"11.csv","","269.3999999985099","resources/trios/L1T2A3.jpg","38","restless",0.4,0.6,0.6,0.641390146229531,"false"
"image-keyboard-response",118,247041,"0.0-4.35-1.35","2k438krwd3k4xqx",649,"11.csv","","null","resources/maskTrios/BT2B.jpg","null","",NA,NA,NA,NA,""
"image-keyboard-response",119,248250,"0.0-4.35-2.35","2k438krwd3k4xqx",649,"11.csv","","null","resources/images/fishbone.png","null","",NA,NA,NA,NA,""
"image-keyboard-response",120,248670,"0.0-4.36-0.36","2k438krwd3k4xqx",649,"11.csv","","419.3999999985099","resources/trios/L1T2A3.jpg","37","restless",0.4,0.6,0.6,0.58602118579704,"false"
"image-keyboard-response",121,249073,"0.0-4.36-1.36","2k438krwd3k4xqx",649,"11.csv","","null","resources/maskTrios/L1BB.jpg","null","",NA,NA,NA,NA,""
"image-keyboard-response",122,250285,"0.0-4.36-2.36","2k438krwd3k4xqx",649,"11.csv","","null","resources/images/fishbone.png","null","",NA,NA,NA,NA,""
"image-keyboard-response",123,250763,"0.0-4.37-0.37","2k438krwd3k4xqx",649,"11.csv","","476.30000000074506","resources/trios/L1T2A3.jpg","38","restless",0.3,0.6,0.6,0.800598849061613,"false"
"image-keyboard-response",124,251173,"0.0-4.37-1.37","2k438krwd3k4xqx",649,"11.csv","","null","resources/maskTrios/BT2B.jpg","null","",NA,NA,NA,NA,""
"image-keyboard-response",125,252383,"0.0-4.37-2.37","2k438krwd3k4xqx",649,"11.csv","","null","resources/images/fishbone.png","null","",NA,NA,NA,NA,""
"image-keyboard-response",126,253112,"0.0-4.38-0.38","2k438krwd3k4xqx",649,"11.csv","","728.3000000007451","resources/trios/L1T2A3.jpg","39","restless",0.3,0.6,0.5,0.985563272187682,"false"
"image-keyboard-response",127,253514,"0.0-4.38-1.38","2k438krwd3k4xqx",649,"11.csv","","null","resources/maskTrios/BBA3.jpg","null","",NA,NA,NA,NA,""
"image-keyboard-response",128,254722,"0.0-4.38-2.38","2k438krwd3k4xqx",649,"11.csv","","null","resources/images/fishbone.png","null","",NA,NA,NA,NA,""
"image-keyboard-response",129,255045,"0.0-4.39-0.39","2k438krwd3k4xqx",649,"11.csv","","321.80000000074506","resources/trios/L1T2A3.jpg","37","restless",0.3,0.6,0.5,0.47726192084996,"false"
"image-keyboard-response",130,255451,"0.0-4.39-1.39","2k438krwd3k4xqx",649,"11.csv","","null","resources/maskTrios/L1BB.jpg","null","",NA,NA,NA,NA,""
"image-keyboard-response",131,256662,"0.0-4.39-2.39","2k438krwd3k4xqx",649,"11.csv","","null","resources/images/fishbone.png","null","",NA,NA,NA,NA,""
"image-keyboard-response",132,257164,"0.0-4.40-0.40","2k438krwd3k4xqx",649,"11.csv","","498.30000000074506","resources/trios/L1T2A3.jpg","37","restless",0.3,0.6,0.5,0.639700308518709,"false"
"image-keyboard-response",133,257572,"0.0-4.40-1.40","2k438krwd3k4xqx",649,"11.csv","","null","resources/maskTrios/L1BB.jpg","null","",NA,NA,NA,NA,""
"image-keyboard-response",134,258777,"0.0-4.40-2.40","2k438krwd3k4xqx",649,"11.csv","","null","resources/images/fishbone.png","null","",NA,NA,NA,NA,""
"image-keyboard-response",135,259115,"0.0-4.41-0.41","2k438krwd3k4xqx",649,"11.csv","","335.80000000074506","resources/trios/L1T2A3.jpg","37","restless",0.3,0.6,0.5,0.656567205605798,"false"
"image-keyboard-response",136,259526,"0.0-4.41-1.41","2k438krwd3k4xqx",649,"11.csv","","null","resources/maskTrios/L1BB.jpg","null","",NA,NA,NA,NA,""
"image-keyboard-response",137,260734,"0.0-4.41-2.41","2k438krwd3k4xqx",649,"11.csv","","null","resources/images/fishbone.png","null","",NA,NA,NA,NA,""
"image-keyboard-response",138,261041,"0.0-4.42-0.42","2k438krwd3k4xqx",649,"11.csv","","305.9000000022352","resources/trios/L1T2A3.jpg","37","restless",0.3,0.6,0.5,0.0224816919332098,"true"
"image-keyboard-response",139,261451,"0.0-4.42-1.42","2k438krwd3k4xqx",649,"11.csv","","null","resources/maskTrios/L1BB.jpg","null","",NA,NA,NA,NA,""
"image-keyboard-response",140,262662,"0.0-4.42-2.42","2k438krwd3k4xqx",649,"11.csv","","null","resources/images/coin2.png","null","",NA,NA,NA,NA,""
"image-keyboard-response",141,263181,"0.0-4.43-0.43","2k438krwd3k4xqx",649,"11.csv","","517.7000000029802","resources/trios/L1T2A3.jpg","37","restless",0.3,0.6,0.5,0.573712364776826,"false"
"image-keyboard-response",142,263587,"0.0-4.43-1.43","2k438krwd3k4xqx",649,"11.csv","","null","resources/maskTrios/L1BB.jpg","null","",NA,NA,NA,NA,""
"image-keyboard-response",143,264797,"0.0-4.43-2.43","2k438krwd3k4xqx",649,"11.csv","","null","resources/images/fishbone.png","null","",NA,NA,NA,NA,""
"image-keyboard-response",144,265179,"0.0-4.44-0.44","2k438krwd3k4xqx",649,"11.csv","","380.6000000014901","resources/trios/L1T2A3.jpg","38","restless",0.4,0.6,0.5,0.23996815219228,"true"
"image-keyboard-response",145,265586,"0.0-4.44-1.44","2k438krwd3k4xqx",649,"11.csv","","null","resources/maskTrios/BT2B.jpg","null","",NA,NA,NA,NA,""
"image-keyboard-response",146,266797,"0.0-4.44-2.44","2k438krwd3k4xqx",649,"11.csv","","null","resources/images/coin2.png","null","",NA,NA,NA,NA,""
"image-keyboard-response",147,267080,"0.0-4.45-0.45","2k438krwd3k4xqx",649,"11.csv","","281.5","resources/trios/L1T2A3.jpg","38","restless",0.4,0.6,0.5,0.497542190346145,"true"
"image-keyboard-response",148,267482,"0.0-4.45-1.45","2k438krwd3k4xqx",649,"11.csv","","null","resources/maskTrios/BT2B.jpg","null","",NA,NA,NA,NA,""
"image-keyboard-response",149,268690,"0.0-4.45-2.45","2k438krwd3k4xqx",649,"11.csv","","null","resources/images/coin2.png","null","",NA,NA,NA,NA,""
"image-keyboard-response",150,269101,"0.0-4.46-0.46","2k438krwd3k4xqx",649,"11.csv","","409.80000000074506","resources/trios/L1T2A3.jpg","38","restless",0.4,0.6,0.4,0.253992303424081,"true"
"image-keyboard-response",151,269506,"0.0-4.46-1.46","2k438krwd3k4xqx",649,"11.csv","","null","resources/maskTrios/BT2B.jpg","null","",NA,NA,NA,NA,""
"image-keyboard-response",152,270714,"0.0-4.46-2.46","2k438krwd3k4xqx",649,"11.csv","","null","resources/images/coin2.png","null","",NA,NA,NA,NA,""
"image-keyboard-response",153,271259,"0.0-4.47-0.47","2k438krwd3k4xqx",649,"11.csv","","544.8999999985099","resources/trios/L1T2A3.jpg","39","restless",0.4,0.6,0.4,0.0925215319369657,"true"
"image-keyboard-response",154,271666,"0.0-4.47-1.47","2k438krwd3k4xqx",649,"11.csv","","null","resources/maskTrios/BBA3.jpg","null","",NA,NA,NA,NA,""
"image-keyboard-response",155,272874,"0.0-4.47-2.47","2k438krwd3k4xqx",649,"11.csv","","null","resources/images/coin2.png","null","",NA,NA,NA,NA,""
"image-keyboard-response",156,273399,"0.0-4.48-0.48","2k438krwd3k4xqx",649,"11.csv","","524.3000000007451","resources/trios/L1T2A3.jpg","39","restless",0.4,0.6,0.4,0.922414669252121,"false"
"image-keyboard-response",157,273804,"0.0-4.48-1.48","2k438krwd3k4xqx",649,"11.csv","","null","resources/maskTrios/BBA3.jpg","null","",NA,NA,NA,NA,""
"image-keyboard-response",158,275015,"0.0-4.48-2.48","2k438krwd3k4xqx",649,"11.csv","","null","resources/images/fishbone.png","null","",NA,NA,NA,NA,""
"image-keyboard-response",159,275471,"0.0-4.49-0.49","2k438krwd3k4xqx",649,"11.csv","","454.8999999985099","resources/trios/L1T2A3.jpg","38","restless",0.4,0.6,0.4,0.265616630501482,"true"
"image-keyboard-response",160,275873,"0.0-4.49-1.49","2k438krwd3k4xqx",649,"11.csv","","null","resources/maskTrios/BT2B.jpg","null","",NA,NA,NA,NA,""
"image-keyboard-response",161,277085,"0.0-4.49-2.49","2k438krwd3k4xqx",649,"11.csv","","null","resources/images/coin2.png","null","",NA,NA,NA,NA,""
"image-keyboard-response",162,277628,"0.0-4.50-0.50","2k438krwd3k4xqx",649,"11.csv","","541.1000000014901","resources/trios/L1T2A3.jpg","38","restless",0.4,0.6,0.4,0.53376600818789,"true"
"image-keyboard-response",163,278035,"0.0-4.50-1.50","2k438krwd3k4xqx",649,"11.csv","","null","resources/maskTrios/BT2B.jpg","null","",NA,NA,NA,NA,""
"image-keyboard-response",164,279243,"0.0-4.50-2.50","2k438krwd3k4xqx",649,"11.csv","","null","resources/images/coin2.png","null","",NA,NA,NA,NA,""
"image-keyboard-response",165,281724,"0.0-4.51-0.51","2k438krwd3k4xqx",649,"11.csv","","2480.099999997765","resources/trios/L1T2A3.jpg","38","restless",0.4,0.6,0.4,0.254605234884599,"true"
"image-keyboard-response",166,282130,"0.0-4.51-1.51","2k438krwd3k4xqx",649,"11.csv","","null","resources/maskTrios/BT2B.jpg","null","",NA,NA,NA,NA,""
"image-keyboard-response",167,283342,"0.0-4.51-2.51","2k438krwd3k4xqx",649,"11.csv","","null","resources/images/coin2.png","null","",NA,NA,NA,NA,""
"image-keyboard-response",168,284388,"0.0-4.52-0.52","2k438krwd3k4xqx",649,"11.csv","","1043.8999999985099","resources/trios/L1T2A3.jpg","37","restless",0.4,0.6,0.4,0.838092808517809,"false"
"image-keyboard-response",169,284795,"0.0-4.52-1.52","2k438krwd3k4xqx",649,"11.csv","","null","resources/maskTrios/L1BB.jpg","null","",NA,NA,NA,NA,""
"image-keyboard-response",170,286002,"0.0-4.52-2.52","2k438krwd3k4xqx",649,"11.csv","","null","resources/images/fishbone.png","null","",NA,NA,NA,NA,""
"image-keyboard-response",171,286275,"0.0-4.53-0.53","2k438krwd3k4xqx",649,"11.csv","","272.4000000022352","resources/trios/L1T2A3.jpg","38","restless",0.4,0.6,0.4,0.465398977491258,"true"
"image-keyboard-response",172,286682,"0.0-4.53-1.53","2k438krwd3k4xqx",649,"11.csv","","null","resources/maskTrios/BT2B.jpg","null","",NA,NA,NA,NA,""
"image-keyboard-response",173,287891,"0.0-4.53-2.53","2k438krwd3k4xqx",649,"11.csv","","null","resources/images/coin2.png","null","",NA,NA,NA,NA,""
"image-keyboard-response",174,288230,"0.0-4.54-0.54","2k438krwd3k4xqx",649,"11.csv","","337.9000000022352","resources/trios/L1T2A3.jpg","38","restless",0.5,0.6,0.5,0.311674005297879,"true"
"image-keyboard-response",175,288636,"0.0-4.54-1.54","2k438krwd3k4xqx",649,"11.csv","","null","resources/maskTrios/BT2B.jpg","null","",NA,NA,NA,NA,""
"image-keyboard-response",176,289845,"0.0-4.54-2.54","2k438krwd3k4xqx",649,"11.csv","","null","resources/images/coin2.png","null","",NA,NA,NA,NA,""
"image-keyboard-response",177,290262,"0.0-4.55-0.55","2k438krwd3k4xqx",649,"11.csv","","415.69999999925494","resources/trios/L1T2A3.jpg","38","restless",0.5,0.6,0.5,0.131936793114407,"true"
"image-keyboard-response",178,290668,"0.0-4.55-1.55","2k438krwd3k4xqx",649,"11.csv","","null","resources/maskTrios/BT2B.jpg","null","",NA,NA,NA,NA,""
"image-keyboard-response",179,291877,"0.0-4.55-2.55","2k438krwd3k4xqx",649,"11.csv","","null","resources/images/coin2.png","null","",NA,NA,NA,NA,""
"image-keyboard-response",180,292246,"0.0-4.56-0.56","2k438krwd3k4xqx",649,"11.csv","","368.80000000074506","resources/trios/L1T2A3.jpg","38","restless",0.5,0.7,0.5,0.238341200740489,"true"
"image-keyboard-response",181,292650,"0.0-4.56-1.56","2k438krwd3k4xqx",649,"11.csv","","null","resources/maskTrios/BT2B.jpg","null","",NA,NA,NA,NA,""
"image-keyboard-response",182,293863,"0.0-4.56-2.56","2k438krwd3k4xqx",649,"11.csv","","null","resources/images/coin2.png","null","",NA,NA,NA,NA,""
"image-keyboard-response",183,294239,"0.0-4.57-0.57","2k438krwd3k4xqx",649,"11.csv","","374.30000000074506","resources/trios/L1T2A3.jpg","38","restless",0.5,0.7,0.5,0.162256591812908,"true"
"image-keyboard-response",184,294643,"0.0-4.57-1.57","2k438krwd3k4xqx",649,"11.csv","","null","resources/maskTrios/BT2B.jpg","null","",NA,NA,NA,NA,""
"image-keyboard-response",185,295855,"0.0-4.57-2.57","2k438krwd3k4xqx",649,"11.csv","","null","resources/images/coin2.png","null","",NA,NA,NA,NA,""
"image-keyboard-response",186,296279,"0.0-4.58-0.58","2k438krwd3k4xqx",649,"11.csv","","422.9000000022352","resources/trios/L1T2A3.jpg","38","restless",0.5,0.7,0.5,0.790194950829725,"false"
"image-keyboard-response",187,296687,"0.0-4.58-1.58","2k438krwd3k4xqx",649,"11.csv","","null","resources/maskTrios/BT2B.jpg","null","",NA,NA,NA,NA,""
"image-keyboard-response",188,297893,"0.0-4.58-2.58","2k438krwd3k4xqx",649,"11.csv","","null","resources/images/fishbone.png","null","",NA,NA,NA,NA,""
"image-keyboard-response",189,298430,"0.0-4.59-0.59","2k438krwd3k4xqx",649,"11.csv","","536","resources/trios/L1T2A3.jpg","37","restless",0.5,0.7,0.5,0.757286515538673,"false"
"image-keyboard-response",190,298834,"0.0-4.59-1.59","2k438krwd3k4xqx",649,"11.csv","","null","resources/maskTrios/L1BB.jpg","null","",NA,NA,NA,NA,""
"image-keyboard-response",191,300045,"0.0-4.59-2.59","2k438krwd3k4xqx",649,"11.csv","","null","resources/images/fishbone.png","null","",NA,NA,NA,NA,""
"image-keyboard-response",192,300368,"0.0-4.60-0.60","2k438krwd3k4xqx",649,"11.csv","","321.5999999977648","resources/trios/L1T2A3.jpg","39","restless",0.5,0.8,0.4,0.0128795269742976,"true"
"image-keyboard-response",193,300773,"0.0-4.60-1.60","2k438krwd3k4xqx",649,"11.csv","","null","resources/maskTrios/BBA3.jpg","null","",NA,NA,NA,NA,""
"image-keyboard-response",194,301979,"0.0-4.60-2.60","2k438krwd3k4xqx",649,"11.csv","","null","resources/images/coin2.png","null","",NA,NA,NA,NA,""
"image-keyboard-response",195,302422,"0.0-4.61-0.61","2k438krwd3k4xqx",649,"11.csv","","442.19999999925494","resources/trios/L1T2A3.jpg","39","restless",0.5,0.8,0.4,0.0310748256270275,"true"
"image-keyboard-response",196,302826,"0.0-4.61-1.61","2k438krwd3k4xqx",649,"11.csv","","null","resources/maskTrios/BBA3.jpg","null","",NA,NA,NA,NA,""
"image-keyboard-response",197,304038,"0.0-4.61-2.61","2k438krwd3k4xqx",649,"11.csv","","null","resources/images/coin2.png","null","",NA,NA,NA,NA,""
"image-keyboard-response",198,304555,"0.0-4.62-0.62","2k438krwd3k4xqx",649,"11.csv","","515.3999999985099","resources/trios/L1T2A3.jpg","39","restless",0.5,0.8,0.3,0.05328281357151,"true"
"image-keyboard-response",199,304965,"0.0-4.62-1.62","2k438krwd3k4xqx",649,"11.csv","","null","resources/maskTrios/BBA3.jpg","null","",NA,NA,NA,NA,""
"image-keyboard-response",200,306173,"0.0-4.62-2.62","2k438krwd3k4xqx",649,"11.csv","","null","resources/images/coin2.png","null","",NA,NA,NA,NA,""
"image-keyboard-response",201,306659,"0.0-4.63-0.63","2k438krwd3k4xqx",649,"11.csv","","484.70000000298023","resources/trios/L1T2A3.jpg","39","restless",0.5,0.8,0.3,0.448756702086742,"false"
"image-keyboard-response",202,307067,"0.0-4.63-1.63","2k438krwd3k4xqx",649,"11.csv","","null","resources/maskTrios/BBA3.jpg","null","",NA,NA,NA,NA,""
"image-keyboard-response",203,308275,"0.0-4.63-2.63","2k438krwd3k4xqx",649,"11.csv","","null","resources/images/fishbone.png","null","",NA,NA,NA,NA,""
"image-keyboard-response",204,309241,"0.0-4.64-0.64","2k438krwd3k4xqx",649,"11.csv","","964.6000000014901","resources/trios/L1T2A3.jpg","37","restless",0.5,0.8,0.3,0.650069662726622,"false"
"image-keyboard-response",205,309653,"0.0-4.64-1.64","2k438krwd3k4xqx",649,"11.csv","","null","resources/maskTrios/L1BB.jpg","null","",NA,NA,NA,NA,""
"image-keyboard-response",206,310860,"0.0-4.64-2.64","2k438krwd3k4xqx",649,"11.csv","","null","resources/images/fishbone.png","null","",NA,NA,NA,NA,""
"image-keyboard-response",207,311279,"0.0-4.65-0.65","2k438krwd3k4xqx",649,"11.csv","","418.69999999925494","resources/trios/L1T2A3.jpg","38","restless",0.5,0.8,0.3,0.764036428439821,"true"
"image-keyboard-response",208,311682,"0.0-4.65-1.65","2k438krwd3k4xqx",649,"11.csv","","null","resources/maskTrios/BT2B.jpg","null","",NA,NA,NA,NA,""
"image-keyboard-response",209,312892,"0.0-4.65-2.65","2k438krwd3k4xqx",649,"11.csv","","null","resources/images/coin2.png","null","",NA,NA,NA,NA,""
"image-keyboard-response",210,313273,"0.0-4.66-0.66","2k438krwd3k4xqx",649,"11.csv","","378.6000000014901","resources/trios/L1T2A3.jpg","38","restless",0.6,0.7,0.3,0.0769500244036199,"true"
"image-keyboard-response",211,313682,"0.0-4.66-1.66","2k438krwd3k4xqx",649,"11.csv","","null","resources/maskTrios/BT2B.jpg","null","",NA,NA,NA,NA,""
"image-keyboard-response",212,314892,"0.0-4.66-2.66","2k438krwd3k4xqx",649,"11.csv","","null","resources/images/coin2.png","null","",NA,NA,NA,NA,""
"image-keyboard-response",213,315330,"0.0-4.67-0.67","2k438krwd3k4xqx",649,"11.csv","","435.5","resources/trios/L1T2A3.jpg","38","restless",0.6,0.7,0.3,0.108896593749033,"true"
"image-keyboard-response",214,315739,"0.0-4.67-1.67","2k438krwd3k4xqx",649,"11.csv","","null","resources/maskTrios/BT2B.jpg","null","",NA,NA,NA,NA,""
"image-keyboard-response",215,316947,"0.0-4.67-2.67","2k438krwd3k4xqx",649,"11.csv","","null","resources/images/coin2.png","null","",NA,NA,NA,NA,""
"image-keyboard-response",216,317291,"0.0-4.68-0.68","2k438krwd3k4xqx",649,"11.csv","","341.79999999701977","resources/trios/L1T2A3.jpg","38","restless",0.6,0.7,0.3,0.0254213183352898,"true"
"image-keyboard-response",217,317700,"0.0-4.68-1.68","2k438krwd3k4xqx",649,"11.csv","","null","resources/maskTrios/BT2B.jpg","null","",NA,NA,NA,NA,""
"image-keyboard-response",218,318906,"0.0-4.68-2.68","2k438krwd3k4xqx",649,"11.csv","","null","resources/images/coin2.png","null","",NA,NA,NA,NA,""
"image-keyboard-response",219,319251,"0.0-4.69-0.69","2k438krwd3k4xqx",649,"11.csv","","343.5","resources/trios/L1T2A3.jpg","38","restless",0.6,0.7,0.3,0.836796104738393,"false"
"image-keyboard-response",220,319659,"0.0-4.69-1.69","2k438krwd3k4xqx",649,"11.csv","","null","resources/maskTrios/BT2B.jpg","null","",NA,NA,NA,NA,""
"image-keyboard-response",221,320869,"0.0-4.69-2.69","2k438krwd3k4xqx",649,"11.csv","","null","resources/images/fishbone.png","null","",NA,NA,NA,NA,""
"image-keyboard-response",222,321160,"0.0-4.70-0.70","2k438krwd3k4xqx",649,"11.csv","","289.8999999985099","resources/trios/L1T2A3.jpg","37","restless",0.6,0.6,0.3,0.939185951097048,"false"
"image-keyboard-response",223,321575,"0.0-4.70-1.70","2k438krwd3k4xqx",649,"11.csv","","null","resources/maskTrios/L1BB.jpg","null","",NA,NA,NA,NA,""
"image-keyboard-response",224,322778,"0.0-4.70-2.70","2k438krwd3k4xqx",649,"11.csv","","null","resources/images/fishbone.png","null","",NA,NA,NA,NA,""
"image-keyboard-response",225,322988,"0.0-4.71-0.71","2k438krwd3k4xqx",649,"11.csv","","209.19999999925494","resources/trios/L1T2A3.jpg","39","restless",0.6,0.6,0.3,0.205536469183636,"true"
"image-keyboard-response",226,323395,"0.0-4.71-1.71","2k438krwd3k4xqx",649,"11.csv","","null","resources/maskTrios/BBA3.jpg","null","",NA,NA,NA,NA,""
"image-keyboard-response",227,324602,"0.0-4.71-2.71","2k438krwd3k4xqx",649,"11.csv","","null","resources/images/coin2.png","null","",NA,NA,NA,NA,""
"image-keyboard-response",228,324870,"0.0-4.72-0.72","2k438krwd3k4xqx",649,"11.csv","","266","resources/trios/L1T2A3.jpg","39","restless",0.6,0.6,0.3,0.0921711179802582,"true"
"image-keyboard-response",229,325279,"0.0-4.72-1.72","2k438krwd3k4xqx",649,"11.csv","","null","resources/maskTrios/BBA3.jpg","null","",NA,NA,NA,NA,""
"image-keyboard-response",230,326484,"0.0-4.72-2.72","2k438krwd3k4xqx",649,"11.csv","","null","resources/images/coin2.png","null","",NA,NA,NA,NA,""
"image-keyboard-response",231,326799,"0.0-4.73-0.73","2k438krwd3k4xqx",649,"11.csv","","313.5","resources/trios/L1T2A3.jpg","39","restless",0.6,0.6,0.3,0.272463642529037,"true"
"image-keyboard-response",232,327203,"0.0-4.73-1.73","2k438krwd3k4xqx",649,"11.csv","","null","resources/maskTrios/BBA3.jpg","null","",NA,NA,NA,NA,""
"image-keyboard-response",233,328413,"0.0-4.73-2.73","2k438krwd3k4xqx",649,"11.csv","","null","resources/images/coin2.png","null","",NA,NA,NA,NA,""
"image-keyboard-response",234,328802,"0.0-4.74-0.74","2k438krwd3k4xqx",649,"11.csv","","387.70000000298023","resources/trios/L1T2A3.jpg","39","restless",0.6,0.6,0.3,0.621258000725396,"false"
"image-keyboard-response",235,329213,"0.0-4.74-1.74","2k438krwd3k4xqx",649,"11.csv","","null","resources/maskTrios/BBA3.jpg","null","",NA,NA,NA,NA,""
"image-keyboard-response",236,330418,"0.0-4.74-2.74","2k438krwd3k4xqx",649,"11.csv","","null","resources/images/fishbone.png","null","",NA,NA,NA,NA,""
"image-keyboard-response",237,330487,"0.0-4.75-0.75","2k438krwd3k4xqx",649,"11.csv","","67.90000000223517","resources/trios/L1T2A3.jpg","38","restless",0.7,0.5,0.3,0.195468550635574,"true"
"image-keyboard-response",238,330895,"0.0-4.75-1.75","2k438krwd3k4xqx",649,"11.csv","","null","resources/maskTrios/BT2B.jpg","null","",NA,NA,NA,NA,""
"image-keyboard-response",239,332103,"0.0-4.75-2.75","2k438krwd3k4xqx",649,"11.csv","","null","resources/images/coin2.png","null","",NA,NA,NA,NA,""
"image-keyboard-response",240,332480,"0.0-4.76-0.76","2k438krwd3k4xqx",649,"11.csv","","375.80000000074506","resources/trios/L1T2A3.jpg","38","restless",0.7,0.5,0.3,0.866809308429323,"false"
"image-keyboard-response",241,332894,"0.0-4.76-1.76","2k438krwd3k4xqx",649,"11.csv","","null","resources/maskTrios/BT2B.jpg","null","",NA,NA,NA,NA,""
"image-keyboard-response",242,334098,"0.0-4.76-2.76","2k438krwd3k4xqx",649,"11.csv","","null","resources/images/fishbone.png","null","",NA,NA,NA,NA,""
"image-keyboard-response",243,334436,"0.0-4.77-0.77","2k438krwd3k4xqx",649,"11.csv","","336.69999999925494","resources/trios/L1T2A3.jpg","37","restless",0.7,0.5,0.3,0.198400996300871,"true"
"image-keyboard-response",244,334842,"0.0-4.77-1.77","2k438krwd3k4xqx",649,"11.csv","","null","resources/maskTrios/L1BB.jpg","null","",NA,NA,NA,NA,""
"image-keyboard-response",245,336050,"0.0-4.77-2.77","2k438krwd3k4xqx",649,"11.csv","","null","resources/images/coin2.png","null","",NA,NA,NA,NA,""
"image-keyboard-response",246,336331,"0.0-4.78-0.78","2k438krwd3k4xqx",649,"11.csv","","279.80000000074506","resources/trios/L1T2A3.jpg","37","restless",0.7,0.5,0.3,0.795361309395237,"false"
"image-keyboard-response",247,336743,"0.0-4.78-1.78","2k438krwd3k4xqx",649,"11.csv","","null","resources/maskTrios/L1BB.jpg","null","",NA,NA,NA,NA,""
"image-keyboard-response",248,337951,"0.0-4.78-2.78","2k438krwd3k4xqx",649,"11.csv","","null","resources/images/fishbone.png","null","",NA,NA,NA,NA,""
"image-keyboard-response",249,338232,"0.0-4.79-0.79","2k438krwd3k4xqx",649,"11.csv","","279.5999999977648","resources/trios/L1T2A3.jpg","39","restless",0.7,0.5,0.4,0.321161840686548,"true"
"image-keyboard-response",250,338634,"0.0-4.79-1.79","2k438krwd3k4xqx",649,"11.csv","","null","resources/maskTrios/BBA3.jpg","null","",NA,NA,NA,NA,""
"image-keyboard-response",251,339844,"0.0-4.79-2.79","2k438krwd3k4xqx",649,"11.csv","","null","resources/images/coin2.png","null","",NA,NA,NA,NA,""
"image-keyboard-response",252,340114,"0.0-4.80-0.80","2k438krwd3k4xqx",649,"11.csv","","268.80000000074506","resources/trios/L1T2A3.jpg","39","restless",0.7,0.5,0.4,0.290694406501919,"true"
"image-keyboard-response",253,340524,"0.0-4.80-1.80","2k438krwd3k4xqx",649,"11.csv","","null","resources/maskTrios/BBA3.jpg","null","",NA,NA,NA,NA,""
"image-keyboard-response",254,341733,"0.0-4.80-2.80","2k438krwd3k4xqx",649,"11.csv","","null","resources/images/coin2.png","null","",NA,NA,NA,NA,""
"image-keyboard-response",255,342042,"0.0-4.81-0.81","2k438krwd3k4xqx",649,"11.csv","","307.80000000074506","resources/trios/L1T2A3.jpg","39","restless",0.7,0.5,0.4,0.274055884974661,"true"
"image-keyboard-response",256,342453,"0.0-4.81-1.81","2k438krwd3k4xqx",649,"11.csv","","null","resources/maskTrios/BBA3.jpg","null","",NA,NA,NA,NA,""
"image-keyboard-response",257,343660,"0.0-4.81-2.81","2k438krwd3k4xqx",649,"11.csv","","null","resources/images/coin2.png","null","",NA,NA,NA,NA,""
"image-keyboard-response",258,343977,"0.0-4.82-0.82","2k438krwd3k4xqx",649,"11.csv","","315.5","resources/trios/L1T2A3.jpg","39","restless",0.7,0.5,0.4,0.968537651733362,"false"
"image-keyboard-response",259,344387,"0.0-4.82-1.82","2k438krwd3k4xqx",649,"11.csv","","null","resources/maskTrios/BBA3.jpg","null","",NA,NA,NA,NA,""
"image-keyboard-response",260,345596,"0.0-4.82-2.82","2k438krwd3k4xqx",649,"11.csv","","null","resources/images/fishbone.png","null","",NA,NA,NA,NA,""
"image-keyboard-response",261,345843,"0.0-4.83-0.83","2k438krwd3k4xqx",649,"11.csv","","245","resources/trios/L1T2A3.jpg","38","restless",0.7,0.5,0.4,0.574986757844199,"false"
"image-keyboard-response",262,346254,"0.0-4.83-1.83","2k438krwd3k4xqx",649,"11.csv","","null","resources/maskTrios/BT2B.jpg","null","",NA,NA,NA,NA,""
"image-keyboard-response",263,347458,"0.0-4.83-2.83","2k438krwd3k4xqx",649,"11.csv","","null","resources/images/fishbone.png","null","",NA,NA,NA,NA,""
"image-keyboard-response",264,347841,"0.0-4.84-0.84","2k438krwd3k4xqx",649,"11.csv","","381.6000000014901","resources/trios/L1T2A3.jpg","37","restless",0.7,0.5,0.5,0.793486891100194,"false"
"image-keyboard-response",265,348255,"0.0-4.84-1.84","2k438krwd3k4xqx",649,"11.csv","","null","resources/maskTrios/L1BB.jpg","null","",NA,NA,NA,NA,""
"image-keyboard-response",266,349459,"0.0-4.84-2.84","2k438krwd3k4xqx",649,"11.csv","","null","resources/images/fishbone.png","null","",NA,NA,NA,NA,""
"image-keyboard-response",267,349509,"0.0-4.85-0.85","2k438krwd3k4xqx",649,"11.csv","","48.19999999925494","resources/trios/L1T2A3.jpg","38","restless",0.7,0.5,0.5,0.26800450073877,"true"
"image-keyboard-response",268,349918,"0.0-4.85-1.85","2k438krwd3k4xqx",649,"11.csv","","null","resources/maskTrios/BT2B.jpg","null","",NA,NA,NA,NA,""
"image-keyboard-response",269,351124,"0.0-4.85-2.85","2k438krwd3k4xqx",649,"11.csv","","null","resources/images/coin2.png","null","",NA,NA,NA,NA,""
"image-keyboard-response",270,351422,"0.0-4.86-0.86","2k438krwd3k4xqx",649,"11.csv","","296.30000000074506","resources/trios/L1T2A3.jpg","38","restless",0.7,0.5,0.5,0.0857416055760183,"true"
"image-keyboard-response",271,351826,"0.0-4.86-1.86","2k438krwd3k4xqx",649,"11.csv","","null","resources/maskTrios/BT2B.jpg","null","",NA,NA,NA,NA,""
"image-keyboard-response",272,353037,"0.0-4.86-2.86","2k438krwd3k4xqx",649,"11.csv","","null","resources/images/coin2.png","null","",NA,NA,NA,NA,""
"image-keyboard-response",273,353413,"0.0-4.87-0.87","2k438krwd3k4xqx",649,"11.csv","","374.80000000074506","resources/trios/L1T2A3.jpg","38","restless",0.7,0.5,0.5,0.523014777453087,"false"
"image-keyboard-response",274,353822,"0.0-4.87-1.87","2k438krwd3k4xqx",649,"11.csv","","null","resources/maskTrios/BT2B.jpg","null","",NA,NA,NA,NA,""
"image-keyboard-response",275,355031,"0.0-4.87-2.87","2k438krwd3k4xqx",649,"11.csv","","null","resources/images/fishbone.png","null","",NA,NA,NA,NA,""
"image-keyboard-response",276,355403,"0.0-4.88-0.88","2k438krwd3k4xqx",649,"11.csv","","371.30000000074506","resources/trios/L1T2A3.jpg","39","restless",0.7,0.5,0.5,0.588938907294319,"false"
"image-keyboard-response",277,355815,"0.0-4.88-1.88","2k438krwd3k4xqx",649,"11.csv","","null","resources/maskTrios/BBA3.jpg","null","",NA,NA,NA,NA,""
"image-keyboard-response",278,357018,"0.0-4.88-2.88","2k438krwd3k4xqx",649,"11.csv","","null","resources/images/fishbone.png","null","",NA,NA,NA,NA,""
"image-keyboard-response",279,357359,"0.0-4.89-0.89","2k438krwd3k4xqx",649,"11.csv","","339","resources/trios/L1T2A3.jpg","37","restless",0.7,0.5,0.5,0.430964539110942,"true"
"image-keyboard-response",280,357764,"0.0-4.89-1.89","2k438krwd3k4xqx",649,"11.csv","","null","resources/maskTrios/L1BB.jpg","null","",NA,NA,NA,NA,""
"image-keyboard-response",281,358970,"0.0-4.89-2.89","2k438krwd3k4xqx",649,"11.csv","","null","resources/images/coin2.png","null","",NA,NA,NA,NA,""
"image-keyboard-response",282,359362,"0.0-4.90-0.90","2k438krwd3k4xqx",649,"11.csv","","389.6000000014901","resources/trios/L1T2A3.jpg","37","restless",0.7,0.5,0.5,0.00452172131339545,"true"
"image-keyboard-response",283,359770,"0.0-4.90-1.90","2k438krwd3k4xqx",649,"11.csv","","null","resources/maskTrios/L1BB.jpg","null","",NA,NA,NA,NA,""
"image-keyboard-response",284,360983,"0.0-4.90-2.90","2k438krwd3k4xqx",649,"11.csv","","null","resources/images/coin2.png","null","",NA,NA,NA,NA,""
"image-keyboard-response",285,361342,"0.0-4.91-0.91","2k438krwd3k4xqx",649,"11.csv","","357.69999999925494","resources/trios/L1T2A3.jpg","37","restless",0.7,0.5,0.4,0.750661934994469,"false"
"image-keyboard-response",286,361748,"0.0-4.91-1.91","2k438krwd3k4xqx",649,"11.csv","","null","resources/maskTrios/L1BB.jpg","null","",NA,NA,NA,NA,""
"image-keyboard-response",287,362955,"0.0-4.91-2.91","2k438krwd3k4xqx",649,"11.csv","","null","resources/images/fishbone.png","null","",NA,NA,NA,NA,""
"image-keyboard-response",288,363231,"0.0-4.92-0.92","2k438krwd3k4xqx",649,"11.csv","","273.80000000074506","resources/trios/L1T2A3.jpg","38","restless",0.7,0.5,0.4,0.741940024542169,"false"
"image-keyboard-response",289,363638,"0.0-4.92-1.92","2k438krwd3k4xqx",649,"11.csv","","null","resources/maskTrios/BT2B.jpg","null","",NA,NA,NA,NA,""
"image-keyboard-response",290,364846,"0.0-4.92-2.92","2k438krwd3k4xqx",649,"11.csv","","null","resources/images/fishbone.png","null","",NA,NA,NA,NA,""
"image-keyboard-response",291,365135,"0.0-4.93-0.93","2k438krwd3k4xqx",649,"11.csv","","287.4000000022352","resources/trios/L1T2A3.jpg","39","restless",0.7,0.5,0.4,0.423695913609457,"false"
"image-keyboard-response",292,365538,"0.0-4.93-1.93","2k438krwd3k4xqx",649,"11.csv","","null","resources/maskTrios/BBA3.jpg","null","",NA,NA,NA,NA,""
"image-keyboard-response",293,366748,"0.0-4.93-2.93","2k438krwd3k4xqx",649,"11.csv","","null","resources/images/fishbone.png","null","",NA,NA,NA,NA,""
"image-keyboard-response",294,367062,"0.0-4.94-0.94","2k438krwd3k4xqx",649,"11.csv","","312.8999999985099","resources/trios/L1T2A3.jpg","37","restless",0.7,0.5,0.4,0.201357702879399,"true"
"image-keyboard-response",295,367466,"0.0-4.94-1.94","2k438krwd3k4xqx",649,"11.csv","","null","resources/maskTrios/L1BB.jpg","null","",NA,NA,NA,NA,""
"image-keyboard-response",296,368678,"0.0-4.94-2.94","2k438krwd3k4xqx",649,"11.csv","","null","resources/images/coin2.png","null","",NA,NA,NA,NA,""
"image-keyboard-response",297,369006,"0.0-4.95-0.95","2k438krwd3k4xqx",649,"11.csv","","324.8999999985099","resources/trios/L1T2A3.jpg","37","restless",0.7,0.5,0.4,0.456633644527459,"true"
"image-keyboard-response",298,369414,"0.0-4.95-1.95","2k438krwd3k4xqx",649,"11.csv","","null","resources/maskTrios/L1BB.jpg","null","",NA,NA,NA,NA,""
"image-keyboard-response",299,370619,"0.0-4.95-2.95","2k438krwd3k4xqx",649,"11.csv","","null","resources/images/coin2.png","null","",NA,NA,NA,NA,""
"image-keyboard-response",300,370895,"0.0-4.96-0.96","2k438krwd3k4xqx",649,"11.csv","","273.5999999977648","resources/trios/L1T2A3.jpg","37","restless",0.7,0.5,0.4,0.478523075774001,"true"
"image-keyboard-response",301,371303,"0.0-4.96-1.96","2k438krwd3k4xqx",649,"11.csv","","null","resources/maskTrios/L1BB.jpg","null","",NA,NA,NA,NA,""
"image-keyboard-response",302,372508,"0.0-4.96-2.96","2k438krwd3k4xqx",649,"11.csv","","null","resources/images/coin2.png","null","",NA,NA,NA,NA,""
"image-keyboard-response",303,372920,"0.0-4.97-0.97","2k438krwd3k4xqx",649,"11.csv","","410.19999999925494","resources/trios/L1T2A3.jpg","37","restless",0.7,0.5,0.4,0.576139176238367,"true"
"image-keyboard-response",304,373326,"0.0-4.97-1.97","2k438krwd3k4xqx",649,"11.csv","","null","resources/maskTrios/L1BB.jpg","null","",NA,NA,NA,NA,""
"image-keyboard-response",305,374531,"0.0-4.97-2.97","2k438krwd3k4xqx",649,"11.csv","","null","resources/images/coin2.png","null","",NA,NA,NA,NA,""
"image-keyboard-response",306,374976,"0.0-4.98-0.98","2k438krwd3k4xqx",649,"11.csv","","443.30000000074506","resources/trios/L1T2A3.jpg","37","restless",0.7,0.5,0.4,0.502313291991874,"true"
"image-keyboard-response",307,375382,"0.0-4.98-1.98","2k438krwd3k4xqx",649,"11.csv","","null","resources/maskTrios/L1BB.jpg","null","",NA,NA,NA,NA,""
"image-keyboard-response",308,376590,"0.0-4.98-2.98","2k438krwd3k4xqx",649,"11.csv","","null","resources/images/coin2.png","null","",NA,NA,NA,NA,""
"image-keyboard-response",309,376978,"0.0-4.99-0.99","2k438krwd3k4xqx",649,"11.csv","","387.3999999985099","resources/trios/L1T2A3.jpg","37","restless",0.7,0.5,0.4,0.548434740900788,"true"
"image-keyboard-response",310,377391,"0.0-4.99-1.99","2k438krwd3k4xqx",649,"11.csv","","null","resources/maskTrios/L1BB.jpg","null","",NA,NA,NA,NA,""
"image-keyboard-response",311,378598,"0.0-4.99-2.99","2k438krwd3k4xqx",649,"11.csv","","null","resources/images/coin2.png","null","",NA,NA,NA,NA,""
"image-keyboard-response",312,379189,"0.0-4.100-0.100","2k438krwd3k4xqx",649,"11.csv","","589.6000000014901","resources/trios/L1T2A3.jpg","37","restless",0.7,0.5,0.4,0.887988502961894,"false"
"image-keyboard-response",313,379594,"0.0-4.100-1.100","2k438krwd3k4xqx",649,"11.csv","","null","resources/maskTrios/L1BB.jpg","null","",NA,NA,NA,NA,""
"image-keyboard-response",314,380803,"0.0-4.100-2.100","2k438krwd3k4xqx",649,"11.csv","","null","resources/images/fishbone.png","null","",NA,NA,NA,NA,""
"image-keyboard-response",315,381112,"0.0-4.101-0.101","2k438krwd3k4xqx",649,"11.csv","","308.19999999925494","resources/trios/L1T2A3.jpg","39","restless",0.8,0.5,0.5,0.551943460758786,"false"
"image-keyboard-response",316,381519,"0.0-4.101-1.101","2k438krwd3k4xqx",649,"11.csv","","null","resources/maskTrios/BBA3.jpg","null","",NA,NA,NA,NA,""
"image-keyboard-response",317,382725,"0.0-4.101-2.101","2k438krwd3k4xqx",649,"11.csv","","null","resources/images/fishbone.png","null","",NA,NA,NA,NA,""
"image-keyboard-response",318,383007,"0.0-4.102-0.102","2k438krwd3k4xqx",649,"11.csv","","281.3999999985099","resources/trios/L1T2A3.jpg","38","restless",0.8,0.5,0.5,0.0408962985708989,"true"
"image-keyboard-response",319,383411,"0.0-4.102-1.102","2k438krwd3k4xqx",649,"11.csv","","null","resources/maskTrios/BT2B.jpg","null","",NA,NA,NA,NA,""
"image-keyboard-response",320,384622,"0.0-4.102-2.102","2k438krwd3k4xqx",649,"11.csv","","null","resources/images/coin2.png","null","",NA,NA,NA,NA,""
"image-keyboard-response",321,384865,"0.0-4.103-0.103","2k438krwd3k4xqx",649,"11.csv","","242","resources/trios/L1T2A3.jpg","38","restless",0.8,0.4,0.5,0.0867098618731248,"true"
"image-keyboard-response",322,385271,"0.0-4.103-1.103","2k438krwd3k4xqx",649,"11.csv","","null","resources/maskTrios/BT2B.jpg","null","",NA,NA,NA,NA,""
"image-keyboard-response",323,386475,"0.0-4.103-2.103","2k438krwd3k4xqx",649,"11.csv","","null","resources/images/coin2.png","null","",NA,NA,NA,NA,""
"image-keyboard-response",324,386772,"0.0-4.104-0.104","2k438krwd3k4xqx",649,"11.csv","","295.80000000074506","resources/trios/L1T2A3.jpg","38","restless",0.8,0.4,0.5,0.738035939683748,"false"
"image-keyboard-response",325,387181,"0.0-4.104-1.104","2k438krwd3k4xqx",649,"11.csv","","null","resources/maskTrios/BT2B.jpg","null","",NA,NA,NA,NA,""
"image-keyboard-response",326,388387,"0.0-4.104-2.104","2k438krwd3k4xqx",649,"11.csv","","null","resources/images/fishbone.png","null","",NA,NA,NA,NA,""
"image-keyboard-response",327,388655,"0.0-4.105-0.105","2k438krwd3k4xqx",649,"11.csv","","266.6000000014901","resources/trios/L1T2A3.jpg","37","restless",0.8,0.4,0.5,0.417423878298086,"true"
"image-keyboard-response",328,389063,"0.0-4.105-1.105","2k438krwd3k4xqx",649,"11.csv","","null","resources/maskTrios/L1BB.jpg","null","",NA,NA,NA,NA,""
"image-keyboard-response",329,390267,"0.0-4.105-2.105","2k438krwd3k4xqx",649,"11.csv","","null","resources/images/coin2.png","null","",NA,NA,NA,NA,""
"image-keyboard-response",330,390316,"0.0-4.106-0.106","2k438krwd3k4xqx",649,"11.csv","","48.20000000298023","resources/trios/L1T2A3.jpg","37","restless",0.8,0.4,0.5,0.64510571563626,"true"
"image-keyboard-response",331,390725,"0.0-4.106-1.106","2k438krwd3k4xqx",649,"11.csv","","null","resources/maskTrios/L1BB.jpg","null","",NA,NA,NA,NA,""
"image-keyboard-response",332,391933,"0.0-4.106-2.106","2k438krwd3k4xqx",649,"11.csv","","null","resources/images/coin2.png","null","",NA,NA,NA,NA,""
"image-keyboard-response",333,392074,"0.0-4.107-0.107","2k438krwd3k4xqx",649,"11.csv","","139.69999999925494","resources/trios/L1T2A3.jpg","37","restless",0.8,0.4,0.5,0.286108296703403,"true"
"image-keyboard-response",334,392487,"0.0-4.107-1.107","2k438krwd3k4xqx",649,"11.csv","","null","resources/maskTrios/L1BB.jpg","null","",NA,NA,NA,NA,""
"image-keyboard-response",335,393695,"0.0-4.107-2.107","2k438krwd3k4xqx",649,"11.csv","","null","resources/images/coin2.png","null","",NA,NA,NA,NA,""
"image-keyboard-response",336,393941,"0.0-4.108-0.108","2k438krwd3k4xqx",649,"11.csv","","245.59999999776483","resources/trios/L1T2A3.jpg","37","restless",0.7,0.4,0.5,0.74566270389346,"false"
"image-keyboard-response",337,394350,"0.0-4.108-1.108","2k438krwd3k4xqx",649,"11.csv","","null","resources/maskTrios/L1BB.jpg","null","",NA,NA,NA,NA,""
"image-keyboard-response",338,395555,"0.0-4.108-2.108","2k438krwd3k4xqx",649,"11.csv","","null","resources/images/fishbone.png","null","",NA,NA,NA,NA,""
"image-keyboard-response",339,395579,"0.0-4.109-0.109","2k438krwd3k4xqx",649,"11.csv","","23.399999998509884","resources/trios/L1T2A3.jpg","39","restless",0.7,0.4,0.6,0.381469032334986,"true"
"image-keyboard-response",340,395990,"0.0-4.109-1.109","2k438krwd3k4xqx",649,"11.csv","","null","resources/maskTrios/BBA3.jpg","null","",NA,NA,NA,NA,""
"image-keyboard-response",341,397195,"0.0-4.109-2.109","2k438krwd3k4xqx",649,"11.csv","","null","resources/images/coin2.png","null","",NA,NA,NA,NA,""
"image-keyboard-response",342,397566,"0.0-4.110-0.110","2k438krwd3k4xqx",649,"11.csv","","369.69999999925494","resources/trios/L1T2A3.jpg","39","restless",0.7,0.4,0.6,0.677562132441378,"false"
"image-keyboard-response",343,397970,"0.0-4.110-1.110","2k438krwd3k4xqx",649,"11.csv","","null","resources/maskTrios/BBA3.jpg","null","",NA,NA,NA,NA,""
"image-keyboard-response",344,399180,"0.0-4.110-2.110","2k438krwd3k4xqx",649,"11.csv","","null","resources/images/fishbone.png","null","",NA,NA,NA,NA,""
"image-keyboard-response",345,399314,"0.0-4.111-0.111","2k438krwd3k4xqx",649,"11.csv","","133.19999999925494","resources/trios/L1T2A3.jpg","38","restless",0.6,0.4,0.6,0.455751127935061,"false"
"image-keyboard-response",346,399727,"0.0-4.111-1.111","2k438krwd3k4xqx",649,"11.csv","","null","resources/maskTrios/BT2B.jpg","null","",NA,NA,NA,NA,""
"image-keyboard-response",347,400931,"0.0-4.111-2.111","2k438krwd3k4xqx",649,"11.csv","","null","resources/images/fishbone.png","null","",NA,NA,NA,NA,""
"image-keyboard-response",348,401188,"0.0-4.112-0.112","2k438krwd3k4xqx",649,"11.csv","","255.5","resources/trios/L1T2A3.jpg","37","restless",0.5,0.4,0.6,0.288817283982501,"true"
"image-keyboard-response",349,401599,"0.0-4.112-1.112","2k438krwd3k4xqx",649,"11.csv","","null","resources/maskTrios/L1BB.jpg","null","",NA,NA,NA,NA,""
"image-keyboard-response",350,402806,"0.0-4.112-2.112","2k438krwd3k4xqx",649,"11.csv","","null","resources/images/coin2.png","null","",NA,NA,NA,NA,""
"image-keyboard-response",351,403723,"0.0-4.113-0.113","2k438krwd3k4xqx",649,"11.csv","","915.9000000022352","resources/trios/L1T2A3.jpg","37","restless",0.5,0.4,0.6,0.623694666646702,"false"
"image-keyboard-response",352,404135,"0.0-4.113-1.113","2k438krwd3k4xqx",649,"11.csv","","null","resources/maskTrios/L1BB.jpg","null","",NA,NA,NA,NA,""
"image-keyboard-response",353,405343,"0.0-4.113-2.113","2k438krwd3k4xqx",649,"11.csv","","null","resources/images/fishbone.png","null","",NA,NA,NA,NA,""
"image-keyboard-response",354,405658,"0.0-4.114-0.114","2k438krwd3k4xqx",649,"11.csv","","313.19999999925494","resources/trios/L1T2A3.jpg","39","restless",0.4,0.4,0.6,0.0174461996384534,"true"
"image-keyboard-response",355,406069,"0.0-4.114-1.114","2k438krwd3k4xqx",649,"11.csv","","null","resources/maskTrios/BBA3.jpg","null","",NA,NA,NA,NA,""
"image-keyboard-response",356,407279,"0.0-4.114-2.114","2k438krwd3k4xqx",649,"11.csv","","null","resources/images/coin2.png","null","",NA,NA,NA,NA,""
"image-keyboard-response",357,407678,"0.0-4.115-0.115","2k438krwd3k4xqx",649,"11.csv","","397.30000000074506","resources/trios/L1T2A3.jpg","39","restless",0.4,0.4,0.5,0.668445295364459,"false"
"image-keyboard-response",358,408085,"0.0-4.115-1.115","2k438krwd3k4xqx",649,"11.csv","","null","resources/maskTrios/BBA3.jpg","null","",NA,NA,NA,NA,""
"image-keyboard-response",359,409290,"0.0-4.115-2.115","2k438krwd3k4xqx",649,"11.csv","","null","resources/images/fishbone.png","null","",NA,NA,NA,NA,""
"image-keyboard-response",360,409641,"0.0-4.116-0.116","2k438krwd3k4xqx",649,"11.csv","","349.1000000014901","resources/trios/L1T2A3.jpg","38","restless",0.4,0.4,0.5,0.742543973300796,"false"
"image-keyboard-response",361,410051,"0.0-4.116-1.116","2k438krwd3k4xqx",649,"11.csv","","null","resources/maskTrios/BT2B.jpg","null","",NA,NA,NA,NA,""
"image-keyboard-response",362,411259,"0.0-4.116-2.116","2k438krwd3k4xqx",649,"11.csv","","null","resources/images/fishbone.png","null","",NA,NA,NA,NA,""
"image-keyboard-response",363,411983,"0.0-4.117-0.117","2k438krwd3k4xqx",649,"11.csv","","723","resources/trios/L1T2A3.jpg","38","restless",0.4,0.4,0.5,0.138047403633937,"true"
"image-keyboard-response",364,412388,"0.0-4.117-1.117","2k438krwd3k4xqx",649,"11.csv","","null","resources/maskTrios/BT2B.jpg","null","",NA,NA,NA,NA,""
"image-keyboard-response",365,413599,"0.0-4.117-2.117","2k438krwd3k4xqx",649,"11.csv","","null","resources/images/coin2.png","null","",NA,NA,NA,NA,""
"image-keyboard-response",366,414024,"0.0-4.118-0.118","2k438krwd3k4xqx",649,"11.csv","","422.5","resources/trios/L1T2A3.jpg","38","restless",0.4,0.4,0.5,0.58098235547131,"false"
"image-keyboard-response",367,414430,"0.0-4.118-1.118","2k438krwd3k4xqx",649,"11.csv","","null","resources/maskTrios/BT2B.jpg","null","",NA,NA,NA,NA,""
"image-keyboard-response",368,415639,"0.0-4.118-2.118","2k438krwd3k4xqx",649,"11.csv","","null","resources/images/fishbone.png","null","",NA,NA,NA,NA,""
"image-keyboard-response",369,416550,"0.0-4.119-0.119","2k438krwd3k4xqx",649,"11.csv","","909.1000000014901","resources/trios/L1T2A3.jpg","37","restless",0.4,0.4,0.4,0.657245300872903,"false"
"image-keyboard-response",370,416956,"0.0-4.119-1.119","2k438krwd3k4xqx",649,"11.csv","","null","resources/maskTrios/L1BB.jpg","null","",NA,NA,NA,NA,""
"image-keyboard-response",371,418164,"0.0-4.119-2.119","2k438krwd3k4xqx",649,"11.csv","","null","resources/images/fishbone.png","null","",NA,NA,NA,NA,""
"image-keyboard-response",372,418479,"0.0-4.120-0.120","2k438krwd3k4xqx",649,"11.csv","","313.3999999985099","resources/trios/L1T2A3.jpg","39","restless",0.4,0.4,0.5,0.126328024991848,"true"
"image-keyboard-response",373,418885,"0.0-4.120-1.120","2k438krwd3k4xqx",649,"11.csv","","null","resources/maskTrios/BBA3.jpg","null","",NA,NA,NA,NA,""
"image-keyboard-response",374,420096,"0.0-4.120-2.120","2k438krwd3k4xqx",649,"11.csv","","null","resources/images/coin2.png","null","",NA,NA,NA,NA,""
"image-keyboard-response",375,420711,"0.0-4.121-0.121","2k438krwd3k4xqx",649,"11.csv","","613.6999999992549","resources/trios/L1T2A3.jpg","39","restless",0.4,0.4,0.5,0.869463053053164,"false"
"image-keyboard-response",376,421115,"0.0-4.121-1.121","2k438krwd3k4xqx",649,"11.csv","","null","resources/maskTrios/BBA3.jpg","null","",NA,NA,NA,NA,""
"image-keyboard-response",377,422323,"0.0-4.121-2.121","2k438krwd3k4xqx",649,"11.csv","","null","resources/images/fishbone.png","null","",NA,NA,NA,NA,""
"image-keyboard-response",378,422693,"0.0-4.122-0.122","2k438krwd3k4xqx",649,"11.csv","","368.19999999925494","resources/trios/L1T2A3.jpg","38","restless",0.4,0.4,0.5,0.545766115356166,"false"
"image-keyboard-response",379,423102,"0.0-4.122-1.122","2k438krwd3k4xqx",649,"11.csv","","null","resources/maskTrios/BT2B.jpg","null","",NA,NA,NA,NA,""
"image-keyboard-response",380,424311,"0.0-4.122-2.122","2k438krwd3k4xqx",649,"11.csv","","null","resources/images/fishbone.png","null","",NA,NA,NA,NA,""
"image-keyboard-response",381,424625,"0.0-4.123-0.123","2k438krwd3k4xqx",649,"11.csv","","311.5","resources/trios/L1T2A3.jpg","37","restless",0.4,0.4,0.6,0.103305298716765,"true"
"image-keyboard-response",382,425026,"0.0-4.123-1.123","2k438krwd3k4xqx",649,"11.csv","","null","resources/maskTrios/L1BB.jpg","null","",NA,NA,NA,NA,""
"image-keyboard-response",383,426235,"0.0-4.123-2.123","2k438krwd3k4xqx",649,"11.csv","","null","resources/images/coin2.png","null","",NA,NA,NA,NA,""
"image-keyboard-response",384,426424,"0.0-4.124-0.124","2k438krwd3k4xqx",649,"11.csv","","187.89999999850988","resources/trios/L1T2A3.jpg","37","restless",0.5,0.4,0.6,0.038472201318813,"true"
"image-keyboard-response",385,426826,"0.0-4.124-1.124","2k438krwd3k4xqx",649,"11.csv","","null","resources/maskTrios/L1BB.jpg","null","",NA,NA,NA,NA,""
"image-keyboard-response",386,428039,"0.0-4.124-2.124","2k438krwd3k4xqx",649,"11.csv","","null","resources/images/coin2.png","null","",NA,NA,NA,NA,""
"image-keyboard-response",387,428364,"0.0-4.125-0.125","2k438krwd3k4xqx",649,"11.csv","","323","resources/trios/L1T2A3.jpg","37","restless",0.5,0.4,0.6,0.787477687644567,"false"
"image-keyboard-response",388,428772,"0.0-4.125-1.125","2k438krwd3k4xqx",649,"11.csv","","null","resources/maskTrios/L1BB.jpg","null","",NA,NA,NA,NA,""
"image-keyboard-response",389,429982,"0.0-4.125-2.125","2k438krwd3k4xqx",649,"11.csv","","null","resources/images/fishbone.png","null","",NA,NA,NA,NA,""
"image-keyboard-response",390,430301,"0.0-4.126-0.126","2k438krwd3k4xqx",649,"11.csv","","318.30000000074506","resources/trios/L1T2A3.jpg","39","restless",0.5,0.4,0.6,0.254399956203112,"true"
"image-keyboard-response",391,430707,"0.0-4.126-1.126","2k438krwd3k4xqx",649,"11.csv","","null","resources/maskTrios/BBA3.jpg","null","",NA,NA,NA,NA,""
"image-keyboard-response",392,431918,"0.0-4.126-2.126","2k438krwd3k4xqx",649,"11.csv","","null","resources/images/coin2.png","null","",NA,NA,NA,NA,""
"image-keyboard-response",393,432405,"0.0-4.127-0.127","2k438krwd3k4xqx",649,"11.csv","","485.8999999985099","resources/trios/L1T2A3.jpg","39","restless",0.5,0.4,0.6,0.116549632653026,"true"
"image-keyboard-response",394,432812,"0.0-4.127-1.127","2k438krwd3k4xqx",649,"11.csv","","null","resources/maskTrios/BBA3.jpg","null","",NA,NA,NA,NA,""
"image-keyboard-response",395,434024,"0.0-4.127-2.127","2k438krwd3k4xqx",649,"11.csv","","null","resources/images/coin2.png","null","",NA,NA,NA,NA,""
"image-keyboard-response",396,434595,"0.0-4.128-0.128","2k438krwd3k4xqx",649,"11.csv","","569.3000000007451","resources/trios/L1T2A3.jpg","39","restless",0.5,0.4,0.6,0.560509498756358,"true"
"image-keyboard-response",397,435003,"0.0-4.128-1.128","2k438krwd3k4xqx",649,"11.csv","","null","resources/maskTrios/BBA3.jpg","null","",NA,NA,NA,NA,""
"image-keyboard-response",398,436213,"0.0-4.128-2.128","2k438krwd3k4xqx",649,"11.csv","","null","resources/images/coin2.png","null","",NA,NA,NA,NA,""
"image-keyboard-response",399,436823,"0.0-4.129-0.129","2k438krwd3k4xqx",649,"11.csv","","608.2000000029802","resources/trios/L1T2A3.jpg","38","restless",0.5,0.4,0.6,0.254652710999745,"true"
"image-keyboard-response",400,437230,"0.0-4.129-1.129","2k438krwd3k4xqx",649,"11.csv","","null","resources/maskTrios/BT2B.jpg","null","",NA,NA,NA,NA,""
"image-keyboard-response",401,438431,"0.0-4.129-2.129","2k438krwd3k4xqx",649,"11.csv","","null","resources/images/coin2.png","null","",NA,NA,NA,NA,""
"image-keyboard-response",402,438948,"0.0-4.130-0.130","2k438krwd3k4xqx",649,"11.csv","","515.3999999985099","resources/trios/L1T2A3.jpg","38","restless",0.5,0.4,0.6,0.805934309159028,"false"
"image-keyboard-response",403,439358,"0.0-4.130-1.130","2k438krwd3k4xqx",649,"11.csv","","null","resources/maskTrios/BT2B.jpg","null","",NA,NA,NA,NA,""
"image-keyboard-response",404,440564,"0.0-4.130-2.130","2k438krwd3k4xqx",649,"11.csv","","null","resources/images/fishbone.png","null","",NA,NA,NA,NA,""
"image-keyboard-response",405,440967,"0.0-4.131-0.131","2k438krwd3k4xqx",649,"11.csv","","401.6000000014901","resources/trios/L1T2A3.jpg","37","restless",0.5,0.4,0.6,0.00414471948871475,"true"
"image-keyboard-response",406,441371,"0.0-4.131-1.131","2k438krwd3k4xqx",649,"11.csv","","null","resources/maskTrios/L1BB.jpg","null","",NA,NA,NA,NA,""
"image-keyboard-response",407,442582,"0.0-4.131-2.131","2k438krwd3k4xqx",649,"11.csv","","null","resources/images/coin2.png","null","",NA,NA,NA,NA,""
"image-keyboard-response",408,442894,"0.0-4.132-0.132","2k438krwd3k4xqx",649,"11.csv","","311.1000000014901","resources/trios/L1T2A3.jpg","37","restless",0.5,0.5,0.6,0.674440742326669,"false"
"image-keyboard-response",409,443303,"0.0-4.132-1.132","2k438krwd3k4xqx",649,"11.csv","","null","resources/maskTrios/L1BB.jpg","null","",NA,NA,NA,NA,""
"image-keyboard-response",410,444507,"0.0-4.132-2.132","2k438krwd3k4xqx",649,"11.csv","","null","resources/images/fishbone.png","null","",NA,NA,NA,NA,""
"image-keyboard-response",411,444819,"0.0-4.133-0.133","2k438krwd3k4xqx",649,"11.csv","","310.5","resources/trios/L1T2A3.jpg","39","restless",0.5,0.5,0.6,0.436827210674577,"true"
"image-keyboard-response",412,445227,"0.0-4.133-1.133","2k438krwd3k4xqx",649,"11.csv","","null","resources/maskTrios/BBA3.jpg","null","",NA,NA,NA,NA,""
"image-keyboard-response",413,446440,"0.0-4.133-2.133","2k438krwd3k4xqx",649,"11.csv","","null","resources/images/coin2.png","null","",NA,NA,NA,NA,""
"image-keyboard-response",414,447290,"0.0-4.134-0.134","2k438krwd3k4xqx",649,"11.csv","","849.2999999970198","resources/trios/L1T2A3.jpg","39","restless",0.5,0.5,0.6,0.359347449430908,"true"
"image-keyboard-response",415,447702,"0.0-4.134-1.134","2k438krwd3k4xqx",649,"11.csv","","null","resources/maskTrios/BBA3.jpg","null","",NA,NA,NA,NA,""
"image-keyboard-response",416,448912,"0.0-4.134-2.134","2k438krwd3k4xqx",649,"11.csv","","null","resources/images/coin2.png","null","",NA,NA,NA,NA,""
"image-keyboard-response",417,449440,"0.0-4.135-0.135","2k438krwd3k4xqx",649,"11.csv","","527.1999999992549","resources/trios/L1T2A3.jpg","39","restless",0.5,0.5,0.6,0.184311632047683,"true"
"image-keyboard-response",418,449848,"0.0-4.135-1.135","2k438krwd3k4xqx",649,"11.csv","","null","resources/maskTrios/BBA3.jpg","null","",NA,NA,NA,NA,""
"image-keyboard-response",419,451053,"0.0-4.135-2.135","2k438krwd3k4xqx",649,"11.csv","","null","resources/images/coin2.png","null","",NA,NA,NA,NA,""
"image-keyboard-response",420,451465,"0.0-4.136-0.136","2k438krwd3k4xqx",649,"11.csv","","411.3999999985099","resources/trios/L1T2A3.jpg","39","restless",0.5,0.5,0.6,0.802778846854102,"false"
"image-keyboard-response",421,451871,"0.0-4.136-1.136","2k438krwd3k4xqx",649,"11.csv","","null","resources/maskTrios/BBA3.jpg","null","",NA,NA,NA,NA,""
"image-keyboard-response",422,453076,"0.0-4.136-2.136","2k438krwd3k4xqx",649,"11.csv","","null","resources/images/fishbone.png","null","",NA,NA,NA,NA,""
"image-keyboard-response",423,453451,"0.0-4.137-0.137","2k438krwd3k4xqx",649,"11.csv","","373.70000000298023","resources/trios/L1T2A3.jpg","38","restless",0.5,0.4,0.6,0.976703900447252,"false"
"image-keyboard-response",424,453859,"0.0-4.137-1.137","2k438krwd3k4xqx",649,"11.csv","","null","resources/maskTrios/BT2B.jpg","null","",NA,NA,NA,NA,""
"image-keyboard-response",425,455068,"0.0-4.137-2.137","2k438krwd3k4xqx",649,"11.csv","","null","resources/images/fishbone.png","null","",NA,NA,NA,NA,""
"image-keyboard-response",426,455350,"0.0-4.138-0.138","2k438krwd3k4xqx",649,"11.csv","","279.8999999985099","resources/trios/L1T2A3.jpg","37","restless",0.5,0.4,0.6,0.060247957136756,"true"
"image-keyboard-response",427,455759,"0.0-4.138-1.138","2k438krwd3k4xqx",649,"11.csv","","null","resources/maskTrios/L1BB.jpg","null","",NA,NA,NA,NA,""
"image-keyboard-response",428,456966,"0.0-4.138-2.138","2k438krwd3k4xqx",649,"11.csv","","null","resources/images/coin2.png","null","",NA,NA,NA,NA,""
"image-keyboard-response",429,457286,"0.0-4.139-0.139","2k438krwd3k4xqx",649,"11.csv","","317.9000000022352","resources/trios/L1T2A3.jpg","37","restless",0.5,0.3,0.6,0.767690075217911,"false"
"image-keyboard-response",430,457694,"0.0-4.139-1.139","2k438krwd3k4xqx",649,"11.csv","","null","resources/maskTrios/L1BB.jpg","null","",NA,NA,NA,NA,""
"image-keyboard-response",431,458899,"0.0-4.139-2.139","2k438krwd3k4xqx",649,"11.csv","","null","resources/images/fishbone.png","null","",NA,NA,NA,NA,""
"image-keyboard-response",432,459277,"0.0-4.140-0.140","2k438krwd3k4xqx",649,"11.csv","","376.1000000014901","resources/trios/L1T2A3.jpg","39","restless",0.5,0.3,0.6,0.0162005832481098,"true"
"image-keyboard-response",433,459686,"0.0-4.140-1.140","2k438krwd3k4xqx",649,"11.csv","","null","resources/maskTrios/BBA3.jpg","null","",NA,NA,NA,NA,""
"image-keyboard-response",434,460895,"0.0-4.140-2.140","2k438krwd3k4xqx",649,"11.csv","","null","resources/images/coin2.png","null","",NA,NA,NA,NA,""
"image-keyboard-response",435,461326,"0.0-4.141-0.141","2k438krwd3k4xqx",649,"11.csv","","429.5","resources/trios/L1T2A3.jpg","38","restless",0.5,0.3,0.6,0.68513404441505,"false"
"image-keyboard-response",436,461732,"0.0-4.141-1.141","2k438krwd3k4xqx",649,"11.csv","","null","resources/maskTrios/BT2B.jpg","null","",NA,NA,NA,NA,""
"image-keyboard-response",437,462941,"0.0-4.141-2.141","2k438krwd3k4xqx",649,"11.csv","","null","resources/images/fishbone.png","null","",NA,NA,NA,NA,""
"image-keyboard-response",438,463218,"0.0-4.142-0.142","2k438krwd3k4xqx",649,"11.csv","","275.3999999985099","resources/trios/L1T2A3.jpg","39","restless",0.5,0.3,0.6,0.524607501896004,"true"
"image-keyboard-response",439,463632,"0.0-4.142-1.142","2k438krwd3k4xqx",649,"11.csv","","null","resources/maskTrios/BBA3.jpg","null","",NA,NA,NA,NA,""
"image-keyboard-response",440,464836,"0.0-4.142-2.142","2k438krwd3k4xqx",649,"11.csv","","null","resources/images/coin2.png","null","",NA,NA,NA,NA,""
"image-keyboard-response",441,465140,"0.0-4.143-0.143","2k438krwd3k4xqx",649,"11.csv","","303.5999999977648","resources/trios/L1T2A3.jpg","39","restless",0.5,0.3,0.6,0.131950814689066,"true"
"image-keyboard-response",442,465552,"0.0-4.143-1.143","2k438krwd3k4xqx",649,"11.csv","","null","resources/maskTrios/BBA3.jpg","null","",NA,NA,NA,NA,""
"image-keyboard-response",443,466759,"0.0-4.143-2.143","2k438krwd3k4xqx",649,"11.csv","","null","resources/images/coin2.png","null","",NA,NA,NA,NA,""
"image-keyboard-response",444,467147,"0.0-4.144-0.144","2k438krwd3k4xqx",649,"11.csv","","387.19999999925494","resources/trios/L1T2A3.jpg","39","restless",0.5,0.3,0.6,0.568968708699455,"true"
"image-keyboard-response",445,467557,"0.0-4.144-1.144","2k438krwd3k4xqx",649,"11.csv","","null","resources/maskTrios/BBA3.jpg","null","",NA,NA,NA,NA,""
"image-keyboard-response",446,468763,"0.0-4.144-2.144","2k438krwd3k4xqx",649,"11.csv","","null","resources/images/coin2.png","null","",NA,NA,NA,NA,""
"image-keyboard-response",447,469201,"0.0-4.145-0.145","2k438krwd3k4xqx",649,"11.csv","","436.80000000074506","resources/trios/L1T2A3.jpg","37","restless",0.5,0.3,0.6,0.950226753562607,"false"
"image-keyboard-response",448,469604,"0.0-4.145-1.145","2k438krwd3k4xqx",649,"11.csv","","null","resources/maskTrios/L1BB.jpg","null","",NA,NA,NA,NA,""
"image-keyboard-response",449,470816,"0.0-4.145-2.145","2k438krwd3k4xqx",649,"11.csv","","null","resources/images/fishbone.png","null","",NA,NA,NA,NA,""
"image-keyboard-response",450,470922,"0.0-4.146-0.146","2k438krwd3k4xqx",649,"11.csv","","104.79999999701977","resources/trios/L1T2A3.jpg","39","restless",0.5,0.3,0.6,0.539230062407712,"true"
"image-keyboard-response",451,471336,"0.0-4.146-1.146","2k438krwd3k4xqx",649,"11.csv","","null","resources/maskTrios/BBA3.jpg","null","",NA,NA,NA,NA,""
"image-keyboard-response",452,472541,"0.0-4.146-2.146","2k438krwd3k4xqx",649,"11.csv","","null","resources/images/coin2.png","null","",NA,NA,NA,NA,""
"image-keyboard-response",453,473491,"0.0-4.147-0.147","2k438krwd3k4xqx",649,"11.csv","","949.0999999977648","resources/trios/L1T2A3.jpg","39","restless",0.5,0.3,0.6,0.0115116874012924,"true"
"image-keyboard-response",454,473899,"0.0-4.147-1.147","2k438krwd3k4xqx",649,"11.csv","","null","resources/maskTrios/BBA3.jpg","null","",NA,NA,NA,NA,""
"image-keyboard-response",455,475110,"0.0-4.147-2.147","2k438krwd3k4xqx",649,"11.csv","","null","resources/images/coin2.png","null","",NA,NA,NA,NA,""
"image-keyboard-response",456,475549,"0.0-4.148-0.148","2k438krwd3k4xqx",649,"11.csv","","437.69999999925494","resources/trios/L1T2A3.jpg","39","restless",0.5,0.3,0.6,0.447724151982768,"true"
"image-keyboard-response",457,475958,"0.0-4.148-1.148","2k438krwd3k4xqx",649,"11.csv","","null","resources/maskTrios/BBA3.jpg","null","",NA,NA,NA,NA,""
"image-keyboard-response",458,477165,"0.0-4.148-2.148","2k438krwd3k4xqx",649,"11.csv","","null","resources/images/coin2.png","null","",NA,NA,NA,NA,""
"image-keyboard-response",459,477531,"0.0-4.149-0.149","2k438krwd3k4xqx",649,"11.csv","","365.0999999977648","resources/trios/L1T2A3.jpg","39","restless",0.5,0.3,0.6,0.473316179030082,"true"
"image-keyboard-response",460,477942,"0.0-4.149-1.149","2k438krwd3k4xqx",649,"11.csv","","null","resources/maskTrios/BBA3.jpg","null","",NA,NA,NA,NA,""
"image-keyboard-response",461,479152,"0.0-4.149-2.149","2k438krwd3k4xqx",649,"11.csv","","null","resources/images/coin2.png","null","",NA,NA,NA,NA,""
"image-keyboard-response",462,479522,"0.0-4.150-0.150","2k438krwd3k4xqx",649,"11.csv","","368.8999999985099","resources/trios/L1T2A3.jpg","39","restless",0.5,0.3,0.6,0.122753476846566,"true"
"image-keyboard-response",463,479933,"0.0-4.150-1.150","2k438krwd3k4xqx",649,"11.csv","","null","resources/maskTrios/BBA3.jpg","null","",NA,NA,NA,NA,""
"image-keyboard-response",464,481142,"0.0-4.150-2.150","2k438krwd3k4xqx",649,"11.csv","","null","resources/images/coin2.png","null","",NA,NA,NA,NA,""
"image-keyboard-response",465,481517,"0.0-4.151-0.151","2k438krwd3k4xqx",649,"11.csv","","373.9000000022352","resources/trios/L1T2A3.jpg","39","restless",0.4,0.3,0.6,0.581075681177342,"true"
"image-keyboard-response",466,481923,"0.0-4.151-1.151","2k438krwd3k4xqx",649,"11.csv","","null","resources/maskTrios/BBA3.jpg","null","",NA,NA,NA,NA,""
"image-keyboard-response",467,483135,"0.0-4.151-2.151","2k438krwd3k4xqx",649,"11.csv","","null","resources/images/coin2.png","null","",NA,NA,NA,NA,""
"image-keyboard-response",468,483479,"0.0-4.152-0.152","2k438krwd3k4xqx",649,"11.csv","","342.5","resources/trios/L1T2A3.jpg","39","restless",0.3,0.2,0.6,0.0516166308674781,"true"
"image-keyboard-response",469,483888,"0.0-4.152-1.152","2k438krwd3k4xqx",649,"11.csv","","null","resources/maskTrios/BBA3.jpg","null","",NA,NA,NA,NA,""
"image-keyboard-response",470,485094,"0.0-4.152-2.152","2k438krwd3k4xqx",649,"11.csv","","null","resources/images/coin2.png","null","",NA,NA,NA,NA,""
"image-keyboard-response",471,485441,"0.0-4.153-0.153","2k438krwd3k4xqx",649,"11.csv","","345.0999999977648","resources/trios/L1T2A3.jpg","39","restless",0.3,0.2,0.6,0.273024792078497,"true"
"image-keyboard-response",472,485853,"0.0-4.153-1.153","2k438krwd3k4xqx",649,"11.csv","","null","resources/maskTrios/BBA3.jpg","null","",NA,NA,NA,NA,""
"image-keyboard-response",473,487059,"0.0-4.153-2.153","2k438krwd3k4xqx",649,"11.csv","","null","resources/images/coin2.png","null","",NA,NA,NA,NA,""
"image-keyboard-response",474,487378,"0.0-4.154-0.154","2k438krwd3k4xqx",649,"11.csv","","318","resources/trios/L1T2A3.jpg","39","restless",0.3,0.2,0.6,0.408659076635405,"true"
"image-keyboard-response",475,487790,"0.0-4.154-1.154","2k438krwd3k4xqx",649,"11.csv","","null","resources/maskTrios/BBA3.jpg","null","",NA,NA,NA,NA,""
"image-keyboard-response",476,489000,"0.0-4.154-2.154","2k438krwd3k4xqx",649,"11.csv","","null","resources/images/coin2.png","null","",NA,NA,NA,NA,""
"image-keyboard-response",477,489310,"0.0-4.155-0.155","2k438krwd3k4xqx",649,"11.csv","","308.0999999977648","resources/trios/L1T2A3.jpg","39","restless",0.3,0.2,0.7,0.46776364945465,"true"
"image-keyboard-response",478,489715,"0.0-4.155-1.155","2k438krwd3k4xqx",649,"11.csv","","null","resources/maskTrios/BBA3.jpg","null","",NA,NA,NA,NA,""
"image-keyboard-response",479,490923,"0.0-4.155-2.155","2k438krwd3k4xqx",649,"11.csv","","null","resources/images/coin2.png","null","",NA,NA,NA,NA,""
"image-keyboard-response",480,491195,"0.0-4.156-0.156","2k438krwd3k4xqx",649,"11.csv","","270.6000000014901","resources/trios/L1T2A3.jpg","39","restless",0.3,0.2,0.7,0.292585646121058,"true"
"image-keyboard-response",481,491603,"0.0-4.156-1.156","2k438krwd3k4xqx",649,"11.csv","","null","resources/maskTrios/BBA3.jpg","null","",NA,NA,NA,NA,""
"image-keyboard-response",482,492816,"0.0-4.156-2.156","2k438krwd3k4xqx",649,"11.csv","","null","resources/images/coin2.png","null","",NA,NA,NA,NA,""
"image-keyboard-response",483,493064,"0.0-4.157-0.157","2k438krwd3k4xqx",649,"11.csv","","246.29999999701977","resources/trios/L1T2A3.jpg","39","restless",0.3,0.2,0.7,0.53648750829922,"true"
"image-keyboard-response",484,493467,"0.0-4.157-1.157","2k438krwd3k4xqx",649,"11.csv","","null","resources/maskTrios/BBA3.jpg","null","",NA,NA,NA,NA,""
"image-keyboard-response",485,494678,"0.0-4.157-2.157","2k438krwd3k4xqx",649,"11.csv","","null","resources/images/coin2.png","null","",NA,NA,NA,NA,""
"image-keyboard-response",486,494961,"0.0-4.158-0.158","2k438krwd3k4xqx",649,"11.csv","","281.80000000074506","resources/trios/L1T2A3.jpg","39","restless",0.3,0.2,0.7,0.656212389349356,"true"
"image-keyboard-response",487,495363,"0.0-4.158-1.158","2k438krwd3k4xqx",649,"11.csv","","null","resources/maskTrios/BBA3.jpg","null","",NA,NA,NA,NA,""
"image-keyboard-response",488,496575,"0.0-4.158-2.158","2k438krwd3k4xqx",649,"11.csv","","null","resources/images/coin2.png","null","",NA,NA,NA,NA,""
"image-keyboard-response",489,496865,"0.0-4.159-0.159","2k438krwd3k4xqx",649,"11.csv","","287.30000000074506","resources/trios/L1T2A3.jpg","39","restless",0.3,0.2,0.7,0.62793627177614,"true"
"image-keyboard-response",490,497272,"0.0-4.159-1.159","2k438krwd3k4xqx",649,"11.csv","","null","resources/maskTrios/BBA3.jpg","null","",NA,NA,NA,NA,""
"image-keyboard-response",491,498476,"0.0-4.159-2.159","2k438krwd3k4xqx",649,"11.csv","","null","resources/images/coin2.png","null","",NA,NA,NA,NA,""
"image-keyboard-response",492,498734,"0.0-4.160-0.160","2k438krwd3k4xqx",649,"11.csv","","255.80000000074506","resources/trios/L1T2A3.jpg","39","restless",0.3,0.2,0.7,0.225754803256071,"true"
"image-keyboard-response",493,499140,"0.0-4.160-1.160","2k438krwd3k4xqx",649,"11.csv","","null","resources/maskTrios/BBA3.jpg","null","",NA,NA,NA,NA,""
"image-keyboard-response",494,500348,"0.0-4.160-2.160","2k438krwd3k4xqx",649,"11.csv","","null","resources/images/coin2.png","null","",NA,NA,NA,NA,""
"image-keyboard-response",495,500626,"0.0-4.161-0.161","2k438krwd3k4xqx",649,"11.csv","","276.5","resources/trios/L1T2A3.jpg","39","restless",0.3,0.2,0.6,0.808142709582064,"false"
"image-keyboard-response",496,501035,"0.0-4.161-1.161","2k438krwd3k4xqx",649,"11.csv","","null","resources/maskTrios/BBA3.jpg","null","",NA,NA,NA,NA,""
"image-keyboard-response",497,502246,"0.0-4.161-2.161","2k438krwd3k4xqx",649,"11.csv","","null","resources/images/fishbone.png","null","",NA,NA,NA,NA,""
"image-keyboard-response",498,502418,"0.0-4.162-0.162","2k438krwd3k4xqx",649,"11.csv","","170.89999999850988","resources/trios/L1T2A3.jpg","37","restless",0.3,0.2,0.6,0.726513610608245,"false"
"image-keyboard-response",499,502832,"0.0-4.162-1.162","2k438krwd3k4xqx",649,"11.csv","","null","resources/maskTrios/L1BB.jpg","null","",NA,NA,NA,NA,""
"image-keyboard-response",500,504037,"0.0-4.162-2.162","2k438krwd3k4xqx",649,"11.csv","","null","resources/images/fishbone.png","null","",NA,NA,NA,NA,""
"image-keyboard-response",501,504356,"0.0-4.163-0.163","2k438krwd3k4xqx",649,"11.csv","","317.19999999925494","resources/trios/L1T2A3.jpg","38","restless",0.3,0.2,0.6,0.856564547901661,"false"
"image-keyboard-response",502,504767,"0.0-4.163-1.163","2k438krwd3k4xqx",649,"11.csv","","null","resources/maskTrios/BT2B.jpg","null","",NA,NA,NA,NA,""
"image-keyboard-response",503,505976,"0.0-4.163-2.163","2k438krwd3k4xqx",649,"11.csv","","null","resources/images/fishbone.png","null","",NA,NA,NA,NA,""
"image-keyboard-response",504,506004,"0.0-4.164-0.164","2k438krwd3k4xqx",649,"11.csv","","27.099999997764826","resources/trios/L1T2A3.jpg","39","restless",0.3,0.2,0.6,0.672751238144457,"false"
"image-keyboard-response",505,506411,"0.0-4.164-1.164","2k438krwd3k4xqx",649,"11.csv","","null","resources/maskTrios/BBA3.jpg","null","",NA,NA,NA,NA,""
"image-keyboard-response",506,507623,"0.0-4.164-2.164","2k438krwd3k4xqx",649,"11.csv","","null","resources/images/fishbone.png","null","",NA,NA,NA,NA,""
"image-keyboard-response",507,507925,"0.0-4.165-0.165","2k438krwd3k4xqx",649,"11.csv","","300.5","resources/trios/L1T2A3.jpg","37","restless",0.3,0.2,0.6,0.460552361656227,"false"
"image-keyboard-response",508,508331,"0.0-4.165-1.165","2k438krwd3k4xqx",649,"11.csv","","null","resources/maskTrios/L1BB.jpg","null","",NA,NA,NA,NA,""
"image-keyboard-response",509,509541,"0.0-4.165-2.165","2k438krwd3k4xqx",649,"11.csv","","null","resources/images/fishbone.png","null","",NA,NA,NA,NA,""
"image-keyboard-response",510,510047,"0.0-4.166-0.166","2k438krwd3k4xqx",649,"11.csv","","505.6000000014901","resources/trios/L1T2A3.jpg","39","restless",0.3,0.1,0.6,0.119923402325327,"true"
"image-keyboard-response",511,510451,"0.0-4.166-1.166","2k438krwd3k4xqx",649,"11.csv","","null","resources/maskTrios/BBA3.jpg","null","",NA,NA,NA,NA,""
"image-keyboard-response",512,511656,"0.0-4.166-2.166","2k438krwd3k4xqx",649,"11.csv","","null","resources/images/coin2.png","null","",NA,NA,NA,NA,""
"image-keyboard-response",513,511920,"0.0-4.167-0.167","2k438krwd3k4xqx",649,"11.csv","","262.1000000014901","resources/trios/L1T2A3.jpg","39","restless",0.3,0.1,0.6,0.198500121366987,"true"
"image-keyboard-response",514,512325,"0.0-4.167-1.167","2k438krwd3k4xqx",649,"11.csv","","null","resources/maskTrios/BBA3.jpg","null","",NA,NA,NA,NA,""
"image-keyboard-response",515,513533,"0.0-4.167-2.167","2k438krwd3k4xqx",649,"11.csv","","null","resources/images/coin2.png","null","",NA,NA,NA,NA,""
"image-keyboard-response",516,513904,"0.0-4.168-0.168","2k438krwd3k4xqx",649,"11.csv","","370","resources/trios/L1T2A3.jpg","39","restless",0.3,0.1,0.6,0.530504807986947,"true"
"image-keyboard-response",517,514308,"0.0-4.168-1.168","2k438krwd3k4xqx",649,"11.csv","","null","resources/maskTrios/BBA3.jpg","null","",NA,NA,NA,NA,""
"image-keyboard-response",518,515515,"0.0-4.168-2.168","2k438krwd3k4xqx",649,"11.csv","","null","resources/images/coin2.png","null","",NA,NA,NA,NA,""
"image-keyboard-response",519,515856,"0.0-4.169-0.169","2k438krwd3k4xqx",649,"11.csv","","338.70000000298023","resources/trios/L1T2A3.jpg","39","restless",0.3,0.1,0.6,0.701272523626382,"false"
"image-keyboard-response",520,516260,"0.0-4.169-1.169","2k438krwd3k4xqx",649,"11.csv","","null","resources/maskTrios/BBA3.jpg","null","",NA,NA,NA,NA,""
"image-keyboard-response",521,517468,"0.0-4.169-2.169","2k438krwd3k4xqx",649,"11.csv","","null","resources/images/fishbone.png","null","",NA,NA,NA,NA,""
"image-keyboard-response",522,517819,"0.0-4.170-0.170","2k438krwd3k4xqx",649,"11.csv","","349.69999999925494","resources/trios/L1T2A3.jpg","37","restless",0.3,0.1,0.6,0.552331831300295,"false"
"image-keyboard-response",523,518229,"0.0-4.170-1.170","2k438krwd3k4xqx",649,"11.csv","","null","resources/maskTrios/L1BB.jpg","null","",NA,NA,NA,NA,""
"image-keyboard-response",524,519440,"0.0-4.170-2.170","2k438krwd3k4xqx",649,"11.csv","","null","resources/images/fishbone.png","null","",NA,NA,NA,NA,""
"image-keyboard-response",525,519733,"0.0-4.171-0.171","2k438krwd3k4xqx",649,"11.csv","","291.69999999925494","resources/trios/L1T2A3.jpg","39","restless",0.3,0.1,0.6,0.887808164065087,"false"
"image-keyboard-response",526,520143,"0.0-4.171-1.171","2k438krwd3k4xqx",649,"11.csv","","null","resources/maskTrios/BBA3.jpg","null","",NA,NA,NA,NA,""
"image-keyboard-response",527,521349,"0.0-4.171-2.171","2k438krwd3k4xqx",649,"11.csv","","null","resources/images/fishbone.png","null","",NA,NA,NA,NA,""
"image-keyboard-response",528,521657,"0.0-4.172-0.172","2k438krwd3k4xqx",649,"11.csv","","306.5","resources/trios/L1T2A3.jpg","38","restless",0.3,0.1,0.6,0.12116230672873,"false"
"image-keyboard-response",529,522060,"0.0-4.172-1.172","2k438krwd3k4xqx",649,"11.csv","","null","resources/maskTrios/BT2B.jpg","null","",NA,NA,NA,NA,""
"image-keyboard-response",530,523269,"0.0-4.172-2.172","2k438krwd3k4xqx",649,"11.csv","","null","resources/images/fishbone.png","null","",NA,NA,NA,NA,""
"image-keyboard-response",531,523595,"0.0-4.173-0.173","2k438krwd3k4xqx",649,"11.csv","","323.8999999985099","resources/trios/L1T2A3.jpg","37","restless",0.3,0.1,0.6,0.731857653168862,"false"
"image-keyboard-response",532,524004,"0.0-4.173-1.173","2k438krwd3k4xqx",649,"11.csv","","null","resources/maskTrios/L1BB.jpg","null","",NA,NA,NA,NA,""
"image-keyboard-response",533,525215,"0.0-4.173-2.173","2k438krwd3k4xqx",649,"11.csv","","null","resources/images/fishbone.png","null","",NA,NA,NA,NA,""
"image-keyboard-response",534,525355,"0.0-4.174-0.174","2k438krwd3k4xqx",649,"11.csv","","138.19999999925494","resources/trios/L1T2A3.jpg","39","restless",0.3,0.2,0.6,0.378797888930364,"true"
"image-keyboard-response",535,525768,"0.0-4.174-1.174","2k438krwd3k4xqx",649,"11.csv","","null","resources/maskTrios/BBA3.jpg","null","",NA,NA,NA,NA,""
"image-keyboard-response",536,526972,"0.0-4.174-2.174","2k438krwd3k4xqx",649,"11.csv","","null","resources/images/coin2.png","null","",NA,NA,NA,NA,""
"image-keyboard-response",537,527355,"0.0-4.175-0.175","2k438krwd3k4xqx",649,"11.csv","","381.30000000074506","resources/trios/L1T2A3.jpg","38","restless",0.4,0.2,0.6,0.578903434078851,"false"
"image-keyboard-response",538,527765,"0.0-4.175-1.175","2k438krwd3k4xqx",649,"11.csv","","null","resources/maskTrios/BT2B.jpg","null","",NA,NA,NA,NA,""
"image-keyboard-response",539,528972,"0.0-4.175-2.175","2k438krwd3k4xqx",649,"11.csv","","null","resources/images/fishbone.png","null","",NA,NA,NA,NA,""
"image-keyboard-response",540,529250,"0.0-4.176-0.176","2k438krwd3k4xqx",649,"11.csv","","276.1000000014901","resources/trios/L1T2A3.jpg","39","restless",0.4,0.2,0.6,0.0736809794561561,"true"
"image-keyboard-response",541,529660,"0.0-4.176-1.176","2k438krwd3k4xqx",649,"11.csv","","null","resources/maskTrios/BBA3.jpg","null","",NA,NA,NA,NA,""
"image-keyboard-response",542,530868,"0.0-4.176-2.176","2k438krwd3k4xqx",649,"11.csv","","null","resources/images/coin2.png","null","",NA,NA,NA,NA,""
"image-keyboard-response",543,531084,"0.0-4.177-0.177","2k438krwd3k4xqx",649,"11.csv","","215","resources/trios/L1T2A3.jpg","39","restless",0.3,0.2,0.6,0.14114480013838,"true"
"image-keyboard-response",544,531493,"0.0-4.177-1.177","2k438krwd3k4xqx",649,"11.csv","","null","resources/maskTrios/BBA3.jpg","null","",NA,NA,NA,NA,""
"image-keyboard-response",545,532704,"0.0-4.177-2.177","2k438krwd3k4xqx",649,"11.csv","","null","resources/images/coin2.png","null","",NA,NA,NA,NA,""
"image-keyboard-response",546,532930,"0.0-4.178-0.178","2k438krwd3k4xqx",649,"11.csv","","224.39999999850988","resources/trios/L1T2A3.jpg","39","restless",0.3,0.2,0.6,0.581199311674737,"true"
"image-keyboard-response",547,533344,"0.0-4.178-1.178","2k438krwd3k4xqx",649,"11.csv","","null","resources/maskTrios/BBA3.jpg","null","",NA,NA,NA,NA,""
"image-keyboard-response",548,534549,"0.0-4.178-2.178","2k438krwd3k4xqx",649,"11.csv","","null","resources/images/coin2.png","null","",NA,NA,NA,NA,""
"image-keyboard-response",549,534830,"0.0-4.179-0.179","2k438krwd3k4xqx",649,"11.csv","","279.29999999701977","resources/trios/L1T2A3.jpg","39","restless",0.2,0.2,0.6,0.444006319953022,"true"
"image-keyboard-response",550,535236,"0.0-4.179-1.179","2k438krwd3k4xqx",649,"11.csv","","null","resources/maskTrios/BBA3.jpg","null","",NA,NA,NA,NA,""
"image-keyboard-response",551,536444,"0.0-4.179-2.179","2k438krwd3k4xqx",649,"11.csv","","null","resources/images/coin2.png","null","",NA,NA,NA,NA,""
"image-keyboard-response",552,536716,"0.0-4.180-0.180","2k438krwd3k4xqx",649,"11.csv","","270.8999999985099","resources/trios/L1T2A3.jpg","39","restless",0.2,0.3,0.6,0.33631890793727,"true"
"image-keyboard-response",553,537128,"0.0-4.180-1.180","2k438krwd3k4xqx",649,"11.csv","","null","resources/maskTrios/BBA3.jpg","null","",NA,NA,NA,NA,""
"image-keyboard-response",554,538332,"0.0-4.180-2.180","2k438krwd3k4xqx",649,"11.csv","","null","resources/images/coin2.png","null","",NA,NA,NA,NA,""
"image-keyboard-response",555,539085,"0.0-4.181-0.181","2k438krwd3k4xqx",649,"11.csv","","751.1999999992549","resources/trios/L1T2A3.jpg","39","restless",0.2,0.3,0.7,0.818086715243461,"false"
"image-keyboard-response",556,539495,"0.0-4.181-1.181","2k438krwd3k4xqx",649,"11.csv","","null","resources/maskTrios/BBA3.jpg","null","",NA,NA,NA,NA,""
"image-keyboard-response",557,540699,"0.0-4.181-2.181","2k438krwd3k4xqx",649,"11.csv","","null","resources/images/fishbone.png","null","",NA,NA,NA,NA,""
"image-keyboard-response",558,540890,"0.0-4.182-0.182","2k438krwd3k4xqx",649,"11.csv","","189.70000000298023","resources/trios/L1T2A3.jpg","37","restless",0.2,0.3,0.7,0.702780995906096,"false"
"image-keyboard-response",559,541302,"0.0-4.182-1.182","2k438krwd3k4xqx",649,"11.csv","","null","resources/maskTrios/L1BB.jpg","null","",NA,NA,NA,NA,""
"image-keyboard-response",560,542512,"0.0-4.182-2.182","2k438krwd3k4xqx",649,"11.csv","","null","resources/images/fishbone.png","null","",NA,NA,NA,NA,""
"image-keyboard-response",561,542556,"0.0-4.183-0.183","2k438krwd3k4xqx",649,"11.csv","","42.29999999701977","resources/trios/L1T2A3.jpg","39","restless",0.2,0.4,0.7,0.962203800857651,"false"
"image-keyboard-response",562,542963,"0.0-4.183-1.183","2k438krwd3k4xqx",649,"11.csv","","null","resources/maskTrios/BBA3.jpg","null","",NA,NA,NA,NA,""
"image-keyboard-response",563,544175,"0.0-4.183-2.183","2k438krwd3k4xqx",649,"11.csv","","null","resources/images/fishbone.png","null","",NA,NA,NA,NA,""
"image-keyboard-response",564,544935,"0.0-4.184-0.184","2k438krwd3k4xqx",649,"11.csv","","759.1999999992549","resources/trios/L1T2A3.jpg","38","restless",0.2,0.4,0.7,0.8144200126846,"false"
"image-keyboard-response",565,545344,"0.0-4.184-1.184","2k438krwd3k4xqx",649,"11.csv","","null","resources/maskTrios/BT2B.jpg","null","",NA,NA,NA,NA,""
"image-keyboard-response",566,546547,"0.0-4.184-2.184","2k438krwd3k4xqx",649,"11.csv","","null","resources/images/fishbone.png","null","",NA,NA,NA,NA,""
"image-keyboard-response",567,547158,"0.0-4.185-0.185","2k438krwd3k4xqx",649,"11.csv","","609.0999999977648","resources/trios/L1T2A3.jpg","37","restless",0.2,0.4,0.6,0.0815634837237973,"true"
"image-keyboard-response",568,547566,"0.0-4.185-1.185","2k438krwd3k4xqx",649,"11.csv","","null","resources/maskTrios/L1BB.jpg","null","",NA,NA,NA,NA,""
"image-keyboard-response",569,548775,"0.0-4.185-2.185","2k438krwd3k4xqx",649,"11.csv","","null","resources/images/coin2.png","null","",NA,NA,NA,NA,""
"image-keyboard-response",570,549132,"0.0-4.186-0.186","2k438krwd3k4xqx",649,"11.csv","","356","resources/trios/L1T2A3.jpg","37","restless",0.2,0.4,0.6,0.779311058044024,"false"
"image-keyboard-response",571,549539,"0.0-4.186-1.186","2k438krwd3k4xqx",649,"11.csv","","null","resources/maskTrios/L1BB.jpg","null","",NA,NA,NA,NA,""
"image-keyboard-response",572,550752,"0.0-4.186-2.186","2k438krwd3k4xqx",649,"11.csv","","null","resources/images/fishbone.png","null","",NA,NA,NA,NA,""
"image-keyboard-response",573,551107,"0.0-4.187-0.187","2k438krwd3k4xqx",649,"11.csv","","353.69999999925494","resources/trios/L1T2A3.jpg","39","restless",0.2,0.4,0.6,0.34818002668015,"true"
"image-keyboard-response",574,551516,"0.0-4.187-1.187","2k438krwd3k4xqx",649,"11.csv","","null","resources/maskTrios/BBA3.jpg","null","",NA,NA,NA,NA,""
"image-keyboard-response",575,552726,"0.0-4.187-2.187","2k438krwd3k4xqx",649,"11.csv","","null","resources/images/coin2.png","null","",NA,NA,NA,NA,""
"image-keyboard-response",576,552923,"0.0-4.188-0.188","2k438krwd3k4xqx",649,"11.csv","","195.69999999925494","resources/trios/L1T2A3.jpg","39","restless",0.2,0.4,0.6,0.108225260665208,"true"
"image-keyboard-response",577,553331,"0.0-4.188-1.188","2k438krwd3k4xqx",649,"11.csv","","null","resources/maskTrios/BBA3.jpg","null","",NA,NA,NA,NA,""
"image-keyboard-response",578,554539,"0.0-4.188-2.188","2k438krwd3k4xqx",649,"11.csv","","null","resources/images/coin2.png","null","",NA,NA,NA,NA,""
"image-keyboard-response",579,554850,"0.0-4.189-0.189","2k438krwd3k4xqx",649,"11.csv","","309.1000000014901","resources/trios/L1T2A3.jpg","39","restless",0.2,0.5,0.6,0.180739672489157,"true"
"image-keyboard-response",580,555262,"0.0-4.189-1.189","2k438krwd3k4xqx",649,"11.csv","","null","resources/maskTrios/BBA3.jpg","null","",NA,NA,NA,NA,""
"image-keyboard-response",581,556469,"0.0-4.189-2.189","2k438krwd3k4xqx",649,"11.csv","","null","resources/images/coin2.png","null","",NA,NA,NA,NA,""
"image-keyboard-response",582,556572,"0.0-4.190-0.190","2k438krwd3k4xqx",649,"11.csv","","100.59999999776483","resources/trios/L1T2A3.jpg","39","restless",0.2,0.5,0.6,0.280483045524604,"true"
"image-keyboard-response",583,556984,"0.0-4.190-1.190","2k438krwd3k4xqx",649,"11.csv","","null","resources/maskTrios/BBA3.jpg","null","",NA,NA,NA,NA,""
"image-keyboard-response",584,558191,"0.0-4.190-2.190","2k438krwd3k4xqx",649,"11.csv","","null","resources/images/coin2.png","null","",NA,NA,NA,NA,""
"image-keyboard-response",585,558247,"0.0-4.191-0.191","2k438krwd3k4xqx",649,"11.csv","","54.099999997764826","resources/trios/L1T2A3.jpg","39","restless",0.2,0.5,0.7,0.299747840835389,"true"
"image-keyboard-response",586,558656,"0.0-4.191-1.191","2k438krwd3k4xqx",649,"11.csv","","null","resources/maskTrios/BBA3.jpg","null","",NA,NA,NA,NA,""
"image-keyboard-response",587,559859,"0.0-4.191-2.191","2k438krwd3k4xqx",649,"11.csv","","null","resources/images/coin2.png","null","",NA,NA,NA,NA,""
"image-keyboard-response",588,560529,"0.0-4.192-0.192","2k438krwd3k4xqx",649,"11.csv","","668.3000000007451","resources/trios/L1T2A3.jpg","39","restless",0.3,0.4,0.7,0.497612329329479,"true"
"image-keyboard-response",589,560936,"0.0-4.192-1.192","2k438krwd3k4xqx",649,"11.csv","","null","resources/maskTrios/BBA3.jpg","null","",NA,NA,NA,NA,""
"image-keyboard-response",590,562144,"0.0-4.192-2.192","2k438krwd3k4xqx",649,"11.csv","","null","resources/images/coin2.png","null","",NA,NA,NA,NA,""
"image-keyboard-response",591,562602,"0.0-4.193-0.193","2k438krwd3k4xqx",649,"11.csv","","456.79999999701977","resources/trios/L1T2A3.jpg","39","restless",0.3,0.4,0.7,0.639013125505514,"true"
"image-keyboard-response",592,563012,"0.0-4.193-1.193","2k438krwd3k4xqx",649,"11.csv","","null","resources/maskTrios/BBA3.jpg","null","",NA,NA,NA,NA,""
"image-keyboard-response",593,564220,"0.0-4.193-2.193","2k438krwd3k4xqx",649,"11.csv","","null","resources/images/coin2.png","null","",NA,NA,NA,NA,""
"image-keyboard-response",594,564555,"0.0-4.194-0.194","2k438krwd3k4xqx",649,"11.csv","","333","resources/trios/L1T2A3.jpg","39","restless",0.3,0.4,0.7,0.186744422486333,"true"
"image-keyboard-response",595,564966,"0.0-4.194-1.194","2k438krwd3k4xqx",649,"11.csv","","null","resources/maskTrios/BBA3.jpg","null","",NA,NA,NA,NA,""
"image-keyboard-response",596,566172,"0.0-4.194-2.194","2k438krwd3k4xqx",649,"11.csv","","null","resources/images/coin2.png","null","",NA,NA,NA,NA,""
"image-keyboard-response",597,566325,"0.0-4.195-0.195","2k438krwd3k4xqx",649,"11.csv","","151.29999999701977","resources/trios/L1T2A3.jpg","39","restless",0.3,0.4,0.7,0.780711771547181,"false"
"image-keyboard-response",598,566736,"0.0-4.195-1.195","2k438krwd3k4xqx",649,"11.csv","","null","resources/maskTrios/BBA3.jpg","null","",NA,NA,NA,NA,""
"image-keyboard-response",599,567941,"0.0-4.195-2.195","2k438krwd3k4xqx",649,"11.csv","","null","resources/images/fishbone.png","null","",NA,NA,NA,NA,""
"image-keyboard-response",600,568264,"0.0-4.196-0.196","2k438krwd3k4xqx",649,"11.csv","","320.6000000014901","resources/trios/L1T2A3.jpg","38","restless",0.3,0.5,0.7,0.888845621175685,"false"
"image-keyboard-response",601,568668,"0.0-4.196-1.196","2k438krwd3k4xqx",649,"11.csv","","null","resources/maskTrios/BT2B.jpg","null","",NA,NA,NA,NA,""
"image-keyboard-response",602,569873,"0.0-4.196-2.196","2k438krwd3k4xqx",649,"11.csv","","null","resources/images/fishbone.png","null","",NA,NA,NA,NA,""
"image-keyboard-response",603,570519,"0.0-4.197-0.197","2k438krwd3k4xqx",649,"11.csv","","645","resources/trios/L1T2A3.jpg","39","restless",0.3,0.5,0.7,0.251793049630483,"true"
"image-keyboard-response",604,570928,"0.0-4.197-1.197","2k438krwd3k4xqx",649,"11.csv","","null","resources/maskTrios/BBA3.jpg","null","",NA,NA,NA,NA,""
"image-keyboard-response",605,572132,"0.0-4.197-2.197","2k438krwd3k4xqx",649,"11.csv","","null","resources/images/coin2.png","null","",NA,NA,NA,NA,""
"image-keyboard-response",606,572441,"0.0-4.198-0.198","2k438krwd3k4xqx",649,"11.csv","","307.5999999977648","resources/trios/L1T2A3.jpg","39","restless",0.3,0.5,0.7,0.634216048991848,"true"
"image-keyboard-response",607,572847,"0.0-4.198-1.198","2k438krwd3k4xqx",649,"11.csv","","null","resources/maskTrios/BBA3.jpg","null","",NA,NA,NA,NA,""
"image-keyboard-response",608,574052,"0.0-4.198-2.198","2k438krwd3k4xqx",649,"11.csv","","null","resources/images/coin2.png","null","",NA,NA,NA,NA,""
"image-keyboard-response",609,574326,"0.0-4.199-0.199","2k438krwd3k4xqx",649,"11.csv","","272.80000000074506","resources/trios/L1T2A3.jpg","39","restless",0.4,0.5,0.7,0.56201001866857,"true"
"image-keyboard-response",610,574731,"0.0-4.199-1.199","2k438krwd3k4xqx",649,"11.csv","","null","resources/maskTrios/BBA3.jpg","null","",NA,NA,NA,NA,""
"image-keyboard-response",611,575942,"0.0-4.199-2.199","2k438krwd3k4xqx",649,"11.csv","","null","resources/images/coin2.png","null","",NA,NA,NA,NA,""
