"trial_type","trial_index","time_elapsed","internal_node_id","subject","participantCode","walkNumber","success","rt","stimulus","key_press","test_part","leftProb","midProb","rightProb","generatedNum","correct"
"pavlovia",0,1290,"0.0-0.0","fnc3hg8wq9kkbcj",309,"167.csv","","","","","",NA,NA,NA,NA,""
"fullscreen",1,3731,"0.0-1.0","fnc3hg8wq9kkbcj",309,"167.csv","true","","","","",NA,NA,NA,NA,""
"survey-html-form",2,18734,"0.0-2.0","fnc3hg8wq9kkbcj",309,"167.csv","","15002","","","",NA,NA,NA,NA,""
"image-keyboard-response",3,28100,"0.0-3.0-0.0","fnc3hg8wq9kkbcj",309,"167.csv","","9365.200000017881","resources/images/parrot_nobg.png","13","",NA,NA,NA,NA,""
"image-keyboard-response",4,31106,"0.0-3.0-1.0","fnc3hg8wq9kkbcj",309,"167.csv","","null","resources/image_sets/111.png","null","",NA,NA,NA,NA,""
"image-keyboard-response",5,54407,"0.0-3.0-2.0","fnc3hg8wq9kkbcj",309,"167.csv","","23299.30000001192","resources/image_sets/left_highlight.png","37","",NA,NA,NA,NA,""
"image-keyboard-response",6,63324,"0.0-3.0-3.0","fnc3hg8wq9kkbcj",309,"167.csv","","8915.09999999404","resources/image_sets/mid_highlight.png","38","",NA,NA,NA,NA,""
"image-keyboard-response",7,64118,"0.0-3.0-4.0","fnc3hg8wq9kkbcj",309,"167.csv","","792.8999999761581","resources/image_sets/right_highlight.png","39","",NA,NA,NA,NA,""
"image-keyboard-response",8,65247,"0.0-3.0-5.0","fnc3hg8wq9kkbcj",309,"167.csv","","1127.7000000178814","resources/image_sets/111.png","13","",NA,NA,NA,NA,""
"image-keyboard-response",9,68167,"0.0-3.0-6.0","fnc3hg8wq9kkbcj",309,"167.csv","","2920","resources/images/coin2.png","13","",NA,NA,NA,NA,""
"image-keyboard-response",10,69356,"0.0-3.0-7.0","fnc3hg8wq9kkbcj",309,"167.csv","","1187.9000000059605","resources/images/fishbone.png","13","",NA,NA,NA,NA,""
"html-keyboard-response",11,73192,"0.0-3.0-8.0","fnc3hg8wq9kkbcj",309,"167.csv","","3835.9000000059605","<p>You can track your coin total on the top right of your screen. </p><p>At the end of your journey you will be directed to a survey, so please click on the link before exiting the task</p><p>Press Enter to begin</p>","13","",NA,NA,NA,NA,""
"image-keyboard-response",12,75185,"0.0-4.0-0.0","fnc3hg8wq9kkbcj",309,"167.csv","","1991.3999999761581","resources/trios/L1T4A3.jpg","39","restless",0.9,0.3,0.7,0.693769222706646,"true"
"image-keyboard-response",13,75603,"0.0-4.0-1.0","fnc3hg8wq9kkbcj",309,"167.csv","","null","resources/maskTrios/BBA3.jpg","null","",NA,NA,NA,NA,""
"image-keyboard-response",14,76809,"0.0-4.0-2.0","fnc3hg8wq9kkbcj",309,"167.csv","","null","resources/images/coin2.png","null","",NA,NA,NA,NA,""
"image-keyboard-response",15,77482,"0.0-4.1-0.1","fnc3hg8wq9kkbcj",309,"167.csv","","670.9000000059605","resources/trios/L1T4A3.jpg","39","restless",0.9,0.3,0.8,0.213718837797026,"true"
"image-keyboard-response",16,77889,"0.0-4.1-1.1","fnc3hg8wq9kkbcj",309,"167.csv","","null","resources/maskTrios/BBA3.jpg","null","",NA,NA,NA,NA,""
"image-keyboard-response",17,79105,"0.0-4.1-2.1","fnc3hg8wq9kkbcj",309,"167.csv","","null","resources/images/coin2.png","null","",NA,NA,NA,NA,""
"image-keyboard-response",18,84125,"0.0-4.2-0.2","fnc3hg8wq9kkbcj",309,"167.csv","","5018.4000000059605","resources/trios/L1T4A3.jpg","39","restless",0.9,0.3,0.8,0.952395752284695,"false"
"image-keyboard-response",19,84536,"0.0-4.2-1.2","fnc3hg8wq9kkbcj",309,"167.csv","","null","resources/maskTrios/BBA3.jpg","null","",NA,NA,NA,NA,""
"image-keyboard-response",20,85747,"0.0-4.2-2.2","fnc3hg8wq9kkbcj",309,"167.csv","","null","resources/images/fishbone.png","null","",NA,NA,NA,NA,""
"image-keyboard-response",21,86149,"0.0-4.3-0.3","fnc3hg8wq9kkbcj",309,"167.csv","","400.7999999821186","resources/trios/L1T4A3.jpg","38","restless",0.9,0.3,0.8,0.558361243427528,"false"
"image-keyboard-response",22,86554,"0.0-4.3-1.3","fnc3hg8wq9kkbcj",309,"167.csv","","null","resources/maskTrios/BT4B.jpg","null","",NA,NA,NA,NA,""
"image-keyboard-response",23,87759,"0.0-4.3-2.3","fnc3hg8wq9kkbcj",309,"167.csv","","null","resources/images/fishbone.png","null","",NA,NA,NA,NA,""
"image-keyboard-response",24,88445,"0.0-4.4-0.4","fnc3hg8wq9kkbcj",309,"167.csv","","684.9000000059605","resources/trios/L1T4A3.jpg","38","restless",0.8,0.3,0.8,0.102347315517242,"true"
"image-keyboard-response",25,88856,"0.0-4.4-1.4","fnc3hg8wq9kkbcj",309,"167.csv","","null","resources/maskTrios/BT4B.jpg","null","",NA,NA,NA,NA,""
"image-keyboard-response",26,90073,"0.0-4.4-2.4","fnc3hg8wq9kkbcj",309,"167.csv","","null","resources/images/coin2.png","null","",NA,NA,NA,NA,""
"image-keyboard-response",27,90687,"0.0-4.5-0.5","fnc3hg8wq9kkbcj",309,"167.csv","","612.0999999940395","resources/trios/L1T4A3.jpg","38","restless",0.8,0.4,0.8,0.378393243555765,"true"
"image-keyboard-response",28,91096,"0.0-4.5-1.5","fnc3hg8wq9kkbcj",309,"167.csv","","null","resources/maskTrios/BT4B.jpg","null","",NA,NA,NA,NA,""
"image-keyboard-response",29,92311,"0.0-4.5-2.5","fnc3hg8wq9kkbcj",309,"167.csv","","null","resources/images/coin2.png","null","",NA,NA,NA,NA,""
"image-keyboard-response",30,92691,"0.0-4.6-0.6","fnc3hg8wq9kkbcj",309,"167.csv","","377.90000000596046","resources/trios/L1T4A3.jpg","37","restless",0.8,0.4,0.8,0.201960052314316,"true"
"image-keyboard-response",31,93100,"0.0-4.6-1.6","fnc3hg8wq9kkbcj",309,"167.csv","","null","resources/maskTrios/L1BB.jpg","null","",NA,NA,NA,NA,""
"image-keyboard-response",32,94308,"0.0-4.6-2.6","fnc3hg8wq9kkbcj",309,"167.csv","","null","resources/images/coin2.png","null","",NA,NA,NA,NA,""
"image-keyboard-response",33,94523,"0.0-4.7-0.7","fnc3hg8wq9kkbcj",309,"167.csv","","214.5","resources/trios/L1T4A3.jpg","37","restless",0.7,0.4,0.8,0.0905811995446404,"true"
"image-keyboard-response",34,94929,"0.0-4.7-1.7","fnc3hg8wq9kkbcj",309,"167.csv","","null","resources/maskTrios/L1BB.jpg","null","",NA,NA,NA,NA,""
"image-keyboard-response",35,96134,"0.0-4.7-2.7","fnc3hg8wq9kkbcj",309,"167.csv","","null","resources/images/coin2.png","null","",NA,NA,NA,NA,""
"image-keyboard-response",36,96357,"0.0-4.8-0.8","fnc3hg8wq9kkbcj",309,"167.csv","","220.7999999821186","resources/trios/L1T4A3.jpg","39","restless",0.7,0.3,0.8,0.731221041979395,"true"
"image-keyboard-response",37,96770,"0.0-4.8-1.8","fnc3hg8wq9kkbcj",309,"167.csv","","null","resources/maskTrios/BBA3.jpg","null","",NA,NA,NA,NA,""
"image-keyboard-response",38,97987,"0.0-4.8-2.8","fnc3hg8wq9kkbcj",309,"167.csv","","null","resources/images/coin2.png","null","",NA,NA,NA,NA,""
"image-keyboard-response",39,98250,"0.0-4.9-0.9","fnc3hg8wq9kkbcj",309,"167.csv","","261","resources/trios/L1T4A3.jpg","39","restless",0.6,0.3,0.8,0.174518153773602,"true"
"image-keyboard-response",40,98654,"0.0-4.9-1.9","fnc3hg8wq9kkbcj",309,"167.csv","","null","resources/maskTrios/BBA3.jpg","null","",NA,NA,NA,NA,""
"image-keyboard-response",41,99872,"0.0-4.9-2.9","fnc3hg8wq9kkbcj",309,"167.csv","","null","resources/images/coin2.png","null","",NA,NA,NA,NA,""
"image-keyboard-response",42,100094,"0.0-4.10-0.10","fnc3hg8wq9kkbcj",309,"167.csv","","221","resources/trios/L1T4A3.jpg","38","restless",0.6,0.3,0.8,0.0782609460274839,"true"
"image-keyboard-response",43,100508,"0.0-4.10-1.10","fnc3hg8wq9kkbcj",309,"167.csv","","null","resources/maskTrios/BT4B.jpg","null","",NA,NA,NA,NA,""
"image-keyboard-response",44,101726,"0.0-4.10-2.10","fnc3hg8wq9kkbcj",309,"167.csv","","null","resources/images/coin2.png","null","",NA,NA,NA,NA,""
"image-keyboard-response",45,101972,"0.0-4.11-0.11","fnc3hg8wq9kkbcj",309,"167.csv","","244.59999999403954","resources/trios/L1T4A3.jpg","38","restless",0.6,0.3,0.8,0.0665462732226432,"true"
"image-keyboard-response",46,102376,"0.0-4.11-1.11","fnc3hg8wq9kkbcj",309,"167.csv","","null","resources/maskTrios/BT4B.jpg","null","",NA,NA,NA,NA,""
"image-keyboard-response",47,103594,"0.0-4.11-2.11","fnc3hg8wq9kkbcj",309,"167.csv","","null","resources/images/coin2.png","null","",NA,NA,NA,NA,""
"image-keyboard-response",48,103793,"0.0-4.12-0.12","fnc3hg8wq9kkbcj",309,"167.csv","","197.59999999403954","resources/trios/L1T4A3.jpg","37","restless",0.6,0.3,0.8,0.687150230659204,"false"
"image-keyboard-response",49,104199,"0.0-4.12-1.12","fnc3hg8wq9kkbcj",309,"167.csv","","null","resources/maskTrios/L1BB.jpg","null","",NA,NA,NA,NA,""
"image-keyboard-response",50,105408,"0.0-4.12-2.12","fnc3hg8wq9kkbcj",309,"167.csv","","null","resources/images/fishbone.png","null","",NA,NA,NA,NA,""
"image-keyboard-response",51,105583,"0.0-4.13-0.13","fnc3hg8wq9kkbcj",309,"167.csv","","173.59999999403954","resources/trios/L1T4A3.jpg","37","restless",0.6,0.3,0.8,0.555152166691864,"true"
"image-keyboard-response",52,105999,"0.0-4.13-1.13","fnc3hg8wq9kkbcj",309,"167.csv","","null","resources/maskTrios/L1BB.jpg","null","",NA,NA,NA,NA,""
"image-keyboard-response",53,107205,"0.0-4.13-2.13","fnc3hg8wq9kkbcj",309,"167.csv","","null","resources/images/coin2.png","null","",NA,NA,NA,NA,""
"image-keyboard-response",54,107451,"0.0-4.14-0.14","fnc3hg8wq9kkbcj",309,"167.csv","","244.5","resources/trios/L1T4A3.jpg","37","restless",0.6,0.3,0.8,0.995422472064904,"false"
"image-keyboard-response",55,107855,"0.0-4.14-1.14","fnc3hg8wq9kkbcj",309,"167.csv","","null","resources/maskTrios/L1BB.jpg","null","",NA,NA,NA,NA,""
"image-keyboard-response",56,109073,"0.0-4.14-2.14","fnc3hg8wq9kkbcj",309,"167.csv","","null","resources/images/fishbone.png","null","",NA,NA,NA,NA,""
"image-keyboard-response",57,109420,"0.0-4.15-0.15","fnc3hg8wq9kkbcj",309,"167.csv","","344.59999999403954","resources/trios/L1T4A3.jpg","39","restless",0.6,0.3,0.8,0.245560002020167,"true"
"image-keyboard-response",58,109836,"0.0-4.15-1.15","fnc3hg8wq9kkbcj",309,"167.csv","","null","resources/maskTrios/BBA3.jpg","null","",NA,NA,NA,NA,""
"image-keyboard-response",59,111043,"0.0-4.15-2.15","fnc3hg8wq9kkbcj",309,"167.csv","","null","resources/images/coin2.png","null","",NA,NA,NA,NA,""
"image-keyboard-response",60,111264,"0.0-4.16-0.16","fnc3hg8wq9kkbcj",309,"167.csv","","219.59999999403954","resources/trios/L1T4A3.jpg","38","restless",0.6,0.3,0.8,0.510184618514863,"false"
"image-keyboard-response",61,111682,"0.0-4.16-1.16","fnc3hg8wq9kkbcj",309,"167.csv","","null","resources/maskTrios/BT4B.jpg","null","",NA,NA,NA,NA,""
"image-keyboard-response",62,112893,"0.0-4.16-2.16","fnc3hg8wq9kkbcj",309,"167.csv","","null","resources/images/fishbone.png","null","",NA,NA,NA,NA,""
"image-keyboard-response",63,112963,"0.0-4.17-0.17","fnc3hg8wq9kkbcj",309,"167.csv","","67.90000000596046","resources/trios/L1T4A3.jpg","38","restless",0.6,0.3,0.8,0.252241263535523,"true"
"image-keyboard-response",64,113372,"0.0-4.17-1.17","fnc3hg8wq9kkbcj",309,"167.csv","","null","resources/maskTrios/BT4B.jpg","null","",NA,NA,NA,NA,""
"image-keyboard-response",65,114582,"0.0-4.17-2.17","fnc3hg8wq9kkbcj",309,"167.csv","","null","resources/images/coin2.png","null","",NA,NA,NA,NA,""
"image-keyboard-response",66,114728,"0.0-4.18-0.18","fnc3hg8wq9kkbcj",309,"167.csv","","144.80000001192093","resources/trios/L1T4A3.jpg","37","restless",0.5,0.3,0.8,0.989777236094427,"false"
"image-keyboard-response",67,115143,"0.0-4.18-1.18","fnc3hg8wq9kkbcj",309,"167.csv","","null","resources/maskTrios/L1BB.jpg","null","",NA,NA,NA,NA,""
"image-keyboard-response",68,116348,"0.0-4.18-2.18","fnc3hg8wq9kkbcj",309,"167.csv","","null","resources/images/fishbone.png","null","",NA,NA,NA,NA,""
"image-keyboard-response",69,116549,"0.0-4.19-0.19","fnc3hg8wq9kkbcj",309,"167.csv","","200","resources/trios/L1T4A3.jpg","37","restless",0.5,0.3,0.8,0.875307555171335,"false"
"image-keyboard-response",70,116951,"0.0-4.19-1.19","fnc3hg8wq9kkbcj",309,"167.csv","","null","resources/maskTrios/L1BB.jpg","null","",NA,NA,NA,NA,""
"image-keyboard-response",71,118163,"0.0-4.19-2.19","fnc3hg8wq9kkbcj",309,"167.csv","","null","resources/images/fishbone.png","null","",NA,NA,NA,NA,""
"image-keyboard-response",72,118407,"0.0-4.20-0.20","fnc3hg8wq9kkbcj",309,"167.csv","","241.80000001192093","resources/trios/L1T4A3.jpg","37","restless",0.5,0.3,0.8,0.31705917069548,"true"
"image-keyboard-response",73,118810,"0.0-4.20-1.20","fnc3hg8wq9kkbcj",309,"167.csv","","null","resources/maskTrios/L1BB.jpg","null","",NA,NA,NA,NA,""
"image-keyboard-response",74,120016,"0.0-4.20-2.20","fnc3hg8wq9kkbcj",309,"167.csv","","null","resources/images/coin2.png","null","",NA,NA,NA,NA,""
"image-keyboard-response",75,120238,"0.0-4.21-0.21","fnc3hg8wq9kkbcj",309,"167.csv","","220","resources/trios/L1T4A3.jpg","38","restless",0.5,0.2,0.7,0.999898869584927,"false"
"image-keyboard-response",76,120653,"0.0-4.21-1.21","fnc3hg8wq9kkbcj",309,"167.csv","","null","resources/maskTrios/BT4B.jpg","null","",NA,NA,NA,NA,""
"image-keyboard-response",77,121868,"0.0-4.21-2.21","fnc3hg8wq9kkbcj",309,"167.csv","","null","resources/images/fishbone.png","null","",NA,NA,NA,NA,""
"image-keyboard-response",78,121991,"0.0-4.22-0.22","fnc3hg8wq9kkbcj",309,"167.csv","","120.5","resources/trios/L1T4A3.jpg","37","restless",0.4,0.3,0.7,0.192714011936126,"true"
"image-keyboard-response",79,122397,"0.0-4.22-1.22","fnc3hg8wq9kkbcj",309,"167.csv","","null","resources/maskTrios/L1BB.jpg","null","",NA,NA,NA,NA,""
"image-keyboard-response",80,123601,"0.0-4.22-2.22","fnc3hg8wq9kkbcj",309,"167.csv","","null","resources/images/coin2.png","null","",NA,NA,NA,NA,""
"image-keyboard-response",81,123904,"0.0-4.23-0.23","fnc3hg8wq9kkbcj",309,"167.csv","","301.30000001192093","resources/trios/L1T4A3.jpg","39","restless",0.4,0.3,0.7,0.921827300504793,"false"
"image-keyboard-response",82,124312,"0.0-4.23-1.23","fnc3hg8wq9kkbcj",309,"167.csv","","null","resources/maskTrios/BBA3.jpg","null","",NA,NA,NA,NA,""
"image-keyboard-response",83,125521,"0.0-4.23-2.23","fnc3hg8wq9kkbcj",309,"167.csv","","null","resources/images/fishbone.png","null","",NA,NA,NA,NA,""
"image-keyboard-response",84,125772,"0.0-4.24-0.24","fnc3hg8wq9kkbcj",309,"167.csv","","249.5","resources/trios/L1T4A3.jpg","39","restless",0.4,0.2,0.7,0.0630572927809614,"true"
"image-keyboard-response",85,126185,"0.0-4.24-1.24","fnc3hg8wq9kkbcj",309,"167.csv","","null","resources/maskTrios/BBA3.jpg","null","",NA,NA,NA,NA,""
"image-keyboard-response",86,127395,"0.0-4.24-2.24","fnc3hg8wq9kkbcj",309,"167.csv","","null","resources/images/coin2.png","null","",NA,NA,NA,NA,""
"image-keyboard-response",87,127709,"0.0-4.25-0.25","fnc3hg8wq9kkbcj",309,"167.csv","","312.09999999403954","resources/trios/L1T4A3.jpg","38","restless",0.4,0.2,0.7,0.969256825533164,"false"
"image-keyboard-response",88,128122,"0.0-4.25-1.25","fnc3hg8wq9kkbcj",309,"167.csv","","null","resources/maskTrios/BT4B.jpg","null","",NA,NA,NA,NA,""
"image-keyboard-response",89,129337,"0.0-4.25-2.25","fnc3hg8wq9kkbcj",309,"167.csv","","null","resources/images/fishbone.png","null","",NA,NA,NA,NA,""
"image-keyboard-response",90,129724,"0.0-4.26-0.26","fnc3hg8wq9kkbcj",309,"167.csv","","386.5","resources/trios/L1T4A3.jpg","38","restless",0.4,0.2,0.7,0.034954032932182,"true"
"image-keyboard-response",91,130138,"0.0-4.26-1.26","fnc3hg8wq9kkbcj",309,"167.csv","","null","resources/maskTrios/BT4B.jpg","null","",NA,NA,NA,NA,""
"image-keyboard-response",92,131347,"0.0-4.26-2.26","fnc3hg8wq9kkbcj",309,"167.csv","","null","resources/images/coin2.png","null","",NA,NA,NA,NA,""
"image-keyboard-response",93,132166,"0.0-4.27-0.27","fnc3hg8wq9kkbcj",309,"167.csv","","818.5","resources/trios/L1T4A3.jpg","37","restless",0.4,0.2,0.7,0.268476423762975,"true"
"image-keyboard-response",94,132570,"0.0-4.27-1.27","fnc3hg8wq9kkbcj",309,"167.csv","","null","resources/maskTrios/L1BB.jpg","null","",NA,NA,NA,NA,""
"image-keyboard-response",95,133775,"0.0-4.27-2.27","fnc3hg8wq9kkbcj",309,"167.csv","","null","resources/images/coin2.png","null","",NA,NA,NA,NA,""
"image-keyboard-response",96,134510,"0.0-4.28-0.28","fnc3hg8wq9kkbcj",309,"167.csv","","732.7000000178814","resources/trios/L1T4A3.jpg","37","restless",0.5,0.2,0.7,0.624388171405146,"false"
"image-keyboard-response",97,134918,"0.0-4.28-1.28","fnc3hg8wq9kkbcj",309,"167.csv","","null","resources/maskTrios/L1BB.jpg","null","",NA,NA,NA,NA,""
"image-keyboard-response",98,136126,"0.0-4.28-2.28","fnc3hg8wq9kkbcj",309,"167.csv","","null","resources/images/fishbone.png","null","",NA,NA,NA,NA,""
"image-keyboard-response",99,137147,"0.0-4.29-0.29","fnc3hg8wq9kkbcj",309,"167.csv","","1019.3000000119209","resources/trios/L1T4A3.jpg","39","restless",0.4,0.2,0.7,0.955768032712163,"false"
"image-keyboard-response",100,137552,"0.0-4.29-1.29","fnc3hg8wq9kkbcj",309,"167.csv","","null","resources/maskTrios/BBA3.jpg","null","",NA,NA,NA,NA,""
"image-keyboard-response",101,138761,"0.0-4.29-2.29","fnc3hg8wq9kkbcj",309,"167.csv","","null","resources/images/fishbone.png","null","",NA,NA,NA,NA,""
"image-keyboard-response",102,139545,"0.0-4.30-0.30","fnc3hg8wq9kkbcj",309,"167.csv","","782.5999999940395","resources/trios/L1T4A3.jpg","38","restless",0.4,0.2,0.8,0.359851177045409,"false"
"image-keyboard-response",103,139949,"0.0-4.30-1.30","fnc3hg8wq9kkbcj",309,"167.csv","","null","resources/maskTrios/BT4B.jpg","null","",NA,NA,NA,NA,""
"image-keyboard-response",104,141154,"0.0-4.30-2.30","fnc3hg8wq9kkbcj",309,"167.csv","","null","resources/images/fishbone.png","null","",NA,NA,NA,NA,""
"image-keyboard-response",105,141458,"0.0-4.31-0.31","fnc3hg8wq9kkbcj",309,"167.csv","","301.5","resources/trios/L1T4A3.jpg","38","restless",0.4,0.2,0.8,0.665499599131965,"false"
"image-keyboard-response",106,141864,"0.0-4.31-1.31","fnc3hg8wq9kkbcj",309,"167.csv","","null","resources/maskTrios/BT4B.jpg","null","",NA,NA,NA,NA,""
"image-keyboard-response",107,143069,"0.0-4.31-2.31","fnc3hg8wq9kkbcj",309,"167.csv","","null","resources/images/fishbone.png","null","",NA,NA,NA,NA,""
"image-keyboard-response",108,143473,"0.0-4.32-0.32","fnc3hg8wq9kkbcj",309,"167.csv","","402.09999999403954","resources/trios/L1T4A3.jpg","38","restless",0.3,0.2,0.8,0.260315859694815,"false"
"image-keyboard-response",109,143888,"0.0-4.32-1.32","fnc3hg8wq9kkbcj",309,"167.csv","","null","resources/maskTrios/BT4B.jpg","null","",NA,NA,NA,NA,""
"image-keyboard-response",110,145096,"0.0-4.32-2.32","fnc3hg8wq9kkbcj",309,"167.csv","","null","resources/images/fishbone.png","null","",NA,NA,NA,NA,""
"image-keyboard-response",111,146121,"0.0-4.33-0.33","fnc3hg8wq9kkbcj",309,"167.csv","","1023.5999999940395","resources/trios/L1T4A3.jpg","38","restless",0.3,0.2,0.7,0.559094377135132,"false"
"image-keyboard-response",112,146523,"0.0-4.33-1.33","fnc3hg8wq9kkbcj",309,"167.csv","","null","resources/maskTrios/BT4B.jpg","null","",NA,NA,NA,NA,""
"image-keyboard-response",113,147730,"0.0-4.33-2.33","fnc3hg8wq9kkbcj",309,"167.csv","","null","resources/images/fishbone.png","null","",NA,NA,NA,NA,""
"image-keyboard-response",114,148714,"0.0-4.34-0.34","fnc3hg8wq9kkbcj",309,"167.csv","","981.3999999761581","resources/trios/L1T4A3.jpg","39","restless",0.2,0.2,0.7,0.954233417994619,"false"
"image-keyboard-response",115,149124,"0.0-4.34-1.34","fnc3hg8wq9kkbcj",309,"167.csv","","null","resources/maskTrios/BBA3.jpg","null","",NA,NA,NA,NA,""
"image-keyboard-response",116,150327,"0.0-4.34-2.34","fnc3hg8wq9kkbcj",309,"167.csv","","null","resources/images/fishbone.png","null","",NA,NA,NA,NA,""
"image-keyboard-response",117,153377,"0.0-4.35-0.35","fnc3hg8wq9kkbcj",309,"167.csv","","3048.2000000178814","resources/trios/L1T4A3.jpg","37","restless",0.2,0.2,0.7,0.509664380137294,"false"
"image-keyboard-response",118,153786,"0.0-4.35-1.35","fnc3hg8wq9kkbcj",309,"167.csv","","null","resources/maskTrios/L1BB.jpg","null","",NA,NA,NA,NA,""
"image-keyboard-response",119,154993,"0.0-4.35-2.35","fnc3hg8wq9kkbcj",309,"167.csv","","null","resources/images/fishbone.png","null","",NA,NA,NA,NA,""
"image-keyboard-response",120,155313,"0.0-4.36-0.36","fnc3hg8wq9kkbcj",309,"167.csv","","318.90000000596046","resources/trios/L1T4A3.jpg","37","restless",0.2,0.2,0.7,0.348947303608828,"false"
"image-keyboard-response",121,155722,"0.0-4.36-1.36","fnc3hg8wq9kkbcj",309,"167.csv","","null","resources/maskTrios/L1BB.jpg","null","",NA,NA,NA,NA,""
"image-keyboard-response",122,156925,"0.0-4.36-2.36","fnc3hg8wq9kkbcj",309,"167.csv","","null","resources/images/fishbone.png","null","",NA,NA,NA,NA,""
"image-keyboard-response",123,157620,"0.0-4.37-0.37","fnc3hg8wq9kkbcj",309,"167.csv","","693.1999999880791","resources/trios/L1T4A3.jpg","37","restless",0.2,0.2,0.7,0.850861124393301,"false"
"image-keyboard-response",124,158025,"0.0-4.37-1.37","fnc3hg8wq9kkbcj",309,"167.csv","","null","resources/maskTrios/L1BB.jpg","null","",NA,NA,NA,NA,""
"image-keyboard-response",125,159241,"0.0-4.37-2.37","fnc3hg8wq9kkbcj",309,"167.csv","","null","resources/images/fishbone.png","null","",NA,NA,NA,NA,""
"image-keyboard-response",126,159986,"0.0-4.38-0.38","fnc3hg8wq9kkbcj",309,"167.csv","","743.3000000119209","resources/trios/L1T4A3.jpg","38","restless",0.2,0.2,0.7,0.965870416108608,"false"
"image-keyboard-response",127,160401,"0.0-4.38-1.38","fnc3hg8wq9kkbcj",309,"167.csv","","null","resources/maskTrios/BT4B.jpg","null","",NA,NA,NA,NA,""
"image-keyboard-response",128,161606,"0.0-4.38-2.38","fnc3hg8wq9kkbcj",309,"167.csv","","null","resources/images/fishbone.png","null","",NA,NA,NA,NA,""
"image-keyboard-response",129,162227,"0.0-4.39-0.39","fnc3hg8wq9kkbcj",309,"167.csv","","619.3000000119209","resources/trios/L1T4A3.jpg","39","restless",0.3,0.2,0.7,0.818505208593709,"false"
"image-keyboard-response",130,162642,"0.0-4.39-1.39","fnc3hg8wq9kkbcj",309,"167.csv","","null","resources/maskTrios/BBA3.jpg","null","",NA,NA,NA,NA,""
"image-keyboard-response",131,163846,"0.0-4.39-2.39","fnc3hg8wq9kkbcj",309,"167.csv","","null","resources/images/fishbone.png","null","",NA,NA,NA,NA,""
"image-keyboard-response",132,164310,"0.0-4.40-0.40","fnc3hg8wq9kkbcj",309,"167.csv","","462.5","resources/trios/L1T4A3.jpg","39","restless",0.3,0.2,0.7,0.653880372535037,"true"
"image-keyboard-response",133,164726,"0.0-4.40-1.40","fnc3hg8wq9kkbcj",309,"167.csv","","null","resources/maskTrios/BBA3.jpg","null","",NA,NA,NA,NA,""
"image-keyboard-response",134,165930,"0.0-4.40-2.40","fnc3hg8wq9kkbcj",309,"167.csv","","null","resources/images/coin2.png","null","",NA,NA,NA,NA,""
"image-keyboard-response",135,167853,"0.0-4.41-0.41","fnc3hg8wq9kkbcj",309,"167.csv","","1921.800000011921","resources/trios/L1T4A3.jpg","38","restless",0.3,0.1,0.7,0.988365188077412,"false"
"image-keyboard-response",136,168262,"0.0-4.41-1.41","fnc3hg8wq9kkbcj",309,"167.csv","","null","resources/maskTrios/BT4B.jpg","null","",NA,NA,NA,NA,""
"image-keyboard-response",137,169468,"0.0-4.41-2.41","fnc3hg8wq9kkbcj",309,"167.csv","","null","resources/images/fishbone.png","null","",NA,NA,NA,NA,""
"image-keyboard-response",138,170038,"0.0-4.42-0.42","fnc3hg8wq9kkbcj",309,"167.csv","","568.1999999880791","resources/trios/L1T4A3.jpg","38","restless",0.3,0.1,0.8,0.924313088569964,"false"
"image-keyboard-response",139,170442,"0.0-4.42-1.42","fnc3hg8wq9kkbcj",309,"167.csv","","null","resources/maskTrios/BT4B.jpg","null","",NA,NA,NA,NA,""
"image-keyboard-response",140,171647,"0.0-4.42-2.42","fnc3hg8wq9kkbcj",309,"167.csv","","null","resources/images/fishbone.png","null","",NA,NA,NA,NA,""
"image-keyboard-response",141,171882,"0.0-4.43-0.43","fnc3hg8wq9kkbcj",309,"167.csv","","233","resources/trios/L1T4A3.jpg","38","restless",0.4,0.1,0.8,0.639483845497282,"false"
"image-keyboard-response",142,172297,"0.0-4.43-1.43","fnc3hg8wq9kkbcj",309,"167.csv","","null","resources/maskTrios/BT4B.jpg","null","",NA,NA,NA,NA,""
"image-keyboard-response",143,173506,"0.0-4.43-2.43","fnc3hg8wq9kkbcj",309,"167.csv","","null","resources/images/fishbone.png","null","",NA,NA,NA,NA,""
"image-keyboard-response",144,174010,"0.0-4.44-0.44","fnc3hg8wq9kkbcj",309,"167.csv","","501.90000000596046","resources/trios/L1T4A3.jpg","38","restless",0.4,0.1,0.8,0.199214248221281,"false"
"image-keyboard-response",145,174423,"0.0-4.44-1.44","fnc3hg8wq9kkbcj",309,"167.csv","","null","resources/maskTrios/BT4B.jpg","null","",NA,NA,NA,NA,""
"image-keyboard-response",146,175625,"0.0-4.44-2.44","fnc3hg8wq9kkbcj",309,"167.csv","","null","resources/images/fishbone.png","null","",NA,NA,NA,NA,""
"image-keyboard-response",147,175651,"0.0-4.45-0.45","fnc3hg8wq9kkbcj",309,"167.csv","","24.599999994039536","resources/trios/L1T4A3.jpg","37","restless",0.4,0.1,0.7,0.689110194388372,"false"
"image-keyboard-response",148,176059,"0.0-4.45-1.45","fnc3hg8wq9kkbcj",309,"167.csv","","null","resources/maskTrios/L1BB.jpg","null","",NA,NA,NA,NA,""
"image-keyboard-response",149,177274,"0.0-4.45-2.45","fnc3hg8wq9kkbcj",309,"167.csv","","null","resources/images/fishbone.png","null","",NA,NA,NA,NA,""
"image-keyboard-response",150,177419,"0.0-4.46-0.46","fnc3hg8wq9kkbcj",309,"167.csv","","142.39999997615814","resources/trios/L1T4A3.jpg","39","restless",0.4,0.1,0.7,0.962292268173888,"false"
"image-keyboard-response",151,177831,"0.0-4.46-1.46","fnc3hg8wq9kkbcj",309,"167.csv","","null","resources/maskTrios/BBA3.jpg","null","",NA,NA,NA,NA,""
"image-keyboard-response",152,179040,"0.0-4.46-2.46","fnc3hg8wq9kkbcj",309,"167.csv","","null","resources/images/fishbone.png","null","",NA,NA,NA,NA,""
"image-keyboard-response",153,179241,"0.0-4.47-0.47","fnc3hg8wq9kkbcj",309,"167.csv","","199.40000000596046","resources/trios/L1T4A3.jpg","39","restless",0.4,0.1,0.7,0.122269821123224,"true"
"image-keyboard-response",154,179643,"0.0-4.47-1.47","fnc3hg8wq9kkbcj",309,"167.csv","","null","resources/maskTrios/BBA3.jpg","null","",NA,NA,NA,NA,""
"image-keyboard-response",155,180855,"0.0-4.47-2.47","fnc3hg8wq9kkbcj",309,"167.csv","","null","resources/images/coin2.png","null","",NA,NA,NA,NA,""
"image-keyboard-response",156,181085,"0.0-4.48-0.48","fnc3hg8wq9kkbcj",309,"167.csv","","228.5","resources/trios/L1T4A3.jpg","39","restless",0.4,0.1,0.7,0.527374774494285,"true"
"image-keyboard-response",157,181492,"0.0-4.48-1.48","fnc3hg8wq9kkbcj",309,"167.csv","","null","resources/maskTrios/BBA3.jpg","null","",NA,NA,NA,NA,""
"image-keyboard-response",158,182701,"0.0-4.48-2.48","fnc3hg8wq9kkbcj",309,"167.csv","","null","resources/images/coin2.png","null","",NA,NA,NA,NA,""
"image-keyboard-response",159,182839,"0.0-4.49-0.49","fnc3hg8wq9kkbcj",309,"167.csv","","136.19999998807907","resources/trios/L1T4A3.jpg","38","restless",0.4,0.1,0.7,0.00541744968756919,"true"
"image-keyboard-response",160,183244,"0.0-4.49-1.49","fnc3hg8wq9kkbcj",309,"167.csv","","null","resources/maskTrios/BT4B.jpg","null","",NA,NA,NA,NA,""
"image-keyboard-response",161,184449,"0.0-4.49-2.49","fnc3hg8wq9kkbcj",309,"167.csv","","null","resources/images/coin2.png","null","",NA,NA,NA,NA,""
"image-keyboard-response",162,184661,"0.0-4.50-0.50","fnc3hg8wq9kkbcj",309,"167.csv","","210.09999999403954","resources/trios/L1T4A3.jpg","38","restless",0.4,0.1,0.7,0.89184787956684,"false"
"image-keyboard-response",163,185068,"0.0-4.50-1.50","fnc3hg8wq9kkbcj",309,"167.csv","","null","resources/maskTrios/BT4B.jpg","null","",NA,NA,NA,NA,""
"image-keyboard-response",164,186285,"0.0-4.50-2.50","fnc3hg8wq9kkbcj",309,"167.csv","","null","resources/images/fishbone.png","null","",NA,NA,NA,NA,""
"image-keyboard-response",165,186505,"0.0-4.51-0.51","fnc3hg8wq9kkbcj",309,"167.csv","","217.7999999821186","resources/trios/L1T4A3.jpg","37","restless",0.4,0.1,0.7,0.987790830290447,"false"
"image-keyboard-response",166,186922,"0.0-4.51-1.51","fnc3hg8wq9kkbcj",309,"167.csv","","null","resources/maskTrios/L1BB.jpg","null","",NA,NA,NA,NA,""
"image-keyboard-response",167,188132,"0.0-4.51-2.51","fnc3hg8wq9kkbcj",309,"167.csv","","null","resources/images/fishbone.png","null","",NA,NA,NA,NA,""
"image-keyboard-response",168,188294,"0.0-4.52-0.52","fnc3hg8wq9kkbcj",309,"167.csv","","159.69999998807907","resources/trios/L1T4A3.jpg","37","restless",0.4,0.1,0.8,0.771973871134171,"false"
"image-keyboard-response",169,188708,"0.0-4.52-1.52","fnc3hg8wq9kkbcj",309,"167.csv","","null","resources/maskTrios/L1BB.jpg","null","",NA,NA,NA,NA,""
"image-keyboard-response",170,189918,"0.0-4.52-2.52","fnc3hg8wq9kkbcj",309,"167.csv","","null","resources/images/fishbone.png","null","",NA,NA,NA,NA,""
"image-keyboard-response",171,190081,"0.0-4.53-0.53","fnc3hg8wq9kkbcj",309,"167.csv","","161.59999999403954","resources/trios/L1T4A3.jpg","38","restless",0.4,0.1,0.8,0.43323702563943,"false"
"image-keyboard-response",172,190493,"0.0-4.53-1.53","fnc3hg8wq9kkbcj",309,"167.csv","","null","resources/maskTrios/BT4B.jpg","null","",NA,NA,NA,NA,""
"image-keyboard-response",173,191699,"0.0-4.53-2.53","fnc3hg8wq9kkbcj",309,"167.csv","","null","resources/images/fishbone.png","null","",NA,NA,NA,NA,""
"image-keyboard-response",174,191766,"0.0-4.54-0.54","fnc3hg8wq9kkbcj",309,"167.csv","","64.80000001192093","resources/trios/L1T4A3.jpg","37","restless",0.4,0.1,0.8,0.329175032775011,"true"
"image-keyboard-response",175,192178,"0.0-4.54-1.54","fnc3hg8wq9kkbcj",309,"167.csv","","null","resources/maskTrios/L1BB.jpg","null","",NA,NA,NA,NA,""
"image-keyboard-response",176,193385,"0.0-4.54-2.54","fnc3hg8wq9kkbcj",309,"167.csv","","null","resources/images/coin2.png","null","",NA,NA,NA,NA,""
"image-keyboard-response",177,193544,"0.0-4.55-0.55","fnc3hg8wq9kkbcj",309,"167.csv","","156.90000000596046","resources/trios/L1T4A3.jpg","39","restless",0.4,0.1,0.8,0.0785402269593956,"true"
"image-keyboard-response",178,193956,"0.0-4.55-1.55","fnc3hg8wq9kkbcj",309,"167.csv","","null","resources/maskTrios/BBA3.jpg","null","",NA,NA,NA,NA,""
"image-keyboard-response",179,195167,"0.0-4.55-2.55","fnc3hg8wq9kkbcj",309,"167.csv","","null","resources/images/coin2.png","null","",NA,NA,NA,NA,""
"image-keyboard-response",180,195220,"0.0-4.56-0.56","fnc3hg8wq9kkbcj",309,"167.csv","","50.900000005960464","resources/trios/L1T4A3.jpg","38","restless",0.4,0.1,0.8,0.801776643410877,"false"
"image-keyboard-response",181,195632,"0.0-4.56-1.56","fnc3hg8wq9kkbcj",309,"167.csv","","null","resources/maskTrios/BT4B.jpg","null","",NA,NA,NA,NA,""
"image-keyboard-response",182,196841,"0.0-4.56-2.56","fnc3hg8wq9kkbcj",309,"167.csv","","null","resources/images/fishbone.png","null","",NA,NA,NA,NA,""
"image-keyboard-response",183,197426,"0.0-4.57-0.57","fnc3hg8wq9kkbcj",309,"167.csv","","583.7000000178814","resources/trios/L1T4A3.jpg","37","restless",0.4,0.2,0.8,0.152046840789471,"true"
"image-keyboard-response",184,197831,"0.0-4.57-1.57","fnc3hg8wq9kkbcj",309,"167.csv","","null","resources/maskTrios/L1BB.jpg","null","",NA,NA,NA,NA,""
"image-keyboard-response",185,199034,"0.0-4.57-2.57","fnc3hg8wq9kkbcj",309,"167.csv","","null","resources/images/coin2.png","null","",NA,NA,NA,NA,""
"image-keyboard-response",186,199180,"0.0-4.58-0.58","fnc3hg8wq9kkbcj",309,"167.csv","","145","resources/trios/L1T4A3.jpg","39","restless",0.4,0.2,0.8,0.742753235921753,"true"
"image-keyboard-response",187,199594,"0.0-4.58-1.58","fnc3hg8wq9kkbcj",309,"167.csv","","null","resources/maskTrios/BBA3.jpg","null","",NA,NA,NA,NA,""
"image-keyboard-response",188,200798,"0.0-4.58-2.58","fnc3hg8wq9kkbcj",309,"167.csv","","null","resources/images/coin2.png","null","",NA,NA,NA,NA,""
"image-keyboard-response",189,201004,"0.0-4.59-0.59","fnc3hg8wq9kkbcj",309,"167.csv","","204.30000001192093","resources/trios/L1T4A3.jpg","37","restless",0.4,0.2,0.8,0.478861676342257,"false"
"image-keyboard-response",190,201415,"0.0-4.59-1.59","fnc3hg8wq9kkbcj",309,"167.csv","","null","resources/maskTrios/L1BB.jpg","null","",NA,NA,NA,NA,""
"image-keyboard-response",191,202616,"0.0-4.59-2.59","fnc3hg8wq9kkbcj",309,"167.csv","","null","resources/images/fishbone.png","null","",NA,NA,NA,NA,""
"image-keyboard-response",192,202826,"0.0-4.60-0.60","fnc3hg8wq9kkbcj",309,"167.csv","","208.60000002384186","resources/trios/L1T4A3.jpg","38","restless",0.3,0.2,0.8,0.828313846320101,"false"
"image-keyboard-response",193,203233,"0.0-4.60-1.60","fnc3hg8wq9kkbcj",309,"167.csv","","null","resources/maskTrios/BT4B.jpg","null","",NA,NA,NA,NA,""
"image-keyboard-response",194,204443,"0.0-4.60-2.60","fnc3hg8wq9kkbcj",309,"167.csv","","null","resources/images/fishbone.png","null","",NA,NA,NA,NA,""
"image-keyboard-response",195,204579,"0.0-4.61-0.61","fnc3hg8wq9kkbcj",309,"167.csv","","135.10000002384186","resources/trios/L1T4A3.jpg","37","restless",0.3,0.2,0.8,0.465622722488783,"false"
"image-keyboard-response",196,204985,"0.0-4.61-1.61","fnc3hg8wq9kkbcj",309,"167.csv","","null","resources/maskTrios/L1BB.jpg","null","",NA,NA,NA,NA,""
"image-keyboard-response",197,206198,"0.0-4.61-2.61","fnc3hg8wq9kkbcj",309,"167.csv","","null","resources/images/fishbone.png","null","",NA,NA,NA,NA,""
"image-keyboard-response",198,206255,"0.0-4.62-0.62","fnc3hg8wq9kkbcj",309,"167.csv","","56","resources/trios/L1T4A3.jpg","38","restless",0.3,0.2,0.8,0.624431285041363,"false"
"image-keyboard-response",199,206660,"0.0-4.62-1.62","fnc3hg8wq9kkbcj",309,"167.csv","","null","resources/maskTrios/BT4B.jpg","null","",NA,NA,NA,NA,""
"image-keyboard-response",200,207877,"0.0-4.62-2.62","fnc3hg8wq9kkbcj",309,"167.csv","","null","resources/images/fishbone.png","null","",NA,NA,NA,NA,""
"image-keyboard-response",201,207886,"0.0-4.63-0.63","fnc3hg8wq9kkbcj",309,"167.csv","","6.9000000059604645","resources/trios/L1T4A3.jpg","38","restless",0.3,0.2,0.8,0.958594728870012,"false"
"image-keyboard-response",202,208293,"0.0-4.63-1.63","fnc3hg8wq9kkbcj",309,"167.csv","","null","resources/maskTrios/BT4B.jpg","null","",NA,NA,NA,NA,""
"image-keyboard-response",203,209508,"0.0-4.63-2.63","fnc3hg8wq9kkbcj",309,"167.csv","","null","resources/images/fishbone.png","null","",NA,NA,NA,NA,""
"image-keyboard-response",204,209580,"0.0-4.64-0.64","fnc3hg8wq9kkbcj",309,"167.csv","","71.80000001192093","resources/trios/L1T4A3.jpg","37","restless",0.3,0.2,0.9,0.664030323599744,"false"
"image-keyboard-response",205,209985,"0.0-4.64-1.64","fnc3hg8wq9kkbcj",309,"167.csv","","null","resources/maskTrios/L1BB.jpg","null","",NA,NA,NA,NA,""
"image-keyboard-response",206,211189,"0.0-4.64-2.64","fnc3hg8wq9kkbcj",309,"167.csv","","null","resources/images/fishbone.png","null","",NA,NA,NA,NA,""
"image-keyboard-response",207,211677,"0.0-4.65-0.65","fnc3hg8wq9kkbcj",309,"167.csv","","486","resources/trios/L1T4A3.jpg","39","restless",0.3,0.2,0.9,0.548955730836314,"true"
"image-keyboard-response",208,212084,"0.0-4.65-1.65","fnc3hg8wq9kkbcj",309,"167.csv","","null","resources/maskTrios/BBA3.jpg","null","",NA,NA,NA,NA,""
"image-keyboard-response",209,213289,"0.0-4.65-2.65","fnc3hg8wq9kkbcj",309,"167.csv","","null","resources/images/coin2.png","null","",NA,NA,NA,NA,""
"image-keyboard-response",210,213577,"0.0-4.66-0.66","fnc3hg8wq9kkbcj",309,"167.csv","","285.80000001192093","resources/trios/L1T4A3.jpg","37","restless",0.3,0.2,0.9,0.990819811637852,"false"
"image-keyboard-response",211,213988,"0.0-4.66-1.66","fnc3hg8wq9kkbcj",309,"167.csv","","null","resources/maskTrios/L1BB.jpg","null","",NA,NA,NA,NA,""
"image-keyboard-response",212,215200,"0.0-4.66-2.66","fnc3hg8wq9kkbcj",309,"167.csv","","null","resources/images/fishbone.png","null","",NA,NA,NA,NA,""
"image-keyboard-response",213,215288,"0.0-4.67-0.67","fnc3hg8wq9kkbcj",309,"167.csv","","85.59999999403954","resources/trios/L1T4A3.jpg","39","restless",0.3,0.3,0.9,0.517337079384651,"true"
"image-keyboard-response",214,215694,"0.0-4.67-1.67","fnc3hg8wq9kkbcj",309,"167.csv","","null","resources/maskTrios/BBA3.jpg","null","",NA,NA,NA,NA,""
"image-keyboard-response",215,216897,"0.0-4.67-2.67","fnc3hg8wq9kkbcj",309,"167.csv","","null","resources/images/coin2.png","null","",NA,NA,NA,NA,""
"image-keyboard-response",216,217051,"0.0-4.68-0.68","fnc3hg8wq9kkbcj",309,"167.csv","","152.19999998807907","resources/trios/L1T4A3.jpg","39","restless",0.3,0.3,0.9,0.439162324226439,"true"
"image-keyboard-response",217,217468,"0.0-4.68-1.68","fnc3hg8wq9kkbcj",309,"167.csv","","null","resources/maskTrios/BBA3.jpg","null","",NA,NA,NA,NA,""
"image-keyboard-response",218,218675,"0.0-4.68-2.68","fnc3hg8wq9kkbcj",309,"167.csv","","null","resources/images/coin2.png","null","",NA,NA,NA,NA,""
"image-keyboard-response",219,218908,"0.0-4.69-0.69","fnc3hg8wq9kkbcj",309,"167.csv","","231.30000001192093","resources/trios/L1T4A3.jpg","39","restless",0.3,0.3,0.9,0.0573300118100515,"true"
"image-keyboard-response",220,219312,"0.0-4.69-1.69","fnc3hg8wq9kkbcj",309,"167.csv","","null","resources/maskTrios/BBA3.jpg","null","",NA,NA,NA,NA,""
"image-keyboard-response",221,220515,"0.0-4.69-2.69","fnc3hg8wq9kkbcj",309,"167.csv","","null","resources/images/coin2.png","null","",NA,NA,NA,NA,""
"image-keyboard-response",222,220764,"0.0-4.70-0.70","fnc3hg8wq9kkbcj",309,"167.csv","","247.2000000178814","resources/trios/L1T4A3.jpg","39","restless",0.3,0.3,0.9,0.665341826628649,"true"
"image-keyboard-response",223,221181,"0.0-4.70-1.70","fnc3hg8wq9kkbcj",309,"167.csv","","null","resources/maskTrios/BBA3.jpg","null","",NA,NA,NA,NA,""
"image-keyboard-response",224,222386,"0.0-4.70-2.70","fnc3hg8wq9kkbcj",309,"167.csv","","null","resources/images/coin2.png","null","",NA,NA,NA,NA,""
"image-keyboard-response",225,222609,"0.0-4.71-0.71","fnc3hg8wq9kkbcj",309,"167.csv","","222.19999998807907","resources/trios/L1T4A3.jpg","39","restless",0.3,0.3,0.9,0.870618712260065,"true"
"image-keyboard-response",226,223020,"0.0-4.71-1.71","fnc3hg8wq9kkbcj",309,"167.csv","","null","resources/maskTrios/BBA3.jpg","null","",NA,NA,NA,NA,""
"image-keyboard-response",227,224226,"0.0-4.71-2.71","fnc3hg8wq9kkbcj",309,"167.csv","","null","resources/images/coin2.png","null","",NA,NA,NA,NA,""
"image-keyboard-response",228,224273,"0.0-4.72-0.72","fnc3hg8wq9kkbcj",309,"167.csv","","45.79999998211861","resources/trios/L1T4A3.jpg","39","restless",0.4,0.3,0.9,0.723425655794218,"true"
"image-keyboard-response",229,224689,"0.0-4.72-1.72","fnc3hg8wq9kkbcj",309,"167.csv","","null","resources/maskTrios/BBA3.jpg","null","",NA,NA,NA,NA,""
"image-keyboard-response",230,225904,"0.0-4.72-2.72","fnc3hg8wq9kkbcj",309,"167.csv","","null","resources/images/coin2.png","null","",NA,NA,NA,NA,""
"image-keyboard-response",231,226062,"0.0-4.73-0.73","fnc3hg8wq9kkbcj",309,"167.csv","","156.59999999403954","resources/trios/L1T4A3.jpg","39","restless",0.4,0.3,0.9,0.147900699638068,"true"
"image-keyboard-response",232,226477,"0.0-4.73-1.73","fnc3hg8wq9kkbcj",309,"167.csv","","null","resources/maskTrios/BBA3.jpg","null","",NA,NA,NA,NA,""
"image-keyboard-response",233,227685,"0.0-4.73-2.73","fnc3hg8wq9kkbcj",309,"167.csv","","null","resources/images/coin2.png","null","",NA,NA,NA,NA,""
"image-keyboard-response",234,227907,"0.0-4.74-0.74","fnc3hg8wq9kkbcj",309,"167.csv","","221.19999998807907","resources/trios/L1T4A3.jpg","39","restless",0.4,0.3,0.8,0.985002753165773,"false"
"image-keyboard-response",235,228321,"0.0-4.74-1.74","fnc3hg8wq9kkbcj",309,"167.csv","","null","resources/maskTrios/BBA3.jpg","null","",NA,NA,NA,NA,""
"image-keyboard-response",236,229527,"0.0-4.74-2.74","fnc3hg8wq9kkbcj",309,"167.csv","","null","resources/images/fishbone.png","null","",NA,NA,NA,NA,""
"image-keyboard-response",237,229798,"0.0-4.75-0.75","fnc3hg8wq9kkbcj",309,"167.csv","","269.40000000596046","resources/trios/L1T4A3.jpg","38","restless",0.4,0.3,0.7,0.911151848502024,"false"
"image-keyboard-response",238,230213,"0.0-4.75-1.75","fnc3hg8wq9kkbcj",309,"167.csv","","null","resources/maskTrios/BT4B.jpg","null","",NA,NA,NA,NA,""
"image-keyboard-response",239,231419,"0.0-4.75-2.75","fnc3hg8wq9kkbcj",309,"167.csv","","null","resources/images/fishbone.png","null","",NA,NA,NA,NA,""
"image-keyboard-response",240,231821,"0.0-4.76-0.76","fnc3hg8wq9kkbcj",309,"167.csv","","399.7999999821186","resources/trios/L1T4A3.jpg","37","restless",0.4,0.3,0.7,0.612742910052081,"false"
"image-keyboard-response",241,232225,"0.0-4.76-1.76","fnc3hg8wq9kkbcj",309,"167.csv","","null","resources/maskTrios/L1BB.jpg","null","",NA,NA,NA,NA,""
"image-keyboard-response",242,233434,"0.0-4.76-2.76","fnc3hg8wq9kkbcj",309,"167.csv","","null","resources/images/fishbone.png","null","",NA,NA,NA,NA,""
"image-keyboard-response",243,233564,"0.0-4.77-0.77","fnc3hg8wq9kkbcj",309,"167.csv","","128.59999999403954","resources/trios/L1T4A3.jpg","39","restless",0.4,0.3,0.7,0.039613063085904,"true"
"image-keyboard-response",244,233976,"0.0-4.77-1.77","fnc3hg8wq9kkbcj",309,"167.csv","","null","resources/maskTrios/BBA3.jpg","null","",NA,NA,NA,NA,""
"image-keyboard-response",245,235183,"0.0-4.77-2.77","fnc3hg8wq9kkbcj",309,"167.csv","","null","resources/images/coin2.png","null","",NA,NA,NA,NA,""
"image-keyboard-response",246,235309,"0.0-4.78-0.78","fnc3hg8wq9kkbcj",309,"167.csv","","124","resources/trios/L1T4A3.jpg","39","restless",0.4,0.3,0.7,0.296020841462594,"true"
"image-keyboard-response",247,235712,"0.0-4.78-1.78","fnc3hg8wq9kkbcj",309,"167.csv","","null","resources/maskTrios/BBA3.jpg","null","",NA,NA,NA,NA,""
"image-keyboard-response",248,236918,"0.0-4.78-2.78","fnc3hg8wq9kkbcj",309,"167.csv","","null","resources/images/coin2.png","null","",NA,NA,NA,NA,""
"image-keyboard-response",249,237143,"0.0-4.79-0.79","fnc3hg8wq9kkbcj",309,"167.csv","","222.40000000596046","resources/trios/L1T4A3.jpg","39","restless",0.4,0.4,0.7,0.604277025119728,"true"
"image-keyboard-response",250,237556,"0.0-4.79-1.79","fnc3hg8wq9kkbcj",309,"167.csv","","null","resources/maskTrios/BBA3.jpg","null","",NA,NA,NA,NA,""
"image-keyboard-response",251,238761,"0.0-4.79-2.79","fnc3hg8wq9kkbcj",309,"167.csv","","null","resources/images/coin2.png","null","",NA,NA,NA,NA,""
"image-keyboard-response",252,239020,"0.0-4.80-0.80","fnc3hg8wq9kkbcj",309,"167.csv","","257.30000001192093","resources/trios/L1T4A3.jpg","39","restless",0.4,0.4,0.7,0.640071970698489,"true"
"image-keyboard-response",253,239425,"0.0-4.80-1.80","fnc3hg8wq9kkbcj",309,"167.csv","","null","resources/maskTrios/BBA3.jpg","null","",NA,NA,NA,NA,""
"image-keyboard-response",254,240627,"0.0-4.80-2.80","fnc3hg8wq9kkbcj",309,"167.csv","","null","resources/images/coin2.png","null","",NA,NA,NA,NA,""
"image-keyboard-response",255,240844,"0.0-4.81-0.81","fnc3hg8wq9kkbcj",309,"167.csv","","215","resources/trios/L1T4A3.jpg","39","restless",0.4,0.4,0.6,0.212018553531744,"true"
"image-keyboard-response",256,241257,"0.0-4.81-1.81","fnc3hg8wq9kkbcj",309,"167.csv","","null","resources/maskTrios/BBA3.jpg","null","",NA,NA,NA,NA,""
"image-keyboard-response",257,242465,"0.0-4.81-2.81","fnc3hg8wq9kkbcj",309,"167.csv","","null","resources/images/coin2.png","null","",NA,NA,NA,NA,""
"image-keyboard-response",258,242622,"0.0-4.82-0.82","fnc3hg8wq9kkbcj",309,"167.csv","","155.40000000596046","resources/trios/L1T4A3.jpg","39","restless",0.4,0.4,0.6,0.782741337806708,"false"
"image-keyboard-response",259,243038,"0.0-4.82-1.82","fnc3hg8wq9kkbcj",309,"167.csv","","null","resources/maskTrios/BBA3.jpg","null","",NA,NA,NA,NA,""
"image-keyboard-response",260,244243,"0.0-4.82-2.82","fnc3hg8wq9kkbcj",309,"167.csv","","null","resources/images/fishbone.png","null","",NA,NA,NA,NA,""
"image-keyboard-response",261,244480,"0.0-4.83-0.83","fnc3hg8wq9kkbcj",309,"167.csv","","235.60000002384186","resources/trios/L1T4A3.jpg","39","restless",0.4,0.4,0.6,0.448060299688386,"true"
"image-keyboard-response",262,244894,"0.0-4.83-1.83","fnc3hg8wq9kkbcj",309,"167.csv","","null","resources/maskTrios/BBA3.jpg","null","",NA,NA,NA,NA,""
"image-keyboard-response",263,246100,"0.0-4.83-2.83","fnc3hg8wq9kkbcj",309,"167.csv","","null","resources/images/coin2.png","null","",NA,NA,NA,NA,""
"image-keyboard-response",264,246257,"0.0-4.84-0.84","fnc3hg8wq9kkbcj",309,"167.csv","","154.40000000596046","resources/trios/L1T4A3.jpg","39","restless",0.4,0.4,0.6,0.240215295994719,"true"
"image-keyboard-response",265,246661,"0.0-4.84-1.84","fnc3hg8wq9kkbcj",309,"167.csv","","null","resources/maskTrios/BBA3.jpg","null","",NA,NA,NA,NA,""
"image-keyboard-response",266,247864,"0.0-4.84-2.84","fnc3hg8wq9kkbcj",309,"167.csv","","null","resources/images/coin2.png","null","",NA,NA,NA,NA,""
"image-keyboard-response",267,248097,"0.0-4.85-0.85","fnc3hg8wq9kkbcj",309,"167.csv","","232.40000000596046","resources/trios/L1T4A3.jpg","39","restless",0.5,0.4,0.6,0.877544586329673,"false"
"image-keyboard-response",268,248502,"0.0-4.85-1.85","fnc3hg8wq9kkbcj",309,"167.csv","","null","resources/maskTrios/BBA3.jpg","null","",NA,NA,NA,NA,""
"image-keyboard-response",269,249712,"0.0-4.85-2.85","fnc3hg8wq9kkbcj",309,"167.csv","","null","resources/images/fishbone.png","null","",NA,NA,NA,NA,""
"image-keyboard-response",270,249765,"0.0-4.86-0.86","fnc3hg8wq9kkbcj",309,"167.csv","","51.099999994039536","resources/trios/L1T4A3.jpg","37","restless",0.5,0.4,0.6,0.0438274230260955,"true"
"image-keyboard-response",271,250175,"0.0-4.86-1.86","fnc3hg8wq9kkbcj",309,"167.csv","","null","resources/maskTrios/L1BB.jpg","null","",NA,NA,NA,NA,""
"image-keyboard-response",272,251383,"0.0-4.86-2.86","fnc3hg8wq9kkbcj",309,"167.csv","","null","resources/images/coin2.png","null","",NA,NA,NA,NA,""
"image-keyboard-response",273,251429,"0.0-4.87-0.87","fnc3hg8wq9kkbcj",309,"167.csv","","44.400000005960464","resources/trios/L1T4A3.jpg","37","restless",0.5,0.4,0.6,0.182403052926178,"true"
"image-keyboard-response",274,251831,"0.0-4.87-1.87","fnc3hg8wq9kkbcj",309,"167.csv","","null","resources/maskTrios/L1BB.jpg","null","",NA,NA,NA,NA,""
"image-keyboard-response",275,253048,"0.0-4.87-2.87","fnc3hg8wq9kkbcj",309,"167.csv","","null","resources/images/coin2.png","null","",NA,NA,NA,NA,""
"image-keyboard-response",276,253373,"0.0-4.88-0.88","fnc3hg8wq9kkbcj",309,"167.csv","","323.60000002384186","resources/trios/L1T4A3.jpg","37","restless",0.5,0.4,0.6,0.128043904315854,"true"
"image-keyboard-response",277,253774,"0.0-4.88-1.88","fnc3hg8wq9kkbcj",309,"167.csv","","null","resources/maskTrios/L1BB.jpg","null","",NA,NA,NA,NA,""
"image-keyboard-response",278,254981,"0.0-4.88-2.88","fnc3hg8wq9kkbcj",309,"167.csv","","null","resources/images/coin2.png","null","",NA,NA,NA,NA,""
"image-keyboard-response",279,255391,"0.0-4.89-0.89","fnc3hg8wq9kkbcj",309,"167.csv","","408.7000000178814","resources/trios/L1T4A3.jpg","37","restless",0.5,0.4,0.6,0.677201658852949,"false"
"image-keyboard-response",280,255801,"0.0-4.89-1.89","fnc3hg8wq9kkbcj",309,"167.csv","","null","resources/maskTrios/L1BB.jpg","null","",NA,NA,NA,NA,""
"image-keyboard-response",281,257007,"0.0-4.89-2.89","fnc3hg8wq9kkbcj",309,"167.csv","","null","resources/images/fishbone.png","null","",NA,NA,NA,NA,""
"image-keyboard-response",282,257132,"0.0-4.90-0.90","fnc3hg8wq9kkbcj",309,"167.csv","","123.59999999403954","resources/trios/L1T4A3.jpg","38","restless",0.5,0.4,0.6,0.90192598933093,"false"
"image-keyboard-response",283,257549,"0.0-4.90-1.90","fnc3hg8wq9kkbcj",309,"167.csv","","null","resources/maskTrios/BT4B.jpg","null","",NA,NA,NA,NA,""
"image-keyboard-response",284,258757,"0.0-4.90-2.90","fnc3hg8wq9kkbcj",309,"167.csv","","null","resources/images/fishbone.png","null","",NA,NA,NA,NA,""
"image-keyboard-response",285,259093,"0.0-4.91-0.91","fnc3hg8wq9kkbcj",309,"167.csv","","333.90000000596046","resources/trios/L1T4A3.jpg","38","restless",0.5,0.5,0.6,0.349123532860832,"true"
"image-keyboard-response",286,259503,"0.0-4.91-1.91","fnc3hg8wq9kkbcj",309,"167.csv","","null","resources/maskTrios/BT4B.jpg","null","",NA,NA,NA,NA,""
"image-keyboard-response",287,260710,"0.0-4.91-2.91","fnc3hg8wq9kkbcj",309,"167.csv","","null","resources/images/coin2.png","null","",NA,NA,NA,NA,""
"image-keyboard-response",288,261424,"0.0-4.92-0.92","fnc3hg8wq9kkbcj",309,"167.csv","","712","resources/trios/L1T4A3.jpg","38","restless",0.5,0.5,0.6,0.229468412025107,"true"
"image-keyboard-response",289,261833,"0.0-4.92-1.92","fnc3hg8wq9kkbcj",309,"167.csv","","null","resources/maskTrios/BT4B.jpg","null","",NA,NA,NA,NA,""
"image-keyboard-response",290,263038,"0.0-4.92-2.92","fnc3hg8wq9kkbcj",309,"167.csv","","null","resources/images/coin2.png","null","",NA,NA,NA,NA,""
"image-keyboard-response",291,263336,"0.0-4.93-0.93","fnc3hg8wq9kkbcj",309,"167.csv","","297.5","resources/trios/L1T4A3.jpg","38","restless",0.5,0.5,0.6,0.905217610770594,"false"
"image-keyboard-response",292,263738,"0.0-4.93-1.93","fnc3hg8wq9kkbcj",309,"167.csv","","null","resources/maskTrios/BT4B.jpg","null","",NA,NA,NA,NA,""
"image-keyboard-response",293,264952,"0.0-4.93-2.93","fnc3hg8wq9kkbcj",309,"167.csv","","null","resources/images/fishbone.png","null","",NA,NA,NA,NA,""
"image-keyboard-response",294,265352,"0.0-4.94-0.94","fnc3hg8wq9kkbcj",309,"167.csv","","398.19999998807907","resources/trios/L1T4A3.jpg","38","restless",0.5,0.5,0.6,0.369866417740272,"true"
"image-keyboard-response",295,265756,"0.0-4.94-1.94","fnc3hg8wq9kkbcj",309,"167.csv","","null","resources/maskTrios/BT4B.jpg","null","",NA,NA,NA,NA,""
"image-keyboard-response",296,266963,"0.0-4.94-2.94","fnc3hg8wq9kkbcj",309,"167.csv","","null","resources/images/coin2.png","null","",NA,NA,NA,NA,""
"image-keyboard-response",297,267320,"0.0-4.95-0.95","fnc3hg8wq9kkbcj",309,"167.csv","","355.40000000596046","resources/trios/L1T4A3.jpg","38","restless",0.5,0.5,0.6,0.569710283592127,"false"
"image-keyboard-response",298,267734,"0.0-4.95-1.95","fnc3hg8wq9kkbcj",309,"167.csv","","null","resources/maskTrios/BT4B.jpg","null","",NA,NA,NA,NA,""
"image-keyboard-response",299,268938,"0.0-4.95-2.95","fnc3hg8wq9kkbcj",309,"167.csv","","null","resources/images/fishbone.png","null","",NA,NA,NA,NA,""
"image-keyboard-response",300,269731,"0.0-4.96-0.96","fnc3hg8wq9kkbcj",309,"167.csv","","791.5","resources/trios/L1T4A3.jpg","37","restless",0.5,0.5,0.6,0.186850042839381,"true"
"image-keyboard-response",301,270140,"0.0-4.96-1.96","fnc3hg8wq9kkbcj",309,"167.csv","","null","resources/maskTrios/L1BB.jpg","null","",NA,NA,NA,NA,""
"image-keyboard-response",302,271347,"0.0-4.96-2.96","fnc3hg8wq9kkbcj",309,"167.csv","","null","resources/images/coin2.png","null","",NA,NA,NA,NA,""
"image-keyboard-response",303,272257,"0.0-4.97-0.97","fnc3hg8wq9kkbcj",309,"167.csv","","908.7000000178814","resources/trios/L1T4A3.jpg","38","restless",0.5,0.5,0.6,0.387738689906428,"true"
"image-keyboard-response",304,272666,"0.0-4.97-1.97","fnc3hg8wq9kkbcj",309,"167.csv","","null","resources/maskTrios/BT4B.jpg","null","",NA,NA,NA,NA,""
"image-keyboard-response",305,273871,"0.0-4.97-2.97","fnc3hg8wq9kkbcj",309,"167.csv","","null","resources/images/coin2.png","null","",NA,NA,NA,NA,""
"image-keyboard-response",306,276605,"0.0-4.98-0.98","fnc3hg8wq9kkbcj",309,"167.csv","","2732.0999999940395","resources/trios/L1T4A3.jpg","39","restless",0.5,0.4,0.6,0.0357929758583504,"true"
"image-keyboard-response",307,277013,"0.0-4.98-1.98","fnc3hg8wq9kkbcj",309,"167.csv","","null","resources/maskTrios/BBA3.jpg","null","",NA,NA,NA,NA,""
"image-keyboard-response",308,278220,"0.0-4.98-2.98","fnc3hg8wq9kkbcj",309,"167.csv","","null","resources/images/coin2.png","null","",NA,NA,NA,NA,""
"image-keyboard-response",309,279207,"0.0-4.99-0.99","fnc3hg8wq9kkbcj",309,"167.csv","","985.5999999940395","resources/trios/L1T4A3.jpg","38","restless",0.5,0.4,0.6,0.555040910824255,"false"
"image-keyboard-response",310,279612,"0.0-4.99-1.99","fnc3hg8wq9kkbcj",309,"167.csv","","null","resources/maskTrios/BT4B.jpg","null","",NA,NA,NA,NA,""
"image-keyboard-response",311,280816,"0.0-4.99-2.99","fnc3hg8wq9kkbcj",309,"167.csv","","null","resources/images/fishbone.png","null","",NA,NA,NA,NA,""
"image-keyboard-response",312,281154,"0.0-4.100-0.100","fnc3hg8wq9kkbcj",309,"167.csv","","336.2999999821186","resources/trios/L1T4A3.jpg","37","restless",0.5,0.4,0.6,0.0745754016878335,"true"
"image-keyboard-response",313,281558,"0.0-4.100-1.100","fnc3hg8wq9kkbcj",309,"167.csv","","null","resources/maskTrios/L1BB.jpg","null","",NA,NA,NA,NA,""
"image-keyboard-response",314,282762,"0.0-4.100-2.100","fnc3hg8wq9kkbcj",309,"167.csv","","null","resources/images/coin2.png","null","",NA,NA,NA,NA,""
"image-keyboard-response",315,283305,"0.0-4.101-0.101","fnc3hg8wq9kkbcj",309,"167.csv","","541","resources/trios/L1T4A3.jpg","37","restless",0.5,0.4,0.6,0.110180548976207,"true"
"image-keyboard-response",316,283709,"0.0-4.101-1.101","fnc3hg8wq9kkbcj",309,"167.csv","","null","resources/maskTrios/L1BB.jpg","null","",NA,NA,NA,NA,""
"image-keyboard-response",317,284916,"0.0-4.101-2.101","fnc3hg8wq9kkbcj",309,"167.csv","","null","resources/images/coin2.png","null","",NA,NA,NA,NA,""
"image-keyboard-response",318,285819,"0.0-4.102-0.102","fnc3hg8wq9kkbcj",309,"167.csv","","900.5","resources/trios/L1T4A3.jpg","39","restless",0.5,0.4,0.6,0.248410179680966,"true"
"image-keyboard-response",319,286233,"0.0-4.102-1.102","fnc3hg8wq9kkbcj",309,"167.csv","","null","resources/maskTrios/BBA3.jpg","null","",NA,NA,NA,NA,""
"image-keyboard-response",320,287438,"0.0-4.102-2.102","fnc3hg8wq9kkbcj",309,"167.csv","","null","resources/images/coin2.png","null","",NA,NA,NA,NA,""
"image-keyboard-response",321,288285,"0.0-4.103-0.103","fnc3hg8wq9kkbcj",309,"167.csv","","845.5999999940395","resources/trios/L1T4A3.jpg","39","restless",0.5,0.3,0.6,0.218397968601087,"true"
"image-keyboard-response",322,288689,"0.0-4.103-1.103","fnc3hg8wq9kkbcj",309,"167.csv","","null","resources/maskTrios/BBA3.jpg","null","",NA,NA,NA,NA,""
"image-keyboard-response",323,289901,"0.0-4.103-2.103","fnc3hg8wq9kkbcj",309,"167.csv","","null","resources/images/coin2.png","null","",NA,NA,NA,NA,""
"image-keyboard-response",324,290176,"0.0-4.104-0.104","fnc3hg8wq9kkbcj",309,"167.csv","","273.5","resources/trios/L1T4A3.jpg","39","restless",0.5,0.3,0.6,0.135935469785852,"true"
"image-keyboard-response",325,290579,"0.0-4.104-1.104","fnc3hg8wq9kkbcj",309,"167.csv","","null","resources/maskTrios/BBA3.jpg","null","",NA,NA,NA,NA,""
"image-keyboard-response",326,291783,"0.0-4.104-2.104","fnc3hg8wq9kkbcj",309,"167.csv","","null","resources/images/coin2.png","null","",NA,NA,NA,NA,""
"image-keyboard-response",327,292007,"0.0-4.105-0.105","fnc3hg8wq9kkbcj",309,"167.csv","","222.09999999403954","resources/trios/L1T4A3.jpg","39","restless",0.5,0.3,0.6,0.581169946234875,"true"
"image-keyboard-response",328,292418,"0.0-4.105-1.105","fnc3hg8wq9kkbcj",309,"167.csv","","null","resources/maskTrios/BBA3.jpg","null","",NA,NA,NA,NA,""
"image-keyboard-response",329,293625,"0.0-4.105-2.105","fnc3hg8wq9kkbcj",309,"167.csv","","null","resources/images/coin2.png","null","",NA,NA,NA,NA,""
"image-keyboard-response",330,294045,"0.0-4.106-0.106","fnc3hg8wq9kkbcj",309,"167.csv","","418.60000002384186","resources/trios/L1T4A3.jpg","39","restless",0.5,0.3,0.6,0.588062901599667,"true"
"image-keyboard-response",331,294447,"0.0-4.106-1.106","fnc3hg8wq9kkbcj",309,"167.csv","","null","resources/maskTrios/BBA3.jpg","null","",NA,NA,NA,NA,""
"image-keyboard-response",332,295661,"0.0-4.106-2.106","fnc3hg8wq9kkbcj",309,"167.csv","","null","resources/images/coin2.png","null","",NA,NA,NA,NA,""
"image-keyboard-response",333,296161,"0.0-4.107-0.107","fnc3hg8wq9kkbcj",309,"167.csv","","497.90000000596046","resources/trios/L1T4A3.jpg","39","restless",0.5,0.3,0.6,0.603489510427874,"false"
"image-keyboard-response",334,296575,"0.0-4.107-1.107","fnc3hg8wq9kkbcj",309,"167.csv","","null","resources/maskTrios/BBA3.jpg","null","",NA,NA,NA,NA,""
"image-keyboard-response",335,297781,"0.0-4.107-2.107","fnc3hg8wq9kkbcj",309,"167.csv","","null","resources/images/fishbone.png","null","",NA,NA,NA,NA,""
"image-keyboard-response",336,297986,"0.0-4.108-0.108","fnc3hg8wq9kkbcj",309,"167.csv","","204.30000001192093","resources/trios/L1T4A3.jpg","38","restless",0.5,0.3,0.5,0.586310175724134,"false"
"image-keyboard-response",337,298401,"0.0-4.108-1.108","fnc3hg8wq9kkbcj",309,"167.csv","","null","resources/maskTrios/BT4B.jpg","null","",NA,NA,NA,NA,""
"image-keyboard-response",338,299617,"0.0-4.108-2.108","fnc3hg8wq9kkbcj",309,"167.csv","","null","resources/images/fishbone.png","null","",NA,NA,NA,NA,""
"image-keyboard-response",339,299933,"0.0-4.109-0.109","fnc3hg8wq9kkbcj",309,"167.csv","","314.59999999403954","resources/trios/L1T4A3.jpg","38","restless",0.5,0.3,0.5,0.570865422960116,"false"
"image-keyboard-response",340,300346,"0.0-4.109-1.109","fnc3hg8wq9kkbcj",309,"167.csv","","null","resources/maskTrios/BT4B.jpg","null","",NA,NA,NA,NA,""
"image-keyboard-response",341,301562,"0.0-4.109-2.109","fnc3hg8wq9kkbcj",309,"167.csv","","null","resources/images/fishbone.png","null","",NA,NA,NA,NA,""
"image-keyboard-response",342,302210,"0.0-4.110-0.110","fnc3hg8wq9kkbcj",309,"167.csv","","646.1999999880791","resources/trios/L1T4A3.jpg","38","restless",0.5,0.3,0.5,0.207900428382032,"true"
"image-keyboard-response",343,302617,"0.0-4.110-1.110","fnc3hg8wq9kkbcj",309,"167.csv","","null","resources/maskTrios/BT4B.jpg","null","",NA,NA,NA,NA,""
"image-keyboard-response",344,303825,"0.0-4.110-2.110","fnc3hg8wq9kkbcj",309,"167.csv","","null","resources/images/coin2.png","null","",NA,NA,NA,NA,""
"image-keyboard-response",345,304055,"0.0-4.111-0.111","fnc3hg8wq9kkbcj",309,"167.csv","","227.90000000596046","resources/trios/L1T4A3.jpg","37","restless",0.5,0.3,0.5,0.302523044958302,"true"
"image-keyboard-response",346,304460,"0.0-4.111-1.111","fnc3hg8wq9kkbcj",309,"167.csv","","null","resources/maskTrios/L1BB.jpg","null","",NA,NA,NA,NA,""
"image-keyboard-response",347,305671,"0.0-4.111-2.111","fnc3hg8wq9kkbcj",309,"167.csv","","null","resources/images/coin2.png","null","",NA,NA,NA,NA,""
"image-keyboard-response",348,306000,"0.0-4.112-0.112","fnc3hg8wq9kkbcj",309,"167.csv","","327.09999999403954","resources/trios/L1T4A3.jpg","37","restless",0.5,0.3,0.5,0.651962614222443,"false"
"image-keyboard-response",349,306416,"0.0-4.112-1.112","fnc3hg8wq9kkbcj",309,"167.csv","","null","resources/maskTrios/L1BB.jpg","null","",NA,NA,NA,NA,""
"image-keyboard-response",350,307622,"0.0-4.112-2.112","fnc3hg8wq9kkbcj",309,"167.csv","","null","resources/images/fishbone.png","null","",NA,NA,NA,NA,""
"image-keyboard-response",351,307892,"0.0-4.113-0.113","fnc3hg8wq9kkbcj",309,"167.csv","","268.59999999403954","resources/trios/L1T4A3.jpg","38","restless",0.5,0.4,0.5,0.611158641946689,"false"
"image-keyboard-response",352,308303,"0.0-4.113-1.113","fnc3hg8wq9kkbcj",309,"167.csv","","null","resources/maskTrios/BT4B.jpg","null","",NA,NA,NA,NA,""
"image-keyboard-response",353,309505,"0.0-4.113-2.113","fnc3hg8wq9kkbcj",309,"167.csv","","null","resources/images/fishbone.png","null","",NA,NA,NA,NA,""
"image-keyboard-response",354,309726,"0.0-4.114-0.114","fnc3hg8wq9kkbcj",309,"167.csv","","219.7999999821186","resources/trios/L1T4A3.jpg","38","restless",0.5,0.3,0.5,0.780151856599927,"false"
"image-keyboard-response",355,310140,"0.0-4.114-1.114","fnc3hg8wq9kkbcj",309,"167.csv","","null","resources/maskTrios/BT4B.jpg","null","",NA,NA,NA,NA,""
"image-keyboard-response",356,311345,"0.0-4.114-2.114","fnc3hg8wq9kkbcj",309,"167.csv","","null","resources/images/fishbone.png","null","",NA,NA,NA,NA,""
"image-keyboard-response",357,311582,"0.0-4.115-0.115","fnc3hg8wq9kkbcj",309,"167.csv","","235.39999997615814","resources/trios/L1T4A3.jpg","38","restless",0.5,0.3,0.5,0.126020055317474,"true"
"image-keyboard-response",358,311990,"0.0-4.115-1.115","fnc3hg8wq9kkbcj",309,"167.csv","","null","resources/maskTrios/BT4B.jpg","null","",NA,NA,NA,NA,""
"image-keyboard-response",359,313197,"0.0-4.115-2.115","fnc3hg8wq9kkbcj",309,"167.csv","","null","resources/images/coin2.png","null","",NA,NA,NA,NA,""
"image-keyboard-response",360,313561,"0.0-4.116-0.116","fnc3hg8wq9kkbcj",309,"167.csv","","362.40000000596046","resources/trios/L1T4A3.jpg","39","restless",0.5,0.3,0.5,0.0246447805281982,"true"
"image-keyboard-response",361,313972,"0.0-4.116-1.116","fnc3hg8wq9kkbcj",309,"167.csv","","null","resources/maskTrios/BBA3.jpg","null","",NA,NA,NA,NA,""
"image-keyboard-response",362,315177,"0.0-4.116-2.116","fnc3hg8wq9kkbcj",309,"167.csv","","null","resources/images/coin2.png","null","",NA,NA,NA,NA,""
"image-keyboard-response",363,315646,"0.0-4.117-0.117","fnc3hg8wq9kkbcj",309,"167.csv","","467.7999999821186","resources/trios/L1T4A3.jpg","39","restless",0.5,0.3,0.5,0.748947808768651,"false"
"image-keyboard-response",364,316059,"0.0-4.117-1.117","fnc3hg8wq9kkbcj",309,"167.csv","","null","resources/maskTrios/BBA3.jpg","null","",NA,NA,NA,NA,""
"image-keyboard-response",365,317276,"0.0-4.117-2.117","fnc3hg8wq9kkbcj",309,"167.csv","","null","resources/images/fishbone.png","null","",NA,NA,NA,NA,""
"image-keyboard-response",366,317560,"0.0-4.118-0.118","fnc3hg8wq9kkbcj",309,"167.csv","","282.09999999403954","resources/trios/L1T4A3.jpg","39","restless",0.5,0.3,0.5,0.978823894676381,"false"
"image-keyboard-response",367,317973,"0.0-4.118-1.118","fnc3hg8wq9kkbcj",309,"167.csv","","null","resources/maskTrios/BBA3.jpg","null","",NA,NA,NA,NA,""
"image-keyboard-response",368,319178,"0.0-4.118-2.118","fnc3hg8wq9kkbcj",309,"167.csv","","null","resources/images/fishbone.png","null","",NA,NA,NA,NA,""
"image-keyboard-response",369,319382,"0.0-4.119-0.119","fnc3hg8wq9kkbcj",309,"167.csv","","203.09999999403954","resources/trios/L1T4A3.jpg","39","restless",0.5,0.3,0.5,0.737932926630373,"false"
"image-keyboard-response",370,319798,"0.0-4.119-1.119","fnc3hg8wq9kkbcj",309,"167.csv","","null","resources/maskTrios/BBA3.jpg","null","",NA,NA,NA,NA,""
"image-keyboard-response",371,321003,"0.0-4.119-2.119","fnc3hg8wq9kkbcj",309,"167.csv","","null","resources/images/fishbone.png","null","",NA,NA,NA,NA,""
"image-keyboard-response",372,321375,"0.0-4.120-0.120","fnc3hg8wq9kkbcj",309,"167.csv","","370.59999999403954","resources/trios/L1T4A3.jpg","39","restless",0.5,0.3,0.5,0.592943399772238,"false"
"image-keyboard-response",373,321791,"0.0-4.120-1.120","fnc3hg8wq9kkbcj",309,"167.csv","","null","resources/maskTrios/BBA3.jpg","null","",NA,NA,NA,NA,""
"image-keyboard-response",374,323000,"0.0-4.120-2.120","fnc3hg8wq9kkbcj",309,"167.csv","","null","resources/images/fishbone.png","null","",NA,NA,NA,NA,""
"image-keyboard-response",375,323185,"0.0-4.121-0.121","fnc3hg8wq9kkbcj",309,"167.csv","","182.69999998807907","resources/trios/L1T4A3.jpg","37","restless",0.5,0.4,0.5,0.603305617421145,"false"
"image-keyboard-response",376,323589,"0.0-4.121-1.121","fnc3hg8wq9kkbcj",309,"167.csv","","null","resources/maskTrios/L1BB.jpg","null","",NA,NA,NA,NA,""
"image-keyboard-response",377,324805,"0.0-4.121-2.121","fnc3hg8wq9kkbcj",309,"167.csv","","null","resources/images/fishbone.png","null","",NA,NA,NA,NA,""
"image-keyboard-response",378,325086,"0.0-4.122-0.122","fnc3hg8wq9kkbcj",309,"167.csv","","279","resources/trios/L1T4A3.jpg","38","restless",0.5,0.4,0.4,0.465927749666879,"false"
"image-keyboard-response",379,325498,"0.0-4.122-1.122","fnc3hg8wq9kkbcj",309,"167.csv","","null","resources/maskTrios/BT4B.jpg","null","",NA,NA,NA,NA,""
"image-keyboard-response",380,326709,"0.0-4.122-2.122","fnc3hg8wq9kkbcj",309,"167.csv","","null","resources/images/fishbone.png","null","",NA,NA,NA,NA,""
"image-keyboard-response",381,326852,"0.0-4.123-0.123","fnc3hg8wq9kkbcj",309,"167.csv","","141.90000000596046","resources/trios/L1T4A3.jpg","38","restless",0.5,0.4,0.4,0.0190488482753517,"true"
"image-keyboard-response",382,327264,"0.0-4.123-1.123","fnc3hg8wq9kkbcj",309,"167.csv","","null","resources/maskTrios/BT4B.jpg","null","",NA,NA,NA,NA,""
"image-keyboard-response",383,328470,"0.0-4.123-2.123","fnc3hg8wq9kkbcj",309,"167.csv","","null","resources/images/coin2.png","null","",NA,NA,NA,NA,""
"image-keyboard-response",384,328709,"0.0-4.124-0.124","fnc3hg8wq9kkbcj",309,"167.csv","","237.69999998807907","resources/trios/L1T4A3.jpg","38","restless",0.5,0.4,0.4,0.800588130721257,"false"
"image-keyboard-response",385,329121,"0.0-4.124-1.124","fnc3hg8wq9kkbcj",309,"167.csv","","null","resources/maskTrios/BT4B.jpg","null","",NA,NA,NA,NA,""
"image-keyboard-response",386,330327,"0.0-4.124-2.124","fnc3hg8wq9kkbcj",309,"167.csv","","null","resources/images/fishbone.png","null","",NA,NA,NA,NA,""
"image-keyboard-response",387,330566,"0.0-4.125-0.125","fnc3hg8wq9kkbcj",309,"167.csv","","237.59999999403954","resources/trios/L1T4A3.jpg","38","restless",0.5,0.4,0.5,0.156522343482203,"true"
"image-keyboard-response",388,330977,"0.0-4.125-1.125","fnc3hg8wq9kkbcj",309,"167.csv","","null","resources/maskTrios/BT4B.jpg","null","",NA,NA,NA,NA,""
"image-keyboard-response",389,332181,"0.0-4.125-2.125","fnc3hg8wq9kkbcj",309,"167.csv","","null","resources/images/coin2.png","null","",NA,NA,NA,NA,""
"image-keyboard-response",390,332399,"0.0-4.126-0.126","fnc3hg8wq9kkbcj",309,"167.csv","","216.40000000596046","resources/trios/L1T4A3.jpg","38","restless",0.5,0.5,0.5,0.0462237428406949,"true"
"image-keyboard-response",391,332812,"0.0-4.126-1.126","fnc3hg8wq9kkbcj",309,"167.csv","","null","resources/maskTrios/BT4B.jpg","null","",NA,NA,NA,NA,""
"image-keyboard-response",392,334028,"0.0-4.126-2.126","fnc3hg8wq9kkbcj",309,"167.csv","","null","resources/images/coin2.png","null","",NA,NA,NA,NA,""
"image-keyboard-response",393,334313,"0.0-4.127-0.127","fnc3hg8wq9kkbcj",309,"167.csv","","283.19999998807907","resources/trios/L1T4A3.jpg","38","restless",0.5,0.5,0.6,0.383112738854384,"true"
"image-keyboard-response",394,334725,"0.0-4.127-1.127","fnc3hg8wq9kkbcj",309,"167.csv","","null","resources/maskTrios/BT4B.jpg","null","",NA,NA,NA,NA,""
"image-keyboard-response",395,335926,"0.0-4.127-2.127","fnc3hg8wq9kkbcj",309,"167.csv","","null","resources/images/coin2.png","null","",NA,NA,NA,NA,""
"image-keyboard-response",396,336227,"0.0-4.128-0.128","fnc3hg8wq9kkbcj",309,"167.csv","","298.59999999403954","resources/trios/L1T4A3.jpg","38","restless",0.5,0.5,0.6,0.575417784782244,"false"
"image-keyboard-response",397,336637,"0.0-4.128-1.128","fnc3hg8wq9kkbcj",309,"167.csv","","null","resources/maskTrios/BT4B.jpg","null","",NA,NA,NA,NA,""
"image-keyboard-response",398,337843,"0.0-4.128-2.128","fnc3hg8wq9kkbcj",309,"167.csv","","null","resources/images/fishbone.png","null","",NA,NA,NA,NA,""
"image-keyboard-response",399,338061,"0.0-4.129-0.129","fnc3hg8wq9kkbcj",309,"167.csv","","215.69999998807907","resources/trios/L1T4A3.jpg","38","restless",0.5,0.5,0.6,0.208436270659323,"true"
"image-keyboard-response",400,338477,"0.0-4.129-1.129","fnc3hg8wq9kkbcj",309,"167.csv","","null","resources/maskTrios/BT4B.jpg","null","",NA,NA,NA,NA,""
"image-keyboard-response",401,339693,"0.0-4.129-2.129","fnc3hg8wq9kkbcj",309,"167.csv","","null","resources/images/coin2.png","null","",NA,NA,NA,NA,""
"image-keyboard-response",402,339905,"0.0-4.130-0.130","fnc3hg8wq9kkbcj",309,"167.csv","","210.69999998807907","resources/trios/L1T4A3.jpg","38","restless",0.5,0.5,0.6,0.64205979452469,"false"
"image-keyboard-response",403,340313,"0.0-4.130-1.130","fnc3hg8wq9kkbcj",309,"167.csv","","null","resources/maskTrios/BT4B.jpg","null","",NA,NA,NA,NA,""
"image-keyboard-response",404,341516,"0.0-4.130-2.130","fnc3hg8wq9kkbcj",309,"167.csv","","null","resources/images/fishbone.png","null","",NA,NA,NA,NA,""
"image-keyboard-response",405,341719,"0.0-4.131-0.131","fnc3hg8wq9kkbcj",309,"167.csv","","200.60000002384186","resources/trios/L1T4A3.jpg","38","restless",0.5,0.5,0.6,0.538331043326769,"false"
"image-keyboard-response",406,342122,"0.0-4.131-1.131","fnc3hg8wq9kkbcj",309,"167.csv","","null","resources/maskTrios/BT4B.jpg","null","",NA,NA,NA,NA,""
"image-keyboard-response",407,343329,"0.0-4.131-2.131","fnc3hg8wq9kkbcj",309,"167.csv","","null","resources/images/fishbone.png","null","",NA,NA,NA,NA,""
"image-keyboard-response",408,343540,"0.0-4.132-0.132","fnc3hg8wq9kkbcj",309,"167.csv","","209.09999999403954","resources/trios/L1T4A3.jpg","38","restless",0.5,0.5,0.6,0.968558826033904,"false"
"image-keyboard-response",409,343948,"0.0-4.132-1.132","fnc3hg8wq9kkbcj",309,"167.csv","","null","resources/maskTrios/BT4B.jpg","null","",NA,NA,NA,NA,""
"image-keyboard-response",410,345158,"0.0-4.132-2.132","fnc3hg8wq9kkbcj",309,"167.csv","","null","resources/images/fishbone.png","null","",NA,NA,NA,NA,""
"image-keyboard-response",411,345453,"0.0-4.133-0.133","fnc3hg8wq9kkbcj",309,"167.csv","","292.59999999403954","resources/trios/L1T4A3.jpg","37","restless",0.5,0.5,0.6,0.890839578103853,"false"
"image-keyboard-response",412,345858,"0.0-4.133-1.133","fnc3hg8wq9kkbcj",309,"167.csv","","null","resources/maskTrios/L1BB.jpg","null","",NA,NA,NA,NA,""
"image-keyboard-response",413,347062,"0.0-4.133-2.133","fnc3hg8wq9kkbcj",309,"167.csv","","null","resources/images/fishbone.png","null","",NA,NA,NA,NA,""
"image-keyboard-response",414,347197,"0.0-4.134-0.134","fnc3hg8wq9kkbcj",309,"167.csv","","133.40000000596046","resources/trios/L1T4A3.jpg","37","restless",0.5,0.5,0.6,0.323829239682762,"true"
"image-keyboard-response",415,347605,"0.0-4.134-1.134","fnc3hg8wq9kkbcj",309,"167.csv","","null","resources/maskTrios/L1BB.jpg","null","",NA,NA,NA,NA,""
"image-keyboard-response",416,348822,"0.0-4.134-2.134","fnc3hg8wq9kkbcj",309,"167.csv","","null","resources/images/coin2.png","null","",NA,NA,NA,NA,""
"image-keyboard-response",417,349042,"0.0-4.135-0.135","fnc3hg8wq9kkbcj",309,"167.csv","","217.90000000596046","resources/trios/L1T4A3.jpg","37","restless",0.5,0.5,0.6,0.0600790569002558,"true"
"image-keyboard-response",418,349456,"0.0-4.135-1.135","fnc3hg8wq9kkbcj",309,"167.csv","","null","resources/maskTrios/L1BB.jpg","null","",NA,NA,NA,NA,""
"image-keyboard-response",419,350658,"0.0-4.135-2.135","fnc3hg8wq9kkbcj",309,"167.csv","","null","resources/images/coin2.png","null","",NA,NA,NA,NA,""
"image-keyboard-response",420,350876,"0.0-4.136-0.136","fnc3hg8wq9kkbcj",309,"167.csv","","217.40000000596046","resources/trios/L1T4A3.jpg","37","restless",0.5,0.5,0.6,0.41804478302889,"true"
"image-keyboard-response",421,351293,"0.0-4.136-1.136","fnc3hg8wq9kkbcj",309,"167.csv","","null","resources/maskTrios/L1BB.jpg","null","",NA,NA,NA,NA,""
"image-keyboard-response",422,352495,"0.0-4.136-2.136","fnc3hg8wq9kkbcj",309,"167.csv","","null","resources/images/coin2.png","null","",NA,NA,NA,NA,""
"image-keyboard-response",423,352936,"0.0-4.137-0.137","fnc3hg8wq9kkbcj",309,"167.csv","","438.69999998807907","resources/trios/L1T4A3.jpg","37","restless",0.6,0.5,0.6,0.0765929671650083,"true"
"image-keyboard-response",424,353345,"0.0-4.137-1.137","fnc3hg8wq9kkbcj",309,"167.csv","","null","resources/maskTrios/L1BB.jpg","null","",NA,NA,NA,NA,""
"image-keyboard-response",425,354553,"0.0-4.137-2.137","fnc3hg8wq9kkbcj",309,"167.csv","","null","resources/images/coin2.png","null","",NA,NA,NA,NA,""
"image-keyboard-response",426,354771,"0.0-4.138-0.138","fnc3hg8wq9kkbcj",309,"167.csv","","215.59999999403954","resources/trios/L1T4A3.jpg","37","restless",0.6,0.6,0.6,0.435547374573755,"true"
"image-keyboard-response",427,355187,"0.0-4.138-1.138","fnc3hg8wq9kkbcj",309,"167.csv","","null","resources/maskTrios/L1BB.jpg","null","",NA,NA,NA,NA,""
"image-keyboard-response",428,356393,"0.0-4.138-2.138","fnc3hg8wq9kkbcj",309,"167.csv","","null","resources/images/coin2.png","null","",NA,NA,NA,NA,""
"image-keyboard-response",429,356581,"0.0-4.139-0.139","fnc3hg8wq9kkbcj",309,"167.csv","","186.7000000178814","resources/trios/L1T4A3.jpg","37","restless",0.6,0.6,0.6,0.384049630878849,"true"
"image-keyboard-response",430,356996,"0.0-4.139-1.139","fnc3hg8wq9kkbcj",309,"167.csv","","null","resources/maskTrios/L1BB.jpg","null","",NA,NA,NA,NA,""
"image-keyboard-response",431,358201,"0.0-4.139-2.139","fnc3hg8wq9kkbcj",309,"167.csv","","null","resources/images/coin2.png","null","",NA,NA,NA,NA,""
"image-keyboard-response",432,358460,"0.0-4.140-0.140","fnc3hg8wq9kkbcj",309,"167.csv","","257.09999999403954","resources/trios/L1T4A3.jpg","37","restless",0.6,0.6,0.6,0.575289915427089,"true"
"image-keyboard-response",433,358864,"0.0-4.140-1.140","fnc3hg8wq9kkbcj",309,"167.csv","","null","resources/maskTrios/L1BB.jpg","null","",NA,NA,NA,NA,""
"image-keyboard-response",434,360081,"0.0-4.140-2.140","fnc3hg8wq9kkbcj",309,"167.csv","","null","resources/images/coin2.png","null","",NA,NA,NA,NA,""
"image-keyboard-response",435,360510,"0.0-4.141-0.141","fnc3hg8wq9kkbcj",309,"167.csv","","427.19999998807907","resources/trios/L1T4A3.jpg","37","restless",0.6,0.6,0.6,0.836592186926252,"false"
"image-keyboard-response",436,360919,"0.0-4.141-1.141","fnc3hg8wq9kkbcj",309,"167.csv","","null","resources/maskTrios/L1BB.jpg","null","",NA,NA,NA,NA,""
"image-keyboard-response",437,362127,"0.0-4.141-2.141","fnc3hg8wq9kkbcj",309,"167.csv","","null","resources/images/fishbone.png","null","",NA,NA,NA,NA,""
"image-keyboard-response",438,362491,"0.0-4.142-0.142","fnc3hg8wq9kkbcj",309,"167.csv","","361.90000000596046","resources/trios/L1T4A3.jpg","39","restless",0.6,0.6,0.6,0.636953278621032,"false"
"image-keyboard-response",439,362904,"0.0-4.142-1.142","fnc3hg8wq9kkbcj",309,"167.csv","","null","resources/maskTrios/BBA3.jpg","null","",NA,NA,NA,NA,""
"image-keyboard-response",440,364110,"0.0-4.142-2.142","fnc3hg8wq9kkbcj",309,"167.csv","","null","resources/images/fishbone.png","null","",NA,NA,NA,NA,""
"image-keyboard-response",441,364200,"0.0-4.143-0.143","fnc3hg8wq9kkbcj",309,"167.csv","","88.09999999403954","resources/trios/L1T4A3.jpg","39","restless",0.6,0.6,0.6,0.871661859639359,"false"
"image-keyboard-response",442,364606,"0.0-4.143-1.143","fnc3hg8wq9kkbcj",309,"167.csv","","null","resources/maskTrios/BBA3.jpg","null","",NA,NA,NA,NA,""
"image-keyboard-response",443,365813,"0.0-4.143-2.143","fnc3hg8wq9kkbcj",309,"167.csv","","null","resources/images/fishbone.png","null","",NA,NA,NA,NA,""
"image-keyboard-response",444,365941,"0.0-4.144-0.144","fnc3hg8wq9kkbcj",309,"167.csv","","125.59999999403954","resources/trios/L1T4A3.jpg","39","restless",0.6,0.6,0.6,0.562793547549771,"true"
"image-keyboard-response",445,366343,"0.0-4.144-1.144","fnc3hg8wq9kkbcj",309,"167.csv","","null","resources/maskTrios/BBA3.jpg","null","",NA,NA,NA,NA,""
"image-keyboard-response",446,367550,"0.0-4.144-2.144","fnc3hg8wq9kkbcj",309,"167.csv","","null","resources/images/coin2.png","null","",NA,NA,NA,NA,""
"image-keyboard-response",447,367664,"0.0-4.145-0.145","fnc3hg8wq9kkbcj",309,"167.csv","","112.2999999821186","resources/trios/L1T4A3.jpg","39","restless",0.6,0.6,0.7,0.502281638096801,"true"
"image-keyboard-response",448,368070,"0.0-4.145-1.145","fnc3hg8wq9kkbcj",309,"167.csv","","null","resources/maskTrios/BBA3.jpg","null","",NA,NA,NA,NA,""
"image-keyboard-response",449,369280,"0.0-4.145-2.145","fnc3hg8wq9kkbcj",309,"167.csv","","null","resources/images/coin2.png","null","",NA,NA,NA,NA,""
"image-keyboard-response",450,369439,"0.0-4.146-0.146","fnc3hg8wq9kkbcj",309,"167.csv","","157.80000001192093","resources/trios/L1T4A3.jpg","39","restless",0.6,0.6,0.7,0.12174723461965,"true"
"image-keyboard-response",451,369851,"0.0-4.146-1.146","fnc3hg8wq9kkbcj",309,"167.csv","","null","resources/maskTrios/BBA3.jpg","null","",NA,NA,NA,NA,""
"image-keyboard-response",452,371065,"0.0-4.146-2.146","fnc3hg8wq9kkbcj",309,"167.csv","","null","resources/images/coin2.png","null","",NA,NA,NA,NA,""
"image-keyboard-response",453,371106,"0.0-4.147-0.147","fnc3hg8wq9kkbcj",309,"167.csv","","39.5","resources/trios/L1T4A3.jpg","39","restless",0.6,0.6,0.7,0.344532069660598,"true"
"image-keyboard-response",454,371514,"0.0-4.147-1.147","fnc3hg8wq9kkbcj",309,"167.csv","","null","resources/maskTrios/BBA3.jpg","null","",NA,NA,NA,NA,""
"image-keyboard-response",455,372721,"0.0-4.147-2.147","fnc3hg8wq9kkbcj",309,"167.csv","","null","resources/images/coin2.png","null","",NA,NA,NA,NA,""
"image-keyboard-response",456,372927,"0.0-4.148-0.148","fnc3hg8wq9kkbcj",309,"167.csv","","204.60000002384186","resources/trios/L1T4A3.jpg","39","restless",0.6,0.6,0.7,0.323957727102335,"true"
"image-keyboard-response",457,373340,"0.0-4.148-1.148","fnc3hg8wq9kkbcj",309,"167.csv","","null","resources/maskTrios/BBA3.jpg","null","",NA,NA,NA,NA,""
"image-keyboard-response",458,374556,"0.0-4.148-2.148","fnc3hg8wq9kkbcj",309,"167.csv","","null","resources/images/coin2.png","null","",NA,NA,NA,NA,""
"image-keyboard-response",459,374588,"0.0-4.149-0.149","fnc3hg8wq9kkbcj",309,"167.csv","","30.700000017881393","resources/trios/L1T4A3.jpg","39","restless",0.6,0.6,0.7,0.0127601135443227,"true"
"image-keyboard-response",460,375004,"0.0-4.149-1.149","fnc3hg8wq9kkbcj",309,"167.csv","","null","resources/maskTrios/BBA3.jpg","null","",NA,NA,NA,NA,""
"image-keyboard-response",461,376210,"0.0-4.149-2.149","fnc3hg8wq9kkbcj",309,"167.csv","","null","resources/images/coin2.png","null","",NA,NA,NA,NA,""
"image-keyboard-response",462,376332,"0.0-4.150-0.150","fnc3hg8wq9kkbcj",309,"167.csv","","120.2000000178814","resources/trios/L1T4A3.jpg","39","restless",0.6,0.6,0.7,0.517016477020921,"true"
"image-keyboard-response",463,376735,"0.0-4.150-1.150","fnc3hg8wq9kkbcj",309,"167.csv","","null","resources/maskTrios/BBA3.jpg","null","",NA,NA,NA,NA,""
"image-keyboard-response",464,377944,"0.0-4.150-2.150","fnc3hg8wq9kkbcj",309,"167.csv","","null","resources/images/coin2.png","null","",NA,NA,NA,NA,""
"image-keyboard-response",465,378369,"0.0-4.151-0.151","fnc3hg8wq9kkbcj",309,"167.csv","","423.80000001192093","resources/trios/L1T4A3.jpg","39","restless",0.6,0.5,0.7,0.333708885604286,"true"
"image-keyboard-response",466,378779,"0.0-4.151-1.151","fnc3hg8wq9kkbcj",309,"167.csv","","null","resources/maskTrios/BBA3.jpg","null","",NA,NA,NA,NA,""
"image-keyboard-response",467,379985,"0.0-4.151-2.151","fnc3hg8wq9kkbcj",309,"167.csv","","null","resources/images/coin2.png","null","",NA,NA,NA,NA,""
"image-keyboard-response",468,380012,"0.0-4.152-0.152","fnc3hg8wq9kkbcj",309,"167.csv","","25.700000017881393","resources/trios/L1T4A3.jpg","39","restless",0.6,0.5,0.7,0.990613930997296,"false"
"image-keyboard-response",469,380420,"0.0-4.152-1.152","fnc3hg8wq9kkbcj",309,"167.csv","","null","resources/maskTrios/BBA3.jpg","null","",NA,NA,NA,NA,""
"image-keyboard-response",470,381623,"0.0-4.152-2.152","fnc3hg8wq9kkbcj",309,"167.csv","","null","resources/images/fishbone.png","null","",NA,NA,NA,NA,""
"image-keyboard-response",471,381799,"0.0-4.153-0.153","fnc3hg8wq9kkbcj",309,"167.csv","","174.10000002384186","resources/trios/L1T4A3.jpg","38","restless",0.6,0.5,0.8,0.484463416927137,"true"
"image-keyboard-response",472,382210,"0.0-4.153-1.153","fnc3hg8wq9kkbcj",309,"167.csv","","null","resources/maskTrios/BT4B.jpg","null","",NA,NA,NA,NA,""
"image-keyboard-response",473,383414,"0.0-4.153-2.153","fnc3hg8wq9kkbcj",309,"167.csv","","null","resources/images/coin2.png","null","",NA,NA,NA,NA,""
"image-keyboard-response",474,383668,"0.0-4.154-0.154","fnc3hg8wq9kkbcj",309,"167.csv","","252.80000001192093","resources/trios/L1T4A3.jpg","38","restless",0.6,0.5,0.8,0.319271280194356,"true"
"image-keyboard-response",475,384081,"0.0-4.154-1.154","fnc3hg8wq9kkbcj",309,"167.csv","","null","resources/maskTrios/BT4B.jpg","null","",NA,NA,NA,NA,""
"image-keyboard-response",476,385294,"0.0-4.154-2.154","fnc3hg8wq9kkbcj",309,"167.csv","","null","resources/images/coin2.png","null","",NA,NA,NA,NA,""
"image-keyboard-response",477,385489,"0.0-4.155-0.155","fnc3hg8wq9kkbcj",309,"167.csv","","192.40000000596046","resources/trios/L1T4A3.jpg","38","restless",0.6,0.5,0.9,0.863694557388599,"false"
"image-keyboard-response",478,385903,"0.0-4.155-1.155","fnc3hg8wq9kkbcj",309,"167.csv","","null","resources/maskTrios/BT4B.jpg","null","",NA,NA,NA,NA,""
"image-keyboard-response",479,387113,"0.0-4.155-2.155","fnc3hg8wq9kkbcj",309,"167.csv","","null","resources/images/fishbone.png","null","",NA,NA,NA,NA,""
"image-keyboard-response",480,387312,"0.0-4.156-0.156","fnc3hg8wq9kkbcj",309,"167.csv","","197.40000000596046","resources/trios/L1T4A3.jpg","39","restless",0.6,0.5,0.8,0.530475030851383,"true"
"image-keyboard-response",481,387717,"0.0-4.156-1.156","fnc3hg8wq9kkbcj",309,"167.csv","","null","resources/maskTrios/BBA3.jpg","null","",NA,NA,NA,NA,""
"image-keyboard-response",482,388925,"0.0-4.156-2.156","fnc3hg8wq9kkbcj",309,"167.csv","","null","resources/images/coin2.png","null","",NA,NA,NA,NA,""
"image-keyboard-response",483,389124,"0.0-4.157-0.157","fnc3hg8wq9kkbcj",309,"167.csv","","197.5","resources/trios/L1T4A3.jpg","39","restless",0.6,0.5,0.8,0.359371455949026,"true"
"image-keyboard-response",484,389527,"0.0-4.157-1.157","fnc3hg8wq9kkbcj",309,"167.csv","","null","resources/maskTrios/BBA3.jpg","null","",NA,NA,NA,NA,""
"image-keyboard-response",485,390732,"0.0-4.157-2.157","fnc3hg8wq9kkbcj",309,"167.csv","","null","resources/images/coin2.png","null","",NA,NA,NA,NA,""
"image-keyboard-response",486,390913,"0.0-4.158-0.158","fnc3hg8wq9kkbcj",309,"167.csv","","178.7999999821186","resources/trios/L1T4A3.jpg","39","restless",0.6,0.5,0.8,0.613312634750807,"true"
"image-keyboard-response",487,391318,"0.0-4.158-1.158","fnc3hg8wq9kkbcj",309,"167.csv","","null","resources/maskTrios/BBA3.jpg","null","",NA,NA,NA,NA,""
"image-keyboard-response",488,392524,"0.0-4.158-2.158","fnc3hg8wq9kkbcj",309,"167.csv","","null","resources/images/coin2.png","null","",NA,NA,NA,NA,""
"image-keyboard-response",489,392634,"0.0-4.159-0.159","fnc3hg8wq9kkbcj",309,"167.csv","","108.59999999403954","resources/trios/L1T4A3.jpg","39","restless",0.6,0.5,0.8,0.376568772396851,"true"
"image-keyboard-response",490,393049,"0.0-4.159-1.159","fnc3hg8wq9kkbcj",309,"167.csv","","null","resources/maskTrios/BBA3.jpg","null","",NA,NA,NA,NA,""
"image-keyboard-response",491,394257,"0.0-4.159-2.159","fnc3hg8wq9kkbcj",309,"167.csv","","null","resources/images/coin2.png","null","",NA,NA,NA,NA,""
"image-keyboard-response",492,394488,"0.0-4.160-0.160","fnc3hg8wq9kkbcj",309,"167.csv","","229","resources/trios/L1T4A3.jpg","39","restless",0.6,0.5,0.8,0.30634865581736,"true"
"image-keyboard-response",493,394889,"0.0-4.160-1.160","fnc3hg8wq9kkbcj",309,"167.csv","","null","resources/maskTrios/BBA3.jpg","null","",NA,NA,NA,NA,""
"image-keyboard-response",494,396097,"0.0-4.160-2.160","fnc3hg8wq9kkbcj",309,"167.csv","","null","resources/images/coin2.png","null","",NA,NA,NA,NA,""
"image-keyboard-response",495,396234,"0.0-4.161-0.161","fnc3hg8wq9kkbcj",309,"167.csv","","135","resources/trios/L1T4A3.jpg","39","restless",0.6,0.5,0.8,0.74949781288426,"true"
"image-keyboard-response",496,396640,"0.0-4.161-1.161","fnc3hg8wq9kkbcj",309,"167.csv","","null","resources/maskTrios/BBA3.jpg","null","",NA,NA,NA,NA,""
"image-keyboard-response",497,397850,"0.0-4.161-2.161","fnc3hg8wq9kkbcj",309,"167.csv","","null","resources/images/coin2.png","null","",NA,NA,NA,NA,""
"image-keyboard-response",498,397998,"0.0-4.162-0.162","fnc3hg8wq9kkbcj",309,"167.csv","","146.40000000596046","resources/trios/L1T4A3.jpg","39","restless",0.6,0.5,0.8,0.924069127641281,"false"
"image-keyboard-response",499,398403,"0.0-4.162-1.162","fnc3hg8wq9kkbcj",309,"167.csv","","null","resources/maskTrios/BBA3.jpg","null","",NA,NA,NA,NA,""
"image-keyboard-response",500,399611,"0.0-4.162-2.162","fnc3hg8wq9kkbcj",309,"167.csv","","null","resources/images/fishbone.png","null","",NA,NA,NA,NA,""
"image-keyboard-response",501,399855,"0.0-4.163-0.163","fnc3hg8wq9kkbcj",309,"167.csv","","243.80000001192093","resources/trios/L1T4A3.jpg","38","restless",0.6,0.5,0.8,0.504686721947625,"false"
"image-keyboard-response",502,400262,"0.0-4.163-1.163","fnc3hg8wq9kkbcj",309,"167.csv","","null","resources/maskTrios/BT4B.jpg","null","",NA,NA,NA,NA,""
"image-keyboard-response",503,401466,"0.0-4.163-2.163","fnc3hg8wq9kkbcj",309,"167.csv","","null","resources/images/fishbone.png","null","",NA,NA,NA,NA,""
"image-keyboard-response",504,401689,"0.0-4.164-0.164","fnc3hg8wq9kkbcj",309,"167.csv","","221.7000000178814","resources/trios/L1T4A3.jpg","37","restless",0.6,0.5,0.8,0.339912395161881,"true"
"image-keyboard-response",505,402100,"0.0-4.164-1.164","fnc3hg8wq9kkbcj",309,"167.csv","","null","resources/maskTrios/L1BB.jpg","null","",NA,NA,NA,NA,""
"image-keyboard-response",506,403308,"0.0-4.164-2.164","fnc3hg8wq9kkbcj",309,"167.csv","","null","resources/images/coin2.png","null","",NA,NA,NA,NA,""
"image-keyboard-response",507,403488,"0.0-4.165-0.165","fnc3hg8wq9kkbcj",309,"167.csv","","178.19999998807907","resources/trios/L1T4A3.jpg","37","restless",0.6,0.5,0.8,0.541537728574138,"true"
"image-keyboard-response",508,403893,"0.0-4.165-1.165","fnc3hg8wq9kkbcj",309,"167.csv","","null","resources/maskTrios/L1BB.jpg","null","",NA,NA,NA,NA,""
"image-keyboard-response",509,405101,"0.0-4.165-2.165","fnc3hg8wq9kkbcj",309,"167.csv","","null","resources/images/coin2.png","null","",NA,NA,NA,NA,""
"image-keyboard-response",510,405321,"0.0-4.166-0.166","fnc3hg8wq9kkbcj",309,"167.csv","","218.60000002384186","resources/trios/L1T4A3.jpg","37","restless",0.6,0.5,0.8,0.280436001601381,"true"
"image-keyboard-response",511,405734,"0.0-4.166-1.166","fnc3hg8wq9kkbcj",309,"167.csv","","null","resources/maskTrios/L1BB.jpg","null","",NA,NA,NA,NA,""
"image-keyboard-response",512,406941,"0.0-4.166-2.166","fnc3hg8wq9kkbcj",309,"167.csv","","null","resources/images/coin2.png","null","",NA,NA,NA,NA,""
"image-keyboard-response",513,407191,"0.0-4.167-0.167","fnc3hg8wq9kkbcj",309,"167.csv","","247.59999999403954","resources/trios/L1T4A3.jpg","37","restless",0.6,0.6,0.8,0.330388195706452,"true"
"image-keyboard-response",514,407604,"0.0-4.167-1.167","fnc3hg8wq9kkbcj",309,"167.csv","","null","resources/maskTrios/L1BB.jpg","null","",NA,NA,NA,NA,""
"image-keyboard-response",515,408806,"0.0-4.167-2.167","fnc3hg8wq9kkbcj",309,"167.csv","","null","resources/images/coin2.png","null","",NA,NA,NA,NA,""
"image-keyboard-response",516,409012,"0.0-4.168-0.168","fnc3hg8wq9kkbcj",309,"167.csv","","204.19999998807907","resources/trios/L1T4A3.jpg","37","restless",0.6,0.6,0.8,0.748232051988275,"false"
"image-keyboard-response",517,409422,"0.0-4.168-1.168","fnc3hg8wq9kkbcj",309,"167.csv","","null","resources/maskTrios/L1BB.jpg","null","",NA,NA,NA,NA,""
"image-keyboard-response",518,410624,"0.0-4.168-2.168","fnc3hg8wq9kkbcj",309,"167.csv","","null","resources/images/fishbone.png","null","",NA,NA,NA,NA,""
"image-keyboard-response",519,410746,"0.0-4.169-0.169","fnc3hg8wq9kkbcj",309,"167.csv","","119.7000000178814","resources/trios/L1T4A3.jpg","39","restless",0.6,0.6,0.8,0.0507965371816756,"true"
"image-keyboard-response",520,411149,"0.0-4.169-1.169","fnc3hg8wq9kkbcj",309,"167.csv","","null","resources/maskTrios/BBA3.jpg","null","",NA,NA,NA,NA,""
"image-keyboard-response",521,412359,"0.0-4.169-2.169","fnc3hg8wq9kkbcj",309,"167.csv","","null","resources/images/coin2.png","null","",NA,NA,NA,NA,""
"image-keyboard-response",522,412578,"0.0-4.170-0.170","fnc3hg8wq9kkbcj",309,"167.csv","","217","resources/trios/L1T4A3.jpg","39","restless",0.5,0.6,0.7,0.49747094112247,"true"
"image-keyboard-response",523,412983,"0.0-4.170-1.170","fnc3hg8wq9kkbcj",309,"167.csv","","null","resources/maskTrios/BBA3.jpg","null","",NA,NA,NA,NA,""
"image-keyboard-response",524,414189,"0.0-4.170-2.170","fnc3hg8wq9kkbcj",309,"167.csv","","null","resources/images/coin2.png","null","",NA,NA,NA,NA,""
"image-keyboard-response",525,414241,"0.0-4.171-0.171","fnc3hg8wq9kkbcj",309,"167.csv","","50.19999998807907","resources/trios/L1T4A3.jpg","39","restless",0.5,0.7,0.7,0.882342647383171,"false"
"image-keyboard-response",526,414653,"0.0-4.171-1.171","fnc3hg8wq9kkbcj",309,"167.csv","","null","resources/maskTrios/BBA3.jpg","null","",NA,NA,NA,NA,""
"image-keyboard-response",527,415856,"0.0-4.171-2.171","fnc3hg8wq9kkbcj",309,"167.csv","","null","resources/images/fishbone.png","null","",NA,NA,NA,NA,""
"image-keyboard-response",528,416065,"0.0-4.172-0.172","fnc3hg8wq9kkbcj",309,"167.csv","","207.59999999403954","resources/trios/L1T4A3.jpg","38","restless",0.5,0.8,0.6,0.510752627042722,"true"
"image-keyboard-response",529,416477,"0.0-4.172-1.172","fnc3hg8wq9kkbcj",309,"167.csv","","null","resources/maskTrios/BT4B.jpg","null","",NA,NA,NA,NA,""
"image-keyboard-response",530,417685,"0.0-4.172-2.172","fnc3hg8wq9kkbcj",309,"167.csv","","null","resources/images/coin2.png","null","",NA,NA,NA,NA,""
"image-keyboard-response",531,417796,"0.0-4.173-0.173","fnc3hg8wq9kkbcj",309,"167.csv","","109","resources/trios/L1T4A3.jpg","38","restless",0.5,0.8,0.6,0.479022050061108,"true"
"image-keyboard-response",532,418199,"0.0-4.173-1.173","fnc3hg8wq9kkbcj",309,"167.csv","","null","resources/maskTrios/BT4B.jpg","null","",NA,NA,NA,NA,""
"image-keyboard-response",533,419404,"0.0-4.173-2.173","fnc3hg8wq9kkbcj",309,"167.csv","","null","resources/images/coin2.png","null","",NA,NA,NA,NA,""
"image-keyboard-response",534,419538,"0.0-4.174-0.174","fnc3hg8wq9kkbcj",309,"167.csv","","132","resources/trios/L1T4A3.jpg","38","restless",0.5,0.8,0.6,0.251786399972367,"true"
"image-keyboard-response",535,419945,"0.0-4.174-1.174","fnc3hg8wq9kkbcj",309,"167.csv","","null","resources/maskTrios/BT4B.jpg","null","",NA,NA,NA,NA,""
"image-keyboard-response",536,421153,"0.0-4.174-2.174","fnc3hg8wq9kkbcj",309,"167.csv","","null","resources/images/coin2.png","null","",NA,NA,NA,NA,""
"image-keyboard-response",537,421250,"0.0-4.175-0.175","fnc3hg8wq9kkbcj",309,"167.csv","","94.60000002384186","resources/trios/L1T4A3.jpg","38","restless",0.5,0.8,0.6,0.015061088164898,"true"
"image-keyboard-response",538,421663,"0.0-4.175-1.175","fnc3hg8wq9kkbcj",309,"167.csv","","null","resources/maskTrios/BT4B.jpg","null","",NA,NA,NA,NA,""
"image-keyboard-response",539,422877,"0.0-4.175-2.175","fnc3hg8wq9kkbcj",309,"167.csv","","null","resources/images/coin2.png","null","",NA,NA,NA,NA,""
"image-keyboard-response",540,423106,"0.0-4.176-0.176","fnc3hg8wq9kkbcj",309,"167.csv","","227.80000001192093","resources/trios/L1T4A3.jpg","38","restless",0.5,0.8,0.6,0.569310955437096,"true"
"image-keyboard-response",541,423511,"0.0-4.176-1.176","fnc3hg8wq9kkbcj",309,"167.csv","","null","resources/maskTrios/BT4B.jpg","null","",NA,NA,NA,NA,""
"image-keyboard-response",542,424716,"0.0-4.176-2.176","fnc3hg8wq9kkbcj",309,"167.csv","","null","resources/images/coin2.png","null","",NA,NA,NA,NA,""
"image-keyboard-response",543,424905,"0.0-4.177-0.177","fnc3hg8wq9kkbcj",309,"167.csv","","187.39999997615814","resources/trios/L1T4A3.jpg","37","restless",0.5,0.7,0.5,0.828228700365683,"false"
"image-keyboard-response",544,425307,"0.0-4.177-1.177","fnc3hg8wq9kkbcj",309,"167.csv","","null","resources/maskTrios/L1BB.jpg","null","",NA,NA,NA,NA,""
"image-keyboard-response",545,426523,"0.0-4.177-2.177","fnc3hg8wq9kkbcj",309,"167.csv","","null","resources/images/fishbone.png","null","",NA,NA,NA,NA,""
"image-keyboard-response",546,426640,"0.0-4.178-0.178","fnc3hg8wq9kkbcj",309,"167.csv","","114.90000000596046","resources/trios/L1T4A3.jpg","38","restless",0.5,0.7,0.5,0.413098887366533,"true"
"image-keyboard-response",547,427049,"0.0-4.178-1.178","fnc3hg8wq9kkbcj",309,"167.csv","","null","resources/maskTrios/BT4B.jpg","null","",NA,NA,NA,NA,""
"image-keyboard-response",548,428266,"0.0-4.178-2.178","fnc3hg8wq9kkbcj",309,"167.csv","","null","resources/images/coin2.png","null","",NA,NA,NA,NA,""
"image-keyboard-response",549,428517,"0.0-4.179-0.179","fnc3hg8wq9kkbcj",309,"167.csv","","249.59999999403954","resources/trios/L1T4A3.jpg","39","restless",0.5,0.6,0.5,0.258996409829871,"true"
"image-keyboard-response",550,428933,"0.0-4.179-1.179","fnc3hg8wq9kkbcj",309,"167.csv","","null","resources/maskTrios/BBA3.jpg","null","",NA,NA,NA,NA,""
"image-keyboard-response",551,430139,"0.0-4.179-2.179","fnc3hg8wq9kkbcj",309,"167.csv","","null","resources/images/coin2.png","null","",NA,NA,NA,NA,""
"image-keyboard-response",552,430384,"0.0-4.180-0.180","fnc3hg8wq9kkbcj",309,"167.csv","","242.7000000178814","resources/trios/L1T4A3.jpg","37","restless",0.5,0.6,0.5,0.0100879274208807,"true"
"image-keyboard-response",553,430786,"0.0-4.180-1.180","fnc3hg8wq9kkbcj",309,"167.csv","","null","resources/maskTrios/L1BB.jpg","null","",NA,NA,NA,NA,""
"image-keyboard-response",554,431991,"0.0-4.180-2.180","fnc3hg8wq9kkbcj",309,"167.csv","","null","resources/images/coin2.png","null","",NA,NA,NA,NA,""
"image-keyboard-response",555,432015,"0.0-4.181-0.181","fnc3hg8wq9kkbcj",309,"167.csv","","22.700000017881393","resources/trios/L1T4A3.jpg","38","restless",0.5,0.6,0.5,0.481804167903922,"true"
"image-keyboard-response",556,432427,"0.0-4.181-1.181","fnc3hg8wq9kkbcj",309,"167.csv","","null","resources/maskTrios/BT4B.jpg","null","",NA,NA,NA,NA,""
"image-keyboard-response",557,433642,"0.0-4.181-2.181","fnc3hg8wq9kkbcj",309,"167.csv","","null","resources/images/coin2.png","null","",NA,NA,NA,NA,""
"image-keyboard-response",558,433829,"0.0-4.182-0.182","fnc3hg8wq9kkbcj",309,"167.csv","","184.69999998807907","resources/trios/L1T4A3.jpg","39","restless",0.5,0.6,0.5,0.781532414040033,"false"
"image-keyboard-response",559,434245,"0.0-4.182-1.182","fnc3hg8wq9kkbcj",309,"167.csv","","null","resources/maskTrios/BBA3.jpg","null","",NA,NA,NA,NA,""
"image-keyboard-response",560,435451,"0.0-4.182-2.182","fnc3hg8wq9kkbcj",309,"167.csv","","null","resources/images/fishbone.png","null","",NA,NA,NA,NA,""
"image-keyboard-response",561,435671,"0.0-4.183-0.183","fnc3hg8wq9kkbcj",309,"167.csv","","218.30000001192093","resources/trios/L1T4A3.jpg","37","restless",0.5,0.6,0.5,0.982511196266704,"false"
"image-keyboard-response",562,436084,"0.0-4.183-1.183","fnc3hg8wq9kkbcj",309,"167.csv","","null","resources/maskTrios/L1BB.jpg","null","",NA,NA,NA,NA,""
"image-keyboard-response",563,437290,"0.0-4.183-2.183","fnc3hg8wq9kkbcj",309,"167.csv","","null","resources/images/fishbone.png","null","",NA,NA,NA,NA,""
"image-keyboard-response",564,437767,"0.0-4.184-0.184","fnc3hg8wq9kkbcj",309,"167.csv","","476.5","resources/trios/L1T4A3.jpg","39","restless",0.6,0.6,0.5,0.814110797701966,"false"
"image-keyboard-response",565,438173,"0.0-4.184-1.184","fnc3hg8wq9kkbcj",309,"167.csv","","null","resources/maskTrios/BBA3.jpg","null","",NA,NA,NA,NA,""
"image-keyboard-response",566,439378,"0.0-4.184-2.184","fnc3hg8wq9kkbcj",309,"167.csv","","null","resources/images/fishbone.png","null","",NA,NA,NA,NA,""
"image-keyboard-response",567,439623,"0.0-4.185-0.185","fnc3hg8wq9kkbcj",309,"167.csv","","243.69999998807907","resources/trios/L1T4A3.jpg","38","restless",0.6,0.6,0.5,0.934818047020505,"false"
"image-keyboard-response",568,440030,"0.0-4.185-1.185","fnc3hg8wq9kkbcj",309,"167.csv","","null","resources/maskTrios/BT4B.jpg","null","",NA,NA,NA,NA,""
"image-keyboard-response",569,441233,"0.0-4.185-2.185","fnc3hg8wq9kkbcj",309,"167.csv","","null","resources/images/fishbone.png","null","",NA,NA,NA,NA,""
"image-keyboard-response",570,441343,"0.0-4.186-0.186","fnc3hg8wq9kkbcj",309,"167.csv","","108.39999997615814","resources/trios/L1T4A3.jpg","39","restless",0.6,0.6,0.5,0.63603193318514,"false"
"image-keyboard-response",571,441759,"0.0-4.186-1.186","fnc3hg8wq9kkbcj",309,"167.csv","","null","resources/maskTrios/BBA3.jpg","null","",NA,NA,NA,NA,""
"image-keyboard-response",572,442962,"0.0-4.186-2.186","fnc3hg8wq9kkbcj",309,"167.csv","","null","resources/images/fishbone.png","null","",NA,NA,NA,NA,""
"image-keyboard-response",573,443312,"0.0-4.187-0.187","fnc3hg8wq9kkbcj",309,"167.csv","","348.2000000178814","resources/trios/L1T4A3.jpg","39","restless",0.6,0.6,0.5,0.376381526354456,"true"
"image-keyboard-response",574,443719,"0.0-4.187-1.187","fnc3hg8wq9kkbcj",309,"167.csv","","null","resources/maskTrios/BBA3.jpg","null","",NA,NA,NA,NA,""
"image-keyboard-response",575,444925,"0.0-4.187-2.187","fnc3hg8wq9kkbcj",309,"167.csv","","null","resources/images/coin2.png","null","",NA,NA,NA,NA,""
"image-keyboard-response",576,445170,"0.0-4.188-0.188","fnc3hg8wq9kkbcj",309,"167.csv","","243.2999999821186","resources/trios/L1T4A3.jpg","38","restless",0.6,0.6,0.5,0.271390028062087,"true"
"image-keyboard-response",577,445574,"0.0-4.188-1.188","fnc3hg8wq9kkbcj",309,"167.csv","","null","resources/maskTrios/BT4B.jpg","null","",NA,NA,NA,NA,""
"image-keyboard-response",578,446780,"0.0-4.188-2.188","fnc3hg8wq9kkbcj",309,"167.csv","","null","resources/images/coin2.png","null","",NA,NA,NA,NA,""
"image-keyboard-response",579,446972,"0.0-4.189-0.189","fnc3hg8wq9kkbcj",309,"167.csv","","190.30000001192093","resources/trios/L1T4A3.jpg","37","restless",0.6,0.6,0.5,0.980329216682818,"false"
"image-keyboard-response",580,447386,"0.0-4.189-1.189","fnc3hg8wq9kkbcj",309,"167.csv","","null","resources/maskTrios/L1BB.jpg","null","",NA,NA,NA,NA,""
"image-keyboard-response",581,448589,"0.0-4.189-2.189","fnc3hg8wq9kkbcj",309,"167.csv","","null","resources/images/fishbone.png","null","",NA,NA,NA,NA,""
"image-keyboard-response",582,448837,"0.0-4.190-0.190","fnc3hg8wq9kkbcj",309,"167.csv","","246.69999998807907","resources/trios/L1T4A3.jpg","39","restless",0.6,0.6,0.5,0.35207092661014,"true"
"image-keyboard-response",583,449242,"0.0-4.190-1.190","fnc3hg8wq9kkbcj",309,"167.csv","","null","resources/maskTrios/BBA3.jpg","null","",NA,NA,NA,NA,""
"image-keyboard-response",584,450457,"0.0-4.190-2.190","fnc3hg8wq9kkbcj",309,"167.csv","","null","resources/images/coin2.png","null","",NA,NA,NA,NA,""
"image-keyboard-response",585,450682,"0.0-4.191-0.191","fnc3hg8wq9kkbcj",309,"167.csv","","223.2000000178814","resources/trios/L1T4A3.jpg","38","restless",0.6,0.6,0.5,0.303570708307597,"true"
"image-keyboard-response",586,451091,"0.0-4.191-1.191","fnc3hg8wq9kkbcj",309,"167.csv","","null","resources/maskTrios/BT4B.jpg","null","",NA,NA,NA,NA,""
"image-keyboard-response",587,452306,"0.0-4.191-2.191","fnc3hg8wq9kkbcj",309,"167.csv","","null","resources/images/coin2.png","null","",NA,NA,NA,NA,""
"image-keyboard-response",588,452504,"0.0-4.192-0.192","fnc3hg8wq9kkbcj",309,"167.csv","","195.90000000596046","resources/trios/L1T4A3.jpg","38","restless",0.6,0.6,0.5,0.106847970403558,"true"
"image-keyboard-response",589,452909,"0.0-4.192-1.192","fnc3hg8wq9kkbcj",309,"167.csv","","null","resources/maskTrios/BT4B.jpg","null","",NA,NA,NA,NA,""
"image-keyboard-response",590,454112,"0.0-4.192-2.192","fnc3hg8wq9kkbcj",309,"167.csv","","null","resources/images/coin2.png","null","",NA,NA,NA,NA,""
"image-keyboard-response",591,454158,"0.0-4.193-0.193","fnc3hg8wq9kkbcj",309,"167.csv","","44.80000001192093","resources/trios/L1T4A3.jpg","39","restless",0.5,0.6,0.4,0.0535333028497036,"true"
"image-keyboard-response",592,454564,"0.0-4.193-1.193","fnc3hg8wq9kkbcj",309,"167.csv","","null","resources/maskTrios/BBA3.jpg","null","",NA,NA,NA,NA,""
"image-keyboard-response",593,455772,"0.0-4.193-2.193","fnc3hg8wq9kkbcj",309,"167.csv","","null","resources/images/coin2.png","null","",NA,NA,NA,NA,""
"image-keyboard-response",594,455846,"0.0-4.194-0.194","fnc3hg8wq9kkbcj",309,"167.csv","","72.40000000596046","resources/trios/L1T4A3.jpg","38","restless",0.5,0.6,0.4,0.846561518908023,"false"
"image-keyboard-response",595,456251,"0.0-4.194-1.194","fnc3hg8wq9kkbcj",309,"167.csv","","null","resources/maskTrios/BT4B.jpg","null","",NA,NA,NA,NA,""
"image-keyboard-response",596,457457,"0.0-4.194-2.194","fnc3hg8wq9kkbcj",309,"167.csv","","null","resources/images/fishbone.png","null","",NA,NA,NA,NA,""
"image-keyboard-response",597,457676,"0.0-4.195-0.195","fnc3hg8wq9kkbcj",309,"167.csv","","216.7000000178814","resources/trios/L1T4A3.jpg","37","restless",0.5,0.6,0.4,0.35194852631138,"true"
"image-keyboard-response",598,458092,"0.0-4.195-1.195","fnc3hg8wq9kkbcj",309,"167.csv","","null","resources/maskTrios/L1BB.jpg","null","",NA,NA,NA,NA,""
"image-keyboard-response",599,459298,"0.0-4.195-2.195","fnc3hg8wq9kkbcj",309,"167.csv","","null","resources/images/coin2.png","null","",NA,NA,NA,NA,""
"image-keyboard-response",600,459613,"0.0-4.196-0.196","fnc3hg8wq9kkbcj",309,"167.csv","","313.40000000596046","resources/trios/L1T4A3.jpg","38","restless",0.5,0.6,0.3,0.81349997635771,"false"
"image-keyboard-response",601,460024,"0.0-4.196-1.196","fnc3hg8wq9kkbcj",309,"167.csv","","null","resources/maskTrios/BT4B.jpg","null","",NA,NA,NA,NA,""
"image-keyboard-response",602,461230,"0.0-4.196-2.196","fnc3hg8wq9kkbcj",309,"167.csv","","null","resources/images/fishbone.png","null","",NA,NA,NA,NA,""
"image-keyboard-response",603,461358,"0.0-4.197-0.197","fnc3hg8wq9kkbcj",309,"167.csv","","126","resources/trios/L1T4A3.jpg","38","restless",0.5,0.7,0.3,0.442003373333655,"true"
"image-keyboard-response",604,461773,"0.0-4.197-1.197","fnc3hg8wq9kkbcj",309,"167.csv","","null","resources/maskTrios/BT4B.jpg","null","",NA,NA,NA,NA,""
"image-keyboard-response",605,462982,"0.0-4.197-2.197","fnc3hg8wq9kkbcj",309,"167.csv","","null","resources/images/coin2.png","null","",NA,NA,NA,NA,""
"image-keyboard-response",606,463213,"0.0-4.198-0.198","fnc3hg8wq9kkbcj",309,"167.csv","","228.59999999403954","resources/trios/L1T4A3.jpg","38","restless",0.5,0.8,0.3,0.503764689450255,"true"
"image-keyboard-response",607,463630,"0.0-4.198-1.198","fnc3hg8wq9kkbcj",309,"167.csv","","null","resources/maskTrios/BT4B.jpg","null","",NA,NA,NA,NA,""
