"trial_type","trial_index","time_elapsed","internal_node_id","subject","participantCode","walkNumber","success","rt","stimulus","key_press","test_part","leftProb","midProb","rightProb","generatedNum","correct"
"pavlovia",0,905,"0.0-0.0","3nzgzkxhgl2yqxq",960,"77.csv","","","","","",NA,NA,NA,NA,""
"fullscreen",1,3789,"0.0-1.0","3nzgzkxhgl2yqxq",960,"77.csv","true","","","","",NA,NA,NA,NA,""
"survey-html-form",2,9349,"0.0-2.0","3nzgzkxhgl2yqxq",960,"77.csv","","5550.0999999940395","","","",NA,NA,NA,NA,""
"image-keyboard-response",3,18255,"0.0-3.0-0.0","3nzgzkxhgl2yqxq",960,"77.csv","","8904.5","resources/images/parrot_nobg.png","13","",NA,NA,NA,NA,""
"image-keyboard-response",4,21262,"0.0-3.0-1.0","3nzgzkxhgl2yqxq",960,"77.csv","","null","resources/image_sets/111.png","null","",NA,NA,NA,NA,""
"image-keyboard-response",5,25356,"0.0-3.0-2.0","3nzgzkxhgl2yqxq",960,"77.csv","","4091.9000000059605","resources/image_sets/left_highlight.png","37","",NA,NA,NA,NA,""
"image-keyboard-response",6,28315,"0.0-3.0-3.0","3nzgzkxhgl2yqxq",960,"77.csv","","2957.5999999940395","resources/image_sets/mid_highlight.png","38","",NA,NA,NA,NA,""
"image-keyboard-response",7,30850,"0.0-3.0-4.0","3nzgzkxhgl2yqxq",960,"77.csv","","2533.300000011921","resources/image_sets/right_highlight.png","39","",NA,NA,NA,NA,""
"image-keyboard-response",8,32821,"0.0-3.0-5.0","3nzgzkxhgl2yqxq",960,"77.csv","","1970.0999999940395","resources/image_sets/111.png","13","",NA,NA,NA,NA,""
"image-keyboard-response",9,34430,"0.0-3.0-6.0","3nzgzkxhgl2yqxq",960,"77.csv","","1607.300000011921","resources/images/coin2.png","13","",NA,NA,NA,NA,""
"image-keyboard-response",10,35466,"0.0-3.0-7.0","3nzgzkxhgl2yqxq",960,"77.csv","","1035","resources/images/fishbone.png","13","",NA,NA,NA,NA,""
"html-keyboard-response",11,39222,"0.0-3.0-8.0","3nzgzkxhgl2yqxq",960,"77.csv","","3754.399999976158","<p>You can track your coin total on the top right of your screen. </p><p>At the end of your journey you will be directed to a survey, so please click on the link before exiting the task</p><p>Press Enter to begin</p>","13","",NA,NA,NA,NA,""
"image-keyboard-response",12,40435,"0.0-4.0-0.0","3nzgzkxhgl2yqxq",960,"77.csv","","1210","resources/trios/L1T2A3.jpg","39","restless",0.3,0.9,0.7,0.520039270921796,"true"
"image-keyboard-response",13,40841,"0.0-4.0-1.0","3nzgzkxhgl2yqxq",960,"77.csv","","null","resources/maskTrios/BBA3.jpg","null","",NA,NA,NA,NA,""
"image-keyboard-response",14,42048,"0.0-4.0-2.0","3nzgzkxhgl2yqxq",960,"77.csv","","null","resources/images/coin2.png","null","",NA,NA,NA,NA,""
"image-keyboard-response",15,42680,"0.0-4.1-0.1","3nzgzkxhgl2yqxq",960,"77.csv","","629.8000000119209","resources/trios/L1T2A3.jpg","38","restless",0.2,0.9,0.7,0.562303556629016,"true"
"image-keyboard-response",16,43083,"0.0-4.1-1.1","3nzgzkxhgl2yqxq",960,"77.csv","","null","resources/maskTrios/BT2B.jpg","null","",NA,NA,NA,NA,""
"image-keyboard-response",17,44290,"0.0-4.1-2.1","3nzgzkxhgl2yqxq",960,"77.csv","","null","resources/images/coin2.png","null","",NA,NA,NA,NA,""
"image-keyboard-response",18,44780,"0.0-4.2-0.2","3nzgzkxhgl2yqxq",960,"77.csv","","487.80000001192093","resources/trios/L1T2A3.jpg","37","restless",0.2,0.9,0.7,0.456436770714917,"false"
"image-keyboard-response",19,45187,"0.0-4.2-1.2","3nzgzkxhgl2yqxq",960,"77.csv","","null","resources/maskTrios/L1BB.jpg","null","",NA,NA,NA,NA,""
"image-keyboard-response",20,46392,"0.0-4.2-2.2","3nzgzkxhgl2yqxq",960,"77.csv","","null","resources/images/fishbone.png","null","",NA,NA,NA,NA,""
"image-keyboard-response",21,46797,"0.0-4.3-0.3","3nzgzkxhgl2yqxq",960,"77.csv","","403.80000001192093","resources/trios/L1T2A3.jpg","39","restless",0.2,0.9,0.7,0.0713474852503999,"true"
"image-keyboard-response",22,47204,"0.0-4.3-1.3","3nzgzkxhgl2yqxq",960,"77.csv","","null","resources/maskTrios/BBA3.jpg","null","",NA,NA,NA,NA,""
"image-keyboard-response",23,48406,"0.0-4.3-2.3","3nzgzkxhgl2yqxq",960,"77.csv","","null","resources/images/coin2.png","null","",NA,NA,NA,NA,""
"image-keyboard-response",24,48754,"0.0-4.4-0.4","3nzgzkxhgl2yqxq",960,"77.csv","","346.60000002384186","resources/trios/L1T2A3.jpg","38","restless",0.2,0.9,0.7,0.446657503053595,"true"
"image-keyboard-response",25,49162,"0.0-4.4-1.4","3nzgzkxhgl2yqxq",960,"77.csv","","null","resources/maskTrios/BT2B.jpg","null","",NA,NA,NA,NA,""
"image-keyboard-response",26,50369,"0.0-4.4-2.4","3nzgzkxhgl2yqxq",960,"77.csv","","null","resources/images/coin2.png","null","",NA,NA,NA,NA,""
"image-keyboard-response",27,50749,"0.0-4.5-0.5","3nzgzkxhgl2yqxq",960,"77.csv","","379.5","resources/trios/L1T2A3.jpg","39","restless",0.2,0.9,0.7,0.121005570619058,"true"
"image-keyboard-response",28,51153,"0.0-4.5-1.5","3nzgzkxhgl2yqxq",960,"77.csv","","null","resources/maskTrios/BBA3.jpg","null","",NA,NA,NA,NA,""
"image-keyboard-response",29,52360,"0.0-4.5-2.5","3nzgzkxhgl2yqxq",960,"77.csv","","null","resources/images/coin2.png","null","",NA,NA,NA,NA,""
"image-keyboard-response",30,52731,"0.0-4.6-0.6","3nzgzkxhgl2yqxq",960,"77.csv","","370.2000000178814","resources/trios/L1T2A3.jpg","38","restless",0.2,0.9,0.7,0.398571257048669,"true"
"image-keyboard-response",31,53136,"0.0-4.6-1.6","3nzgzkxhgl2yqxq",960,"77.csv","","null","resources/maskTrios/BT2B.jpg","null","",NA,NA,NA,NA,""
"image-keyboard-response",32,54342,"0.0-4.6-2.6","3nzgzkxhgl2yqxq",960,"77.csv","","null","resources/images/coin2.png","null","",NA,NA,NA,NA,""
"image-keyboard-response",33,54634,"0.0-4.7-0.7","3nzgzkxhgl2yqxq",960,"77.csv","","290","resources/trios/L1T2A3.jpg","38","restless",0.2,0.9,0.7,0.432942772309938,"true"
"image-keyboard-response",34,55041,"0.0-4.7-1.7","3nzgzkxhgl2yqxq",960,"77.csv","","null","resources/maskTrios/BT2B.jpg","null","",NA,NA,NA,NA,""
"image-keyboard-response",35,56247,"0.0-4.7-2.7","3nzgzkxhgl2yqxq",960,"77.csv","","null","resources/images/coin2.png","null","",NA,NA,NA,NA,""
"image-keyboard-response",36,56614,"0.0-4.8-0.8","3nzgzkxhgl2yqxq",960,"77.csv","","364.69999998807907","resources/trios/L1T2A3.jpg","39","restless",0.2,0.8,0.7,0.899347755187504,"false"
"image-keyboard-response",37,57020,"0.0-4.8-1.8","3nzgzkxhgl2yqxq",960,"77.csv","","null","resources/maskTrios/BBA3.jpg","null","",NA,NA,NA,NA,""
"image-keyboard-response",38,58226,"0.0-4.8-2.8","3nzgzkxhgl2yqxq",960,"77.csv","","null","resources/images/fishbone.png","null","",NA,NA,NA,NA,""
"image-keyboard-response",39,58472,"0.0-4.9-0.9","3nzgzkxhgl2yqxq",960,"77.csv","","244.40000000596046","resources/trios/L1T2A3.jpg","37","restless",0.2,0.8,0.7,0.175895245709484,"true"
"image-keyboard-response",40,58880,"0.0-4.9-1.9","3nzgzkxhgl2yqxq",960,"77.csv","","null","resources/maskTrios/L1BB.jpg","null","",NA,NA,NA,NA,""
"image-keyboard-response",41,60088,"0.0-4.9-2.9","3nzgzkxhgl2yqxq",960,"77.csv","","null","resources/images/coin2.png","null","",NA,NA,NA,NA,""
"image-keyboard-response",42,60394,"0.0-4.10-0.10","3nzgzkxhgl2yqxq",960,"77.csv","","305.2000000178814","resources/trios/L1T2A3.jpg","38","restless",0.2,0.7,0.7,0.805097929628889,"false"
"image-keyboard-response",43,60800,"0.0-4.10-1.10","3nzgzkxhgl2yqxq",960,"77.csv","","null","resources/maskTrios/BT2B.jpg","null","",NA,NA,NA,NA,""
"image-keyboard-response",44,62006,"0.0-4.10-2.10","3nzgzkxhgl2yqxq",960,"77.csv","","null","resources/images/fishbone.png","null","",NA,NA,NA,NA,""
"image-keyboard-response",45,62274,"0.0-4.11-0.11","3nzgzkxhgl2yqxq",960,"77.csv","","267.09999999403954","resources/trios/L1T2A3.jpg","37","restless",0.2,0.7,0.8,0.774822194686335,"false"
"image-keyboard-response",46,62681,"0.0-4.11-1.11","3nzgzkxhgl2yqxq",960,"77.csv","","null","resources/maskTrios/L1BB.jpg","null","",NA,NA,NA,NA,""
"image-keyboard-response",47,63888,"0.0-4.11-2.11","3nzgzkxhgl2yqxq",960,"77.csv","","null","resources/images/fishbone.png","null","",NA,NA,NA,NA,""
"image-keyboard-response",48,64172,"0.0-4.12-0.12","3nzgzkxhgl2yqxq",960,"77.csv","","282.59999999403954","resources/trios/L1T2A3.jpg","39","restless",0.2,0.7,0.8,0.788944361118525,"true"
"image-keyboard-response",49,64575,"0.0-4.12-1.12","3nzgzkxhgl2yqxq",960,"77.csv","","null","resources/maskTrios/BBA3.jpg","null","",NA,NA,NA,NA,""
"image-keyboard-response",50,65783,"0.0-4.12-2.12","3nzgzkxhgl2yqxq",960,"77.csv","","null","resources/images/coin2.png","null","",NA,NA,NA,NA,""
"image-keyboard-response",51,67206,"0.0-4.13-0.13","3nzgzkxhgl2yqxq",960,"77.csv","","1421.7000000178814","resources/trios/L1T2A3.jpg","39","restless",0.2,0.7,0.8,0.483291914341014,"true"
"image-keyboard-response",52,67608,"0.0-4.13-1.13","3nzgzkxhgl2yqxq",960,"77.csv","","null","resources/maskTrios/BBA3.jpg","null","",NA,NA,NA,NA,""
"image-keyboard-response",53,68815,"0.0-4.13-2.13","3nzgzkxhgl2yqxq",960,"77.csv","","null","resources/images/coin2.png","null","",NA,NA,NA,NA,""
"image-keyboard-response",54,69204,"0.0-4.14-0.14","3nzgzkxhgl2yqxq",960,"77.csv","","387.10000002384186","resources/trios/L1T2A3.jpg","38","restless",0.2,0.7,0.8,0.978542972604413,"false"
"image-keyboard-response",55,69607,"0.0-4.14-1.14","3nzgzkxhgl2yqxq",960,"77.csv","","null","resources/maskTrios/BT2B.jpg","null","",NA,NA,NA,NA,""
"image-keyboard-response",56,70815,"0.0-4.14-2.14","3nzgzkxhgl2yqxq",960,"77.csv","","null","resources/images/fishbone.png","null","",NA,NA,NA,NA,""
"image-keyboard-response",57,71154,"0.0-4.15-0.15","3nzgzkxhgl2yqxq",960,"77.csv","","337.09999999403954","resources/trios/L1T2A3.jpg","39","restless",0.2,0.7,0.8,0.0576979078387048,"true"
"image-keyboard-response",58,71560,"0.0-4.15-1.15","3nzgzkxhgl2yqxq",960,"77.csv","","null","resources/maskTrios/BBA3.jpg","null","",NA,NA,NA,NA,""
"image-keyboard-response",59,72765,"0.0-4.15-2.15","3nzgzkxhgl2yqxq",960,"77.csv","","null","resources/images/coin2.png","null","",NA,NA,NA,NA,""
"image-keyboard-response",60,73008,"0.0-4.16-0.16","3nzgzkxhgl2yqxq",960,"77.csv","","242.09999999403954","resources/trios/L1T2A3.jpg","39","restless",0.2,0.7,0.8,0.44709925329445,"true"
"image-keyboard-response",61,73414,"0.0-4.16-1.16","3nzgzkxhgl2yqxq",960,"77.csv","","null","resources/maskTrios/BBA3.jpg","null","",NA,NA,NA,NA,""
"image-keyboard-response",62,74618,"0.0-4.16-2.16","3nzgzkxhgl2yqxq",960,"77.csv","","null","resources/images/coin2.png","null","",NA,NA,NA,NA,""
"image-keyboard-response",63,74920,"0.0-4.17-0.17","3nzgzkxhgl2yqxq",960,"77.csv","","300.09999999403954","resources/trios/L1T2A3.jpg","39","restless",0.2,0.7,0.8,0.26454098666413,"true"
"image-keyboard-response",64,75324,"0.0-4.17-1.17","3nzgzkxhgl2yqxq",960,"77.csv","","null","resources/maskTrios/BBA3.jpg","null","",NA,NA,NA,NA,""
"image-keyboard-response",65,76528,"0.0-4.17-2.17","3nzgzkxhgl2yqxq",960,"77.csv","","null","resources/images/coin2.png","null","",NA,NA,NA,NA,""
"image-keyboard-response",66,76838,"0.0-4.18-0.18","3nzgzkxhgl2yqxq",960,"77.csv","","307.5","resources/trios/L1T2A3.jpg","37","restless",0.2,0.6,0.8,0.303626603182911,"false"
"image-keyboard-response",67,77244,"0.0-4.18-1.18","3nzgzkxhgl2yqxq",960,"77.csv","","null","resources/maskTrios/L1BB.jpg","null","",NA,NA,NA,NA,""
"image-keyboard-response",68,78450,"0.0-4.18-2.18","3nzgzkxhgl2yqxq",960,"77.csv","","null","resources/images/fishbone.png","null","",NA,NA,NA,NA,""
"image-keyboard-response",69,78685,"0.0-4.19-0.19","3nzgzkxhgl2yqxq",960,"77.csv","","233.19999998807907","resources/trios/L1T2A3.jpg","39","restless",0.2,0.6,0.8,0.711973568082454,"true"
"image-keyboard-response",70,79089,"0.0-4.19-1.19","3nzgzkxhgl2yqxq",960,"77.csv","","null","resources/maskTrios/BBA3.jpg","null","",NA,NA,NA,NA,""
"image-keyboard-response",71,80293,"0.0-4.19-2.19","3nzgzkxhgl2yqxq",960,"77.csv","","null","resources/images/coin2.png","null","",NA,NA,NA,NA,""
"image-keyboard-response",72,80837,"0.0-4.20-0.20","3nzgzkxhgl2yqxq",960,"77.csv","","542.5999999940395","resources/trios/L1T2A3.jpg","38","restless",0.2,0.5,0.8,0.309297806095974,"true"
"image-keyboard-response",73,81240,"0.0-4.20-1.20","3nzgzkxhgl2yqxq",960,"77.csv","","null","resources/maskTrios/BT2B.jpg","null","",NA,NA,NA,NA,""
"image-keyboard-response",74,82447,"0.0-4.20-2.20","3nzgzkxhgl2yqxq",960,"77.csv","","null","resources/images/coin2.png","null","",NA,NA,NA,NA,""
"image-keyboard-response",75,82716,"0.0-4.21-0.21","3nzgzkxhgl2yqxq",960,"77.csv","","267.80000001192093","resources/trios/L1T2A3.jpg","39","restless",0.2,0.5,0.8,0.45308657857175,"true"
"image-keyboard-response",76,83119,"0.0-4.21-1.21","3nzgzkxhgl2yqxq",960,"77.csv","","null","resources/maskTrios/BBA3.jpg","null","",NA,NA,NA,NA,""
"image-keyboard-response",77,84325,"0.0-4.21-2.21","3nzgzkxhgl2yqxq",960,"77.csv","","null","resources/images/coin2.png","null","",NA,NA,NA,NA,""
"image-keyboard-response",78,84693,"0.0-4.22-0.22","3nzgzkxhgl2yqxq",960,"77.csv","","367.2000000178814","resources/trios/L1T2A3.jpg","38","restless",0.2,0.5,0.8,0.800078357577139,"false"
"image-keyboard-response",79,85101,"0.0-4.22-1.22","3nzgzkxhgl2yqxq",960,"77.csv","","null","resources/maskTrios/BT2B.jpg","null","",NA,NA,NA,NA,""
"image-keyboard-response",80,86305,"0.0-4.22-2.22","3nzgzkxhgl2yqxq",960,"77.csv","","null","resources/images/fishbone.png","null","",NA,NA,NA,NA,""
"image-keyboard-response",81,86532,"0.0-4.23-0.23","3nzgzkxhgl2yqxq",960,"77.csv","","225.30000001192093","resources/trios/L1T2A3.jpg","39","restless",0.2,0.5,0.8,0.602030922604085,"true"
"image-keyboard-response",82,86939,"0.0-4.23-1.23","3nzgzkxhgl2yqxq",960,"77.csv","","null","resources/maskTrios/BBA3.jpg","null","",NA,NA,NA,NA,""
"image-keyboard-response",83,88142,"0.0-4.23-2.23","3nzgzkxhgl2yqxq",960,"77.csv","","null","resources/images/coin2.png","null","",NA,NA,NA,NA,""
"image-keyboard-response",84,88378,"0.0-4.24-0.24","3nzgzkxhgl2yqxq",960,"77.csv","","235.19999998807907","resources/trios/L1T2A3.jpg","37","restless",0.2,0.5,0.8,0.923964522057944,"false"
"image-keyboard-response",85,88783,"0.0-4.24-1.24","3nzgzkxhgl2yqxq",960,"77.csv","","null","resources/maskTrios/L1BB.jpg","null","",NA,NA,NA,NA,""
"image-keyboard-response",86,89988,"0.0-4.24-2.24","3nzgzkxhgl2yqxq",960,"77.csv","","null","resources/images/fishbone.png","null","",NA,NA,NA,NA,""
"image-keyboard-response",87,90260,"0.0-4.25-0.25","3nzgzkxhgl2yqxq",960,"77.csv","","269.80000001192093","resources/trios/L1T2A3.jpg","39","restless",0.2,0.5,0.8,0.025313726133871,"true"
"image-keyboard-response",88,90666,"0.0-4.25-1.25","3nzgzkxhgl2yqxq",960,"77.csv","","null","resources/maskTrios/BBA3.jpg","null","",NA,NA,NA,NA,""
"image-keyboard-response",89,91874,"0.0-4.25-2.25","3nzgzkxhgl2yqxq",960,"77.csv","","null","resources/images/coin2.png","null","",NA,NA,NA,NA,""
"image-keyboard-response",90,92235,"0.0-4.26-0.26","3nzgzkxhgl2yqxq",960,"77.csv","","359.7000000178814","resources/trios/L1T2A3.jpg","39","restless",0.2,0.5,0.9,0.690013180784786,"true"
"image-keyboard-response",91,92639,"0.0-4.26-1.26","3nzgzkxhgl2yqxq",960,"77.csv","","null","resources/maskTrios/BBA3.jpg","null","",NA,NA,NA,NA,""
"image-keyboard-response",92,93845,"0.0-4.26-2.26","3nzgzkxhgl2yqxq",960,"77.csv","","null","resources/images/coin2.png","null","",NA,NA,NA,NA,""
"image-keyboard-response",93,94179,"0.0-4.27-0.27","3nzgzkxhgl2yqxq",960,"77.csv","","331.80000001192093","resources/trios/L1T2A3.jpg","39","restless",0.2,0.5,0.9,0.353952972157028,"true"
"image-keyboard-response",94,94586,"0.0-4.27-1.27","3nzgzkxhgl2yqxq",960,"77.csv","","null","resources/maskTrios/BBA3.jpg","null","",NA,NA,NA,NA,""
"image-keyboard-response",95,95789,"0.0-4.27-2.27","3nzgzkxhgl2yqxq",960,"77.csv","","null","resources/images/coin2.png","null","",NA,NA,NA,NA,""
"image-keyboard-response",96,96071,"0.0-4.28-0.28","3nzgzkxhgl2yqxq",960,"77.csv","","280.40000000596046","resources/trios/L1T2A3.jpg","39","restless",0.2,0.5,0.9,0.239206247555754,"true"
"image-keyboard-response",97,96478,"0.0-4.28-1.28","3nzgzkxhgl2yqxq",960,"77.csv","","null","resources/maskTrios/BBA3.jpg","null","",NA,NA,NA,NA,""
"image-keyboard-response",98,97685,"0.0-4.28-2.28","3nzgzkxhgl2yqxq",960,"77.csv","","null","resources/images/coin2.png","null","",NA,NA,NA,NA,""
"image-keyboard-response",99,97985,"0.0-4.29-0.29","3nzgzkxhgl2yqxq",960,"77.csv","","298.2000000178814","resources/trios/L1T2A3.jpg","39","restless",0.3,0.5,0.9,0.611744057008494,"true"
"image-keyboard-response",100,98392,"0.0-4.29-1.29","3nzgzkxhgl2yqxq",960,"77.csv","","null","resources/maskTrios/BBA3.jpg","null","",NA,NA,NA,NA,""
"image-keyboard-response",101,99599,"0.0-4.29-2.29","3nzgzkxhgl2yqxq",960,"77.csv","","null","resources/images/coin2.png","null","",NA,NA,NA,NA,""
"image-keyboard-response",102,99872,"0.0-4.30-0.30","3nzgzkxhgl2yqxq",960,"77.csv","","270.5","resources/trios/L1T2A3.jpg","39","restless",0.3,0.5,0.9,0.341119239356189,"true"
"image-keyboard-response",103,100278,"0.0-4.30-1.30","3nzgzkxhgl2yqxq",960,"77.csv","","null","resources/maskTrios/BBA3.jpg","null","",NA,NA,NA,NA,""
"image-keyboard-response",104,101484,"0.0-4.30-2.30","3nzgzkxhgl2yqxq",960,"77.csv","","null","resources/images/coin2.png","null","",NA,NA,NA,NA,""
"image-keyboard-response",105,101721,"0.0-4.31-0.31","3nzgzkxhgl2yqxq",960,"77.csv","","235.40000000596046","resources/trios/L1T2A3.jpg","39","restless",0.3,0.5,0.9,0.737939113194898,"true"
"image-keyboard-response",106,102127,"0.0-4.31-1.31","3nzgzkxhgl2yqxq",960,"77.csv","","null","resources/maskTrios/BBA3.jpg","null","",NA,NA,NA,NA,""
"image-keyboard-response",107,103334,"0.0-4.31-2.31","3nzgzkxhgl2yqxq",960,"77.csv","","null","resources/images/coin2.png","null","",NA,NA,NA,NA,""
"image-keyboard-response",108,103576,"0.0-4.32-0.32","3nzgzkxhgl2yqxq",960,"77.csv","","241","resources/trios/L1T2A3.jpg","39","restless",0.3,0.5,0.9,0.692689399523341,"true"
"image-keyboard-response",109,103981,"0.0-4.32-1.32","3nzgzkxhgl2yqxq",960,"77.csv","","null","resources/maskTrios/BBA3.jpg","null","",NA,NA,NA,NA,""
"image-keyboard-response",110,105183,"0.0-4.32-2.32","3nzgzkxhgl2yqxq",960,"77.csv","","null","resources/images/coin2.png","null","",NA,NA,NA,NA,""
"image-keyboard-response",111,105419,"0.0-4.33-0.33","3nzgzkxhgl2yqxq",960,"77.csv","","234.90000000596046","resources/trios/L1T2A3.jpg","39","restless",0.3,0.5,0.9,0.729243705569051,"true"
"image-keyboard-response",112,105823,"0.0-4.33-1.33","3nzgzkxhgl2yqxq",960,"77.csv","","null","resources/maskTrios/BBA3.jpg","null","",NA,NA,NA,NA,""
"image-keyboard-response",113,107027,"0.0-4.33-2.33","3nzgzkxhgl2yqxq",960,"77.csv","","null","resources/images/coin2.png","null","",NA,NA,NA,NA,""
"image-keyboard-response",114,107276,"0.0-4.34-0.34","3nzgzkxhgl2yqxq",960,"77.csv","","246.40000000596046","resources/trios/L1T2A3.jpg","39","restless",0.3,0.5,0.8,0.390379353636719,"true"
"image-keyboard-response",115,107684,"0.0-4.34-1.34","3nzgzkxhgl2yqxq",960,"77.csv","","null","resources/maskTrios/BBA3.jpg","null","",NA,NA,NA,NA,""
"image-keyboard-response",116,108889,"0.0-4.34-2.34","3nzgzkxhgl2yqxq",960,"77.csv","","null","resources/images/coin2.png","null","",NA,NA,NA,NA,""
"image-keyboard-response",117,109021,"0.0-4.35-0.35","3nzgzkxhgl2yqxq",960,"77.csv","","129.7000000178814","resources/trios/L1T2A3.jpg","39","restless",0.3,0.5,0.8,0.280114911362313,"true"
"image-keyboard-response",118,109425,"0.0-4.35-1.35","3nzgzkxhgl2yqxq",960,"77.csv","","null","resources/maskTrios/BBA3.jpg","null","",NA,NA,NA,NA,""
"image-keyboard-response",119,110633,"0.0-4.35-2.35","3nzgzkxhgl2yqxq",960,"77.csv","","null","resources/images/coin2.png","null","",NA,NA,NA,NA,""
"image-keyboard-response",120,110863,"0.0-4.36-0.36","3nzgzkxhgl2yqxq",960,"77.csv","","228.2000000178814","resources/trios/L1T2A3.jpg","39","restless",0.3,0.4,0.8,0.491370481880048,"true"
"image-keyboard-response",121,111268,"0.0-4.36-1.36","3nzgzkxhgl2yqxq",960,"77.csv","","null","resources/maskTrios/BBA3.jpg","null","",NA,NA,NA,NA,""
"image-keyboard-response",122,112473,"0.0-4.36-2.36","3nzgzkxhgl2yqxq",960,"77.csv","","null","resources/images/coin2.png","null","",NA,NA,NA,NA,""
"image-keyboard-response",123,112602,"0.0-4.37-0.37","3nzgzkxhgl2yqxq",960,"77.csv","","127.5","resources/trios/L1T2A3.jpg","39","restless",0.2,0.4,0.8,0.876027657416907,"false"
"image-keyboard-response",124,113004,"0.0-4.37-1.37","3nzgzkxhgl2yqxq",960,"77.csv","","null","resources/maskTrios/BBA3.jpg","null","",NA,NA,NA,NA,""
"image-keyboard-response",125,114209,"0.0-4.37-2.37","3nzgzkxhgl2yqxq",960,"77.csv","","null","resources/images/fishbone.png","null","",NA,NA,NA,NA,""
"image-keyboard-response",126,114247,"0.0-4.38-0.38","3nzgzkxhgl2yqxq",960,"77.csv","","37.80000001192093","resources/trios/L1T2A3.jpg","37","restless",0.2,0.4,0.8,0.921129585208192,"false"
"image-keyboard-response",127,114650,"0.0-4.38-1.38","3nzgzkxhgl2yqxq",960,"77.csv","","null","resources/maskTrios/L1BB.jpg","null","",NA,NA,NA,NA,""
"image-keyboard-response",128,115856,"0.0-4.38-2.38","3nzgzkxhgl2yqxq",960,"77.csv","","null","resources/images/fishbone.png","null","",NA,NA,NA,NA,""
"image-keyboard-response",129,116066,"0.0-4.39-0.39","3nzgzkxhgl2yqxq",960,"77.csv","","208.59999999403954","resources/trios/L1T2A3.jpg","38","restless",0.2,0.4,0.8,0.188480258895358,"true"
"image-keyboard-response",130,116473,"0.0-4.39-1.39","3nzgzkxhgl2yqxq",960,"77.csv","","null","resources/maskTrios/BT2B.jpg","null","",NA,NA,NA,NA,""
"image-keyboard-response",131,117677,"0.0-4.39-2.39","3nzgzkxhgl2yqxq",960,"77.csv","","null","resources/images/coin2.png","null","",NA,NA,NA,NA,""
"image-keyboard-response",132,117939,"0.0-4.40-0.40","3nzgzkxhgl2yqxq",960,"77.csv","","260.39999997615814","resources/trios/L1T2A3.jpg","39","restless",0.2,0.5,0.7,0.342545259280111,"true"
"image-keyboard-response",133,118343,"0.0-4.40-1.40","3nzgzkxhgl2yqxq",960,"77.csv","","null","resources/maskTrios/BBA3.jpg","null","",NA,NA,NA,NA,""
"image-keyboard-response",134,119550,"0.0-4.40-2.40","3nzgzkxhgl2yqxq",960,"77.csv","","null","resources/images/coin2.png","null","",NA,NA,NA,NA,""
"image-keyboard-response",135,119802,"0.0-4.41-0.41","3nzgzkxhgl2yqxq",960,"77.csv","","250.80000001192093","resources/trios/L1T2A3.jpg","38","restless",0.2,0.5,0.7,0.321733541223125,"true"
"image-keyboard-response",136,120208,"0.0-4.41-1.41","3nzgzkxhgl2yqxq",960,"77.csv","","null","resources/maskTrios/BT2B.jpg","null","",NA,NA,NA,NA,""
"image-keyboard-response",137,121412,"0.0-4.41-2.41","3nzgzkxhgl2yqxq",960,"77.csv","","null","resources/images/coin2.png","null","",NA,NA,NA,NA,""
"image-keyboard-response",138,121684,"0.0-4.42-0.42","3nzgzkxhgl2yqxq",960,"77.csv","","269.59999999403954","resources/trios/L1T2A3.jpg","39","restless",0.2,0.5,0.7,0.137135595063981,"true"
"image-keyboard-response",139,122090,"0.0-4.42-1.42","3nzgzkxhgl2yqxq",960,"77.csv","","null","resources/maskTrios/BBA3.jpg","null","",NA,NA,NA,NA,""
"image-keyboard-response",140,123297,"0.0-4.42-2.42","3nzgzkxhgl2yqxq",960,"77.csv","","null","resources/images/coin2.png","null","",NA,NA,NA,NA,""
"image-keyboard-response",141,123567,"0.0-4.43-0.43","3nzgzkxhgl2yqxq",960,"77.csv","","268.90000000596046","resources/trios/L1T2A3.jpg","38","restless",0.2,0.5,0.7,0.101573467668186,"true"
"image-keyboard-response",142,123974,"0.0-4.43-1.43","3nzgzkxhgl2yqxq",960,"77.csv","","null","resources/maskTrios/BT2B.jpg","null","",NA,NA,NA,NA,""
"image-keyboard-response",143,125182,"0.0-4.43-2.43","3nzgzkxhgl2yqxq",960,"77.csv","","null","resources/images/coin2.png","null","",NA,NA,NA,NA,""
"image-keyboard-response",144,125454,"0.0-4.44-0.44","3nzgzkxhgl2yqxq",960,"77.csv","","271.40000000596046","resources/trios/L1T2A3.jpg","39","restless",0.2,0.5,0.7,0.342961250296662,"true"
"image-keyboard-response",145,125861,"0.0-4.44-1.44","3nzgzkxhgl2yqxq",960,"77.csv","","null","resources/maskTrios/BBA3.jpg","null","",NA,NA,NA,NA,""
"image-keyboard-response",146,127064,"0.0-4.44-2.44","3nzgzkxhgl2yqxq",960,"77.csv","","null","resources/images/coin2.png","null","",NA,NA,NA,NA,""
"image-keyboard-response",147,127352,"0.0-4.45-0.45","3nzgzkxhgl2yqxq",960,"77.csv","","286.2000000178814","resources/trios/L1T2A3.jpg","38","restless",0.1,0.5,0.7,0.530301053943692,"false"
"image-keyboard-response",148,127758,"0.0-4.45-1.45","3nzgzkxhgl2yqxq",960,"77.csv","","null","resources/maskTrios/BT2B.jpg","null","",NA,NA,NA,NA,""
"image-keyboard-response",149,128962,"0.0-4.45-2.45","3nzgzkxhgl2yqxq",960,"77.csv","","null","resources/images/fishbone.png","null","",NA,NA,NA,NA,""
"image-keyboard-response",150,129223,"0.0-4.46-0.46","3nzgzkxhgl2yqxq",960,"77.csv","","259.09999999403954","resources/trios/L1T2A3.jpg","37","restless",0.1,0.5,0.7,0.764411738291499,"false"
"image-keyboard-response",151,129630,"0.0-4.46-1.46","3nzgzkxhgl2yqxq",960,"77.csv","","null","resources/maskTrios/L1BB.jpg","null","",NA,NA,NA,NA,""
"image-keyboard-response",152,130837,"0.0-4.46-2.46","3nzgzkxhgl2yqxq",960,"77.csv","","null","resources/images/fishbone.png","null","",NA,NA,NA,NA,""
"image-keyboard-response",153,130999,"0.0-4.47-0.47","3nzgzkxhgl2yqxq",960,"77.csv","","159.90000000596046","resources/trios/L1T2A3.jpg","39","restless",0.1,0.5,0.7,0.832702149149724,"false"
"image-keyboard-response",154,131406,"0.0-4.47-1.47","3nzgzkxhgl2yqxq",960,"77.csv","","null","resources/maskTrios/BBA3.jpg","null","",NA,NA,NA,NA,""
"image-keyboard-response",155,132608,"0.0-4.47-2.47","3nzgzkxhgl2yqxq",960,"77.csv","","null","resources/images/fishbone.png","null","",NA,NA,NA,NA,""
"image-keyboard-response",156,132923,"0.0-4.48-0.48","3nzgzkxhgl2yqxq",960,"77.csv","","313.90000000596046","resources/trios/L1T2A3.jpg","37","restless",0.1,0.5,0.7,0.665792595852125,"false"
"image-keyboard-response",157,133326,"0.0-4.48-1.48","3nzgzkxhgl2yqxq",960,"77.csv","","null","resources/maskTrios/L1BB.jpg","null","",NA,NA,NA,NA,""
"image-keyboard-response",158,134531,"0.0-4.48-2.48","3nzgzkxhgl2yqxq",960,"77.csv","","null","resources/images/fishbone.png","null","",NA,NA,NA,NA,""
"image-keyboard-response",159,134759,"0.0-4.49-0.49","3nzgzkxhgl2yqxq",960,"77.csv","","226.5","resources/trios/L1T2A3.jpg","39","restless",0.1,0.5,0.7,0.0506948428054574,"true"
"image-keyboard-response",160,135166,"0.0-4.49-1.49","3nzgzkxhgl2yqxq",960,"77.csv","","null","resources/maskTrios/BBA3.jpg","null","",NA,NA,NA,NA,""
"image-keyboard-response",161,136373,"0.0-4.49-2.49","3nzgzkxhgl2yqxq",960,"77.csv","","null","resources/images/coin2.png","null","",NA,NA,NA,NA,""
"image-keyboard-response",162,136632,"0.0-4.50-0.50","3nzgzkxhgl2yqxq",960,"77.csv","","257.5","resources/trios/L1T2A3.jpg","38","restless",0.1,0.5,0.7,0.996989852684237,"false"
"image-keyboard-response",163,137039,"0.0-4.50-1.50","3nzgzkxhgl2yqxq",960,"77.csv","","null","resources/maskTrios/BT2B.jpg","null","",NA,NA,NA,NA,""
"image-keyboard-response",164,138245,"0.0-4.50-2.50","3nzgzkxhgl2yqxq",960,"77.csv","","null","resources/images/fishbone.png","null","",NA,NA,NA,NA,""
"image-keyboard-response",165,138518,"0.0-4.51-0.51","3nzgzkxhgl2yqxq",960,"77.csv","","271.09999999403954","resources/trios/L1T2A3.jpg","39","restless",0.1,0.5,0.7,0.063690057839672,"true"
"image-keyboard-response",166,138924,"0.0-4.51-1.51","3nzgzkxhgl2yqxq",960,"77.csv","","null","resources/maskTrios/BBA3.jpg","null","",NA,NA,NA,NA,""
"image-keyboard-response",167,140127,"0.0-4.51-2.51","3nzgzkxhgl2yqxq",960,"77.csv","","null","resources/images/coin2.png","null","",NA,NA,NA,NA,""
"image-keyboard-response",168,140369,"0.0-4.52-0.52","3nzgzkxhgl2yqxq",960,"77.csv","","240.90000000596046","resources/trios/L1T2A3.jpg","39","restless",0.1,0.5,0.7,0.686463126549644,"true"
"image-keyboard-response",169,140775,"0.0-4.52-1.52","3nzgzkxhgl2yqxq",960,"77.csv","","null","resources/maskTrios/BBA3.jpg","null","",NA,NA,NA,NA,""
"image-keyboard-response",170,141978,"0.0-4.52-2.52","3nzgzkxhgl2yqxq",960,"77.csv","","null","resources/images/coin2.png","null","",NA,NA,NA,NA,""
"image-keyboard-response",171,142264,"0.0-4.53-0.53","3nzgzkxhgl2yqxq",960,"77.csv","","284.2999999821186","resources/trios/L1T2A3.jpg","39","restless",0.1,0.5,0.8,0.283637871573009,"true"
"image-keyboard-response",172,142672,"0.0-4.53-1.53","3nzgzkxhgl2yqxq",960,"77.csv","","null","resources/maskTrios/BBA3.jpg","null","",NA,NA,NA,NA,""
"image-keyboard-response",173,143879,"0.0-4.53-2.53","3nzgzkxhgl2yqxq",960,"77.csv","","null","resources/images/coin2.png","null","",NA,NA,NA,NA,""
"image-keyboard-response",174,144147,"0.0-4.54-0.54","3nzgzkxhgl2yqxq",960,"77.csv","","265.80000001192093","resources/trios/L1T2A3.jpg","39","restless",0.1,0.4,0.8,0.309433139657636,"true"
"image-keyboard-response",175,144552,"0.0-4.54-1.54","3nzgzkxhgl2yqxq",960,"77.csv","","null","resources/maskTrios/BBA3.jpg","null","",NA,NA,NA,NA,""
"image-keyboard-response",176,145754,"0.0-4.54-2.54","3nzgzkxhgl2yqxq",960,"77.csv","","null","resources/images/coin2.png","null","",NA,NA,NA,NA,""
"image-keyboard-response",177,146061,"0.0-4.55-0.55","3nzgzkxhgl2yqxq",960,"77.csv","","304.7999999821186","resources/trios/L1T2A3.jpg","39","restless",0.2,0.4,0.7,0.36195369243918,"true"
"image-keyboard-response",178,146466,"0.0-4.55-1.55","3nzgzkxhgl2yqxq",960,"77.csv","","null","resources/maskTrios/BBA3.jpg","null","",NA,NA,NA,NA,""
"image-keyboard-response",179,147672,"0.0-4.55-2.55","3nzgzkxhgl2yqxq",960,"77.csv","","null","resources/images/coin2.png","null","",NA,NA,NA,NA,""
"image-keyboard-response",180,147936,"0.0-4.56-0.56","3nzgzkxhgl2yqxq",960,"77.csv","","262.59999999403954","resources/trios/L1T2A3.jpg","39","restless",0.3,0.4,0.7,0.879818807251451,"false"
"image-keyboard-response",181,148340,"0.0-4.56-1.56","3nzgzkxhgl2yqxq",960,"77.csv","","null","resources/maskTrios/BBA3.jpg","null","",NA,NA,NA,NA,""
"image-keyboard-response",182,149547,"0.0-4.56-2.56","3nzgzkxhgl2yqxq",960,"77.csv","","null","resources/images/fishbone.png","null","",NA,NA,NA,NA,""
"image-keyboard-response",183,149747,"0.0-4.57-0.57","3nzgzkxhgl2yqxq",960,"77.csv","","199.19999998807907","resources/trios/L1T2A3.jpg","37","restless",0.3,0.4,0.7,0.31129575520788,"false"
"image-keyboard-response",184,150154,"0.0-4.57-1.57","3nzgzkxhgl2yqxq",960,"77.csv","","null","resources/maskTrios/L1BB.jpg","null","",NA,NA,NA,NA,""
"image-keyboard-response",185,151361,"0.0-4.57-2.57","3nzgzkxhgl2yqxq",960,"77.csv","","null","resources/images/fishbone.png","null","",NA,NA,NA,NA,""
"image-keyboard-response",186,151529,"0.0-4.58-0.58","3nzgzkxhgl2yqxq",960,"77.csv","","166.30000001192093","resources/trios/L1T2A3.jpg","39","restless",0.3,0.4,0.7,0.91426818112741,"false"
"image-keyboard-response",187,151935,"0.0-4.58-1.58","3nzgzkxhgl2yqxq",960,"77.csv","","null","resources/maskTrios/BBA3.jpg","null","",NA,NA,NA,NA,""
"image-keyboard-response",188,153142,"0.0-4.58-2.58","3nzgzkxhgl2yqxq",960,"77.csv","","null","resources/images/fishbone.png","null","",NA,NA,NA,NA,""
"image-keyboard-response",189,153360,"0.0-4.59-0.59","3nzgzkxhgl2yqxq",960,"77.csv","","216.7000000178814","resources/trios/L1T2A3.jpg","38","restless",0.4,0.4,0.7,0.246610330596402,"true"
"image-keyboard-response",190,153766,"0.0-4.59-1.59","3nzgzkxhgl2yqxq",960,"77.csv","","null","resources/maskTrios/BT2B.jpg","null","",NA,NA,NA,NA,""
"image-keyboard-response",191,154974,"0.0-4.59-2.59","3nzgzkxhgl2yqxq",960,"77.csv","","null","resources/images/coin2.png","null","",NA,NA,NA,NA,""
"image-keyboard-response",192,155237,"0.0-4.60-0.60","3nzgzkxhgl2yqxq",960,"77.csv","","261.2999999821186","resources/trios/L1T2A3.jpg","39","restless",0.5,0.4,0.7,0.359923830442832,"true"
"image-keyboard-response",193,155642,"0.0-4.60-1.60","3nzgzkxhgl2yqxq",960,"77.csv","","null","resources/maskTrios/BBA3.jpg","null","",NA,NA,NA,NA,""
"image-keyboard-response",194,156850,"0.0-4.60-2.60","3nzgzkxhgl2yqxq",960,"77.csv","","null","resources/images/coin2.png","null","",NA,NA,NA,NA,""
"image-keyboard-response",195,157127,"0.0-4.61-0.61","3nzgzkxhgl2yqxq",960,"77.csv","","276.40000000596046","resources/trios/L1T2A3.jpg","39","restless",0.5,0.4,0.7,0.328246202057272,"true"
"image-keyboard-response",196,157529,"0.0-4.61-1.61","3nzgzkxhgl2yqxq",960,"77.csv","","null","resources/maskTrios/BBA3.jpg","null","",NA,NA,NA,NA,""
"image-keyboard-response",197,158734,"0.0-4.61-2.61","3nzgzkxhgl2yqxq",960,"77.csv","","null","resources/images/coin2.png","null","",NA,NA,NA,NA,""
"image-keyboard-response",198,159083,"0.0-4.62-0.62","3nzgzkxhgl2yqxq",960,"77.csv","","347.2999999821186","resources/trios/L1T2A3.jpg","39","restless",0.6,0.4,0.7,0.711720586458362,"false"
"image-keyboard-response",199,159486,"0.0-4.62-1.62","3nzgzkxhgl2yqxq",960,"77.csv","","null","resources/maskTrios/BBA3.jpg","null","",NA,NA,NA,NA,""
"image-keyboard-response",200,160688,"0.0-4.62-2.62","3nzgzkxhgl2yqxq",960,"77.csv","","null","resources/images/fishbone.png","null","",NA,NA,NA,NA,""
"image-keyboard-response",201,161216,"0.0-4.63-0.63","3nzgzkxhgl2yqxq",960,"77.csv","","526.0999999940395","resources/trios/L1T2A3.jpg","37","restless",0.6,0.4,0.7,0.70397377703611,"false"
"image-keyboard-response",202,161621,"0.0-4.63-1.63","3nzgzkxhgl2yqxq",960,"77.csv","","null","resources/maskTrios/L1BB.jpg","null","",NA,NA,NA,NA,""
"image-keyboard-response",203,162826,"0.0-4.63-2.63","3nzgzkxhgl2yqxq",960,"77.csv","","null","resources/images/fishbone.png","null","",NA,NA,NA,NA,""
"image-keyboard-response",204,163066,"0.0-4.64-0.64","3nzgzkxhgl2yqxq",960,"77.csv","","237.59999999403954","resources/trios/L1T2A3.jpg","39","restless",0.6,0.4,0.7,0.629527515008247,"true"
"image-keyboard-response",205,163474,"0.0-4.64-1.64","3nzgzkxhgl2yqxq",960,"77.csv","","null","resources/maskTrios/BBA3.jpg","null","",NA,NA,NA,NA,""
"image-keyboard-response",206,164681,"0.0-4.64-2.64","3nzgzkxhgl2yqxq",960,"77.csv","","null","resources/images/coin2.png","null","",NA,NA,NA,NA,""
"image-keyboard-response",207,164989,"0.0-4.65-0.65","3nzgzkxhgl2yqxq",960,"77.csv","","306.59999999403954","resources/trios/L1T2A3.jpg","39","restless",0.6,0.4,0.6,0.610816872279768,"false"
"image-keyboard-response",208,165397,"0.0-4.65-1.65","3nzgzkxhgl2yqxq",960,"77.csv","","null","resources/maskTrios/BBA3.jpg","null","",NA,NA,NA,NA,""
"image-keyboard-response",209,166604,"0.0-4.65-2.65","3nzgzkxhgl2yqxq",960,"77.csv","","null","resources/images/fishbone.png","null","",NA,NA,NA,NA,""
"image-keyboard-response",210,166861,"0.0-4.66-0.66","3nzgzkxhgl2yqxq",960,"77.csv","","255.80000001192093","resources/trios/L1T2A3.jpg","38","restless",0.6,0.4,0.6,0.829712397974478,"false"
"image-keyboard-response",211,167266,"0.0-4.66-1.66","3nzgzkxhgl2yqxq",960,"77.csv","","null","resources/maskTrios/BT2B.jpg","null","",NA,NA,NA,NA,""
"image-keyboard-response",212,168473,"0.0-4.66-2.66","3nzgzkxhgl2yqxq",960,"77.csv","","null","resources/images/fishbone.png","null","",NA,NA,NA,NA,""
"image-keyboard-response",213,168632,"0.0-4.67-0.67","3nzgzkxhgl2yqxq",960,"77.csv","","156.80000001192093","resources/trios/L1T2A3.jpg","37","restless",0.7,0.4,0.7,0.886487196588358,"false"
"image-keyboard-response",214,169035,"0.0-4.67-1.67","3nzgzkxhgl2yqxq",960,"77.csv","","null","resources/maskTrios/L1BB.jpg","null","",NA,NA,NA,NA,""
"image-keyboard-response",215,170240,"0.0-4.67-2.67","3nzgzkxhgl2yqxq",960,"77.csv","","null","resources/images/fishbone.png","null","",NA,NA,NA,NA,""
"image-keyboard-response",216,170495,"0.0-4.68-0.68","3nzgzkxhgl2yqxq",960,"77.csv","","253.09999999403954","resources/trios/L1T2A3.jpg","39","restless",0.7,0.4,0.7,0.688078212286098,"true"
"image-keyboard-response",217,170903,"0.0-4.68-1.68","3nzgzkxhgl2yqxq",960,"77.csv","","null","resources/maskTrios/BBA3.jpg","null","",NA,NA,NA,NA,""
"image-keyboard-response",218,172110,"0.0-4.68-2.68","3nzgzkxhgl2yqxq",960,"77.csv","","null","resources/images/coin2.png","null","",NA,NA,NA,NA,""
"image-keyboard-response",219,172420,"0.0-4.69-0.69","3nzgzkxhgl2yqxq",960,"77.csv","","307.89999997615814","resources/trios/L1T2A3.jpg","39","restless",0.7,0.4,0.7,0.82861801434077,"false"
"image-keyboard-response",220,172826,"0.0-4.69-1.69","3nzgzkxhgl2yqxq",960,"77.csv","","null","resources/maskTrios/BBA3.jpg","null","",NA,NA,NA,NA,""
"image-keyboard-response",221,174032,"0.0-4.69-2.69","3nzgzkxhgl2yqxq",960,"77.csv","","null","resources/images/fishbone.png","null","",NA,NA,NA,NA,""
"image-keyboard-response",222,174248,"0.0-4.70-0.70","3nzgzkxhgl2yqxq",960,"77.csv","","213.7999999821186","resources/trios/L1T2A3.jpg","38","restless",0.7,0.3,0.6,0.804981694713698,"false"
"image-keyboard-response",223,174653,"0.0-4.70-1.70","3nzgzkxhgl2yqxq",960,"77.csv","","null","resources/maskTrios/BT2B.jpg","null","",NA,NA,NA,NA,""
"image-keyboard-response",224,175859,"0.0-4.70-2.70","3nzgzkxhgl2yqxq",960,"77.csv","","null","resources/images/fishbone.png","null","",NA,NA,NA,NA,""
"image-keyboard-response",225,176025,"0.0-4.71-0.71","3nzgzkxhgl2yqxq",960,"77.csv","","165.39999997615814","resources/trios/L1T2A3.jpg","37","restless",0.7,0.3,0.6,0.196515806535983,"true"
"image-keyboard-response",226,176431,"0.0-4.71-1.71","3nzgzkxhgl2yqxq",960,"77.csv","","null","resources/maskTrios/L1BB.jpg","null","",NA,NA,NA,NA,""
"image-keyboard-response",227,177635,"0.0-4.71-2.71","3nzgzkxhgl2yqxq",960,"77.csv","","null","resources/images/coin2.png","null","",NA,NA,NA,NA,""
"image-keyboard-response",228,177856,"0.0-4.72-0.72","3nzgzkxhgl2yqxq",960,"77.csv","","219","resources/trios/L1T2A3.jpg","39","restless",0.7,0.3,0.7,0.0661570409604366,"true"
"image-keyboard-response",229,178262,"0.0-4.72-1.72","3nzgzkxhgl2yqxq",960,"77.csv","","null","resources/maskTrios/BBA3.jpg","null","",NA,NA,NA,NA,""
"image-keyboard-response",230,179465,"0.0-4.72-2.72","3nzgzkxhgl2yqxq",960,"77.csv","","null","resources/images/coin2.png","null","",NA,NA,NA,NA,""
"image-keyboard-response",231,179740,"0.0-4.73-0.73","3nzgzkxhgl2yqxq",960,"77.csv","","273.09999999403954","resources/trios/L1T2A3.jpg","37","restless",0.7,0.3,0.7,0.461386935555072,"true"
"image-keyboard-response",232,180144,"0.0-4.73-1.73","3nzgzkxhgl2yqxq",960,"77.csv","","null","resources/maskTrios/L1BB.jpg","null","",NA,NA,NA,NA,""
"image-keyboard-response",233,181347,"0.0-4.73-2.73","3nzgzkxhgl2yqxq",960,"77.csv","","null","resources/images/coin2.png","null","",NA,NA,NA,NA,""
"image-keyboard-response",234,181590,"0.0-4.74-0.74","3nzgzkxhgl2yqxq",960,"77.csv","","241.09999999403954","resources/trios/L1T2A3.jpg","39","restless",0.7,0.4,0.7,0.270341108682742,"true"
"image-keyboard-response",235,181997,"0.0-4.74-1.74","3nzgzkxhgl2yqxq",960,"77.csv","","null","resources/maskTrios/BBA3.jpg","null","",NA,NA,NA,NA,""
"image-keyboard-response",236,183204,"0.0-4.74-2.74","3nzgzkxhgl2yqxq",960,"77.csv","","null","resources/images/coin2.png","null","",NA,NA,NA,NA,""
"image-keyboard-response",237,183489,"0.0-4.75-0.75","3nzgzkxhgl2yqxq",960,"77.csv","","283.5","resources/trios/L1T2A3.jpg","37","restless",0.7,0.5,0.8,0.845878517324633,"false"
"image-keyboard-response",238,183896,"0.0-4.75-1.75","3nzgzkxhgl2yqxq",960,"77.csv","","null","resources/maskTrios/L1BB.jpg","null","",NA,NA,NA,NA,""
"image-keyboard-response",239,185103,"0.0-4.75-2.75","3nzgzkxhgl2yqxq",960,"77.csv","","null","resources/images/fishbone.png","null","",NA,NA,NA,NA,""
"image-keyboard-response",240,185374,"0.0-4.76-0.76","3nzgzkxhgl2yqxq",960,"77.csv","","269.19999998807907","resources/trios/L1T2A3.jpg","39","restless",0.7,0.5,0.8,0.389389875654198,"true"
"image-keyboard-response",241,185781,"0.0-4.76-1.76","3nzgzkxhgl2yqxq",960,"77.csv","","null","resources/maskTrios/BBA3.jpg","null","",NA,NA,NA,NA,""
"image-keyboard-response",242,186986,"0.0-4.76-2.76","3nzgzkxhgl2yqxq",960,"77.csv","","null","resources/images/coin2.png","null","",NA,NA,NA,NA,""
"image-keyboard-response",243,187257,"0.0-4.77-0.77","3nzgzkxhgl2yqxq",960,"77.csv","","269.40000000596046","resources/trios/L1T2A3.jpg","39","restless",0.7,0.5,0.8,0.617804323316531,"true"
"image-keyboard-response",244,187664,"0.0-4.77-1.77","3nzgzkxhgl2yqxq",960,"77.csv","","null","resources/maskTrios/BBA3.jpg","null","",NA,NA,NA,NA,""
"image-keyboard-response",245,188871,"0.0-4.77-2.77","3nzgzkxhgl2yqxq",960,"77.csv","","null","resources/images/coin2.png","null","",NA,NA,NA,NA,""
"image-keyboard-response",246,189174,"0.0-4.78-0.78","3nzgzkxhgl2yqxq",960,"77.csv","","301.30000001192093","resources/trios/L1T2A3.jpg","39","restless",0.7,0.6,0.8,0.0430889583828855,"true"
"image-keyboard-response",247,189581,"0.0-4.78-1.78","3nzgzkxhgl2yqxq",960,"77.csv","","null","resources/maskTrios/BBA3.jpg","null","",NA,NA,NA,NA,""
"image-keyboard-response",248,190787,"0.0-4.78-2.78","3nzgzkxhgl2yqxq",960,"77.csv","","null","resources/images/coin2.png","null","",NA,NA,NA,NA,""
"image-keyboard-response",249,191089,"0.0-4.79-0.79","3nzgzkxhgl2yqxq",960,"77.csv","","300.69999998807907","resources/trios/L1T2A3.jpg","39","restless",0.7,0.6,0.8,0.189935713650858,"true"
"image-keyboard-response",250,191497,"0.0-4.79-1.79","3nzgzkxhgl2yqxq",960,"77.csv","","null","resources/maskTrios/BBA3.jpg","null","",NA,NA,NA,NA,""
"image-keyboard-response",251,192703,"0.0-4.79-2.79","3nzgzkxhgl2yqxq",960,"77.csv","","null","resources/images/coin2.png","null","",NA,NA,NA,NA,""
"image-keyboard-response",252,192992,"0.0-4.80-0.80","3nzgzkxhgl2yqxq",960,"77.csv","","288.69999998807907","resources/trios/L1T2A3.jpg","39","restless",0.8,0.6,0.8,0.324655682332589,"true"
"image-keyboard-response",253,193400,"0.0-4.80-1.80","3nzgzkxhgl2yqxq",960,"77.csv","","null","resources/maskTrios/BBA3.jpg","null","",NA,NA,NA,NA,""
"image-keyboard-response",254,194607,"0.0-4.80-2.80","3nzgzkxhgl2yqxq",960,"77.csv","","null","resources/images/coin2.png","null","",NA,NA,NA,NA,""
"image-keyboard-response",255,194851,"0.0-4.81-0.81","3nzgzkxhgl2yqxq",960,"77.csv","","242.30000001192093","resources/trios/L1T2A3.jpg","39","restless",0.8,0.6,0.8,0.864302271191554,"false"
"image-keyboard-response",256,195255,"0.0-4.81-1.81","3nzgzkxhgl2yqxq",960,"77.csv","","null","resources/maskTrios/BBA3.jpg","null","",NA,NA,NA,NA,""
"image-keyboard-response",257,196462,"0.0-4.81-2.81","3nzgzkxhgl2yqxq",960,"77.csv","","null","resources/images/fishbone.png","null","",NA,NA,NA,NA,""
"image-keyboard-response",258,196981,"0.0-4.82-0.82","3nzgzkxhgl2yqxq",960,"77.csv","","517","resources/trios/L1T2A3.jpg","38","restless",0.8,0.6,0.8,0.0705671105006171,"true"
"image-keyboard-response",259,197388,"0.0-4.82-1.82","3nzgzkxhgl2yqxq",960,"77.csv","","null","resources/maskTrios/BT2B.jpg","null","",NA,NA,NA,NA,""
"image-keyboard-response",260,198595,"0.0-4.82-2.82","3nzgzkxhgl2yqxq",960,"77.csv","","null","resources/images/coin2.png","null","",NA,NA,NA,NA,""
"image-keyboard-response",261,198876,"0.0-4.83-0.83","3nzgzkxhgl2yqxq",960,"77.csv","","278.90000000596046","resources/trios/L1T2A3.jpg","39","restless",0.8,0.6,0.8,0.905354647282819,"false"
"image-keyboard-response",262,199283,"0.0-4.83-1.83","3nzgzkxhgl2yqxq",960,"77.csv","","null","resources/maskTrios/BBA3.jpg","null","",NA,NA,NA,NA,""
"image-keyboard-response",263,200489,"0.0-4.83-2.83","3nzgzkxhgl2yqxq",960,"77.csv","","null","resources/images/fishbone.png","null","",NA,NA,NA,NA,""
"image-keyboard-response",264,200768,"0.0-4.84-0.84","3nzgzkxhgl2yqxq",960,"77.csv","","277.7999999821186","resources/trios/L1T2A3.jpg","38","restless",0.8,0.6,0.8,0.69041139568294,"false"
"image-keyboard-response",265,201174,"0.0-4.84-1.84","3nzgzkxhgl2yqxq",960,"77.csv","","null","resources/maskTrios/BT2B.jpg","null","",NA,NA,NA,NA,""
"image-keyboard-response",266,202379,"0.0-4.84-2.84","3nzgzkxhgl2yqxq",960,"77.csv","","null","resources/images/fishbone.png","null","",NA,NA,NA,NA,""
"image-keyboard-response",267,202670,"0.0-4.85-0.85","3nzgzkxhgl2yqxq",960,"77.csv","","289","resources/trios/L1T2A3.jpg","39","restless",0.8,0.6,0.8,0.33076762835061,"true"
"image-keyboard-response",268,203073,"0.0-4.85-1.85","3nzgzkxhgl2yqxq",960,"77.csv","","null","resources/maskTrios/BBA3.jpg","null","",NA,NA,NA,NA,""
"image-keyboard-response",269,204276,"0.0-4.85-2.85","3nzgzkxhgl2yqxq",960,"77.csv","","null","resources/images/coin2.png","null","",NA,NA,NA,NA,""
"image-keyboard-response",270,204563,"0.0-4.86-0.86","3nzgzkxhgl2yqxq",960,"77.csv","","285.69999998807907","resources/trios/L1T2A3.jpg","39","restless",0.8,0.6,0.8,0.911123310202472,"false"
"image-keyboard-response",271,204970,"0.0-4.86-1.86","3nzgzkxhgl2yqxq",960,"77.csv","","null","resources/maskTrios/BBA3.jpg","null","",NA,NA,NA,NA,""
"image-keyboard-response",272,206177,"0.0-4.86-2.86","3nzgzkxhgl2yqxq",960,"77.csv","","null","resources/images/fishbone.png","null","",NA,NA,NA,NA,""
"image-keyboard-response",273,206480,"0.0-4.87-0.87","3nzgzkxhgl2yqxq",960,"77.csv","","301.2999999821186","resources/trios/L1T2A3.jpg","37","restless",0.7,0.6,0.8,0.754558470930992,"false"
"image-keyboard-response",274,206885,"0.0-4.87-1.87","3nzgzkxhgl2yqxq",960,"77.csv","","null","resources/maskTrios/L1BB.jpg","null","",NA,NA,NA,NA,""
"image-keyboard-response",275,208089,"0.0-4.87-2.87","3nzgzkxhgl2yqxq",960,"77.csv","","null","resources/images/fishbone.png","null","",NA,NA,NA,NA,""
"image-keyboard-response",276,208370,"0.0-4.88-0.88","3nzgzkxhgl2yqxq",960,"77.csv","","279.30000001192093","resources/trios/L1T2A3.jpg","39","restless",0.8,0.6,0.7,0.125216254341946,"true"
"image-keyboard-response",277,208776,"0.0-4.88-1.88","3nzgzkxhgl2yqxq",960,"77.csv","","null","resources/maskTrios/BBA3.jpg","null","",NA,NA,NA,NA,""
"image-keyboard-response",278,209983,"0.0-4.88-2.88","3nzgzkxhgl2yqxq",960,"77.csv","","null","resources/images/coin2.png","null","",NA,NA,NA,NA,""
"image-keyboard-response",279,210230,"0.0-4.89-0.89","3nzgzkxhgl2yqxq",960,"77.csv","","245.7999999821186","resources/trios/L1T2A3.jpg","39","restless",0.8,0.6,0.7,0.31181816901829,"true"
"image-keyboard-response",280,210633,"0.0-4.89-1.89","3nzgzkxhgl2yqxq",960,"77.csv","","null","resources/maskTrios/BBA3.jpg","null","",NA,NA,NA,NA,""
"image-keyboard-response",281,211840,"0.0-4.89-2.89","3nzgzkxhgl2yqxq",960,"77.csv","","null","resources/images/coin2.png","null","",NA,NA,NA,NA,""
"image-keyboard-response",282,212157,"0.0-4.90-0.90","3nzgzkxhgl2yqxq",960,"77.csv","","315.5","resources/trios/L1T2A3.jpg","39","restless",0.8,0.6,0.7,0.795058071230863,"false"
"image-keyboard-response",283,212561,"0.0-4.90-1.90","3nzgzkxhgl2yqxq",960,"77.csv","","null","resources/maskTrios/BBA3.jpg","null","",NA,NA,NA,NA,""
"image-keyboard-response",284,213768,"0.0-4.90-2.90","3nzgzkxhgl2yqxq",960,"77.csv","","null","resources/images/fishbone.png","null","",NA,NA,NA,NA,""
"image-keyboard-response",285,213987,"0.0-4.91-0.91","3nzgzkxhgl2yqxq",960,"77.csv","","216.80000001192093","resources/trios/L1T2A3.jpg","38","restless",0.8,0.6,0.7,0.538900302359348,"true"
"image-keyboard-response",286,214395,"0.0-4.91-1.91","3nzgzkxhgl2yqxq",960,"77.csv","","null","resources/maskTrios/BT2B.jpg","null","",NA,NA,NA,NA,""
"image-keyboard-response",287,215599,"0.0-4.91-2.91","3nzgzkxhgl2yqxq",960,"77.csv","","null","resources/images/coin2.png","null","",NA,NA,NA,NA,""
"image-keyboard-response",288,215882,"0.0-4.92-0.92","3nzgzkxhgl2yqxq",960,"77.csv","","281.2000000178814","resources/trios/L1T2A3.jpg","39","restless",0.8,0.6,0.7,0.574830140928015,"true"
"image-keyboard-response",289,216288,"0.0-4.92-1.92","3nzgzkxhgl2yqxq",960,"77.csv","","null","resources/maskTrios/BBA3.jpg","null","",NA,NA,NA,NA,""
"image-keyboard-response",290,217491,"0.0-4.92-2.92","3nzgzkxhgl2yqxq",960,"77.csv","","null","resources/images/coin2.png","null","",NA,NA,NA,NA,""
"image-keyboard-response",291,217982,"0.0-4.93-0.93","3nzgzkxhgl2yqxq",960,"77.csv","","490.2999999821186","resources/trios/L1T2A3.jpg","39","restless",0.8,0.6,0.7,0.721851422680361,"false"
"image-keyboard-response",292,218390,"0.0-4.93-1.93","3nzgzkxhgl2yqxq",960,"77.csv","","null","resources/maskTrios/BBA3.jpg","null","",NA,NA,NA,NA,""
"image-keyboard-response",293,219597,"0.0-4.93-2.93","3nzgzkxhgl2yqxq",960,"77.csv","","null","resources/images/fishbone.png","null","",NA,NA,NA,NA,""
"image-keyboard-response",294,219958,"0.0-4.94-0.94","3nzgzkxhgl2yqxq",960,"77.csv","","359.40000000596046","resources/trios/L1T2A3.jpg","38","restless",0.8,0.6,0.8,0.637408377146279,"false"
"image-keyboard-response",295,220365,"0.0-4.94-1.94","3nzgzkxhgl2yqxq",960,"77.csv","","null","resources/maskTrios/BT2B.jpg","null","",NA,NA,NA,NA,""
"image-keyboard-response",296,221572,"0.0-4.94-2.94","3nzgzkxhgl2yqxq",960,"77.csv","","null","resources/images/fishbone.png","null","",NA,NA,NA,NA,""
"image-keyboard-response",297,221809,"0.0-4.95-0.95","3nzgzkxhgl2yqxq",960,"77.csv","","235.5","resources/trios/L1T2A3.jpg","39","restless",0.7,0.6,0.8,0.395398162719077,"true"
"image-keyboard-response",298,222212,"0.0-4.95-1.95","3nzgzkxhgl2yqxq",960,"77.csv","","null","resources/maskTrios/BBA3.jpg","null","",NA,NA,NA,NA,""
"image-keyboard-response",299,223419,"0.0-4.95-2.95","3nzgzkxhgl2yqxq",960,"77.csv","","null","resources/images/coin2.png","null","",NA,NA,NA,NA,""
"image-keyboard-response",300,224370,"0.0-4.96-0.96","3nzgzkxhgl2yqxq",960,"77.csv","","949","resources/trios/L1T2A3.jpg","39","restless",0.7,0.6,0.8,0.0934336718474882,"true"
"image-keyboard-response",301,224773,"0.0-4.96-1.96","3nzgzkxhgl2yqxq",960,"77.csv","","null","resources/maskTrios/BBA3.jpg","null","",NA,NA,NA,NA,""
"image-keyboard-response",302,225976,"0.0-4.96-2.96","3nzgzkxhgl2yqxq",960,"77.csv","","null","resources/images/coin2.png","null","",NA,NA,NA,NA,""
"image-keyboard-response",303,226270,"0.0-4.97-0.97","3nzgzkxhgl2yqxq",960,"77.csv","","293","resources/trios/L1T2A3.jpg","39","restless",0.7,0.6,0.8,0.483727173934225,"true"
"image-keyboard-response",304,226678,"0.0-4.97-1.97","3nzgzkxhgl2yqxq",960,"77.csv","","null","resources/maskTrios/BBA3.jpg","null","",NA,NA,NA,NA,""
"image-keyboard-response",305,227885,"0.0-4.97-2.97","3nzgzkxhgl2yqxq",960,"77.csv","","null","resources/images/coin2.png","null","",NA,NA,NA,NA,""
"image-keyboard-response",306,228160,"0.0-4.98-0.98","3nzgzkxhgl2yqxq",960,"77.csv","","273.80000001192093","resources/trios/L1T2A3.jpg","39","restless",0.7,0.5,0.8,0.785696429980975,"true"
"image-keyboard-response",307,228563,"0.0-4.98-1.98","3nzgzkxhgl2yqxq",960,"77.csv","","null","resources/maskTrios/BBA3.jpg","null","",NA,NA,NA,NA,""
"image-keyboard-response",308,229766,"0.0-4.98-2.98","3nzgzkxhgl2yqxq",960,"77.csv","","null","resources/images/coin2.png","null","",NA,NA,NA,NA,""
"image-keyboard-response",309,230085,"0.0-4.99-0.99","3nzgzkxhgl2yqxq",960,"77.csv","","317.90000000596046","resources/trios/L1T2A3.jpg","39","restless",0.7,0.5,0.8,0.537494927813502,"true"
"image-keyboard-response",310,230493,"0.0-4.99-1.99","3nzgzkxhgl2yqxq",960,"77.csv","","null","resources/maskTrios/BBA3.jpg","null","",NA,NA,NA,NA,""
"image-keyboard-response",311,231700,"0.0-4.99-2.99","3nzgzkxhgl2yqxq",960,"77.csv","","null","resources/images/coin2.png","null","",NA,NA,NA,NA,""
"image-keyboard-response",312,231960,"0.0-4.100-0.100","3nzgzkxhgl2yqxq",960,"77.csv","","257.39999997615814","resources/trios/L1T2A3.jpg","39","restless",0.7,0.5,0.8,0.240542972225807,"true"
"image-keyboard-response",313,232367,"0.0-4.100-1.100","3nzgzkxhgl2yqxq",960,"77.csv","","null","resources/maskTrios/BBA3.jpg","null","",NA,NA,NA,NA,""
"image-keyboard-response",314,233574,"0.0-4.100-2.100","3nzgzkxhgl2yqxq",960,"77.csv","","null","resources/images/coin2.png","null","",NA,NA,NA,NA,""
"image-keyboard-response",315,233832,"0.0-4.101-0.101","3nzgzkxhgl2yqxq",960,"77.csv","","256.40000000596046","resources/trios/L1T2A3.jpg","39","restless",0.7,0.5,0.8,0.683484440115706,"true"
"image-keyboard-response",316,234237,"0.0-4.101-1.101","3nzgzkxhgl2yqxq",960,"77.csv","","null","resources/maskTrios/BBA3.jpg","null","",NA,NA,NA,NA,""
"image-keyboard-response",317,235444,"0.0-4.101-2.101","3nzgzkxhgl2yqxq",960,"77.csv","","null","resources/images/coin2.png","null","",NA,NA,NA,NA,""
"image-keyboard-response",318,235724,"0.0-4.102-0.102","3nzgzkxhgl2yqxq",960,"77.csv","","278.19999998807907","resources/trios/L1T2A3.jpg","39","restless",0.7,0.5,0.8,0.584852043594601,"true"
"image-keyboard-response",319,236127,"0.0-4.102-1.102","3nzgzkxhgl2yqxq",960,"77.csv","","null","resources/maskTrios/BBA3.jpg","null","",NA,NA,NA,NA,""
"image-keyboard-response",320,237333,"0.0-4.102-2.102","3nzgzkxhgl2yqxq",960,"77.csv","","null","resources/images/coin2.png","null","",NA,NA,NA,NA,""
"image-keyboard-response",321,237580,"0.0-4.103-0.103","3nzgzkxhgl2yqxq",960,"77.csv","","245.59999999403954","resources/trios/L1T2A3.jpg","39","restless",0.7,0.5,0.8,0.775507847516536,"true"
"image-keyboard-response",322,237983,"0.0-4.103-1.103","3nzgzkxhgl2yqxq",960,"77.csv","","null","resources/maskTrios/BBA3.jpg","null","",NA,NA,NA,NA,""
"image-keyboard-response",323,239188,"0.0-4.103-2.103","3nzgzkxhgl2yqxq",960,"77.csv","","null","resources/images/coin2.png","null","",NA,NA,NA,NA,""
"image-keyboard-response",324,239474,"0.0-4.104-0.104","3nzgzkxhgl2yqxq",960,"77.csv","","284.30000001192093","resources/trios/L1T2A3.jpg","39","restless",0.7,0.5,0.8,0.559385721336658,"true"
"image-keyboard-response",325,239880,"0.0-4.104-1.104","3nzgzkxhgl2yqxq",960,"77.csv","","null","resources/maskTrios/BBA3.jpg","null","",NA,NA,NA,NA,""
"image-keyboard-response",326,241083,"0.0-4.104-2.104","3nzgzkxhgl2yqxq",960,"77.csv","","null","resources/images/coin2.png","null","",NA,NA,NA,NA,""
"image-keyboard-response",327,241325,"0.0-4.105-0.105","3nzgzkxhgl2yqxq",960,"77.csv","","239.59999999403954","resources/trios/L1T2A3.jpg","39","restless",0.7,0.4,0.8,0.337634590957213,"true"
"image-keyboard-response",328,241732,"0.0-4.105-1.105","3nzgzkxhgl2yqxq",960,"77.csv","","null","resources/maskTrios/BBA3.jpg","null","",NA,NA,NA,NA,""
"image-keyboard-response",329,242939,"0.0-4.105-2.105","3nzgzkxhgl2yqxq",960,"77.csv","","null","resources/images/coin2.png","null","",NA,NA,NA,NA,""
"image-keyboard-response",330,243162,"0.0-4.106-0.106","3nzgzkxhgl2yqxq",960,"77.csv","","221.90000000596046","resources/trios/L1T2A3.jpg","39","restless",0.7,0.4,0.8,0.129105107837593,"true"
"image-keyboard-response",331,243565,"0.0-4.106-1.106","3nzgzkxhgl2yqxq",960,"77.csv","","null","resources/maskTrios/BBA3.jpg","null","",NA,NA,NA,NA,""
"image-keyboard-response",332,244767,"0.0-4.106-2.106","3nzgzkxhgl2yqxq",960,"77.csv","","null","resources/images/coin2.png","null","",NA,NA,NA,NA,""
"image-keyboard-response",333,245058,"0.0-4.107-0.107","3nzgzkxhgl2yqxq",960,"77.csv","","289.10000002384186","resources/trios/L1T2A3.jpg","39","restless",0.7,0.4,0.8,0.724712564555657,"true"
"image-keyboard-response",334,245463,"0.0-4.107-1.107","3nzgzkxhgl2yqxq",960,"77.csv","","null","resources/maskTrios/BBA3.jpg","null","",NA,NA,NA,NA,""
"image-keyboard-response",335,246669,"0.0-4.107-2.107","3nzgzkxhgl2yqxq",960,"77.csv","","null","resources/images/coin2.png","null","",NA,NA,NA,NA,""
"image-keyboard-response",336,246954,"0.0-4.108-0.108","3nzgzkxhgl2yqxq",960,"77.csv","","283.09999999403954","resources/trios/L1T2A3.jpg","39","restless",0.7,0.4,0.7,0.0678952477515686,"true"
"image-keyboard-response",337,247362,"0.0-4.108-1.108","3nzgzkxhgl2yqxq",960,"77.csv","","null","resources/maskTrios/BBA3.jpg","null","",NA,NA,NA,NA,""
"image-keyboard-response",338,248567,"0.0-4.108-2.108","3nzgzkxhgl2yqxq",960,"77.csv","","null","resources/images/coin2.png","null","",NA,NA,NA,NA,""
"image-keyboard-response",339,248866,"0.0-4.109-0.109","3nzgzkxhgl2yqxq",960,"77.csv","","297.60000002384186","resources/trios/L1T2A3.jpg","39","restless",0.7,0.4,0.7,0.506718130523262,"true"
"image-keyboard-response",340,249273,"0.0-4.109-1.109","3nzgzkxhgl2yqxq",960,"77.csv","","null","resources/maskTrios/BBA3.jpg","null","",NA,NA,NA,NA,""
"image-keyboard-response",341,250478,"0.0-4.109-2.109","3nzgzkxhgl2yqxq",960,"77.csv","","null","resources/images/coin2.png","null","",NA,NA,NA,NA,""
"image-keyboard-response",342,250748,"0.0-4.110-0.110","3nzgzkxhgl2yqxq",960,"77.csv","","268.2999999821186","resources/trios/L1T2A3.jpg","39","restless",0.7,0.4,0.7,0.851906194534129,"false"
"image-keyboard-response",343,251156,"0.0-4.110-1.110","3nzgzkxhgl2yqxq",960,"77.csv","","null","resources/maskTrios/BBA3.jpg","null","",NA,NA,NA,NA,""
"image-keyboard-response",344,252357,"0.0-4.110-2.110","3nzgzkxhgl2yqxq",960,"77.csv","","null","resources/images/fishbone.png","null","",NA,NA,NA,NA,""
"image-keyboard-response",345,252799,"0.0-4.111-0.111","3nzgzkxhgl2yqxq",960,"77.csv","","440.40000000596046","resources/trios/L1T2A3.jpg","38","restless",0.7,0.4,0.7,0.881811047309938,"false"
"image-keyboard-response",346,253205,"0.0-4.111-1.111","3nzgzkxhgl2yqxq",960,"77.csv","","null","resources/maskTrios/BT2B.jpg","null","",NA,NA,NA,NA,""
"image-keyboard-response",347,254408,"0.0-4.111-2.111","3nzgzkxhgl2yqxq",960,"77.csv","","null","resources/images/fishbone.png","null","",NA,NA,NA,NA,""
"image-keyboard-response",348,254713,"0.0-4.112-0.112","3nzgzkxhgl2yqxq",960,"77.csv","","304.39999997615814","resources/trios/L1T2A3.jpg","37","restless",0.7,0.4,0.7,0.888561127684097,"false"
"image-keyboard-response",349,255116,"0.0-4.112-1.112","3nzgzkxhgl2yqxq",960,"77.csv","","null","resources/maskTrios/L1BB.jpg","null","",NA,NA,NA,NA,""
"image-keyboard-response",350,256323,"0.0-4.112-2.112","3nzgzkxhgl2yqxq",960,"77.csv","","null","resources/images/fishbone.png","null","",NA,NA,NA,NA,""
"image-keyboard-response",351,256590,"0.0-4.113-0.113","3nzgzkxhgl2yqxq",960,"77.csv","","265.40000000596046","resources/trios/L1T2A3.jpg","39","restless",0.7,0.4,0.7,0.940845789307248,"false"
"image-keyboard-response",352,256993,"0.0-4.113-1.113","3nzgzkxhgl2yqxq",960,"77.csv","","null","resources/maskTrios/BBA3.jpg","null","",NA,NA,NA,NA,""
"image-keyboard-response",353,258201,"0.0-4.113-2.113","3nzgzkxhgl2yqxq",960,"77.csv","","null","resources/images/fishbone.png","null","",NA,NA,NA,NA,""
"image-keyboard-response",354,258463,"0.0-4.114-0.114","3nzgzkxhgl2yqxq",960,"77.csv","","260.5","resources/trios/L1T2A3.jpg","39","restless",0.7,0.4,0.7,0.951460067452035,"false"
"image-keyboard-response",355,258865,"0.0-4.114-1.114","3nzgzkxhgl2yqxq",960,"77.csv","","null","resources/maskTrios/BBA3.jpg","null","",NA,NA,NA,NA,""
"image-keyboard-response",356,260073,"0.0-4.114-2.114","3nzgzkxhgl2yqxq",960,"77.csv","","null","resources/images/fishbone.png","null","",NA,NA,NA,NA,""
"image-keyboard-response",357,260397,"0.0-4.115-0.115","3nzgzkxhgl2yqxq",960,"77.csv","","322.5","resources/trios/L1T2A3.jpg","39","restless",0.7,0.4,0.7,0.238243177005653,"true"
"image-keyboard-response",358,260804,"0.0-4.115-1.115","3nzgzkxhgl2yqxq",960,"77.csv","","null","resources/maskTrios/BBA3.jpg","null","",NA,NA,NA,NA,""
"image-keyboard-response",359,262011,"0.0-4.115-2.115","3nzgzkxhgl2yqxq",960,"77.csv","","null","resources/images/coin2.png","null","",NA,NA,NA,NA,""
"image-keyboard-response",360,262289,"0.0-4.116-0.116","3nzgzkxhgl2yqxq",960,"77.csv","","276.40000000596046","resources/trios/L1T2A3.jpg","39","restless",0.7,0.4,0.7,0.894252020903064,"false"
"image-keyboard-response",361,262693,"0.0-4.116-1.116","3nzgzkxhgl2yqxq",960,"77.csv","","null","resources/maskTrios/BBA3.jpg","null","",NA,NA,NA,NA,""
"image-keyboard-response",362,263899,"0.0-4.116-2.116","3nzgzkxhgl2yqxq",960,"77.csv","","null","resources/images/fishbone.png","null","",NA,NA,NA,NA,""
"image-keyboard-response",363,264187,"0.0-4.117-0.117","3nzgzkxhgl2yqxq",960,"77.csv","","286.40000000596046","resources/trios/L1T2A3.jpg","38","restless",0.7,0.4,0.7,0.830938798624024,"false"
"image-keyboard-response",364,264595,"0.0-4.117-1.117","3nzgzkxhgl2yqxq",960,"77.csv","","null","resources/maskTrios/BT2B.jpg","null","",NA,NA,NA,NA,""
"image-keyboard-response",365,265802,"0.0-4.117-2.117","3nzgzkxhgl2yqxq",960,"77.csv","","null","resources/images/fishbone.png","null","",NA,NA,NA,NA,""
"image-keyboard-response",366,266023,"0.0-4.118-0.118","3nzgzkxhgl2yqxq",960,"77.csv","","219.89999997615814","resources/trios/L1T2A3.jpg","39","restless",0.8,0.4,0.7,0.734624937422889,"false"
"image-keyboard-response",367,266426,"0.0-4.118-1.118","3nzgzkxhgl2yqxq",960,"77.csv","","null","resources/maskTrios/BBA3.jpg","null","",NA,NA,NA,NA,""
"image-keyboard-response",368,267633,"0.0-4.118-2.118","3nzgzkxhgl2yqxq",960,"77.csv","","null","resources/images/fishbone.png","null","",NA,NA,NA,NA,""
"image-keyboard-response",369,267863,"0.0-4.119-0.119","3nzgzkxhgl2yqxq",960,"77.csv","","227.80000001192093","resources/trios/L1T2A3.jpg","37","restless",0.8,0.4,0.7,0.387567133360898,"true"
"image-keyboard-response",370,268270,"0.0-4.119-1.119","3nzgzkxhgl2yqxq",960,"77.csv","","null","resources/maskTrios/L1BB.jpg","null","",NA,NA,NA,NA,""
"image-keyboard-response",371,269478,"0.0-4.119-2.119","3nzgzkxhgl2yqxq",960,"77.csv","","null","resources/images/coin2.png","null","",NA,NA,NA,NA,""
"image-keyboard-response",372,269761,"0.0-4.120-0.120","3nzgzkxhgl2yqxq",960,"77.csv","","282.2000000178814","resources/trios/L1T2A3.jpg","39","restless",0.8,0.4,0.7,0.846338102333476,"false"
"image-keyboard-response",373,270166,"0.0-4.120-1.120","3nzgzkxhgl2yqxq",960,"77.csv","","null","resources/maskTrios/BBA3.jpg","null","",NA,NA,NA,NA,""
"image-keyboard-response",374,271373,"0.0-4.120-2.120","3nzgzkxhgl2yqxq",960,"77.csv","","null","resources/images/fishbone.png","null","",NA,NA,NA,NA,""
"image-keyboard-response",375,271659,"0.0-4.121-0.121","3nzgzkxhgl2yqxq",960,"77.csv","","284.40000000596046","resources/trios/L1T2A3.jpg","37","restless",0.8,0.4,0.7,0.990284755652878,"false"
"image-keyboard-response",376,272064,"0.0-4.121-1.121","3nzgzkxhgl2yqxq",960,"77.csv","","null","resources/maskTrios/L1BB.jpg","null","",NA,NA,NA,NA,""
"image-keyboard-response",377,273270,"0.0-4.121-2.121","3nzgzkxhgl2yqxq",960,"77.csv","","null","resources/images/fishbone.png","null","",NA,NA,NA,NA,""
"image-keyboard-response",378,273498,"0.0-4.122-0.122","3nzgzkxhgl2yqxq",960,"77.csv","","226.30000001192093","resources/trios/L1T2A3.jpg","39","restless",0.8,0.4,0.6,0.538949797846338,"true"
"image-keyboard-response",379,273905,"0.0-4.122-1.122","3nzgzkxhgl2yqxq",960,"77.csv","","null","resources/maskTrios/BBA3.jpg","null","",NA,NA,NA,NA,""
"image-keyboard-response",380,275112,"0.0-4.122-2.122","3nzgzkxhgl2yqxq",960,"77.csv","","null","resources/images/coin2.png","null","",NA,NA,NA,NA,""
"image-keyboard-response",381,275402,"0.0-4.123-0.123","3nzgzkxhgl2yqxq",960,"77.csv","","288.30000001192093","resources/trios/L1T2A3.jpg","39","restless",0.8,0.4,0.6,0.389319856768443,"true"
"image-keyboard-response",382,275809,"0.0-4.123-1.123","3nzgzkxhgl2yqxq",960,"77.csv","","null","resources/maskTrios/BBA3.jpg","null","",NA,NA,NA,NA,""
"image-keyboard-response",383,277013,"0.0-4.123-2.123","3nzgzkxhgl2yqxq",960,"77.csv","","null","resources/images/coin2.png","null","",NA,NA,NA,NA,""
"image-keyboard-response",384,277283,"0.0-4.124-0.124","3nzgzkxhgl2yqxq",960,"77.csv","","267.80000001192093","resources/trios/L1T2A3.jpg","39","restless",0.8,0.4,0.5,0.927081923755505,"false"
"image-keyboard-response",385,277688,"0.0-4.124-1.124","3nzgzkxhgl2yqxq",960,"77.csv","","null","resources/maskTrios/BBA3.jpg","null","",NA,NA,NA,NA,""
"image-keyboard-response",386,278891,"0.0-4.124-2.124","3nzgzkxhgl2yqxq",960,"77.csv","","null","resources/images/fishbone.png","null","",NA,NA,NA,NA,""
"image-keyboard-response",387,279187,"0.0-4.125-0.125","3nzgzkxhgl2yqxq",960,"77.csv","","294.30000001192093","resources/trios/L1T2A3.jpg","38","restless",0.8,0.4,0.4,0.443213524239487,"false"
"image-keyboard-response",388,279594,"0.0-4.125-1.125","3nzgzkxhgl2yqxq",960,"77.csv","","null","resources/maskTrios/BT2B.jpg","null","",NA,NA,NA,NA,""
"image-keyboard-response",389,280800,"0.0-4.125-2.125","3nzgzkxhgl2yqxq",960,"77.csv","","null","resources/images/fishbone.png","null","",NA,NA,NA,NA,""
"image-keyboard-response",390,281031,"0.0-4.126-0.126","3nzgzkxhgl2yqxq",960,"77.csv","","230.19999998807907","resources/trios/L1T2A3.jpg","39","restless",0.8,0.4,0.4,0.309107941755948,"true"
"image-keyboard-response",391,281434,"0.0-4.126-1.126","3nzgzkxhgl2yqxq",960,"77.csv","","null","resources/maskTrios/BBA3.jpg","null","",NA,NA,NA,NA,""
"image-keyboard-response",392,282639,"0.0-4.126-2.126","3nzgzkxhgl2yqxq",960,"77.csv","","null","resources/images/coin2.png","null","",NA,NA,NA,NA,""
"image-keyboard-response",393,282899,"0.0-4.127-0.127","3nzgzkxhgl2yqxq",960,"77.csv","","258.2000000178814","resources/trios/L1T2A3.jpg","39","restless",0.8,0.4,0.4,0.981506253352085,"false"
"image-keyboard-response",394,283302,"0.0-4.127-1.127","3nzgzkxhgl2yqxq",960,"77.csv","","null","resources/maskTrios/BBA3.jpg","null","",NA,NA,NA,NA,""
"image-keyboard-response",395,284508,"0.0-4.127-2.127","3nzgzkxhgl2yqxq",960,"77.csv","","null","resources/images/fishbone.png","null","",NA,NA,NA,NA,""
"image-keyboard-response",396,284808,"0.0-4.128-0.128","3nzgzkxhgl2yqxq",960,"77.csv","","298.90000000596046","resources/trios/L1T2A3.jpg","37","restless",0.8,0.4,0.4,0.332866063312797,"true"
"image-keyboard-response",397,285216,"0.0-4.128-1.128","3nzgzkxhgl2yqxq",960,"77.csv","","null","resources/maskTrios/L1BB.jpg","null","",NA,NA,NA,NA,""
"image-keyboard-response",398,286423,"0.0-4.128-2.128","3nzgzkxhgl2yqxq",960,"77.csv","","null","resources/images/coin2.png","null","",NA,NA,NA,NA,""
"image-keyboard-response",399,286713,"0.0-4.129-0.129","3nzgzkxhgl2yqxq",960,"77.csv","","288.5","resources/trios/L1T2A3.jpg","39","restless",0.8,0.4,0.4,0.377108022783758,"true"
"image-keyboard-response",400,287116,"0.0-4.129-1.129","3nzgzkxhgl2yqxq",960,"77.csv","","null","resources/maskTrios/BBA3.jpg","null","",NA,NA,NA,NA,""
"image-keyboard-response",401,288323,"0.0-4.129-2.129","3nzgzkxhgl2yqxq",960,"77.csv","","null","resources/images/coin2.png","null","",NA,NA,NA,NA,""
"image-keyboard-response",402,288607,"0.0-4.130-0.130","3nzgzkxhgl2yqxq",960,"77.csv","","283.2999999821186","resources/trios/L1T2A3.jpg","37","restless",0.8,0.4,0.4,0.633254983012368,"true"
"image-keyboard-response",403,289011,"0.0-4.130-1.130","3nzgzkxhgl2yqxq",960,"77.csv","","null","resources/maskTrios/L1BB.jpg","null","",NA,NA,NA,NA,""
"image-keyboard-response",404,290217,"0.0-4.130-2.130","3nzgzkxhgl2yqxq",960,"77.csv","","null","resources/images/coin2.png","null","",NA,NA,NA,NA,""
"image-keyboard-response",405,290498,"0.0-4.131-0.131","3nzgzkxhgl2yqxq",960,"77.csv","","278.19999998807907","resources/trios/L1T2A3.jpg","39","restless",0.8,0.4,0.4,0.772722889161973,"false"
"image-keyboard-response",406,290904,"0.0-4.131-1.131","3nzgzkxhgl2yqxq",960,"77.csv","","null","resources/maskTrios/BBA3.jpg","null","",NA,NA,NA,NA,""
"image-keyboard-response",407,292109,"0.0-4.131-2.131","3nzgzkxhgl2yqxq",960,"77.csv","","null","resources/images/fishbone.png","null","",NA,NA,NA,NA,""
"image-keyboard-response",408,292374,"0.0-4.132-0.132","3nzgzkxhgl2yqxq",960,"77.csv","","264.09999999403954","resources/trios/L1T2A3.jpg","37","restless",0.8,0.4,0.4,0.227405129564638,"true"
"image-keyboard-response",409,292778,"0.0-4.132-1.132","3nzgzkxhgl2yqxq",960,"77.csv","","null","resources/maskTrios/L1BB.jpg","null","",NA,NA,NA,NA,""
"image-keyboard-response",410,293984,"0.0-4.132-2.132","3nzgzkxhgl2yqxq",960,"77.csv","","null","resources/images/coin2.png","null","",NA,NA,NA,NA,""
"image-keyboard-response",411,294518,"0.0-4.133-0.133","3nzgzkxhgl2yqxq",960,"77.csv","","532.2000000178814","resources/trios/L1T2A3.jpg","37","restless",0.8,0.4,0.4,0.720906604985786,"true"
"image-keyboard-response",412,294921,"0.0-4.133-1.133","3nzgzkxhgl2yqxq",960,"77.csv","","null","resources/maskTrios/L1BB.jpg","null","",NA,NA,NA,NA,""
"image-keyboard-response",413,296128,"0.0-4.133-2.133","3nzgzkxhgl2yqxq",960,"77.csv","","null","resources/images/coin2.png","null","",NA,NA,NA,NA,""
"image-keyboard-response",414,296396,"0.0-4.134-0.134","3nzgzkxhgl2yqxq",960,"77.csv","","265.60000002384186","resources/trios/L1T2A3.jpg","37","restless",0.8,0.4,0.4,0.473056722933747,"true"
"image-keyboard-response",415,296798,"0.0-4.134-1.134","3nzgzkxhgl2yqxq",960,"77.csv","","null","resources/maskTrios/L1BB.jpg","null","",NA,NA,NA,NA,""
"image-keyboard-response",416,298004,"0.0-4.134-2.134","3nzgzkxhgl2yqxq",960,"77.csv","","null","resources/images/coin2.png","null","",NA,NA,NA,NA,""
"image-keyboard-response",417,298302,"0.0-4.135-0.135","3nzgzkxhgl2yqxq",960,"77.csv","","296.40000000596046","resources/trios/L1T2A3.jpg","37","restless",0.7,0.4,0.3,0.0439117899278847,"true"
"image-keyboard-response",418,298704,"0.0-4.135-1.135","3nzgzkxhgl2yqxq",960,"77.csv","","null","resources/maskTrios/L1BB.jpg","null","",NA,NA,NA,NA,""
"image-keyboard-response",419,299912,"0.0-4.135-2.135","3nzgzkxhgl2yqxq",960,"77.csv","","null","resources/images/coin2.png","null","",NA,NA,NA,NA,""
"image-keyboard-response",420,300217,"0.0-4.136-0.136","3nzgzkxhgl2yqxq",960,"77.csv","","302.90000000596046","resources/trios/L1T2A3.jpg","37","restless",0.7,0.4,0.3,0.91330007265799,"false"
"image-keyboard-response",421,300622,"0.0-4.136-1.136","3nzgzkxhgl2yqxq",960,"77.csv","","null","resources/maskTrios/L1BB.jpg","null","",NA,NA,NA,NA,""
"image-keyboard-response",422,301829,"0.0-4.136-2.136","3nzgzkxhgl2yqxq",960,"77.csv","","null","resources/images/fishbone.png","null","",NA,NA,NA,NA,""
"image-keyboard-response",423,302104,"0.0-4.137-0.137","3nzgzkxhgl2yqxq",960,"77.csv","","273.59999999403954","resources/trios/L1T2A3.jpg","38","restless",0.7,0.4,0.3,0.0237221457207026,"true"
"image-keyboard-response",424,302512,"0.0-4.137-1.137","3nzgzkxhgl2yqxq",960,"77.csv","","null","resources/maskTrios/BT2B.jpg","null","",NA,NA,NA,NA,""
"image-keyboard-response",425,303719,"0.0-4.137-2.137","3nzgzkxhgl2yqxq",960,"77.csv","","null","resources/images/coin2.png","null","",NA,NA,NA,NA,""
"image-keyboard-response",426,303969,"0.0-4.138-0.138","3nzgzkxhgl2yqxq",960,"77.csv","","248.2000000178814","resources/trios/L1T2A3.jpg","39","restless",0.7,0.4,0.3,0.846345458368519,"false"
"image-keyboard-response",427,304376,"0.0-4.138-1.138","3nzgzkxhgl2yqxq",960,"77.csv","","null","resources/maskTrios/BBA3.jpg","null","",NA,NA,NA,NA,""
"image-keyboard-response",428,305583,"0.0-4.138-2.138","3nzgzkxhgl2yqxq",960,"77.csv","","null","resources/images/fishbone.png","null","",NA,NA,NA,NA,""
"image-keyboard-response",429,305829,"0.0-4.139-0.139","3nzgzkxhgl2yqxq",960,"77.csv","","243.60000002384186","resources/trios/L1T2A3.jpg","38","restless",0.7,0.5,0.3,0.595801209797097,"false"
"image-keyboard-response",430,306233,"0.0-4.139-1.139","3nzgzkxhgl2yqxq",960,"77.csv","","null","resources/maskTrios/BT2B.jpg","null","",NA,NA,NA,NA,""
"image-keyboard-response",431,307440,"0.0-4.139-2.139","3nzgzkxhgl2yqxq",960,"77.csv","","null","resources/images/fishbone.png","null","",NA,NA,NA,NA,""
"image-keyboard-response",432,307706,"0.0-4.140-0.140","3nzgzkxhgl2yqxq",960,"77.csv","","263.80000001192093","resources/trios/L1T2A3.jpg","39","restless",0.7,0.5,0.3,0.62348523273874,"false"
"image-keyboard-response",433,308110,"0.0-4.140-1.140","3nzgzkxhgl2yqxq",960,"77.csv","","null","resources/maskTrios/BBA3.jpg","null","",NA,NA,NA,NA,""
"image-keyboard-response",434,309314,"0.0-4.140-2.140","3nzgzkxhgl2yqxq",960,"77.csv","","null","resources/images/fishbone.png","null","",NA,NA,NA,NA,""
"image-keyboard-response",435,309521,"0.0-4.141-0.141","3nzgzkxhgl2yqxq",960,"77.csv","","204.69999998807907","resources/trios/L1T2A3.jpg","37","restless",0.7,0.5,0.3,0.979799762723295,"false"
"image-keyboard-response",436,309926,"0.0-4.141-1.141","3nzgzkxhgl2yqxq",960,"77.csv","","null","resources/maskTrios/L1BB.jpg","null","",NA,NA,NA,NA,""
"image-keyboard-response",437,311131,"0.0-4.141-2.141","3nzgzkxhgl2yqxq",960,"77.csv","","null","resources/images/fishbone.png","null","",NA,NA,NA,NA,""
"image-keyboard-response",438,311661,"0.0-4.142-0.142","3nzgzkxhgl2yqxq",960,"77.csv","","529.0999999940395","resources/trios/L1T2A3.jpg","39","restless",0.7,0.4,0.3,0.352788744173045,"false"
"image-keyboard-response",439,312067,"0.0-4.142-1.142","3nzgzkxhgl2yqxq",960,"77.csv","","null","resources/maskTrios/BBA3.jpg","null","",NA,NA,NA,NA,""
"image-keyboard-response",440,313274,"0.0-4.142-2.142","3nzgzkxhgl2yqxq",960,"77.csv","","null","resources/images/fishbone.png","null","",NA,NA,NA,NA,""
"image-keyboard-response",441,313591,"0.0-4.143-0.143","3nzgzkxhgl2yqxq",960,"77.csv","","315.40000000596046","resources/trios/L1T2A3.jpg","38","restless",0.7,0.4,0.3,0.100867024884316,"true"
"image-keyboard-response",442,313998,"0.0-4.143-1.143","3nzgzkxhgl2yqxq",960,"77.csv","","null","resources/maskTrios/BT2B.jpg","null","",NA,NA,NA,NA,""
"image-keyboard-response",443,315206,"0.0-4.143-2.143","3nzgzkxhgl2yqxq",960,"77.csv","","null","resources/images/coin2.png","null","",NA,NA,NA,NA,""
"image-keyboard-response",444,315639,"0.0-4.144-0.144","3nzgzkxhgl2yqxq",960,"77.csv","","431.30000001192093","resources/trios/L1T2A3.jpg","38","restless",0.7,0.4,0.3,0.997380677961052,"false"
"image-keyboard-response",445,316046,"0.0-4.144-1.144","3nzgzkxhgl2yqxq",960,"77.csv","","null","resources/maskTrios/BT2B.jpg","null","",NA,NA,NA,NA,""
"image-keyboard-response",446,317252,"0.0-4.144-2.144","3nzgzkxhgl2yqxq",960,"77.csv","","null","resources/images/fishbone.png","null","",NA,NA,NA,NA,""
"image-keyboard-response",447,317504,"0.0-4.145-0.145","3nzgzkxhgl2yqxq",960,"77.csv","","250.30000001192093","resources/trios/L1T2A3.jpg","39","restless",0.7,0.5,0.3,0.200744641182546,"true"
"image-keyboard-response",448,317908,"0.0-4.145-1.145","3nzgzkxhgl2yqxq",960,"77.csv","","null","resources/maskTrios/BBA3.jpg","null","",NA,NA,NA,NA,""
"image-keyboard-response",449,319115,"0.0-4.145-2.145","3nzgzkxhgl2yqxq",960,"77.csv","","null","resources/images/coin2.png","null","",NA,NA,NA,NA,""
"image-keyboard-response",450,319552,"0.0-4.146-0.146","3nzgzkxhgl2yqxq",960,"77.csv","","435.7999999821186","resources/trios/L1T2A3.jpg","39","restless",0.7,0.5,0.3,0.697132936975937,"false"
"image-keyboard-response",451,319959,"0.0-4.146-1.146","3nzgzkxhgl2yqxq",960,"77.csv","","null","resources/maskTrios/BBA3.jpg","null","",NA,NA,NA,NA,""
"image-keyboard-response",452,321166,"0.0-4.146-2.146","3nzgzkxhgl2yqxq",960,"77.csv","","null","resources/images/fishbone.png","null","",NA,NA,NA,NA,""
"image-keyboard-response",453,321596,"0.0-4.147-0.147","3nzgzkxhgl2yqxq",960,"77.csv","","428.30000001192093","resources/trios/L1T2A3.jpg","37","restless",0.7,0.5,0.3,0.215810026755244,"true"
"image-keyboard-response",454,321998,"0.0-4.147-1.147","3nzgzkxhgl2yqxq",960,"77.csv","","null","resources/maskTrios/L1BB.jpg","null","",NA,NA,NA,NA,""
"image-keyboard-response",455,323201,"0.0-4.147-2.147","3nzgzkxhgl2yqxq",960,"77.csv","","null","resources/images/coin2.png","null","",NA,NA,NA,NA,""
"image-keyboard-response",456,323479,"0.0-4.148-0.148","3nzgzkxhgl2yqxq",960,"77.csv","","277.09999999403954","resources/trios/L1T2A3.jpg","37","restless",0.7,0.5,0.3,0.499912669260999,"true"
"image-keyboard-response",457,323885,"0.0-4.148-1.148","3nzgzkxhgl2yqxq",960,"77.csv","","null","resources/maskTrios/L1BB.jpg","null","",NA,NA,NA,NA,""
"image-keyboard-response",458,325089,"0.0-4.148-2.148","3nzgzkxhgl2yqxq",960,"77.csv","","null","resources/images/coin2.png","null","",NA,NA,NA,NA,""
"image-keyboard-response",459,325488,"0.0-4.149-0.149","3nzgzkxhgl2yqxq",960,"77.csv","","398","resources/trios/L1T2A3.jpg","37","restless",0.7,0.5,0.3,0.492205108141752,"true"
"image-keyboard-response",460,325896,"0.0-4.149-1.149","3nzgzkxhgl2yqxq",960,"77.csv","","null","resources/maskTrios/L1BB.jpg","null","",NA,NA,NA,NA,""
"image-keyboard-response",461,327103,"0.0-4.149-2.149","3nzgzkxhgl2yqxq",960,"77.csv","","null","resources/images/coin2.png","null","",NA,NA,NA,NA,""
"image-keyboard-response",462,327389,"0.0-4.150-0.150","3nzgzkxhgl2yqxq",960,"77.csv","","284.59999999403954","resources/trios/L1T2A3.jpg","37","restless",0.7,0.5,0.3,0.461858656037309,"true"
"image-keyboard-response",463,327797,"0.0-4.150-1.150","3nzgzkxhgl2yqxq",960,"77.csv","","null","resources/maskTrios/L1BB.jpg","null","",NA,NA,NA,NA,""
"image-keyboard-response",464,329002,"0.0-4.150-2.150","3nzgzkxhgl2yqxq",960,"77.csv","","null","resources/images/coin2.png","null","",NA,NA,NA,NA,""
"image-keyboard-response",465,329293,"0.0-4.151-0.151","3nzgzkxhgl2yqxq",960,"77.csv","","290.19999998807907","resources/trios/L1T2A3.jpg","37","restless",0.7,0.5,0.3,0.0628801035933657,"true"
"image-keyboard-response",466,329699,"0.0-4.151-1.151","3nzgzkxhgl2yqxq",960,"77.csv","","null","resources/maskTrios/L1BB.jpg","null","",NA,NA,NA,NA,""
"image-keyboard-response",467,330905,"0.0-4.151-2.151","3nzgzkxhgl2yqxq",960,"77.csv","","null","resources/images/coin2.png","null","",NA,NA,NA,NA,""
"image-keyboard-response",468,331173,"0.0-4.152-0.152","3nzgzkxhgl2yqxq",960,"77.csv","","265.59999999403954","resources/trios/L1T2A3.jpg","37","restless",0.7,0.5,0.3,0.456768517972662,"true"
"image-keyboard-response",469,331579,"0.0-4.152-1.152","3nzgzkxhgl2yqxq",960,"77.csv","","null","resources/maskTrios/L1BB.jpg","null","",NA,NA,NA,NA,""
"image-keyboard-response",470,332780,"0.0-4.152-2.152","3nzgzkxhgl2yqxq",960,"77.csv","","null","resources/images/coin2.png","null","",NA,NA,NA,NA,""
"image-keyboard-response",471,333084,"0.0-4.153-0.153","3nzgzkxhgl2yqxq",960,"77.csv","","302.80000001192093","resources/trios/L1T2A3.jpg","37","restless",0.7,0.5,0.3,0.790124594478506,"false"
"image-keyboard-response",472,333488,"0.0-4.153-1.153","3nzgzkxhgl2yqxq",960,"77.csv","","null","resources/maskTrios/L1BB.jpg","null","",NA,NA,NA,NA,""
"image-keyboard-response",473,334693,"0.0-4.153-2.153","3nzgzkxhgl2yqxq",960,"77.csv","","null","resources/images/fishbone.png","null","",NA,NA,NA,NA,""
"image-keyboard-response",474,335000,"0.0-4.154-0.154","3nzgzkxhgl2yqxq",960,"77.csv","","305.59999999403954","resources/trios/L1T2A3.jpg","39","restless",0.6,0.5,0.3,0.293873280113187,"true"
"image-keyboard-response",475,335404,"0.0-4.154-1.154","3nzgzkxhgl2yqxq",960,"77.csv","","null","resources/maskTrios/BBA3.jpg","null","",NA,NA,NA,NA,""
"image-keyboard-response",476,336606,"0.0-4.154-2.154","3nzgzkxhgl2yqxq",960,"77.csv","","null","resources/images/coin2.png","null","",NA,NA,NA,NA,""
"image-keyboard-response",477,337322,"0.0-4.155-0.155","3nzgzkxhgl2yqxq",960,"77.csv","","714.0999999940395","resources/trios/L1T2A3.jpg","39","restless",0.6,0.5,0.3,0.625596060282168,"false"
"image-keyboard-response",478,337728,"0.0-4.155-1.155","3nzgzkxhgl2yqxq",960,"77.csv","","null","resources/maskTrios/BBA3.jpg","null","",NA,NA,NA,NA,""
"image-keyboard-response",479,338930,"0.0-4.155-2.155","3nzgzkxhgl2yqxq",960,"77.csv","","null","resources/images/fishbone.png","null","",NA,NA,NA,NA,""
"image-keyboard-response",480,339263,"0.0-4.156-0.156","3nzgzkxhgl2yqxq",960,"77.csv","","331.09999999403954","resources/trios/L1T2A3.jpg","38","restless",0.6,0.5,0.3,0.365453596246515,"true"
"image-keyboard-response",481,339668,"0.0-4.156-1.156","3nzgzkxhgl2yqxq",960,"77.csv","","null","resources/maskTrios/BT2B.jpg","null","",NA,NA,NA,NA,""
"image-keyboard-response",482,340876,"0.0-4.156-2.156","3nzgzkxhgl2yqxq",960,"77.csv","","null","resources/images/coin2.png","null","",NA,NA,NA,NA,""
"image-keyboard-response",483,341118,"0.0-4.157-0.157","3nzgzkxhgl2yqxq",960,"77.csv","","241","resources/trios/L1T2A3.jpg","39","restless",0.6,0.5,0.3,0.413209115313329,"false"
"image-keyboard-response",484,341524,"0.0-4.157-1.157","3nzgzkxhgl2yqxq",960,"77.csv","","null","resources/maskTrios/BBA3.jpg","null","",NA,NA,NA,NA,""
"image-keyboard-response",485,342731,"0.0-4.157-2.157","3nzgzkxhgl2yqxq",960,"77.csv","","null","resources/images/fishbone.png","null","",NA,NA,NA,NA,""
"image-keyboard-response",486,343042,"0.0-4.158-0.158","3nzgzkxhgl2yqxq",960,"77.csv","","308.90000000596046","resources/trios/L1T2A3.jpg","38","restless",0.6,0.5,0.4,0.583234714458782,"false"
"image-keyboard-response",487,343449,"0.0-4.158-1.158","3nzgzkxhgl2yqxq",960,"77.csv","","null","resources/maskTrios/BT2B.jpg","null","",NA,NA,NA,NA,""
"image-keyboard-response",488,344653,"0.0-4.158-2.158","3nzgzkxhgl2yqxq",960,"77.csv","","null","resources/images/fishbone.png","null","",NA,NA,NA,NA,""
"image-keyboard-response",489,344913,"0.0-4.159-0.159","3nzgzkxhgl2yqxq",960,"77.csv","","259.5","resources/trios/L1T2A3.jpg","37","restless",0.6,0.5,0.4,0.853694301815138,"false"
"image-keyboard-response",490,345320,"0.0-4.159-1.159","3nzgzkxhgl2yqxq",960,"77.csv","","null","resources/maskTrios/L1BB.jpg","null","",NA,NA,NA,NA,""
"image-keyboard-response",491,346526,"0.0-4.159-2.159","3nzgzkxhgl2yqxq",960,"77.csv","","null","resources/images/fishbone.png","null","",NA,NA,NA,NA,""
"image-keyboard-response",492,346774,"0.0-4.160-0.160","3nzgzkxhgl2yqxq",960,"77.csv","","246","resources/trios/L1T2A3.jpg","39","restless",0.6,0.5,0.3,0.60607457005449,"false"
"image-keyboard-response",493,347182,"0.0-4.160-1.160","3nzgzkxhgl2yqxq",960,"77.csv","","null","resources/maskTrios/BBA3.jpg","null","",NA,NA,NA,NA,""
"image-keyboard-response",494,348389,"0.0-4.160-2.160","3nzgzkxhgl2yqxq",960,"77.csv","","null","resources/images/fishbone.png","null","",NA,NA,NA,NA,""
"image-keyboard-response",495,348627,"0.0-4.161-0.161","3nzgzkxhgl2yqxq",960,"77.csv","","235.90000000596046","resources/trios/L1T2A3.jpg","39","restless",0.6,0.5,0.3,0.141390815910941,"true"
"image-keyboard-response",496,349030,"0.0-4.161-1.161","3nzgzkxhgl2yqxq",960,"77.csv","","null","resources/maskTrios/BBA3.jpg","null","",NA,NA,NA,NA,""
"image-keyboard-response",497,350237,"0.0-4.161-2.161","3nzgzkxhgl2yqxq",960,"77.csv","","null","resources/images/coin2.png","null","",NA,NA,NA,NA,""
"image-keyboard-response",498,350676,"0.0-4.162-0.162","3nzgzkxhgl2yqxq",960,"77.csv","","436.5","resources/trios/L1T2A3.jpg","39","restless",0.6,0.5,0.3,0.052513101757713,"true"
"image-keyboard-response",499,351078,"0.0-4.162-1.162","3nzgzkxhgl2yqxq",960,"77.csv","","null","resources/maskTrios/BBA3.jpg","null","",NA,NA,NA,NA,""
"image-keyboard-response",500,352286,"0.0-4.162-2.162","3nzgzkxhgl2yqxq",960,"77.csv","","null","resources/images/coin2.png","null","",NA,NA,NA,NA,""
"image-keyboard-response",501,352574,"0.0-4.163-0.163","3nzgzkxhgl2yqxq",960,"77.csv","","288.30000001192093","resources/trios/L1T2A3.jpg","39","restless",0.6,0.5,0.3,0.500079796783483,"false"
"image-keyboard-response",502,352976,"0.0-4.163-1.163","3nzgzkxhgl2yqxq",960,"77.csv","","null","resources/maskTrios/BBA3.jpg","null","",NA,NA,NA,NA,""
"image-keyboard-response",503,354182,"0.0-4.163-2.163","3nzgzkxhgl2yqxq",960,"77.csv","","null","resources/images/fishbone.png","null","",NA,NA,NA,NA,""
"image-keyboard-response",504,354554,"0.0-4.164-0.164","3nzgzkxhgl2yqxq",960,"77.csv","","371","resources/trios/L1T2A3.jpg","37","restless",0.6,0.5,0.3,0.812188424768037,"false"
"image-keyboard-response",505,354956,"0.0-4.164-1.164","3nzgzkxhgl2yqxq",960,"77.csv","","null","resources/maskTrios/L1BB.jpg","null","",NA,NA,NA,NA,""
"image-keyboard-response",506,356162,"0.0-4.164-2.164","3nzgzkxhgl2yqxq",960,"77.csv","","null","resources/images/fishbone.png","null","",NA,NA,NA,NA,""
"image-keyboard-response",507,356463,"0.0-4.165-0.165","3nzgzkxhgl2yqxq",960,"77.csv","","300.2000000178814","resources/trios/L1T2A3.jpg","38","restless",0.6,0.5,0.3,0.563764932380986,"false"
"image-keyboard-response",508,356867,"0.0-4.165-1.165","3nzgzkxhgl2yqxq",960,"77.csv","","null","resources/maskTrios/BT2B.jpg","null","",NA,NA,NA,NA,""
"image-keyboard-response",509,358074,"0.0-4.165-2.165","3nzgzkxhgl2yqxq",960,"77.csv","","null","resources/images/fishbone.png","null","",NA,NA,NA,NA,""
"image-keyboard-response",510,358846,"0.0-4.166-0.166","3nzgzkxhgl2yqxq",960,"77.csv","","771.5","resources/trios/L1T2A3.jpg","37","restless",0.7,0.5,0.3,0.20208446851506,"true"
"image-keyboard-response",511,359249,"0.0-4.166-1.166","3nzgzkxhgl2yqxq",960,"77.csv","","null","resources/maskTrios/L1BB.jpg","null","",NA,NA,NA,NA,""
"image-keyboard-response",512,360455,"0.0-4.166-2.166","3nzgzkxhgl2yqxq",960,"77.csv","","null","resources/images/coin2.png","null","",NA,NA,NA,NA,""
"image-keyboard-response",513,360762,"0.0-4.167-0.167","3nzgzkxhgl2yqxq",960,"77.csv","","306.7000000178814","resources/trios/L1T2A3.jpg","38","restless",0.7,0.5,0.3,0.386775149641826,"true"
"image-keyboard-response",514,361167,"0.0-4.167-1.167","3nzgzkxhgl2yqxq",960,"77.csv","","null","resources/maskTrios/BT2B.jpg","null","",NA,NA,NA,NA,""
"image-keyboard-response",515,362374,"0.0-4.167-2.167","3nzgzkxhgl2yqxq",960,"77.csv","","null","resources/images/coin2.png","null","",NA,NA,NA,NA,""
"image-keyboard-response",516,362654,"0.0-4.168-0.168","3nzgzkxhgl2yqxq",960,"77.csv","","278.30000001192093","resources/trios/L1T2A3.jpg","39","restless",0.7,0.5,0.3,0.731622239159035,"false"
"image-keyboard-response",517,363060,"0.0-4.168-1.168","3nzgzkxhgl2yqxq",960,"77.csv","","null","resources/maskTrios/BBA3.jpg","null","",NA,NA,NA,NA,""
"image-keyboard-response",518,364266,"0.0-4.168-2.168","3nzgzkxhgl2yqxq",960,"77.csv","","null","resources/images/fishbone.png","null","",NA,NA,NA,NA,""
"image-keyboard-response",519,364564,"0.0-4.169-0.169","3nzgzkxhgl2yqxq",960,"77.csv","","296","resources/trios/L1T2A3.jpg","37","restless",0.7,0.5,0.3,0.919776161566464,"false"
"image-keyboard-response",520,364968,"0.0-4.169-1.169","3nzgzkxhgl2yqxq",960,"77.csv","","null","resources/maskTrios/L1BB.jpg","null","",NA,NA,NA,NA,""
"image-keyboard-response",521,366171,"0.0-4.169-2.169","3nzgzkxhgl2yqxq",960,"77.csv","","null","resources/images/fishbone.png","null","",NA,NA,NA,NA,""
"image-keyboard-response",522,366479,"0.0-4.170-0.170","3nzgzkxhgl2yqxq",960,"77.csv","","306.30000001192093","resources/trios/L1T2A3.jpg","38","restless",0.7,0.5,0.3,0.585894978137496,"false"
"image-keyboard-response",523,366883,"0.0-4.170-1.170","3nzgzkxhgl2yqxq",960,"77.csv","","null","resources/maskTrios/BT2B.jpg","null","",NA,NA,NA,NA,""
"image-keyboard-response",524,368089,"0.0-4.170-2.170","3nzgzkxhgl2yqxq",960,"77.csv","","null","resources/images/fishbone.png","null","",NA,NA,NA,NA,""
"image-keyboard-response",525,368462,"0.0-4.171-0.171","3nzgzkxhgl2yqxq",960,"77.csv","","371.19999998807907","resources/trios/L1T2A3.jpg","38","restless",0.7,0.5,0.3,0.652775914750616,"false"
"image-keyboard-response",526,368870,"0.0-4.171-1.171","3nzgzkxhgl2yqxq",960,"77.csv","","null","resources/maskTrios/BT2B.jpg","null","",NA,NA,NA,NA,""
"image-keyboard-response",527,370074,"0.0-4.171-2.171","3nzgzkxhgl2yqxq",960,"77.csv","","null","resources/images/fishbone.png","null","",NA,NA,NA,NA,""
"image-keyboard-response",528,370379,"0.0-4.172-0.172","3nzgzkxhgl2yqxq",960,"77.csv","","303.59999999403954","resources/trios/L1T2A3.jpg","39","restless",0.7,0.5,0.3,0.82963256226257,"false"
"image-keyboard-response",529,370783,"0.0-4.172-1.172","3nzgzkxhgl2yqxq",960,"77.csv","","null","resources/maskTrios/BBA3.jpg","null","",NA,NA,NA,NA,""
"image-keyboard-response",530,371989,"0.0-4.172-2.172","3nzgzkxhgl2yqxq",960,"77.csv","","null","resources/images/fishbone.png","null","",NA,NA,NA,NA,""
"image-keyboard-response",531,372233,"0.0-4.173-0.173","3nzgzkxhgl2yqxq",960,"77.csv","","242.30000001192093","resources/trios/L1T2A3.jpg","37","restless",0.7,0.5,0.3,0.0582790680114966,"true"
"image-keyboard-response",532,372640,"0.0-4.173-1.173","3nzgzkxhgl2yqxq",960,"77.csv","","null","resources/maskTrios/L1BB.jpg","null","",NA,NA,NA,NA,""
"image-keyboard-response",533,373847,"0.0-4.173-2.173","3nzgzkxhgl2yqxq",960,"77.csv","","null","resources/images/coin2.png","null","",NA,NA,NA,NA,""
"image-keyboard-response",534,374138,"0.0-4.174-0.174","3nzgzkxhgl2yqxq",960,"77.csv","","288.89999997615814","resources/trios/L1T2A3.jpg","37","restless",0.7,0.5,0.3,0.644061542174864,"true"
"image-keyboard-response",535,374544,"0.0-4.174-1.174","3nzgzkxhgl2yqxq",960,"77.csv","","null","resources/maskTrios/L1BB.jpg","null","",NA,NA,NA,NA,""
"image-keyboard-response",536,375752,"0.0-4.174-2.174","3nzgzkxhgl2yqxq",960,"77.csv","","null","resources/images/coin2.png","null","",NA,NA,NA,NA,""
"image-keyboard-response",537,376445,"0.0-4.175-0.175","3nzgzkxhgl2yqxq",960,"77.csv","","691.9000000059605","resources/trios/L1T2A3.jpg","37","restless",0.6,0.5,0.2,0.730931965265811,"false"
"image-keyboard-response",538,376851,"0.0-4.175-1.175","3nzgzkxhgl2yqxq",960,"77.csv","","null","resources/maskTrios/L1BB.jpg","null","",NA,NA,NA,NA,""
"image-keyboard-response",539,378055,"0.0-4.175-2.175","3nzgzkxhgl2yqxq",960,"77.csv","","null","resources/images/fishbone.png","null","",NA,NA,NA,NA,""
"image-keyboard-response",540,378353,"0.0-4.176-0.176","3nzgzkxhgl2yqxq",960,"77.csv","","296.30000001192093","resources/trios/L1T2A3.jpg","39","restless",0.6,0.5,0.3,0.288945110977437,"true"
"image-keyboard-response",541,378760,"0.0-4.176-1.176","3nzgzkxhgl2yqxq",960,"77.csv","","null","resources/maskTrios/BBA3.jpg","null","",NA,NA,NA,NA,""
"image-keyboard-response",542,379962,"0.0-4.176-2.176","3nzgzkxhgl2yqxq",960,"77.csv","","null","resources/images/coin2.png","null","",NA,NA,NA,NA,""
"image-keyboard-response",543,380247,"0.0-4.177-0.177","3nzgzkxhgl2yqxq",960,"77.csv","","283.09999999403954","resources/trios/L1T2A3.jpg","39","restless",0.6,0.5,0.3,0.0492290106799811,"true"
"image-keyboard-response",544,380654,"0.0-4.177-1.177","3nzgzkxhgl2yqxq",960,"77.csv","","null","resources/maskTrios/BBA3.jpg","null","",NA,NA,NA,NA,""
"image-keyboard-response",545,381862,"0.0-4.177-2.177","3nzgzkxhgl2yqxq",960,"77.csv","","null","resources/images/coin2.png","null","",NA,NA,NA,NA,""
"image-keyboard-response",546,382147,"0.0-4.178-0.178","3nzgzkxhgl2yqxq",960,"77.csv","","282.90000000596046","resources/trios/L1T2A3.jpg","38","restless",0.6,0.5,0.3,0.769599574290603,"false"
"image-keyboard-response",547,382550,"0.0-4.178-1.178","3nzgzkxhgl2yqxq",960,"77.csv","","null","resources/maskTrios/BT2B.jpg","null","",NA,NA,NA,NA,""
"image-keyboard-response",548,383756,"0.0-4.178-2.178","3nzgzkxhgl2yqxq",960,"77.csv","","null","resources/images/fishbone.png","null","",NA,NA,NA,NA,""
"image-keyboard-response",549,383979,"0.0-4.179-0.179","3nzgzkxhgl2yqxq",960,"77.csv","","220.7999999821186","resources/trios/L1T2A3.jpg","39","restless",0.6,0.5,0.3,0.805579383218326,"false"
"image-keyboard-response",550,384386,"0.0-4.179-1.179","3nzgzkxhgl2yqxq",960,"77.csv","","null","resources/maskTrios/BBA3.jpg","null","",NA,NA,NA,NA,""
"image-keyboard-response",551,385593,"0.0-4.179-2.179","3nzgzkxhgl2yqxq",960,"77.csv","","null","resources/images/fishbone.png","null","",NA,NA,NA,NA,""
"image-keyboard-response",552,386200,"0.0-4.180-0.180","3nzgzkxhgl2yqxq",960,"77.csv","","605.5","resources/trios/L1T2A3.jpg","37","restless",0.6,0.5,0.3,0.804087439507694,"false"
"image-keyboard-response",553,386603,"0.0-4.180-1.180","3nzgzkxhgl2yqxq",960,"77.csv","","null","resources/maskTrios/L1BB.jpg","null","",NA,NA,NA,NA,""
"image-keyboard-response",554,387809,"0.0-4.180-2.180","3nzgzkxhgl2yqxq",960,"77.csv","","null","resources/images/fishbone.png","null","",NA,NA,NA,NA,""
"image-keyboard-response",555,388081,"0.0-4.181-0.181","3nzgzkxhgl2yqxq",960,"77.csv","","270.2999999821186","resources/trios/L1T2A3.jpg","39","restless",0.6,0.5,0.3,0.547345015315122,"false"
"image-keyboard-response",556,388485,"0.0-4.181-1.181","3nzgzkxhgl2yqxq",960,"77.csv","","null","resources/maskTrios/BBA3.jpg","null","",NA,NA,NA,NA,""
"image-keyboard-response",557,389687,"0.0-4.181-2.181","3nzgzkxhgl2yqxq",960,"77.csv","","null","resources/images/fishbone.png","null","",NA,NA,NA,NA,""
"image-keyboard-response",558,389900,"0.0-4.182-0.182","3nzgzkxhgl2yqxq",960,"77.csv","","210.80000001192093","resources/trios/L1T2A3.jpg","38","restless",0.5,0.5,0.3,0.634486178503752,"false"
"image-keyboard-response",559,390307,"0.0-4.182-1.182","3nzgzkxhgl2yqxq",960,"77.csv","","null","resources/maskTrios/BT2B.jpg","null","",NA,NA,NA,NA,""
"image-keyboard-response",560,391514,"0.0-4.182-2.182","3nzgzkxhgl2yqxq",960,"77.csv","","null","resources/images/fishbone.png","null","",NA,NA,NA,NA,""
"image-keyboard-response",561,391603,"0.0-4.183-0.183","3nzgzkxhgl2yqxq",960,"77.csv","","87","resources/trios/L1T2A3.jpg","39","restless",0.5,0.5,0.3,0.28573855270793,"true"
"image-keyboard-response",562,392007,"0.0-4.183-1.183","3nzgzkxhgl2yqxq",960,"77.csv","","null","resources/maskTrios/BBA3.jpg","null","",NA,NA,NA,NA,""
"image-keyboard-response",563,393214,"0.0-4.183-2.183","3nzgzkxhgl2yqxq",960,"77.csv","","null","resources/images/coin2.png","null","",NA,NA,NA,NA,""
"image-keyboard-response",564,393509,"0.0-4.184-0.184","3nzgzkxhgl2yqxq",960,"77.csv","","293.30000001192093","resources/trios/L1T2A3.jpg","39","restless",0.5,0.5,0.3,0.449871001853187,"false"
"image-keyboard-response",565,393917,"0.0-4.184-1.184","3nzgzkxhgl2yqxq",960,"77.csv","","null","resources/maskTrios/BBA3.jpg","null","",NA,NA,NA,NA,""
"image-keyboard-response",566,395118,"0.0-4.184-2.184","3nzgzkxhgl2yqxq",960,"77.csv","","null","resources/images/fishbone.png","null","",NA,NA,NA,NA,""
"image-keyboard-response",567,395577,"0.0-4.185-0.185","3nzgzkxhgl2yqxq",960,"77.csv","","457.30000001192093","resources/trios/L1T2A3.jpg","37","restless",0.5,0.6,0.3,0.930312739087782,"false"
"image-keyboard-response",568,395981,"0.0-4.185-1.185","3nzgzkxhgl2yqxq",960,"77.csv","","null","resources/maskTrios/L1BB.jpg","null","",NA,NA,NA,NA,""
"image-keyboard-response",569,397183,"0.0-4.185-2.185","3nzgzkxhgl2yqxq",960,"77.csv","","null","resources/images/fishbone.png","null","",NA,NA,NA,NA,""
"image-keyboard-response",570,397475,"0.0-4.186-0.186","3nzgzkxhgl2yqxq",960,"77.csv","","289.59999999403954","resources/trios/L1T2A3.jpg","39","restless",0.5,0.6,0.3,0.032990490933122,"true"
"image-keyboard-response",571,397883,"0.0-4.186-1.186","3nzgzkxhgl2yqxq",960,"77.csv","","null","resources/maskTrios/BBA3.jpg","null","",NA,NA,NA,NA,""
"image-keyboard-response",572,399087,"0.0-4.186-2.186","3nzgzkxhgl2yqxq",960,"77.csv","","null","resources/images/coin2.png","null","",NA,NA,NA,NA,""
"image-keyboard-response",573,399795,"0.0-4.187-0.187","3nzgzkxhgl2yqxq",960,"77.csv","","706.0999999940395","resources/trios/L1T2A3.jpg","37","restless",0.5,0.6,0.3,0.472848825664508,"true"
"image-keyboard-response",574,400201,"0.0-4.187-1.187","3nzgzkxhgl2yqxq",960,"77.csv","","null","resources/maskTrios/L1BB.jpg","null","",NA,NA,NA,NA,""
"image-keyboard-response",575,401408,"0.0-4.187-2.187","3nzgzkxhgl2yqxq",960,"77.csv","","null","resources/images/coin2.png","null","",NA,NA,NA,NA,""
"image-keyboard-response",576,402345,"0.0-4.188-0.188","3nzgzkxhgl2yqxq",960,"77.csv","","935.0999999940395","resources/trios/L1T2A3.jpg","39","restless",0.4,0.6,0.3,0.196536997109023,"true"
"image-keyboard-response",577,402750,"0.0-4.188-1.188","3nzgzkxhgl2yqxq",960,"77.csv","","null","resources/maskTrios/BBA3.jpg","null","",NA,NA,NA,NA,""
"image-keyboard-response",578,403955,"0.0-4.188-2.188","3nzgzkxhgl2yqxq",960,"77.csv","","null","resources/images/coin2.png","null","",NA,NA,NA,NA,""
"image-keyboard-response",579,404281,"0.0-4.189-0.189","3nzgzkxhgl2yqxq",960,"77.csv","","324.69999998807907","resources/trios/L1T2A3.jpg","37","restless",0.4,0.6,0.3,0.175199630398169,"true"
"image-keyboard-response",580,404686,"0.0-4.189-1.189","3nzgzkxhgl2yqxq",960,"77.csv","","null","resources/maskTrios/L1BB.jpg","null","",NA,NA,NA,NA,""
"image-keyboard-response",581,405891,"0.0-4.189-2.189","3nzgzkxhgl2yqxq",960,"77.csv","","null","resources/images/coin2.png","null","",NA,NA,NA,NA,""
"image-keyboard-response",582,406191,"0.0-4.190-0.190","3nzgzkxhgl2yqxq",960,"77.csv","","298.7000000178814","resources/trios/L1T2A3.jpg","39","restless",0.4,0.6,0.3,0.782356664763225,"false"
"image-keyboard-response",583,406598,"0.0-4.190-1.190","3nzgzkxhgl2yqxq",960,"77.csv","","null","resources/maskTrios/BBA3.jpg","null","",NA,NA,NA,NA,""
"image-keyboard-response",584,407802,"0.0-4.190-2.190","3nzgzkxhgl2yqxq",960,"77.csv","","null","resources/images/fishbone.png","null","",NA,NA,NA,NA,""
"image-keyboard-response",585,408160,"0.0-4.191-0.191","3nzgzkxhgl2yqxq",960,"77.csv","","355.7000000178814","resources/trios/L1T2A3.jpg","37","restless",0.4,0.6,0.3,0.901602552475071,"false"
"image-keyboard-response",586,408567,"0.0-4.191-1.191","3nzgzkxhgl2yqxq",960,"77.csv","","null","resources/maskTrios/L1BB.jpg","null","",NA,NA,NA,NA,""
"image-keyboard-response",587,409769,"0.0-4.191-2.191","3nzgzkxhgl2yqxq",960,"77.csv","","null","resources/images/fishbone.png","null","",NA,NA,NA,NA,""
"image-keyboard-response",588,410043,"0.0-4.192-0.192","3nzgzkxhgl2yqxq",960,"77.csv","","272.2000000178814","resources/trios/L1T2A3.jpg","38","restless",0.5,0.6,0.3,0.438695791490346,"true"
"image-keyboard-response",589,410447,"0.0-4.192-1.192","3nzgzkxhgl2yqxq",960,"77.csv","","null","resources/maskTrios/BT2B.jpg","null","",NA,NA,NA,NA,""
"image-keyboard-response",590,411654,"0.0-4.192-2.192","3nzgzkxhgl2yqxq",960,"77.csv","","null","resources/images/coin2.png","null","",NA,NA,NA,NA,""
"image-keyboard-response",591,411958,"0.0-4.193-0.193","3nzgzkxhgl2yqxq",960,"77.csv","","302.30000001192093","resources/trios/L1T2A3.jpg","38","restless",0.5,0.6,0.3,0.391164972632033,"true"
"image-keyboard-response",592,412361,"0.0-4.193-1.193","3nzgzkxhgl2yqxq",960,"77.csv","","null","resources/maskTrios/BT2B.jpg","null","",NA,NA,NA,NA,""
"image-keyboard-response",593,413568,"0.0-4.193-2.193","3nzgzkxhgl2yqxq",960,"77.csv","","null","resources/images/coin2.png","null","",NA,NA,NA,NA,""
"image-keyboard-response",594,413887,"0.0-4.194-0.194","3nzgzkxhgl2yqxq",960,"77.csv","","317.30000001192093","resources/trios/L1T2A3.jpg","38","restless",0.5,0.6,0.3,0.373263149258661,"true"
"image-keyboard-response",595,414293,"0.0-4.194-1.194","3nzgzkxhgl2yqxq",960,"77.csv","","null","resources/maskTrios/BT2B.jpg","null","",NA,NA,NA,NA,""
"image-keyboard-response",596,415498,"0.0-4.194-2.194","3nzgzkxhgl2yqxq",960,"77.csv","","null","resources/images/coin2.png","null","",NA,NA,NA,NA,""
"image-keyboard-response",597,415824,"0.0-4.195-0.195","3nzgzkxhgl2yqxq",960,"77.csv","","324.5","resources/trios/L1T2A3.jpg","38","restless",0.5,0.6,0.3,0.662077050580127,"false"
"image-keyboard-response",598,416232,"0.0-4.195-1.195","3nzgzkxhgl2yqxq",960,"77.csv","","null","resources/maskTrios/BT2B.jpg","null","",NA,NA,NA,NA,""
"image-keyboard-response",599,417438,"0.0-4.195-2.195","3nzgzkxhgl2yqxq",960,"77.csv","","null","resources/images/fishbone.png","null","",NA,NA,NA,NA,""
"image-keyboard-response",600,417767,"0.0-4.196-0.196","3nzgzkxhgl2yqxq",960,"77.csv","","326.19999998807907","resources/trios/L1T2A3.jpg","39","restless",0.5,0.6,0.3,0.373297350186796,"false"
"image-keyboard-response",601,418174,"0.0-4.196-1.196","3nzgzkxhgl2yqxq",960,"77.csv","","null","resources/maskTrios/BBA3.jpg","null","",NA,NA,NA,NA,""
"image-keyboard-response",602,419377,"0.0-4.196-2.196","3nzgzkxhgl2yqxq",960,"77.csv","","null","resources/images/fishbone.png","null","",NA,NA,NA,NA,""
"image-keyboard-response",603,419674,"0.0-4.197-0.197","3nzgzkxhgl2yqxq",960,"77.csv","","295.09999999403954","resources/trios/L1T2A3.jpg","37","restless",0.5,0.6,0.3,0.401210301282496,"true"
"image-keyboard-response",604,420082,"0.0-4.197-1.197","3nzgzkxhgl2yqxq",960,"77.csv","","null","resources/maskTrios/L1BB.jpg","null","",NA,NA,NA,NA,""
"image-keyboard-response",605,421289,"0.0-4.197-2.197","3nzgzkxhgl2yqxq",960,"77.csv","","null","resources/images/coin2.png","null","",NA,NA,NA,NA,""
"image-keyboard-response",606,421778,"0.0-4.198-0.198","3nzgzkxhgl2yqxq",960,"77.csv","","486.39999997615814","resources/trios/L1T2A3.jpg","37","restless",0.5,0.6,0.3,0.830590820554429,"false"
"image-keyboard-response",607,422185,"0.0-4.198-1.198","3nzgzkxhgl2yqxq",960,"77.csv","","null","resources/maskTrios/L1BB.jpg","null","",NA,NA,NA,NA,""
"image-keyboard-response",608,423392,"0.0-4.198-2.198","3nzgzkxhgl2yqxq",960,"77.csv","","null","resources/images/fishbone.png","null","",NA,NA,NA,NA,""
"image-keyboard-response",609,423688,"0.0-4.199-0.199","3nzgzkxhgl2yqxq",960,"77.csv","","293.80000001192093","resources/trios/L1T2A3.jpg","38","restless",0.5,0.6,0.3,0.0529348283253817,"true"
"image-keyboard-response",610,424093,"0.0-4.199-1.199","3nzgzkxhgl2yqxq",960,"77.csv","","null","resources/maskTrios/BT2B.jpg","null","",NA,NA,NA,NA,""
"image-keyboard-response",611,425301,"0.0-4.199-2.199","3nzgzkxhgl2yqxq",960,"77.csv","","null","resources/images/coin2.png","null","",NA,NA,NA,NA,""
