"trial_type","trial_index","time_elapsed","internal_node_id","subject","participantCode","walkNumber","success","rt","stimulus","key_press","test_part","leftProb","midProb","rightProb","generatedNum","correct"
"pavlovia",0,833,"0.0-0.0","xf4gtoalamdqxxe",980,"51.csv","","","","","",NA,NA,NA,NA,""
"fullscreen",1,7081,"0.0-1.0","xf4gtoalamdqxxe",980,"51.csv","true","","","","",NA,NA,NA,NA,""
"survey-html-form",2,36070,"0.0-2.0","xf4gtoalamdqxxe",980,"51.csv","","28983.200000047684","","","",NA,NA,NA,NA,""
"image-keyboard-response",3,37712,"0.0-3.0-0.0","xf4gtoalamdqxxe",980,"51.csv","","1640.7000000476837","resources/images/parrot_nobg.png","13","",NA,NA,NA,NA,""
"image-keyboard-response",4,40716,"0.0-3.0-1.0","xf4gtoalamdqxxe",980,"51.csv","","null","resources/image_sets/111.png","null","",NA,NA,NA,NA,""
"image-keyboard-response",5,44149,"0.0-3.0-2.0","xf4gtoalamdqxxe",980,"51.csv","","3431.899999976158","resources/image_sets/left_highlight.png","37","",NA,NA,NA,NA,""
"image-keyboard-response",6,44692,"0.0-3.0-3.0","xf4gtoalamdqxxe",980,"51.csv","","543.2999999523163","resources/image_sets/mid_highlight.png","38","",NA,NA,NA,NA,""
"image-keyboard-response",7,45021,"0.0-3.0-4.0","xf4gtoalamdqxxe",980,"51.csv","","328","resources/image_sets/right_highlight.png","39","",NA,NA,NA,NA,""
"image-keyboard-response",8,46630,"0.0-3.0-5.0","xf4gtoalamdqxxe",980,"51.csv","","1608.1000000238419","resources/image_sets/111.png","13","",NA,NA,NA,NA,""
"image-keyboard-response",9,47781,"0.0-3.0-6.0","xf4gtoalamdqxxe",980,"51.csv","","1150.5","resources/images/coin2.png","13","",NA,NA,NA,NA,""
"image-keyboard-response",10,48676,"0.0-3.0-7.0","xf4gtoalamdqxxe",980,"51.csv","","894.3999999761581","resources/images/fishbone.png","13","",NA,NA,NA,NA,""
"html-keyboard-response",11,49753,"0.0-3.0-8.0","xf4gtoalamdqxxe",980,"51.csv","","1076.8000000715256","<p>You can track your coin total on the top right of your screen. </p><p>At the end of your journey you will be directed to a survey, so please click on the link before exiting the task</p><p>Press Enter to begin</p>","13","",NA,NA,NA,NA,""
"image-keyboard-response",12,51827,"0.0-4.0-0.0","xf4gtoalamdqxxe",980,"51.csv","","2073.600000023842","resources/trios/L4T4A3.jpg","37","restless",0.3,0.7,0.9,0.900251275892057,"false"
"image-keyboard-response",13,52231,"0.0-4.0-1.0","xf4gtoalamdqxxe",980,"51.csv","","null","resources/maskTrios/L4BB.jpg","null","",NA,NA,NA,NA,""
"image-keyboard-response",14,53436,"0.0-4.0-2.0","xf4gtoalamdqxxe",980,"51.csv","","null","resources/images/fishbone.png","null","",NA,NA,NA,NA,""
"image-keyboard-response",15,53922,"0.0-4.1-0.1","xf4gtoalamdqxxe",980,"51.csv","","484.8000000715256","resources/trios/L4T4A3.jpg","38","restless",0.3,0.7,0.9,0.494297813278303,"true"
"image-keyboard-response",16,54324,"0.0-4.1-1.1","xf4gtoalamdqxxe",980,"51.csv","","null","resources/maskTrios/BT4B.jpg","null","",NA,NA,NA,NA,""
"image-keyboard-response",17,55526,"0.0-4.1-2.1","xf4gtoalamdqxxe",980,"51.csv","","null","resources/images/coin2.png","null","",NA,NA,NA,NA,""
"image-keyboard-response",18,57289,"0.0-4.2-0.2","xf4gtoalamdqxxe",980,"51.csv","","1762.0999999046326","resources/trios/L4T4A3.jpg","39","restless",0.3,0.7,0.9,0.543720077710463,"true"
"image-keyboard-response",19,57693,"0.0-4.2-1.2","xf4gtoalamdqxxe",980,"51.csv","","null","resources/maskTrios/BBA3.jpg","null","",NA,NA,NA,NA,""
"image-keyboard-response",20,58899,"0.0-4.2-2.2","xf4gtoalamdqxxe",980,"51.csv","","null","resources/images/coin2.png","null","",NA,NA,NA,NA,""
"image-keyboard-response",21,59293,"0.0-4.3-0.3","xf4gtoalamdqxxe",980,"51.csv","","393.5","resources/trios/L4T4A3.jpg","39","restless",0.3,0.7,0.9,0.497768161129826,"true"
"image-keyboard-response",22,59694,"0.0-4.3-1.3","xf4gtoalamdqxxe",980,"51.csv","","null","resources/maskTrios/BBA3.jpg","null","",NA,NA,NA,NA,""
"image-keyboard-response",23,60897,"0.0-4.3-2.3","xf4gtoalamdqxxe",980,"51.csv","","null","resources/images/coin2.png","null","",NA,NA,NA,NA,""
"image-keyboard-response",24,62010,"0.0-4.4-0.4","xf4gtoalamdqxxe",980,"51.csv","","1112.3000000715256","resources/trios/L4T4A3.jpg","39","restless",0.3,0.7,0.9,0.129954428904545,"true"
"image-keyboard-response",25,62412,"0.0-4.4-1.4","xf4gtoalamdqxxe",980,"51.csv","","null","resources/maskTrios/BBA3.jpg","null","",NA,NA,NA,NA,""
"image-keyboard-response",26,63618,"0.0-4.4-2.4","xf4gtoalamdqxxe",980,"51.csv","","null","resources/images/coin2.png","null","",NA,NA,NA,NA,""
"image-keyboard-response",27,65150,"0.0-4.5-0.5","xf4gtoalamdqxxe",980,"51.csv","","1530.6999999284744","resources/trios/L4T4A3.jpg","39","restless",0.3,0.7,0.9,0.00388510983189883,"true"
"image-keyboard-response",28,65551,"0.0-4.5-1.5","xf4gtoalamdqxxe",980,"51.csv","","null","resources/maskTrios/BBA3.jpg","null","",NA,NA,NA,NA,""
"image-keyboard-response",29,66758,"0.0-4.5-2.5","xf4gtoalamdqxxe",980,"51.csv","","null","resources/images/coin2.png","null","",NA,NA,NA,NA,""
"image-keyboard-response",30,67846,"0.0-4.6-0.6","xf4gtoalamdqxxe",980,"51.csv","","1087.1000000238419","resources/trios/L4T4A3.jpg","39","restless",0.3,0.7,0.9,0.463486068542263,"true"
"image-keyboard-response",31,68249,"0.0-4.6-1.6","xf4gtoalamdqxxe",980,"51.csv","","null","resources/maskTrios/BBA3.jpg","null","",NA,NA,NA,NA,""
"image-keyboard-response",32,69452,"0.0-4.6-2.6","xf4gtoalamdqxxe",980,"51.csv","","null","resources/images/coin2.png","null","",NA,NA,NA,NA,""
"image-keyboard-response",33,69778,"0.0-4.7-0.7","xf4gtoalamdqxxe",980,"51.csv","","325","resources/trios/L4T4A3.jpg","39","restless",0.3,0.7,0.9,0.996737010665095,"false"
"image-keyboard-response",34,70184,"0.0-4.7-1.7","xf4gtoalamdqxxe",980,"51.csv","","null","resources/maskTrios/BBA3.jpg","null","",NA,NA,NA,NA,""
"image-keyboard-response",35,71390,"0.0-4.7-2.7","xf4gtoalamdqxxe",980,"51.csv","","null","resources/images/fishbone.png","null","",NA,NA,NA,NA,""
"image-keyboard-response",36,71762,"0.0-4.8-0.8","xf4gtoalamdqxxe",980,"51.csv","","370.7000000476837","resources/trios/L4T4A3.jpg","39","restless",0.3,0.7,0.9,0.559815091837041,"true"
"image-keyboard-response",37,72163,"0.0-4.8-1.8","xf4gtoalamdqxxe",980,"51.csv","","null","resources/maskTrios/BBA3.jpg","null","",NA,NA,NA,NA,""
"image-keyboard-response",38,73370,"0.0-4.8-2.8","xf4gtoalamdqxxe",980,"51.csv","","null","resources/images/coin2.png","null","",NA,NA,NA,NA,""
"image-keyboard-response",39,73788,"0.0-4.9-0.9","xf4gtoalamdqxxe",980,"51.csv","","417.5","resources/trios/L4T4A3.jpg","39","restless",0.3,0.7,0.9,0.877206854092015,"true"
"image-keyboard-response",40,74195,"0.0-4.9-1.9","xf4gtoalamdqxxe",980,"51.csv","","null","resources/maskTrios/BBA3.jpg","null","",NA,NA,NA,NA,""
"image-keyboard-response",41,75401,"0.0-4.9-2.9","xf4gtoalamdqxxe",980,"51.csv","","null","resources/images/coin2.png","null","",NA,NA,NA,NA,""
"image-keyboard-response",42,76426,"0.0-4.10-0.10","xf4gtoalamdqxxe",980,"51.csv","","1023.5","resources/trios/L4T4A3.jpg","39","restless",0.3,0.7,0.9,0.660212688015369,"true"
"image-keyboard-response",43,76830,"0.0-4.10-1.10","xf4gtoalamdqxxe",980,"51.csv","","null","resources/maskTrios/BBA3.jpg","null","",NA,NA,NA,NA,""
"image-keyboard-response",44,78036,"0.0-4.10-2.10","xf4gtoalamdqxxe",980,"51.csv","","null","resources/images/coin2.png","null","",NA,NA,NA,NA,""
"image-keyboard-response",45,79198,"0.0-4.11-0.11","xf4gtoalamdqxxe",980,"51.csv","","1160.8999999761581","resources/trios/L4T4A3.jpg","39","restless",0.3,0.7,0.9,0.409671335320658,"true"
"image-keyboard-response",46,79601,"0.0-4.11-1.11","xf4gtoalamdqxxe",980,"51.csv","","null","resources/maskTrios/BBA3.jpg","null","",NA,NA,NA,NA,""
"image-keyboard-response",47,80806,"0.0-4.11-2.11","xf4gtoalamdqxxe",980,"51.csv","","null","resources/images/coin2.png","null","",NA,NA,NA,NA,""
"image-keyboard-response",48,82498,"0.0-4.12-0.12","xf4gtoalamdqxxe",980,"51.csv","","1690.2999999523163","resources/trios/L4T4A3.jpg","39","restless",0.3,0.7,0.9,0.547315629087076,"true"
"image-keyboard-response",49,82903,"0.0-4.12-1.12","xf4gtoalamdqxxe",980,"51.csv","","null","resources/maskTrios/BBA3.jpg","null","",NA,NA,NA,NA,""
"image-keyboard-response",50,84109,"0.0-4.12-2.12","xf4gtoalamdqxxe",980,"51.csv","","null","resources/images/coin2.png","null","",NA,NA,NA,NA,""
"image-keyboard-response",51,86679,"0.0-4.13-0.13","xf4gtoalamdqxxe",980,"51.csv","","2568.7000000476837","resources/trios/L4T4A3.jpg","39","restless",0.2,0.7,0.9,0.976179404340775,"false"
"image-keyboard-response",52,87082,"0.0-4.13-1.13","xf4gtoalamdqxxe",980,"51.csv","","null","resources/maskTrios/BBA3.jpg","null","",NA,NA,NA,NA,""
"image-keyboard-response",53,88284,"0.0-4.13-2.13","xf4gtoalamdqxxe",980,"51.csv","","null","resources/images/fishbone.png","null","",NA,NA,NA,NA,""
"image-keyboard-response",54,89069,"0.0-4.14-0.14","xf4gtoalamdqxxe",980,"51.csv","","784.2999999523163","resources/trios/L4T4A3.jpg","39","restless",0.2,0.7,0.9,0.804562564372125,"true"
"image-keyboard-response",55,89474,"0.0-4.14-1.14","xf4gtoalamdqxxe",980,"51.csv","","null","resources/maskTrios/BBA3.jpg","null","",NA,NA,NA,NA,""
"image-keyboard-response",56,90675,"0.0-4.14-2.14","xf4gtoalamdqxxe",980,"51.csv","","null","resources/images/coin2.png","null","",NA,NA,NA,NA,""
"image-keyboard-response",57,93310,"0.0-4.15-0.15","xf4gtoalamdqxxe",980,"51.csv","","2633.7999999523163","resources/trios/L4T4A3.jpg","39","restless",0.2,0.7,0.9,0.26262771467384,"true"
"image-keyboard-response",58,93712,"0.0-4.15-1.15","xf4gtoalamdqxxe",980,"51.csv","","null","resources/maskTrios/BBA3.jpg","null","",NA,NA,NA,NA,""
"image-keyboard-response",59,94919,"0.0-4.15-2.15","xf4gtoalamdqxxe",980,"51.csv","","null","resources/images/coin2.png","null","",NA,NA,NA,NA,""
"image-keyboard-response",60,95140,"0.0-4.16-0.16","xf4gtoalamdqxxe",980,"51.csv","","219.80000007152557","resources/trios/L4T4A3.jpg","39","restless",0.2,0.7,0.9,0.386063515783172,"true"
"image-keyboard-response",61,95545,"0.0-4.16-1.16","xf4gtoalamdqxxe",980,"51.csv","","null","resources/maskTrios/BBA3.jpg","null","",NA,NA,NA,NA,""
"image-keyboard-response",62,96747,"0.0-4.16-2.16","xf4gtoalamdqxxe",980,"51.csv","","null","resources/images/coin2.png","null","",NA,NA,NA,NA,""
"image-keyboard-response",63,103049,"0.0-4.17-0.17","xf4gtoalamdqxxe",980,"51.csv","","6300.600000023842","resources/trios/L4T4A3.jpg","37","restless",0.2,0.7,0.9,0.188283391260384,"true"
"image-keyboard-response",64,103453,"0.0-4.17-1.17","xf4gtoalamdqxxe",980,"51.csv","","null","resources/maskTrios/L4BB.jpg","null","",NA,NA,NA,NA,""
"image-keyboard-response",65,104660,"0.0-4.17-2.17","xf4gtoalamdqxxe",980,"51.csv","","null","resources/images/coin2.png","null","",NA,NA,NA,NA,""
"image-keyboard-response",66,106683,"0.0-4.18-0.18","xf4gtoalamdqxxe",980,"51.csv","","2022.2999999523163","resources/trios/L4T4A3.jpg","37","restless",0.2,0.8,0.9,0.220568706019892,"false"
"image-keyboard-response",67,107088,"0.0-4.18-1.18","xf4gtoalamdqxxe",980,"51.csv","","null","resources/maskTrios/L4BB.jpg","null","",NA,NA,NA,NA,""
"image-keyboard-response",68,108294,"0.0-4.18-2.18","xf4gtoalamdqxxe",980,"51.csv","","null","resources/images/fishbone.png","null","",NA,NA,NA,NA,""
"image-keyboard-response",69,108858,"0.0-4.19-0.19","xf4gtoalamdqxxe",980,"51.csv","","563.3000000715256","resources/trios/L4T4A3.jpg","37","restless",0.2,0.8,0.9,0.17833791117349,"true"
"image-keyboard-response",70,109263,"0.0-4.19-1.19","xf4gtoalamdqxxe",980,"51.csv","","null","resources/maskTrios/L4BB.jpg","null","",NA,NA,NA,NA,""
"image-keyboard-response",71,110470,"0.0-4.19-2.19","xf4gtoalamdqxxe",980,"51.csv","","null","resources/images/coin2.png","null","",NA,NA,NA,NA,""
"image-keyboard-response",72,112256,"0.0-4.20-0.20","xf4gtoalamdqxxe",980,"51.csv","","1785","resources/trios/L4T4A3.jpg","37","restless",0.2,0.8,0.9,0.463624082435723,"false"
"image-keyboard-response",73,112661,"0.0-4.20-1.20","xf4gtoalamdqxxe",980,"51.csv","","null","resources/maskTrios/L4BB.jpg","null","",NA,NA,NA,NA,""
"image-keyboard-response",74,113866,"0.0-4.20-2.20","xf4gtoalamdqxxe",980,"51.csv","","null","resources/images/fishbone.png","null","",NA,NA,NA,NA,""
"image-keyboard-response",75,115666,"0.0-4.21-0.21","xf4gtoalamdqxxe",980,"51.csv","","1799","resources/trios/L4T4A3.jpg","37","restless",0.2,0.8,0.9,0.0944255746558815,"true"
"image-keyboard-response",76,116073,"0.0-4.21-1.21","xf4gtoalamdqxxe",980,"51.csv","","null","resources/maskTrios/L4BB.jpg","null","",NA,NA,NA,NA,""
"image-keyboard-response",77,117276,"0.0-4.21-2.21","xf4gtoalamdqxxe",980,"51.csv","","null","resources/images/coin2.png","null","",NA,NA,NA,NA,""
"image-keyboard-response",78,117386,"0.0-4.22-0.22","xf4gtoalamdqxxe",980,"51.csv","","109.69999992847443","resources/trios/L4T4A3.jpg","37","restless",0.2,0.8,0.9,0.434780182038709,"false"
"image-keyboard-response",79,117791,"0.0-4.22-1.22","xf4gtoalamdqxxe",980,"51.csv","","null","resources/maskTrios/L4BB.jpg","null","",NA,NA,NA,NA,""
"image-keyboard-response",80,118993,"0.0-4.22-2.22","xf4gtoalamdqxxe",980,"51.csv","","null","resources/images/fishbone.png","null","",NA,NA,NA,NA,""
"image-keyboard-response",81,119376,"0.0-4.23-0.23","xf4gtoalamdqxxe",980,"51.csv","","382.10000002384186","resources/trios/L4T4A3.jpg","37","restless",0.2,0.8,0.9,0.875022077588132,"false"
"image-keyboard-response",82,119778,"0.0-4.23-1.23","xf4gtoalamdqxxe",980,"51.csv","","null","resources/maskTrios/L4BB.jpg","null","",NA,NA,NA,NA,""
"image-keyboard-response",83,120980,"0.0-4.23-2.23","xf4gtoalamdqxxe",980,"51.csv","","null","resources/images/fishbone.png","null","",NA,NA,NA,NA,""
"image-keyboard-response",84,122247,"0.0-4.24-0.24","xf4gtoalamdqxxe",980,"51.csv","","1265.1000000238419","resources/trios/L4T4A3.jpg","37","restless",0.3,0.8,0.8,0.524452373721881,"false"
"image-keyboard-response",85,122650,"0.0-4.24-1.24","xf4gtoalamdqxxe",980,"51.csv","","null","resources/maskTrios/L4BB.jpg","null","",NA,NA,NA,NA,""
"image-keyboard-response",86,123853,"0.0-4.24-2.24","xf4gtoalamdqxxe",980,"51.csv","","null","resources/images/fishbone.png","null","",NA,NA,NA,NA,""
"image-keyboard-response",87,125788,"0.0-4.25-0.25","xf4gtoalamdqxxe",980,"51.csv","","1934","resources/trios/L4T4A3.jpg","37","restless",0.3,0.8,0.7,0.0387303809485489,"true"
"image-keyboard-response",88,126189,"0.0-4.25-1.25","xf4gtoalamdqxxe",980,"51.csv","","null","resources/maskTrios/L4BB.jpg","null","",NA,NA,NA,NA,""
"image-keyboard-response",89,127392,"0.0-4.25-2.25","xf4gtoalamdqxxe",980,"51.csv","","null","resources/images/coin2.png","null","",NA,NA,NA,NA,""
"image-keyboard-response",90,128823,"0.0-4.26-0.26","xf4gtoalamdqxxe",980,"51.csv","","1430.0999999046326","resources/trios/L4T4A3.jpg","37","restless",0.3,0.9,0.7,0.13128440833911,"true"
"image-keyboard-response",91,129227,"0.0-4.26-1.26","xf4gtoalamdqxxe",980,"51.csv","","null","resources/maskTrios/L4BB.jpg","null","",NA,NA,NA,NA,""
"image-keyboard-response",92,130431,"0.0-4.26-2.26","xf4gtoalamdqxxe",980,"51.csv","","null","resources/images/coin2.png","null","",NA,NA,NA,NA,""
"image-keyboard-response",93,131058,"0.0-4.27-0.27","xf4gtoalamdqxxe",980,"51.csv","","625","resources/trios/L4T4A3.jpg","39","restless",0.3,0.9,0.7,0.539893311011858,"true"
"image-keyboard-response",94,131462,"0.0-4.27-1.27","xf4gtoalamdqxxe",980,"51.csv","","null","resources/maskTrios/BBA3.jpg","null","",NA,NA,NA,NA,""
"image-keyboard-response",95,132667,"0.0-4.27-2.27","xf4gtoalamdqxxe",980,"51.csv","","null","resources/images/coin2.png","null","",NA,NA,NA,NA,""
"image-keyboard-response",96,134912,"0.0-4.28-0.28","xf4gtoalamdqxxe",980,"51.csv","","2244.8000000715256","resources/trios/L4T4A3.jpg","39","restless",0.3,0.9,0.7,0.0626857902121698,"true"
"image-keyboard-response",97,135318,"0.0-4.28-1.28","xf4gtoalamdqxxe",980,"51.csv","","null","resources/maskTrios/BBA3.jpg","null","",NA,NA,NA,NA,""
"image-keyboard-response",98,136523,"0.0-4.28-2.28","xf4gtoalamdqxxe",980,"51.csv","","null","resources/images/coin2.png","null","",NA,NA,NA,NA,""
"image-keyboard-response",99,137962,"0.0-4.29-0.29","xf4gtoalamdqxxe",980,"51.csv","","1438.2000000476837","resources/trios/L4T4A3.jpg","39","restless",0.3,0.9,0.7,0.136092412476579,"true"
"image-keyboard-response",100,138364,"0.0-4.29-1.29","xf4gtoalamdqxxe",980,"51.csv","","null","resources/maskTrios/BBA3.jpg","null","",NA,NA,NA,NA,""
"image-keyboard-response",101,139570,"0.0-4.29-2.29","xf4gtoalamdqxxe",980,"51.csv","","null","resources/images/coin2.png","null","",NA,NA,NA,NA,""
"image-keyboard-response",102,139762,"0.0-4.30-0.30","xf4gtoalamdqxxe",980,"51.csv","","191.60000002384186","resources/trios/L4T4A3.jpg","39","restless",0.3,0.9,0.7,0.3673272523222,"true"
"image-keyboard-response",103,140167,"0.0-4.30-1.30","xf4gtoalamdqxxe",980,"51.csv","","null","resources/maskTrios/BBA3.jpg","null","",NA,NA,NA,NA,""
"image-keyboard-response",104,141373,"0.0-4.30-2.30","xf4gtoalamdqxxe",980,"51.csv","","null","resources/images/coin2.png","null","",NA,NA,NA,NA,""
"image-keyboard-response",105,141893,"0.0-4.31-0.31","xf4gtoalamdqxxe",980,"51.csv","","519","resources/trios/L4T4A3.jpg","39","restless",0.4,0.9,0.6,0.492184336678175,"true"
"image-keyboard-response",106,142297,"0.0-4.31-1.31","xf4gtoalamdqxxe",980,"51.csv","","null","resources/maskTrios/BBA3.jpg","null","",NA,NA,NA,NA,""
"image-keyboard-response",107,143501,"0.0-4.31-2.31","xf4gtoalamdqxxe",980,"51.csv","","null","resources/images/coin2.png","null","",NA,NA,NA,NA,""
"image-keyboard-response",108,145876,"0.0-4.32-0.32","xf4gtoalamdqxxe",980,"51.csv","","2373.5999999046326","resources/trios/L4T4A3.jpg","39","restless",0.4,0.9,0.6,0.239342138054207,"true"
"image-keyboard-response",109,146282,"0.0-4.32-1.32","xf4gtoalamdqxxe",980,"51.csv","","null","resources/maskTrios/BBA3.jpg","null","",NA,NA,NA,NA,""
"image-keyboard-response",110,147489,"0.0-4.32-2.32","xf4gtoalamdqxxe",980,"51.csv","","null","resources/images/coin2.png","null","",NA,NA,NA,NA,""
"image-keyboard-response",111,148561,"0.0-4.33-0.33","xf4gtoalamdqxxe",980,"51.csv","","1070.7999999523163","resources/trios/L4T4A3.jpg","39","restless",0.4,0.9,0.6,0.515014768267782,"true"
"image-keyboard-response",112,148964,"0.0-4.33-1.33","xf4gtoalamdqxxe",980,"51.csv","","null","resources/maskTrios/BBA3.jpg","null","",NA,NA,NA,NA,""
"image-keyboard-response",113,150171,"0.0-4.33-2.33","xf4gtoalamdqxxe",980,"51.csv","","null","resources/images/coin2.png","null","",NA,NA,NA,NA,""
"image-keyboard-response",114,150450,"0.0-4.34-0.34","xf4gtoalamdqxxe",980,"51.csv","","277.90000009536743","resources/trios/L4T4A3.jpg","39","restless",0.5,0.9,0.6,0.321463638334732,"true"
"image-keyboard-response",115,150856,"0.0-4.34-1.34","xf4gtoalamdqxxe",980,"51.csv","","null","resources/maskTrios/BBA3.jpg","null","",NA,NA,NA,NA,""
"image-keyboard-response",116,152063,"0.0-4.34-2.34","xf4gtoalamdqxxe",980,"51.csv","","null","resources/images/coin2.png","null","",NA,NA,NA,NA,""
"image-keyboard-response",117,152548,"0.0-4.35-0.35","xf4gtoalamdqxxe",980,"51.csv","","484.39999997615814","resources/trios/L4T4A3.jpg","39","restless",0.5,0.9,0.6,0.425628643592099,"true"
"image-keyboard-response",118,152951,"0.0-4.35-1.35","xf4gtoalamdqxxe",980,"51.csv","","null","resources/maskTrios/BBA3.jpg","null","",NA,NA,NA,NA,""
"image-keyboard-response",119,154154,"0.0-4.35-2.35","xf4gtoalamdqxxe",980,"51.csv","","null","resources/images/coin2.png","null","",NA,NA,NA,NA,""
"image-keyboard-response",120,154887,"0.0-4.36-0.36","xf4gtoalamdqxxe",980,"51.csv","","732.3999999761581","resources/trios/L4T4A3.jpg","39","restless",0.5,0.9,0.6,0.650730279202752,"false"
"image-keyboard-response",121,155291,"0.0-4.36-1.36","xf4gtoalamdqxxe",980,"51.csv","","null","resources/maskTrios/BBA3.jpg","null","",NA,NA,NA,NA,""
"image-keyboard-response",122,156498,"0.0-4.36-2.36","xf4gtoalamdqxxe",980,"51.csv","","null","resources/images/fishbone.png","null","",NA,NA,NA,NA,""
"image-keyboard-response",123,157511,"0.0-4.37-0.37","xf4gtoalamdqxxe",980,"51.csv","","1011.6000000238419","resources/trios/L4T4A3.jpg","39","restless",0.5,0.9,0.6,0.713842978950082,"false"
"image-keyboard-response",124,157915,"0.0-4.37-1.37","xf4gtoalamdqxxe",980,"51.csv","","null","resources/maskTrios/BBA3.jpg","null","",NA,NA,NA,NA,""
"image-keyboard-response",125,159117,"0.0-4.37-2.37","xf4gtoalamdqxxe",980,"51.csv","","null","resources/images/fishbone.png","null","",NA,NA,NA,NA,""
"image-keyboard-response",126,159505,"0.0-4.38-0.38","xf4gtoalamdqxxe",980,"51.csv","","387.09999990463257","resources/trios/L4T4A3.jpg","39","restless",0.5,0.9,0.6,0.218127819052569,"true"
"image-keyboard-response",127,159911,"0.0-4.38-1.38","xf4gtoalamdqxxe",980,"51.csv","","null","resources/maskTrios/BBA3.jpg","null","",NA,NA,NA,NA,""
"image-keyboard-response",128,161114,"0.0-4.38-2.38","xf4gtoalamdqxxe",980,"51.csv","","null","resources/images/coin2.png","null","",NA,NA,NA,NA,""
"image-keyboard-response",129,161472,"0.0-4.39-0.39","xf4gtoalamdqxxe",980,"51.csv","","357.39999997615814","resources/trios/L4T4A3.jpg","39","restless",0.5,0.9,0.6,0.212557839415428,"true"
"image-keyboard-response",130,161874,"0.0-4.39-1.39","xf4gtoalamdqxxe",980,"51.csv","","null","resources/maskTrios/BBA3.jpg","null","",NA,NA,NA,NA,""
"image-keyboard-response",131,163075,"0.0-4.39-2.39","xf4gtoalamdqxxe",980,"51.csv","","null","resources/images/coin2.png","null","",NA,NA,NA,NA,""
"image-keyboard-response",132,163665,"0.0-4.40-0.40","xf4gtoalamdqxxe",980,"51.csv","","589","resources/trios/L4T4A3.jpg","39","restless",0.4,0.9,0.6,0.594920905739125,"true"
"image-keyboard-response",133,164069,"0.0-4.40-1.40","xf4gtoalamdqxxe",980,"51.csv","","null","resources/maskTrios/BBA3.jpg","null","",NA,NA,NA,NA,""
"image-keyboard-response",134,165273,"0.0-4.40-2.40","xf4gtoalamdqxxe",980,"51.csv","","null","resources/images/coin2.png","null","",NA,NA,NA,NA,""
"image-keyboard-response",135,165723,"0.0-4.41-0.41","xf4gtoalamdqxxe",980,"51.csv","","448.7999999523163","resources/trios/L4T4A3.jpg","39","restless",0.4,0.9,0.5,0.999301883425804,"false"
"image-keyboard-response",136,166124,"0.0-4.41-1.41","xf4gtoalamdqxxe",980,"51.csv","","null","resources/maskTrios/BBA3.jpg","null","",NA,NA,NA,NA,""
"image-keyboard-response",137,167325,"0.0-4.41-2.41","xf4gtoalamdqxxe",980,"51.csv","","null","resources/images/fishbone.png","null","",NA,NA,NA,NA,""
"image-keyboard-response",138,167680,"0.0-4.42-0.42","xf4gtoalamdqxxe",980,"51.csv","","353.6999999284744","resources/trios/L4T4A3.jpg","39","restless",0.4,0.9,0.5,0.802518603344262,"false"
"image-keyboard-response",139,168082,"0.0-4.42-1.42","xf4gtoalamdqxxe",980,"51.csv","","null","resources/maskTrios/BBA3.jpg","null","",NA,NA,NA,NA,""
"image-keyboard-response",140,169286,"0.0-4.42-2.42","xf4gtoalamdqxxe",980,"51.csv","","null","resources/images/fishbone.png","null","",NA,NA,NA,NA,""
"image-keyboard-response",141,170026,"0.0-4.43-0.43","xf4gtoalamdqxxe",980,"51.csv","","738.7999999523163","resources/trios/L4T4A3.jpg","39","restless",0.4,0.9,0.5,0.381337088408149,"true"
"image-keyboard-response",142,170431,"0.0-4.43-1.43","xf4gtoalamdqxxe",980,"51.csv","","null","resources/maskTrios/BBA3.jpg","null","",NA,NA,NA,NA,""
"image-keyboard-response",143,171637,"0.0-4.43-2.43","xf4gtoalamdqxxe",980,"51.csv","","null","resources/images/coin2.png","null","",NA,NA,NA,NA,""
"image-keyboard-response",144,172055,"0.0-4.44-0.44","xf4gtoalamdqxxe",980,"51.csv","","417.10000002384186","resources/trios/L4T4A3.jpg","39","restless",0.4,0.9,0.5,0.318610019293859,"true"
"image-keyboard-response",145,172457,"0.0-4.44-1.44","xf4gtoalamdqxxe",980,"51.csv","","null","resources/maskTrios/BBA3.jpg","null","",NA,NA,NA,NA,""
"image-keyboard-response",146,173659,"0.0-4.44-2.44","xf4gtoalamdqxxe",980,"51.csv","","null","resources/images/coin2.png","null","",NA,NA,NA,NA,""
"image-keyboard-response",147,174217,"0.0-4.45-0.45","xf4gtoalamdqxxe",980,"51.csv","","556.7000000476837","resources/trios/L4T4A3.jpg","39","restless",0.4,0.9,0.5,0.863460585039369,"false"
"image-keyboard-response",148,174622,"0.0-4.45-1.45","xf4gtoalamdqxxe",980,"51.csv","","null","resources/maskTrios/BBA3.jpg","null","",NA,NA,NA,NA,""
"image-keyboard-response",149,175824,"0.0-4.45-2.45","xf4gtoalamdqxxe",980,"51.csv","","null","resources/images/fishbone.png","null","",NA,NA,NA,NA,""
"image-keyboard-response",150,176284,"0.0-4.46-0.46","xf4gtoalamdqxxe",980,"51.csv","","459.39999997615814","resources/trios/L4T4A3.jpg","39","restless",0.4,0.9,0.5,0.678454940414536,"false"
"image-keyboard-response",151,176689,"0.0-4.46-1.46","xf4gtoalamdqxxe",980,"51.csv","","null","resources/maskTrios/BBA3.jpg","null","",NA,NA,NA,NA,""
"image-keyboard-response",152,177890,"0.0-4.46-2.46","xf4gtoalamdqxxe",980,"51.csv","","null","resources/images/fishbone.png","null","",NA,NA,NA,NA,""
"image-keyboard-response",153,177943,"0.0-4.47-0.47","xf4gtoalamdqxxe",980,"51.csv","","51.89999997615814","resources/trios/L4T4A3.jpg","39","restless",0.4,0.9,0.5,0.597992885455646,"false"
"image-keyboard-response",154,178349,"0.0-4.47-1.47","xf4gtoalamdqxxe",980,"51.csv","","null","resources/maskTrios/BBA3.jpg","null","",NA,NA,NA,NA,""
"image-keyboard-response",155,179553,"0.0-4.47-2.47","xf4gtoalamdqxxe",980,"51.csv","","null","resources/images/fishbone.png","null","",NA,NA,NA,NA,""
"image-keyboard-response",156,180607,"0.0-4.48-0.48","xf4gtoalamdqxxe",980,"51.csv","","1052.3000000715256","resources/trios/L4T4A3.jpg","39","restless",0.4,0.9,0.5,0.504205565374439,"false"
"image-keyboard-response",157,181010,"0.0-4.48-1.48","xf4gtoalamdqxxe",980,"51.csv","","null","resources/maskTrios/BBA3.jpg","null","",NA,NA,NA,NA,""
"image-keyboard-response",158,182215,"0.0-4.48-2.48","xf4gtoalamdqxxe",980,"51.csv","","null","resources/images/fishbone.png","null","",NA,NA,NA,NA,""
"image-keyboard-response",159,189592,"0.0-4.49-0.49","xf4gtoalamdqxxe",980,"51.csv","","7376.100000023842","resources/trios/L4T4A3.jpg","39","restless",0.4,0.9,0.5,0.053818300148585,"true"
"image-keyboard-response",160,189994,"0.0-4.49-1.49","xf4gtoalamdqxxe",980,"51.csv","","null","resources/maskTrios/BBA3.jpg","null","",NA,NA,NA,NA,""
"image-keyboard-response",161,191198,"0.0-4.49-2.49","xf4gtoalamdqxxe",980,"51.csv","","null","resources/images/coin2.png","null","",NA,NA,NA,NA,""
"image-keyboard-response",162,194696,"0.0-4.50-0.50","xf4gtoalamdqxxe",980,"51.csv","","3497.2999999523163","resources/trios/L4T4A3.jpg","39","restless",0.5,0.9,0.5,0.166982139792363,"true"
"image-keyboard-response",163,195102,"0.0-4.50-1.50","xf4gtoalamdqxxe",980,"51.csv","","null","resources/maskTrios/BBA3.jpg","null","",NA,NA,NA,NA,""
"image-keyboard-response",164,196309,"0.0-4.50-2.50","xf4gtoalamdqxxe",980,"51.csv","","null","resources/images/coin2.png","null","",NA,NA,NA,NA,""
"image-keyboard-response",165,200001,"0.0-4.51-0.51","xf4gtoalamdqxxe",980,"51.csv","","3690.7999999523163","resources/trios/L4T4A3.jpg","39","restless",0.5,0.8,0.5,0.709806303977973,"false"
"image-keyboard-response",166,200403,"0.0-4.51-1.51","xf4gtoalamdqxxe",980,"51.csv","","null","resources/maskTrios/BBA3.jpg","null","",NA,NA,NA,NA,""
"image-keyboard-response",167,201609,"0.0-4.51-2.51","xf4gtoalamdqxxe",980,"51.csv","","null","resources/images/fishbone.png","null","",NA,NA,NA,NA,""
"image-keyboard-response",168,203799,"0.0-4.52-0.52","xf4gtoalamdqxxe",980,"51.csv","","2188.899999976158","resources/trios/L4T4A3.jpg","37","restless",0.5,0.8,0.5,0.413929039628674,"true"
"image-keyboard-response",169,204205,"0.0-4.52-1.52","xf4gtoalamdqxxe",980,"51.csv","","null","resources/maskTrios/L4BB.jpg","null","",NA,NA,NA,NA,""
"image-keyboard-response",170,205406,"0.0-4.52-2.52","xf4gtoalamdqxxe",980,"51.csv","","null","resources/images/coin2.png","null","",NA,NA,NA,NA,""
"image-keyboard-response",171,215592,"0.0-4.53-0.53","xf4gtoalamdqxxe",980,"51.csv","","10184.199999928474","resources/trios/L4T4A3.jpg","37","restless",0.5,0.7,0.5,0.464313423996206,"true"
"image-keyboard-response",172,215995,"0.0-4.53-1.53","xf4gtoalamdqxxe",980,"51.csv","","null","resources/maskTrios/L4BB.jpg","null","",NA,NA,NA,NA,""
"image-keyboard-response",173,217196,"0.0-4.53-2.53","xf4gtoalamdqxxe",980,"51.csv","","null","resources/images/coin2.png","null","",NA,NA,NA,NA,""
"image-keyboard-response",174,217413,"0.0-4.54-0.54","xf4gtoalamdqxxe",980,"51.csv","","215.39999997615814","resources/trios/L4T4A3.jpg","37","restless",0.5,0.7,0.5,0.359560132943787,"true"
"image-keyboard-response",175,217818,"0.0-4.54-1.54","xf4gtoalamdqxxe",980,"51.csv","","null","resources/maskTrios/L4BB.jpg","null","",NA,NA,NA,NA,""
"image-keyboard-response",176,219024,"0.0-4.54-2.54","xf4gtoalamdqxxe",980,"51.csv","","null","resources/images/coin2.png","null","",NA,NA,NA,NA,""
"image-keyboard-response",177,219078,"0.0-4.55-0.55","xf4gtoalamdqxxe",980,"51.csv","","53","resources/trios/L4T4A3.jpg","37","restless",0.5,0.7,0.5,0.886808985560831,"false"
"image-keyboard-response",178,219484,"0.0-4.55-1.55","xf4gtoalamdqxxe",980,"51.csv","","null","resources/maskTrios/L4BB.jpg","null","",NA,NA,NA,NA,""
"image-keyboard-response",179,220689,"0.0-4.55-2.55","xf4gtoalamdqxxe",980,"51.csv","","null","resources/images/fishbone.png","null","",NA,NA,NA,NA,""
"image-keyboard-response",180,222006,"0.0-4.56-0.56","xf4gtoalamdqxxe",980,"51.csv","","1316.0999999046326","resources/trios/L4T4A3.jpg","37","restless",0.5,0.7,0.5,0.886163417104286,"false"
"image-keyboard-response",181,222409,"0.0-4.56-1.56","xf4gtoalamdqxxe",980,"51.csv","","null","resources/maskTrios/L4BB.jpg","null","",NA,NA,NA,NA,""
"image-keyboard-response",182,223611,"0.0-4.56-2.56","xf4gtoalamdqxxe",980,"51.csv","","null","resources/images/fishbone.png","null","",NA,NA,NA,NA,""
"image-keyboard-response",183,224257,"0.0-4.57-0.57","xf4gtoalamdqxxe",980,"51.csv","","644.8000000715256","resources/trios/L4T4A3.jpg","37","restless",0.5,0.7,0.5,0.502217652252459,"false"
"image-keyboard-response",184,224662,"0.0-4.57-1.57","xf4gtoalamdqxxe",980,"51.csv","","null","resources/maskTrios/L4BB.jpg","null","",NA,NA,NA,NA,""
"image-keyboard-response",185,225863,"0.0-4.57-2.57","xf4gtoalamdqxxe",980,"51.csv","","null","resources/images/fishbone.png","null","",NA,NA,NA,NA,""
"image-keyboard-response",186,227553,"0.0-4.58-0.58","xf4gtoalamdqxxe",980,"51.csv","","1688.7000000476837","resources/trios/L4T4A3.jpg","37","restless",0.5,0.7,0.5,0.0625185575627036,"true"
"image-keyboard-response",187,227959,"0.0-4.58-1.58","xf4gtoalamdqxxe",980,"51.csv","","null","resources/maskTrios/L4BB.jpg","null","",NA,NA,NA,NA,""
"image-keyboard-response",188,229161,"0.0-4.58-2.58","xf4gtoalamdqxxe",980,"51.csv","","null","resources/images/coin2.png","null","",NA,NA,NA,NA,""
"image-keyboard-response",189,229297,"0.0-4.59-0.59","xf4gtoalamdqxxe",980,"51.csv","","135.79999995231628","resources/trios/L4T4A3.jpg","37","restless",0.5,0.7,0.5,0.410247625361512,"true"
"image-keyboard-response",190,229700,"0.0-4.59-1.59","xf4gtoalamdqxxe",980,"51.csv","","null","resources/maskTrios/L4BB.jpg","null","",NA,NA,NA,NA,""
"image-keyboard-response",191,230902,"0.0-4.59-2.59","xf4gtoalamdqxxe",980,"51.csv","","null","resources/images/coin2.png","null","",NA,NA,NA,NA,""
"image-keyboard-response",192,236517,"0.0-4.60-0.60","xf4gtoalamdqxxe",980,"51.csv","","5613.600000023842","resources/trios/L4T4A3.jpg","37","restless",0.5,0.7,0.5,0.122363919954636,"true"
"image-keyboard-response",193,236922,"0.0-4.60-1.60","xf4gtoalamdqxxe",980,"51.csv","","null","resources/maskTrios/L4BB.jpg","null","",NA,NA,NA,NA,""
"image-keyboard-response",194,238125,"0.0-4.60-2.60","xf4gtoalamdqxxe",980,"51.csv","","null","resources/images/coin2.png","null","",NA,NA,NA,NA,""
"image-keyboard-response",195,242133,"0.0-4.61-0.61","xf4gtoalamdqxxe",980,"51.csv","","4006.2000000476837","resources/trios/L4T4A3.jpg","37","restless",0.5,0.7,0.5,0.197690041313623,"true"
"image-keyboard-response",196,242536,"0.0-4.61-1.61","xf4gtoalamdqxxe",980,"51.csv","","null","resources/maskTrios/L4BB.jpg","null","",NA,NA,NA,NA,""
"image-keyboard-response",197,243737,"0.0-4.61-2.61","xf4gtoalamdqxxe",980,"51.csv","","null","resources/images/coin2.png","null","",NA,NA,NA,NA,""
"image-keyboard-response",198,244259,"0.0-4.62-0.62","xf4gtoalamdqxxe",980,"51.csv","","521.2000000476837","resources/trios/L4T4A3.jpg","37","restless",0.5,0.7,0.5,0.296031727985029,"true"
"image-keyboard-response",199,244665,"0.0-4.62-1.62","xf4gtoalamdqxxe",980,"51.csv","","null","resources/maskTrios/L4BB.jpg","null","",NA,NA,NA,NA,""
"image-keyboard-response",200,245871,"0.0-4.62-2.62","xf4gtoalamdqxxe",980,"51.csv","","null","resources/images/coin2.png","null","",NA,NA,NA,NA,""
"image-keyboard-response",201,246225,"0.0-4.63-0.63","xf4gtoalamdqxxe",980,"51.csv","","353.40000009536743","resources/trios/L4T4A3.jpg","37","restless",0.5,0.7,0.5,0.565860651315819,"false"
"image-keyboard-response",202,246628,"0.0-4.63-1.63","xf4gtoalamdqxxe",980,"51.csv","","null","resources/maskTrios/L4BB.jpg","null","",NA,NA,NA,NA,""
"image-keyboard-response",203,247830,"0.0-4.63-2.63","xf4gtoalamdqxxe",980,"51.csv","","null","resources/images/fishbone.png","null","",NA,NA,NA,NA,""
"image-keyboard-response",204,250023,"0.0-4.64-0.64","xf4gtoalamdqxxe",980,"51.csv","","2191.899999976158","resources/trios/L4T4A3.jpg","37","restless",0.5,0.7,0.5,0.842306360135386,"false"
"image-keyboard-response",205,250425,"0.0-4.64-1.64","xf4gtoalamdqxxe",980,"51.csv","","null","resources/maskTrios/L4BB.jpg","null","",NA,NA,NA,NA,""
"image-keyboard-response",206,251626,"0.0-4.64-2.64","xf4gtoalamdqxxe",980,"51.csv","","null","resources/images/fishbone.png","null","",NA,NA,NA,NA,""
"image-keyboard-response",207,253447,"0.0-4.65-0.65","xf4gtoalamdqxxe",980,"51.csv","","1819.2999999523163","resources/trios/L4T4A3.jpg","37","restless",0.5,0.7,0.5,0.593257964675782,"false"
"image-keyboard-response",208,253849,"0.0-4.65-1.65","xf4gtoalamdqxxe",980,"51.csv","","null","resources/maskTrios/L4BB.jpg","null","",NA,NA,NA,NA,""
"image-keyboard-response",209,255051,"0.0-4.65-2.65","xf4gtoalamdqxxe",980,"51.csv","","null","resources/images/fishbone.png","null","",NA,NA,NA,NA,""
"image-keyboard-response",210,255366,"0.0-4.66-0.66","xf4gtoalamdqxxe",980,"51.csv","","314.10000002384186","resources/trios/L4T4A3.jpg","37","restless",0.5,0.7,0.5,0.359874096141399,"true"
"image-keyboard-response",211,255773,"0.0-4.66-1.66","xf4gtoalamdqxxe",980,"51.csv","","null","resources/maskTrios/L4BB.jpg","null","",NA,NA,NA,NA,""
"image-keyboard-response",212,256977,"0.0-4.66-2.66","xf4gtoalamdqxxe",980,"51.csv","","null","resources/images/coin2.png","null","",NA,NA,NA,NA,""
"image-keyboard-response",213,259237,"0.0-4.67-0.67","xf4gtoalamdqxxe",980,"51.csv","","2258.600000023842","resources/trios/L4T4A3.jpg","37","restless",0.5,0.7,0.5,0.512176017937269,"false"
"image-keyboard-response",214,259642,"0.0-4.67-1.67","xf4gtoalamdqxxe",980,"51.csv","","null","resources/maskTrios/L4BB.jpg","null","",NA,NA,NA,NA,""
"image-keyboard-response",215,260845,"0.0-4.67-2.67","xf4gtoalamdqxxe",980,"51.csv","","null","resources/images/fishbone.png","null","",NA,NA,NA,NA,""
"image-keyboard-response",216,261570,"0.0-4.68-0.68","xf4gtoalamdqxxe",980,"51.csv","","724.5","resources/trios/L4T4A3.jpg","37","restless",0.5,0.7,0.5,0.214225051171493,"true"
"image-keyboard-response",217,261976,"0.0-4.68-1.68","xf4gtoalamdqxxe",980,"51.csv","","null","resources/maskTrios/L4BB.jpg","null","",NA,NA,NA,NA,""
"image-keyboard-response",218,263178,"0.0-4.68-2.68","xf4gtoalamdqxxe",980,"51.csv","","null","resources/images/coin2.png","null","",NA,NA,NA,NA,""
"image-keyboard-response",219,264987,"0.0-4.69-0.69","xf4gtoalamdqxxe",980,"51.csv","","1807.6000000238419","resources/trios/L4T4A3.jpg","37","restless",0.5,0.7,0.5,0.552570157979571,"false"
"image-keyboard-response",220,265390,"0.0-4.69-1.69","xf4gtoalamdqxxe",980,"51.csv","","null","resources/maskTrios/L4BB.jpg","null","",NA,NA,NA,NA,""
"image-keyboard-response",221,266596,"0.0-4.69-2.69","xf4gtoalamdqxxe",980,"51.csv","","null","resources/images/fishbone.png","null","",NA,NA,NA,NA,""
"image-keyboard-response",222,267580,"0.0-4.70-0.70","xf4gtoalamdqxxe",980,"51.csv","","983","resources/trios/L4T4A3.jpg","37","restless",0.5,0.7,0.5,0.0307420825022653,"true"
"image-keyboard-response",223,267985,"0.0-4.70-1.70","xf4gtoalamdqxxe",980,"51.csv","","null","resources/maskTrios/L4BB.jpg","null","",NA,NA,NA,NA,""
"image-keyboard-response",224,269188,"0.0-4.70-2.70","xf4gtoalamdqxxe",980,"51.csv","","null","resources/images/coin2.png","null","",NA,NA,NA,NA,""
"image-keyboard-response",225,270071,"0.0-4.71-0.71","xf4gtoalamdqxxe",980,"51.csv","","881.5","resources/trios/L4T4A3.jpg","37","restless",0.6,0.7,0.5,0.758952568006443,"false"
"image-keyboard-response",226,270474,"0.0-4.71-1.71","xf4gtoalamdqxxe",980,"51.csv","","null","resources/maskTrios/L4BB.jpg","null","",NA,NA,NA,NA,""
"image-keyboard-response",227,271675,"0.0-4.71-2.71","xf4gtoalamdqxxe",980,"51.csv","","null","resources/images/fishbone.png","null","",NA,NA,NA,NA,""
"image-keyboard-response",228,272504,"0.0-4.72-0.72","xf4gtoalamdqxxe",980,"51.csv","","827.2000000476837","resources/trios/L4T4A3.jpg","37","restless",0.6,0.7,0.5,0.513014579045709,"true"
"image-keyboard-response",229,272905,"0.0-4.72-1.72","xf4gtoalamdqxxe",980,"51.csv","","null","resources/maskTrios/L4BB.jpg","null","",NA,NA,NA,NA,""
"image-keyboard-response",230,274112,"0.0-4.72-2.72","xf4gtoalamdqxxe",980,"51.csv","","null","resources/images/coin2.png","null","",NA,NA,NA,NA,""
"image-keyboard-response",231,276174,"0.0-4.73-0.73","xf4gtoalamdqxxe",980,"51.csv","","2061.600000023842","resources/trios/L4T4A3.jpg","37","restless",0.6,0.7,0.5,0.149357039174479,"true"
"image-keyboard-response",232,276576,"0.0-4.73-1.73","xf4gtoalamdqxxe",980,"51.csv","","null","resources/maskTrios/L4BB.jpg","null","",NA,NA,NA,NA,""
"image-keyboard-response",233,277778,"0.0-4.73-2.73","xf4gtoalamdqxxe",980,"51.csv","","null","resources/images/coin2.png","null","",NA,NA,NA,NA,""
"image-keyboard-response",234,281292,"0.0-4.74-0.74","xf4gtoalamdqxxe",980,"51.csv","","3512.7999999523163","resources/trios/L4T4A3.jpg","37","restless",0.6,0.7,0.5,0.651173782104279,"false"
"image-keyboard-response",235,281696,"0.0-4.74-1.74","xf4gtoalamdqxxe",980,"51.csv","","null","resources/maskTrios/L4BB.jpg","null","",NA,NA,NA,NA,""
"image-keyboard-response",236,282899,"0.0-4.74-2.74","xf4gtoalamdqxxe",980,"51.csv","","null","resources/images/fishbone.png","null","",NA,NA,NA,NA,""
"image-keyboard-response",237,290904,"0.0-4.75-0.75","xf4gtoalamdqxxe",980,"51.csv","","8003.700000047684","resources/trios/L4T4A3.jpg","37","restless",0.6,0.7,0.5,0.117135902706111,"true"
"image-keyboard-response",238,291308,"0.0-4.75-1.75","xf4gtoalamdqxxe",980,"51.csv","","null","resources/maskTrios/L4BB.jpg","null","",NA,NA,NA,NA,""
"image-keyboard-response",239,292511,"0.0-4.75-2.75","xf4gtoalamdqxxe",980,"51.csv","","null","resources/images/coin2.png","null","",NA,NA,NA,NA,""
"image-keyboard-response",240,296127,"0.0-4.76-0.76","xf4gtoalamdqxxe",980,"51.csv","","3614","resources/trios/L4T4A3.jpg","37","restless",0.6,0.6,0.5,0.57401649100823,"true"
"image-keyboard-response",241,296528,"0.0-4.76-1.76","xf4gtoalamdqxxe",980,"51.csv","","null","resources/maskTrios/L4BB.jpg","null","",NA,NA,NA,NA,""
"image-keyboard-response",242,297730,"0.0-4.76-2.76","xf4gtoalamdqxxe",980,"51.csv","","null","resources/images/coin2.png","null","",NA,NA,NA,NA,""
"image-keyboard-response",243,298111,"0.0-4.77-0.77","xf4gtoalamdqxxe",980,"51.csv","","380.10000002384186","resources/trios/L4T4A3.jpg","37","restless",0.6,0.6,0.5,0.672914296981694,"false"
"image-keyboard-response",244,298513,"0.0-4.77-1.77","xf4gtoalamdqxxe",980,"51.csv","","null","resources/maskTrios/L4BB.jpg","null","",NA,NA,NA,NA,""
"image-keyboard-response",245,299715,"0.0-4.77-2.77","xf4gtoalamdqxxe",980,"51.csv","","null","resources/images/fishbone.png","null","",NA,NA,NA,NA,""
"image-keyboard-response",246,301159,"0.0-4.78-0.78","xf4gtoalamdqxxe",980,"51.csv","","1442.2000000476837","resources/trios/L4T4A3.jpg","37","restless",0.6,0.6,0.5,0.0581082075613448,"true"
"image-keyboard-response",247,301562,"0.0-4.78-1.78","xf4gtoalamdqxxe",980,"51.csv","","null","resources/maskTrios/L4BB.jpg","null","",NA,NA,NA,NA,""
"image-keyboard-response",248,302763,"0.0-4.78-2.78","xf4gtoalamdqxxe",980,"51.csv","","null","resources/images/coin2.png","null","",NA,NA,NA,NA,""
"image-keyboard-response",249,302874,"0.0-4.79-0.79","xf4gtoalamdqxxe",980,"51.csv","","110.29999995231628","resources/trios/L4T4A3.jpg","37","restless",0.6,0.6,0.5,0.0258114075832332,"true"
"image-keyboard-response",250,303279,"0.0-4.79-1.79","xf4gtoalamdqxxe",980,"51.csv","","null","resources/maskTrios/L4BB.jpg","null","",NA,NA,NA,NA,""
"image-keyboard-response",251,304481,"0.0-4.79-2.79","xf4gtoalamdqxxe",980,"51.csv","","null","resources/images/coin2.png","null","",NA,NA,NA,NA,""
"image-keyboard-response",252,307294,"0.0-4.80-0.80","xf4gtoalamdqxxe",980,"51.csv","","2811.6999999284744","resources/trios/L4T4A3.jpg","37","restless",0.6,0.6,0.5,0.512930654220985,"true"
"image-keyboard-response",253,307697,"0.0-4.80-1.80","xf4gtoalamdqxxe",980,"51.csv","","null","resources/maskTrios/L4BB.jpg","null","",NA,NA,NA,NA,""
"image-keyboard-response",254,308904,"0.0-4.80-2.80","xf4gtoalamdqxxe",980,"51.csv","","null","resources/images/coin2.png","null","",NA,NA,NA,NA,""
"image-keyboard-response",255,310126,"0.0-4.81-0.81","xf4gtoalamdqxxe",980,"51.csv","","1220.7000000476837","resources/trios/L4T4A3.jpg","37","restless",0.6,0.6,0.5,0.980004695742565,"false"
"image-keyboard-response",256,310530,"0.0-4.81-1.81","xf4gtoalamdqxxe",980,"51.csv","","null","resources/maskTrios/L4BB.jpg","null","",NA,NA,NA,NA,""
"image-keyboard-response",257,311732,"0.0-4.81-2.81","xf4gtoalamdqxxe",980,"51.csv","","null","resources/images/fishbone.png","null","",NA,NA,NA,NA,""
"image-keyboard-response",258,312404,"0.0-4.82-0.82","xf4gtoalamdqxxe",980,"51.csv","","671.1000000238419","resources/trios/L4T4A3.jpg","37","restless",0.6,0.5,0.6,0.169833423194893,"true"
"image-keyboard-response",259,312806,"0.0-4.82-1.82","xf4gtoalamdqxxe",980,"51.csv","","null","resources/maskTrios/L4BB.jpg","null","",NA,NA,NA,NA,""
"image-keyboard-response",260,314007,"0.0-4.82-2.82","xf4gtoalamdqxxe",980,"51.csv","","null","resources/images/coin2.png","null","",NA,NA,NA,NA,""
"image-keyboard-response",261,316682,"0.0-4.83-0.83","xf4gtoalamdqxxe",980,"51.csv","","2673.4000000953674","resources/trios/L4T4A3.jpg","37","restless",0.6,0.5,0.6,0.656558453332508,"false"
"image-keyboard-response",262,317087,"0.0-4.83-1.83","xf4gtoalamdqxxe",980,"51.csv","","null","resources/maskTrios/L4BB.jpg","null","",NA,NA,NA,NA,""
"image-keyboard-response",263,318291,"0.0-4.83-2.83","xf4gtoalamdqxxe",980,"51.csv","","null","resources/images/fishbone.png","null","",NA,NA,NA,NA,""
"image-keyboard-response",264,320946,"0.0-4.84-0.84","xf4gtoalamdqxxe",980,"51.csv","","2654.1999999284744","resources/trios/L4T4A3.jpg","37","restless",0.6,0.5,0.6,0.406083943555313,"true"
"image-keyboard-response",265,321350,"0.0-4.84-1.84","xf4gtoalamdqxxe",980,"51.csv","","null","resources/maskTrios/L4BB.jpg","null","",NA,NA,NA,NA,""
"image-keyboard-response",266,322552,"0.0-4.84-2.84","xf4gtoalamdqxxe",980,"51.csv","","null","resources/images/coin2.png","null","",NA,NA,NA,NA,""
"image-keyboard-response",267,331707,"0.0-4.85-0.85","xf4gtoalamdqxxe",980,"51.csv","","9153.100000023842","resources/trios/L4T4A3.jpg","37","restless",0.6,0.5,0.6,0.265225669265487,"true"
"image-keyboard-response",268,332107,"0.0-4.85-1.85","xf4gtoalamdqxxe",980,"51.csv","","null","resources/maskTrios/L4BB.jpg","null","",NA,NA,NA,NA,""
"image-keyboard-response",269,333315,"0.0-4.85-2.85","xf4gtoalamdqxxe",980,"51.csv","","null","resources/images/coin2.png","null","",NA,NA,NA,NA,""
"image-keyboard-response",270,335043,"0.0-4.86-0.86","xf4gtoalamdqxxe",980,"51.csv","","1726.7000000476837","resources/trios/L4T4A3.jpg","37","restless",0.6,0.5,0.6,0.22184178976563,"true"
"image-keyboard-response",271,335445,"0.0-4.86-1.86","xf4gtoalamdqxxe",980,"51.csv","","null","resources/maskTrios/L4BB.jpg","null","",NA,NA,NA,NA,""
"image-keyboard-response",272,336650,"0.0-4.86-2.86","xf4gtoalamdqxxe",980,"51.csv","","null","resources/images/coin2.png","null","",NA,NA,NA,NA,""
"image-keyboard-response",273,337243,"0.0-4.87-0.87","xf4gtoalamdqxxe",980,"51.csv","","592.2999999523163","resources/trios/L4T4A3.jpg","37","restless",0.6,0.5,0.6,0.981250561023142,"false"
"image-keyboard-response",274,337650,"0.0-4.87-1.87","xf4gtoalamdqxxe",980,"51.csv","","null","resources/maskTrios/L4BB.jpg","null","",NA,NA,NA,NA,""
"image-keyboard-response",275,338853,"0.0-4.87-2.87","xf4gtoalamdqxxe",980,"51.csv","","null","resources/images/fishbone.png","null","",NA,NA,NA,NA,""
"image-keyboard-response",276,346321,"0.0-4.88-0.88","xf4gtoalamdqxxe",980,"51.csv","","7466.899999976158","resources/trios/L4T4A3.jpg","37","restless",0.6,0.5,0.6,0.612295796832238,"false"
"image-keyboard-response",277,346724,"0.0-4.88-1.88","xf4gtoalamdqxxe",980,"51.csv","","null","resources/maskTrios/L4BB.jpg","null","",NA,NA,NA,NA,""
"image-keyboard-response",278,347928,"0.0-4.88-2.88","xf4gtoalamdqxxe",980,"51.csv","","null","resources/images/fishbone.png","null","",NA,NA,NA,NA,""
"image-keyboard-response",279,352099,"0.0-4.89-0.89","xf4gtoalamdqxxe",980,"51.csv","","4170.199999928474","resources/trios/L4T4A3.jpg","37","restless",0.6,0.5,0.6,0.929808031498707,"false"
"image-keyboard-response",280,352506,"0.0-4.89-1.89","xf4gtoalamdqxxe",980,"51.csv","","null","resources/maskTrios/L4BB.jpg","null","",NA,NA,NA,NA,""
"image-keyboard-response",281,353708,"0.0-4.89-2.89","xf4gtoalamdqxxe",980,"51.csv","","null","resources/images/fishbone.png","null","",NA,NA,NA,NA,""
"image-keyboard-response",282,354242,"0.0-4.90-0.90","xf4gtoalamdqxxe",980,"51.csv","","532.8999999761581","resources/trios/L4T4A3.jpg","37","restless",0.6,0.5,0.6,0.581687492000037,"true"
"image-keyboard-response",283,354643,"0.0-4.90-1.90","xf4gtoalamdqxxe",980,"51.csv","","null","resources/maskTrios/L4BB.jpg","null","",NA,NA,NA,NA,""
"image-keyboard-response",284,355850,"0.0-4.90-2.90","xf4gtoalamdqxxe",980,"51.csv","","null","resources/images/coin2.png","null","",NA,NA,NA,NA,""
"image-keyboard-response",285,356367,"0.0-4.91-0.91","xf4gtoalamdqxxe",980,"51.csv","","515.6000000238419","resources/trios/L4T4A3.jpg","37","restless",0.6,0.4,0.7,0.335496842111181,"true"
"image-keyboard-response",286,356771,"0.0-4.91-1.91","xf4gtoalamdqxxe",980,"51.csv","","null","resources/maskTrios/L4BB.jpg","null","",NA,NA,NA,NA,""
"image-keyboard-response",287,357976,"0.0-4.91-2.91","xf4gtoalamdqxxe",980,"51.csv","","null","resources/images/coin2.png","null","",NA,NA,NA,NA,""
"image-keyboard-response",288,359061,"0.0-4.92-0.92","xf4gtoalamdqxxe",980,"51.csv","","1083.6000000238419","resources/trios/L4T4A3.jpg","37","restless",0.6,0.4,0.7,0.911818035952676,"false"
"image-keyboard-response",289,359467,"0.0-4.92-1.92","xf4gtoalamdqxxe",980,"51.csv","","null","resources/maskTrios/L4BB.jpg","null","",NA,NA,NA,NA,""
"image-keyboard-response",290,360671,"0.0-4.92-2.92","xf4gtoalamdqxxe",980,"51.csv","","null","resources/images/fishbone.png","null","",NA,NA,NA,NA,""
"image-keyboard-response",291,361269,"0.0-4.93-0.93","xf4gtoalamdqxxe",980,"51.csv","","596.1000000238419","resources/trios/L4T4A3.jpg","37","restless",0.6,0.4,0.7,0.516759764008227,"true"
"image-keyboard-response",292,361672,"0.0-4.93-1.93","xf4gtoalamdqxxe",980,"51.csv","","null","resources/maskTrios/L4BB.jpg","null","",NA,NA,NA,NA,""
"image-keyboard-response",293,362874,"0.0-4.93-2.93","xf4gtoalamdqxxe",980,"51.csv","","null","resources/images/coin2.png","null","",NA,NA,NA,NA,""
"image-keyboard-response",294,363321,"0.0-4.94-0.94","xf4gtoalamdqxxe",980,"51.csv","","446.09999990463257","resources/trios/L4T4A3.jpg","37","restless",0.5,0.4,0.7,0.446459539506118,"true"
"image-keyboard-response",295,363724,"0.0-4.94-1.94","xf4gtoalamdqxxe",980,"51.csv","","null","resources/maskTrios/L4BB.jpg","null","",NA,NA,NA,NA,""
"image-keyboard-response",296,364928,"0.0-4.94-2.94","xf4gtoalamdqxxe",980,"51.csv","","null","resources/images/coin2.png","null","",NA,NA,NA,NA,""
"image-keyboard-response",297,365261,"0.0-4.95-0.95","xf4gtoalamdqxxe",980,"51.csv","","331.8000000715256","resources/trios/L4T4A3.jpg","37","restless",0.6,0.4,0.7,0.0863435820039338,"true"
"image-keyboard-response",298,365663,"0.0-4.95-1.95","xf4gtoalamdqxxe",980,"51.csv","","null","resources/maskTrios/L4BB.jpg","null","",NA,NA,NA,NA,""
"image-keyboard-response",299,366867,"0.0-4.95-2.95","xf4gtoalamdqxxe",980,"51.csv","","null","resources/images/coin2.png","null","",NA,NA,NA,NA,""
"image-keyboard-response",300,367233,"0.0-4.96-0.96","xf4gtoalamdqxxe",980,"51.csv","","364.10000002384186","resources/trios/L4T4A3.jpg","37","restless",0.6,0.4,0.7,0.848220227836019,"false"
"image-keyboard-response",301,367635,"0.0-4.96-1.96","xf4gtoalamdqxxe",980,"51.csv","","null","resources/maskTrios/L4BB.jpg","null","",NA,NA,NA,NA,""
"image-keyboard-response",302,368836,"0.0-4.96-2.96","xf4gtoalamdqxxe",980,"51.csv","","null","resources/images/fishbone.png","null","",NA,NA,NA,NA,""
"image-keyboard-response",303,369735,"0.0-4.97-0.97","xf4gtoalamdqxxe",980,"51.csv","","897.1999999284744","resources/trios/L4T4A3.jpg","37","restless",0.6,0.4,0.7,0.0327129699351865,"true"
"image-keyboard-response",304,370136,"0.0-4.97-1.97","xf4gtoalamdqxxe",980,"51.csv","","null","resources/maskTrios/L4BB.jpg","null","",NA,NA,NA,NA,""
"image-keyboard-response",305,371339,"0.0-4.97-2.97","xf4gtoalamdqxxe",980,"51.csv","","null","resources/images/coin2.png","null","",NA,NA,NA,NA,""
"image-keyboard-response",306,372136,"0.0-4.98-0.98","xf4gtoalamdqxxe",980,"51.csv","","795.1999999284744","resources/trios/L4T4A3.jpg","37","restless",0.6,0.4,0.7,0.329177106262459,"true"
"image-keyboard-response",307,372537,"0.0-4.98-1.98","xf4gtoalamdqxxe",980,"51.csv","","null","resources/maskTrios/L4BB.jpg","null","",NA,NA,NA,NA,""
"image-keyboard-response",308,373741,"0.0-4.98-2.98","xf4gtoalamdqxxe",980,"51.csv","","null","resources/images/coin2.png","null","",NA,NA,NA,NA,""
"image-keyboard-response",309,375107,"0.0-4.99-0.99","xf4gtoalamdqxxe",980,"51.csv","","1365.1000000238419","resources/trios/L4T4A3.jpg","37","restless",0.6,0.4,0.7,0.139649431990085,"true"
"image-keyboard-response",310,375511,"0.0-4.99-1.99","xf4gtoalamdqxxe",980,"51.csv","","null","resources/maskTrios/L4BB.jpg","null","",NA,NA,NA,NA,""
"image-keyboard-response",311,376713,"0.0-4.99-2.99","xf4gtoalamdqxxe",980,"51.csv","","null","resources/images/coin2.png","null","",NA,NA,NA,NA,""
"image-keyboard-response",312,382827,"0.0-4.100-0.100","xf4gtoalamdqxxe",980,"51.csv","","6112.799999952316","resources/trios/L4T4A3.jpg","37","restless",0.5,0.4,0.7,0.33152528502221,"true"
"image-keyboard-response",313,383232,"0.0-4.100-1.100","xf4gtoalamdqxxe",980,"51.csv","","null","resources/maskTrios/L4BB.jpg","null","",NA,NA,NA,NA,""
"image-keyboard-response",314,384434,"0.0-4.100-2.100","xf4gtoalamdqxxe",980,"51.csv","","null","resources/images/coin2.png","null","",NA,NA,NA,NA,""
"image-keyboard-response",315,386108,"0.0-4.101-0.101","xf4gtoalamdqxxe",980,"51.csv","","1673.3000000715256","resources/trios/L4T4A3.jpg","37","restless",0.6,0.4,0.7,0.395111264403661,"true"
"image-keyboard-response",316,386511,"0.0-4.101-1.101","xf4gtoalamdqxxe",980,"51.csv","","null","resources/maskTrios/L4BB.jpg","null","",NA,NA,NA,NA,""
"image-keyboard-response",317,387714,"0.0-4.101-2.101","xf4gtoalamdqxxe",980,"51.csv","","null","resources/images/coin2.png","null","",NA,NA,NA,NA,""
"image-keyboard-response",318,390470,"0.0-4.102-0.102","xf4gtoalamdqxxe",980,"51.csv","","2755.5","resources/trios/L4T4A3.jpg","37","restless",0.6,0.4,0.7,0.947256256016506,"false"
"image-keyboard-response",319,390874,"0.0-4.102-1.102","xf4gtoalamdqxxe",980,"51.csv","","null","resources/maskTrios/L4BB.jpg","null","",NA,NA,NA,NA,""
"image-keyboard-response",320,392079,"0.0-4.102-2.102","xf4gtoalamdqxxe",980,"51.csv","","null","resources/images/fishbone.png","null","",NA,NA,NA,NA,""
"image-keyboard-response",321,401599,"0.0-4.103-0.103","xf4gtoalamdqxxe",980,"51.csv","","9518.799999952316","resources/trios/L4T4A3.jpg","37","restless",0.6,0.4,0.7,0.566413226201903,"true"
"image-keyboard-response",322,402006,"0.0-4.103-1.103","xf4gtoalamdqxxe",980,"51.csv","","null","resources/maskTrios/L4BB.jpg","null","",NA,NA,NA,NA,""
"image-keyboard-response",323,403208,"0.0-4.103-2.103","xf4gtoalamdqxxe",980,"51.csv","","null","resources/images/coin2.png","null","",NA,NA,NA,NA,""
"image-keyboard-response",324,403383,"0.0-4.104-0.104","xf4gtoalamdqxxe",980,"51.csv","","174.60000002384186","resources/trios/L4T4A3.jpg","37","restless",0.6,0.4,0.7,0.770516472534961,"false"
"image-keyboard-response",325,403790,"0.0-4.104-1.104","xf4gtoalamdqxxe",980,"51.csv","","null","resources/maskTrios/L4BB.jpg","null","",NA,NA,NA,NA,""
"image-keyboard-response",326,404996,"0.0-4.104-2.104","xf4gtoalamdqxxe",980,"51.csv","","null","resources/images/fishbone.png","null","",NA,NA,NA,NA,""
"image-keyboard-response",327,405287,"0.0-4.105-0.105","xf4gtoalamdqxxe",980,"51.csv","","290.3000000715256","resources/trios/L4T4A3.jpg","37","restless",0.6,0.4,0.7,0.844903217061744,"false"
"image-keyboard-response",328,405693,"0.0-4.105-1.105","xf4gtoalamdqxxe",980,"51.csv","","null","resources/maskTrios/L4BB.jpg","null","",NA,NA,NA,NA,""
"image-keyboard-response",329,406896,"0.0-4.105-2.105","xf4gtoalamdqxxe",980,"51.csv","","null","resources/images/fishbone.png","null","",NA,NA,NA,NA,""
"image-keyboard-response",330,408235,"0.0-4.106-0.106","xf4gtoalamdqxxe",980,"51.csv","","1337.1999999284744","resources/trios/L4T4A3.jpg","37","restless",0.6,0.4,0.7,0.747386263419254,"false"
"image-keyboard-response",331,408641,"0.0-4.106-1.106","xf4gtoalamdqxxe",980,"51.csv","","null","resources/maskTrios/L4BB.jpg","null","",NA,NA,NA,NA,""
"image-keyboard-response",332,409846,"0.0-4.106-2.106","xf4gtoalamdqxxe",980,"51.csv","","null","resources/images/fishbone.png","null","",NA,NA,NA,NA,""
"image-keyboard-response",333,410627,"0.0-4.107-0.107","xf4gtoalamdqxxe",980,"51.csv","","780.1999999284744","resources/trios/L4T4A3.jpg","37","restless",0.7,0.4,0.7,0.499926268809164,"true"
"image-keyboard-response",334,411031,"0.0-4.107-1.107","xf4gtoalamdqxxe",980,"51.csv","","null","resources/maskTrios/L4BB.jpg","null","",NA,NA,NA,NA,""
"image-keyboard-response",335,412238,"0.0-4.107-2.107","xf4gtoalamdqxxe",980,"51.csv","","null","resources/images/coin2.png","null","",NA,NA,NA,NA,""
"image-keyboard-response",336,412380,"0.0-4.108-0.108","xf4gtoalamdqxxe",980,"51.csv","","140.60000002384186","resources/trios/L4T4A3.jpg","37","restless",0.7,0.4,0.7,0.93882666936412,"false"
"image-keyboard-response",337,412785,"0.0-4.108-1.108","xf4gtoalamdqxxe",980,"51.csv","","null","resources/maskTrios/L4BB.jpg","null","",NA,NA,NA,NA,""
"image-keyboard-response",338,413987,"0.0-4.108-2.108","xf4gtoalamdqxxe",980,"51.csv","","null","resources/images/fishbone.png","null","",NA,NA,NA,NA,""
"image-keyboard-response",339,414334,"0.0-4.109-0.109","xf4gtoalamdqxxe",980,"51.csv","","345.60000002384186","resources/trios/L4T4A3.jpg","37","restless",0.7,0.4,0.7,0.0598884520521423,"true"
"image-keyboard-response",340,414737,"0.0-4.109-1.109","xf4gtoalamdqxxe",980,"51.csv","","null","resources/maskTrios/L4BB.jpg","null","",NA,NA,NA,NA,""
"image-keyboard-response",341,415944,"0.0-4.109-2.109","xf4gtoalamdqxxe",980,"51.csv","","null","resources/images/coin2.png","null","",NA,NA,NA,NA,""
"image-keyboard-response",342,418185,"0.0-4.110-0.110","xf4gtoalamdqxxe",980,"51.csv","","2239.7999999523163","resources/trios/L4T4A3.jpg","37","restless",0.7,0.4,0.6,0.79891784862764,"false"
"image-keyboard-response",343,418591,"0.0-4.110-1.110","xf4gtoalamdqxxe",980,"51.csv","","null","resources/maskTrios/L4BB.jpg","null","",NA,NA,NA,NA,""
"image-keyboard-response",344,419798,"0.0-4.110-2.110","xf4gtoalamdqxxe",980,"51.csv","","null","resources/images/fishbone.png","null","",NA,NA,NA,NA,""
"image-keyboard-response",345,420003,"0.0-4.111-0.111","xf4gtoalamdqxxe",980,"51.csv","","204.70000004768372","resources/trios/L4T4A3.jpg","37","restless",0.7,0.4,0.6,0.983156094051879,"false"
"image-keyboard-response",346,420408,"0.0-4.111-1.111","xf4gtoalamdqxxe",980,"51.csv","","null","resources/maskTrios/L4BB.jpg","null","",NA,NA,NA,NA,""
"image-keyboard-response",347,421610,"0.0-4.111-2.111","xf4gtoalamdqxxe",980,"51.csv","","null","resources/images/fishbone.png","null","",NA,NA,NA,NA,""
"image-keyboard-response",348,424185,"0.0-4.112-0.112","xf4gtoalamdqxxe",980,"51.csv","","2572.899999976158","resources/trios/L4T4A3.jpg","37","restless",0.6,0.4,0.6,0.615035293580932,"false"
"image-keyboard-response",349,424589,"0.0-4.112-1.112","xf4gtoalamdqxxe",980,"51.csv","","null","resources/maskTrios/L4BB.jpg","null","",NA,NA,NA,NA,""
"image-keyboard-response",350,425794,"0.0-4.112-2.112","xf4gtoalamdqxxe",980,"51.csv","","null","resources/images/fishbone.png","null","",NA,NA,NA,NA,""
"image-keyboard-response",351,425873,"0.0-4.113-0.113","xf4gtoalamdqxxe",980,"51.csv","","77.79999995231628","resources/trios/L4T4A3.jpg","37","restless",0.6,0.4,0.6,0.970878114826254,"false"
"image-keyboard-response",352,426277,"0.0-4.113-1.113","xf4gtoalamdqxxe",980,"51.csv","","null","resources/maskTrios/L4BB.jpg","null","",NA,NA,NA,NA,""
"image-keyboard-response",353,427483,"0.0-4.113-2.113","xf4gtoalamdqxxe",980,"51.csv","","null","resources/images/fishbone.png","null","",NA,NA,NA,NA,""
"image-keyboard-response",354,428427,"0.0-4.114-0.114","xf4gtoalamdqxxe",980,"51.csv","","942.8999999761581","resources/trios/L4T4A3.jpg","37","restless",0.6,0.4,0.6,0.787496167660327,"false"
"image-keyboard-response",355,428833,"0.0-4.114-1.114","xf4gtoalamdqxxe",980,"51.csv","","null","resources/maskTrios/L4BB.jpg","null","",NA,NA,NA,NA,""
"image-keyboard-response",356,430040,"0.0-4.114-2.114","xf4gtoalamdqxxe",980,"51.csv","","null","resources/images/fishbone.png","null","",NA,NA,NA,NA,""
"image-keyboard-response",357,431698,"0.0-4.115-0.115","xf4gtoalamdqxxe",980,"51.csv","","1656.8999999761581","resources/trios/L4T4A3.jpg","37","restless",0.6,0.4,0.6,0.513215734173857,"true"
"image-keyboard-response",358,432102,"0.0-4.115-1.115","xf4gtoalamdqxxe",980,"51.csv","","null","resources/maskTrios/L4BB.jpg","null","",NA,NA,NA,NA,""
"image-keyboard-response",359,433304,"0.0-4.115-2.115","xf4gtoalamdqxxe",980,"51.csv","","null","resources/images/coin2.png","null","",NA,NA,NA,NA,""
"image-keyboard-response",360,434638,"0.0-4.116-0.116","xf4gtoalamdqxxe",980,"51.csv","","1333.3999999761581","resources/trios/L4T4A3.jpg","37","restless",0.6,0.4,0.6,0.432186738582701,"true"
"image-keyboard-response",361,435039,"0.0-4.116-1.116","xf4gtoalamdqxxe",980,"51.csv","","null","resources/maskTrios/L4BB.jpg","null","",NA,NA,NA,NA,""
"image-keyboard-response",362,436241,"0.0-4.116-2.116","xf4gtoalamdqxxe",980,"51.csv","","null","resources/images/coin2.png","null","",NA,NA,NA,NA,""
"image-keyboard-response",363,440350,"0.0-4.117-0.117","xf4gtoalamdqxxe",980,"51.csv","","4107.899999976158","resources/trios/L4T4A3.jpg","37","restless",0.6,0.4,0.7,0.872288815226233,"false"
"image-keyboard-response",364,440752,"0.0-4.117-1.117","xf4gtoalamdqxxe",980,"51.csv","","null","resources/maskTrios/L4BB.jpg","null","",NA,NA,NA,NA,""
"image-keyboard-response",365,441958,"0.0-4.117-2.117","xf4gtoalamdqxxe",980,"51.csv","","null","resources/images/fishbone.png","null","",NA,NA,NA,NA,""
"image-keyboard-response",366,442883,"0.0-4.118-0.118","xf4gtoalamdqxxe",980,"51.csv","","923.8000000715256","resources/trios/L4T4A3.jpg","37","restless",0.6,0.4,0.7,0.303490399162925,"true"
"image-keyboard-response",367,443288,"0.0-4.118-1.118","xf4gtoalamdqxxe",980,"51.csv","","null","resources/maskTrios/L4BB.jpg","null","",NA,NA,NA,NA,""
"image-keyboard-response",368,444493,"0.0-4.118-2.118","xf4gtoalamdqxxe",980,"51.csv","","null","resources/images/coin2.png","null","",NA,NA,NA,NA,""
"image-keyboard-response",369,445018,"0.0-4.119-0.119","xf4gtoalamdqxxe",980,"51.csv","","523.6000000238419","resources/trios/L4T4A3.jpg","37","restless",0.6,0.4,0.6,0.971101702707735,"false"
"image-keyboard-response",370,445422,"0.0-4.119-1.119","xf4gtoalamdqxxe",980,"51.csv","","null","resources/maskTrios/L4BB.jpg","null","",NA,NA,NA,NA,""
"image-keyboard-response",371,446627,"0.0-4.119-2.119","xf4gtoalamdqxxe",980,"51.csv","","null","resources/images/fishbone.png","null","",NA,NA,NA,NA,""
"image-keyboard-response",372,448826,"0.0-4.120-0.120","xf4gtoalamdqxxe",980,"51.csv","","2198","resources/trios/L4T4A3.jpg","37","restless",0.6,0.4,0.6,0.735603276769923,"false"
"image-keyboard-response",373,449228,"0.0-4.120-1.120","xf4gtoalamdqxxe",980,"51.csv","","null","resources/maskTrios/L4BB.jpg","null","",NA,NA,NA,NA,""
"image-keyboard-response",374,450430,"0.0-4.120-2.120","xf4gtoalamdqxxe",980,"51.csv","","null","resources/images/fishbone.png","null","",NA,NA,NA,NA,""
"image-keyboard-response",375,451197,"0.0-4.121-0.121","xf4gtoalamdqxxe",980,"51.csv","","765.5","resources/trios/L4T4A3.jpg","37","restless",0.6,0.4,0.6,0.414376424799111,"true"
"image-keyboard-response",376,451602,"0.0-4.121-1.121","xf4gtoalamdqxxe",980,"51.csv","","null","resources/maskTrios/L4BB.jpg","null","",NA,NA,NA,NA,""
"image-keyboard-response",377,452804,"0.0-4.121-2.121","xf4gtoalamdqxxe",980,"51.csv","","null","resources/images/coin2.png","null","",NA,NA,NA,NA,""
"image-keyboard-response",378,453294,"0.0-4.122-0.122","xf4gtoalamdqxxe",980,"51.csv","","488.89999997615814","resources/trios/L4T4A3.jpg","37","restless",0.6,0.4,0.6,0.466917337123871,"true"
"image-keyboard-response",379,453698,"0.0-4.122-1.122","xf4gtoalamdqxxe",980,"51.csv","","null","resources/maskTrios/L4BB.jpg","null","",NA,NA,NA,NA,""
"image-keyboard-response",380,454900,"0.0-4.122-2.122","xf4gtoalamdqxxe",980,"51.csv","","null","resources/images/coin2.png","null","",NA,NA,NA,NA,""
"image-keyboard-response",381,455945,"0.0-4.123-0.123","xf4gtoalamdqxxe",980,"51.csv","","1044.7000000476837","resources/trios/L4T4A3.jpg","37","restless",0.6,0.4,0.6,0.144721093175635,"true"
"image-keyboard-response",382,456351,"0.0-4.123-1.123","xf4gtoalamdqxxe",980,"51.csv","","null","resources/maskTrios/L4BB.jpg","null","",NA,NA,NA,NA,""
"image-keyboard-response",383,457553,"0.0-4.123-2.123","xf4gtoalamdqxxe",980,"51.csv","","null","resources/images/coin2.png","null","",NA,NA,NA,NA,""
"image-keyboard-response",384,458716,"0.0-4.124-0.124","xf4gtoalamdqxxe",980,"51.csv","","1162.5","resources/trios/L4T4A3.jpg","37","restless",0.6,0.4,0.6,0.710413406799333,"false"
"image-keyboard-response",385,459120,"0.0-4.124-1.124","xf4gtoalamdqxxe",980,"51.csv","","null","resources/maskTrios/L4BB.jpg","null","",NA,NA,NA,NA,""
"image-keyboard-response",386,460323,"0.0-4.124-2.124","xf4gtoalamdqxxe",980,"51.csv","","null","resources/images/fishbone.png","null","",NA,NA,NA,NA,""
"image-keyboard-response",387,461521,"0.0-4.125-0.125","xf4gtoalamdqxxe",980,"51.csv","","1196.2000000476837","resources/trios/L4T4A3.jpg","37","restless",0.6,0.4,0.5,0.471422198246349,"true"
"image-keyboard-response",388,461924,"0.0-4.125-1.125","xf4gtoalamdqxxe",980,"51.csv","","null","resources/maskTrios/L4BB.jpg","null","",NA,NA,NA,NA,""
"image-keyboard-response",389,463125,"0.0-4.125-2.125","xf4gtoalamdqxxe",980,"51.csv","","null","resources/images/coin2.png","null","",NA,NA,NA,NA,""
"image-keyboard-response",390,464780,"0.0-4.126-0.126","xf4gtoalamdqxxe",980,"51.csv","","1653.2999999523163","resources/trios/L4T4A3.jpg","37","restless",0.5,0.3,0.4,0.403045612252244,"true"
"image-keyboard-response",391,465186,"0.0-4.126-1.126","xf4gtoalamdqxxe",980,"51.csv","","null","resources/maskTrios/L4BB.jpg","null","",NA,NA,NA,NA,""
"image-keyboard-response",392,466388,"0.0-4.126-2.126","xf4gtoalamdqxxe",980,"51.csv","","null","resources/images/coin2.png","null","",NA,NA,NA,NA,""
"image-keyboard-response",393,467698,"0.0-4.127-0.127","xf4gtoalamdqxxe",980,"51.csv","","1308.3999999761581","resources/trios/L4T4A3.jpg","37","restless",0.5,0.3,0.3,0.124261813266598,"true"
"image-keyboard-response",394,468102,"0.0-4.127-1.127","xf4gtoalamdqxxe",980,"51.csv","","null","resources/maskTrios/L4BB.jpg","null","",NA,NA,NA,NA,""
"image-keyboard-response",395,469307,"0.0-4.127-2.127","xf4gtoalamdqxxe",980,"51.csv","","null","resources/images/coin2.png","null","",NA,NA,NA,NA,""
"image-keyboard-response",396,472114,"0.0-4.128-0.128","xf4gtoalamdqxxe",980,"51.csv","","2806.399999976158","resources/trios/L4T4A3.jpg","37","restless",0.5,0.3,0.3,0.506400755700582,"false"
"image-keyboard-response",397,472517,"0.0-4.128-1.128","xf4gtoalamdqxxe",980,"51.csv","","null","resources/maskTrios/L4BB.jpg","null","",NA,NA,NA,NA,""
"image-keyboard-response",398,473720,"0.0-4.128-2.128","xf4gtoalamdqxxe",980,"51.csv","","null","resources/images/fishbone.png","null","",NA,NA,NA,NA,""
"image-keyboard-response",399,473966,"0.0-4.129-0.129","xf4gtoalamdqxxe",980,"51.csv","","245","resources/trios/L4T4A3.jpg","37","restless",0.5,0.3,0.3,0.771081379329535,"false"
"image-keyboard-response",400,474370,"0.0-4.129-1.129","xf4gtoalamdqxxe",980,"51.csv","","null","resources/maskTrios/L4BB.jpg","null","",NA,NA,NA,NA,""
"image-keyboard-response",401,475573,"0.0-4.129-2.129","xf4gtoalamdqxxe",980,"51.csv","","null","resources/images/fishbone.png","null","",NA,NA,NA,NA,""
"image-keyboard-response",402,477584,"0.0-4.130-0.130","xf4gtoalamdqxxe",980,"51.csv","","2009","resources/trios/L4T4A3.jpg","37","restless",0.5,0.3,0.3,0.385800174408458,"true"
"image-keyboard-response",403,477989,"0.0-4.130-1.130","xf4gtoalamdqxxe",980,"51.csv","","null","resources/maskTrios/L4BB.jpg","null","",NA,NA,NA,NA,""
"image-keyboard-response",404,479194,"0.0-4.130-2.130","xf4gtoalamdqxxe",980,"51.csv","","null","resources/images/coin2.png","null","",NA,NA,NA,NA,""
"image-keyboard-response",405,479319,"0.0-4.131-0.131","xf4gtoalamdqxxe",980,"51.csv","","123.89999997615814","resources/trios/L4T4A3.jpg","37","restless",0.5,0.3,0.3,0.460956249444029,"true"
"image-keyboard-response",406,479722,"0.0-4.131-1.131","xf4gtoalamdqxxe",980,"51.csv","","null","resources/maskTrios/L4BB.jpg","null","",NA,NA,NA,NA,""
"image-keyboard-response",407,480924,"0.0-4.131-2.131","xf4gtoalamdqxxe",980,"51.csv","","null","resources/images/coin2.png","null","",NA,NA,NA,NA,""
"image-keyboard-response",408,482456,"0.0-4.132-0.132","xf4gtoalamdqxxe",980,"51.csv","","1530.5","resources/trios/L4T4A3.jpg","37","restless",0.5,0.3,0.3,0.170068437303269,"true"
"image-keyboard-response",409,482857,"0.0-4.132-1.132","xf4gtoalamdqxxe",980,"51.csv","","null","resources/maskTrios/L4BB.jpg","null","",NA,NA,NA,NA,""
"image-keyboard-response",410,484063,"0.0-4.132-2.132","xf4gtoalamdqxxe",980,"51.csv","","null","resources/images/coin2.png","null","",NA,NA,NA,NA,""
"image-keyboard-response",411,484320,"0.0-4.133-0.133","xf4gtoalamdqxxe",980,"51.csv","","256","resources/trios/L4T4A3.jpg","37","restless",0.5,0.3,0.3,0.0632956357204346,"true"
"image-keyboard-response",412,484720,"0.0-4.133-1.133","xf4gtoalamdqxxe",980,"51.csv","","null","resources/maskTrios/L4BB.jpg","null","",NA,NA,NA,NA,""
"image-keyboard-response",413,485924,"0.0-4.133-2.133","xf4gtoalamdqxxe",980,"51.csv","","null","resources/images/coin2.png","null","",NA,NA,NA,NA,""
"image-keyboard-response",414,487469,"0.0-4.134-0.134","xf4gtoalamdqxxe",980,"51.csv","","1544.1000000238419","resources/trios/L4T4A3.jpg","37","restless",0.5,0.3,0.3,0.756237705091692,"false"
"image-keyboard-response",415,487873,"0.0-4.134-1.134","xf4gtoalamdqxxe",980,"51.csv","","null","resources/maskTrios/L4BB.jpg","null","",NA,NA,NA,NA,""
"image-keyboard-response",416,489078,"0.0-4.134-2.134","xf4gtoalamdqxxe",980,"51.csv","","null","resources/images/fishbone.png","null","",NA,NA,NA,NA,""
"image-keyboard-response",417,489423,"0.0-4.135-0.135","xf4gtoalamdqxxe",980,"51.csv","","343.7999999523163","resources/trios/L4T4A3.jpg","37","restless",0.5,0.3,0.3,0.515217489794596,"false"
"image-keyboard-response",418,489825,"0.0-4.135-1.135","xf4gtoalamdqxxe",980,"51.csv","","null","resources/maskTrios/L4BB.jpg","null","",NA,NA,NA,NA,""
"image-keyboard-response",419,491026,"0.0-4.135-2.135","xf4gtoalamdqxxe",980,"51.csv","","null","resources/images/fishbone.png","null","",NA,NA,NA,NA,""
"image-keyboard-response",420,493092,"0.0-4.136-0.136","xf4gtoalamdqxxe",980,"51.csv","","2065.5999999046326","resources/trios/L4T4A3.jpg","37","restless",0.6,0.3,0.3,0.416656852834166,"true"
"image-keyboard-response",421,493498,"0.0-4.136-1.136","xf4gtoalamdqxxe",980,"51.csv","","null","resources/maskTrios/L4BB.jpg","null","",NA,NA,NA,NA,""
"image-keyboard-response",422,494702,"0.0-4.136-2.136","xf4gtoalamdqxxe",980,"51.csv","","null","resources/images/coin2.png","null","",NA,NA,NA,NA,""
"image-keyboard-response",423,495924,"0.0-4.137-0.137","xf4gtoalamdqxxe",980,"51.csv","","1220.8999999761581","resources/trios/L4T4A3.jpg","37","restless",0.6,0.3,0.3,0.714464601073445,"false"
"image-keyboard-response",424,496331,"0.0-4.137-1.137","xf4gtoalamdqxxe",980,"51.csv","","null","resources/maskTrios/L4BB.jpg","null","",NA,NA,NA,NA,""
"image-keyboard-response",425,497536,"0.0-4.137-2.137","xf4gtoalamdqxxe",980,"51.csv","","null","resources/images/fishbone.png","null","",NA,NA,NA,NA,""
"image-keyboard-response",426,497844,"0.0-4.138-0.138","xf4gtoalamdqxxe",980,"51.csv","","307.39999997615814","resources/trios/L4T4A3.jpg","37","restless",0.6,0.3,0.3,0.146946239129063,"true"
"image-keyboard-response",427,498249,"0.0-4.138-1.138","xf4gtoalamdqxxe",980,"51.csv","","null","resources/maskTrios/L4BB.jpg","null","",NA,NA,NA,NA,""
"image-keyboard-response",428,499453,"0.0-4.138-2.138","xf4gtoalamdqxxe",980,"51.csv","","null","resources/images/coin2.png","null","",NA,NA,NA,NA,""
"image-keyboard-response",429,499784,"0.0-4.139-0.139","xf4gtoalamdqxxe",980,"51.csv","","330.40000009536743","resources/trios/L4T4A3.jpg","37","restless",0.6,0.3,0.3,0.270924185787935,"true"
"image-keyboard-response",430,500190,"0.0-4.139-1.139","xf4gtoalamdqxxe",980,"51.csv","","null","resources/maskTrios/L4BB.jpg","null","",NA,NA,NA,NA,""
"image-keyboard-response",431,501396,"0.0-4.139-2.139","xf4gtoalamdqxxe",980,"51.csv","","null","resources/images/coin2.png","null","",NA,NA,NA,NA,""
"image-keyboard-response",432,501695,"0.0-4.140-0.140","xf4gtoalamdqxxe",980,"51.csv","","297.89999997615814","resources/trios/L4T4A3.jpg","37","restless",0.6,0.3,0.3,0.874033401835515,"false"
"image-keyboard-response",433,502100,"0.0-4.140-1.140","xf4gtoalamdqxxe",980,"51.csv","","null","resources/maskTrios/L4BB.jpg","null","",NA,NA,NA,NA,""
"image-keyboard-response",434,503303,"0.0-4.140-2.140","xf4gtoalamdqxxe",980,"51.csv","","null","resources/images/fishbone.png","null","",NA,NA,NA,NA,""
"image-keyboard-response",435,503665,"0.0-4.141-0.141","xf4gtoalamdqxxe",980,"51.csv","","361.3000000715256","resources/trios/L4T4A3.jpg","37","restless",0.7,0.3,0.3,0.529908155075768,"true"
"image-keyboard-response",436,504068,"0.0-4.141-1.141","xf4gtoalamdqxxe",980,"51.csv","","null","resources/maskTrios/L4BB.jpg","null","",NA,NA,NA,NA,""
"image-keyboard-response",437,505275,"0.0-4.141-2.141","xf4gtoalamdqxxe",980,"51.csv","","null","resources/images/coin2.png","null","",NA,NA,NA,NA,""
"image-keyboard-response",438,505407,"0.0-4.142-0.142","xf4gtoalamdqxxe",980,"51.csv","","130.39999997615814","resources/trios/L4T4A3.jpg","37","restless",0.7,0.3,0.4,0.414615864998668,"true"
"image-keyboard-response",439,505810,"0.0-4.142-1.142","xf4gtoalamdqxxe",980,"51.csv","","null","resources/maskTrios/L4BB.jpg","null","",NA,NA,NA,NA,""
"image-keyboard-response",440,507018,"0.0-4.142-2.142","xf4gtoalamdqxxe",980,"51.csv","","null","resources/images/coin2.png","null","",NA,NA,NA,NA,""
"image-keyboard-response",441,507811,"0.0-4.143-0.143","xf4gtoalamdqxxe",980,"51.csv","","792.6000000238419","resources/trios/L4T4A3.jpg","37","restless",0.7,0.3,0.4,0.657025170401996,"true"
"image-keyboard-response",442,508214,"0.0-4.143-1.143","xf4gtoalamdqxxe",980,"51.csv","","null","resources/maskTrios/L4BB.jpg","null","",NA,NA,NA,NA,""
"image-keyboard-response",443,509416,"0.0-4.143-2.143","xf4gtoalamdqxxe",980,"51.csv","","null","resources/images/coin2.png","null","",NA,NA,NA,NA,""
"image-keyboard-response",444,510266,"0.0-4.144-0.144","xf4gtoalamdqxxe",980,"51.csv","","849.4000000953674","resources/trios/L4T4A3.jpg","37","restless",0.7,0.3,0.4,0.814693135789994,"false"
"image-keyboard-response",445,510667,"0.0-4.144-1.144","xf4gtoalamdqxxe",980,"51.csv","","null","resources/maskTrios/L4BB.jpg","null","",NA,NA,NA,NA,""
"image-keyboard-response",446,511871,"0.0-4.144-2.144","xf4gtoalamdqxxe",980,"51.csv","","null","resources/images/fishbone.png","null","",NA,NA,NA,NA,""
"image-keyboard-response",447,513301,"0.0-4.145-0.145","xf4gtoalamdqxxe",980,"51.csv","","1429.6000000238419","resources/trios/L4T4A3.jpg","37","restless",0.8,0.3,0.4,0.174460774787933,"true"
"image-keyboard-response",448,513705,"0.0-4.145-1.145","xf4gtoalamdqxxe",980,"51.csv","","null","resources/maskTrios/L4BB.jpg","null","",NA,NA,NA,NA,""
"image-keyboard-response",449,514910,"0.0-4.145-2.145","xf4gtoalamdqxxe",980,"51.csv","","null","resources/images/coin2.png","null","",NA,NA,NA,NA,""
"image-keyboard-response",450,515533,"0.0-4.146-0.146","xf4gtoalamdqxxe",980,"51.csv","","621.7000000476837","resources/trios/L4T4A3.jpg","37","restless",0.8,0.4,0.4,0.951654922585885,"false"
"image-keyboard-response",451,515940,"0.0-4.146-1.146","xf4gtoalamdqxxe",980,"51.csv","","null","resources/maskTrios/L4BB.jpg","null","",NA,NA,NA,NA,""
"image-keyboard-response",452,517144,"0.0-4.146-2.146","xf4gtoalamdqxxe",980,"51.csv","","null","resources/images/fishbone.png","null","",NA,NA,NA,NA,""
"image-keyboard-response",453,518399,"0.0-4.147-0.147","xf4gtoalamdqxxe",980,"51.csv","","1253.8000000715256","resources/trios/L4T4A3.jpg","37","restless",0.8,0.4,0.4,0.896334661246889,"false"
"image-keyboard-response",454,518801,"0.0-4.147-1.147","xf4gtoalamdqxxe",980,"51.csv","","null","resources/maskTrios/L4BB.jpg","null","",NA,NA,NA,NA,""
"image-keyboard-response",455,520003,"0.0-4.147-2.147","xf4gtoalamdqxxe",980,"51.csv","","null","resources/images/fishbone.png","null","",NA,NA,NA,NA,""
"image-keyboard-response",456,520749,"0.0-4.148-0.148","xf4gtoalamdqxxe",980,"51.csv","","744.8999999761581","resources/trios/L4T4A3.jpg","37","restless",0.8,0.4,0.4,0.674632507300902,"true"
"image-keyboard-response",457,521153,"0.0-4.148-1.148","xf4gtoalamdqxxe",980,"51.csv","","null","resources/maskTrios/L4BB.jpg","null","",NA,NA,NA,NA,""
"image-keyboard-response",458,522357,"0.0-4.148-2.148","xf4gtoalamdqxxe",980,"51.csv","","null","resources/images/coin2.png","null","",NA,NA,NA,NA,""
"image-keyboard-response",459,523166,"0.0-4.149-0.149","xf4gtoalamdqxxe",980,"51.csv","","807.6000000238419","resources/trios/L4T4A3.jpg","37","restless",0.8,0.4,0.4,0.483206463044328,"true"
"image-keyboard-response",460,523570,"0.0-4.149-1.149","xf4gtoalamdqxxe",980,"51.csv","","null","resources/maskTrios/L4BB.jpg","null","",NA,NA,NA,NA,""
"image-keyboard-response",461,524775,"0.0-4.149-2.149","xf4gtoalamdqxxe",980,"51.csv","","null","resources/images/coin2.png","null","",NA,NA,NA,NA,""
"image-keyboard-response",462,525191,"0.0-4.150-0.150","xf4gtoalamdqxxe",980,"51.csv","","414.7000000476837","resources/trios/L4T4A3.jpg","37","restless",0.8,0.4,0.4,0.524502767747785,"true"
"image-keyboard-response",463,525594,"0.0-4.150-1.150","xf4gtoalamdqxxe",980,"51.csv","","null","resources/maskTrios/L4BB.jpg","null","",NA,NA,NA,NA,""
"image-keyboard-response",464,526800,"0.0-4.150-2.150","xf4gtoalamdqxxe",980,"51.csv","","null","resources/images/coin2.png","null","",NA,NA,NA,NA,""
"image-keyboard-response",465,527499,"0.0-4.151-0.151","xf4gtoalamdqxxe",980,"51.csv","","697.2000000476837","resources/trios/L4T4A3.jpg","37","restless",0.8,0.4,0.4,0.491542073612119,"true"
"image-keyboard-response",466,527906,"0.0-4.151-1.151","xf4gtoalamdqxxe",980,"51.csv","","null","resources/maskTrios/L4BB.jpg","null","",NA,NA,NA,NA,""
"image-keyboard-response",467,529120,"0.0-4.151-2.151","xf4gtoalamdqxxe",980,"51.csv","","null","resources/images/coin2.png","null","",NA,NA,NA,NA,""
"image-keyboard-response",468,531073,"0.0-4.152-0.152","xf4gtoalamdqxxe",980,"51.csv","","1952","resources/trios/L4T4A3.jpg","37","restless",0.8,0.4,0.4,0.601950831871789,"true"
"image-keyboard-response",469,531474,"0.0-4.152-1.152","xf4gtoalamdqxxe",980,"51.csv","","null","resources/maskTrios/L4BB.jpg","null","",NA,NA,NA,NA,""
"image-keyboard-response",470,532676,"0.0-4.152-2.152","xf4gtoalamdqxxe",980,"51.csv","","null","resources/images/coin2.png","null","",NA,NA,NA,NA,""
"image-keyboard-response",471,532682,"0.0-4.153-0.153","xf4gtoalamdqxxe",980,"51.csv","","4.299999952316284","resources/trios/L4T4A3.jpg","37","restless",0.8,0.4,0.4,0.937188727752898,"false"
"image-keyboard-response",472,533085,"0.0-4.153-1.153","xf4gtoalamdqxxe",980,"51.csv","","null","resources/maskTrios/L4BB.jpg","null","",NA,NA,NA,NA,""
"image-keyboard-response",473,534290,"0.0-4.153-2.153","xf4gtoalamdqxxe",980,"51.csv","","null","resources/images/fishbone.png","null","",NA,NA,NA,NA,""
"image-keyboard-response",474,535885,"0.0-4.154-0.154","xf4gtoalamdqxxe",980,"51.csv","","1593.5","resources/trios/L4T4A3.jpg","37","restless",0.8,0.4,0.4,0.872692515546075,"false"
"image-keyboard-response",475,536287,"0.0-4.154-1.154","xf4gtoalamdqxxe",980,"51.csv","","null","resources/maskTrios/L4BB.jpg","null","",NA,NA,NA,NA,""
"image-keyboard-response",476,537493,"0.0-4.154-2.154","xf4gtoalamdqxxe",980,"51.csv","","null","resources/images/fishbone.png","null","",NA,NA,NA,NA,""
"image-keyboard-response",477,538976,"0.0-4.155-0.155","xf4gtoalamdqxxe",980,"51.csv","","1481.4000000953674","resources/trios/L4T4A3.jpg","37","restless",0.8,0.4,0.4,0.75509396176837,"true"
"image-keyboard-response",478,539381,"0.0-4.155-1.155","xf4gtoalamdqxxe",980,"51.csv","","null","resources/maskTrios/L4BB.jpg","null","",NA,NA,NA,NA,""
"image-keyboard-response",479,540584,"0.0-4.155-2.155","xf4gtoalamdqxxe",980,"51.csv","","null","resources/images/coin2.png","null","",NA,NA,NA,NA,""
"image-keyboard-response",480,541264,"0.0-4.156-0.156","xf4gtoalamdqxxe",980,"51.csv","","678.6000000238419","resources/trios/L4T4A3.jpg","37","restless",0.8,0.4,0.4,0.144461722461609,"true"
"image-keyboard-response",481,541668,"0.0-4.156-1.156","xf4gtoalamdqxxe",980,"51.csv","","null","resources/maskTrios/L4BB.jpg","null","",NA,NA,NA,NA,""
"image-keyboard-response",482,542872,"0.0-4.156-2.156","xf4gtoalamdqxxe",980,"51.csv","","null","resources/images/coin2.png","null","",NA,NA,NA,NA,""
"image-keyboard-response",483,543640,"0.0-4.157-0.157","xf4gtoalamdqxxe",980,"51.csv","","767.6000000238419","resources/trios/L4T4A3.jpg","37","restless",0.8,0.4,0.4,0.407349724830991,"true"
"image-keyboard-response",484,544046,"0.0-4.157-1.157","xf4gtoalamdqxxe",980,"51.csv","","null","resources/maskTrios/L4BB.jpg","null","",NA,NA,NA,NA,""
"image-keyboard-response",485,545252,"0.0-4.157-2.157","xf4gtoalamdqxxe",980,"51.csv","","null","resources/images/coin2.png","null","",NA,NA,NA,NA,""
"image-keyboard-response",486,547664,"0.0-4.158-0.158","xf4gtoalamdqxxe",980,"51.csv","","2410.899999976158","resources/trios/L4T4A3.jpg","37","restless",0.8,0.4,0.4,0.24448482208174,"true"
"image-keyboard-response",487,548069,"0.0-4.158-1.158","xf4gtoalamdqxxe",980,"51.csv","","null","resources/maskTrios/L4BB.jpg","null","",NA,NA,NA,NA,""
"image-keyboard-response",488,549273,"0.0-4.158-2.158","xf4gtoalamdqxxe",980,"51.csv","","null","resources/images/coin2.png","null","",NA,NA,NA,NA,""
"image-keyboard-response",489,550409,"0.0-4.159-0.159","xf4gtoalamdqxxe",980,"51.csv","","1135.5","resources/trios/L4T4A3.jpg","37","restless",0.7,0.4,0.5,0.459897893406765,"true"
"image-keyboard-response",490,550811,"0.0-4.159-1.159","xf4gtoalamdqxxe",980,"51.csv","","null","resources/maskTrios/L4BB.jpg","null","",NA,NA,NA,NA,""
"image-keyboard-response",491,552015,"0.0-4.159-2.159","xf4gtoalamdqxxe",980,"51.csv","","null","resources/images/coin2.png","null","",NA,NA,NA,NA,""
"image-keyboard-response",492,553088,"0.0-4.160-0.160","xf4gtoalamdqxxe",980,"51.csv","","1072.6000000238419","resources/trios/L4T4A3.jpg","37","restless",0.7,0.4,0.5,0.423406129278262,"true"
"image-keyboard-response",493,553493,"0.0-4.160-1.160","xf4gtoalamdqxxe",980,"51.csv","","null","resources/maskTrios/L4BB.jpg","null","",NA,NA,NA,NA,""
"image-keyboard-response",494,554695,"0.0-4.160-2.160","xf4gtoalamdqxxe",980,"51.csv","","null","resources/images/coin2.png","null","",NA,NA,NA,NA,""
"image-keyboard-response",495,555849,"0.0-4.161-0.161","xf4gtoalamdqxxe",980,"51.csv","","1153.4000000953674","resources/trios/L4T4A3.jpg","37","restless",0.7,0.4,0.5,0.422889956596987,"true"
"image-keyboard-response",496,556253,"0.0-4.161-1.161","xf4gtoalamdqxxe",980,"51.csv","","null","resources/maskTrios/L4BB.jpg","null","",NA,NA,NA,NA,""
"image-keyboard-response",497,557458,"0.0-4.161-2.161","xf4gtoalamdqxxe",980,"51.csv","","null","resources/images/coin2.png","null","",NA,NA,NA,NA,""
"image-keyboard-response",498,559592,"0.0-4.162-0.162","xf4gtoalamdqxxe",980,"51.csv","","2133.2999999523163","resources/trios/L4T4A3.jpg","37","restless",0.7,0.4,0.5,0.0263799684581729,"true"
"image-keyboard-response",499,559995,"0.0-4.162-1.162","xf4gtoalamdqxxe",980,"51.csv","","null","resources/maskTrios/L4BB.jpg","null","",NA,NA,NA,NA,""
"image-keyboard-response",500,561197,"0.0-4.162-2.162","xf4gtoalamdqxxe",980,"51.csv","","null","resources/images/coin2.png","null","",NA,NA,NA,NA,""
"image-keyboard-response",501,562893,"0.0-4.163-0.163","xf4gtoalamdqxxe",980,"51.csv","","1695.4000000953674","resources/trios/L4T4A3.jpg","37","restless",0.7,0.4,0.5,0.820078119179101,"false"
"image-keyboard-response",502,563298,"0.0-4.163-1.163","xf4gtoalamdqxxe",980,"51.csv","","null","resources/maskTrios/L4BB.jpg","null","",NA,NA,NA,NA,""
"image-keyboard-response",503,564500,"0.0-4.163-2.163","xf4gtoalamdqxxe",980,"51.csv","","null","resources/images/fishbone.png","null","",NA,NA,NA,NA,""
"image-keyboard-response",504,566242,"0.0-4.164-0.164","xf4gtoalamdqxxe",980,"51.csv","","1741.6999999284744","resources/trios/L4T4A3.jpg","37","restless",0.7,0.4,0.6,0.532416465153935,"true"
"image-keyboard-response",505,566648,"0.0-4.164-1.164","xf4gtoalamdqxxe",980,"51.csv","","null","resources/maskTrios/L4BB.jpg","null","",NA,NA,NA,NA,""
"image-keyboard-response",506,567855,"0.0-4.164-2.164","xf4gtoalamdqxxe",980,"51.csv","","null","resources/images/coin2.png","null","",NA,NA,NA,NA,""
"image-keyboard-response",507,568561,"0.0-4.165-0.165","xf4gtoalamdqxxe",980,"51.csv","","704.8000000715256","resources/trios/L4T4A3.jpg","37","restless",0.7,0.4,0.6,0.106758294457626,"true"
"image-keyboard-response",508,568963,"0.0-4.165-1.165","xf4gtoalamdqxxe",980,"51.csv","","null","resources/maskTrios/L4BB.jpg","null","",NA,NA,NA,NA,""
"image-keyboard-response",509,570166,"0.0-4.165-2.165","xf4gtoalamdqxxe",980,"51.csv","","null","resources/images/coin2.png","null","",NA,NA,NA,NA,""
"image-keyboard-response",510,577893,"0.0-4.166-0.166","xf4gtoalamdqxxe",980,"51.csv","","7726.5","resources/trios/L4T4A3.jpg","37","restless",0.7,0.4,0.6,0.554230425925842,"true"
"image-keyboard-response",511,578300,"0.0-4.166-1.166","xf4gtoalamdqxxe",980,"51.csv","","null","resources/maskTrios/L4BB.jpg","null","",NA,NA,NA,NA,""
"image-keyboard-response",512,579501,"0.0-4.166-2.166","xf4gtoalamdqxxe",980,"51.csv","","null","resources/images/coin2.png","null","",NA,NA,NA,NA,""
"image-keyboard-response",513,582326,"0.0-4.167-0.167","xf4gtoalamdqxxe",980,"51.csv","","2824.100000023842","resources/trios/L4T4A3.jpg","37","restless",0.7,0.4,0.6,0.526053033271411,"true"
"image-keyboard-response",514,582728,"0.0-4.167-1.167","xf4gtoalamdqxxe",980,"51.csv","","null","resources/maskTrios/L4BB.jpg","null","",NA,NA,NA,NA,""
"image-keyboard-response",515,583933,"0.0-4.167-2.167","xf4gtoalamdqxxe",980,"51.csv","","null","resources/images/coin2.png","null","",NA,NA,NA,NA,""
"image-keyboard-response",516,585372,"0.0-4.168-0.168","xf4gtoalamdqxxe",980,"51.csv","","1438.2000000476837","resources/trios/L4T4A3.jpg","37","restless",0.7,0.4,0.5,0.248919033467051,"true"
"image-keyboard-response",517,585775,"0.0-4.168-1.168","xf4gtoalamdqxxe",980,"51.csv","","null","resources/maskTrios/L4BB.jpg","null","",NA,NA,NA,NA,""
"image-keyboard-response",518,586982,"0.0-4.168-2.168","xf4gtoalamdqxxe",980,"51.csv","","null","resources/images/coin2.png","null","",NA,NA,NA,NA,""
"image-keyboard-response",519,590169,"0.0-4.169-0.169","xf4gtoalamdqxxe",980,"51.csv","","3185.5","resources/trios/L4T4A3.jpg","37","restless",0.7,0.4,0.5,0.0220109375413782,"true"
"image-keyboard-response",520,590574,"0.0-4.169-1.169","xf4gtoalamdqxxe",980,"51.csv","","null","resources/maskTrios/L4BB.jpg","null","",NA,NA,NA,NA,""
"image-keyboard-response",521,591777,"0.0-4.169-2.169","xf4gtoalamdqxxe",980,"51.csv","","null","resources/images/coin2.png","null","",NA,NA,NA,NA,""
"image-keyboard-response",522,592488,"0.0-4.170-0.170","xf4gtoalamdqxxe",980,"51.csv","","709.6000000238419","resources/trios/L4T4A3.jpg","37","restless",0.7,0.4,0.5,0.639762404742936,"true"
"image-keyboard-response",523,592891,"0.0-4.170-1.170","xf4gtoalamdqxxe",980,"51.csv","","null","resources/maskTrios/L4BB.jpg","null","",NA,NA,NA,NA,""
"image-keyboard-response",524,594094,"0.0-4.170-2.170","xf4gtoalamdqxxe",980,"51.csv","","null","resources/images/coin2.png","null","",NA,NA,NA,NA,""
"image-keyboard-response",525,594139,"0.0-4.171-0.171","xf4gtoalamdqxxe",980,"51.csv","","44.800000071525574","resources/trios/L4T4A3.jpg","37","restless",0.6,0.4,0.5,0.913486278465517,"false"
"image-keyboard-response",526,594541,"0.0-4.171-1.171","xf4gtoalamdqxxe",980,"51.csv","","null","resources/maskTrios/L4BB.jpg","null","",NA,NA,NA,NA,""
"image-keyboard-response",527,595743,"0.0-4.171-2.171","xf4gtoalamdqxxe",980,"51.csv","","null","resources/images/fishbone.png","null","",NA,NA,NA,NA,""
"image-keyboard-response",528,596568,"0.0-4.172-0.172","xf4gtoalamdqxxe",980,"51.csv","","824.1000000238419","resources/trios/L4T4A3.jpg","37","restless",0.6,0.4,0.5,0.229873258855206,"true"
"image-keyboard-response",529,596972,"0.0-4.172-1.172","xf4gtoalamdqxxe",980,"51.csv","","null","resources/maskTrios/L4BB.jpg","null","",NA,NA,NA,NA,""
"image-keyboard-response",530,598175,"0.0-4.172-2.172","xf4gtoalamdqxxe",980,"51.csv","","null","resources/images/coin2.png","null","",NA,NA,NA,NA,""
"image-keyboard-response",531,598351,"0.0-4.173-0.173","xf4gtoalamdqxxe",980,"51.csv","","175.40000009536743","resources/trios/L4T4A3.jpg","37","restless",0.6,0.4,0.5,0.593980976088689,"true"
"image-keyboard-response",532,598755,"0.0-4.173-1.173","xf4gtoalamdqxxe",980,"51.csv","","null","resources/maskTrios/L4BB.jpg","null","",NA,NA,NA,NA,""
"image-keyboard-response",533,599957,"0.0-4.173-2.173","xf4gtoalamdqxxe",980,"51.csv","","null","resources/images/coin2.png","null","",NA,NA,NA,NA,""
"image-keyboard-response",534,600568,"0.0-4.174-0.174","xf4gtoalamdqxxe",980,"51.csv","","610.1000000238419","resources/trios/L4T4A3.jpg","37","restless",0.6,0.4,0.5,0.818494866522151,"false"
"image-keyboard-response",535,600972,"0.0-4.174-1.174","xf4gtoalamdqxxe",980,"51.csv","","null","resources/maskTrios/L4BB.jpg","null","",NA,NA,NA,NA,""
"image-keyboard-response",536,602174,"0.0-4.174-2.174","xf4gtoalamdqxxe",980,"51.csv","","null","resources/images/fishbone.png","null","",NA,NA,NA,NA,""
"image-keyboard-response",537,603005,"0.0-4.175-0.175","xf4gtoalamdqxxe",980,"51.csv","","829.3999999761581","resources/trios/L4T4A3.jpg","37","restless",0.6,0.4,0.5,0.69072786960286,"false"
"image-keyboard-response",538,603411,"0.0-4.175-1.175","xf4gtoalamdqxxe",980,"51.csv","","null","resources/maskTrios/L4BB.jpg","null","",NA,NA,NA,NA,""
"image-keyboard-response",539,604616,"0.0-4.175-2.175","xf4gtoalamdqxxe",980,"51.csv","","null","resources/images/fishbone.png","null","",NA,NA,NA,NA,""
"image-keyboard-response",540,606062,"0.0-4.176-0.176","xf4gtoalamdqxxe",980,"51.csv","","1444.7999999523163","resources/trios/L4T4A3.jpg","37","restless",0.6,0.4,0.5,0.351762474406353,"true"
"image-keyboard-response",541,606465,"0.0-4.176-1.176","xf4gtoalamdqxxe",980,"51.csv","","null","resources/maskTrios/L4BB.jpg","null","",NA,NA,NA,NA,""
"image-keyboard-response",542,607668,"0.0-4.176-2.176","xf4gtoalamdqxxe",980,"51.csv","","null","resources/images/coin2.png","null","",NA,NA,NA,NA,""
"image-keyboard-response",543,607742,"0.0-4.177-0.177","xf4gtoalamdqxxe",980,"51.csv","","73.19999992847443","resources/trios/L4T4A3.jpg","37","restless",0.6,0.4,0.5,0.297464843324406,"true"
"image-keyboard-response",544,608149,"0.0-4.177-1.177","xf4gtoalamdqxxe",980,"51.csv","","null","resources/maskTrios/L4BB.jpg","null","",NA,NA,NA,NA,""
"image-keyboard-response",545,609355,"0.0-4.177-2.177","xf4gtoalamdqxxe",980,"51.csv","","null","resources/images/coin2.png","null","",NA,NA,NA,NA,""
"image-keyboard-response",546,609697,"0.0-4.178-0.178","xf4gtoalamdqxxe",980,"51.csv","","340.90000009536743","resources/trios/L4T4A3.jpg","37","restless",0.6,0.4,0.5,0.37934257162063,"true"
"image-keyboard-response",547,610098,"0.0-4.178-1.178","xf4gtoalamdqxxe",980,"51.csv","","null","resources/maskTrios/L4BB.jpg","null","",NA,NA,NA,NA,""
"image-keyboard-response",548,611302,"0.0-4.178-2.178","xf4gtoalamdqxxe",980,"51.csv","","null","resources/images/coin2.png","null","",NA,NA,NA,NA,""
"image-keyboard-response",549,611461,"0.0-4.179-0.179","xf4gtoalamdqxxe",980,"51.csv","","157.69999992847443","resources/trios/L4T4A3.jpg","37","restless",0.6,0.4,0.5,0.848272679978406,"false"
"image-keyboard-response",550,611867,"0.0-4.179-1.179","xf4gtoalamdqxxe",980,"51.csv","","null","resources/maskTrios/L4BB.jpg","null","",NA,NA,NA,NA,""
"image-keyboard-response",551,613069,"0.0-4.179-2.179","xf4gtoalamdqxxe",980,"51.csv","","null","resources/images/fishbone.png","null","",NA,NA,NA,NA,""
"image-keyboard-response",552,613451,"0.0-4.180-0.180","xf4gtoalamdqxxe",980,"51.csv","","381","resources/trios/L4T4A3.jpg","37","restless",0.6,0.4,0.5,0.682411996518098,"false"
"image-keyboard-response",553,613858,"0.0-4.180-1.180","xf4gtoalamdqxxe",980,"51.csv","","null","resources/maskTrios/L4BB.jpg","null","",NA,NA,NA,NA,""
"image-keyboard-response",554,615061,"0.0-4.180-2.180","xf4gtoalamdqxxe",980,"51.csv","","null","resources/images/fishbone.png","null","",NA,NA,NA,NA,""
"image-keyboard-response",555,617329,"0.0-4.181-0.181","xf4gtoalamdqxxe",980,"51.csv","","2267.1999999284744","resources/trios/L4T4A3.jpg","37","restless",0.5,0.4,0.5,0.346051670305084,"true"
"image-keyboard-response",556,617732,"0.0-4.181-1.181","xf4gtoalamdqxxe",980,"51.csv","","null","resources/maskTrios/L4BB.jpg","null","",NA,NA,NA,NA,""
"image-keyboard-response",557,618938,"0.0-4.181-2.181","xf4gtoalamdqxxe",980,"51.csv","","null","resources/images/coin2.png","null","",NA,NA,NA,NA,""
"image-keyboard-response",558,619349,"0.0-4.182-0.182","xf4gtoalamdqxxe",980,"51.csv","","410.10000002384186","resources/trios/L4T4A3.jpg","37","restless",0.5,0.4,0.6,0.832001096726708,"false"
"image-keyboard-response",559,619755,"0.0-4.182-1.182","xf4gtoalamdqxxe",980,"51.csv","","null","resources/maskTrios/L4BB.jpg","null","",NA,NA,NA,NA,""
"image-keyboard-response",560,620959,"0.0-4.182-2.182","xf4gtoalamdqxxe",980,"51.csv","","null","resources/images/fishbone.png","null","",NA,NA,NA,NA,""
"image-keyboard-response",561,621603,"0.0-4.183-0.183","xf4gtoalamdqxxe",980,"51.csv","","642.3000000715256","resources/trios/L4T4A3.jpg","37","restless",0.5,0.4,0.6,0.848897125688724,"false"
"image-keyboard-response",562,622008,"0.0-4.183-1.183","xf4gtoalamdqxxe",980,"51.csv","","null","resources/maskTrios/L4BB.jpg","null","",NA,NA,NA,NA,""
"image-keyboard-response",563,623212,"0.0-4.183-2.183","xf4gtoalamdqxxe",980,"51.csv","","null","resources/images/fishbone.png","null","",NA,NA,NA,NA,""
"image-keyboard-response",564,624345,"0.0-4.184-0.184","xf4gtoalamdqxxe",980,"51.csv","","1131.8999999761581","resources/trios/L4T4A3.jpg","37","restless",0.4,0.4,0.6,0.103334385417785,"true"
"image-keyboard-response",565,624749,"0.0-4.184-1.184","xf4gtoalamdqxxe",980,"51.csv","","null","resources/maskTrios/L4BB.jpg","null","",NA,NA,NA,NA,""
"image-keyboard-response",566,625952,"0.0-4.184-2.184","xf4gtoalamdqxxe",980,"51.csv","","null","resources/images/coin2.png","null","",NA,NA,NA,NA,""
"image-keyboard-response",567,629199,"0.0-4.185-0.185","xf4gtoalamdqxxe",980,"51.csv","","3245.8000000715256","resources/trios/L4T4A3.jpg","37","restless",0.4,0.4,0.6,0.841194290606696,"false"
"image-keyboard-response",568,629603,"0.0-4.185-1.185","xf4gtoalamdqxxe",980,"51.csv","","null","resources/maskTrios/L4BB.jpg","null","",NA,NA,NA,NA,""
"image-keyboard-response",569,630810,"0.0-4.185-2.185","xf4gtoalamdqxxe",980,"51.csv","","null","resources/images/fishbone.png","null","",NA,NA,NA,NA,""
"image-keyboard-response",570,631293,"0.0-4.186-0.186","xf4gtoalamdqxxe",980,"51.csv","","482.60000002384186","resources/trios/L4T4A3.jpg","37","restless",0.5,0.4,0.6,0.151414861703767,"true"
"image-keyboard-response",571,631699,"0.0-4.186-1.186","xf4gtoalamdqxxe",980,"51.csv","","null","resources/maskTrios/L4BB.jpg","null","",NA,NA,NA,NA,""
"image-keyboard-response",572,632906,"0.0-4.186-2.186","xf4gtoalamdqxxe",980,"51.csv","","null","resources/images/coin2.png","null","",NA,NA,NA,NA,""
"image-keyboard-response",573,633387,"0.0-4.187-0.187","xf4gtoalamdqxxe",980,"51.csv","","479.2999999523163","resources/trios/L4T4A3.jpg","37","restless",0.5,0.4,0.6,0.571841631186997,"false"
"image-keyboard-response",574,633789,"0.0-4.187-1.187","xf4gtoalamdqxxe",980,"51.csv","","null","resources/maskTrios/L4BB.jpg","null","",NA,NA,NA,NA,""
"image-keyboard-response",575,634995,"0.0-4.187-2.187","xf4gtoalamdqxxe",980,"51.csv","","null","resources/images/fishbone.png","null","",NA,NA,NA,NA,""
"image-keyboard-response",576,636985,"0.0-4.188-0.188","xf4gtoalamdqxxe",980,"51.csv","","1989.5","resources/trios/L4T4A3.jpg","37","restless",0.5,0.4,0.6,0.562239028540927,"false"
"image-keyboard-response",577,637390,"0.0-4.188-1.188","xf4gtoalamdqxxe",980,"51.csv","","null","resources/maskTrios/L4BB.jpg","null","",NA,NA,NA,NA,""
"image-keyboard-response",578,638595,"0.0-4.188-2.188","xf4gtoalamdqxxe",980,"51.csv","","null","resources/images/fishbone.png","null","",NA,NA,NA,NA,""
"image-keyboard-response",579,639470,"0.0-4.189-0.189","xf4gtoalamdqxxe",980,"51.csv","","873.3000000715256","resources/trios/L4T4A3.jpg","37","restless",0.5,0.4,0.6,0.108435657014126,"true"
"image-keyboard-response",580,639872,"0.0-4.189-1.189","xf4gtoalamdqxxe",980,"51.csv","","null","resources/maskTrios/L4BB.jpg","null","",NA,NA,NA,NA,""
"image-keyboard-response",581,641074,"0.0-4.189-2.189","xf4gtoalamdqxxe",980,"51.csv","","null","resources/images/coin2.png","null","",NA,NA,NA,NA,""
"image-keyboard-response",582,642029,"0.0-4.190-0.190","xf4gtoalamdqxxe",980,"51.csv","","953.7000000476837","resources/trios/L4T4A3.jpg","37","restless",0.5,0.4,0.5,0.349129472378403,"true"
"image-keyboard-response",583,642432,"0.0-4.190-1.190","xf4gtoalamdqxxe",980,"51.csv","","null","resources/maskTrios/L4BB.jpg","null","",NA,NA,NA,NA,""
"image-keyboard-response",584,643636,"0.0-4.190-2.190","xf4gtoalamdqxxe",980,"51.csv","","null","resources/images/coin2.png","null","",NA,NA,NA,NA,""
"image-keyboard-response",585,645352,"0.0-4.191-0.191","xf4gtoalamdqxxe",980,"51.csv","","1715.1999999284744","resources/trios/L4T4A3.jpg","37","restless",0.5,0.4,0.5,0.296751532046149,"true"
"image-keyboard-response",586,645759,"0.0-4.191-1.191","xf4gtoalamdqxxe",980,"51.csv","","null","resources/maskTrios/L4BB.jpg","null","",NA,NA,NA,NA,""
"image-keyboard-response",587,646965,"0.0-4.191-2.191","xf4gtoalamdqxxe",980,"51.csv","","null","resources/images/coin2.png","null","",NA,NA,NA,NA,""
"image-keyboard-response",588,648289,"0.0-4.192-0.192","xf4gtoalamdqxxe",980,"51.csv","","1323.3000000715256","resources/trios/L4T4A3.jpg","37","restless",0.5,0.4,0.5,0.419840005668136,"true"
"image-keyboard-response",589,648695,"0.0-4.192-1.192","xf4gtoalamdqxxe",980,"51.csv","","null","resources/maskTrios/L4BB.jpg","null","",NA,NA,NA,NA,""
"image-keyboard-response",590,649897,"0.0-4.192-2.192","xf4gtoalamdqxxe",980,"51.csv","","null","resources/images/coin2.png","null","",NA,NA,NA,NA,""
"image-keyboard-response",591,650761,"0.0-4.193-0.193","xf4gtoalamdqxxe",980,"51.csv","","862.6999999284744","resources/trios/L4T4A3.jpg","37","restless",0.5,0.4,0.5,0.17858172784485,"true"
"image-keyboard-response",592,651166,"0.0-4.193-1.193","xf4gtoalamdqxxe",980,"51.csv","","null","resources/maskTrios/L4BB.jpg","null","",NA,NA,NA,NA,""
"image-keyboard-response",593,652370,"0.0-4.193-2.193","xf4gtoalamdqxxe",980,"51.csv","","null","resources/images/coin2.png","null","",NA,NA,NA,NA,""
"image-keyboard-response",594,653673,"0.0-4.194-0.194","xf4gtoalamdqxxe",980,"51.csv","","1301.0999999046326","resources/trios/L4T4A3.jpg","37","restless",0.4,0.5,0.5,0.219304206265964,"true"
"image-keyboard-response",595,654077,"0.0-4.194-1.194","xf4gtoalamdqxxe",980,"51.csv","","null","resources/maskTrios/L4BB.jpg","null","",NA,NA,NA,NA,""
"image-keyboard-response",596,655281,"0.0-4.194-2.194","xf4gtoalamdqxxe",980,"51.csv","","null","resources/images/coin2.png","null","",NA,NA,NA,NA,""
"image-keyboard-response",597,655586,"0.0-4.195-0.195","xf4gtoalamdqxxe",980,"51.csv","","303.89999997615814","resources/trios/L4T4A3.jpg","37","restless",0.4,0.5,0.5,0.434685933441418,"false"
"image-keyboard-response",598,655992,"0.0-4.195-1.195","xf4gtoalamdqxxe",980,"51.csv","","null","resources/maskTrios/L4BB.jpg","null","",NA,NA,NA,NA,""
"image-keyboard-response",599,657194,"0.0-4.195-2.195","xf4gtoalamdqxxe",980,"51.csv","","null","resources/images/fishbone.png","null","",NA,NA,NA,NA,""
"image-keyboard-response",600,658083,"0.0-4.196-0.196","xf4gtoalamdqxxe",980,"51.csv","","888.2000000476837","resources/trios/L4T4A3.jpg","37","restless",0.4,0.5,0.5,0.860873789942789,"false"
"image-keyboard-response",601,658489,"0.0-4.196-1.196","xf4gtoalamdqxxe",980,"51.csv","","null","resources/maskTrios/L4BB.jpg","null","",NA,NA,NA,NA,""
"image-keyboard-response",602,659691,"0.0-4.196-2.196","xf4gtoalamdqxxe",980,"51.csv","","null","resources/images/fishbone.png","null","",NA,NA,NA,NA,""
"image-keyboard-response",603,662341,"0.0-4.197-0.197","xf4gtoalamdqxxe",980,"51.csv","","2649.399999976158","resources/trios/L4T4A3.jpg","37","restless",0.4,0.6,0.5,0.144981884017376,"true"
"image-keyboard-response",604,662744,"0.0-4.197-1.197","xf4gtoalamdqxxe",980,"51.csv","","null","resources/maskTrios/L4BB.jpg","null","",NA,NA,NA,NA,""
"image-keyboard-response",605,663946,"0.0-4.197-2.197","xf4gtoalamdqxxe",980,"51.csv","","null","resources/images/coin2.png","null","",NA,NA,NA,NA,""
"image-keyboard-response",606,664112,"0.0-4.198-0.198","xf4gtoalamdqxxe",980,"51.csv","","165.10000002384186","resources/trios/L4T4A3.jpg","37","restless",0.4,0.6,0.5,0.509933816109171,"false"
"image-keyboard-response",607,664514,"0.0-4.198-1.198","xf4gtoalamdqxxe",980,"51.csv","","null","resources/maskTrios/L4BB.jpg","null","",NA,NA,NA,NA,""
"image-keyboard-response",608,665720,"0.0-4.198-2.198","xf4gtoalamdqxxe",980,"51.csv","","null","resources/images/fishbone.png","null","",NA,NA,NA,NA,""
"image-keyboard-response",609,666089,"0.0-4.199-0.199","xf4gtoalamdqxxe",980,"51.csv","","368.6999999284744","resources/trios/L4T4A3.jpg","37","restless",0.4,0.6,0.5,0.81070224151144,"false"
"image-keyboard-response",610,666494,"0.0-4.199-1.199","xf4gtoalamdqxxe",980,"51.csv","","null","resources/maskTrios/L4BB.jpg","null","",NA,NA,NA,NA,""
"image-keyboard-response",611,667699,"0.0-4.199-2.199","xf4gtoalamdqxxe",980,"51.csv","","null","resources/images/fishbone.png","null","",NA,NA,NA,NA,""
