"trial_type","trial_index","time_elapsed","internal_node_id","subject","participantCode","walkNumber","success","rt","stimulus","key_press","test_part","leftProb","midProb","rightProb","generatedNum","correct"
"pavlovia",0,1033,"0.0-0.0","x4eu7paltket00z",673,"89.csv","","","","","",NA,NA,NA,NA,""
"fullscreen",1,15593,"0.0-1.0","x4eu7paltket00z",673,"89.csv","true","","","","",NA,NA,NA,NA,""
"survey-html-form",2,35256,"0.0-2.0","x4eu7paltket00z",673,"89.csv","","19661.099999904633","","","",NA,NA,NA,NA,""
"image-keyboard-response",3,90851,"0.0-3.0-0.0","x4eu7paltket00z",673,"89.csv","","55593.2999997139","resources/images/parrot_nobg.png","13","",NA,NA,NA,NA,""
"image-keyboard-response",4,93862,"0.0-3.0-1.0","x4eu7paltket00z",673,"89.csv","","null","resources/image_sets/111.png","null","",NA,NA,NA,NA,""
"image-keyboard-response",5,101225,"0.0-3.0-2.0","x4eu7paltket00z",673,"89.csv","","7361.199999809265","resources/image_sets/left_highlight.png","37","",NA,NA,NA,NA,""
"image-keyboard-response",6,104423,"0.0-3.0-3.0","x4eu7paltket00z",673,"89.csv","","3196.800000190735","resources/image_sets/mid_highlight.png","38","",NA,NA,NA,NA,""
"image-keyboard-response",7,106626,"0.0-3.0-4.0","x4eu7paltket00z",673,"89.csv","","2202.0999999046326","resources/image_sets/right_highlight.png","39","",NA,NA,NA,NA,""
"image-keyboard-response",8,110723,"0.0-3.0-5.0","x4eu7paltket00z",673,"89.csv","","4095.5999999046326","resources/image_sets/111.png","13","",NA,NA,NA,NA,""
"image-keyboard-response",9,118617,"0.0-3.0-6.0","x4eu7paltket00z",673,"89.csv","","7892.099999904633","resources/images/coin2.png","13","",NA,NA,NA,NA,""
"image-keyboard-response",10,120432,"0.0-3.0-7.0","x4eu7paltket00z",673,"89.csv","","1814","resources/images/fishbone.png","13","",NA,NA,NA,NA,""
"html-keyboard-response",11,129549,"0.0-3.0-8.0","x4eu7paltket00z",673,"89.csv","","9116.5","<p>You can track your coin total on the top right of your screen. </p><p>At the end of your journey you will be directed to a survey, so please click on the link before exiting the task</p><p>Press Enter to begin</p>","13","",NA,NA,NA,NA,""
"image-keyboard-response",12,133471,"0.0-4.0-0.0","x4eu7paltket00z",673,"89.csv","","3921.199999809265","resources/trios/L1T2A3.jpg","37","restless",0.3,0.9,0.7,0.292602122040285,"true"
"image-keyboard-response",13,133883,"0.0-4.0-1.0","x4eu7paltket00z",673,"89.csv","","null","resources/maskTrios/L1BB.jpg","null","",NA,NA,NA,NA,""
"image-keyboard-response",14,135099,"0.0-4.0-2.0","x4eu7paltket00z",673,"89.csv","","null","resources/images/coin2.png","null","",NA,NA,NA,NA,""
"image-keyboard-response",15,148120,"0.0-4.1-0.1","x4eu7paltket00z",673,"89.csv","","13018","resources/trios/L1T2A3.jpg","38","restless",0.3,0.9,0.7,0.416063174800782,"true"
"image-keyboard-response",16,148527,"0.0-4.1-1.1","x4eu7paltket00z",673,"89.csv","","null","resources/maskTrios/BT2B.jpg","null","",NA,NA,NA,NA,""
"image-keyboard-response",17,149743,"0.0-4.1-2.1","x4eu7paltket00z",673,"89.csv","","null","resources/images/coin2.png","null","",NA,NA,NA,NA,""
"image-keyboard-response",18,150922,"0.0-4.2-0.2","x4eu7paltket00z",673,"89.csv","","1177.8000001907349","resources/trios/L1T2A3.jpg","39","restless",0.3,0.9,0.7,0.061308594506327,"true"
"image-keyboard-response",19,151333,"0.0-4.2-1.2","x4eu7paltket00z",673,"89.csv","","null","resources/maskTrios/BBA3.jpg","null","",NA,NA,NA,NA,""
"image-keyboard-response",20,152539,"0.0-4.2-2.2","x4eu7paltket00z",673,"89.csv","","null","resources/images/coin2.png","null","",NA,NA,NA,NA,""
"image-keyboard-response",21,153496,"0.0-4.3-0.3","x4eu7paltket00z",673,"89.csv","","956","resources/trios/L1T2A3.jpg","37","restless",0.3,0.9,0.7,0.406412116518648,"false"
"image-keyboard-response",22,153900,"0.0-4.3-1.3","x4eu7paltket00z",673,"89.csv","","null","resources/maskTrios/L1BB.jpg","null","",NA,NA,NA,NA,""
"image-keyboard-response",23,155107,"0.0-4.3-2.3","x4eu7paltket00z",673,"89.csv","","null","resources/images/fishbone.png","null","",NA,NA,NA,NA,""
"image-keyboard-response",24,155609,"0.0-4.4-0.4","x4eu7paltket00z",673,"89.csv","","501.19999980926514","resources/trios/L1T2A3.jpg","38","restless",0.3,0.9,0.7,0.802561998339343,"true"
"image-keyboard-response",25,156022,"0.0-4.4-1.4","x4eu7paltket00z",673,"89.csv","","null","resources/maskTrios/BT2B.jpg","null","",NA,NA,NA,NA,""
"image-keyboard-response",26,157239,"0.0-4.4-2.4","x4eu7paltket00z",673,"89.csv","","null","resources/images/coin2.png","null","",NA,NA,NA,NA,""
"image-keyboard-response",27,157770,"0.0-4.5-0.5","x4eu7paltket00z",673,"89.csv","","529.7999997138977","resources/trios/L1T2A3.jpg","39","restless",0.3,0.9,0.7,0.340938506884813,"true"
"image-keyboard-response",28,158182,"0.0-4.5-1.5","x4eu7paltket00z",673,"89.csv","","null","resources/maskTrios/BBA3.jpg","null","",NA,NA,NA,NA,""
"image-keyboard-response",29,159396,"0.0-4.5-2.5","x4eu7paltket00z",673,"89.csv","","null","resources/images/coin2.png","null","",NA,NA,NA,NA,""
"image-keyboard-response",30,159821,"0.0-4.6-0.6","x4eu7paltket00z",673,"89.csv","","423","resources/trios/L1T2A3.jpg","38","restless",0.2,0.9,0.7,0.278882308615029,"true"
"image-keyboard-response",31,160227,"0.0-4.6-1.6","x4eu7paltket00z",673,"89.csv","","null","resources/maskTrios/BT2B.jpg","null","",NA,NA,NA,NA,""
"image-keyboard-response",32,161435,"0.0-4.6-2.6","x4eu7paltket00z",673,"89.csv","","null","resources/images/coin2.png","null","",NA,NA,NA,NA,""
"image-keyboard-response",33,161869,"0.0-4.7-0.7","x4eu7paltket00z",673,"89.csv","","432.30000019073486","resources/trios/L1T2A3.jpg","37","restless",0.2,0.9,0.7,0.514435199403235,"false"
"image-keyboard-response",34,162284,"0.0-4.7-1.7","x4eu7paltket00z",673,"89.csv","","null","resources/maskTrios/L1BB.jpg","null","",NA,NA,NA,NA,""
"image-keyboard-response",35,163502,"0.0-4.7-2.7","x4eu7paltket00z",673,"89.csv","","null","resources/images/fishbone.png","null","",NA,NA,NA,NA,""
"image-keyboard-response",36,164078,"0.0-4.8-0.8","x4eu7paltket00z",673,"89.csv","","574.6999998092651","resources/trios/L1T2A3.jpg","39","restless",0.2,0.9,0.7,0.213577776312402,"true"
"image-keyboard-response",37,164490,"0.0-4.8-1.8","x4eu7paltket00z",673,"89.csv","","null","resources/maskTrios/BBA3.jpg","null","",NA,NA,NA,NA,""
"image-keyboard-response",38,165707,"0.0-4.8-2.8","x4eu7paltket00z",673,"89.csv","","null","resources/images/coin2.png","null","",NA,NA,NA,NA,""
"image-keyboard-response",39,166665,"0.0-4.9-0.9","x4eu7paltket00z",673,"89.csv","","956.5","resources/trios/L1T2A3.jpg","38","restless",0.2,0.9,0.6,0.0772445028678557,"true"
"image-keyboard-response",40,167070,"0.0-4.9-1.9","x4eu7paltket00z",673,"89.csv","","null","resources/maskTrios/BT2B.jpg","null","",NA,NA,NA,NA,""
"image-keyboard-response",41,168279,"0.0-4.9-2.9","x4eu7paltket00z",673,"89.csv","","null","resources/images/coin2.png","null","",NA,NA,NA,NA,""
"image-keyboard-response",42,169049,"0.0-4.10-0.10","x4eu7paltket00z",673,"89.csv","","768.7999997138977","resources/trios/L1T2A3.jpg","39","restless",0.1,0.9,0.6,0.921806056404919,"false"
"image-keyboard-response",43,169452,"0.0-4.10-1.10","x4eu7paltket00z",673,"89.csv","","null","resources/maskTrios/BBA3.jpg","null","",NA,NA,NA,NA,""
"image-keyboard-response",44,170662,"0.0-4.10-2.10","x4eu7paltket00z",673,"89.csv","","null","resources/images/fishbone.png","null","",NA,NA,NA,NA,""
"image-keyboard-response",45,171146,"0.0-4.11-0.11","x4eu7paltket00z",673,"89.csv","","483","resources/trios/L1T2A3.jpg","38","restless",0.1,0.9,0.5,0.991910436877272,"false"
"image-keyboard-response",46,171560,"0.0-4.11-1.11","x4eu7paltket00z",673,"89.csv","","null","resources/maskTrios/BT2B.jpg","null","",NA,NA,NA,NA,""
"image-keyboard-response",47,172765,"0.0-4.11-2.11","x4eu7paltket00z",673,"89.csv","","null","resources/images/fishbone.png","null","",NA,NA,NA,NA,""
"image-keyboard-response",48,173195,"0.0-4.12-0.12","x4eu7paltket00z",673,"89.csv","","429","resources/trios/L1T2A3.jpg","37","restless",0.1,0.9,0.5,0.654528982494946,"false"
"image-keyboard-response",49,173599,"0.0-4.12-1.12","x4eu7paltket00z",673,"89.csv","","null","resources/maskTrios/L1BB.jpg","null","",NA,NA,NA,NA,""
"image-keyboard-response",50,174805,"0.0-4.12-2.12","x4eu7paltket00z",673,"89.csv","","null","resources/images/fishbone.png","null","",NA,NA,NA,NA,""
"image-keyboard-response",51,175384,"0.0-4.13-0.13","x4eu7paltket00z",673,"89.csv","","578.1999998092651","resources/trios/L1T2A3.jpg","39","restless",0.1,0.9,0.5,0.758769130179202,"false"
"image-keyboard-response",52,175799,"0.0-4.13-1.13","x4eu7paltket00z",673,"89.csv","","null","resources/maskTrios/BBA3.jpg","null","",NA,NA,NA,NA,""
"image-keyboard-response",53,177003,"0.0-4.13-2.13","x4eu7paltket00z",673,"89.csv","","null","resources/images/fishbone.png","null","",NA,NA,NA,NA,""
"image-keyboard-response",54,177379,"0.0-4.14-0.14","x4eu7paltket00z",673,"89.csv","","375.19999980926514","resources/trios/L1T2A3.jpg","38","restless",0.2,0.9,0.4,0.927295118466278,"false"
"image-keyboard-response",55,177793,"0.0-4.14-1.14","x4eu7paltket00z",673,"89.csv","","null","resources/maskTrios/BT2B.jpg","null","",NA,NA,NA,NA,""
"image-keyboard-response",56,178998,"0.0-4.14-2.14","x4eu7paltket00z",673,"89.csv","","null","resources/images/fishbone.png","null","",NA,NA,NA,NA,""
"image-keyboard-response",57,179636,"0.0-4.15-0.15","x4eu7paltket00z",673,"89.csv","","636.8000001907349","resources/trios/L1T2A3.jpg","37","restless",0.2,0.8,0.4,0.437644219704311,"false"
"image-keyboard-response",58,180046,"0.0-4.15-1.15","x4eu7paltket00z",673,"89.csv","","null","resources/maskTrios/L1BB.jpg","null","",NA,NA,NA,NA,""
"image-keyboard-response",59,181261,"0.0-4.15-2.15","x4eu7paltket00z",673,"89.csv","","null","resources/images/fishbone.png","null","",NA,NA,NA,NA,""
"image-keyboard-response",60,182313,"0.0-4.16-0.16","x4eu7paltket00z",673,"89.csv","","1051.0999999046326","resources/trios/L1T2A3.jpg","37","restless",0.2,0.8,0.4,0.306864272240613,"false"
"image-keyboard-response",61,182724,"0.0-4.16-1.16","x4eu7paltket00z",673,"89.csv","","null","resources/maskTrios/L1BB.jpg","null","",NA,NA,NA,NA,""
"image-keyboard-response",62,183937,"0.0-4.16-2.16","x4eu7paltket00z",673,"89.csv","","null","resources/images/fishbone.png","null","",NA,NA,NA,NA,""
"image-keyboard-response",63,186706,"0.0-4.17-0.17","x4eu7paltket00z",673,"89.csv","","2766.800000190735","resources/trios/L1T2A3.jpg","38","restless",0.2,0.8,0.4,0.212607915369872,"true"
"image-keyboard-response",64,187114,"0.0-4.17-1.17","x4eu7paltket00z",673,"89.csv","","null","resources/maskTrios/BT2B.jpg","null","",NA,NA,NA,NA,""
"image-keyboard-response",65,188320,"0.0-4.17-2.17","x4eu7paltket00z",673,"89.csv","","null","resources/images/coin2.png","null","",NA,NA,NA,NA,""
"image-keyboard-response",66,188730,"0.0-4.18-0.18","x4eu7paltket00z",673,"89.csv","","408.2999997138977","resources/trios/L1T2A3.jpg","38","restless",0.2,0.8,0.4,0.981283827034452,"false"
"image-keyboard-response",67,189141,"0.0-4.18-1.18","x4eu7paltket00z",673,"89.csv","","null","resources/maskTrios/BT2B.jpg","null","",NA,NA,NA,NA,""
"image-keyboard-response",68,190346,"0.0-4.18-2.18","x4eu7paltket00z",673,"89.csv","","null","resources/images/fishbone.png","null","",NA,NA,NA,NA,""
"image-keyboard-response",69,190690,"0.0-4.19-0.19","x4eu7paltket00z",673,"89.csv","","342.90000009536743","resources/trios/L1T2A3.jpg","39","restless",0.2,0.8,0.4,0.964711029702823,"false"
"image-keyboard-response",70,191102,"0.0-4.19-1.19","x4eu7paltket00z",673,"89.csv","","null","resources/maskTrios/BBA3.jpg","null","",NA,NA,NA,NA,""
"image-keyboard-response",71,192304,"0.0-4.19-2.19","x4eu7paltket00z",673,"89.csv","","null","resources/images/fishbone.png","null","",NA,NA,NA,NA,""
"image-keyboard-response",72,192925,"0.0-4.20-0.20","x4eu7paltket00z",673,"89.csv","","619.6999998092651","resources/trios/L1T2A3.jpg","37","restless",0.2,0.8,0.4,0.244445209076546,"false"
"image-keyboard-response",73,193337,"0.0-4.20-1.20","x4eu7paltket00z",673,"89.csv","","null","resources/maskTrios/L1BB.jpg","null","",NA,NA,NA,NA,""
"image-keyboard-response",74,194541,"0.0-4.20-2.20","x4eu7paltket00z",673,"89.csv","","null","resources/images/fishbone.png","null","",NA,NA,NA,NA,""
"image-keyboard-response",75,195221,"0.0-4.21-0.21","x4eu7paltket00z",673,"89.csv","","678.2000002861023","resources/trios/L1T2A3.jpg","38","restless",0.3,0.8,0.4,0.22370661812999,"true"
"image-keyboard-response",76,195625,"0.0-4.21-1.21","x4eu7paltket00z",673,"89.csv","","null","resources/maskTrios/BT2B.jpg","null","",NA,NA,NA,NA,""
"image-keyboard-response",77,196832,"0.0-4.21-2.21","x4eu7paltket00z",673,"89.csv","","null","resources/images/coin2.png","null","",NA,NA,NA,NA,""
"image-keyboard-response",78,197478,"0.0-4.22-0.22","x4eu7paltket00z",673,"89.csv","","644.7000002861023","resources/trios/L1T2A3.jpg","38","restless",0.3,0.8,0.4,0.934911854217133,"false"
"image-keyboard-response",79,197885,"0.0-4.22-1.22","x4eu7paltket00z",673,"89.csv","","null","resources/maskTrios/BT2B.jpg","null","",NA,NA,NA,NA,""
"image-keyboard-response",80,199088,"0.0-4.22-2.22","x4eu7paltket00z",673,"89.csv","","null","resources/images/fishbone.png","null","",NA,NA,NA,NA,""
"image-keyboard-response",81,199447,"0.0-4.23-0.23","x4eu7paltket00z",673,"89.csv","","357.5","resources/trios/L1T2A3.jpg","39","restless",0.3,0.8,0.4,0.860384479105532,"false"
"image-keyboard-response",82,199860,"0.0-4.23-1.23","x4eu7paltket00z",673,"89.csv","","null","resources/maskTrios/BBA3.jpg","null","",NA,NA,NA,NA,""
"image-keyboard-response",83,201066,"0.0-4.23-2.23","x4eu7paltket00z",673,"89.csv","","null","resources/images/fishbone.png","null","",NA,NA,NA,NA,""
"image-keyboard-response",84,201880,"0.0-4.24-0.24","x4eu7paltket00z",673,"89.csv","","813.1000003814697","resources/trios/L1T2A3.jpg","37","restless",0.3,0.8,0.4,0.503362715686885,"false"
"image-keyboard-response",85,202287,"0.0-4.24-1.24","x4eu7paltket00z",673,"89.csv","","null","resources/maskTrios/L1BB.jpg","null","",NA,NA,NA,NA,""
"image-keyboard-response",86,203490,"0.0-4.24-2.24","x4eu7paltket00z",673,"89.csv","","null","resources/images/fishbone.png","null","",NA,NA,NA,NA,""
"image-keyboard-response",87,204097,"0.0-4.25-0.25","x4eu7paltket00z",673,"89.csv","","605.0999999046326","resources/trios/L1T2A3.jpg","37","restless",0.3,0.8,0.4,0.269792644681038,"true"
"image-keyboard-response",88,204498,"0.0-4.25-1.25","x4eu7paltket00z",673,"89.csv","","null","resources/maskTrios/L1BB.jpg","null","",NA,NA,NA,NA,""
"image-keyboard-response",89,205701,"0.0-4.25-2.25","x4eu7paltket00z",673,"89.csv","","null","resources/images/coin2.png","null","",NA,NA,NA,NA,""
"image-keyboard-response",90,206087,"0.0-4.26-0.26","x4eu7paltket00z",673,"89.csv","","384.90000009536743","resources/trios/L1T2A3.jpg","37","restless",0.3,0.8,0.4,0.282801274874058,"true"
"image-keyboard-response",91,206490,"0.0-4.26-1.26","x4eu7paltket00z",673,"89.csv","","null","resources/maskTrios/L1BB.jpg","null","",NA,NA,NA,NA,""
"image-keyboard-response",92,207693,"0.0-4.26-2.26","x4eu7paltket00z",673,"89.csv","","null","resources/images/coin2.png","null","",NA,NA,NA,NA,""
"image-keyboard-response",93,208067,"0.0-4.27-0.27","x4eu7paltket00z",673,"89.csv","","372.5","resources/trios/L1T2A3.jpg","37","restless",0.3,0.7,0.4,0.658463306407503,"false"
"image-keyboard-response",94,208477,"0.0-4.27-1.27","x4eu7paltket00z",673,"89.csv","","null","resources/maskTrios/L1BB.jpg","null","",NA,NA,NA,NA,""
"image-keyboard-response",95,209684,"0.0-4.27-2.27","x4eu7paltket00z",673,"89.csv","","null","resources/images/fishbone.png","null","",NA,NA,NA,NA,""
"image-keyboard-response",96,210076,"0.0-4.28-0.28","x4eu7paltket00z",673,"89.csv","","390.90000009536743","resources/trios/L1T2A3.jpg","38","restless",0.3,0.7,0.4,0.0415500034160128,"true"
"image-keyboard-response",97,210484,"0.0-4.28-1.28","x4eu7paltket00z",673,"89.csv","","null","resources/maskTrios/BT2B.jpg","null","",NA,NA,NA,NA,""
"image-keyboard-response",98,211700,"0.0-4.28-2.28","x4eu7paltket00z",673,"89.csv","","null","resources/images/coin2.png","null","",NA,NA,NA,NA,""
"image-keyboard-response",99,212661,"0.0-4.29-0.29","x4eu7paltket00z",673,"89.csv","","959.3999996185303","resources/trios/L1T2A3.jpg","39","restless",0.3,0.7,0.4,0.567523943816882,"false"
"image-keyboard-response",100,213074,"0.0-4.29-1.29","x4eu7paltket00z",673,"89.csv","","null","resources/maskTrios/BBA3.jpg","null","",NA,NA,NA,NA,""
"image-keyboard-response",101,214282,"0.0-4.29-2.29","x4eu7paltket00z",673,"89.csv","","null","resources/images/fishbone.png","null","",NA,NA,NA,NA,""
"image-keyboard-response",102,214712,"0.0-4.30-0.30","x4eu7paltket00z",673,"89.csv","","428.5","resources/trios/L1T2A3.jpg","38","restless",0.3,0.7,0.4,0.519075874266763,"true"
"image-keyboard-response",103,215117,"0.0-4.30-1.30","x4eu7paltket00z",673,"89.csv","","null","resources/maskTrios/BT2B.jpg","null","",NA,NA,NA,NA,""
"image-keyboard-response",104,216323,"0.0-4.30-2.30","x4eu7paltket00z",673,"89.csv","","null","resources/images/coin2.png","null","",NA,NA,NA,NA,""
"image-keyboard-response",105,216758,"0.0-4.31-0.31","x4eu7paltket00z",673,"89.csv","","433.80000019073486","resources/trios/L1T2A3.jpg","37","restless",0.3,0.7,0.4,0.232184821950923,"true"
"image-keyboard-response",106,217170,"0.0-4.31-1.31","x4eu7paltket00z",673,"89.csv","","null","resources/maskTrios/L1BB.jpg","null","",NA,NA,NA,NA,""
"image-keyboard-response",107,218374,"0.0-4.31-2.31","x4eu7paltket00z",673,"89.csv","","null","resources/images/coin2.png","null","",NA,NA,NA,NA,""
"image-keyboard-response",108,218810,"0.0-4.32-0.32","x4eu7paltket00z",673,"89.csv","","434.40000009536743","resources/trios/L1T2A3.jpg","38","restless",0.3,0.7,0.4,0.483787513026207,"true"
"image-keyboard-response",109,219225,"0.0-4.32-1.32","x4eu7paltket00z",673,"89.csv","","null","resources/maskTrios/BT2B.jpg","null","",NA,NA,NA,NA,""
"image-keyboard-response",110,220432,"0.0-4.32-2.32","x4eu7paltket00z",673,"89.csv","","null","resources/images/coin2.png","null","",NA,NA,NA,NA,""
"image-keyboard-response",111,220962,"0.0-4.33-0.33","x4eu7paltket00z",673,"89.csv","","528.0999999046326","resources/trios/L1T2A3.jpg","37","restless",0.3,0.7,0.4,0.18476581569323,"true"
"image-keyboard-response",112,221371,"0.0-4.33-1.33","x4eu7paltket00z",673,"89.csv","","null","resources/maskTrios/L1BB.jpg","null","",NA,NA,NA,NA,""
"image-keyboard-response",113,222575,"0.0-4.33-2.33","x4eu7paltket00z",673,"89.csv","","null","resources/images/coin2.png","null","",NA,NA,NA,NA,""
"image-keyboard-response",114,223339,"0.0-4.34-0.34","x4eu7paltket00z",673,"89.csv","","762","resources/trios/L1T2A3.jpg","37","restless",0.3,0.7,0.4,0.72590335294138,"false"
"image-keyboard-response",115,223747,"0.0-4.34-1.34","x4eu7paltket00z",673,"89.csv","","null","resources/maskTrios/L1BB.jpg","null","",NA,NA,NA,NA,""
"image-keyboard-response",116,224951,"0.0-4.34-2.34","x4eu7paltket00z",673,"89.csv","","null","resources/images/fishbone.png","null","",NA,NA,NA,NA,""
"image-keyboard-response",117,225519,"0.0-4.35-0.35","x4eu7paltket00z",673,"89.csv","","567.0999999046326","resources/trios/L1T2A3.jpg","38","restless",0.3,0.7,0.4,0.14476284362948,"true"
"image-keyboard-response",118,225927,"0.0-4.35-1.35","x4eu7paltket00z",673,"89.csv","","null","resources/maskTrios/BT2B.jpg","null","",NA,NA,NA,NA,""
"image-keyboard-response",119,227133,"0.0-4.35-2.35","x4eu7paltket00z",673,"89.csv","","null","resources/images/coin2.png","null","",NA,NA,NA,NA,""
"image-keyboard-response",120,227965,"0.0-4.36-0.36","x4eu7paltket00z",673,"89.csv","","830.5","resources/trios/L1T2A3.jpg","38","restless",0.3,0.8,0.4,0.886202213912554,"false"
"image-keyboard-response",121,228382,"0.0-4.36-1.36","x4eu7paltket00z",673,"89.csv","","null","resources/maskTrios/BT2B.jpg","null","",NA,NA,NA,NA,""
"image-keyboard-response",122,229599,"0.0-4.36-2.36","x4eu7paltket00z",673,"89.csv","","null","resources/images/fishbone.png","null","",NA,NA,NA,NA,""
"image-keyboard-response",123,230206,"0.0-4.37-0.37","x4eu7paltket00z",673,"89.csv","","605.9000000953674","resources/trios/L1T2A3.jpg","39","restless",0.3,0.7,0.4,0.0263416986078753,"true"
"image-keyboard-response",124,230617,"0.0-4.37-1.37","x4eu7paltket00z",673,"89.csv","","null","resources/maskTrios/BBA3.jpg","null","",NA,NA,NA,NA,""
"image-keyboard-response",125,231819,"0.0-4.37-2.37","x4eu7paltket00z",673,"89.csv","","null","resources/images/coin2.png","null","",NA,NA,NA,NA,""
"image-keyboard-response",126,232614,"0.0-4.38-0.38","x4eu7paltket00z",673,"89.csv","","793.4000000953674","resources/trios/L1T2A3.jpg","39","restless",0.3,0.7,0.4,0.543293555654772,"false"
"image-keyboard-response",127,233028,"0.0-4.38-1.38","x4eu7paltket00z",673,"89.csv","","null","resources/maskTrios/BBA3.jpg","null","",NA,NA,NA,NA,""
"image-keyboard-response",128,234232,"0.0-4.38-2.38","x4eu7paltket00z",673,"89.csv","","null","resources/images/fishbone.png","null","",NA,NA,NA,NA,""
"image-keyboard-response",129,234663,"0.0-4.39-0.39","x4eu7paltket00z",673,"89.csv","","430.40000009536743","resources/trios/L1T2A3.jpg","37","restless",0.2,0.7,0.3,0.719979051860009,"false"
"image-keyboard-response",130,235067,"0.0-4.39-1.39","x4eu7paltket00z",673,"89.csv","","null","resources/maskTrios/L1BB.jpg","null","",NA,NA,NA,NA,""
"image-keyboard-response",131,236277,"0.0-4.39-2.39","x4eu7paltket00z",673,"89.csv","","null","resources/images/fishbone.png","null","",NA,NA,NA,NA,""
"image-keyboard-response",132,236753,"0.0-4.40-0.40","x4eu7paltket00z",673,"89.csv","","474.69999980926514","resources/trios/L1T2A3.jpg","38","restless",0.2,0.6,0.3,0.443114665326298,"true"
"image-keyboard-response",133,237170,"0.0-4.40-1.40","x4eu7paltket00z",673,"89.csv","","null","resources/maskTrios/BT2B.jpg","null","",NA,NA,NA,NA,""
"image-keyboard-response",134,238371,"0.0-4.40-2.40","x4eu7paltket00z",673,"89.csv","","null","resources/images/coin2.png","null","",NA,NA,NA,NA,""
"image-keyboard-response",135,238871,"0.0-4.41-0.41","x4eu7paltket00z",673,"89.csv","","497.80000019073486","resources/trios/L1T2A3.jpg","38","restless",0.2,0.6,0.3,0.925255864706685,"false"
"image-keyboard-response",136,239284,"0.0-4.41-1.41","x4eu7paltket00z",673,"89.csv","","null","resources/maskTrios/BT2B.jpg","null","",NA,NA,NA,NA,""
"image-keyboard-response",137,240485,"0.0-4.41-2.41","x4eu7paltket00z",673,"89.csv","","null","resources/images/fishbone.png","null","",NA,NA,NA,NA,""
"image-keyboard-response",138,240884,"0.0-4.42-0.42","x4eu7paltket00z",673,"89.csv","","396.7999997138977","resources/trios/L1T2A3.jpg","39","restless",0.2,0.5,0.3,0.309361088814327,"false"
"image-keyboard-response",139,241287,"0.0-4.42-1.42","x4eu7paltket00z",673,"89.csv","","null","resources/maskTrios/BBA3.jpg","null","",NA,NA,NA,NA,""
"image-keyboard-response",140,242493,"0.0-4.42-2.42","x4eu7paltket00z",673,"89.csv","","null","resources/images/fishbone.png","null","",NA,NA,NA,NA,""
"image-keyboard-response",141,242860,"0.0-4.43-0.43","x4eu7paltket00z",673,"89.csv","","366.09999990463257","resources/trios/L1T2A3.jpg","37","restless",0.2,0.4,0.3,0.734642871953663,"false"
"image-keyboard-response",142,243266,"0.0-4.43-1.43","x4eu7paltket00z",673,"89.csv","","null","resources/maskTrios/L1BB.jpg","null","",NA,NA,NA,NA,""
"image-keyboard-response",143,244481,"0.0-4.43-2.43","x4eu7paltket00z",673,"89.csv","","null","resources/images/fishbone.png","null","",NA,NA,NA,NA,""
"image-keyboard-response",144,245549,"0.0-4.44-0.44","x4eu7paltket00z",673,"89.csv","","1066.4000000953674","resources/trios/L1T2A3.jpg","38","restless",0.2,0.3,0.3,0.487802014176403,"false"
"image-keyboard-response",145,245955,"0.0-4.44-1.44","x4eu7paltket00z",673,"89.csv","","null","resources/maskTrios/BT2B.jpg","null","",NA,NA,NA,NA,""
"image-keyboard-response",146,247158,"0.0-4.44-2.44","x4eu7paltket00z",673,"89.csv","","null","resources/images/fishbone.png","null","",NA,NA,NA,NA,""
"image-keyboard-response",147,247624,"0.0-4.45-0.45","x4eu7paltket00z",673,"89.csv","","465.19999980926514","resources/trios/L1T2A3.jpg","39","restless",0.2,0.3,0.4,0.997844776971911,"false"
"image-keyboard-response",148,248026,"0.0-4.45-1.45","x4eu7paltket00z",673,"89.csv","","null","resources/maskTrios/BBA3.jpg","null","",NA,NA,NA,NA,""
"image-keyboard-response",149,249235,"0.0-4.45-2.45","x4eu7paltket00z",673,"89.csv","","null","resources/images/fishbone.png","null","",NA,NA,NA,NA,""
"image-keyboard-response",150,250695,"0.0-4.46-0.46","x4eu7paltket00z",673,"89.csv","","1457.8000001907349","resources/trios/L1T2A3.jpg","37","restless",0.2,0.3,0.4,0.317654985755573,"false"
"image-keyboard-response",151,251107,"0.0-4.46-1.46","x4eu7paltket00z",673,"89.csv","","null","resources/maskTrios/L1BB.jpg","null","",NA,NA,NA,NA,""
"image-keyboard-response",152,252323,"0.0-4.46-2.46","x4eu7paltket00z",673,"89.csv","","null","resources/images/fishbone.png","null","",NA,NA,NA,NA,""
"image-keyboard-response",153,253837,"0.0-4.47-0.47","x4eu7paltket00z",673,"89.csv","","1512.6999998092651","resources/trios/L1T2A3.jpg","38","restless",0.2,0.3,0.4,0.517608314216369,"false"
"image-keyboard-response",154,254250,"0.0-4.47-1.47","x4eu7paltket00z",673,"89.csv","","null","resources/maskTrios/BT2B.jpg","null","",NA,NA,NA,NA,""
"image-keyboard-response",155,255453,"0.0-4.47-2.47","x4eu7paltket00z",673,"89.csv","","null","resources/images/fishbone.png","null","",NA,NA,NA,NA,""
"image-keyboard-response",156,255794,"0.0-4.48-0.48","x4eu7paltket00z",673,"89.csv","","339.19999980926514","resources/trios/L1T2A3.jpg","39","restless",0.2,0.3,0.4,0.345773557321873,"true"
"image-keyboard-response",157,256197,"0.0-4.48-1.48","x4eu7paltket00z",673,"89.csv","","null","resources/maskTrios/BBA3.jpg","null","",NA,NA,NA,NA,""
"image-keyboard-response",158,257402,"0.0-4.48-2.48","x4eu7paltket00z",673,"89.csv","","null","resources/images/coin2.png","null","",NA,NA,NA,NA,""
"image-keyboard-response",159,257516,"0.0-4.49-0.49","x4eu7paltket00z",673,"89.csv","","112.40000009536743","resources/trios/L1T2A3.jpg","38","restless",0.2,0.3,0.4,0.0166422592947288,"true"
"image-keyboard-response",160,257929,"0.0-4.49-1.49","x4eu7paltket00z",673,"89.csv","","null","resources/maskTrios/BT2B.jpg","null","",NA,NA,NA,NA,""
"image-keyboard-response",161,259136,"0.0-4.49-2.49","x4eu7paltket00z",673,"89.csv","","null","resources/images/coin2.png","null","",NA,NA,NA,NA,""
"image-keyboard-response",162,268450,"0.0-4.50-0.50","x4eu7paltket00z",673,"89.csv","","9312","resources/trios/L1T2A3.jpg","39","restless",0.2,0.3,0.4,0.644209669402008,"false"
"image-keyboard-response",163,268853,"0.0-4.50-1.50","x4eu7paltket00z",673,"89.csv","","null","resources/maskTrios/BBA3.jpg","null","",NA,NA,NA,NA,""
"image-keyboard-response",164,270062,"0.0-4.50-2.50","x4eu7paltket00z",673,"89.csv","","null","resources/images/fishbone.png","null","",NA,NA,NA,NA,""
"image-keyboard-response",165,284480,"0.0-4.51-0.51","x4eu7paltket00z",673,"89.csv","","14417.599999904633","resources/trios/L1T2A3.jpg","37","restless",0.2,0.3,0.5,0.847651309046029,"false"
"image-keyboard-response",166,284893,"0.0-4.51-1.51","x4eu7paltket00z",673,"89.csv","","null","resources/maskTrios/L1BB.jpg","null","",NA,NA,NA,NA,""
"image-keyboard-response",167,286102,"0.0-4.51-2.51","x4eu7paltket00z",673,"89.csv","","null","resources/images/fishbone.png","null","",NA,NA,NA,NA,""
"image-keyboard-response",168,295150,"0.0-4.52-0.52","x4eu7paltket00z",673,"89.csv","","9046.099999904633","resources/trios/L1T2A3.jpg","39","restless",0.2,0.3,0.6,0.333836060336513,"true"
"image-keyboard-response",169,295556,"0.0-4.52-1.52","x4eu7paltket00z",673,"89.csv","","null","resources/maskTrios/BBA3.jpg","null","",NA,NA,NA,NA,""
"image-keyboard-response",170,296761,"0.0-4.52-2.52","x4eu7paltket00z",673,"89.csv","","null","resources/images/coin2.png","null","",NA,NA,NA,NA,""
"image-keyboard-response",171,297711,"0.0-4.53-0.53","x4eu7paltket00z",673,"89.csv","","949.3999996185303","resources/trios/L1T2A3.jpg","39","restless",0.2,0.4,0.6,0.0799310384322547,"true"
"image-keyboard-response",172,298117,"0.0-4.53-1.53","x4eu7paltket00z",673,"89.csv","","null","resources/maskTrios/BBA3.jpg","null","",NA,NA,NA,NA,""
"image-keyboard-response",173,299324,"0.0-4.53-2.53","x4eu7paltket00z",673,"89.csv","","null","resources/images/coin2.png","null","",NA,NA,NA,NA,""
"image-keyboard-response",174,299723,"0.0-4.54-0.54","x4eu7paltket00z",673,"89.csv","","397.40000009536743","resources/trios/L1T2A3.jpg","39","restless",0.2,0.4,0.6,0.190982313616441,"true"
"image-keyboard-response",175,300131,"0.0-4.54-1.54","x4eu7paltket00z",673,"89.csv","","null","resources/maskTrios/BBA3.jpg","null","",NA,NA,NA,NA,""
"image-keyboard-response",176,301335,"0.0-4.54-2.54","x4eu7paltket00z",673,"89.csv","","null","resources/images/coin2.png","null","",NA,NA,NA,NA,""
"image-keyboard-response",177,301744,"0.0-4.55-0.55","x4eu7paltket00z",673,"89.csv","","407.90000009536743","resources/trios/L1T2A3.jpg","39","restless",0.2,0.4,0.7,0.91616379405512,"false"
"image-keyboard-response",178,302155,"0.0-4.55-1.55","x4eu7paltket00z",673,"89.csv","","null","resources/maskTrios/BBA3.jpg","null","",NA,NA,NA,NA,""
"image-keyboard-response",179,303359,"0.0-4.55-2.55","x4eu7paltket00z",673,"89.csv","","null","resources/images/fishbone.png","null","",NA,NA,NA,NA,""
"image-keyboard-response",180,303817,"0.0-4.56-0.56","x4eu7paltket00z",673,"89.csv","","456.30000019073486","resources/trios/L1T2A3.jpg","37","restless",0.2,0.4,0.7,0.789367340341975,"false"
"image-keyboard-response",181,304225,"0.0-4.56-1.56","x4eu7paltket00z",673,"89.csv","","null","resources/maskTrios/L1BB.jpg","null","",NA,NA,NA,NA,""
"image-keyboard-response",182,305440,"0.0-4.56-2.56","x4eu7paltket00z",673,"89.csv","","null","resources/images/fishbone.png","null","",NA,NA,NA,NA,""
"image-keyboard-response",183,313679,"0.0-4.57-0.57","x4eu7paltket00z",673,"89.csv","","8236.5","resources/trios/L1T2A3.jpg","37","restless",0.2,0.3,0.7,0.684837056352993,"false"
"image-keyboard-response",184,314081,"0.0-4.57-1.57","x4eu7paltket00z",673,"89.csv","","null","resources/maskTrios/L1BB.jpg","null","",NA,NA,NA,NA,""
"image-keyboard-response",185,315285,"0.0-4.57-2.57","x4eu7paltket00z",673,"89.csv","","null","resources/images/fishbone.png","null","",NA,NA,NA,NA,""
"image-keyboard-response",186,315863,"0.0-4.58-0.58","x4eu7paltket00z",673,"89.csv","","576.9000000953674","resources/trios/L1T2A3.jpg","37","restless",0.2,0.3,0.7,0.738124884014813,"false"
"image-keyboard-response",187,316275,"0.0-4.58-1.58","x4eu7paltket00z",673,"89.csv","","null","resources/maskTrios/L1BB.jpg","null","",NA,NA,NA,NA,""
"image-keyboard-response",188,317478,"0.0-4.58-2.58","x4eu7paltket00z",673,"89.csv","","null","resources/images/fishbone.png","null","",NA,NA,NA,NA,""
"image-keyboard-response",189,471326,"0.0-4.59-0.59","x4eu7paltket00z",673,"89.csv","","153845","resources/trios/L1T2A3.jpg","39","restless",0.2,0.3,0.7,0.851983416918874,"false"
"image-keyboard-response",190,471738,"0.0-4.59-1.59","x4eu7paltket00z",673,"89.csv","","null","resources/maskTrios/BBA3.jpg","null","",NA,NA,NA,NA,""
"image-keyboard-response",191,472944,"0.0-4.59-2.59","x4eu7paltket00z",673,"89.csv","","null","resources/images/fishbone.png","null","",NA,NA,NA,NA,""
"image-keyboard-response",192,484685,"0.0-4.60-0.60","x4eu7paltket00z",673,"89.csv","","11739.200000286102","resources/trios/L1T2A3.jpg","37","restless",0.2,0.3,0.7,0.969739306873159,"false"
"image-keyboard-response",193,485099,"0.0-4.60-1.60","x4eu7paltket00z",673,"89.csv","","null","resources/maskTrios/L1BB.jpg","null","",NA,NA,NA,NA,""
"image-keyboard-response",194,486303,"0.0-4.60-2.60","x4eu7paltket00z",673,"89.csv","","null","resources/images/fishbone.png","null","",NA,NA,NA,NA,""
"image-keyboard-response",195,492910,"0.0-4.61-0.61","x4eu7paltket00z",673,"89.csv","","6605.400000095367","resources/trios/L1T2A3.jpg","37","restless",0.2,0.3,0.7,0.745188107967665,"false"
"image-keyboard-response",196,493317,"0.0-4.61-1.61","x4eu7paltket00z",673,"89.csv","","null","resources/maskTrios/L1BB.jpg","null","",NA,NA,NA,NA,""
"image-keyboard-response",197,494520,"0.0-4.61-2.61","x4eu7paltket00z",673,"89.csv","","null","resources/images/fishbone.png","null","",NA,NA,NA,NA,""
"image-keyboard-response",198,495783,"0.0-4.62-0.62","x4eu7paltket00z",673,"89.csv","","1261.5999999046326","resources/trios/L1T2A3.jpg","37","restless",0.2,0.3,0.7,0.57274200840864,"false"
"image-keyboard-response",199,496199,"0.0-4.62-1.62","x4eu7paltket00z",673,"89.csv","","null","resources/maskTrios/L1BB.jpg","null","",NA,NA,NA,NA,""
"image-keyboard-response",200,497402,"0.0-4.62-2.62","x4eu7paltket00z",673,"89.csv","","null","resources/images/fishbone.png","null","",NA,NA,NA,NA,""
"image-keyboard-response",201,500306,"0.0-4.63-0.63","x4eu7paltket00z",673,"89.csv","","2902.800000190735","resources/trios/L1T2A3.jpg","37","restless",0.2,0.3,0.7,0.694548864936612,"false"
"image-keyboard-response",202,500710,"0.0-4.63-1.63","x4eu7paltket00z",673,"89.csv","","null","resources/maskTrios/L1BB.jpg","null","",NA,NA,NA,NA,""
"image-keyboard-response",203,501915,"0.0-4.63-2.63","x4eu7paltket00z",673,"89.csv","","null","resources/images/fishbone.png","null","",NA,NA,NA,NA,""
"image-keyboard-response",204,502420,"0.0-4.64-0.64","x4eu7paltket00z",673,"89.csv","","503.90000009536743","resources/trios/L1T2A3.jpg","37","restless",0.2,0.3,0.7,0.0212219640101567,"true"
"image-keyboard-response",205,502824,"0.0-4.64-1.64","x4eu7paltket00z",673,"89.csv","","null","resources/maskTrios/L1BB.jpg","null","",NA,NA,NA,NA,""
"image-keyboard-response",206,504027,"0.0-4.64-2.64","x4eu7paltket00z",673,"89.csv","","null","resources/images/coin2.png","null","",NA,NA,NA,NA,""
"image-keyboard-response",207,504445,"0.0-4.65-0.65","x4eu7paltket00z",673,"89.csv","","416.30000019073486","resources/trios/L1T2A3.jpg","37","restless",0.2,0.3,0.7,0.60257978644714,"false"
"image-keyboard-response",208,504857,"0.0-4.65-1.65","x4eu7paltket00z",673,"89.csv","","null","resources/maskTrios/L1BB.jpg","null","",NA,NA,NA,NA,""
"image-keyboard-response",209,506065,"0.0-4.65-2.65","x4eu7paltket00z",673,"89.csv","","null","resources/images/fishbone.png","null","",NA,NA,NA,NA,""
"image-keyboard-response",210,510292,"0.0-4.66-0.66","x4eu7paltket00z",673,"89.csv","","4224.800000190735","resources/trios/L1T2A3.jpg","39","restless",0.2,0.3,0.7,0.330958645829766,"true"
"image-keyboard-response",211,510706,"0.0-4.66-1.66","x4eu7paltket00z",673,"89.csv","","null","resources/maskTrios/BBA3.jpg","null","",NA,NA,NA,NA,""
"image-keyboard-response",212,511912,"0.0-4.66-2.66","x4eu7paltket00z",673,"89.csv","","null","resources/images/coin2.png","null","",NA,NA,NA,NA,""
"image-keyboard-response",213,512689,"0.0-4.67-0.67","x4eu7paltket00z",673,"89.csv","","775.5999999046326","resources/trios/L1T2A3.jpg","39","restless",0.2,0.3,0.7,0.611040065469232,"true"
"image-keyboard-response",214,513099,"0.0-4.67-1.67","x4eu7paltket00z",673,"89.csv","","null","resources/maskTrios/BBA3.jpg","null","",NA,NA,NA,NA,""
"image-keyboard-response",215,514313,"0.0-4.67-2.67","x4eu7paltket00z",673,"89.csv","","null","resources/images/coin2.png","null","",NA,NA,NA,NA,""
"image-keyboard-response",216,515018,"0.0-4.68-0.68","x4eu7paltket00z",673,"89.csv","","702.9000000953674","resources/trios/L1T2A3.jpg","39","restless",0.2,0.3,0.7,0.733455185324953,"false"
"image-keyboard-response",217,515422,"0.0-4.68-1.68","x4eu7paltket00z",673,"89.csv","","null","resources/maskTrios/BBA3.jpg","null","",NA,NA,NA,NA,""
"image-keyboard-response",218,516628,"0.0-4.68-2.68","x4eu7paltket00z",673,"89.csv","","null","resources/images/fishbone.png","null","",NA,NA,NA,NA,""
"image-keyboard-response",219,525407,"0.0-4.69-0.69","x4eu7paltket00z",673,"89.csv","","8776.39999961853","resources/trios/L1T2A3.jpg","39","restless",0.3,0.3,0.7,0.285579436915847,"true"
"image-keyboard-response",220,525812,"0.0-4.69-1.69","x4eu7paltket00z",673,"89.csv","","null","resources/maskTrios/BBA3.jpg","null","",NA,NA,NA,NA,""
"image-keyboard-response",221,527020,"0.0-4.69-2.69","x4eu7paltket00z",673,"89.csv","","null","resources/images/coin2.png","null","",NA,NA,NA,NA,""
"image-keyboard-response",222,527823,"0.0-4.70-0.70","x4eu7paltket00z",673,"89.csv","","801.5999999046326","resources/trios/L1T2A3.jpg","39","restless",0.3,0.3,0.7,0.940848578785516,"false"
"image-keyboard-response",223,528226,"0.0-4.70-1.70","x4eu7paltket00z",673,"89.csv","","null","resources/maskTrios/BBA3.jpg","null","",NA,NA,NA,NA,""
"image-keyboard-response",224,529432,"0.0-4.70-2.70","x4eu7paltket00z",673,"89.csv","","null","resources/images/fishbone.png","null","",NA,NA,NA,NA,""
"image-keyboard-response",225,538509,"0.0-4.71-0.71","x4eu7paltket00z",673,"89.csv","","9074.800000190735","resources/trios/L1T2A3.jpg","39","restless",0.3,0.3,0.7,0.213214641347445,"true"
"image-keyboard-response",226,538919,"0.0-4.71-1.71","x4eu7paltket00z",673,"89.csv","","null","resources/maskTrios/BBA3.jpg","null","",NA,NA,NA,NA,""
"image-keyboard-response",227,540122,"0.0-4.71-2.71","x4eu7paltket00z",673,"89.csv","","null","resources/images/coin2.png","null","",NA,NA,NA,NA,""
"image-keyboard-response",228,540606,"0.0-4.72-0.72","x4eu7paltket00z",673,"89.csv","","481.59999990463257","resources/trios/L1T2A3.jpg","39","restless",0.3,0.3,0.7,0.246013961025196,"true"
"image-keyboard-response",229,541016,"0.0-4.72-1.72","x4eu7paltket00z",673,"89.csv","","null","resources/maskTrios/BBA3.jpg","null","",NA,NA,NA,NA,""
"image-keyboard-response",230,542231,"0.0-4.72-2.72","x4eu7paltket00z",673,"89.csv","","null","resources/images/coin2.png","null","",NA,NA,NA,NA,""
"image-keyboard-response",231,542363,"0.0-4.73-0.73","x4eu7paltket00z",673,"89.csv","","131","resources/trios/L1T2A3.jpg","39","restless",0.3,0.3,0.7,0.607495230202789,"true"
"image-keyboard-response",232,542766,"0.0-4.73-1.73","x4eu7paltket00z",673,"89.csv","","null","resources/maskTrios/BBA3.jpg","null","",NA,NA,NA,NA,""
"image-keyboard-response",233,543971,"0.0-4.73-2.73","x4eu7paltket00z",673,"89.csv","","null","resources/images/coin2.png","null","",NA,NA,NA,NA,""
"image-keyboard-response",234,544179,"0.0-4.74-0.74","x4eu7paltket00z",673,"89.csv","","207.40000009536743","resources/trios/L1T2A3.jpg","39","restless",0.4,0.3,0.7,0.390286162594879,"true"
"image-keyboard-response",235,544592,"0.0-4.74-1.74","x4eu7paltket00z",673,"89.csv","","null","resources/maskTrios/BBA3.jpg","null","",NA,NA,NA,NA,""
"image-keyboard-response",236,545803,"0.0-4.74-2.74","x4eu7paltket00z",673,"89.csv","","null","resources/images/coin2.png","null","",NA,NA,NA,NA,""
"image-keyboard-response",237,546300,"0.0-4.75-0.75","x4eu7paltket00z",673,"89.csv","","495.09999990463257","resources/trios/L1T2A3.jpg","39","restless",0.4,0.3,0.7,0.434592478641349,"true"
"image-keyboard-response",238,546701,"0.0-4.75-1.75","x4eu7paltket00z",673,"89.csv","","null","resources/maskTrios/BBA3.jpg","null","",NA,NA,NA,NA,""
"image-keyboard-response",239,547905,"0.0-4.75-2.75","x4eu7paltket00z",673,"89.csv","","null","resources/images/coin2.png","null","",NA,NA,NA,NA,""
"image-keyboard-response",240,548333,"0.0-4.76-0.76","x4eu7paltket00z",673,"89.csv","","425.3999996185303","resources/trios/L1T2A3.jpg","39","restless",0.4,0.3,0.7,0.428347765541994,"true"
"image-keyboard-response",241,548741,"0.0-4.76-1.76","x4eu7paltket00z",673,"89.csv","","null","resources/maskTrios/BBA3.jpg","null","",NA,NA,NA,NA,""
"image-keyboard-response",242,549951,"0.0-4.76-2.76","x4eu7paltket00z",673,"89.csv","","null","resources/images/coin2.png","null","",NA,NA,NA,NA,""
"image-keyboard-response",243,550094,"0.0-4.77-0.77","x4eu7paltket00z",673,"89.csv","","140.5","resources/trios/L1T2A3.jpg","39","restless",0.4,0.3,0.7,0.88151709986239,"false"
"image-keyboard-response",244,550510,"0.0-4.77-1.77","x4eu7paltket00z",673,"89.csv","","null","resources/maskTrios/BBA3.jpg","null","",NA,NA,NA,NA,""
"image-keyboard-response",245,551714,"0.0-4.77-2.77","x4eu7paltket00z",673,"89.csv","","null","resources/images/fishbone.png","null","",NA,NA,NA,NA,""
"image-keyboard-response",246,552375,"0.0-4.78-0.78","x4eu7paltket00z",673,"89.csv","","659.5","resources/trios/L1T2A3.jpg","39","restless",0.4,0.3,0.7,0.31091042338222,"true"
"image-keyboard-response",247,552779,"0.0-4.78-1.78","x4eu7paltket00z",673,"89.csv","","null","resources/maskTrios/BBA3.jpg","null","",NA,NA,NA,NA,""
"image-keyboard-response",248,553993,"0.0-4.78-2.78","x4eu7paltket00z",673,"89.csv","","null","resources/images/coin2.png","null","",NA,NA,NA,NA,""
"image-keyboard-response",249,554192,"0.0-4.79-0.79","x4eu7paltket00z",673,"89.csv","","198.09999990463257","resources/trios/L1T2A3.jpg","39","restless",0.4,0.3,0.7,0.751543352775176,"false"
"image-keyboard-response",250,554609,"0.0-4.79-1.79","x4eu7paltket00z",673,"89.csv","","null","resources/maskTrios/BBA3.jpg","null","",NA,NA,NA,NA,""
"image-keyboard-response",251,555812,"0.0-4.79-2.79","x4eu7paltket00z",673,"89.csv","","null","resources/images/fishbone.png","null","",NA,NA,NA,NA,""
"image-keyboard-response",252,556081,"0.0-4.80-0.80","x4eu7paltket00z",673,"89.csv","","267.59999990463257","resources/trios/L1T2A3.jpg","39","restless",0.4,0.3,0.8,0.682823927786903,"true"
"image-keyboard-response",253,556493,"0.0-4.80-1.80","x4eu7paltket00z",673,"89.csv","","null","resources/maskTrios/BBA3.jpg","null","",NA,NA,NA,NA,""
"image-keyboard-response",254,557701,"0.0-4.80-2.80","x4eu7paltket00z",673,"89.csv","","null","resources/images/coin2.png","null","",NA,NA,NA,NA,""
"image-keyboard-response",255,558234,"0.0-4.81-0.81","x4eu7paltket00z",673,"89.csv","","532","resources/trios/L1T2A3.jpg","39","restless",0.4,0.3,0.8,0.452563667876758,"true"
"image-keyboard-response",256,558643,"0.0-4.81-1.81","x4eu7paltket00z",673,"89.csv","","null","resources/maskTrios/BBA3.jpg","null","",NA,NA,NA,NA,""
"image-keyboard-response",257,559852,"0.0-4.81-2.81","x4eu7paltket00z",673,"89.csv","","null","resources/images/coin2.png","null","",NA,NA,NA,NA,""
"image-keyboard-response",258,560181,"0.0-4.82-0.82","x4eu7paltket00z",673,"89.csv","","327.30000019073486","resources/trios/L1T2A3.jpg","39","restless",0.4,0.3,0.8,0.19531255818976,"true"
"image-keyboard-response",259,560594,"0.0-4.82-1.82","x4eu7paltket00z",673,"89.csv","","null","resources/maskTrios/BBA3.jpg","null","",NA,NA,NA,NA,""
"image-keyboard-response",260,561799,"0.0-4.82-2.82","x4eu7paltket00z",673,"89.csv","","null","resources/images/coin2.png","null","",NA,NA,NA,NA,""
"image-keyboard-response",261,562100,"0.0-4.83-0.83","x4eu7paltket00z",673,"89.csv","","299.5","resources/trios/L1T2A3.jpg","39","restless",0.4,0.3,0.9,0.907045764403853,"false"
"image-keyboard-response",262,562512,"0.0-4.83-1.83","x4eu7paltket00z",673,"89.csv","","null","resources/maskTrios/BBA3.jpg","null","",NA,NA,NA,NA,""
"image-keyboard-response",263,563715,"0.0-4.83-2.83","x4eu7paltket00z",673,"89.csv","","null","resources/images/fishbone.png","null","",NA,NA,NA,NA,""
"image-keyboard-response",264,564111,"0.0-4.84-0.84","x4eu7paltket00z",673,"89.csv","","394.09999990463257","resources/trios/L1T2A3.jpg","39","restless",0.4,0.3,0.9,0.467221430080417,"true"
"image-keyboard-response",265,564516,"0.0-4.84-1.84","x4eu7paltket00z",673,"89.csv","","null","resources/maskTrios/BBA3.jpg","null","",NA,NA,NA,NA,""
"image-keyboard-response",266,565720,"0.0-4.84-2.84","x4eu7paltket00z",673,"89.csv","","null","resources/images/coin2.png","null","",NA,NA,NA,NA,""
"image-keyboard-response",267,566101,"0.0-4.85-0.85","x4eu7paltket00z",673,"89.csv","","379.69999980926514","resources/trios/L1T2A3.jpg","39","restless",0.4,0.3,0.9,0.84754097777592,"true"
"image-keyboard-response",268,566507,"0.0-4.85-1.85","x4eu7paltket00z",673,"89.csv","","null","resources/maskTrios/BBA3.jpg","null","",NA,NA,NA,NA,""
"image-keyboard-response",269,567715,"0.0-4.85-2.85","x4eu7paltket00z",673,"89.csv","","null","resources/images/coin2.png","null","",NA,NA,NA,NA,""
"image-keyboard-response",270,567879,"0.0-4.86-0.86","x4eu7paltket00z",673,"89.csv","","162.39999961853027","resources/trios/L1T2A3.jpg","39","restless",0.4,0.3,0.9,0.153108049924614,"true"
"image-keyboard-response",271,568285,"0.0-4.86-1.86","x4eu7paltket00z",673,"89.csv","","null","resources/maskTrios/BBA3.jpg","null","",NA,NA,NA,NA,""
"image-keyboard-response",272,569495,"0.0-4.86-2.86","x4eu7paltket00z",673,"89.csv","","null","resources/images/coin2.png","null","",NA,NA,NA,NA,""
"image-keyboard-response",273,569736,"0.0-4.87-0.87","x4eu7paltket00z",673,"89.csv","","238.7000002861023","resources/trios/L1T2A3.jpg","39","restless",0.4,0.3,0.9,0.565900718413055,"true"
"image-keyboard-response",274,570148,"0.0-4.87-1.87","x4eu7paltket00z",673,"89.csv","","null","resources/maskTrios/BBA3.jpg","null","",NA,NA,NA,NA,""
"image-keyboard-response",275,571351,"0.0-4.87-2.87","x4eu7paltket00z",673,"89.csv","","null","resources/images/coin2.png","null","",NA,NA,NA,NA,""
"image-keyboard-response",276,571608,"0.0-4.88-0.88","x4eu7paltket00z",673,"89.csv","","255.10000038146973","resources/trios/L1T2A3.jpg","39","restless",0.4,0.3,0.9,0.134230118952181,"true"
"image-keyboard-response",277,572016,"0.0-4.88-1.88","x4eu7paltket00z",673,"89.csv","","null","resources/maskTrios/BBA3.jpg","null","",NA,NA,NA,NA,""
"image-keyboard-response",278,573218,"0.0-4.88-2.88","x4eu7paltket00z",673,"89.csv","","null","resources/images/coin2.png","null","",NA,NA,NA,NA,""
"image-keyboard-response",279,573402,"0.0-4.89-0.89","x4eu7paltket00z",673,"89.csv","","182.40000009536743","resources/trios/L1T2A3.jpg","39","restless",0.4,0.3,0.9,0.523783378464127,"true"
"image-keyboard-response",280,573806,"0.0-4.89-1.89","x4eu7paltket00z",673,"89.csv","","null","resources/maskTrios/BBA3.jpg","null","",NA,NA,NA,NA,""
"image-keyboard-response",281,575012,"0.0-4.89-2.89","x4eu7paltket00z",673,"89.csv","","null","resources/images/coin2.png","null","",NA,NA,NA,NA,""
"image-keyboard-response",282,575234,"0.0-4.90-0.90","x4eu7paltket00z",673,"89.csv","","219.2000002861023","resources/trios/L1T2A3.jpg","39","restless",0.4,0.2,0.9,0.650393275516284,"true"
"image-keyboard-response",283,575644,"0.0-4.90-1.90","x4eu7paltket00z",673,"89.csv","","null","resources/maskTrios/BBA3.jpg","null","",NA,NA,NA,NA,""
"image-keyboard-response",284,576851,"0.0-4.90-2.90","x4eu7paltket00z",673,"89.csv","","null","resources/images/coin2.png","null","",NA,NA,NA,NA,""
"image-keyboard-response",285,576923,"0.0-4.91-0.91","x4eu7paltket00z",673,"89.csv","","70.30000019073486","resources/trios/L1T2A3.jpg","39","restless",0.4,0.2,0.8,0.650426505940947,"true"
"image-keyboard-response",286,577330,"0.0-4.91-1.91","x4eu7paltket00z",673,"89.csv","","null","resources/maskTrios/BBA3.jpg","null","",NA,NA,NA,NA,""
"image-keyboard-response",287,578533,"0.0-4.91-2.91","x4eu7paltket00z",673,"89.csv","","null","resources/images/coin2.png","null","",NA,NA,NA,NA,""
"image-keyboard-response",288,578652,"0.0-4.92-0.92","x4eu7paltket00z",673,"89.csv","","117.40000009536743","resources/trios/L1T2A3.jpg","39","restless",0.4,0.2,0.8,0.10254858728483,"true"
"image-keyboard-response",289,579062,"0.0-4.92-1.92","x4eu7paltket00z",673,"89.csv","","null","resources/maskTrios/BBA3.jpg","null","",NA,NA,NA,NA,""
"image-keyboard-response",290,580269,"0.0-4.92-2.92","x4eu7paltket00z",673,"89.csv","","null","resources/images/coin2.png","null","",NA,NA,NA,NA,""
"image-keyboard-response",291,580518,"0.0-4.93-0.93","x4eu7paltket00z",673,"89.csv","","246.90000009536743","resources/trios/L1T2A3.jpg","39","restless",0.4,0.2,0.8,0.964787231086608,"false"
"image-keyboard-response",292,580934,"0.0-4.93-1.93","x4eu7paltket00z",673,"89.csv","","null","resources/maskTrios/BBA3.jpg","null","",NA,NA,NA,NA,""
"image-keyboard-response",293,582138,"0.0-4.93-2.93","x4eu7paltket00z",673,"89.csv","","null","resources/images/fishbone.png","null","",NA,NA,NA,NA,""
"image-keyboard-response",294,582494,"0.0-4.94-0.94","x4eu7paltket00z",673,"89.csv","","354.09999990463257","resources/trios/L1T2A3.jpg","39","restless",0.4,0.2,0.8,0.399999597197884,"true"
"image-keyboard-response",295,582906,"0.0-4.94-1.94","x4eu7paltket00z",673,"89.csv","","null","resources/maskTrios/BBA3.jpg","null","",NA,NA,NA,NA,""
"image-keyboard-response",296,584110,"0.0-4.94-2.94","x4eu7paltket00z",673,"89.csv","","null","resources/images/coin2.png","null","",NA,NA,NA,NA,""
"image-keyboard-response",297,584417,"0.0-4.95-0.95","x4eu7paltket00z",673,"89.csv","","305.1000003814697","resources/trios/L1T2A3.jpg","39","restless",0.4,0.2,0.8,0.788300683134773,"true"
"image-keyboard-response",298,584822,"0.0-4.95-1.95","x4eu7paltket00z",673,"89.csv","","null","resources/maskTrios/BBA3.jpg","null","",NA,NA,NA,NA,""
"image-keyboard-response",299,586031,"0.0-4.95-2.95","x4eu7paltket00z",673,"89.csv","","null","resources/images/coin2.png","null","",NA,NA,NA,NA,""
"image-keyboard-response",300,586288,"0.0-4.96-0.96","x4eu7paltket00z",673,"89.csv","","255.7000002861023","resources/trios/L1T2A3.jpg","39","restless",0.4,0.2,0.8,0.835323761264925,"false"
"image-keyboard-response",301,586694,"0.0-4.96-1.96","x4eu7paltket00z",673,"89.csv","","null","resources/maskTrios/BBA3.jpg","null","",NA,NA,NA,NA,""
"image-keyboard-response",302,587905,"0.0-4.96-2.96","x4eu7paltket00z",673,"89.csv","","null","resources/images/fishbone.png","null","",NA,NA,NA,NA,""
"image-keyboard-response",303,588130,"0.0-4.97-0.97","x4eu7paltket00z",673,"89.csv","","223","resources/trios/L1T2A3.jpg","39","restless",0.4,0.2,0.8,0.698119738255167,"true"
"image-keyboard-response",304,588541,"0.0-4.97-1.97","x4eu7paltket00z",673,"89.csv","","null","resources/maskTrios/BBA3.jpg","null","",NA,NA,NA,NA,""
"image-keyboard-response",305,589747,"0.0-4.97-2.97","x4eu7paltket00z",673,"89.csv","","null","resources/images/coin2.png","null","",NA,NA,NA,NA,""
"image-keyboard-response",306,589970,"0.0-4.98-0.98","x4eu7paltket00z",673,"89.csv","","220.69999980926514","resources/trios/L1T2A3.jpg","39","restless",0.4,0.2,0.8,0.430521267582394,"true"
"image-keyboard-response",307,590377,"0.0-4.98-1.98","x4eu7paltket00z",673,"89.csv","","null","resources/maskTrios/BBA3.jpg","null","",NA,NA,NA,NA,""
"image-keyboard-response",308,591586,"0.0-4.98-2.98","x4eu7paltket00z",673,"89.csv","","null","resources/images/coin2.png","null","",NA,NA,NA,NA,""
"image-keyboard-response",309,591810,"0.0-4.99-0.99","x4eu7paltket00z",673,"89.csv","","223.09999990463257","resources/trios/L1T2A3.jpg","39","restless",0.3,0.2,0.8,0.706571570123336,"true"
"image-keyboard-response",310,592213,"0.0-4.99-1.99","x4eu7paltket00z",673,"89.csv","","null","resources/maskTrios/BBA3.jpg","null","",NA,NA,NA,NA,""
"image-keyboard-response",311,593416,"0.0-4.99-2.99","x4eu7paltket00z",673,"89.csv","","null","resources/images/coin2.png","null","",NA,NA,NA,NA,""
"image-keyboard-response",312,593637,"0.0-4.100-0.100","x4eu7paltket00z",673,"89.csv","","218.5","resources/trios/L1T2A3.jpg","39","restless",0.3,0.2,0.8,0.367014130478964,"true"
"image-keyboard-response",313,594054,"0.0-4.100-1.100","x4eu7paltket00z",673,"89.csv","","null","resources/maskTrios/BBA3.jpg","null","",NA,NA,NA,NA,""
"image-keyboard-response",314,595263,"0.0-4.100-2.100","x4eu7paltket00z",673,"89.csv","","null","resources/images/coin2.png","null","",NA,NA,NA,NA,""
"image-keyboard-response",315,595525,"0.0-4.101-0.101","x4eu7paltket00z",673,"89.csv","","259.59999990463257","resources/trios/L1T2A3.jpg","39","restless",0.4,0.2,0.8,0.763293703955,"true"
"image-keyboard-response",316,595940,"0.0-4.101-1.101","x4eu7paltket00z",673,"89.csv","","null","resources/maskTrios/BBA3.jpg","null","",NA,NA,NA,NA,""
"image-keyboard-response",317,597146,"0.0-4.101-2.101","x4eu7paltket00z",673,"89.csv","","null","resources/images/coin2.png","null","",NA,NA,NA,NA,""
"image-keyboard-response",318,597413,"0.0-4.102-0.102","x4eu7paltket00z",673,"89.csv","","264.59999990463257","resources/trios/L1T2A3.jpg","39","restless",0.4,0.2,0.8,0.733815493482722,"true"
"image-keyboard-response",319,597826,"0.0-4.102-1.102","x4eu7paltket00z",673,"89.csv","","null","resources/maskTrios/BBA3.jpg","null","",NA,NA,NA,NA,""
"image-keyboard-response",320,599031,"0.0-4.102-2.102","x4eu7paltket00z",673,"89.csv","","null","resources/images/coin2.png","null","",NA,NA,NA,NA,""
"image-keyboard-response",321,599398,"0.0-4.103-0.103","x4eu7paltket00z",673,"89.csv","","365.90000009536743","resources/trios/L1T2A3.jpg","39","restless",0.4,0.2,0.8,0.871694757816299,"false"
"image-keyboard-response",322,599807,"0.0-4.103-1.103","x4eu7paltket00z",673,"89.csv","","null","resources/maskTrios/BBA3.jpg","null","",NA,NA,NA,NA,""
"image-keyboard-response",323,601017,"0.0-4.103-2.103","x4eu7paltket00z",673,"89.csv","","null","resources/images/fishbone.png","null","",NA,NA,NA,NA,""
"image-keyboard-response",324,601191,"0.0-4.104-0.104","x4eu7paltket00z",673,"89.csv","","172.09999990463257","resources/trios/L1T2A3.jpg","39","restless",0.4,0.2,0.7,0.797191827361329,"false"
"image-keyboard-response",325,601606,"0.0-4.104-1.104","x4eu7paltket00z",673,"89.csv","","null","resources/maskTrios/BBA3.jpg","null","",NA,NA,NA,NA,""
"image-keyboard-response",326,602811,"0.0-4.104-2.104","x4eu7paltket00z",673,"89.csv","","null","resources/images/fishbone.png","null","",NA,NA,NA,NA,""
"image-keyboard-response",327,603079,"0.0-4.105-0.105","x4eu7paltket00z",673,"89.csv","","267.09999990463257","resources/trios/L1T2A3.jpg","39","restless",0.4,0.2,0.7,0.274669985661283,"true"
"image-keyboard-response",328,603493,"0.0-4.105-1.105","x4eu7paltket00z",673,"89.csv","","null","resources/maskTrios/BBA3.jpg","null","",NA,NA,NA,NA,""
"image-keyboard-response",329,604696,"0.0-4.105-2.105","x4eu7paltket00z",673,"89.csv","","null","resources/images/coin2.png","null","",NA,NA,NA,NA,""
"image-keyboard-response",330,605064,"0.0-4.106-0.106","x4eu7paltket00z",673,"89.csv","","365.80000019073486","resources/trios/L1T2A3.jpg","39","restless",0.4,0.3,0.7,0.461546953918193,"true"
"image-keyboard-response",331,605467,"0.0-4.106-1.106","x4eu7paltket00z",673,"89.csv","","null","resources/maskTrios/BBA3.jpg","null","",NA,NA,NA,NA,""
"image-keyboard-response",332,606676,"0.0-4.106-2.106","x4eu7paltket00z",673,"89.csv","","null","resources/images/coin2.png","null","",NA,NA,NA,NA,""
"image-keyboard-response",333,607036,"0.0-4.107-0.107","x4eu7paltket00z",673,"89.csv","","358.30000019073486","resources/trios/L1T2A3.jpg","39","restless",0.4,0.4,0.6,0.801295574771496,"false"
"image-keyboard-response",334,607445,"0.0-4.107-1.107","x4eu7paltket00z",673,"89.csv","","null","resources/maskTrios/BBA3.jpg","null","",NA,NA,NA,NA,""
"image-keyboard-response",335,608648,"0.0-4.107-2.107","x4eu7paltket00z",673,"89.csv","","null","resources/images/fishbone.png","null","",NA,NA,NA,NA,""
"image-keyboard-response",336,622949,"0.0-4.108-0.108","x4eu7paltket00z",673,"89.csv","","14299.800000190735","resources/trios/L1T2A3.jpg","39","restless",0.5,0.4,0.6,0.191000175875333,"true"
"image-keyboard-response",337,623353,"0.0-4.108-1.108","x4eu7paltket00z",673,"89.csv","","null","resources/maskTrios/BBA3.jpg","null","",NA,NA,NA,NA,""
"image-keyboard-response",338,624557,"0.0-4.108-2.108","x4eu7paltket00z",673,"89.csv","","null","resources/images/coin2.png","null","",NA,NA,NA,NA,""
"image-keyboard-response",339,624859,"0.0-4.109-0.109","x4eu7paltket00z",673,"89.csv","","300.2000002861023","resources/trios/L1T2A3.jpg","39","restless",0.6,0.4,0.6,0.44563024267455,"true"
"image-keyboard-response",340,625268,"0.0-4.109-1.109","x4eu7paltket00z",673,"89.csv","","null","resources/maskTrios/BBA3.jpg","null","",NA,NA,NA,NA,""
"image-keyboard-response",341,626474,"0.0-4.109-2.109","x4eu7paltket00z",673,"89.csv","","null","resources/images/coin2.png","null","",NA,NA,NA,NA,""
"image-keyboard-response",342,626707,"0.0-4.110-0.110","x4eu7paltket00z",673,"89.csv","","230.59999990463257","resources/trios/L1T2A3.jpg","39","restless",0.6,0.4,0.6,0.800000338333342,"false"
"image-keyboard-response",343,627110,"0.0-4.110-1.110","x4eu7paltket00z",673,"89.csv","","null","resources/maskTrios/BBA3.jpg","null","",NA,NA,NA,NA,""
"image-keyboard-response",344,628319,"0.0-4.110-2.110","x4eu7paltket00z",673,"89.csv","","null","resources/images/fishbone.png","null","",NA,NA,NA,NA,""
"image-keyboard-response",345,628627,"0.0-4.111-0.111","x4eu7paltket00z",673,"89.csv","","306.30000019073486","resources/trios/L1T2A3.jpg","39","restless",0.6,0.4,0.5,0.652808188041768,"false"
"image-keyboard-response",346,629031,"0.0-4.111-1.111","x4eu7paltket00z",673,"89.csv","","null","resources/maskTrios/BBA3.jpg","null","",NA,NA,NA,NA,""
"image-keyboard-response",347,630235,"0.0-4.111-2.111","x4eu7paltket00z",673,"89.csv","","null","resources/images/fishbone.png","null","",NA,NA,NA,NA,""
"image-keyboard-response",348,630518,"0.0-4.112-0.112","x4eu7paltket00z",673,"89.csv","","280.30000019073486","resources/trios/L1T2A3.jpg","39","restless",0.6,0.4,0.5,0.567346518326873,"false"
"image-keyboard-response",349,630928,"0.0-4.112-1.112","x4eu7paltket00z",673,"89.csv","","null","resources/maskTrios/BBA3.jpg","null","",NA,NA,NA,NA,""
"image-keyboard-response",350,632130,"0.0-4.112-2.112","x4eu7paltket00z",673,"89.csv","","null","resources/images/fishbone.png","null","",NA,NA,NA,NA,""
"image-keyboard-response",351,632478,"0.0-4.113-0.113","x4eu7paltket00z",673,"89.csv","","346.80000019073486","resources/trios/L1T2A3.jpg","39","restless",0.6,0.4,0.5,0.719776918229642,"false"
"image-keyboard-response",352,632891,"0.0-4.113-1.113","x4eu7paltket00z",673,"89.csv","","null","resources/maskTrios/BBA3.jpg","null","",NA,NA,NA,NA,""
"image-keyboard-response",353,634097,"0.0-4.113-2.113","x4eu7paltket00z",673,"89.csv","","null","resources/images/fishbone.png","null","",NA,NA,NA,NA,""
"image-keyboard-response",354,634390,"0.0-4.114-0.114","x4eu7paltket00z",673,"89.csv","","292.30000019073486","resources/trios/L1T2A3.jpg","39","restless",0.6,0.4,0.5,0.877871293943313,"false"
"image-keyboard-response",355,634793,"0.0-4.114-1.114","x4eu7paltket00z",673,"89.csv","","null","resources/maskTrios/BBA3.jpg","null","",NA,NA,NA,NA,""
"image-keyboard-response",356,635999,"0.0-4.114-2.114","x4eu7paltket00z",673,"89.csv","","null","resources/images/fishbone.png","null","",NA,NA,NA,NA,""
"image-keyboard-response",357,636472,"0.0-4.115-0.115","x4eu7paltket00z",673,"89.csv","","470.5","resources/trios/L1T2A3.jpg","39","restless",0.6,0.5,0.5,0.553242951936562,"false"
"image-keyboard-response",358,636879,"0.0-4.115-1.115","x4eu7paltket00z",673,"89.csv","","null","resources/maskTrios/BBA3.jpg","null","",NA,NA,NA,NA,""
"image-keyboard-response",359,638082,"0.0-4.115-2.115","x4eu7paltket00z",673,"89.csv","","null","resources/images/fishbone.png","null","",NA,NA,NA,NA,""
"image-keyboard-response",360,638265,"0.0-4.116-0.116","x4eu7paltket00z",673,"89.csv","","181.10000038146973","resources/trios/L1T2A3.jpg","39","restless",0.6,0.5,0.5,0.104269758857285,"true"
"image-keyboard-response",361,638674,"0.0-4.116-1.116","x4eu7paltket00z",673,"89.csv","","null","resources/maskTrios/BBA3.jpg","null","",NA,NA,NA,NA,""
"image-keyboard-response",362,639879,"0.0-4.116-2.116","x4eu7paltket00z",673,"89.csv","","null","resources/images/coin2.png","null","",NA,NA,NA,NA,""
"image-keyboard-response",363,640089,"0.0-4.117-0.117","x4eu7paltket00z",673,"89.csv","","208.5","resources/trios/L1T2A3.jpg","39","restless",0.6,0.5,0.5,0.908648055237904,"false"
"image-keyboard-response",364,640497,"0.0-4.117-1.117","x4eu7paltket00z",673,"89.csv","","null","resources/maskTrios/BBA3.jpg","null","",NA,NA,NA,NA,""
"image-keyboard-response",365,641703,"0.0-4.117-2.117","x4eu7paltket00z",673,"89.csv","","null","resources/images/fishbone.png","null","",NA,NA,NA,NA,""
"image-keyboard-response",366,641891,"0.0-4.118-0.118","x4eu7paltket00z",673,"89.csv","","185.7999997138977","resources/trios/L1T2A3.jpg","39","restless",0.5,0.5,0.4,0.0594993845455456,"true"
"image-keyboard-response",367,642307,"0.0-4.118-1.118","x4eu7paltket00z",673,"89.csv","","null","resources/maskTrios/BBA3.jpg","null","",NA,NA,NA,NA,""
"image-keyboard-response",368,643511,"0.0-4.118-2.118","x4eu7paltket00z",673,"89.csv","","null","resources/images/coin2.png","null","",NA,NA,NA,NA,""
"image-keyboard-response",369,643611,"0.0-4.119-0.119","x4eu7paltket00z",673,"89.csv","","99.19999980926514","resources/trios/L1T2A3.jpg","39","restless",0.6,0.5,0.4,0.489877054112413,"false"
"image-keyboard-response",370,644024,"0.0-4.119-1.119","x4eu7paltket00z",673,"89.csv","","null","resources/maskTrios/BBA3.jpg","null","",NA,NA,NA,NA,""
"image-keyboard-response",371,645231,"0.0-4.119-2.119","x4eu7paltket00z",673,"89.csv","","null","resources/images/fishbone.png","null","",NA,NA,NA,NA,""
"image-keyboard-response",372,645413,"0.0-4.120-0.120","x4eu7paltket00z",673,"89.csv","","179.5","resources/trios/L1T2A3.jpg","39","restless",0.6,0.4,0.3,0.472954975247102,"false"
"image-keyboard-response",373,645830,"0.0-4.120-1.120","x4eu7paltket00z",673,"89.csv","","null","resources/maskTrios/BBA3.jpg","null","",NA,NA,NA,NA,""
"image-keyboard-response",374,647035,"0.0-4.120-2.120","x4eu7paltket00z",673,"89.csv","","null","resources/images/fishbone.png","null","",NA,NA,NA,NA,""
"image-keyboard-response",375,647261,"0.0-4.121-0.121","x4eu7paltket00z",673,"89.csv","","223.7000002861023","resources/trios/L1T2A3.jpg","39","restless",0.6,0.4,0.3,0.980583232814543,"false"
"image-keyboard-response",376,647669,"0.0-4.121-1.121","x4eu7paltket00z",673,"89.csv","","null","resources/maskTrios/BBA3.jpg","null","",NA,NA,NA,NA,""
"image-keyboard-response",377,648872,"0.0-4.121-2.121","x4eu7paltket00z",673,"89.csv","","null","resources/images/fishbone.png","null","",NA,NA,NA,NA,""
"image-keyboard-response",378,649373,"0.0-4.122-0.122","x4eu7paltket00z",673,"89.csv","","498.90000009536743","resources/trios/L1T2A3.jpg","39","restless",0.6,0.4,0.2,0.157264906174222,"true"
"image-keyboard-response",379,649784,"0.0-4.122-1.122","x4eu7paltket00z",673,"89.csv","","null","resources/maskTrios/BBA3.jpg","null","",NA,NA,NA,NA,""
"image-keyboard-response",380,650988,"0.0-4.122-2.122","x4eu7paltket00z",673,"89.csv","","null","resources/images/coin2.png","null","",NA,NA,NA,NA,""
"image-keyboard-response",381,651295,"0.0-4.123-0.123","x4eu7paltket00z",673,"89.csv","","304.3999996185303","resources/trios/L1T2A3.jpg","39","restless",0.6,0.4,0.2,0.608635962008852,"false"
"image-keyboard-response",382,651698,"0.0-4.123-1.123","x4eu7paltket00z",673,"89.csv","","null","resources/maskTrios/BBA3.jpg","null","",NA,NA,NA,NA,""
"image-keyboard-response",383,652905,"0.0-4.123-2.123","x4eu7paltket00z",673,"89.csv","","null","resources/images/fishbone.png","null","",NA,NA,NA,NA,""
"image-keyboard-response",384,653250,"0.0-4.124-0.124","x4eu7paltket00z",673,"89.csv","","343.59999990463257","resources/trios/L1T2A3.jpg","39","restless",0.6,0.4,0.2,0.947809928675557,"false"
"image-keyboard-response",385,653666,"0.0-4.124-1.124","x4eu7paltket00z",673,"89.csv","","null","resources/maskTrios/BBA3.jpg","null","",NA,NA,NA,NA,""
"image-keyboard-response",386,654881,"0.0-4.124-2.124","x4eu7paltket00z",673,"89.csv","","null","resources/images/fishbone.png","null","",NA,NA,NA,NA,""
"image-keyboard-response",387,655105,"0.0-4.125-0.125","x4eu7paltket00z",673,"89.csv","","223","resources/trios/L1T2A3.jpg","39","restless",0.6,0.4,0.2,0.0441081375912338,"true"
"image-keyboard-response",388,655512,"0.0-4.125-1.125","x4eu7paltket00z",673,"89.csv","","null","resources/maskTrios/BBA3.jpg","null","",NA,NA,NA,NA,""
"image-keyboard-response",389,656716,"0.0-4.125-2.125","x4eu7paltket00z",673,"89.csv","","null","resources/images/coin2.png","null","",NA,NA,NA,NA,""
"image-keyboard-response",390,656930,"0.0-4.126-0.126","x4eu7paltket00z",673,"89.csv","","211.2999997138977","resources/trios/L1T2A3.jpg","39","restless",0.6,0.4,0.2,0.765371699351968,"false"
"image-keyboard-response",391,657335,"0.0-4.126-1.126","x4eu7paltket00z",673,"89.csv","","null","resources/maskTrios/BBA3.jpg","null","",NA,NA,NA,NA,""
"image-keyboard-response",392,658550,"0.0-4.126-2.126","x4eu7paltket00z",673,"89.csv","","null","resources/images/fishbone.png","null","",NA,NA,NA,NA,""
"image-keyboard-response",393,658818,"0.0-4.127-0.127","x4eu7paltket00z",673,"89.csv","","266.09999990463257","resources/trios/L1T2A3.jpg","39","restless",0.6,0.4,0.2,0.798534451523229,"false"
"image-keyboard-response",394,659228,"0.0-4.127-1.127","x4eu7paltket00z",673,"89.csv","","null","resources/maskTrios/BBA3.jpg","null","",NA,NA,NA,NA,""
"image-keyboard-response",395,660432,"0.0-4.127-2.127","x4eu7paltket00z",673,"89.csv","","null","resources/images/fishbone.png","null","",NA,NA,NA,NA,""
"image-keyboard-response",396,660739,"0.0-4.128-0.128","x4eu7paltket00z",673,"89.csv","","304.59999990463257","resources/trios/L1T2A3.jpg","39","restless",0.6,0.4,0.2,0.844493471094819,"false"
"image-keyboard-response",397,661143,"0.0-4.128-1.128","x4eu7paltket00z",673,"89.csv","","null","resources/maskTrios/BBA3.jpg","null","",NA,NA,NA,NA,""
"image-keyboard-response",398,662346,"0.0-4.128-2.128","x4eu7paltket00z",673,"89.csv","","null","resources/images/fishbone.png","null","",NA,NA,NA,NA,""
"image-keyboard-response",399,662734,"0.0-4.129-0.129","x4eu7paltket00z",673,"89.csv","","385.59999990463257","resources/trios/L1T2A3.jpg","39","restless",0.6,0.4,0.2,0.897510742583328,"false"
"image-keyboard-response",400,663147,"0.0-4.129-1.129","x4eu7paltket00z",673,"89.csv","","null","resources/maskTrios/BBA3.jpg","null","",NA,NA,NA,NA,""
"image-keyboard-response",401,664349,"0.0-4.129-2.129","x4eu7paltket00z",673,"89.csv","","null","resources/images/fishbone.png","null","",NA,NA,NA,NA,""
"image-keyboard-response",402,664493,"0.0-4.130-0.130","x4eu7paltket00z",673,"89.csv","","143.5","resources/trios/L1T2A3.jpg","39","restless",0.6,0.4,0.2,0.195179813840864,"true"
"image-keyboard-response",403,664906,"0.0-4.130-1.130","x4eu7paltket00z",673,"89.csv","","null","resources/maskTrios/BBA3.jpg","null","",NA,NA,NA,NA,""
"image-keyboard-response",404,666111,"0.0-4.130-2.130","x4eu7paltket00z",673,"89.csv","","null","resources/images/coin2.png","null","",NA,NA,NA,NA,""
"image-keyboard-response",405,666422,"0.0-4.131-0.131","x4eu7paltket00z",673,"89.csv","","309.80000019073486","resources/trios/L1T2A3.jpg","39","restless",0.6,0.4,0.2,0.740311153446996,"false"
"image-keyboard-response",406,666837,"0.0-4.131-1.131","x4eu7paltket00z",673,"89.csv","","null","resources/maskTrios/BBA3.jpg","null","",NA,NA,NA,NA,""
"image-keyboard-response",407,668051,"0.0-4.131-2.131","x4eu7paltket00z",673,"89.csv","","null","resources/images/fishbone.png","null","",NA,NA,NA,NA,""
"image-keyboard-response",408,668199,"0.0-4.132-0.132","x4eu7paltket00z",673,"89.csv","","146.59999990463257","resources/trios/L1T2A3.jpg","39","restless",0.6,0.4,0.2,0.445309172769813,"false"
"image-keyboard-response",409,668608,"0.0-4.132-1.132","x4eu7paltket00z",673,"89.csv","","null","resources/maskTrios/BBA3.jpg","null","",NA,NA,NA,NA,""
"image-keyboard-response",410,669815,"0.0-4.132-2.132","x4eu7paltket00z",673,"89.csv","","null","resources/images/fishbone.png","null","",NA,NA,NA,NA,""
"image-keyboard-response",411,670152,"0.0-4.133-0.133","x4eu7paltket00z",673,"89.csv","","335.30000019073486","resources/trios/L1T2A3.jpg","39","restless",0.5,0.4,0.2,0.63874154429466,"false"
"image-keyboard-response",412,670560,"0.0-4.133-1.133","x4eu7paltket00z",673,"89.csv","","null","resources/maskTrios/BBA3.jpg","null","",NA,NA,NA,NA,""
"image-keyboard-response",413,671768,"0.0-4.133-2.133","x4eu7paltket00z",673,"89.csv","","null","resources/images/fishbone.png","null","",NA,NA,NA,NA,""
"image-keyboard-response",414,671977,"0.0-4.134-0.134","x4eu7paltket00z",673,"89.csv","","206.09999990463257","resources/trios/L1T2A3.jpg","39","restless",0.5,0.4,0.2,0.792224496650586,"false"
"image-keyboard-response",415,672385,"0.0-4.134-1.134","x4eu7paltket00z",673,"89.csv","","null","resources/maskTrios/BBA3.jpg","null","",NA,NA,NA,NA,""
"image-keyboard-response",416,673594,"0.0-4.134-2.134","x4eu7paltket00z",673,"89.csv","","null","resources/images/fishbone.png","null","",NA,NA,NA,NA,""
"image-keyboard-response",417,673865,"0.0-4.135-0.135","x4eu7paltket00z",673,"89.csv","","270.3999996185303","resources/trios/L1T2A3.jpg","39","restless",0.5,0.4,0.2,0.334263370846309,"false"
"image-keyboard-response",418,674274,"0.0-4.135-1.135","x4eu7paltket00z",673,"89.csv","","null","resources/maskTrios/BBA3.jpg","null","",NA,NA,NA,NA,""
"image-keyboard-response",419,675487,"0.0-4.135-2.135","x4eu7paltket00z",673,"89.csv","","null","resources/images/fishbone.png","null","",NA,NA,NA,NA,""
"image-keyboard-response",420,675691,"0.0-4.136-0.136","x4eu7paltket00z",673,"89.csv","","202.39999961853027","resources/trios/L1T2A3.jpg","39","restless",0.5,0.4,0.2,0.0370074868945089,"true"
"image-keyboard-response",421,676105,"0.0-4.136-1.136","x4eu7paltket00z",673,"89.csv","","null","resources/maskTrios/BBA3.jpg","null","",NA,NA,NA,NA,""
"image-keyboard-response",422,677308,"0.0-4.136-2.136","x4eu7paltket00z",673,"89.csv","","null","resources/images/coin2.png","null","",NA,NA,NA,NA,""
"image-keyboard-response",423,677548,"0.0-4.137-0.137","x4eu7paltket00z",673,"89.csv","","238.80000019073486","resources/trios/L1T2A3.jpg","39","restless",0.5,0.4,0.2,0.759915696037637,"false"
"image-keyboard-response",424,677961,"0.0-4.137-1.137","x4eu7paltket00z",673,"89.csv","","null","resources/maskTrios/BBA3.jpg","null","",NA,NA,NA,NA,""
"image-keyboard-response",425,679166,"0.0-4.137-2.137","x4eu7paltket00z",673,"89.csv","","null","resources/images/fishbone.png","null","",NA,NA,NA,NA,""
"image-keyboard-response",426,679276,"0.0-4.138-0.138","x4eu7paltket00z",673,"89.csv","","108.59999990463257","resources/trios/L1T2A3.jpg","39","restless",0.5,0.4,0.2,0.948272349157938,"false"
"image-keyboard-response",427,679689,"0.0-4.138-1.138","x4eu7paltket00z",673,"89.csv","","null","resources/maskTrios/BBA3.jpg","null","",NA,NA,NA,NA,""
"image-keyboard-response",428,680896,"0.0-4.138-2.138","x4eu7paltket00z",673,"89.csv","","null","resources/images/fishbone.png","null","",NA,NA,NA,NA,""
"image-keyboard-response",429,681421,"0.0-4.139-0.139","x4eu7paltket00z",673,"89.csv","","524.2000002861023","resources/trios/L1T2A3.jpg","39","restless",0.4,0.4,0.2,0.528303307929971,"false"
"image-keyboard-response",430,681827,"0.0-4.139-1.139","x4eu7paltket00z",673,"89.csv","","null","resources/maskTrios/BBA3.jpg","null","",NA,NA,NA,NA,""
"image-keyboard-response",431,683032,"0.0-4.139-2.139","x4eu7paltket00z",673,"89.csv","","null","resources/images/fishbone.png","null","",NA,NA,NA,NA,""
"image-keyboard-response",432,683286,"0.0-4.140-0.140","x4eu7paltket00z",673,"89.csv","","251.7000002861023","resources/trios/L1T2A3.jpg","39","restless",0.4,0.4,0.2,0.0632280564624514,"true"
"image-keyboard-response",433,683697,"0.0-4.140-1.140","x4eu7paltket00z",673,"89.csv","","null","resources/maskTrios/BBA3.jpg","null","",NA,NA,NA,NA,""
"image-keyboard-response",434,684905,"0.0-4.140-2.140","x4eu7paltket00z",673,"89.csv","","null","resources/images/coin2.png","null","",NA,NA,NA,NA,""
"image-keyboard-response",435,685103,"0.0-4.141-0.141","x4eu7paltket00z",673,"89.csv","","195.59999990463257","resources/trios/L1T2A3.jpg","39","restless",0.4,0.4,0.2,0.0265765013280048,"true"
"image-keyboard-response",436,685511,"0.0-4.141-1.141","x4eu7paltket00z",673,"89.csv","","null","resources/maskTrios/BBA3.jpg","null","",NA,NA,NA,NA,""
"image-keyboard-response",437,686715,"0.0-4.141-2.141","x4eu7paltket00z",673,"89.csv","","null","resources/images/coin2.png","null","",NA,NA,NA,NA,""
"image-keyboard-response",438,686992,"0.0-4.142-0.142","x4eu7paltket00z",673,"89.csv","","274.7000002861023","resources/trios/L1T2A3.jpg","39","restless",0.5,0.4,0.2,0.459165244263125,"false"
"image-keyboard-response",439,687409,"0.0-4.142-1.142","x4eu7paltket00z",673,"89.csv","","null","resources/maskTrios/BBA3.jpg","null","",NA,NA,NA,NA,""
"image-keyboard-response",440,688619,"0.0-4.142-2.142","x4eu7paltket00z",673,"89.csv","","null","resources/images/fishbone.png","null","",NA,NA,NA,NA,""
"image-keyboard-response",441,688889,"0.0-4.143-0.143","x4eu7paltket00z",673,"89.csv","","267.5","resources/trios/L1T2A3.jpg","39","restless",0.4,0.4,0.2,0.997334511972486,"false"
"image-keyboard-response",442,689301,"0.0-4.143-1.143","x4eu7paltket00z",673,"89.csv","","null","resources/maskTrios/BBA3.jpg","null","",NA,NA,NA,NA,""
"image-keyboard-response",443,690506,"0.0-4.143-2.143","x4eu7paltket00z",673,"89.csv","","null","resources/images/fishbone.png","null","",NA,NA,NA,NA,""
"image-keyboard-response",444,690706,"0.0-4.144-0.144","x4eu7paltket00z",673,"89.csv","","197.90000009536743","resources/trios/L1T2A3.jpg","39","restless",0.5,0.3,0.2,0.582674463102764,"false"
"image-keyboard-response",445,691110,"0.0-4.144-1.144","x4eu7paltket00z",673,"89.csv","","null","resources/maskTrios/BBA3.jpg","null","",NA,NA,NA,NA,""
"image-keyboard-response",446,692319,"0.0-4.144-2.144","x4eu7paltket00z",673,"89.csv","","null","resources/images/fishbone.png","null","",NA,NA,NA,NA,""
"image-keyboard-response",447,692627,"0.0-4.145-0.145","x4eu7paltket00z",673,"89.csv","","305.7999997138977","resources/trios/L1T2A3.jpg","39","restless",0.5,0.3,0.2,0.804835107339929,"false"
"image-keyboard-response",448,693029,"0.0-4.145-1.145","x4eu7paltket00z",673,"89.csv","","null","resources/maskTrios/BBA3.jpg","null","",NA,NA,NA,NA,""
"image-keyboard-response",449,694234,"0.0-4.145-2.145","x4eu7paltket00z",673,"89.csv","","null","resources/images/fishbone.png","null","",NA,NA,NA,NA,""
"image-keyboard-response",450,694900,"0.0-4.146-0.146","x4eu7paltket00z",673,"89.csv","","664.5999999046326","resources/trios/L1T2A3.jpg","39","restless",0.5,0.3,0.2,0.152757886577167,"true"
"image-keyboard-response",451,695313,"0.0-4.146-1.146","x4eu7paltket00z",673,"89.csv","","null","resources/maskTrios/BBA3.jpg","null","",NA,NA,NA,NA,""
"image-keyboard-response",452,696526,"0.0-4.146-2.146","x4eu7paltket00z",673,"89.csv","","null","resources/images/coin2.png","null","",NA,NA,NA,NA,""
"image-keyboard-response",453,696586,"0.0-4.147-0.147","x4eu7paltket00z",673,"89.csv","","59.799999713897705","resources/trios/L1T2A3.jpg","39","restless",0.5,0.3,0.2,0.775440310886742,"false"
"image-keyboard-response",454,696990,"0.0-4.147-1.147","x4eu7paltket00z",673,"89.csv","","null","resources/maskTrios/BBA3.jpg","null","",NA,NA,NA,NA,""
"image-keyboard-response",455,698196,"0.0-4.147-2.147","x4eu7paltket00z",673,"89.csv","","null","resources/images/fishbone.png","null","",NA,NA,NA,NA,""
"image-keyboard-response",456,699030,"0.0-4.148-0.148","x4eu7paltket00z",673,"89.csv","","831.5999999046326","resources/trios/L1T2A3.jpg","39","restless",0.5,0.3,0.2,0.584804138515342,"false"
"image-keyboard-response",457,699445,"0.0-4.148-1.148","x4eu7paltket00z",673,"89.csv","","null","resources/maskTrios/BBA3.jpg","null","",NA,NA,NA,NA,""
"image-keyboard-response",458,700647,"0.0-4.148-2.148","x4eu7paltket00z",673,"89.csv","","null","resources/images/fishbone.png","null","",NA,NA,NA,NA,""
"image-keyboard-response",459,700886,"0.0-4.149-0.149","x4eu7paltket00z",673,"89.csv","","236.90000009536743","resources/trios/L1T2A3.jpg","39","restless",0.5,0.3,0.3,0.785528902382308,"false"
"image-keyboard-response",460,701292,"0.0-4.149-1.149","x4eu7paltket00z",673,"89.csv","","null","resources/maskTrios/BBA3.jpg","null","",NA,NA,NA,NA,""
"image-keyboard-response",461,702504,"0.0-4.149-2.149","x4eu7paltket00z",673,"89.csv","","null","resources/images/fishbone.png","null","",NA,NA,NA,NA,""
"image-keyboard-response",462,702839,"0.0-4.150-0.150","x4eu7paltket00z",673,"89.csv","","333.2999997138977","resources/trios/L1T2A3.jpg","39","restless",0.5,0.3,0.3,0.422737979370945,"false"
"image-keyboard-response",463,703245,"0.0-4.150-1.150","x4eu7paltket00z",673,"89.csv","","null","resources/maskTrios/BBA3.jpg","null","",NA,NA,NA,NA,""
"image-keyboard-response",464,704460,"0.0-4.150-2.150","x4eu7paltket00z",673,"89.csv","","null","resources/images/fishbone.png","null","",NA,NA,NA,NA,""
"image-keyboard-response",465,704634,"0.0-4.151-0.151","x4eu7paltket00z",673,"89.csv","","171.90000009536743","resources/trios/L1T2A3.jpg","39","restless",0.5,0.3,0.3,0.357859462216919,"false"
"image-keyboard-response",466,705048,"0.0-4.151-1.151","x4eu7paltket00z",673,"89.csv","","null","resources/maskTrios/BBA3.jpg","null","",NA,NA,NA,NA,""
"image-keyboard-response",467,706265,"0.0-4.151-2.151","x4eu7paltket00z",673,"89.csv","","null","resources/images/fishbone.png","null","",NA,NA,NA,NA,""
"image-keyboard-response",468,706553,"0.0-4.152-0.152","x4eu7paltket00z",673,"89.csv","","285.69999980926514","resources/trios/L1T2A3.jpg","39","restless",0.5,0.3,0.3,0.418532762067673,"false"
"image-keyboard-response",469,706961,"0.0-4.152-1.152","x4eu7paltket00z",673,"89.csv","","null","resources/maskTrios/BBA3.jpg","null","",NA,NA,NA,NA,""
"image-keyboard-response",470,708166,"0.0-4.152-2.152","x4eu7paltket00z",673,"89.csv","","null","resources/images/fishbone.png","null","",NA,NA,NA,NA,""
"image-keyboard-response",471,708579,"0.0-4.153-0.153","x4eu7paltket00z",673,"89.csv","","410.90000009536743","resources/trios/L1T2A3.jpg","39","restless",0.6,0.3,0.3,0.328468688801264,"false"
"image-keyboard-response",472,708985,"0.0-4.153-1.153","x4eu7paltket00z",673,"89.csv","","null","resources/maskTrios/BBA3.jpg","null","",NA,NA,NA,NA,""
"image-keyboard-response",473,710201,"0.0-4.153-2.153","x4eu7paltket00z",673,"89.csv","","null","resources/images/fishbone.png","null","",NA,NA,NA,NA,""
"image-keyboard-response",474,710628,"0.0-4.154-0.154","x4eu7paltket00z",673,"89.csv","","424","resources/trios/L1T2A3.jpg","39","restless",0.6,0.3,0.3,0.224698218187089,"true"
"image-keyboard-response",475,711033,"0.0-4.154-1.154","x4eu7paltket00z",673,"89.csv","","null","resources/maskTrios/BBA3.jpg","null","",NA,NA,NA,NA,""
"image-keyboard-response",476,712249,"0.0-4.154-2.154","x4eu7paltket00z",673,"89.csv","","null","resources/images/coin2.png","null","",NA,NA,NA,NA,""
"image-keyboard-response",477,712413,"0.0-4.155-0.155","x4eu7paltket00z",673,"89.csv","","162.2000002861023","resources/trios/L1T2A3.jpg","39","restless",0.5,0.3,0.3,0.0457805915048426,"true"
"image-keyboard-response",478,712824,"0.0-4.155-1.155","x4eu7paltket00z",673,"89.csv","","null","resources/maskTrios/BBA3.jpg","null","",NA,NA,NA,NA,""
"image-keyboard-response",479,714027,"0.0-4.155-2.155","x4eu7paltket00z",673,"89.csv","","null","resources/images/coin2.png","null","",NA,NA,NA,NA,""
"image-keyboard-response",480,714269,"0.0-4.156-0.156","x4eu7paltket00z",673,"89.csv","","239.90000009536743","resources/trios/L1T2A3.jpg","39","restless",0.5,0.3,0.3,0.415251521287973,"false"
"image-keyboard-response",481,714676,"0.0-4.156-1.156","x4eu7paltket00z",673,"89.csv","","null","resources/maskTrios/BBA3.jpg","null","",NA,NA,NA,NA,""
"image-keyboard-response",482,715885,"0.0-4.156-2.156","x4eu7paltket00z",673,"89.csv","","null","resources/images/fishbone.png","null","",NA,NA,NA,NA,""
"image-keyboard-response",483,716158,"0.0-4.157-0.157","x4eu7paltket00z",673,"89.csv","","270.19999980926514","resources/trios/L1T2A3.jpg","39","restless",0.5,0.2,0.3,0.377568625440978,"false"
"image-keyboard-response",484,716567,"0.0-4.157-1.157","x4eu7paltket00z",673,"89.csv","","null","resources/maskTrios/BBA3.jpg","null","",NA,NA,NA,NA,""
"image-keyboard-response",485,717780,"0.0-4.157-2.157","x4eu7paltket00z",673,"89.csv","","null","resources/images/fishbone.png","null","",NA,NA,NA,NA,""
"image-keyboard-response",486,717984,"0.0-4.158-0.158","x4eu7paltket00z",673,"89.csv","","202.30000019073486","resources/trios/L1T2A3.jpg","39","restless",0.6,0.2,0.3,0.535307176736366,"false"
"image-keyboard-response",487,718393,"0.0-4.158-1.158","x4eu7paltket00z",673,"89.csv","","null","resources/maskTrios/BBA3.jpg","null","",NA,NA,NA,NA,""
"image-keyboard-response",488,719597,"0.0-4.158-2.158","x4eu7paltket00z",673,"89.csv","","null","resources/images/fishbone.png","null","",NA,NA,NA,NA,""
"image-keyboard-response",489,719809,"0.0-4.159-0.159","x4eu7paltket00z",673,"89.csv","","210.80000019073486","resources/trios/L1T2A3.jpg","39","restless",0.6,0.2,0.3,0.0476574870179629,"true"
"image-keyboard-response",490,720211,"0.0-4.159-1.159","x4eu7paltket00z",673,"89.csv","","null","resources/maskTrios/BBA3.jpg","null","",NA,NA,NA,NA,""
"image-keyboard-response",491,721416,"0.0-4.159-2.159","x4eu7paltket00z",673,"89.csv","","null","resources/images/coin2.png","null","",NA,NA,NA,NA,""
"image-keyboard-response",492,721730,"0.0-4.160-0.160","x4eu7paltket00z",673,"89.csv","","311.5","resources/trios/L1T2A3.jpg","39","restless",0.6,0.2,0.3,0.573651543784121,"false"
"image-keyboard-response",493,722144,"0.0-4.160-1.160","x4eu7paltket00z",673,"89.csv","","null","resources/maskTrios/BBA3.jpg","null","",NA,NA,NA,NA,""
"image-keyboard-response",494,723350,"0.0-4.160-2.160","x4eu7paltket00z",673,"89.csv","","null","resources/images/fishbone.png","null","",NA,NA,NA,NA,""
"image-keyboard-response",495,723524,"0.0-4.161-0.161","x4eu7paltket00z",673,"89.csv","","172.09999990463257","resources/trios/L1T2A3.jpg","39","restless",0.6,0.2,0.3,0.553589540319706,"false"
"image-keyboard-response",496,723936,"0.0-4.161-1.161","x4eu7paltket00z",673,"89.csv","","null","resources/maskTrios/BBA3.jpg","null","",NA,NA,NA,NA,""
"image-keyboard-response",497,725139,"0.0-4.161-2.161","x4eu7paltket00z",673,"89.csv","","null","resources/images/fishbone.png","null","",NA,NA,NA,NA,""
"image-keyboard-response",498,725539,"0.0-4.162-0.162","x4eu7paltket00z",673,"89.csv","","398","resources/trios/L1T2A3.jpg","39","restless",0.6,0.2,0.3,0.726202799781825,"false"
"image-keyboard-response",499,725943,"0.0-4.162-1.162","x4eu7paltket00z",673,"89.csv","","null","resources/maskTrios/BBA3.jpg","null","",NA,NA,NA,NA,""
"image-keyboard-response",500,727147,"0.0-4.162-2.162","x4eu7paltket00z",673,"89.csv","","null","resources/images/fishbone.png","null","",NA,NA,NA,NA,""
"image-keyboard-response",501,727253,"0.0-4.163-0.163","x4eu7paltket00z",673,"89.csv","","103.5","resources/trios/L1T2A3.jpg","39","restless",0.6,0.2,0.3,0.660599928335447,"false"
"image-keyboard-response",502,727660,"0.0-4.163-1.163","x4eu7paltket00z",673,"89.csv","","null","resources/maskTrios/BBA3.jpg","null","",NA,NA,NA,NA,""
"image-keyboard-response",503,728869,"0.0-4.163-2.163","x4eu7paltket00z",673,"89.csv","","null","resources/images/fishbone.png","null","",NA,NA,NA,NA,""
"image-keyboard-response",504,729189,"0.0-4.164-0.164","x4eu7paltket00z",673,"89.csv","","318","resources/trios/L1T2A3.jpg","39","restless",0.6,0.2,0.3,0.554641535249448,"false"
"image-keyboard-response",505,729597,"0.0-4.164-1.164","x4eu7paltket00z",673,"89.csv","","null","resources/maskTrios/BBA3.jpg","null","",NA,NA,NA,NA,""
"image-keyboard-response",506,730799,"0.0-4.164-2.164","x4eu7paltket00z",673,"89.csv","","null","resources/images/fishbone.png","null","",NA,NA,NA,NA,""
"image-keyboard-response",507,730853,"0.0-4.165-0.165","x4eu7paltket00z",673,"89.csv","","51.90000009536743","resources/trios/L1T2A3.jpg","39","restless",0.6,0.2,0.3,0.716297181243245,"false"
"image-keyboard-response",508,731263,"0.0-4.165-1.165","x4eu7paltket00z",673,"89.csv","","null","resources/maskTrios/BBA3.jpg","null","",NA,NA,NA,NA,""
"image-keyboard-response",509,732469,"0.0-4.165-2.165","x4eu7paltket00z",673,"89.csv","","null","resources/images/fishbone.png","null","",NA,NA,NA,NA,""
"image-keyboard-response",510,732743,"0.0-4.166-0.166","x4eu7paltket00z",673,"89.csv","","271.59999990463257","resources/trios/L1T2A3.jpg","39","restless",0.6,0.2,0.3,0.520929136648892,"false"
"image-keyboard-response",511,733147,"0.0-4.166-1.166","x4eu7paltket00z",673,"89.csv","","null","resources/maskTrios/BBA3.jpg","null","",NA,NA,NA,NA,""
"image-keyboard-response",512,734353,"0.0-4.166-2.166","x4eu7paltket00z",673,"89.csv","","null","resources/images/fishbone.png","null","",NA,NA,NA,NA,""
"image-keyboard-response",513,734634,"0.0-4.167-0.167","x4eu7paltket00z",673,"89.csv","","278.8999996185303","resources/trios/L1T2A3.jpg","39","restless",0.6,0.3,0.3,0.167641732218499,"true"
"image-keyboard-response",514,735049,"0.0-4.167-1.167","x4eu7paltket00z",673,"89.csv","","null","resources/maskTrios/BBA3.jpg","null","",NA,NA,NA,NA,""
"image-keyboard-response",515,736253,"0.0-4.167-2.167","x4eu7paltket00z",673,"89.csv","","null","resources/images/coin2.png","null","",NA,NA,NA,NA,""
"image-keyboard-response",516,736457,"0.0-4.168-0.168","x4eu7paltket00z",673,"89.csv","","202.7999997138977","resources/trios/L1T2A3.jpg","39","restless",0.6,0.4,0.3,0.858169308473077,"false"
"image-keyboard-response",517,736871,"0.0-4.168-1.168","x4eu7paltket00z",673,"89.csv","","null","resources/maskTrios/BBA3.jpg","null","",NA,NA,NA,NA,""
"image-keyboard-response",518,738074,"0.0-4.168-2.168","x4eu7paltket00z",673,"89.csv","","null","resources/images/fishbone.png","null","",NA,NA,NA,NA,""
"image-keyboard-response",519,738266,"0.0-4.169-0.169","x4eu7paltket00z",673,"89.csv","","190.09999990463257","resources/trios/L1T2A3.jpg","39","restless",0.7,0.4,0.3,0.676371472070969,"false"
"image-keyboard-response",520,738680,"0.0-4.169-1.169","x4eu7paltket00z",673,"89.csv","","null","resources/maskTrios/BBA3.jpg","null","",NA,NA,NA,NA,""
"image-keyboard-response",521,739886,"0.0-4.169-2.169","x4eu7paltket00z",673,"89.csv","","null","resources/images/fishbone.png","null","",NA,NA,NA,NA,""
"image-keyboard-response",522,740107,"0.0-4.170-0.170","x4eu7paltket00z",673,"89.csv","","219.19999980926514","resources/trios/L1T2A3.jpg","39","restless",0.7,0.4,0.4,0.758395097812196,"false"
"image-keyboard-response",523,740516,"0.0-4.170-1.170","x4eu7paltket00z",673,"89.csv","","null","resources/maskTrios/BBA3.jpg","null","",NA,NA,NA,NA,""
"image-keyboard-response",524,741734,"0.0-4.170-2.170","x4eu7paltket00z",673,"89.csv","","null","resources/images/fishbone.png","null","",NA,NA,NA,NA,""
"image-keyboard-response",525,742028,"0.0-4.171-0.171","x4eu7paltket00z",673,"89.csv","","291.40000009536743","resources/trios/L1T2A3.jpg","39","restless",0.7,0.4,0.4,0.930997667171507,"false"
"image-keyboard-response",526,742446,"0.0-4.171-1.171","x4eu7paltket00z",673,"89.csv","","null","resources/maskTrios/BBA3.jpg","null","",NA,NA,NA,NA,""
"image-keyboard-response",527,743648,"0.0-4.171-2.171","x4eu7paltket00z",673,"89.csv","","null","resources/images/fishbone.png","null","",NA,NA,NA,NA,""
"image-keyboard-response",528,743933,"0.0-4.172-0.172","x4eu7paltket00z",673,"89.csv","","282.59999990463257","resources/trios/L1T2A3.jpg","39","restless",0.7,0.4,0.4,0.0854417991286287,"true"
"image-keyboard-response",529,744342,"0.0-4.172-1.172","x4eu7paltket00z",673,"89.csv","","null","resources/maskTrios/BBA3.jpg","null","",NA,NA,NA,NA,""
"image-keyboard-response",530,745548,"0.0-4.172-2.172","x4eu7paltket00z",673,"89.csv","","null","resources/images/coin2.png","null","",NA,NA,NA,NA,""
"image-keyboard-response",531,745805,"0.0-4.173-0.173","x4eu7paltket00z",673,"89.csv","","255.5","resources/trios/L1T2A3.jpg","39","restless",0.7,0.4,0.4,0.447807555214606,"false"
"image-keyboard-response",532,746210,"0.0-4.173-1.173","x4eu7paltket00z",673,"89.csv","","null","resources/maskTrios/BBA3.jpg","null","",NA,NA,NA,NA,""
"image-keyboard-response",533,747415,"0.0-4.173-2.173","x4eu7paltket00z",673,"89.csv","","null","resources/images/fishbone.png","null","",NA,NA,NA,NA,""
"image-keyboard-response",534,747672,"0.0-4.174-0.174","x4eu7paltket00z",673,"89.csv","","254.40000009536743","resources/trios/L1T2A3.jpg","39","restless",0.7,0.4,0.4,0.0137711631965571,"true"
"image-keyboard-response",535,748083,"0.0-4.174-1.174","x4eu7paltket00z",673,"89.csv","","null","resources/maskTrios/BBA3.jpg","null","",NA,NA,NA,NA,""
"image-keyboard-response",536,749290,"0.0-4.174-2.174","x4eu7paltket00z",673,"89.csv","","null","resources/images/coin2.png","null","",NA,NA,NA,NA,""
"image-keyboard-response",537,749615,"0.0-4.175-0.175","x4eu7paltket00z",673,"89.csv","","323.2000002861023","resources/trios/L1T2A3.jpg","39","restless",0.7,0.4,0.4,0.862944938889069,"false"
"image-keyboard-response",538,750021,"0.0-4.175-1.175","x4eu7paltket00z",673,"89.csv","","null","resources/maskTrios/BBA3.jpg","null","",NA,NA,NA,NA,""
"image-keyboard-response",539,751229,"0.0-4.175-2.175","x4eu7paltket00z",673,"89.csv","","null","resources/images/fishbone.png","null","",NA,NA,NA,NA,""
"image-keyboard-response",540,751439,"0.0-4.176-0.176","x4eu7paltket00z",673,"89.csv","","209","resources/trios/L1T2A3.jpg","39","restless",0.8,0.4,0.4,0.960196148474021,"false"
"image-keyboard-response",541,751845,"0.0-4.176-1.176","x4eu7paltket00z",673,"89.csv","","null","resources/maskTrios/BBA3.jpg","null","",NA,NA,NA,NA,""
"image-keyboard-response",542,753052,"0.0-4.176-2.176","x4eu7paltket00z",673,"89.csv","","null","resources/images/fishbone.png","null","",NA,NA,NA,NA,""
"image-keyboard-response",543,753530,"0.0-4.177-0.177","x4eu7paltket00z",673,"89.csv","","475.69999980926514","resources/trios/L1T2A3.jpg","39","restless",0.9,0.4,0.4,0.71463083306128,"false"
"image-keyboard-response",544,753935,"0.0-4.177-1.177","x4eu7paltket00z",673,"89.csv","","null","resources/maskTrios/BBA3.jpg","null","",NA,NA,NA,NA,""
"image-keyboard-response",545,755141,"0.0-4.177-2.177","x4eu7paltket00z",673,"89.csv","","null","resources/images/fishbone.png","null","",NA,NA,NA,NA,""
"image-keyboard-response",546,755441,"0.0-4.178-0.178","x4eu7paltket00z",673,"89.csv","","298.59999990463257","resources/trios/L1T2A3.jpg","39","restless",0.8,0.4,0.4,0.100148847628276,"true"
"image-keyboard-response",547,755853,"0.0-4.178-1.178","x4eu7paltket00z",673,"89.csv","","null","resources/maskTrios/BBA3.jpg","null","",NA,NA,NA,NA,""
"image-keyboard-response",548,757067,"0.0-4.178-2.178","x4eu7paltket00z",673,"89.csv","","null","resources/images/coin2.png","null","",NA,NA,NA,NA,""
"image-keyboard-response",549,757364,"0.0-4.179-0.179","x4eu7paltket00z",673,"89.csv","","295.30000019073486","resources/trios/L1T2A3.jpg","39","restless",0.7,0.4,0.4,0.13338771928806,"true"
"image-keyboard-response",550,757778,"0.0-4.179-1.179","x4eu7paltket00z",673,"89.csv","","null","resources/maskTrios/BBA3.jpg","null","",NA,NA,NA,NA,""
"image-keyboard-response",551,758981,"0.0-4.179-2.179","x4eu7paltket00z",673,"89.csv","","null","resources/images/coin2.png","null","",NA,NA,NA,NA,""
"image-keyboard-response",552,759347,"0.0-4.180-0.180","x4eu7paltket00z",673,"89.csv","","364.80000019073486","resources/trios/L1T2A3.jpg","39","restless",0.7,0.4,0.3,0.415941571035009,"false"
"image-keyboard-response",553,759751,"0.0-4.180-1.180","x4eu7paltket00z",673,"89.csv","","null","resources/maskTrios/BBA3.jpg","null","",NA,NA,NA,NA,""
"image-keyboard-response",554,760956,"0.0-4.180-2.180","x4eu7paltket00z",673,"89.csv","","null","resources/images/fishbone.png","null","",NA,NA,NA,NA,""
"image-keyboard-response",555,761141,"0.0-4.181-0.181","x4eu7paltket00z",673,"89.csv","","182.90000009536743","resources/trios/L1T2A3.jpg","39","restless",0.7,0.4,0.3,0.182663108230787,"true"
"image-keyboard-response",556,761547,"0.0-4.181-1.181","x4eu7paltket00z",673,"89.csv","","null","resources/maskTrios/BBA3.jpg","null","",NA,NA,NA,NA,""
"image-keyboard-response",557,762753,"0.0-4.181-2.181","x4eu7paltket00z",673,"89.csv","","null","resources/images/coin2.png","null","",NA,NA,NA,NA,""
"image-keyboard-response",558,763061,"0.0-4.182-0.182","x4eu7paltket00z",673,"89.csv","","306","resources/trios/L1T2A3.jpg","39","restless",0.7,0.5,0.3,0.322065186105968,"false"
"image-keyboard-response",559,763467,"0.0-4.182-1.182","x4eu7paltket00z",673,"89.csv","","null","resources/maskTrios/BBA3.jpg","null","",NA,NA,NA,NA,""
"image-keyboard-response",560,764675,"0.0-4.182-2.182","x4eu7paltket00z",673,"89.csv","","null","resources/images/fishbone.png","null","",NA,NA,NA,NA,""
"image-keyboard-response",561,764990,"0.0-4.183-0.183","x4eu7paltket00z",673,"89.csv","","312.09999990463257","resources/trios/L1T2A3.jpg","39","restless",0.7,0.5,0.3,0.04581759218236,"true"
"image-keyboard-response",562,765404,"0.0-4.183-1.183","x4eu7paltket00z",673,"89.csv","","null","resources/maskTrios/BBA3.jpg","null","",NA,NA,NA,NA,""
"image-keyboard-response",563,766612,"0.0-4.183-2.183","x4eu7paltket00z",673,"89.csv","","null","resources/images/coin2.png","null","",NA,NA,NA,NA,""
"image-keyboard-response",564,767127,"0.0-4.184-0.184","x4eu7paltket00z",673,"89.csv","","514.1999998092651","resources/trios/L1T2A3.jpg","39","restless",0.7,0.5,0.4,0.879757369055894,"false"
"image-keyboard-response",565,767531,"0.0-4.184-1.184","x4eu7paltket00z",673,"89.csv","","null","resources/maskTrios/BBA3.jpg","null","",NA,NA,NA,NA,""
"image-keyboard-response",566,768734,"0.0-4.184-2.184","x4eu7paltket00z",673,"89.csv","","null","resources/images/fishbone.png","null","",NA,NA,NA,NA,""
"image-keyboard-response",567,769120,"0.0-4.185-0.185","x4eu7paltket00z",673,"89.csv","","384.6000003814697","resources/trios/L1T2A3.jpg","39","restless",0.7,0.5,0.4,0.107061441772371,"true"
"image-keyboard-response",568,769537,"0.0-4.185-1.185","x4eu7paltket00z",673,"89.csv","","null","resources/maskTrios/BBA3.jpg","null","",NA,NA,NA,NA,""
"image-keyboard-response",569,770741,"0.0-4.185-2.185","x4eu7paltket00z",673,"89.csv","","null","resources/images/coin2.png","null","",NA,NA,NA,NA,""
"image-keyboard-response",570,770885,"0.0-4.186-0.186","x4eu7paltket00z",673,"89.csv","","141.19999980926514","resources/trios/L1T2A3.jpg","39","restless",0.7,0.5,0.4,0.697049846277173,"false"
"image-keyboard-response",571,771296,"0.0-4.186-1.186","x4eu7paltket00z",673,"89.csv","","null","resources/maskTrios/BBA3.jpg","null","",NA,NA,NA,NA,""
"image-keyboard-response",572,772503,"0.0-4.186-2.186","x4eu7paltket00z",673,"89.csv","","null","resources/images/fishbone.png","null","",NA,NA,NA,NA,""
"image-keyboard-response",573,772890,"0.0-4.187-0.187","x4eu7paltket00z",673,"89.csv","","385.1000003814697","resources/trios/L1T2A3.jpg","39","restless",0.7,0.5,0.4,0.571443565078786,"false"
"image-keyboard-response",574,773301,"0.0-4.187-1.187","x4eu7paltket00z",673,"89.csv","","null","resources/maskTrios/BBA3.jpg","null","",NA,NA,NA,NA,""
"image-keyboard-response",575,774515,"0.0-4.187-2.187","x4eu7paltket00z",673,"89.csv","","null","resources/images/fishbone.png","null","",NA,NA,NA,NA,""
"image-keyboard-response",576,774718,"0.0-4.188-0.188","x4eu7paltket00z",673,"89.csv","","201.09999990463257","resources/trios/L1T2A3.jpg","39","restless",0.7,0.5,0.4,0.467278474249455,"false"
"image-keyboard-response",577,775128,"0.0-4.188-1.188","x4eu7paltket00z",673,"89.csv","","null","resources/maskTrios/BBA3.jpg","null","",NA,NA,NA,NA,""
"image-keyboard-response",578,776336,"0.0-4.188-2.188","x4eu7paltket00z",673,"89.csv","","null","resources/images/fishbone.png","null","",NA,NA,NA,NA,""
"image-keyboard-response",579,776573,"0.0-4.189-0.189","x4eu7paltket00z",673,"89.csv","","234.7999997138977","resources/trios/L1T2A3.jpg","39","restless",0.7,0.5,0.4,0.0822132504211632,"true"
"image-keyboard-response",580,776987,"0.0-4.189-1.189","x4eu7paltket00z",673,"89.csv","","null","resources/maskTrios/BBA3.jpg","null","",NA,NA,NA,NA,""
"image-keyboard-response",581,778193,"0.0-4.189-2.189","x4eu7paltket00z",673,"89.csv","","null","resources/images/coin2.png","null","",NA,NA,NA,NA,""
"image-keyboard-response",582,778686,"0.0-4.190-0.190","x4eu7paltket00z",673,"89.csv","","490.90000009536743","resources/trios/L1T2A3.jpg","39","restless",0.7,0.5,0.4,0.77898791632122,"false"
"image-keyboard-response",583,779100,"0.0-4.190-1.190","x4eu7paltket00z",673,"89.csv","","null","resources/maskTrios/BBA3.jpg","null","",NA,NA,NA,NA,""
"image-keyboard-response",584,780307,"0.0-4.190-2.190","x4eu7paltket00z",673,"89.csv","","null","resources/images/fishbone.png","null","",NA,NA,NA,NA,""
"image-keyboard-response",585,780871,"0.0-4.191-0.191","x4eu7paltket00z",673,"89.csv","","562","resources/trios/L1T2A3.jpg","39","restless",0.7,0.5,0.4,0.416075019747428,"false"
"image-keyboard-response",586,781287,"0.0-4.191-1.191","x4eu7paltket00z",673,"89.csv","","null","resources/maskTrios/BBA3.jpg","null","",NA,NA,NA,NA,""
"image-keyboard-response",587,782494,"0.0-4.191-2.191","x4eu7paltket00z",673,"89.csv","","null","resources/images/fishbone.png","null","",NA,NA,NA,NA,""
"image-keyboard-response",588,783072,"0.0-4.192-0.192","x4eu7paltket00z",673,"89.csv","","575.2999997138977","resources/trios/L1T2A3.jpg","39","restless",0.7,0.6,0.5,0.899424758895823,"false"
"image-keyboard-response",589,783482,"0.0-4.192-1.192","x4eu7paltket00z",673,"89.csv","","null","resources/maskTrios/BBA3.jpg","null","",NA,NA,NA,NA,""
"image-keyboard-response",590,784684,"0.0-4.192-2.192","x4eu7paltket00z",673,"89.csv","","null","resources/images/fishbone.png","null","",NA,NA,NA,NA,""
"image-keyboard-response",591,784928,"0.0-4.193-0.193","x4eu7paltket00z",673,"89.csv","","241.60000038146973","resources/trios/L1T2A3.jpg","39","restless",0.7,0.6,0.5,0.379907987123675,"true"
"image-keyboard-response",592,785335,"0.0-4.193-1.193","x4eu7paltket00z",673,"89.csv","","null","resources/maskTrios/BBA3.jpg","null","",NA,NA,NA,NA,""
"image-keyboard-response",593,786539,"0.0-4.193-2.193","x4eu7paltket00z",673,"89.csv","","null","resources/images/coin2.png","null","",NA,NA,NA,NA,""
"image-keyboard-response",594,786761,"0.0-4.194-0.194","x4eu7paltket00z",673,"89.csv","","219.7000002861023","resources/trios/L1T2A3.jpg","39","restless",0.7,0.7,0.4,0.249650864513528,"true"
"image-keyboard-response",595,787170,"0.0-4.194-1.194","x4eu7paltket00z",673,"89.csv","","null","resources/maskTrios/BBA3.jpg","null","",NA,NA,NA,NA,""
"image-keyboard-response",596,788381,"0.0-4.194-2.194","x4eu7paltket00z",673,"89.csv","","null","resources/images/coin2.png","null","",NA,NA,NA,NA,""
"image-keyboard-response",597,788675,"0.0-4.195-0.195","x4eu7paltket00z",673,"89.csv","","291","resources/trios/L1T2A3.jpg","39","restless",0.6,0.7,0.4,0.0938864545575793,"true"
"image-keyboard-response",598,789092,"0.0-4.195-1.195","x4eu7paltket00z",673,"89.csv","","null","resources/maskTrios/BBA3.jpg","null","",NA,NA,NA,NA,""
"image-keyboard-response",599,790299,"0.0-4.195-2.195","x4eu7paltket00z",673,"89.csv","","null","resources/images/coin2.png","null","",NA,NA,NA,NA,""
"image-keyboard-response",600,790859,"0.0-4.196-0.196","x4eu7paltket00z",673,"89.csv","","557","resources/trios/L1T2A3.jpg","39","restless",0.6,0.7,0.5,0.155485319543952,"true"
"image-keyboard-response",601,791264,"0.0-4.196-1.196","x4eu7paltket00z",673,"89.csv","","null","resources/maskTrios/BBA3.jpg","null","",NA,NA,NA,NA,""
"image-keyboard-response",602,792467,"0.0-4.196-2.196","x4eu7paltket00z",673,"89.csv","","null","resources/images/coin2.png","null","",NA,NA,NA,NA,""
"image-keyboard-response",603,792804,"0.0-4.197-0.197","x4eu7paltket00z",673,"89.csv","","334.80000019073486","resources/trios/L1T2A3.jpg","39","restless",0.6,0.7,0.5,0.768597547006831,"false"
"image-keyboard-response",604,793209,"0.0-4.197-1.197","x4eu7paltket00z",673,"89.csv","","null","resources/maskTrios/BBA3.jpg","null","",NA,NA,NA,NA,""
"image-keyboard-response",605,794413,"0.0-4.197-2.197","x4eu7paltket00z",673,"89.csv","","null","resources/images/fishbone.png","null","",NA,NA,NA,NA,""
"image-keyboard-response",606,794741,"0.0-4.198-0.198","x4eu7paltket00z",673,"89.csv","","325.80000019073486","resources/trios/L1T2A3.jpg","39","restless",0.7,0.7,0.5,0.339010183143517,"true"
"image-keyboard-response",607,795156,"0.0-4.198-1.198","x4eu7paltket00z",673,"89.csv","","null","resources/maskTrios/BBA3.jpg","null","",NA,NA,NA,NA,""
"image-keyboard-response",608,796358,"0.0-4.198-2.198","x4eu7paltket00z",673,"89.csv","","null","resources/images/coin2.png","null","",NA,NA,NA,NA,""
"image-keyboard-response",609,796614,"0.0-4.199-0.199","x4eu7paltket00z",673,"89.csv","","254.09999990463257","resources/trios/L1T2A3.jpg","39","restless",0.7,0.7,0.5,0.606579271492584,"false"
"image-keyboard-response",610,797027,"0.0-4.199-1.199","x4eu7paltket00z",673,"89.csv","","null","resources/maskTrios/BBA3.jpg","null","",NA,NA,NA,NA,""
