"trial_type","trial_index","time_elapsed","internal_node_id","subject","participantCode","walkNumber","success","rt","stimulus","key_press","test_part","leftProb","midProb","rightProb","generatedNum","correct"
"pavlovia",0,954,"0.0-0.0","bgb3o6ajcxzdq5q",979,"46.csv","","","","","",NA,NA,NA,NA,""
"fullscreen",1,2922,"0.0-1.0","bgb3o6ajcxzdq5q",979,"46.csv","true","","","","",NA,NA,NA,NA,""
"survey-html-form",2,10176,"0.0-2.0","bgb3o6ajcxzdq5q",979,"46.csv","","7233","","","",NA,NA,NA,NA,""
"image-keyboard-response",3,15413,"0.0-3.0-0.0","bgb3o6ajcxzdq5q",979,"46.csv","","5236","resources/images/parrot_nobg.png","13","",NA,NA,NA,NA,""
"image-keyboard-response",4,18413,"0.0-3.0-1.0","bgb3o6ajcxzdq5q",979,"46.csv","","null","resources/image_sets/111.png","null","",NA,NA,NA,NA,""
"image-keyboard-response",5,21297,"0.0-3.0-2.0","bgb3o6ajcxzdq5q",979,"46.csv","","2883","resources/image_sets/left_highlight.png","37","",NA,NA,NA,NA,""
"image-keyboard-response",6,21979,"0.0-3.0-3.0","bgb3o6ajcxzdq5q",979,"46.csv","","682","resources/image_sets/mid_highlight.png","38","",NA,NA,NA,NA,""
"image-keyboard-response",7,22329,"0.0-3.0-4.0","bgb3o6ajcxzdq5q",979,"46.csv","","350","resources/image_sets/right_highlight.png","39","",NA,NA,NA,NA,""
"image-keyboard-response",8,24216,"0.0-3.0-5.0","bgb3o6ajcxzdq5q",979,"46.csv","","1887","resources/image_sets/111.png","13","",NA,NA,NA,NA,""
"image-keyboard-response",9,25114,"0.0-3.0-6.0","bgb3o6ajcxzdq5q",979,"46.csv","","897","resources/images/coin2.png","13","",NA,NA,NA,NA,""
"image-keyboard-response",10,25789,"0.0-3.0-7.0","bgb3o6ajcxzdq5q",979,"46.csv","","674","resources/images/fishbone.png","13","",NA,NA,NA,NA,""
"html-keyboard-response",11,26767,"0.0-3.0-8.0","bgb3o6ajcxzdq5q",979,"46.csv","","978","<p>You can track your coin total on the top right of your screen. </p><p>At the end of your journey you will be directed to a survey, so please click on the link before exiting the task</p><p>Press Enter to begin</p>","13","",NA,NA,NA,NA,""
"image-keyboard-response",12,27619,"0.0-4.0-0.0","bgb3o6ajcxzdq5q",979,"46.csv","","850","resources/trios/L1T2A3.jpg","37","restless",0.3,0.9,0.7,0.395201323538129,"false"
"image-keyboard-response",13,28020,"0.0-4.0-1.0","bgb3o6ajcxzdq5q",979,"46.csv","","null","resources/maskTrios/L1BB.jpg","null","",NA,NA,NA,NA,""
"image-keyboard-response",14,29220,"0.0-4.0-2.0","bgb3o6ajcxzdq5q",979,"46.csv","","null","resources/images/fishbone.png","null","",NA,NA,NA,NA,""
"image-keyboard-response",15,31323,"0.0-4.1-0.1","bgb3o6ajcxzdq5q",979,"46.csv","","2101","resources/trios/L1T2A3.jpg","38","restless",0.3,0.9,0.7,0.369727772552445,"true"
"image-keyboard-response",16,31724,"0.0-4.1-1.1","bgb3o6ajcxzdq5q",979,"46.csv","","null","resources/maskTrios/BT2B.jpg","null","",NA,NA,NA,NA,""
"image-keyboard-response",17,32925,"0.0-4.1-2.1","bgb3o6ajcxzdq5q",979,"46.csv","","null","resources/images/coin2.png","null","",NA,NA,NA,NA,""
"image-keyboard-response",18,34043,"0.0-4.2-0.2","bgb3o6ajcxzdq5q",979,"46.csv","","1118","resources/trios/L1T2A3.jpg","38","restless",0.3,0.9,0.7,0.217534197802374,"true"
"image-keyboard-response",19,34444,"0.0-4.2-1.2","bgb3o6ajcxzdq5q",979,"46.csv","","null","resources/maskTrios/BT2B.jpg","null","",NA,NA,NA,NA,""
"image-keyboard-response",20,35645,"0.0-4.2-2.2","bgb3o6ajcxzdq5q",979,"46.csv","","null","resources/images/coin2.png","null","",NA,NA,NA,NA,""
"image-keyboard-response",21,36117,"0.0-4.3-0.3","bgb3o6ajcxzdq5q",979,"46.csv","","472","resources/trios/L1T2A3.jpg","38","restless",0.3,0.9,0.7,0.946508316915519,"false"
"image-keyboard-response",22,36518,"0.0-4.3-1.3","bgb3o6ajcxzdq5q",979,"46.csv","","null","resources/maskTrios/BT2B.jpg","null","",NA,NA,NA,NA,""
"image-keyboard-response",23,37719,"0.0-4.3-2.3","bgb3o6ajcxzdq5q",979,"46.csv","","null","resources/images/fishbone.png","null","",NA,NA,NA,NA,""
"image-keyboard-response",24,38116,"0.0-4.4-0.4","bgb3o6ajcxzdq5q",979,"46.csv","","397","resources/trios/L1T2A3.jpg","39","restless",0.3,0.9,0.7,0.818366135072538,"false"
"image-keyboard-response",25,38517,"0.0-4.4-1.4","bgb3o6ajcxzdq5q",979,"46.csv","","null","resources/maskTrios/BBA3.jpg","null","",NA,NA,NA,NA,""
"image-keyboard-response",26,39718,"0.0-4.4-2.4","bgb3o6ajcxzdq5q",979,"46.csv","","null","resources/images/fishbone.png","null","",NA,NA,NA,NA,""
"image-keyboard-response",27,40679,"0.0-4.5-0.5","bgb3o6ajcxzdq5q",979,"46.csv","","959","resources/trios/L1T2A3.jpg","37","restless",0.3,0.9,0.7,0.465788142190853,"false"
"image-keyboard-response",28,41080,"0.0-4.5-1.5","bgb3o6ajcxzdq5q",979,"46.csv","","null","resources/maskTrios/L1BB.jpg","null","",NA,NA,NA,NA,""
"image-keyboard-response",29,42280,"0.0-4.5-2.5","bgb3o6ajcxzdq5q",979,"46.csv","","null","resources/images/fishbone.png","null","",NA,NA,NA,NA,""
"image-keyboard-response",30,42600,"0.0-4.6-0.6","bgb3o6ajcxzdq5q",979,"46.csv","","320","resources/trios/L1T2A3.jpg","38","restless",0.3,0.9,0.7,0.984596891775399,"false"
"image-keyboard-response",31,43001,"0.0-4.6-1.6","bgb3o6ajcxzdq5q",979,"46.csv","","null","resources/maskTrios/BT2B.jpg","null","",NA,NA,NA,NA,""
"image-keyboard-response",32,44202,"0.0-4.6-2.6","bgb3o6ajcxzdq5q",979,"46.csv","","null","resources/images/fishbone.png","null","",NA,NA,NA,NA,""
"image-keyboard-response",33,44500,"0.0-4.7-0.7","bgb3o6ajcxzdq5q",979,"46.csv","","299","resources/trios/L1T2A3.jpg","39","restless",0.4,0.9,0.8,0.107226031913281,"true"
"image-keyboard-response",34,44901,"0.0-4.7-1.7","bgb3o6ajcxzdq5q",979,"46.csv","","null","resources/maskTrios/BBA3.jpg","null","",NA,NA,NA,NA,""
"image-keyboard-response",35,46102,"0.0-4.7-2.7","bgb3o6ajcxzdq5q",979,"46.csv","","null","resources/images/coin2.png","null","",NA,NA,NA,NA,""
"image-keyboard-response",36,48987,"0.0-4.8-0.8","bgb3o6ajcxzdq5q",979,"46.csv","","2885","resources/trios/L1T2A3.jpg","37","restless",0.4,0.8,0.8,0.043586855931192,"true"
"image-keyboard-response",37,49388,"0.0-4.8-1.8","bgb3o6ajcxzdq5q",979,"46.csv","","null","resources/maskTrios/L1BB.jpg","null","",NA,NA,NA,NA,""
"image-keyboard-response",38,50588,"0.0-4.8-2.8","bgb3o6ajcxzdq5q",979,"46.csv","","null","resources/images/coin2.png","null","",NA,NA,NA,NA,""
"image-keyboard-response",39,52003,"0.0-4.9-0.9","bgb3o6ajcxzdq5q",979,"46.csv","","1414","resources/trios/L1T2A3.jpg","37","restless",0.4,0.8,0.8,0.986406237545032,"false"
"image-keyboard-response",40,52404,"0.0-4.9-1.9","bgb3o6ajcxzdq5q",979,"46.csv","","null","resources/maskTrios/L1BB.jpg","null","",NA,NA,NA,NA,""
"image-keyboard-response",41,53605,"0.0-4.9-2.9","bgb3o6ajcxzdq5q",979,"46.csv","","null","resources/images/fishbone.png","null","",NA,NA,NA,NA,""
"image-keyboard-response",42,54089,"0.0-4.10-0.10","bgb3o6ajcxzdq5q",979,"46.csv","","484","resources/trios/L1T2A3.jpg","38","restless",0.5,0.8,0.8,0.719667207770296,"true"
"image-keyboard-response",43,54490,"0.0-4.10-1.10","bgb3o6ajcxzdq5q",979,"46.csv","","null","resources/maskTrios/BT2B.jpg","null","",NA,NA,NA,NA,""
"image-keyboard-response",44,55690,"0.0-4.10-2.10","bgb3o6ajcxzdq5q",979,"46.csv","","null","resources/images/coin2.png","null","",NA,NA,NA,NA,""
"image-keyboard-response",45,56029,"0.0-4.11-0.11","bgb3o6ajcxzdq5q",979,"46.csv","","339","resources/trios/L1T2A3.jpg","38","restless",0.5,0.8,0.8,0.501290086519008,"true"
"image-keyboard-response",46,56429,"0.0-4.11-1.11","bgb3o6ajcxzdq5q",979,"46.csv","","null","resources/maskTrios/BT2B.jpg","null","",NA,NA,NA,NA,""
"image-keyboard-response",47,57630,"0.0-4.11-2.11","bgb3o6ajcxzdq5q",979,"46.csv","","null","resources/images/coin2.png","null","",NA,NA,NA,NA,""
"image-keyboard-response",48,57954,"0.0-4.12-0.12","bgb3o6ajcxzdq5q",979,"46.csv","","324","resources/trios/L1T2A3.jpg","39","restless",0.5,0.8,0.8,0.776286801544711,"true"
"image-keyboard-response",49,58356,"0.0-4.12-1.12","bgb3o6ajcxzdq5q",979,"46.csv","","null","resources/maskTrios/BBA3.jpg","null","",NA,NA,NA,NA,""
"image-keyboard-response",50,59557,"0.0-4.12-2.12","bgb3o6ajcxzdq5q",979,"46.csv","","null","resources/images/coin2.png","null","",NA,NA,NA,NA,""
"image-keyboard-response",51,59757,"0.0-4.13-0.13","bgb3o6ajcxzdq5q",979,"46.csv","","200","resources/trios/L1T2A3.jpg","37","restless",0.5,0.8,0.8,0.127436274379146,"true"
"image-keyboard-response",52,60158,"0.0-4.13-1.13","bgb3o6ajcxzdq5q",979,"46.csv","","null","resources/maskTrios/L1BB.jpg","null","",NA,NA,NA,NA,""
"image-keyboard-response",53,61364,"0.0-4.13-2.13","bgb3o6ajcxzdq5q",979,"46.csv","","null","resources/images/coin2.png","null","",NA,NA,NA,NA,""
"image-keyboard-response",54,61578,"0.0-4.14-0.14","bgb3o6ajcxzdq5q",979,"46.csv","","215","resources/trios/L1T2A3.jpg","38","restless",0.5,0.8,0.9,0.379270973791254,"true"
"image-keyboard-response",55,61980,"0.0-4.14-1.14","bgb3o6ajcxzdq5q",979,"46.csv","","null","resources/maskTrios/BT2B.jpg","null","",NA,NA,NA,NA,""
"image-keyboard-response",56,63180,"0.0-4.14-2.14","bgb3o6ajcxzdq5q",979,"46.csv","","null","resources/images/coin2.png","null","",NA,NA,NA,NA,""
"image-keyboard-response",57,63435,"0.0-4.15-0.15","bgb3o6ajcxzdq5q",979,"46.csv","","254","resources/trios/L1T2A3.jpg","39","restless",0.5,0.8,0.9,0.656028038482708,"true"
"image-keyboard-response",58,63835,"0.0-4.15-1.15","bgb3o6ajcxzdq5q",979,"46.csv","","null","resources/maskTrios/BBA3.jpg","null","",NA,NA,NA,NA,""
"image-keyboard-response",59,65037,"0.0-4.15-2.15","bgb3o6ajcxzdq5q",979,"46.csv","","null","resources/images/coin2.png","null","",NA,NA,NA,NA,""
"image-keyboard-response",60,65240,"0.0-4.16-0.16","bgb3o6ajcxzdq5q",979,"46.csv","","202","resources/trios/L1T2A3.jpg","37","restless",0.5,0.8,0.8,0.0961854290429884,"true"
"image-keyboard-response",61,65642,"0.0-4.16-1.16","bgb3o6ajcxzdq5q",979,"46.csv","","null","resources/maskTrios/L1BB.jpg","null","",NA,NA,NA,NA,""
"image-keyboard-response",62,66843,"0.0-4.16-2.16","bgb3o6ajcxzdq5q",979,"46.csv","","null","resources/images/coin2.png","null","",NA,NA,NA,NA,""
"image-keyboard-response",63,67060,"0.0-4.17-0.17","bgb3o6ajcxzdq5q",979,"46.csv","","216","resources/trios/L1T2A3.jpg","38","restless",0.4,0.8,0.8,0.325899065114269,"true"
"image-keyboard-response",64,67461,"0.0-4.17-1.17","bgb3o6ajcxzdq5q",979,"46.csv","","null","resources/maskTrios/BT2B.jpg","null","",NA,NA,NA,NA,""
"image-keyboard-response",65,68661,"0.0-4.17-2.17","bgb3o6ajcxzdq5q",979,"46.csv","","null","resources/images/coin2.png","null","",NA,NA,NA,NA,""
"image-keyboard-response",66,68861,"0.0-4.18-0.18","bgb3o6ajcxzdq5q",979,"46.csv","","199","resources/trios/L1T2A3.jpg","39","restless",0.4,0.8,0.8,0.653191523663033,"true"
"image-keyboard-response",67,69262,"0.0-4.18-1.18","bgb3o6ajcxzdq5q",979,"46.csv","","null","resources/maskTrios/BBA3.jpg","null","",NA,NA,NA,NA,""
"image-keyboard-response",68,70462,"0.0-4.18-2.18","bgb3o6ajcxzdq5q",979,"46.csv","","null","resources/images/coin2.png","null","",NA,NA,NA,NA,""
"image-keyboard-response",69,70673,"0.0-4.19-0.19","bgb3o6ajcxzdq5q",979,"46.csv","","210","resources/trios/L1T2A3.jpg","37","restless",0.4,0.8,0.8,0.398177149232236,"true"
"image-keyboard-response",70,71074,"0.0-4.19-1.19","bgb3o6ajcxzdq5q",979,"46.csv","","null","resources/maskTrios/L1BB.jpg","null","",NA,NA,NA,NA,""
"image-keyboard-response",71,72276,"0.0-4.19-2.19","bgb3o6ajcxzdq5q",979,"46.csv","","null","resources/images/coin2.png","null","",NA,NA,NA,NA,""
"image-keyboard-response",72,72461,"0.0-4.20-0.20","bgb3o6ajcxzdq5q",979,"46.csv","","184","resources/trios/L1T2A3.jpg","38","restless",0.4,0.7,0.8,0.995325079444139,"false"
"image-keyboard-response",73,72861,"0.0-4.20-1.20","bgb3o6ajcxzdq5q",979,"46.csv","","null","resources/maskTrios/BT2B.jpg","null","",NA,NA,NA,NA,""
"image-keyboard-response",74,74063,"0.0-4.20-2.20","bgb3o6ajcxzdq5q",979,"46.csv","","null","resources/images/fishbone.png","null","",NA,NA,NA,NA,""
"image-keyboard-response",75,74337,"0.0-4.21-0.21","bgb3o6ajcxzdq5q",979,"46.csv","","273","resources/trios/L1T2A3.jpg","39","restless",0.4,0.7,0.8,0.495228464499963,"true"
"image-keyboard-response",76,74738,"0.0-4.21-1.21","bgb3o6ajcxzdq5q",979,"46.csv","","null","resources/maskTrios/BBA3.jpg","null","",NA,NA,NA,NA,""
"image-keyboard-response",77,75938,"0.0-4.21-2.21","bgb3o6ajcxzdq5q",979,"46.csv","","null","resources/images/coin2.png","null","",NA,NA,NA,NA,""
"image-keyboard-response",78,76122,"0.0-4.22-0.22","bgb3o6ajcxzdq5q",979,"46.csv","","184","resources/trios/L1T2A3.jpg","37","restless",0.4,0.7,0.8,0.763859599851346,"false"
"image-keyboard-response",79,76524,"0.0-4.22-1.22","bgb3o6ajcxzdq5q",979,"46.csv","","null","resources/maskTrios/L1BB.jpg","null","",NA,NA,NA,NA,""
"image-keyboard-response",80,77724,"0.0-4.22-2.22","bgb3o6ajcxzdq5q",979,"46.csv","","null","resources/images/fishbone.png","null","",NA,NA,NA,NA,""
"image-keyboard-response",81,77747,"0.0-4.23-0.23","bgb3o6ajcxzdq5q",979,"46.csv","","21","resources/trios/L1T2A3.jpg","38","restless",0.4,0.7,0.8,0.322947700798114,"true"
"image-keyboard-response",82,78148,"0.0-4.23-1.23","bgb3o6ajcxzdq5q",979,"46.csv","","null","resources/maskTrios/BT2B.jpg","null","",NA,NA,NA,NA,""
"image-keyboard-response",83,79348,"0.0-4.23-2.23","bgb3o6ajcxzdq5q",979,"46.csv","","null","resources/images/coin2.png","null","",NA,NA,NA,NA,""
"image-keyboard-response",84,79745,"0.0-4.24-0.24","bgb3o6ajcxzdq5q",979,"46.csv","","396","resources/trios/L1T2A3.jpg","39","restless",0.4,0.7,0.9,0.0903508925908253,"true"
"image-keyboard-response",85,80147,"0.0-4.24-1.24","bgb3o6ajcxzdq5q",979,"46.csv","","null","resources/maskTrios/BBA3.jpg","null","",NA,NA,NA,NA,""
"image-keyboard-response",86,81348,"0.0-4.24-2.24","bgb3o6ajcxzdq5q",979,"46.csv","","null","resources/images/coin2.png","null","",NA,NA,NA,NA,""
"image-keyboard-response",87,81611,"0.0-4.25-0.25","bgb3o6ajcxzdq5q",979,"46.csv","","263","resources/trios/L1T2A3.jpg","37","restless",0.4,0.6,0.9,0.635698029645094,"false"
"image-keyboard-response",88,82012,"0.0-4.25-1.25","bgb3o6ajcxzdq5q",979,"46.csv","","null","resources/maskTrios/L1BB.jpg","null","",NA,NA,NA,NA,""
"image-keyboard-response",89,83212,"0.0-4.25-2.25","bgb3o6ajcxzdq5q",979,"46.csv","","null","resources/images/fishbone.png","null","",NA,NA,NA,NA,""
"image-keyboard-response",90,83497,"0.0-4.26-0.26","bgb3o6ajcxzdq5q",979,"46.csv","","285","resources/trios/L1T2A3.jpg","38","restless",0.4,0.6,0.9,0.0155440498230909,"true"
"image-keyboard-response",91,83898,"0.0-4.26-1.26","bgb3o6ajcxzdq5q",979,"46.csv","","null","resources/maskTrios/BT2B.jpg","null","",NA,NA,NA,NA,""
"image-keyboard-response",92,85116,"0.0-4.26-2.26","bgb3o6ajcxzdq5q",979,"46.csv","","null","resources/images/coin2.png","null","",NA,NA,NA,NA,""
"image-keyboard-response",93,85319,"0.0-4.27-0.27","bgb3o6ajcxzdq5q",979,"46.csv","","201","resources/trios/L1T2A3.jpg","38","restless",0.4,0.6,0.9,0.749188413808575,"false"
"image-keyboard-response",94,85720,"0.0-4.27-1.27","bgb3o6ajcxzdq5q",979,"46.csv","","null","resources/maskTrios/BT2B.jpg","null","",NA,NA,NA,NA,""
"image-keyboard-response",95,86920,"0.0-4.27-2.27","bgb3o6ajcxzdq5q",979,"46.csv","","null","resources/images/fishbone.png","null","",NA,NA,NA,NA,""
"image-keyboard-response",96,87353,"0.0-4.28-0.28","bgb3o6ajcxzdq5q",979,"46.csv","","432","resources/trios/L1T2A3.jpg","39","restless",0.4,0.6,0.9,0.221585904230817,"true"
"image-keyboard-response",97,87753,"0.0-4.28-1.28","bgb3o6ajcxzdq5q",979,"46.csv","","null","resources/maskTrios/BBA3.jpg","null","",NA,NA,NA,NA,""
"image-keyboard-response",98,88954,"0.0-4.28-2.28","bgb3o6ajcxzdq5q",979,"46.csv","","null","resources/images/coin2.png","null","",NA,NA,NA,NA,""
"image-keyboard-response",99,89160,"0.0-4.29-0.29","bgb3o6ajcxzdq5q",979,"46.csv","","206","resources/trios/L1T2A3.jpg","37","restless",0.4,0.6,0.9,0.134322783715767,"true"
"image-keyboard-response",100,89561,"0.0-4.29-1.29","bgb3o6ajcxzdq5q",979,"46.csv","","null","resources/maskTrios/L1BB.jpg","null","",NA,NA,NA,NA,""
"image-keyboard-response",101,90762,"0.0-4.29-2.29","bgb3o6ajcxzdq5q",979,"46.csv","","null","resources/images/coin2.png","null","",NA,NA,NA,NA,""
"image-keyboard-response",102,90915,"0.0-4.30-0.30","bgb3o6ajcxzdq5q",979,"46.csv","","153","resources/trios/L1T2A3.jpg","38","restless",0.4,0.6,0.9,0.452370249541048,"true"
"image-keyboard-response",103,91317,"0.0-4.30-1.30","bgb3o6ajcxzdq5q",979,"46.csv","","null","resources/maskTrios/BT2B.jpg","null","",NA,NA,NA,NA,""
"image-keyboard-response",104,92517,"0.0-4.30-2.30","bgb3o6ajcxzdq5q",979,"46.csv","","null","resources/images/coin2.png","null","",NA,NA,NA,NA,""
"image-keyboard-response",105,92829,"0.0-4.31-0.31","bgb3o6ajcxzdq5q",979,"46.csv","","312","resources/trios/L1T2A3.jpg","39","restless",0.4,0.6,0.9,0.903332095508385,"false"
"image-keyboard-response",106,93229,"0.0-4.31-1.31","bgb3o6ajcxzdq5q",979,"46.csv","","null","resources/maskTrios/BBA3.jpg","null","",NA,NA,NA,NA,""
"image-keyboard-response",107,94430,"0.0-4.31-2.31","bgb3o6ajcxzdq5q",979,"46.csv","","null","resources/images/fishbone.png","null","",NA,NA,NA,NA,""
"image-keyboard-response",108,94691,"0.0-4.32-0.32","bgb3o6ajcxzdq5q",979,"46.csv","","260","resources/trios/L1T2A3.jpg","37","restless",0.4,0.6,0.9,0.613281549261593,"false"
"image-keyboard-response",109,95092,"0.0-4.32-1.32","bgb3o6ajcxzdq5q",979,"46.csv","","null","resources/maskTrios/L1BB.jpg","null","",NA,NA,NA,NA,""
"image-keyboard-response",110,96292,"0.0-4.32-2.32","bgb3o6ajcxzdq5q",979,"46.csv","","null","resources/images/fishbone.png","null","",NA,NA,NA,NA,""
"image-keyboard-response",111,96577,"0.0-4.33-0.33","bgb3o6ajcxzdq5q",979,"46.csv","","285","resources/trios/L1T2A3.jpg","38","restless",0.4,0.6,0.9,0.0172486197655287,"true"
"image-keyboard-response",112,96977,"0.0-4.33-1.33","bgb3o6ajcxzdq5q",979,"46.csv","","null","resources/maskTrios/BT2B.jpg","null","",NA,NA,NA,NA,""
"image-keyboard-response",113,98197,"0.0-4.33-2.33","bgb3o6ajcxzdq5q",979,"46.csv","","null","resources/images/coin2.png","null","",NA,NA,NA,NA,""
"image-keyboard-response",114,98455,"0.0-4.34-0.34","bgb3o6ajcxzdq5q",979,"46.csv","","257","resources/trios/L1T2A3.jpg","38","restless",0.4,0.5,0.9,0.799331368318133,"false"
"image-keyboard-response",115,98856,"0.0-4.34-1.34","bgb3o6ajcxzdq5q",979,"46.csv","","null","resources/maskTrios/BT2B.jpg","null","",NA,NA,NA,NA,""
"image-keyboard-response",116,100056,"0.0-4.34-2.34","bgb3o6ajcxzdq5q",979,"46.csv","","null","resources/images/fishbone.png","null","",NA,NA,NA,NA,""
"image-keyboard-response",117,100337,"0.0-4.35-0.35","bgb3o6ajcxzdq5q",979,"46.csv","","280","resources/trios/L1T2A3.jpg","39","restless",0.4,0.5,0.9,0.828676775092885,"true"
"image-keyboard-response",118,100737,"0.0-4.35-1.35","bgb3o6ajcxzdq5q",979,"46.csv","","null","resources/maskTrios/BBA3.jpg","null","",NA,NA,NA,NA,""
"image-keyboard-response",119,101938,"0.0-4.35-2.35","bgb3o6ajcxzdq5q",979,"46.csv","","null","resources/images/coin2.png","null","",NA,NA,NA,NA,""
"image-keyboard-response",120,102147,"0.0-4.36-0.36","bgb3o6ajcxzdq5q",979,"46.csv","","209","resources/trios/L1T2A3.jpg","37","restless",0.4,0.5,0.9,0.959553432172889,"false"
"image-keyboard-response",121,102548,"0.0-4.36-1.36","bgb3o6ajcxzdq5q",979,"46.csv","","null","resources/maskTrios/L1BB.jpg","null","",NA,NA,NA,NA,""
"image-keyboard-response",122,103749,"0.0-4.36-2.36","bgb3o6ajcxzdq5q",979,"46.csv","","null","resources/images/fishbone.png","null","",NA,NA,NA,NA,""
"image-keyboard-response",123,104079,"0.0-4.37-0.37","bgb3o6ajcxzdq5q",979,"46.csv","","329","resources/trios/L1T2A3.jpg","39","restless",0.4,0.5,0.9,0.573883020942836,"true"
"image-keyboard-response",124,104479,"0.0-4.37-1.37","bgb3o6ajcxzdq5q",979,"46.csv","","null","resources/maskTrios/BBA3.jpg","null","",NA,NA,NA,NA,""
"image-keyboard-response",125,105680,"0.0-4.37-2.37","bgb3o6ajcxzdq5q",979,"46.csv","","null","resources/images/coin2.png","null","",NA,NA,NA,NA,""
"image-keyboard-response",126,105733,"0.0-4.38-0.38","bgb3o6ajcxzdq5q",979,"46.csv","","52","resources/trios/L1T2A3.jpg","39","restless",0.4,0.5,0.9,0.215516918039691,"true"
"image-keyboard-response",127,106134,"0.0-4.38-1.38","bgb3o6ajcxzdq5q",979,"46.csv","","null","resources/maskTrios/BBA3.jpg","null","",NA,NA,NA,NA,""
"image-keyboard-response",128,107335,"0.0-4.38-2.38","bgb3o6ajcxzdq5q",979,"46.csv","","null","resources/images/coin2.png","null","",NA,NA,NA,NA,""
"image-keyboard-response",129,107571,"0.0-4.39-0.39","bgb3o6ajcxzdq5q",979,"46.csv","","236","resources/trios/L1T2A3.jpg","37","restless",0.4,0.5,0.8,0.857878792169236,"false"
"image-keyboard-response",130,107971,"0.0-4.39-1.39","bgb3o6ajcxzdq5q",979,"46.csv","","null","resources/maskTrios/L1BB.jpg","null","",NA,NA,NA,NA,""
"image-keyboard-response",131,109173,"0.0-4.39-2.39","bgb3o6ajcxzdq5q",979,"46.csv","","null","resources/images/fishbone.png","null","",NA,NA,NA,NA,""
"image-keyboard-response",132,109539,"0.0-4.40-0.40","bgb3o6ajcxzdq5q",979,"46.csv","","366","resources/trios/L1T2A3.jpg","38","restless",0.4,0.5,0.8,0.283371113623266,"true"
"image-keyboard-response",133,109940,"0.0-4.40-1.40","bgb3o6ajcxzdq5q",979,"46.csv","","null","resources/maskTrios/BT2B.jpg","null","",NA,NA,NA,NA,""
"image-keyboard-response",134,111141,"0.0-4.40-2.40","bgb3o6ajcxzdq5q",979,"46.csv","","null","resources/images/coin2.png","null","",NA,NA,NA,NA,""
"image-keyboard-response",135,111198,"0.0-4.41-0.41","bgb3o6ajcxzdq5q",979,"46.csv","","56","resources/trios/L1T2A3.jpg","38","restless",0.4,0.5,0.7,0.147224692655042,"true"
"image-keyboard-response",136,111599,"0.0-4.41-1.41","bgb3o6ajcxzdq5q",979,"46.csv","","null","resources/maskTrios/BT2B.jpg","null","",NA,NA,NA,NA,""
"image-keyboard-response",137,112799,"0.0-4.41-2.41","bgb3o6ajcxzdq5q",979,"46.csv","","null","resources/images/coin2.png","null","",NA,NA,NA,NA,""
"image-keyboard-response",138,113015,"0.0-4.42-0.42","bgb3o6ajcxzdq5q",979,"46.csv","","217","resources/trios/L1T2A3.jpg","39","restless",0.4,0.5,0.7,0.847644362025899,"false"
"image-keyboard-response",139,113417,"0.0-4.42-1.42","bgb3o6ajcxzdq5q",979,"46.csv","","null","resources/maskTrios/BBA3.jpg","null","",NA,NA,NA,NA,""
"image-keyboard-response",140,114617,"0.0-4.42-2.42","bgb3o6ajcxzdq5q",979,"46.csv","","null","resources/images/fishbone.png","null","",NA,NA,NA,NA,""
"image-keyboard-response",141,114868,"0.0-4.43-0.43","bgb3o6ajcxzdq5q",979,"46.csv","","250","resources/trios/L1T2A3.jpg","37","restless",0.4,0.5,0.7,0.911599670523841,"false"
"image-keyboard-response",142,115269,"0.0-4.43-1.43","bgb3o6ajcxzdq5q",979,"46.csv","","null","resources/maskTrios/L1BB.jpg","null","",NA,NA,NA,NA,""
"image-keyboard-response",143,116480,"0.0-4.43-2.43","bgb3o6ajcxzdq5q",979,"46.csv","","null","resources/images/fishbone.png","null","",NA,NA,NA,NA,""
"image-keyboard-response",144,116742,"0.0-4.44-0.44","bgb3o6ajcxzdq5q",979,"46.csv","","262","resources/trios/L1T2A3.jpg","38","restless",0.4,0.4,0.7,0.773455129868307,"false"
"image-keyboard-response",145,117143,"0.0-4.44-1.44","bgb3o6ajcxzdq5q",979,"46.csv","","null","resources/maskTrios/BT2B.jpg","null","",NA,NA,NA,NA,""
"image-keyboard-response",146,118343,"0.0-4.44-2.44","bgb3o6ajcxzdq5q",979,"46.csv","","null","resources/images/fishbone.png","null","",NA,NA,NA,NA,""
"image-keyboard-response",147,118536,"0.0-4.45-0.45","bgb3o6ajcxzdq5q",979,"46.csv","","192","resources/trios/L1T2A3.jpg","39","restless",0.4,0.4,0.7,0.471310631235796,"true"
"image-keyboard-response",148,118937,"0.0-4.45-1.45","bgb3o6ajcxzdq5q",979,"46.csv","","null","resources/maskTrios/BBA3.jpg","null","",NA,NA,NA,NA,""
"image-keyboard-response",149,120138,"0.0-4.45-2.45","bgb3o6ajcxzdq5q",979,"46.csv","","null","resources/images/coin2.png","null","",NA,NA,NA,NA,""
"image-keyboard-response",150,120451,"0.0-4.46-0.46","bgb3o6ajcxzdq5q",979,"46.csv","","312","resources/trios/L1T2A3.jpg","37","restless",0.4,0.4,0.7,0.61356986306492,"false"
"image-keyboard-response",151,120852,"0.0-4.46-1.46","bgb3o6ajcxzdq5q",979,"46.csv","","null","resources/maskTrios/L1BB.jpg","null","",NA,NA,NA,NA,""
"image-keyboard-response",152,122052,"0.0-4.46-2.46","bgb3o6ajcxzdq5q",979,"46.csv","","null","resources/images/fishbone.png","null","",NA,NA,NA,NA,""
"image-keyboard-response",153,122262,"0.0-4.47-0.47","bgb3o6ajcxzdq5q",979,"46.csv","","210","resources/trios/L1T2A3.jpg","38","restless",0.4,0.4,0.7,0.604739574445039,"false"
"image-keyboard-response",154,122663,"0.0-4.47-1.47","bgb3o6ajcxzdq5q",979,"46.csv","","null","resources/maskTrios/BT2B.jpg","null","",NA,NA,NA,NA,""
"image-keyboard-response",155,123864,"0.0-4.47-2.47","bgb3o6ajcxzdq5q",979,"46.csv","","null","resources/images/fishbone.png","null","",NA,NA,NA,NA,""
"image-keyboard-response",156,124072,"0.0-4.48-0.48","bgb3o6ajcxzdq5q",979,"46.csv","","208","resources/trios/L1T2A3.jpg","39","restless",0.5,0.4,0.7,0.357807738771251,"true"
"image-keyboard-response",157,124473,"0.0-4.48-1.48","bgb3o6ajcxzdq5q",979,"46.csv","","null","resources/maskTrios/BBA3.jpg","null","",NA,NA,NA,NA,""
"image-keyboard-response",158,125673,"0.0-4.48-2.48","bgb3o6ajcxzdq5q",979,"46.csv","","null","resources/images/coin2.png","null","",NA,NA,NA,NA,""
"image-keyboard-response",159,125940,"0.0-4.49-0.49","bgb3o6ajcxzdq5q",979,"46.csv","","267","resources/trios/L1T2A3.jpg","39","restless",0.5,0.4,0.7,0.145879719307314,"true"
"image-keyboard-response",160,126340,"0.0-4.49-1.49","bgb3o6ajcxzdq5q",979,"46.csv","","null","resources/maskTrios/BBA3.jpg","null","",NA,NA,NA,NA,""
"image-keyboard-response",161,127542,"0.0-4.49-2.49","bgb3o6ajcxzdq5q",979,"46.csv","","null","resources/images/coin2.png","null","",NA,NA,NA,NA,""
"image-keyboard-response",162,127812,"0.0-4.50-0.50","bgb3o6ajcxzdq5q",979,"46.csv","","270","resources/trios/L1T2A3.jpg","39","restless",0.5,0.4,0.7,0.903346773212202,"false"
"image-keyboard-response",163,128213,"0.0-4.50-1.50","bgb3o6ajcxzdq5q",979,"46.csv","","null","resources/maskTrios/BBA3.jpg","null","",NA,NA,NA,NA,""
"image-keyboard-response",164,129414,"0.0-4.50-2.50","bgb3o6ajcxzdq5q",979,"46.csv","","null","resources/images/fishbone.png","null","",NA,NA,NA,NA,""
"image-keyboard-response",165,129672,"0.0-4.51-0.51","bgb3o6ajcxzdq5q",979,"46.csv","","258","resources/trios/L1T2A3.jpg","37","restless",0.5,0.4,0.6,0.576986242664862,"false"
"image-keyboard-response",166,130073,"0.0-4.51-1.51","bgb3o6ajcxzdq5q",979,"46.csv","","null","resources/maskTrios/L1BB.jpg","null","",NA,NA,NA,NA,""
"image-keyboard-response",167,131275,"0.0-4.51-2.51","bgb3o6ajcxzdq5q",979,"46.csv","","null","resources/images/fishbone.png","null","",NA,NA,NA,NA,""
"image-keyboard-response",168,131502,"0.0-4.52-0.52","bgb3o6ajcxzdq5q",979,"46.csv","","227","resources/trios/L1T2A3.jpg","38","restless",0.5,0.4,0.6,0.65529671285141,"false"
"image-keyboard-response",169,131903,"0.0-4.52-1.52","bgb3o6ajcxzdq5q",979,"46.csv","","null","resources/maskTrios/BT2B.jpg","null","",NA,NA,NA,NA,""
"image-keyboard-response",170,133104,"0.0-4.52-2.52","bgb3o6ajcxzdq5q",979,"46.csv","","null","resources/images/fishbone.png","null","",NA,NA,NA,NA,""
"image-keyboard-response",171,133156,"0.0-4.53-0.53","bgb3o6ajcxzdq5q",979,"46.csv","","52","resources/trios/L1T2A3.jpg","37","restless",0.5,0.4,0.6,0.157646501662308,"true"
"image-keyboard-response",172,133557,"0.0-4.53-1.53","bgb3o6ajcxzdq5q",979,"46.csv","","null","resources/maskTrios/L1BB.jpg","null","",NA,NA,NA,NA,""
"image-keyboard-response",173,134758,"0.0-4.53-2.53","bgb3o6ajcxzdq5q",979,"46.csv","","null","resources/images/coin2.png","null","",NA,NA,NA,NA,""
"image-keyboard-response",174,134916,"0.0-4.54-0.54","bgb3o6ajcxzdq5q",979,"46.csv","","158","resources/trios/L1T2A3.jpg","37","restless",0.5,0.4,0.6,0.756292975081351,"false"
"image-keyboard-response",175,135317,"0.0-4.54-1.54","bgb3o6ajcxzdq5q",979,"46.csv","","null","resources/maskTrios/L1BB.jpg","null","",NA,NA,NA,NA,""
"image-keyboard-response",176,136518,"0.0-4.54-2.54","bgb3o6ajcxzdq5q",979,"46.csv","","null","resources/images/fishbone.png","null","",NA,NA,NA,NA,""
"image-keyboard-response",177,136714,"0.0-4.55-0.55","bgb3o6ajcxzdq5q",979,"46.csv","","196","resources/trios/L1T2A3.jpg","38","restless",0.5,0.4,0.6,0.641487825031229,"false"
"image-keyboard-response",178,137115,"0.0-4.55-1.55","bgb3o6ajcxzdq5q",979,"46.csv","","null","resources/maskTrios/BT2B.jpg","null","",NA,NA,NA,NA,""
"image-keyboard-response",179,138316,"0.0-4.55-2.55","bgb3o6ajcxzdq5q",979,"46.csv","","null","resources/images/fishbone.png","null","",NA,NA,NA,NA,""
"image-keyboard-response",180,138614,"0.0-4.56-0.56","bgb3o6ajcxzdq5q",979,"46.csv","","298","resources/trios/L1T2A3.jpg","39","restless",0.5,0.4,0.6,0.0681268631899715,"true"
"image-keyboard-response",181,139015,"0.0-4.56-1.56","bgb3o6ajcxzdq5q",979,"46.csv","","null","resources/maskTrios/BBA3.jpg","null","",NA,NA,NA,NA,""
"image-keyboard-response",182,140216,"0.0-4.56-2.56","bgb3o6ajcxzdq5q",979,"46.csv","","null","resources/images/coin2.png","null","",NA,NA,NA,NA,""
"image-keyboard-response",183,140418,"0.0-4.57-0.57","bgb3o6ajcxzdq5q",979,"46.csv","","202","resources/trios/L1T2A3.jpg","39","restless",0.5,0.4,0.7,0.232984348280552,"true"
"image-keyboard-response",184,140819,"0.0-4.57-1.57","bgb3o6ajcxzdq5q",979,"46.csv","","null","resources/maskTrios/BBA3.jpg","null","",NA,NA,NA,NA,""
"image-keyboard-response",185,142019,"0.0-4.57-2.57","bgb3o6ajcxzdq5q",979,"46.csv","","null","resources/images/coin2.png","null","",NA,NA,NA,NA,""
"image-keyboard-response",186,142214,"0.0-4.58-0.58","bgb3o6ajcxzdq5q",979,"46.csv","","194","resources/trios/L1T2A3.jpg","39","restless",0.5,0.4,0.7,0.956147814543147,"false"
"image-keyboard-response",187,142615,"0.0-4.58-1.58","bgb3o6ajcxzdq5q",979,"46.csv","","null","resources/maskTrios/BBA3.jpg","null","",NA,NA,NA,NA,""
"image-keyboard-response",188,143815,"0.0-4.58-2.58","bgb3o6ajcxzdq5q",979,"46.csv","","null","resources/images/fishbone.png","null","",NA,NA,NA,NA,""
"image-keyboard-response",189,143994,"0.0-4.59-0.59","bgb3o6ajcxzdq5q",979,"46.csv","","178","resources/trios/L1T2A3.jpg","37","restless",0.5,0.4,0.7,0.819691687208586,"false"
"image-keyboard-response",190,144395,"0.0-4.59-1.59","bgb3o6ajcxzdq5q",979,"46.csv","","null","resources/maskTrios/L1BB.jpg","null","",NA,NA,NA,NA,""
"image-keyboard-response",191,145595,"0.0-4.59-2.59","bgb3o6ajcxzdq5q",979,"46.csv","","null","resources/images/fishbone.png","null","",NA,NA,NA,NA,""
"image-keyboard-response",192,145656,"0.0-4.60-0.60","bgb3o6ajcxzdq5q",979,"46.csv","","60","resources/trios/L1T2A3.jpg","38","restless",0.5,0.4,0.6,0.440278828369924,"false"
"image-keyboard-response",193,146057,"0.0-4.60-1.60","bgb3o6ajcxzdq5q",979,"46.csv","","null","resources/maskTrios/BT2B.jpg","null","",NA,NA,NA,NA,""
"image-keyboard-response",194,147258,"0.0-4.60-2.60","bgb3o6ajcxzdq5q",979,"46.csv","","null","resources/images/fishbone.png","null","",NA,NA,NA,NA,""
"image-keyboard-response",195,147474,"0.0-4.61-0.61","bgb3o6ajcxzdq5q",979,"46.csv","","215","resources/trios/L1T2A3.jpg","38","restless",0.5,0.4,0.6,0.293320991400763,"true"
"image-keyboard-response",196,147875,"0.0-4.61-1.61","bgb3o6ajcxzdq5q",979,"46.csv","","null","resources/maskTrios/BT2B.jpg","null","",NA,NA,NA,NA,""
"image-keyboard-response",197,149075,"0.0-4.61-2.61","bgb3o6ajcxzdq5q",979,"46.csv","","null","resources/images/coin2.png","null","",NA,NA,NA,NA,""
"image-keyboard-response",198,149332,"0.0-4.62-0.62","bgb3o6ajcxzdq5q",979,"46.csv","","257","resources/trios/L1T2A3.jpg","37","restless",0.5,0.4,0.6,0.152928130553362,"true"
"image-keyboard-response",199,149733,"0.0-4.62-1.62","bgb3o6ajcxzdq5q",979,"46.csv","","null","resources/maskTrios/L1BB.jpg","null","",NA,NA,NA,NA,""
"image-keyboard-response",200,150934,"0.0-4.62-2.62","bgb3o6ajcxzdq5q",979,"46.csv","","null","resources/images/coin2.png","null","",NA,NA,NA,NA,""
"image-keyboard-response",201,151233,"0.0-4.63-0.63","bgb3o6ajcxzdq5q",979,"46.csv","","299","resources/trios/L1T2A3.jpg","39","restless",0.5,0.4,0.6,0.972010866641164,"false"
"image-keyboard-response",202,151634,"0.0-4.63-1.63","bgb3o6ajcxzdq5q",979,"46.csv","","null","resources/maskTrios/BBA3.jpg","null","",NA,NA,NA,NA,""
"image-keyboard-response",203,152834,"0.0-4.63-2.63","bgb3o6ajcxzdq5q",979,"46.csv","","null","resources/images/fishbone.png","null","",NA,NA,NA,NA,""
"image-keyboard-response",204,152868,"0.0-4.64-0.64","bgb3o6ajcxzdq5q",979,"46.csv","","32","resources/trios/L1T2A3.jpg","38","restless",0.5,0.4,0.7,0.48168353202709,"false"
"image-keyboard-response",205,153269,"0.0-4.64-1.64","bgb3o6ajcxzdq5q",979,"46.csv","","null","resources/maskTrios/BT2B.jpg","null","",NA,NA,NA,NA,""
"image-keyboard-response",206,154470,"0.0-4.64-2.64","bgb3o6ajcxzdq5q",979,"46.csv","","null","resources/images/fishbone.png","null","",NA,NA,NA,NA,""
"image-keyboard-response",207,154586,"0.0-4.65-0.65","bgb3o6ajcxzdq5q",979,"46.csv","","115","resources/trios/L1T2A3.jpg","38","restless",0.5,0.4,0.7,0.55284097808747,"false"
"image-keyboard-response",208,154986,"0.0-4.65-1.65","bgb3o6ajcxzdq5q",979,"46.csv","","null","resources/maskTrios/BT2B.jpg","null","",NA,NA,NA,NA,""
"image-keyboard-response",209,156187,"0.0-4.65-2.65","bgb3o6ajcxzdq5q",979,"46.csv","","null","resources/images/fishbone.png","null","",NA,NA,NA,NA,""
"image-keyboard-response",210,156356,"0.0-4.66-0.66","bgb3o6ajcxzdq5q",979,"46.csv","","167","resources/trios/L1T2A3.jpg","37","restless",0.5,0.4,0.7,0.037552470246467,"true"
"image-keyboard-response",211,156757,"0.0-4.66-1.66","bgb3o6ajcxzdq5q",979,"46.csv","","null","resources/maskTrios/L1BB.jpg","null","",NA,NA,NA,NA,""
"image-keyboard-response",212,157958,"0.0-4.66-2.66","bgb3o6ajcxzdq5q",979,"46.csv","","null","resources/images/coin2.png","null","",NA,NA,NA,NA,""
"image-keyboard-response",213,158110,"0.0-4.67-0.67","bgb3o6ajcxzdq5q",979,"46.csv","","151","resources/trios/L1T2A3.jpg","37","restless",0.5,0.4,0.7,0.981147013970834,"false"
"image-keyboard-response",214,158511,"0.0-4.67-1.67","bgb3o6ajcxzdq5q",979,"46.csv","","null","resources/maskTrios/L1BB.jpg","null","",NA,NA,NA,NA,""
"image-keyboard-response",215,159711,"0.0-4.67-2.67","bgb3o6ajcxzdq5q",979,"46.csv","","null","resources/images/fishbone.png","null","",NA,NA,NA,NA,""
"image-keyboard-response",216,159761,"0.0-4.68-0.68","bgb3o6ajcxzdq5q",979,"46.csv","","49","resources/trios/L1T2A3.jpg","38","restless",0.5,0.4,0.7,0.181274762107294,"true"
"image-keyboard-response",217,160161,"0.0-4.68-1.68","bgb3o6ajcxzdq5q",979,"46.csv","","null","resources/maskTrios/BT2B.jpg","null","",NA,NA,NA,NA,""
"image-keyboard-response",218,161362,"0.0-4.68-2.68","bgb3o6ajcxzdq5q",979,"46.csv","","null","resources/images/coin2.png","null","",NA,NA,NA,NA,""
"image-keyboard-response",219,161530,"0.0-4.69-0.69","bgb3o6ajcxzdq5q",979,"46.csv","","168","resources/trios/L1T2A3.jpg","38","restless",0.5,0.3,0.7,0.077487133741308,"true"
"image-keyboard-response",220,161931,"0.0-4.69-1.69","bgb3o6ajcxzdq5q",979,"46.csv","","null","resources/maskTrios/BT2B.jpg","null","",NA,NA,NA,NA,""
"image-keyboard-response",221,163133,"0.0-4.69-2.69","bgb3o6ajcxzdq5q",979,"46.csv","","null","resources/images/coin2.png","null","",NA,NA,NA,NA,""
"image-keyboard-response",222,163281,"0.0-4.70-0.70","bgb3o6ajcxzdq5q",979,"46.csv","","149","resources/trios/L1T2A3.jpg","39","restless",0.5,0.3,0.7,0.9438513620863,"false"
"image-keyboard-response",223,163683,"0.0-4.70-1.70","bgb3o6ajcxzdq5q",979,"46.csv","","null","resources/maskTrios/BBA3.jpg","null","",NA,NA,NA,NA,""
"image-keyboard-response",224,164883,"0.0-4.70-2.70","bgb3o6ajcxzdq5q",979,"46.csv","","null","resources/images/fishbone.png","null","",NA,NA,NA,NA,""
"image-keyboard-response",225,165010,"0.0-4.71-0.71","bgb3o6ajcxzdq5q",979,"46.csv","","127","resources/trios/L1T2A3.jpg","37","restless",0.5,0.3,0.8,0.473952328740102,"true"
"image-keyboard-response",226,165411,"0.0-4.71-1.71","bgb3o6ajcxzdq5q",979,"46.csv","","null","resources/maskTrios/L1BB.jpg","null","",NA,NA,NA,NA,""
"image-keyboard-response",227,166611,"0.0-4.71-2.71","bgb3o6ajcxzdq5q",979,"46.csv","","null","resources/images/coin2.png","null","",NA,NA,NA,NA,""
"image-keyboard-response",228,166766,"0.0-4.72-0.72","bgb3o6ajcxzdq5q",979,"46.csv","","153","resources/trios/L1T2A3.jpg","37","restless",0.5,0.3,0.8,0.298129336707992,"true"
"image-keyboard-response",229,167167,"0.0-4.72-1.72","bgb3o6ajcxzdq5q",979,"46.csv","","null","resources/maskTrios/L1BB.jpg","null","",NA,NA,NA,NA,""
"image-keyboard-response",230,168368,"0.0-4.72-2.72","bgb3o6ajcxzdq5q",979,"46.csv","","null","resources/images/coin2.png","null","",NA,NA,NA,NA,""
"image-keyboard-response",231,168386,"0.0-4.73-0.73","bgb3o6ajcxzdq5q",979,"46.csv","","18","resources/trios/L1T2A3.jpg","37","restless",0.5,0.3,0.9,0.979413792714844,"false"
"image-keyboard-response",232,168787,"0.0-4.73-1.73","bgb3o6ajcxzdq5q",979,"46.csv","","null","resources/maskTrios/L1BB.jpg","null","",NA,NA,NA,NA,""
"image-keyboard-response",233,169987,"0.0-4.73-2.73","bgb3o6ajcxzdq5q",979,"46.csv","","null","resources/images/fishbone.png","null","",NA,NA,NA,NA,""
"image-keyboard-response",234,170100,"0.0-4.74-0.74","bgb3o6ajcxzdq5q",979,"46.csv","","112","resources/trios/L1T2A3.jpg","38","restless",0.5,0.3,0.9,0.174292105659707,"true"
"image-keyboard-response",235,170501,"0.0-4.74-1.74","bgb3o6ajcxzdq5q",979,"46.csv","","null","resources/maskTrios/BT2B.jpg","null","",NA,NA,NA,NA,""
"image-keyboard-response",236,171702,"0.0-4.74-2.74","bgb3o6ajcxzdq5q",979,"46.csv","","null","resources/images/coin2.png","null","",NA,NA,NA,NA,""
"image-keyboard-response",237,171946,"0.0-4.75-0.75","bgb3o6ajcxzdq5q",979,"46.csv","","243","resources/trios/L1T2A3.jpg","38","restless",0.5,0.3,0.9,0.393686636900056,"false"
"image-keyboard-response",238,172347,"0.0-4.75-1.75","bgb3o6ajcxzdq5q",979,"46.csv","","null","resources/maskTrios/BT2B.jpg","null","",NA,NA,NA,NA,""
"image-keyboard-response",239,173547,"0.0-4.75-2.75","bgb3o6ajcxzdq5q",979,"46.csv","","null","resources/images/fishbone.png","null","",NA,NA,NA,NA,""
"image-keyboard-response",240,173935,"0.0-4.76-0.76","bgb3o6ajcxzdq5q",979,"46.csv","","388","resources/trios/L1T2A3.jpg","39","restless",0.5,0.3,0.9,0.609267699900817,"true"
"image-keyboard-response",241,174336,"0.0-4.76-1.76","bgb3o6ajcxzdq5q",979,"46.csv","","null","resources/maskTrios/BBA3.jpg","null","",NA,NA,NA,NA,""
"image-keyboard-response",242,175537,"0.0-4.76-2.76","bgb3o6ajcxzdq5q",979,"46.csv","","null","resources/images/coin2.png","null","",NA,NA,NA,NA,""
"image-keyboard-response",243,175823,"0.0-4.77-0.77","bgb3o6ajcxzdq5q",979,"46.csv","","286","resources/trios/L1T2A3.jpg","39","restless",0.5,0.4,0.9,0.766250857261919,"true"
"image-keyboard-response",244,176224,"0.0-4.77-1.77","bgb3o6ajcxzdq5q",979,"46.csv","","null","resources/maskTrios/BBA3.jpg","null","",NA,NA,NA,NA,""
"image-keyboard-response",245,177424,"0.0-4.77-2.77","bgb3o6ajcxzdq5q",979,"46.csv","","null","resources/images/coin2.png","null","",NA,NA,NA,NA,""
"image-keyboard-response",246,177725,"0.0-4.78-0.78","bgb3o6ajcxzdq5q",979,"46.csv","","299","resources/trios/L1T2A3.jpg","39","restless",0.5,0.4,0.9,0.448013231091041,"true"
"image-keyboard-response",247,178126,"0.0-4.78-1.78","bgb3o6ajcxzdq5q",979,"46.csv","","null","resources/maskTrios/BBA3.jpg","null","",NA,NA,NA,NA,""
"image-keyboard-response",248,179327,"0.0-4.78-2.78","bgb3o6ajcxzdq5q",979,"46.csv","","null","resources/images/coin2.png","null","",NA,NA,NA,NA,""
"image-keyboard-response",249,179533,"0.0-4.79-0.79","bgb3o6ajcxzdq5q",979,"46.csv","","206","resources/trios/L1T2A3.jpg","37","restless",0.5,0.4,0.9,0.809125921569537,"false"
"image-keyboard-response",250,179933,"0.0-4.79-1.79","bgb3o6ajcxzdq5q",979,"46.csv","","null","resources/maskTrios/L1BB.jpg","null","",NA,NA,NA,NA,""
"image-keyboard-response",251,181135,"0.0-4.79-2.79","bgb3o6ajcxzdq5q",979,"46.csv","","null","resources/images/fishbone.png","null","",NA,NA,NA,NA,""
"image-keyboard-response",252,181367,"0.0-4.80-0.80","bgb3o6ajcxzdq5q",979,"46.csv","","232","resources/trios/L1T2A3.jpg","39","restless",0.5,0.4,0.9,0.281868887990617,"true"
"image-keyboard-response",253,181768,"0.0-4.80-1.80","bgb3o6ajcxzdq5q",979,"46.csv","","null","resources/maskTrios/BBA3.jpg","null","",NA,NA,NA,NA,""
"image-keyboard-response",254,182968,"0.0-4.80-2.80","bgb3o6ajcxzdq5q",979,"46.csv","","null","resources/images/coin2.png","null","",NA,NA,NA,NA,""
"image-keyboard-response",255,183021,"0.0-4.81-0.81","bgb3o6ajcxzdq5q",979,"46.csv","","52","resources/trios/L1T2A3.jpg","39","restless",0.5,0.4,0.9,0.911230948832749,"false"
"image-keyboard-response",256,183421,"0.0-4.81-1.81","bgb3o6ajcxzdq5q",979,"46.csv","","null","resources/maskTrios/BBA3.jpg","null","",NA,NA,NA,NA,""
"image-keyboard-response",257,184622,"0.0-4.81-2.81","bgb3o6ajcxzdq5q",979,"46.csv","","null","resources/images/fishbone.png","null","",NA,NA,NA,NA,""
"image-keyboard-response",258,184803,"0.0-4.82-0.82","bgb3o6ajcxzdq5q",979,"46.csv","","180","resources/trios/L1T2A3.jpg","38","restless",0.5,0.4,0.9,0.903257912181268,"false"
"image-keyboard-response",259,185203,"0.0-4.82-1.82","bgb3o6ajcxzdq5q",979,"46.csv","","null","resources/maskTrios/BT2B.jpg","null","",NA,NA,NA,NA,""
"image-keyboard-response",260,186404,"0.0-4.82-2.82","bgb3o6ajcxzdq5q",979,"46.csv","","null","resources/images/fishbone.png","null","",NA,NA,NA,NA,""
"image-keyboard-response",261,186635,"0.0-4.83-0.83","bgb3o6ajcxzdq5q",979,"46.csv","","231","resources/trios/L1T2A3.jpg","37","restless",0.5,0.4,0.8,0.12605966169518,"true"
"image-keyboard-response",262,187036,"0.0-4.83-1.83","bgb3o6ajcxzdq5q",979,"46.csv","","null","resources/maskTrios/L1BB.jpg","null","",NA,NA,NA,NA,""
"image-keyboard-response",263,188238,"0.0-4.83-2.83","bgb3o6ajcxzdq5q",979,"46.csv","","null","resources/images/coin2.png","null","",NA,NA,NA,NA,""
"image-keyboard-response",264,188497,"0.0-4.84-0.84","bgb3o6ajcxzdq5q",979,"46.csv","","259","resources/trios/L1T2A3.jpg","37","restless",0.5,0.4,0.8,0.588311354465412,"false"
"image-keyboard-response",265,188898,"0.0-4.84-1.84","bgb3o6ajcxzdq5q",979,"46.csv","","null","resources/maskTrios/L1BB.jpg","null","",NA,NA,NA,NA,""
"image-keyboard-response",266,190099,"0.0-4.84-2.84","bgb3o6ajcxzdq5q",979,"46.csv","","null","resources/images/fishbone.png","null","",NA,NA,NA,NA,""
"image-keyboard-response",267,190219,"0.0-4.85-0.85","bgb3o6ajcxzdq5q",979,"46.csv","","119","resources/trios/L1T2A3.jpg","38","restless",0.5,0.4,0.8,0.694565416306345,"false"
"image-keyboard-response",268,190620,"0.0-4.85-1.85","bgb3o6ajcxzdq5q",979,"46.csv","","null","resources/maskTrios/BT2B.jpg","null","",NA,NA,NA,NA,""
"image-keyboard-response",269,191820,"0.0-4.85-2.85","bgb3o6ajcxzdq5q",979,"46.csv","","null","resources/images/fishbone.png","null","",NA,NA,NA,NA,""
"image-keyboard-response",270,192127,"0.0-4.86-0.86","bgb3o6ajcxzdq5q",979,"46.csv","","306","resources/trios/L1T2A3.jpg","39","restless",0.5,0.4,0.8,0.963373954670996,"false"
"image-keyboard-response",271,192528,"0.0-4.86-1.86","bgb3o6ajcxzdq5q",979,"46.csv","","null","resources/maskTrios/BBA3.jpg","null","",NA,NA,NA,NA,""
"image-keyboard-response",272,193729,"0.0-4.86-2.86","bgb3o6ajcxzdq5q",979,"46.csv","","null","resources/images/fishbone.png","null","",NA,NA,NA,NA,""
"image-keyboard-response",273,193867,"0.0-4.87-0.87","bgb3o6ajcxzdq5q",979,"46.csv","","138","resources/trios/L1T2A3.jpg","37","restless",0.5,0.4,0.8,0.674134466879267,"false"
"image-keyboard-response",274,194268,"0.0-4.87-1.87","bgb3o6ajcxzdq5q",979,"46.csv","","null","resources/maskTrios/L1BB.jpg","null","",NA,NA,NA,NA,""
"image-keyboard-response",275,195468,"0.0-4.87-2.87","bgb3o6ajcxzdq5q",979,"46.csv","","null","resources/images/fishbone.png","null","",NA,NA,NA,NA,""
"image-keyboard-response",276,195489,"0.0-4.88-0.88","bgb3o6ajcxzdq5q",979,"46.csv","","21","resources/trios/L1T2A3.jpg","38","restless",0.5,0.4,0.8,0.77373077377365,"false"
"image-keyboard-response",277,195890,"0.0-4.88-1.88","bgb3o6ajcxzdq5q",979,"46.csv","","null","resources/maskTrios/BT2B.jpg","null","",NA,NA,NA,NA,""
"image-keyboard-response",278,197091,"0.0-4.88-2.88","bgb3o6ajcxzdq5q",979,"46.csv","","null","resources/images/fishbone.png","null","",NA,NA,NA,NA,""
"image-keyboard-response",279,197171,"0.0-4.89-0.89","bgb3o6ajcxzdq5q",979,"46.csv","","81","resources/trios/L1T2A3.jpg","38","restless",0.5,0.4,0.8,0.759909772547394,"false"
"image-keyboard-response",280,197572,"0.0-4.89-1.89","bgb3o6ajcxzdq5q",979,"46.csv","","null","resources/maskTrios/BT2B.jpg","null","",NA,NA,NA,NA,""
"image-keyboard-response",281,198773,"0.0-4.89-2.89","bgb3o6ajcxzdq5q",979,"46.csv","","null","resources/images/fishbone.png","null","",NA,NA,NA,NA,""
"image-keyboard-response",282,199067,"0.0-4.90-0.90","bgb3o6ajcxzdq5q",979,"46.csv","","293","resources/trios/L1T2A3.jpg","39","restless",0.5,0.4,0.8,0.938702792705601,"false"
"image-keyboard-response",283,199469,"0.0-4.90-1.90","bgb3o6ajcxzdq5q",979,"46.csv","","null","resources/maskTrios/BBA3.jpg","null","",NA,NA,NA,NA,""
"image-keyboard-response",284,200669,"0.0-4.90-2.90","bgb3o6ajcxzdq5q",979,"46.csv","","null","resources/images/fishbone.png","null","",NA,NA,NA,NA,""
"image-keyboard-response",285,200757,"0.0-4.91-0.91","bgb3o6ajcxzdq5q",979,"46.csv","","88","resources/trios/L1T2A3.jpg","37","restless",0.5,0.4,0.7,0.841170389408149,"false"
"image-keyboard-response",286,201158,"0.0-4.91-1.91","bgb3o6ajcxzdq5q",979,"46.csv","","null","resources/maskTrios/L1BB.jpg","null","",NA,NA,NA,NA,""
"image-keyboard-response",287,202359,"0.0-4.91-2.91","bgb3o6ajcxzdq5q",979,"46.csv","","null","resources/images/fishbone.png","null","",NA,NA,NA,NA,""
"image-keyboard-response",288,202435,"0.0-4.92-0.92","bgb3o6ajcxzdq5q",979,"46.csv","","76","resources/trios/L1T2A3.jpg","38","restless",0.4,0.4,0.7,0.219296401373843,"true"
"image-keyboard-response",289,202835,"0.0-4.92-1.92","bgb3o6ajcxzdq5q",979,"46.csv","","null","resources/maskTrios/BT2B.jpg","null","",NA,NA,NA,NA,""
"image-keyboard-response",290,204037,"0.0-4.92-2.92","bgb3o6ajcxzdq5q",979,"46.csv","","null","resources/images/coin2.png","null","",NA,NA,NA,NA,""
"image-keyboard-response",291,204299,"0.0-4.93-0.93","bgb3o6ajcxzdq5q",979,"46.csv","","262","resources/trios/L1T2A3.jpg","38","restless",0.4,0.4,0.6,0.490251917232704,"false"
"image-keyboard-response",292,204699,"0.0-4.93-1.93","bgb3o6ajcxzdq5q",979,"46.csv","","null","resources/maskTrios/BT2B.jpg","null","",NA,NA,NA,NA,""
"image-keyboard-response",293,205901,"0.0-4.93-2.93","bgb3o6ajcxzdq5q",979,"46.csv","","null","resources/images/fishbone.png","null","",NA,NA,NA,NA,""
"image-keyboard-response",294,206097,"0.0-4.94-0.94","bgb3o6ajcxzdq5q",979,"46.csv","","195","resources/trios/L1T2A3.jpg","39","restless",0.4,0.4,0.6,0.0557470939637827,"true"
"image-keyboard-response",295,206498,"0.0-4.94-1.94","bgb3o6ajcxzdq5q",979,"46.csv","","null","resources/maskTrios/BBA3.jpg","null","",NA,NA,NA,NA,""
"image-keyboard-response",296,207699,"0.0-4.94-2.94","bgb3o6ajcxzdq5q",979,"46.csv","","null","resources/images/coin2.png","null","",NA,NA,NA,NA,""
"image-keyboard-response",297,208059,"0.0-4.95-0.95","bgb3o6ajcxzdq5q",979,"46.csv","","359","resources/trios/L1T2A3.jpg","39","restless",0.4,0.4,0.5,0.957382551546211,"false"
"image-keyboard-response",298,208460,"0.0-4.95-1.95","bgb3o6ajcxzdq5q",979,"46.csv","","null","resources/maskTrios/BBA3.jpg","null","",NA,NA,NA,NA,""
"image-keyboard-response",299,209661,"0.0-4.95-2.95","bgb3o6ajcxzdq5q",979,"46.csv","","null","resources/images/fishbone.png","null","",NA,NA,NA,NA,""
"image-keyboard-response",300,209875,"0.0-4.96-0.96","bgb3o6ajcxzdq5q",979,"46.csv","","214","resources/trios/L1T2A3.jpg","37","restless",0.4,0.4,0.4,0.489593958494922,"false"
"image-keyboard-response",301,210275,"0.0-4.96-1.96","bgb3o6ajcxzdq5q",979,"46.csv","","null","resources/maskTrios/L1BB.jpg","null","",NA,NA,NA,NA,""
"image-keyboard-response",302,211476,"0.0-4.96-2.96","bgb3o6ajcxzdq5q",979,"46.csv","","null","resources/images/fishbone.png","null","",NA,NA,NA,NA,""
"image-keyboard-response",303,211725,"0.0-4.97-0.97","bgb3o6ajcxzdq5q",979,"46.csv","","249","resources/trios/L1T2A3.jpg","37","restless",0.4,0.4,0.4,0.130741055203856,"true"
"image-keyboard-response",304,212125,"0.0-4.97-1.97","bgb3o6ajcxzdq5q",979,"46.csv","","null","resources/maskTrios/L1BB.jpg","null","",NA,NA,NA,NA,""
"image-keyboard-response",305,213327,"0.0-4.97-2.97","bgb3o6ajcxzdq5q",979,"46.csv","","null","resources/images/coin2.png","null","",NA,NA,NA,NA,""
"image-keyboard-response",306,245744,"0.0-4.98-0.98","bgb3o6ajcxzdq5q",979,"46.csv","","32418","resources/trios/L1T2A3.jpg","38","restless",0.4,0.4,0.4,0.658346727465602,"false"
"image-keyboard-response",307,246145,"0.0-4.98-1.98","bgb3o6ajcxzdq5q",979,"46.csv","","null","resources/maskTrios/BT2B.jpg","null","",NA,NA,NA,NA,""
"image-keyboard-response",308,247346,"0.0-4.98-2.98","bgb3o6ajcxzdq5q",979,"46.csv","","null","resources/images/fishbone.png","null","",NA,NA,NA,NA,""
"image-keyboard-response",309,247652,"0.0-4.99-0.99","bgb3o6ajcxzdq5q",979,"46.csv","","306","resources/trios/L1T2A3.jpg","39","restless",0.4,0.4,0.4,0.746004787811064,"false"
"image-keyboard-response",310,248054,"0.0-4.99-1.99","bgb3o6ajcxzdq5q",979,"46.csv","","null","resources/maskTrios/BBA3.jpg","null","",NA,NA,NA,NA,""
"image-keyboard-response",311,249254,"0.0-4.99-2.99","bgb3o6ajcxzdq5q",979,"46.csv","","null","resources/images/fishbone.png","null","",NA,NA,NA,NA,""
"image-keyboard-response",312,249606,"0.0-4.100-0.100","bgb3o6ajcxzdq5q",979,"46.csv","","352","resources/trios/L1T2A3.jpg","37","restless",0.4,0.4,0.3,0.350225920312373,"true"
"image-keyboard-response",313,250007,"0.0-4.100-1.100","bgb3o6ajcxzdq5q",979,"46.csv","","null","resources/maskTrios/L1BB.jpg","null","",NA,NA,NA,NA,""
"image-keyboard-response",314,251207,"0.0-4.100-2.100","bgb3o6ajcxzdq5q",979,"46.csv","","null","resources/images/coin2.png","null","",NA,NA,NA,NA,""
"image-keyboard-response",315,251560,"0.0-4.101-0.101","bgb3o6ajcxzdq5q",979,"46.csv","","352","resources/trios/L1T2A3.jpg","37","restless",0.4,0.4,0.3,0.22961855710527,"true"
"image-keyboard-response",316,251960,"0.0-4.101-1.101","bgb3o6ajcxzdq5q",979,"46.csv","","null","resources/maskTrios/L1BB.jpg","null","",NA,NA,NA,NA,""
"image-keyboard-response",317,253161,"0.0-4.101-2.101","bgb3o6ajcxzdq5q",979,"46.csv","","null","resources/images/coin2.png","null","",NA,NA,NA,NA,""
"image-keyboard-response",318,253511,"0.0-4.102-0.102","bgb3o6ajcxzdq5q",979,"46.csv","","349","resources/trios/L1T2A3.jpg","37","restless",0.4,0.4,0.2,0.908292698272006,"false"
"image-keyboard-response",319,253911,"0.0-4.102-1.102","bgb3o6ajcxzdq5q",979,"46.csv","","null","resources/maskTrios/L1BB.jpg","null","",NA,NA,NA,NA,""
"image-keyboard-response",320,255112,"0.0-4.102-2.102","bgb3o6ajcxzdq5q",979,"46.csv","","null","resources/images/fishbone.png","null","",NA,NA,NA,NA,""
"image-keyboard-response",321,255338,"0.0-4.103-0.103","bgb3o6ajcxzdq5q",979,"46.csv","","225","resources/trios/L1T2A3.jpg","38","restless",0.4,0.4,0.2,0.896618230874543,"false"
"image-keyboard-response",322,255739,"0.0-4.103-1.103","bgb3o6ajcxzdq5q",979,"46.csv","","null","resources/maskTrios/BT2B.jpg","null","",NA,NA,NA,NA,""
"image-keyboard-response",323,256940,"0.0-4.103-2.103","bgb3o6ajcxzdq5q",979,"46.csv","","null","resources/images/fishbone.png","null","",NA,NA,NA,NA,""
"image-keyboard-response",324,257190,"0.0-4.104-0.104","bgb3o6ajcxzdq5q",979,"46.csv","","249","resources/trios/L1T2A3.jpg","39","restless",0.5,0.4,0.2,0.46182236673,"false"
"image-keyboard-response",325,257591,"0.0-4.104-1.104","bgb3o6ajcxzdq5q",979,"46.csv","","null","resources/maskTrios/BBA3.jpg","null","",NA,NA,NA,NA,""
"image-keyboard-response",326,258791,"0.0-4.104-2.104","bgb3o6ajcxzdq5q",979,"46.csv","","null","resources/images/fishbone.png","null","",NA,NA,NA,NA,""
"image-keyboard-response",327,263518,"0.0-4.105-0.105","bgb3o6ajcxzdq5q",979,"46.csv","","4727","resources/trios/L1T2A3.jpg","39","restless",0.5,0.4,0.2,0.684991534277465,"false"
"image-keyboard-response",328,263918,"0.0-4.105-1.105","bgb3o6ajcxzdq5q",979,"46.csv","","null","resources/maskTrios/BBA3.jpg","null","",NA,NA,NA,NA,""
"image-keyboard-response",329,265119,"0.0-4.105-2.105","bgb3o6ajcxzdq5q",979,"46.csv","","null","resources/images/fishbone.png","null","",NA,NA,NA,NA,""
"image-keyboard-response",330,265387,"0.0-4.106-0.106","bgb3o6ajcxzdq5q",979,"46.csv","","267","resources/trios/L1T2A3.jpg","37","restless",0.5,0.4,0.2,0.124448099068017,"true"
"image-keyboard-response",331,265787,"0.0-4.106-1.106","bgb3o6ajcxzdq5q",979,"46.csv","","null","resources/maskTrios/L1BB.jpg","null","",NA,NA,NA,NA,""
"image-keyboard-response",332,266988,"0.0-4.106-2.106","bgb3o6ajcxzdq5q",979,"46.csv","","null","resources/images/coin2.png","null","",NA,NA,NA,NA,""
"image-keyboard-response",333,267271,"0.0-4.107-0.107","bgb3o6ajcxzdq5q",979,"46.csv","","283","resources/trios/L1T2A3.jpg","37","restless",0.6,0.4,0.2,0.974863160531641,"false"
"image-keyboard-response",334,267671,"0.0-4.107-1.107","bgb3o6ajcxzdq5q",979,"46.csv","","null","resources/maskTrios/L1BB.jpg","null","",NA,NA,NA,NA,""
"image-keyboard-response",335,268872,"0.0-4.107-2.107","bgb3o6ajcxzdq5q",979,"46.csv","","null","resources/images/fishbone.png","null","",NA,NA,NA,NA,""
"image-keyboard-response",336,269124,"0.0-4.108-0.108","bgb3o6ajcxzdq5q",979,"46.csv","","253","resources/trios/L1T2A3.jpg","38","restless",0.6,0.4,0.2,0.818611465937533,"false"
"image-keyboard-response",337,269525,"0.0-4.108-1.108","bgb3o6ajcxzdq5q",979,"46.csv","","null","resources/maskTrios/BT2B.jpg","null","",NA,NA,NA,NA,""
"image-keyboard-response",338,270726,"0.0-4.108-2.108","bgb3o6ajcxzdq5q",979,"46.csv","","null","resources/images/fishbone.png","null","",NA,NA,NA,NA,""
"image-keyboard-response",339,270970,"0.0-4.109-0.109","bgb3o6ajcxzdq5q",979,"46.csv","","244","resources/trios/L1T2A3.jpg","39","restless",0.6,0.4,0.2,0.708009279680987,"false"
"image-keyboard-response",340,271371,"0.0-4.109-1.109","bgb3o6ajcxzdq5q",979,"46.csv","","null","resources/maskTrios/BBA3.jpg","null","",NA,NA,NA,NA,""
"image-keyboard-response",341,272572,"0.0-4.109-2.109","bgb3o6ajcxzdq5q",979,"46.csv","","null","resources/images/fishbone.png","null","",NA,NA,NA,NA,""
"image-keyboard-response",342,272844,"0.0-4.110-0.110","bgb3o6ajcxzdq5q",979,"46.csv","","272","resources/trios/L1T2A3.jpg","37","restless",0.6,0.3,0.2,0.607445320853591,"false"
"image-keyboard-response",343,273246,"0.0-4.110-1.110","bgb3o6ajcxzdq5q",979,"46.csv","","null","resources/maskTrios/L1BB.jpg","null","",NA,NA,NA,NA,""
"image-keyboard-response",344,274447,"0.0-4.110-2.110","bgb3o6ajcxzdq5q",979,"46.csv","","null","resources/images/fishbone.png","null","",NA,NA,NA,NA,""
"image-keyboard-response",345,274684,"0.0-4.111-0.111","bgb3o6ajcxzdq5q",979,"46.csv","","237","resources/trios/L1T2A3.jpg","38","restless",0.6,0.3,0.2,0.629848834010876,"false"
"image-keyboard-response",346,275085,"0.0-4.111-1.111","bgb3o6ajcxzdq5q",979,"46.csv","","null","resources/maskTrios/BT2B.jpg","null","",NA,NA,NA,NA,""
"image-keyboard-response",347,276287,"0.0-4.111-2.111","bgb3o6ajcxzdq5q",979,"46.csv","","null","resources/images/fishbone.png","null","",NA,NA,NA,NA,""
"image-keyboard-response",348,276481,"0.0-4.112-0.112","bgb3o6ajcxzdq5q",979,"46.csv","","193","resources/trios/L1T2A3.jpg","39","restless",0.6,0.3,0.2,0.653261891743124,"false"
"image-keyboard-response",349,276880,"0.0-4.112-1.112","bgb3o6ajcxzdq5q",979,"46.csv","","null","resources/maskTrios/BBA3.jpg","null","",NA,NA,NA,NA,""
"image-keyboard-response",350,278082,"0.0-4.112-2.112","bgb3o6ajcxzdq5q",979,"46.csv","","null","resources/images/fishbone.png","null","",NA,NA,NA,NA,""
"image-keyboard-response",351,278158,"0.0-4.113-0.113","bgb3o6ajcxzdq5q",979,"46.csv","","77","resources/trios/L1T2A3.jpg","37","restless",0.6,0.3,0.2,0.588759048157451,"true"
"image-keyboard-response",352,278559,"0.0-4.113-1.113","bgb3o6ajcxzdq5q",979,"46.csv","","null","resources/maskTrios/L1BB.jpg","null","",NA,NA,NA,NA,""
"image-keyboard-response",353,279759,"0.0-4.113-2.113","bgb3o6ajcxzdq5q",979,"46.csv","","null","resources/images/coin2.png","null","",NA,NA,NA,NA,""
"image-keyboard-response",354,280056,"0.0-4.114-0.114","bgb3o6ajcxzdq5q",979,"46.csv","","296","resources/trios/L1T2A3.jpg","37","restless",0.6,0.3,0.2,0.229235009172296,"true"
"image-keyboard-response",355,280456,"0.0-4.114-1.114","bgb3o6ajcxzdq5q",979,"46.csv","","null","resources/maskTrios/L1BB.jpg","null","",NA,NA,NA,NA,""
"image-keyboard-response",356,281658,"0.0-4.114-2.114","bgb3o6ajcxzdq5q",979,"46.csv","","null","resources/images/coin2.png","null","",NA,NA,NA,NA,""
"image-keyboard-response",357,404475,"0.0-4.115-0.115","bgb3o6ajcxzdq5q",979,"46.csv","","122817","resources/trios/L1T2A3.jpg","38","restless",0.6,0.3,0.2,0.792925893981442,"false"
"image-keyboard-response",358,404876,"0.0-4.115-1.115","bgb3o6ajcxzdq5q",979,"46.csv","","null","resources/maskTrios/BT2B.jpg","null","",NA,NA,NA,NA,""
"image-keyboard-response",359,406077,"0.0-4.115-2.115","bgb3o6ajcxzdq5q",979,"46.csv","","null","resources/images/fishbone.png","null","",NA,NA,NA,NA,""
"image-keyboard-response",360,406424,"0.0-4.116-0.116","bgb3o6ajcxzdq5q",979,"46.csv","","345","resources/trios/L1T2A3.jpg","39","restless",0.6,0.4,0.1,0.937973371134664,"false"
"image-keyboard-response",361,406824,"0.0-4.116-1.116","bgb3o6ajcxzdq5q",979,"46.csv","","null","resources/maskTrios/BBA3.jpg","null","",NA,NA,NA,NA,""
"image-keyboard-response",362,408025,"0.0-4.116-2.116","bgb3o6ajcxzdq5q",979,"46.csv","","null","resources/images/fishbone.png","null","",NA,NA,NA,NA,""
"image-keyboard-response",363,408264,"0.0-4.117-0.117","bgb3o6ajcxzdq5q",979,"46.csv","","240","resources/trios/L1T2A3.jpg","37","restless",0.6,0.4,0.1,0.967121929368855,"false"
"image-keyboard-response",364,408665,"0.0-4.117-1.117","bgb3o6ajcxzdq5q",979,"46.csv","","null","resources/maskTrios/L1BB.jpg","null","",NA,NA,NA,NA,""
"image-keyboard-response",365,409866,"0.0-4.117-2.117","bgb3o6ajcxzdq5q",979,"46.csv","","null","resources/images/fishbone.png","null","",NA,NA,NA,NA,""
"image-keyboard-response",366,410050,"0.0-4.118-0.118","bgb3o6ajcxzdq5q",979,"46.csv","","184","resources/trios/L1T2A3.jpg","38","restless",0.6,0.5,0.1,0.901839580581597,"false"
"image-keyboard-response",367,410450,"0.0-4.118-1.118","bgb3o6ajcxzdq5q",979,"46.csv","","null","resources/maskTrios/BT2B.jpg","null","",NA,NA,NA,NA,""
"image-keyboard-response",368,411651,"0.0-4.118-2.118","bgb3o6ajcxzdq5q",979,"46.csv","","null","resources/images/fishbone.png","null","",NA,NA,NA,NA,""
"image-keyboard-response",369,411767,"0.0-4.119-0.119","bgb3o6ajcxzdq5q",979,"46.csv","","116","resources/trios/L1T2A3.jpg","38","restless",0.6,0.5,0.1,0.788069497494177,"false"
"image-keyboard-response",370,412167,"0.0-4.119-1.119","bgb3o6ajcxzdq5q",979,"46.csv","","null","resources/maskTrios/BT2B.jpg","null","",NA,NA,NA,NA,""
"image-keyboard-response",371,413369,"0.0-4.119-2.119","bgb3o6ajcxzdq5q",979,"46.csv","","null","resources/images/fishbone.png","null","",NA,NA,NA,NA,""
"image-keyboard-response",372,413556,"0.0-4.120-0.120","bgb3o6ajcxzdq5q",979,"46.csv","","187","resources/trios/L1T2A3.jpg","39","restless",0.6,0.5,0.2,0.371134351931298,"false"
"image-keyboard-response",373,413956,"0.0-4.120-1.120","bgb3o6ajcxzdq5q",979,"46.csv","","null","resources/maskTrios/BBA3.jpg","null","",NA,NA,NA,NA,""
"image-keyboard-response",374,415157,"0.0-4.120-2.120","bgb3o6ajcxzdq5q",979,"46.csv","","null","resources/images/fishbone.png","null","",NA,NA,NA,NA,""
"image-keyboard-response",375,415378,"0.0-4.121-0.121","bgb3o6ajcxzdq5q",979,"46.csv","","220","resources/trios/L1T2A3.jpg","37","restless",0.6,0.5,0.2,0.0279381404036686,"true"
"image-keyboard-response",376,415782,"0.0-4.121-1.121","bgb3o6ajcxzdq5q",979,"46.csv","","null","resources/maskTrios/L1BB.jpg","null","",NA,NA,NA,NA,""
"image-keyboard-response",377,416983,"0.0-4.121-2.121","bgb3o6ajcxzdq5q",979,"46.csv","","null","resources/images/coin2.png","null","",NA,NA,NA,NA,""
"image-keyboard-response",378,417227,"0.0-4.122-0.122","bgb3o6ajcxzdq5q",979,"46.csv","","244","resources/trios/L1T2A3.jpg","37","restless",0.6,0.5,0.2,0.8904426404331,"false"
"image-keyboard-response",379,417629,"0.0-4.122-1.122","bgb3o6ajcxzdq5q",979,"46.csv","","null","resources/maskTrios/L1BB.jpg","null","",NA,NA,NA,NA,""
"image-keyboard-response",380,418829,"0.0-4.122-2.122","bgb3o6ajcxzdq5q",979,"46.csv","","null","resources/images/fishbone.png","null","",NA,NA,NA,NA,""
"image-keyboard-response",381,419088,"0.0-4.123-0.123","bgb3o6ajcxzdq5q",979,"46.csv","","258","resources/trios/L1T2A3.jpg","38","restless",0.6,0.5,0.2,0.617522067545489,"false"
"image-keyboard-response",382,419488,"0.0-4.123-1.123","bgb3o6ajcxzdq5q",979,"46.csv","","null","resources/maskTrios/BT2B.jpg","null","",NA,NA,NA,NA,""
"image-keyboard-response",383,420689,"0.0-4.123-2.123","bgb3o6ajcxzdq5q",979,"46.csv","","null","resources/images/fishbone.png","null","",NA,NA,NA,NA,""
"image-keyboard-response",384,420907,"0.0-4.124-0.124","bgb3o6ajcxzdq5q",979,"46.csv","","218","resources/trios/L1T2A3.jpg","39","restless",0.6,0.5,0.2,0.95015565050546,"false"
"image-keyboard-response",385,421308,"0.0-4.124-1.124","bgb3o6ajcxzdq5q",979,"46.csv","","null","resources/maskTrios/BBA3.jpg","null","",NA,NA,NA,NA,""
"image-keyboard-response",386,422508,"0.0-4.124-2.124","bgb3o6ajcxzdq5q",979,"46.csv","","null","resources/images/fishbone.png","null","",NA,NA,NA,NA,""
"image-keyboard-response",387,422752,"0.0-4.125-0.125","bgb3o6ajcxzdq5q",979,"46.csv","","244","resources/trios/L1T2A3.jpg","38","restless",0.6,0.5,0.2,0.0553939350522966,"true"
"image-keyboard-response",388,423152,"0.0-4.125-1.125","bgb3o6ajcxzdq5q",979,"46.csv","","null","resources/maskTrios/BT2B.jpg","null","",NA,NA,NA,NA,""
"image-keyboard-response",389,424353,"0.0-4.125-2.125","bgb3o6ajcxzdq5q",979,"46.csv","","null","resources/images/coin2.png","null","",NA,NA,NA,NA,""
"image-keyboard-response",390,424467,"0.0-4.126-0.126","bgb3o6ajcxzdq5q",979,"46.csv","","114","resources/trios/L1T2A3.jpg","38","restless",0.6,0.5,0.2,0.470259414746344,"true"
"image-keyboard-response",391,424868,"0.0-4.126-1.126","bgb3o6ajcxzdq5q",979,"46.csv","","null","resources/maskTrios/BT2B.jpg","null","",NA,NA,NA,NA,""
"image-keyboard-response",392,426069,"0.0-4.126-2.126","bgb3o6ajcxzdq5q",979,"46.csv","","null","resources/images/coin2.png","null","",NA,NA,NA,NA,""
"image-keyboard-response",393,426157,"0.0-4.127-0.127","bgb3o6ajcxzdq5q",979,"46.csv","","88","resources/trios/L1T2A3.jpg","38","restless",0.6,0.5,0.2,0.202869915670715,"true"
"image-keyboard-response",394,426559,"0.0-4.127-1.127","bgb3o6ajcxzdq5q",979,"46.csv","","null","resources/maskTrios/BT2B.jpg","null","",NA,NA,NA,NA,""
"image-keyboard-response",395,427760,"0.0-4.127-2.127","bgb3o6ajcxzdq5q",979,"46.csv","","null","resources/images/coin2.png","null","",NA,NA,NA,NA,""
"image-keyboard-response",396,427936,"0.0-4.128-0.128","bgb3o6ajcxzdq5q",979,"46.csv","","175","resources/trios/L1T2A3.jpg","38","restless",0.6,0.5,0.2,0.401997499440286,"true"
"image-keyboard-response",397,428335,"0.0-4.128-1.128","bgb3o6ajcxzdq5q",979,"46.csv","","null","resources/maskTrios/BT2B.jpg","null","",NA,NA,NA,NA,""
"image-keyboard-response",398,429536,"0.0-4.128-2.128","bgb3o6ajcxzdq5q",979,"46.csv","","null","resources/images/coin2.png","null","",NA,NA,NA,NA,""
"image-keyboard-response",399,429593,"0.0-4.129-0.129","bgb3o6ajcxzdq5q",979,"46.csv","","57","resources/trios/L1T2A3.jpg","38","restless",0.6,0.5,0.2,0.0918326242894719,"true"
"image-keyboard-response",400,429994,"0.0-4.129-1.129","bgb3o6ajcxzdq5q",979,"46.csv","","null","resources/maskTrios/BT2B.jpg","null","",NA,NA,NA,NA,""
"image-keyboard-response",401,431195,"0.0-4.129-2.129","bgb3o6ajcxzdq5q",979,"46.csv","","null","resources/images/coin2.png","null","",NA,NA,NA,NA,""
"image-keyboard-response",402,431309,"0.0-4.130-0.130","bgb3o6ajcxzdq5q",979,"46.csv","","114","resources/trios/L1T2A3.jpg","38","restless",0.6,0.5,0.2,0.25749273731687,"true"
"image-keyboard-response",403,431710,"0.0-4.130-1.130","bgb3o6ajcxzdq5q",979,"46.csv","","null","resources/maskTrios/BT2B.jpg","null","",NA,NA,NA,NA,""
"image-keyboard-response",404,432911,"0.0-4.130-2.130","bgb3o6ajcxzdq5q",979,"46.csv","","null","resources/images/coin2.png","null","",NA,NA,NA,NA,""
"image-keyboard-response",405,433125,"0.0-4.131-0.131","bgb3o6ajcxzdq5q",979,"46.csv","","215","resources/trios/L1T2A3.jpg","38","restless",0.6,0.4,0.2,0.0149670051317734,"true"
"image-keyboard-response",406,433525,"0.0-4.131-1.131","bgb3o6ajcxzdq5q",979,"46.csv","","null","resources/maskTrios/BT2B.jpg","null","",NA,NA,NA,NA,""
"image-keyboard-response",407,434727,"0.0-4.131-2.131","bgb3o6ajcxzdq5q",979,"46.csv","","null","resources/images/coin2.png","null","",NA,NA,NA,NA,""
"image-keyboard-response",408,434786,"0.0-4.132-0.132","bgb3o6ajcxzdq5q",979,"46.csv","","59","resources/trios/L1T2A3.jpg","38","restless",0.6,0.4,0.2,0.209026660187858,"true"
"image-keyboard-response",409,435186,"0.0-4.132-1.132","bgb3o6ajcxzdq5q",979,"46.csv","","null","resources/maskTrios/BT2B.jpg","null","",NA,NA,NA,NA,""
"image-keyboard-response",410,436387,"0.0-4.132-2.132","bgb3o6ajcxzdq5q",979,"46.csv","","null","resources/images/coin2.png","null","",NA,NA,NA,NA,""
"image-keyboard-response",411,436505,"0.0-4.133-0.133","bgb3o6ajcxzdq5q",979,"46.csv","","118","resources/trios/L1T2A3.jpg","38","restless",0.6,0.4,0.2,0.663392304293845,"false"
"image-keyboard-response",412,436906,"0.0-4.133-1.133","bgb3o6ajcxzdq5q",979,"46.csv","","null","resources/maskTrios/BT2B.jpg","null","",NA,NA,NA,NA,""
"image-keyboard-response",413,438107,"0.0-4.133-2.133","bgb3o6ajcxzdq5q",979,"46.csv","","null","resources/images/fishbone.png","null","",NA,NA,NA,NA,""
"image-keyboard-response",414,438223,"0.0-4.134-0.134","bgb3o6ajcxzdq5q",979,"46.csv","","116","resources/trios/L1T2A3.jpg","39","restless",0.6,0.4,0.2,0.604135780478955,"false"
"image-keyboard-response",415,438625,"0.0-4.134-1.134","bgb3o6ajcxzdq5q",979,"46.csv","","null","resources/maskTrios/BBA3.jpg","null","",NA,NA,NA,NA,""
"image-keyboard-response",416,439825,"0.0-4.134-2.134","bgb3o6ajcxzdq5q",979,"46.csv","","null","resources/images/fishbone.png","null","",NA,NA,NA,NA,""
"image-keyboard-response",417,440198,"0.0-4.135-0.135","bgb3o6ajcxzdq5q",979,"46.csv","","372","resources/trios/L1T2A3.jpg","37","restless",0.6,0.4,0.1,0.644897869649087,"false"
"image-keyboard-response",418,440597,"0.0-4.135-1.135","bgb3o6ajcxzdq5q",979,"46.csv","","null","resources/maskTrios/L1BB.jpg","null","",NA,NA,NA,NA,""
"image-keyboard-response",419,441798,"0.0-4.135-2.135","bgb3o6ajcxzdq5q",979,"46.csv","","null","resources/images/fishbone.png","null","",NA,NA,NA,NA,""
"image-keyboard-response",420,442141,"0.0-4.136-0.136","bgb3o6ajcxzdq5q",979,"46.csv","","343","resources/trios/L1T2A3.jpg","38","restless",0.6,0.5,0.1,0.597653454521388,"false"
"image-keyboard-response",421,442543,"0.0-4.136-1.136","bgb3o6ajcxzdq5q",979,"46.csv","","null","resources/maskTrios/BT2B.jpg","null","",NA,NA,NA,NA,""
"image-keyboard-response",422,443743,"0.0-4.136-2.136","bgb3o6ajcxzdq5q",979,"46.csv","","null","resources/images/fishbone.png","null","",NA,NA,NA,NA,""
"image-keyboard-response",423,444024,"0.0-4.137-0.137","bgb3o6ajcxzdq5q",979,"46.csv","","280","resources/trios/L1T2A3.jpg","39","restless",0.5,0.5,0.1,0.828705377154943,"false"
"image-keyboard-response",424,444424,"0.0-4.137-1.137","bgb3o6ajcxzdq5q",979,"46.csv","","null","resources/maskTrios/BBA3.jpg","null","",NA,NA,NA,NA,""
"image-keyboard-response",425,445625,"0.0-4.137-2.137","bgb3o6ajcxzdq5q",979,"46.csv","","null","resources/images/fishbone.png","null","",NA,NA,NA,NA,""
"image-keyboard-response",426,445923,"0.0-4.138-0.138","bgb3o6ajcxzdq5q",979,"46.csv","","298","resources/trios/L1T2A3.jpg","37","restless",0.5,0.5,0.1,0.872983960535641,"false"
"image-keyboard-response",427,446324,"0.0-4.138-1.138","bgb3o6ajcxzdq5q",979,"46.csv","","null","resources/maskTrios/L1BB.jpg","null","",NA,NA,NA,NA,""
"image-keyboard-response",428,447524,"0.0-4.138-2.138","bgb3o6ajcxzdq5q",979,"46.csv","","null","resources/images/fishbone.png","null","",NA,NA,NA,NA,""
"image-keyboard-response",429,447579,"0.0-4.139-0.139","bgb3o6ajcxzdq5q",979,"46.csv","","54","resources/trios/L1T2A3.jpg","38","restless",0.5,0.5,0.1,0.553188426180998,"false"
"image-keyboard-response",430,447981,"0.0-4.139-1.139","bgb3o6ajcxzdq5q",979,"46.csv","","null","resources/maskTrios/BT2B.jpg","null","",NA,NA,NA,NA,""
"image-keyboard-response",431,449181,"0.0-4.139-2.139","bgb3o6ajcxzdq5q",979,"46.csv","","null","resources/images/fishbone.png","null","",NA,NA,NA,NA,""
"image-keyboard-response",432,449346,"0.0-4.140-0.140","bgb3o6ajcxzdq5q",979,"46.csv","","164","resources/trios/L1T2A3.jpg","38","restless",0.5,0.5,0.1,0.614179219801487,"false"
"image-keyboard-response",433,449746,"0.0-4.140-1.140","bgb3o6ajcxzdq5q",979,"46.csv","","null","resources/maskTrios/BT2B.jpg","null","",NA,NA,NA,NA,""
"image-keyboard-response",434,450948,"0.0-4.140-2.140","bgb3o6ajcxzdq5q",979,"46.csv","","null","resources/images/fishbone.png","null","",NA,NA,NA,NA,""
"image-keyboard-response",435,451373,"0.0-4.141-0.141","bgb3o6ajcxzdq5q",979,"46.csv","","426","resources/trios/L1T2A3.jpg","39","restless",0.5,0.5,0.1,0.175826667892804,"false"
"image-keyboard-response",436,451774,"0.0-4.141-1.141","bgb3o6ajcxzdq5q",979,"46.csv","","null","resources/maskTrios/BBA3.jpg","null","",NA,NA,NA,NA,""
"image-keyboard-response",437,452995,"0.0-4.141-2.141","bgb3o6ajcxzdq5q",979,"46.csv","","null","resources/images/fishbone.png","null","",NA,NA,NA,NA,""
"image-keyboard-response",438,453261,"0.0-4.142-0.142","bgb3o6ajcxzdq5q",979,"46.csv","","265","resources/trios/L1T2A3.jpg","37","restless",0.5,0.5,0.1,0.220738637024645,"true"
"image-keyboard-response",439,453662,"0.0-4.142-1.142","bgb3o6ajcxzdq5q",979,"46.csv","","null","resources/maskTrios/L1BB.jpg","null","",NA,NA,NA,NA,""
"image-keyboard-response",440,454863,"0.0-4.142-2.142","bgb3o6ajcxzdq5q",979,"46.csv","","null","resources/images/coin2.png","null","",NA,NA,NA,NA,""
"image-keyboard-response",441,455102,"0.0-4.143-0.143","bgb3o6ajcxzdq5q",979,"46.csv","","237","resources/trios/L1T2A3.jpg","37","restless",0.6,0.5,0.1,0.441570825277556,"true"
"image-keyboard-response",442,455502,"0.0-4.143-1.143","bgb3o6ajcxzdq5q",979,"46.csv","","null","resources/maskTrios/L1BB.jpg","null","",NA,NA,NA,NA,""
"image-keyboard-response",443,456704,"0.0-4.143-2.143","bgb3o6ajcxzdq5q",979,"46.csv","","null","resources/images/coin2.png","null","",NA,NA,NA,NA,""
"image-keyboard-response",444,456926,"0.0-4.144-0.144","bgb3o6ajcxzdq5q",979,"46.csv","","221","resources/trios/L1T2A3.jpg","37","restless",0.6,0.5,0.1,0.573431798758519,"true"
"image-keyboard-response",445,457326,"0.0-4.144-1.144","bgb3o6ajcxzdq5q",979,"46.csv","","null","resources/maskTrios/L1BB.jpg","null","",NA,NA,NA,NA,""
"image-keyboard-response",446,458527,"0.0-4.144-2.144","bgb3o6ajcxzdq5q",979,"46.csv","","null","resources/images/coin2.png","null","",NA,NA,NA,NA,""
"image-keyboard-response",447,458764,"0.0-4.145-0.145","bgb3o6ajcxzdq5q",979,"46.csv","","236","resources/trios/L1T2A3.jpg","37","restless",0.6,0.5,0.1,0.373883626736682,"true"
"image-keyboard-response",448,459165,"0.0-4.145-1.145","bgb3o6ajcxzdq5q",979,"46.csv","","null","resources/maskTrios/L1BB.jpg","null","",NA,NA,NA,NA,""
"image-keyboard-response",449,460366,"0.0-4.145-2.145","bgb3o6ajcxzdq5q",979,"46.csv","","null","resources/images/coin2.png","null","",NA,NA,NA,NA,""
"image-keyboard-response",450,460488,"0.0-4.146-0.146","bgb3o6ajcxzdq5q",979,"46.csv","","120","resources/trios/L1T2A3.jpg","37","restless",0.5,0.5,0.2,0.697864358535495,"false"
"image-keyboard-response",451,460888,"0.0-4.146-1.146","bgb3o6ajcxzdq5q",979,"46.csv","","null","resources/maskTrios/L1BB.jpg","null","",NA,NA,NA,NA,""
"image-keyboard-response",452,462089,"0.0-4.146-2.146","bgb3o6ajcxzdq5q",979,"46.csv","","null","resources/images/fishbone.png","null","",NA,NA,NA,NA,""
"image-keyboard-response",453,462294,"0.0-4.147-0.147","bgb3o6ajcxzdq5q",979,"46.csv","","204","resources/trios/L1T2A3.jpg","37","restless",0.5,0.5,0.2,0.526283198558227,"false"
"image-keyboard-response",454,462694,"0.0-4.147-1.147","bgb3o6ajcxzdq5q",979,"46.csv","","null","resources/maskTrios/L1BB.jpg","null","",NA,NA,NA,NA,""
"image-keyboard-response",455,463895,"0.0-4.147-2.147","bgb3o6ajcxzdq5q",979,"46.csv","","null","resources/images/fishbone.png","null","",NA,NA,NA,NA,""
"image-keyboard-response",456,464109,"0.0-4.148-0.148","bgb3o6ajcxzdq5q",979,"46.csv","","213","resources/trios/L1T2A3.jpg","38","restless",0.6,0.5,0.2,0.833134850928736,"false"
"image-keyboard-response",457,464509,"0.0-4.148-1.148","bgb3o6ajcxzdq5q",979,"46.csv","","null","resources/maskTrios/BT2B.jpg","null","",NA,NA,NA,NA,""
"image-keyboard-response",458,465710,"0.0-4.148-2.148","bgb3o6ajcxzdq5q",979,"46.csv","","null","resources/images/fishbone.png","null","",NA,NA,NA,NA,""
"image-keyboard-response",459,465856,"0.0-4.149-0.149","bgb3o6ajcxzdq5q",979,"46.csv","","146","resources/trios/L1T2A3.jpg","39","restless",0.6,0.5,0.3,0.719597175596811,"false"
"image-keyboard-response",460,466258,"0.0-4.149-1.149","bgb3o6ajcxzdq5q",979,"46.csv","","null","resources/maskTrios/BBA3.jpg","null","",NA,NA,NA,NA,""
"image-keyboard-response",461,467458,"0.0-4.149-2.149","bgb3o6ajcxzdq5q",979,"46.csv","","null","resources/images/fishbone.png","null","",NA,NA,NA,NA,""
"image-keyboard-response",462,467484,"0.0-4.150-0.150","bgb3o6ajcxzdq5q",979,"46.csv","","26","resources/trios/L1T2A3.jpg","37","restless",0.6,0.5,0.3,0.684633667468945,"false"
"image-keyboard-response",463,467885,"0.0-4.150-1.150","bgb3o6ajcxzdq5q",979,"46.csv","","null","resources/maskTrios/L1BB.jpg","null","",NA,NA,NA,NA,""
"image-keyboard-response",464,469085,"0.0-4.150-2.150","bgb3o6ajcxzdq5q",979,"46.csv","","null","resources/images/fishbone.png","null","",NA,NA,NA,NA,""
"image-keyboard-response",465,469254,"0.0-4.151-0.151","bgb3o6ajcxzdq5q",979,"46.csv","","168","resources/trios/L1T2A3.jpg","38","restless",0.6,0.5,0.3,0.509731837713489,"false"
"image-keyboard-response",466,469656,"0.0-4.151-1.151","bgb3o6ajcxzdq5q",979,"46.csv","","null","resources/maskTrios/BT2B.jpg","null","",NA,NA,NA,NA,""
"image-keyboard-response",467,470856,"0.0-4.151-2.151","bgb3o6ajcxzdq5q",979,"46.csv","","null","resources/images/fishbone.png","null","",NA,NA,NA,NA,""
"image-keyboard-response",468,471123,"0.0-4.152-0.152","bgb3o6ajcxzdq5q",979,"46.csv","","265","resources/trios/L1T2A3.jpg","38","restless",0.6,0.5,0.3,0.0386445974745776,"true"
"image-keyboard-response",469,471525,"0.0-4.152-1.152","bgb3o6ajcxzdq5q",979,"46.csv","","null","resources/maskTrios/BT2B.jpg","null","",NA,NA,NA,NA,""
"image-keyboard-response",470,472725,"0.0-4.152-2.152","bgb3o6ajcxzdq5q",979,"46.csv","","null","resources/images/coin2.png","null","",NA,NA,NA,NA,""
"image-keyboard-response",471,472939,"0.0-4.153-0.153","bgb3o6ajcxzdq5q",979,"46.csv","","212","resources/trios/L1T2A3.jpg","38","restless",0.6,0.5,0.3,0.776313195459146,"false"
"image-keyboard-response",472,473339,"0.0-4.153-1.153","bgb3o6ajcxzdq5q",979,"46.csv","","null","resources/maskTrios/BT2B.jpg","null","",NA,NA,NA,NA,""
"image-keyboard-response",473,474540,"0.0-4.153-2.153","bgb3o6ajcxzdq5q",979,"46.csv","","null","resources/images/fishbone.png","null","",NA,NA,NA,NA,""
"image-keyboard-response",474,474778,"0.0-4.154-0.154","bgb3o6ajcxzdq5q",979,"46.csv","","238","resources/trios/L1T2A3.jpg","39","restless",0.6,0.5,0.3,0.898199387581791,"false"
"image-keyboard-response",475,475178,"0.0-4.154-1.154","bgb3o6ajcxzdq5q",979,"46.csv","","null","resources/maskTrios/BBA3.jpg","null","",NA,NA,NA,NA,""
"image-keyboard-response",476,476379,"0.0-4.154-2.154","bgb3o6ajcxzdq5q",979,"46.csv","","null","resources/images/fishbone.png","null","",NA,NA,NA,NA,""
"image-keyboard-response",477,476582,"0.0-4.155-0.155","bgb3o6ajcxzdq5q",979,"46.csv","","203","resources/trios/L1T2A3.jpg","37","restless",0.6,0.5,0.3,0.568121444693004,"true"
"image-keyboard-response",478,477001,"0.0-4.155-1.155","bgb3o6ajcxzdq5q",979,"46.csv","","null","resources/maskTrios/L1BB.jpg","null","",NA,NA,NA,NA,""
"image-keyboard-response",479,478202,"0.0-4.155-2.155","bgb3o6ajcxzdq5q",979,"46.csv","","null","resources/images/coin2.png","null","",NA,NA,NA,NA,""
"image-keyboard-response",480,635616,"0.0-4.156-0.156","bgb3o6ajcxzdq5q",979,"46.csv","","157414","resources/trios/L1T2A3.jpg","38","restless",0.7,0.5,0.3,0.594356225490169,"false"
"image-keyboard-response",481,636017,"0.0-4.156-1.156","bgb3o6ajcxzdq5q",979,"46.csv","","null","resources/maskTrios/BT2B.jpg","null","",NA,NA,NA,NA,""
"image-keyboard-response",482,637218,"0.0-4.156-2.156","bgb3o6ajcxzdq5q",979,"46.csv","","null","resources/images/fishbone.png","null","",NA,NA,NA,NA,""
"image-keyboard-response",483,637435,"0.0-4.157-0.157","bgb3o6ajcxzdq5q",979,"46.csv","","215","resources/trios/L1T2A3.jpg","37","restless",0.8,0.5,0.4,0.192454383115789,"true"
"image-keyboard-response",484,637835,"0.0-4.157-1.157","bgb3o6ajcxzdq5q",979,"46.csv","","null","resources/maskTrios/L1BB.jpg","null","",NA,NA,NA,NA,""
"image-keyboard-response",485,639036,"0.0-4.157-2.157","bgb3o6ajcxzdq5q",979,"46.csv","","null","resources/images/coin2.png","null","",NA,NA,NA,NA,""
"image-keyboard-response",486,639292,"0.0-4.158-0.158","bgb3o6ajcxzdq5q",979,"46.csv","","257","resources/trios/L1T2A3.jpg","37","restless",0.8,0.5,0.3,0.229755018300089,"true"
"image-keyboard-response",487,639694,"0.0-4.158-1.158","bgb3o6ajcxzdq5q",979,"46.csv","","null","resources/maskTrios/L1BB.jpg","null","",NA,NA,NA,NA,""
"image-keyboard-response",488,640894,"0.0-4.158-2.158","bgb3o6ajcxzdq5q",979,"46.csv","","null","resources/images/coin2.png","null","",NA,NA,NA,NA,""
"image-keyboard-response",489,641106,"0.0-4.159-0.159","bgb3o6ajcxzdq5q",979,"46.csv","","213","resources/trios/L1T2A3.jpg","37","restless",0.8,0.5,0.3,0.374473230659605,"true"
"image-keyboard-response",490,641507,"0.0-4.159-1.159","bgb3o6ajcxzdq5q",979,"46.csv","","null","resources/maskTrios/L1BB.jpg","null","",NA,NA,NA,NA,""
"image-keyboard-response",491,642707,"0.0-4.159-2.159","bgb3o6ajcxzdq5q",979,"46.csv","","null","resources/images/coin2.png","null","",NA,NA,NA,NA,""
"image-keyboard-response",492,642746,"0.0-4.160-0.160","bgb3o6ajcxzdq5q",979,"46.csv","","38","resources/trios/L1T2A3.jpg","37","restless",0.8,0.5,0.3,0.841551818977082,"false"
"image-keyboard-response",493,643147,"0.0-4.160-1.160","bgb3o6ajcxzdq5q",979,"46.csv","","null","resources/maskTrios/L1BB.jpg","null","",NA,NA,NA,NA,""
"image-keyboard-response",494,644349,"0.0-4.160-2.160","bgb3o6ajcxzdq5q",979,"46.csv","","null","resources/images/fishbone.png","null","",NA,NA,NA,NA,""
"image-keyboard-response",495,644514,"0.0-4.161-0.161","bgb3o6ajcxzdq5q",979,"46.csv","","166","resources/trios/L1T2A3.jpg","38","restless",0.8,0.5,0.3,0.285753388628917,"true"
"image-keyboard-response",496,644915,"0.0-4.161-1.161","bgb3o6ajcxzdq5q",979,"46.csv","","null","resources/maskTrios/BT2B.jpg","null","",NA,NA,NA,NA,""
"image-keyboard-response",497,646116,"0.0-4.161-2.161","bgb3o6ajcxzdq5q",979,"46.csv","","null","resources/images/coin2.png","null","",NA,NA,NA,NA,""
"image-keyboard-response",498,646220,"0.0-4.162-0.162","bgb3o6ajcxzdq5q",979,"46.csv","","104","resources/trios/L1T2A3.jpg","38","restless",0.9,0.5,0.3,0.855388129457644,"false"
"image-keyboard-response",499,646622,"0.0-4.162-1.162","bgb3o6ajcxzdq5q",979,"46.csv","","null","resources/maskTrios/BT2B.jpg","null","",NA,NA,NA,NA,""
"image-keyboard-response",500,647822,"0.0-4.162-2.162","bgb3o6ajcxzdq5q",979,"46.csv","","null","resources/images/fishbone.png","null","",NA,NA,NA,NA,""
"image-keyboard-response",501,647849,"0.0-4.163-0.163","bgb3o6ajcxzdq5q",979,"46.csv","","26","resources/trios/L1T2A3.jpg","39","restless",0.8,0.5,0.3,0.968961950715039,"false"
"image-keyboard-response",502,648249,"0.0-4.163-1.163","bgb3o6ajcxzdq5q",979,"46.csv","","null","resources/maskTrios/BBA3.jpg","null","",NA,NA,NA,NA,""
"image-keyboard-response",503,650231,"0.0-4.163-2.163","bgb3o6ajcxzdq5q",979,"46.csv","","null","resources/images/fishbone.png","null","",NA,NA,NA,NA,""
"image-keyboard-response",504,673278,"0.0-4.164-0.164","bgb3o6ajcxzdq5q",979,"46.csv","","23046","resources/trios/L1T2A3.jpg","38","restless",0.8,0.5,0.3,0.823925727240031,"false"
"image-keyboard-response",505,673678,"0.0-4.164-1.164","bgb3o6ajcxzdq5q",979,"46.csv","","null","resources/maskTrios/BT2B.jpg","null","",NA,NA,NA,NA,""
"image-keyboard-response",506,674880,"0.0-4.164-2.164","bgb3o6ajcxzdq5q",979,"46.csv","","null","resources/images/fishbone.png","null","",NA,NA,NA,NA,""
"image-keyboard-response",507,675051,"0.0-4.165-0.165","bgb3o6ajcxzdq5q",979,"46.csv","","170","resources/trios/L1T2A3.jpg","39","restless",0.8,0.5,0.2,0.663951913671959,"false"
"image-keyboard-response",508,675452,"0.0-4.165-1.165","bgb3o6ajcxzdq5q",979,"46.csv","","null","resources/maskTrios/BBA3.jpg","null","",NA,NA,NA,NA,""
"image-keyboard-response",509,676653,"0.0-4.165-2.165","bgb3o6ajcxzdq5q",979,"46.csv","","null","resources/images/fishbone.png","null","",NA,NA,NA,NA,""
"image-keyboard-response",510,676925,"0.0-4.166-0.166","bgb3o6ajcxzdq5q",979,"46.csv","","273","resources/trios/L1T2A3.jpg","37","restless",0.8,0.5,0.2,0.374178923176401,"true"
"image-keyboard-response",511,677327,"0.0-4.166-1.166","bgb3o6ajcxzdq5q",979,"46.csv","","null","resources/maskTrios/L1BB.jpg","null","",NA,NA,NA,NA,""
"image-keyboard-response",512,678527,"0.0-4.166-2.166","bgb3o6ajcxzdq5q",979,"46.csv","","null","resources/images/coin2.png","null","",NA,NA,NA,NA,""
"image-keyboard-response",513,678682,"0.0-4.167-0.167","bgb3o6ajcxzdq5q",979,"46.csv","","156","resources/trios/L1T2A3.jpg","37","restless",0.8,0.5,0.2,0.714716423120773,"true"
"image-keyboard-response",514,679082,"0.0-4.167-1.167","bgb3o6ajcxzdq5q",979,"46.csv","","null","resources/maskTrios/L1BB.jpg","null","",NA,NA,NA,NA,""
"image-keyboard-response",515,680283,"0.0-4.167-2.167","bgb3o6ajcxzdq5q",979,"46.csv","","null","resources/images/coin2.png","null","",NA,NA,NA,NA,""
"image-keyboard-response",516,680469,"0.0-4.168-0.168","bgb3o6ajcxzdq5q",979,"46.csv","","186","resources/trios/L1T2A3.jpg","37","restless",0.8,0.5,0.3,0.242687564761731,"true"
"image-keyboard-response",517,680870,"0.0-4.168-1.168","bgb3o6ajcxzdq5q",979,"46.csv","","null","resources/maskTrios/L1BB.jpg","null","",NA,NA,NA,NA,""
"image-keyboard-response",518,682070,"0.0-4.168-2.168","bgb3o6ajcxzdq5q",979,"46.csv","","null","resources/images/coin2.png","null","",NA,NA,NA,NA,""
"image-keyboard-response",519,682174,"0.0-4.169-0.169","bgb3o6ajcxzdq5q",979,"46.csv","","103","resources/trios/L1T2A3.jpg","37","restless",0.8,0.6,0.4,0.657737805073511,"true"
"image-keyboard-response",520,682574,"0.0-4.169-1.169","bgb3o6ajcxzdq5q",979,"46.csv","","null","resources/maskTrios/L1BB.jpg","null","",NA,NA,NA,NA,""
"image-keyboard-response",521,683776,"0.0-4.169-2.169","bgb3o6ajcxzdq5q",979,"46.csv","","null","resources/images/coin2.png","null","",NA,NA,NA,NA,""
"image-keyboard-response",522,683815,"0.0-4.170-0.170","bgb3o6ajcxzdq5q",979,"46.csv","","39","resources/trios/L1T2A3.jpg","37","restless",0.8,0.6,0.4,0.607051761451087,"true"
"image-keyboard-response",523,684217,"0.0-4.170-1.170","bgb3o6ajcxzdq5q",979,"46.csv","","null","resources/maskTrios/L1BB.jpg","null","",NA,NA,NA,NA,""
"image-keyboard-response",524,685417,"0.0-4.170-2.170","bgb3o6ajcxzdq5q",979,"46.csv","","null","resources/images/coin2.png","null","",NA,NA,NA,NA,""
"image-keyboard-response",525,685646,"0.0-4.171-0.171","bgb3o6ajcxzdq5q",979,"46.csv","","227","resources/trios/L1T2A3.jpg","37","restless",0.8,0.5,0.4,0.378740861314146,"true"
"image-keyboard-response",526,686046,"0.0-4.171-1.171","bgb3o6ajcxzdq5q",979,"46.csv","","null","resources/maskTrios/L1BB.jpg","null","",NA,NA,NA,NA,""
"image-keyboard-response",527,687247,"0.0-4.171-2.171","bgb3o6ajcxzdq5q",979,"46.csv","","null","resources/images/coin2.png","null","",NA,NA,NA,NA,""
"image-keyboard-response",528,687430,"0.0-4.172-0.172","bgb3o6ajcxzdq5q",979,"46.csv","","181","resources/trios/L1T2A3.jpg","37","restless",0.8,0.5,0.4,0.559133468696649,"true"
"image-keyboard-response",529,687830,"0.0-4.172-1.172","bgb3o6ajcxzdq5q",979,"46.csv","","null","resources/maskTrios/L1BB.jpg","null","",NA,NA,NA,NA,""
"image-keyboard-response",530,689031,"0.0-4.172-2.172","bgb3o6ajcxzdq5q",979,"46.csv","","null","resources/images/coin2.png","null","",NA,NA,NA,NA,""
"image-keyboard-response",531,689336,"0.0-4.173-0.173","bgb3o6ajcxzdq5q",979,"46.csv","","304","resources/trios/L1T2A3.jpg","37","restless",0.8,0.5,0.4,0.993381485968906,"false"
"image-keyboard-response",532,689736,"0.0-4.173-1.173","bgb3o6ajcxzdq5q",979,"46.csv","","null","resources/maskTrios/L1BB.jpg","null","",NA,NA,NA,NA,""
"image-keyboard-response",533,690937,"0.0-4.173-2.173","bgb3o6ajcxzdq5q",979,"46.csv","","null","resources/images/fishbone.png","null","",NA,NA,NA,NA,""
"image-keyboard-response",534,691053,"0.0-4.174-0.174","bgb3o6ajcxzdq5q",979,"46.csv","","116","resources/trios/L1T2A3.jpg","38","restless",0.8,0.5,0.4,0.574114972739536,"false"
"image-keyboard-response",535,691455,"0.0-4.174-1.174","bgb3o6ajcxzdq5q",979,"46.csv","","null","resources/maskTrios/BT2B.jpg","null","",NA,NA,NA,NA,""
"image-keyboard-response",536,692655,"0.0-4.174-2.174","bgb3o6ajcxzdq5q",979,"46.csv","","null","resources/images/fishbone.png","null","",NA,NA,NA,NA,""
"image-keyboard-response",537,692703,"0.0-4.175-0.175","bgb3o6ajcxzdq5q",979,"46.csv","","48","resources/trios/L1T2A3.jpg","39","restless",0.8,0.5,0.4,0.013694765979247,"true"
"image-keyboard-response",538,693105,"0.0-4.175-1.175","bgb3o6ajcxzdq5q",979,"46.csv","","null","resources/maskTrios/BBA3.jpg","null","",NA,NA,NA,NA,""
"image-keyboard-response",539,694305,"0.0-4.175-2.175","bgb3o6ajcxzdq5q",979,"46.csv","","null","resources/images/coin2.png","null","",NA,NA,NA,NA,""
"image-keyboard-response",540,694659,"0.0-4.176-0.176","bgb3o6ajcxzdq5q",979,"46.csv","","355","resources/trios/L1T2A3.jpg","39","restless",0.8,0.5,0.4,0.614600634104785,"false"
"image-keyboard-response",541,695061,"0.0-4.176-1.176","bgb3o6ajcxzdq5q",979,"46.csv","","null","resources/maskTrios/BBA3.jpg","null","",NA,NA,NA,NA,""
"image-keyboard-response",542,696262,"0.0-4.176-2.176","bgb3o6ajcxzdq5q",979,"46.csv","","null","resources/images/fishbone.png","null","",NA,NA,NA,NA,""
"image-keyboard-response",543,696528,"0.0-4.177-0.177","bgb3o6ajcxzdq5q",979,"46.csv","","265","resources/trios/L1T2A3.jpg","37","restless",0.8,0.4,0.4,0.5357072574881,"true"
"image-keyboard-response",544,696929,"0.0-4.177-1.177","bgb3o6ajcxzdq5q",979,"46.csv","","null","resources/maskTrios/L1BB.jpg","null","",NA,NA,NA,NA,""
"image-keyboard-response",545,698129,"0.0-4.177-2.177","bgb3o6ajcxzdq5q",979,"46.csv","","null","resources/images/coin2.png","null","",NA,NA,NA,NA,""
"image-keyboard-response",546,698326,"0.0-4.178-0.178","bgb3o6ajcxzdq5q",979,"46.csv","","195","resources/trios/L1T2A3.jpg","37","restless",0.8,0.4,0.4,0.81253900174152,"false"
"image-keyboard-response",547,698727,"0.0-4.178-1.178","bgb3o6ajcxzdq5q",979,"46.csv","","null","resources/maskTrios/L1BB.jpg","null","",NA,NA,NA,NA,""
"image-keyboard-response",548,699928,"0.0-4.178-2.178","bgb3o6ajcxzdq5q",979,"46.csv","","null","resources/images/fishbone.png","null","",NA,NA,NA,NA,""
"image-keyboard-response",549,700096,"0.0-4.179-0.179","bgb3o6ajcxzdq5q",979,"46.csv","","169","resources/trios/L1T2A3.jpg","38","restless",0.8,0.4,0.4,0.700759501853516,"false"
"image-keyboard-response",550,700497,"0.0-4.179-1.179","bgb3o6ajcxzdq5q",979,"46.csv","","null","resources/maskTrios/BT2B.jpg","null","",NA,NA,NA,NA,""
"image-keyboard-response",551,701697,"0.0-4.179-2.179","bgb3o6ajcxzdq5q",979,"46.csv","","null","resources/images/fishbone.png","null","",NA,NA,NA,NA,""
"image-keyboard-response",552,701791,"0.0-4.180-0.180","bgb3o6ajcxzdq5q",979,"46.csv","","94","resources/trios/L1T2A3.jpg","39","restless",0.8,0.4,0.4,0.792859112982612,"false"
"image-keyboard-response",553,702192,"0.0-4.180-1.180","bgb3o6ajcxzdq5q",979,"46.csv","","null","resources/maskTrios/BBA3.jpg","null","",NA,NA,NA,NA,""
"image-keyboard-response",554,703392,"0.0-4.180-2.180","bgb3o6ajcxzdq5q",979,"46.csv","","null","resources/images/fishbone.png","null","",NA,NA,NA,NA,""
"image-keyboard-response",555,703567,"0.0-4.181-0.181","bgb3o6ajcxzdq5q",979,"46.csv","","174","resources/trios/L1T2A3.jpg","38","restless",0.8,0.4,0.4,0.444879578703842,"false"
"image-keyboard-response",556,703968,"0.0-4.181-1.181","bgb3o6ajcxzdq5q",979,"46.csv","","null","resources/maskTrios/BT2B.jpg","null","",NA,NA,NA,NA,""
"image-keyboard-response",557,705169,"0.0-4.181-2.181","bgb3o6ajcxzdq5q",979,"46.csv","","null","resources/images/fishbone.png","null","",NA,NA,NA,NA,""
"image-keyboard-response",558,705388,"0.0-4.182-0.182","bgb3o6ajcxzdq5q",979,"46.csv","","218","resources/trios/L1T2A3.jpg","37","restless",0.8,0.4,0.4,0.688695999396085,"true"
"image-keyboard-response",559,705789,"0.0-4.182-1.182","bgb3o6ajcxzdq5q",979,"46.csv","","null","resources/maskTrios/L1BB.jpg","null","",NA,NA,NA,NA,""
"image-keyboard-response",560,706990,"0.0-4.182-2.182","bgb3o6ajcxzdq5q",979,"46.csv","","null","resources/images/coin2.png","null","",NA,NA,NA,NA,""
"image-keyboard-response",561,729033,"0.0-4.183-0.183","bgb3o6ajcxzdq5q",979,"46.csv","","22042","resources/trios/L1T2A3.jpg","38","restless",0.8,0.4,0.4,0.766223261742178,"false"
"image-keyboard-response",562,729433,"0.0-4.183-1.183","bgb3o6ajcxzdq5q",979,"46.csv","","null","resources/maskTrios/BT2B.jpg","null","",NA,NA,NA,NA,""
"image-keyboard-response",563,730635,"0.0-4.183-2.183","bgb3o6ajcxzdq5q",979,"46.csv","","null","resources/images/fishbone.png","null","",NA,NA,NA,NA,""
"image-keyboard-response",564,731011,"0.0-4.184-0.184","bgb3o6ajcxzdq5q",979,"46.csv","","377","resources/trios/L1T2A3.jpg","37","restless",0.7,0.3,0.4,0.783852342490767,"false"
"image-keyboard-response",565,731411,"0.0-4.184-1.184","bgb3o6ajcxzdq5q",979,"46.csv","","null","resources/maskTrios/L1BB.jpg","null","",NA,NA,NA,NA,""
"image-keyboard-response",566,732612,"0.0-4.184-2.184","bgb3o6ajcxzdq5q",979,"46.csv","","null","resources/images/fishbone.png","null","",NA,NA,NA,NA,""
"image-keyboard-response",567,732847,"0.0-4.185-0.185","bgb3o6ajcxzdq5q",979,"46.csv","","235","resources/trios/L1T2A3.jpg","39","restless",0.7,0.3,0.4,0.890830340755774,"false"
"image-keyboard-response",568,733247,"0.0-4.185-1.185","bgb3o6ajcxzdq5q",979,"46.csv","","null","resources/maskTrios/BBA3.jpg","null","",NA,NA,NA,NA,""
"image-keyboard-response",569,734448,"0.0-4.185-2.185","bgb3o6ajcxzdq5q",979,"46.csv","","null","resources/images/fishbone.png","null","",NA,NA,NA,NA,""
"image-keyboard-response",570,740933,"0.0-4.186-0.186","bgb3o6ajcxzdq5q",979,"46.csv","","6484","resources/trios/L1T2A3.jpg","38","restless",0.7,0.3,0.4,0.809423294635992,"false"
"image-keyboard-response",571,741334,"0.0-4.186-1.186","bgb3o6ajcxzdq5q",979,"46.csv","","null","resources/maskTrios/BT2B.jpg","null","",NA,NA,NA,NA,""
"image-keyboard-response",572,742535,"0.0-4.186-2.186","bgb3o6ajcxzdq5q",979,"46.csv","","null","resources/images/fishbone.png","null","",NA,NA,NA,NA,""
"image-keyboard-response",573,742795,"0.0-4.187-0.187","bgb3o6ajcxzdq5q",979,"46.csv","","259","resources/trios/L1T2A3.jpg","37","restless",0.6,0.3,0.4,0.868374645816459,"false"
"image-keyboard-response",574,743195,"0.0-4.187-1.187","bgb3o6ajcxzdq5q",979,"46.csv","","null","resources/maskTrios/L1BB.jpg","null","",NA,NA,NA,NA,""
"image-keyboard-response",575,744396,"0.0-4.187-2.187","bgb3o6ajcxzdq5q",979,"46.csv","","null","resources/images/fishbone.png","null","",NA,NA,NA,NA,""
"image-keyboard-response",576,744604,"0.0-4.188-0.188","bgb3o6ajcxzdq5q",979,"46.csv","","209","resources/trios/L1T2A3.jpg","39","restless",0.6,0.3,0.4,0.705989428060928,"false"
"image-keyboard-response",577,745006,"0.0-4.188-1.188","bgb3o6ajcxzdq5q",979,"46.csv","","null","resources/maskTrios/BBA3.jpg","null","",NA,NA,NA,NA,""
"image-keyboard-response",578,746207,"0.0-4.188-2.188","bgb3o6ajcxzdq5q",979,"46.csv","","null","resources/images/fishbone.png","null","",NA,NA,NA,NA,""
"image-keyboard-response",579,746307,"0.0-4.189-0.189","bgb3o6ajcxzdq5q",979,"46.csv","","99","resources/trios/L1T2A3.jpg","38","restless",0.6,0.3,0.4,0.37076054361415,"false"
"image-keyboard-response",580,746707,"0.0-4.189-1.189","bgb3o6ajcxzdq5q",979,"46.csv","","null","resources/maskTrios/BT2B.jpg","null","",NA,NA,NA,NA,""
"image-keyboard-response",581,747908,"0.0-4.189-2.189","bgb3o6ajcxzdq5q",979,"46.csv","","null","resources/images/fishbone.png","null","",NA,NA,NA,NA,""
"image-keyboard-response",582,748010,"0.0-4.190-0.190","bgb3o6ajcxzdq5q",979,"46.csv","","101","resources/trios/L1T2A3.jpg","38","restless",0.6,0.3,0.4,0.959099043786711,"false"
"image-keyboard-response",583,748411,"0.0-4.190-1.190","bgb3o6ajcxzdq5q",979,"46.csv","","null","resources/maskTrios/BT2B.jpg","null","",NA,NA,NA,NA,""
"image-keyboard-response",584,749612,"0.0-4.190-2.190","bgb3o6ajcxzdq5q",979,"46.csv","","null","resources/images/fishbone.png","null","",NA,NA,NA,NA,""
"image-keyboard-response",585,749943,"0.0-4.191-0.191","bgb3o6ajcxzdq5q",979,"46.csv","","329","resources/trios/L1T2A3.jpg","37","restless",0.6,0.3,0.4,0.160633917362582,"true"
"image-keyboard-response",586,750345,"0.0-4.191-1.191","bgb3o6ajcxzdq5q",979,"46.csv","","null","resources/maskTrios/L1BB.jpg","null","",NA,NA,NA,NA,""
"image-keyboard-response",587,751546,"0.0-4.191-2.191","bgb3o6ajcxzdq5q",979,"46.csv","","null","resources/images/coin2.png","null","",NA,NA,NA,NA,""
"image-keyboard-response",588,751817,"0.0-4.192-0.192","bgb3o6ajcxzdq5q",979,"46.csv","","271","resources/trios/L1T2A3.jpg","37","restless",0.6,0.3,0.4,0.0876973466506356,"true"
"image-keyboard-response",589,752217,"0.0-4.192-1.192","bgb3o6ajcxzdq5q",979,"46.csv","","null","resources/maskTrios/L1BB.jpg","null","",NA,NA,NA,NA,""
"image-keyboard-response",590,753418,"0.0-4.192-2.192","bgb3o6ajcxzdq5q",979,"46.csv","","null","resources/images/coin2.png","null","",NA,NA,NA,NA,""
"image-keyboard-response",591,753724,"0.0-4.193-0.193","bgb3o6ajcxzdq5q",979,"46.csv","","306","resources/trios/L1T2A3.jpg","37","restless",0.6,0.2,0.4,0.200177556148239,"true"
"image-keyboard-response",592,754126,"0.0-4.193-1.193","bgb3o6ajcxzdq5q",979,"46.csv","","null","resources/maskTrios/L1BB.jpg","null","",NA,NA,NA,NA,""
"image-keyboard-response",593,755326,"0.0-4.193-2.193","bgb3o6ajcxzdq5q",979,"46.csv","","null","resources/images/coin2.png","null","",NA,NA,NA,NA,""
"image-keyboard-response",594,755563,"0.0-4.194-0.194","bgb3o6ajcxzdq5q",979,"46.csv","","236","resources/trios/L1T2A3.jpg","37","restless",0.6,0.3,0.4,0.632634337360245,"false"
"image-keyboard-response",595,755964,"0.0-4.194-1.194","bgb3o6ajcxzdq5q",979,"46.csv","","null","resources/maskTrios/L1BB.jpg","null","",NA,NA,NA,NA,""
"image-keyboard-response",596,757165,"0.0-4.194-2.194","bgb3o6ajcxzdq5q",979,"46.csv","","null","resources/images/fishbone.png","null","",NA,NA,NA,NA,""
"image-keyboard-response",597,757337,"0.0-4.195-0.195","bgb3o6ajcxzdq5q",979,"46.csv","","171","resources/trios/L1T2A3.jpg","39","restless",0.6,0.3,0.4,0.872191547538868,"false"
"image-keyboard-response",598,757738,"0.0-4.195-1.195","bgb3o6ajcxzdq5q",979,"46.csv","","null","resources/maskTrios/BBA3.jpg","null","",NA,NA,NA,NA,""
"image-keyboard-response",599,758938,"0.0-4.195-2.195","bgb3o6ajcxzdq5q",979,"46.csv","","null","resources/images/fishbone.png","null","",NA,NA,NA,NA,""
"image-keyboard-response",600,759789,"0.0-4.196-0.196","bgb3o6ajcxzdq5q",979,"46.csv","","851","resources/trios/L1T2A3.jpg","38","restless",0.5,0.3,0.4,0.955734573890907,"false"
"image-keyboard-response",601,760189,"0.0-4.196-1.196","bgb3o6ajcxzdq5q",979,"46.csv","","null","resources/maskTrios/BT2B.jpg","null","",NA,NA,NA,NA,""
"image-keyboard-response",602,761389,"0.0-4.196-2.196","bgb3o6ajcxzdq5q",979,"46.csv","","null","resources/images/fishbone.png","null","",NA,NA,NA,NA,""
"image-keyboard-response",603,761603,"0.0-4.197-0.197","bgb3o6ajcxzdq5q",979,"46.csv","","213","resources/trios/L1T2A3.jpg","38","restless",0.4,0.3,0.4,0.76399982002697,"false"
"image-keyboard-response",604,762003,"0.0-4.197-1.197","bgb3o6ajcxzdq5q",979,"46.csv","","null","resources/maskTrios/BT2B.jpg","null","",NA,NA,NA,NA,""
"image-keyboard-response",605,763204,"0.0-4.197-2.197","bgb3o6ajcxzdq5q",979,"46.csv","","null","resources/images/fishbone.png","null","",NA,NA,NA,NA,""
"image-keyboard-response",606,763476,"0.0-4.198-0.198","bgb3o6ajcxzdq5q",979,"46.csv","","273","resources/trios/L1T2A3.jpg","37","restless",0.4,0.3,0.4,0.0430782561795945,"true"
"image-keyboard-response",607,763877,"0.0-4.198-1.198","bgb3o6ajcxzdq5q",979,"46.csv","","null","resources/maskTrios/L1BB.jpg","null","",NA,NA,NA,NA,""
"image-keyboard-response",608,765077,"0.0-4.198-2.198","bgb3o6ajcxzdq5q",979,"46.csv","","null","resources/images/coin2.png","null","",NA,NA,NA,NA,""
"image-keyboard-response",609,765289,"0.0-4.199-0.199","bgb3o6ajcxzdq5q",979,"46.csv","","211","resources/trios/L1T2A3.jpg","37","restless",0.4,0.3,0.5,0.441131295344698,"false"
"image-keyboard-response",610,765690,"0.0-4.199-1.199","bgb3o6ajcxzdq5q",979,"46.csv","","null","resources/maskTrios/L1BB.jpg","null","",NA,NA,NA,NA,""
"image-keyboard-response",611,766892,"0.0-4.199-2.199","bgb3o6ajcxzdq5q",979,"46.csv","","null","resources/images/fishbone.png","null","",NA,NA,NA,NA,""
"survey-text",612,792197,"0.0-5.0","bgb3o6ajcxzdq5q",979,"46.csv","","25302","","","",NA,NA,NA,NA,""
