"trial_type","trial_index","time_elapsed","internal_node_id","subject","participantCode","walkNumber","success","rt","stimulus","key_press","test_part","leftProb","midProb","rightProb","generatedNum","correct"
"pavlovia",0,1214,"0.0-0.0","sobxwmu0guu06jt",269,"106.csv","","","","","",NA,NA,NA,NA,""
"fullscreen",1,5600,"0.0-1.0","sobxwmu0guu06jt",269,"106.csv","true","","","","",NA,NA,NA,NA,""
"survey-html-form",2,21834,"0.0-2.0","sobxwmu0guu06jt",269,"106.csv","","16232.600000023842","","","",NA,NA,NA,NA,""
"image-keyboard-response",3,52052,"0.0-3.0-0.0","sobxwmu0guu06jt",269,"106.csv","","30217.69999998808","resources/images/parrot_nobg.png","13","",NA,NA,NA,NA,""
"image-keyboard-response",4,55054,"0.0-3.0-1.0","sobxwmu0guu06jt",269,"106.csv","","null","resources/image_sets/111.png","null","",NA,NA,NA,NA,""
"image-keyboard-response",5,64682,"0.0-3.0-2.0","sobxwmu0guu06jt",269,"106.csv","","9627","resources/image_sets/left_highlight.png","37","",NA,NA,NA,NA,""
"image-keyboard-response",6,73187,"0.0-3.0-3.0","sobxwmu0guu06jt",269,"106.csv","","8504.600000023842","resources/image_sets/mid_highlight.png","38","",NA,NA,NA,NA,""
"image-keyboard-response",7,74720,"0.0-3.0-4.0","sobxwmu0guu06jt",269,"106.csv","","1531.6000000238419","resources/image_sets/right_highlight.png","39","",NA,NA,NA,NA,""
"image-keyboard-response",8,83197,"0.0-3.0-5.0","sobxwmu0guu06jt",269,"106.csv","","8476.5","resources/image_sets/111.png","13","",NA,NA,NA,NA,""
"image-keyboard-response",9,86804,"0.0-3.0-6.0","sobxwmu0guu06jt",269,"106.csv","","3605.699999988079","resources/images/coin2.png","13","",NA,NA,NA,NA,""
"image-keyboard-response",10,89740,"0.0-3.0-7.0","sobxwmu0guu06jt",269,"106.csv","","2935.199999988079","resources/images/fishbone.png","13","",NA,NA,NA,NA,""
"html-keyboard-response",11,99453,"0.0-3.0-8.0","sobxwmu0guu06jt",269,"106.csv","","9712.5","<p>You can track your coin total on the top right of your screen. </p><p>At the end of your journey you will be directed to a survey, so please click on the link before exiting the task</p><p>Press Enter to begin</p>","13","",NA,NA,NA,NA,""
"image-keyboard-response",12,104497,"0.0-4.0-0.0","sobxwmu0guu06jt",269,"106.csv","","5043.100000023842","resources/trios/L1T2A3.jpg","38","restless",0.9,0.3,0.7,0.553293106171625,"false"
"image-keyboard-response",13,104899,"0.0-4.0-1.0","sobxwmu0guu06jt",269,"106.csv","","null","resources/maskTrios/BT2B.jpg","null","",NA,NA,NA,NA,""
"image-keyboard-response",14,106101,"0.0-4.0-2.0","sobxwmu0guu06jt",269,"106.csv","","null","resources/images/fishbone.png","null","",NA,NA,NA,NA,""
"image-keyboard-response",15,110936,"0.0-4.1-0.1","sobxwmu0guu06jt",269,"106.csv","","4833.800000011921","resources/trios/L1T2A3.jpg","39","restless",0.9,0.3,0.7,0.000672318363699853,"true"
"image-keyboard-response",16,111338,"0.0-4.1-1.1","sobxwmu0guu06jt",269,"106.csv","","null","resources/maskTrios/BBA3.jpg","null","",NA,NA,NA,NA,""
"image-keyboard-response",17,112541,"0.0-4.1-2.1","sobxwmu0guu06jt",269,"106.csv","","null","resources/images/coin2.png","null","",NA,NA,NA,NA,""
"image-keyboard-response",18,113630,"0.0-4.2-0.2","sobxwmu0guu06jt",269,"106.csv","","1088.300000011921","resources/trios/L1T2A3.jpg","39","restless",0.8,0.3,0.7,0.131383754715584,"true"
"image-keyboard-response",19,114032,"0.0-4.2-1.2","sobxwmu0guu06jt",269,"106.csv","","null","resources/maskTrios/BBA3.jpg","null","",NA,NA,NA,NA,""
"image-keyboard-response",20,115235,"0.0-4.2-2.2","sobxwmu0guu06jt",269,"106.csv","","null","resources/images/coin2.png","null","",NA,NA,NA,NA,""
"image-keyboard-response",21,115727,"0.0-4.3-0.3","sobxwmu0guu06jt",269,"106.csv","","491.5","resources/trios/L1T2A3.jpg","37","restless",0.8,0.3,0.7,0.0253310961610977,"true"
"image-keyboard-response",22,116129,"0.0-4.3-1.3","sobxwmu0guu06jt",269,"106.csv","","null","resources/maskTrios/L1BB.jpg","null","",NA,NA,NA,NA,""
"image-keyboard-response",23,117330,"0.0-4.3-2.3","sobxwmu0guu06jt",269,"106.csv","","null","resources/images/coin2.png","null","",NA,NA,NA,NA,""
"image-keyboard-response",24,117775,"0.0-4.4-0.4","sobxwmu0guu06jt",269,"106.csv","","443.60000002384186","resources/trios/L1T2A3.jpg","38","restless",0.8,0.3,0.7,0.659245718690408,"false"
"image-keyboard-response",25,118177,"0.0-4.4-1.4","sobxwmu0guu06jt",269,"106.csv","","null","resources/maskTrios/BT2B.jpg","null","",NA,NA,NA,NA,""
"image-keyboard-response",26,119378,"0.0-4.4-2.4","sobxwmu0guu06jt",269,"106.csv","","null","resources/images/fishbone.png","null","",NA,NA,NA,NA,""
"image-keyboard-response",27,119835,"0.0-4.5-0.5","sobxwmu0guu06jt",269,"106.csv","","455.7000000476837","resources/trios/L1T2A3.jpg","39","restless",0.8,0.2,0.7,0.515100312761708,"true"
"image-keyboard-response",28,120237,"0.0-4.5-1.5","sobxwmu0guu06jt",269,"106.csv","","null","resources/maskTrios/BBA3.jpg","null","",NA,NA,NA,NA,""
"image-keyboard-response",29,121439,"0.0-4.5-2.5","sobxwmu0guu06jt",269,"106.csv","","null","resources/images/coin2.png","null","",NA,NA,NA,NA,""
"image-keyboard-response",30,121827,"0.0-4.6-0.6","sobxwmu0guu06jt",269,"106.csv","","386.5","resources/trios/L1T2A3.jpg","37","restless",0.8,0.2,0.7,0.755572879748963,"true"
"image-keyboard-response",31,122228,"0.0-4.6-1.6","sobxwmu0guu06jt",269,"106.csv","","null","resources/maskTrios/L1BB.jpg","null","",NA,NA,NA,NA,""
"image-keyboard-response",32,123431,"0.0-4.6-2.6","sobxwmu0guu06jt",269,"106.csv","","null","resources/images/coin2.png","null","",NA,NA,NA,NA,""
"image-keyboard-response",33,123835,"0.0-4.7-0.7","sobxwmu0guu06jt",269,"106.csv","","402.39999997615814","resources/trios/L1T2A3.jpg","39","restless",0.7,0.2,0.7,0.950523488135212,"false"
"image-keyboard-response",34,124237,"0.0-4.7-1.7","sobxwmu0guu06jt",269,"106.csv","","null","resources/maskTrios/BBA3.jpg","null","",NA,NA,NA,NA,""
"image-keyboard-response",35,125439,"0.0-4.7-2.7","sobxwmu0guu06jt",269,"106.csv","","null","resources/images/fishbone.png","null","",NA,NA,NA,NA,""
"image-keyboard-response",36,125807,"0.0-4.8-0.8","sobxwmu0guu06jt",269,"106.csv","","367.5999999642372","resources/trios/L1T2A3.jpg","38","restless",0.7,0.2,0.7,0.935806111829842,"false"
"image-keyboard-response",37,126209,"0.0-4.8-1.8","sobxwmu0guu06jt",269,"106.csv","","null","resources/maskTrios/BT2B.jpg","null","",NA,NA,NA,NA,""
"image-keyboard-response",38,127411,"0.0-4.8-2.8","sobxwmu0guu06jt",269,"106.csv","","null","resources/images/fishbone.png","null","",NA,NA,NA,NA,""
"image-keyboard-response",39,127948,"0.0-4.9-0.9","sobxwmu0guu06jt",269,"106.csv","","535.8000000119209","resources/trios/L1T2A3.jpg","37","restless",0.7,0.2,0.7,0.261649342350777,"true"
"image-keyboard-response",40,128349,"0.0-4.9-1.9","sobxwmu0guu06jt",269,"106.csv","","null","resources/maskTrios/L1BB.jpg","null","",NA,NA,NA,NA,""
"image-keyboard-response",41,129550,"0.0-4.9-2.9","sobxwmu0guu06jt",269,"106.csv","","null","resources/images/coin2.png","null","",NA,NA,NA,NA,""
"image-keyboard-response",42,129913,"0.0-4.10-0.10","sobxwmu0guu06jt",269,"106.csv","","361.30000001192093","resources/trios/L1T2A3.jpg","37","restless",0.7,0.2,0.7,0.0193901864572668,"true"
"image-keyboard-response",43,130315,"0.0-4.10-1.10","sobxwmu0guu06jt",269,"106.csv","","null","resources/maskTrios/L1BB.jpg","null","",NA,NA,NA,NA,""
"image-keyboard-response",44,131516,"0.0-4.10-2.10","sobxwmu0guu06jt",269,"106.csv","","null","resources/images/coin2.png","null","",NA,NA,NA,NA,""
"image-keyboard-response",45,131910,"0.0-4.11-0.11","sobxwmu0guu06jt",269,"106.csv","","393.39999997615814","resources/trios/L1T2A3.jpg","37","restless",0.7,0.2,0.7,0.0547851453334576,"true"
"image-keyboard-response",46,132313,"0.0-4.11-1.11","sobxwmu0guu06jt",269,"106.csv","","null","resources/maskTrios/L1BB.jpg","null","",NA,NA,NA,NA,""
"image-keyboard-response",47,133516,"0.0-4.11-2.11","sobxwmu0guu06jt",269,"106.csv","","null","resources/images/coin2.png","null","",NA,NA,NA,NA,""
"image-keyboard-response",48,134109,"0.0-4.12-0.12","sobxwmu0guu06jt",269,"106.csv","","591.9000000357628","resources/trios/L1T2A3.jpg","37","restless",0.7,0.2,0.7,0.85013313161646,"false"
"image-keyboard-response",49,134510,"0.0-4.12-1.12","sobxwmu0guu06jt",269,"106.csv","","null","resources/maskTrios/L1BB.jpg","null","",NA,NA,NA,NA,""
"image-keyboard-response",50,135711,"0.0-4.12-2.12","sobxwmu0guu06jt",269,"106.csv","","null","resources/images/fishbone.png","null","",NA,NA,NA,NA,""
"image-keyboard-response",51,136056,"0.0-4.13-0.13","sobxwmu0guu06jt",269,"106.csv","","344.2000000476837","resources/trios/L1T2A3.jpg","38","restless",0.7,0.2,0.7,0.811669102783263,"false"
"image-keyboard-response",52,136458,"0.0-4.13-1.13","sobxwmu0guu06jt",269,"106.csv","","null","resources/maskTrios/BT2B.jpg","null","",NA,NA,NA,NA,""
"image-keyboard-response",53,137659,"0.0-4.13-2.13","sobxwmu0guu06jt",269,"106.csv","","null","resources/images/fishbone.png","null","",NA,NA,NA,NA,""
"image-keyboard-response",54,137960,"0.0-4.14-0.14","sobxwmu0guu06jt",269,"106.csv","","299.39999997615814","resources/trios/L1T2A3.jpg","39","restless",0.7,0.2,0.7,0.327704121844311,"true"
"image-keyboard-response",55,138361,"0.0-4.14-1.14","sobxwmu0guu06jt",269,"106.csv","","null","resources/maskTrios/BBA3.jpg","null","",NA,NA,NA,NA,""
"image-keyboard-response",56,139563,"0.0-4.14-2.14","sobxwmu0guu06jt",269,"106.csv","","null","resources/images/coin2.png","null","",NA,NA,NA,NA,""
"image-keyboard-response",57,139935,"0.0-4.15-0.15","sobxwmu0guu06jt",269,"106.csv","","370.60000002384186","resources/trios/L1T2A3.jpg","39","restless",0.7,0.2,0.7,0.0837214358621514,"true"
"image-keyboard-response",58,140337,"0.0-4.15-1.15","sobxwmu0guu06jt",269,"106.csv","","null","resources/maskTrios/BBA3.jpg","null","",NA,NA,NA,NA,""
"image-keyboard-response",59,141539,"0.0-4.15-2.15","sobxwmu0guu06jt",269,"106.csv","","null","resources/images/coin2.png","null","",NA,NA,NA,NA,""
"image-keyboard-response",60,142437,"0.0-4.16-0.16","sobxwmu0guu06jt",269,"106.csv","","897.0999999642372","resources/trios/L1T2A3.jpg","39","restless",0.7,0.2,0.7,0.0552966306336111,"true"
"image-keyboard-response",61,142839,"0.0-4.16-1.16","sobxwmu0guu06jt",269,"106.csv","","null","resources/maskTrios/BBA3.jpg","null","",NA,NA,NA,NA,""
"image-keyboard-response",62,144040,"0.0-4.16-2.16","sobxwmu0guu06jt",269,"106.csv","","null","resources/images/coin2.png","null","",NA,NA,NA,NA,""
"image-keyboard-response",63,144963,"0.0-4.17-0.17","sobxwmu0guu06jt",269,"106.csv","","921.9000000357628","resources/trios/L1T2A3.jpg","37","restless",0.7,0.2,0.7,0.659073244449819,"true"
"image-keyboard-response",64,145365,"0.0-4.17-1.17","sobxwmu0guu06jt",269,"106.csv","","null","resources/maskTrios/L1BB.jpg","null","",NA,NA,NA,NA,""
"image-keyboard-response",65,146566,"0.0-4.17-2.17","sobxwmu0guu06jt",269,"106.csv","","null","resources/images/coin2.png","null","",NA,NA,NA,NA,""
"image-keyboard-response",66,146945,"0.0-4.18-0.18","sobxwmu0guu06jt",269,"106.csv","","378.10000002384186","resources/trios/L1T2A3.jpg","39","restless",0.7,0.3,0.7,0.917745710813069,"false"
"image-keyboard-response",67,147347,"0.0-4.18-1.18","sobxwmu0guu06jt",269,"106.csv","","null","resources/maskTrios/BBA3.jpg","null","",NA,NA,NA,NA,""
"image-keyboard-response",68,148548,"0.0-4.18-2.18","sobxwmu0guu06jt",269,"106.csv","","null","resources/images/fishbone.png","null","",NA,NA,NA,NA,""
"image-keyboard-response",69,148998,"0.0-4.19-0.19","sobxwmu0guu06jt",269,"106.csv","","449.19999998807907","resources/trios/L1T2A3.jpg","37","restless",0.7,0.3,0.7,0.422924407882885,"true"
"image-keyboard-response",70,149399,"0.0-4.19-1.19","sobxwmu0guu06jt",269,"106.csv","","null","resources/maskTrios/L1BB.jpg","null","",NA,NA,NA,NA,""
"image-keyboard-response",71,150602,"0.0-4.19-2.19","sobxwmu0guu06jt",269,"106.csv","","null","resources/images/coin2.png","null","",NA,NA,NA,NA,""
"image-keyboard-response",72,151023,"0.0-4.20-0.20","sobxwmu0guu06jt",269,"106.csv","","419.80000001192093","resources/trios/L1T2A3.jpg","37","restless",0.7,0.3,0.7,0.0676716068942633,"true"
"image-keyboard-response",73,151424,"0.0-4.20-1.20","sobxwmu0guu06jt",269,"106.csv","","null","resources/maskTrios/L1BB.jpg","null","",NA,NA,NA,NA,""
"image-keyboard-response",74,152626,"0.0-4.20-2.20","sobxwmu0guu06jt",269,"106.csv","","null","resources/images/coin2.png","null","",NA,NA,NA,NA,""
"image-keyboard-response",75,152968,"0.0-4.21-0.21","sobxwmu0guu06jt",269,"106.csv","","341.30000001192093","resources/trios/L1T2A3.jpg","37","restless",0.7,0.3,0.7,0.0707590427348836,"true"
"image-keyboard-response",76,153369,"0.0-4.21-1.21","sobxwmu0guu06jt",269,"106.csv","","null","resources/maskTrios/L1BB.jpg","null","",NA,NA,NA,NA,""
"image-keyboard-response",77,154571,"0.0-4.21-2.21","sobxwmu0guu06jt",269,"106.csv","","null","resources/images/coin2.png","null","",NA,NA,NA,NA,""
"image-keyboard-response",78,155035,"0.0-4.22-0.22","sobxwmu0guu06jt",269,"106.csv","","462.9000000357628","resources/trios/L1T2A3.jpg","37","restless",0.8,0.4,0.7,0.390957896180058,"true"
"image-keyboard-response",79,155438,"0.0-4.22-1.22","sobxwmu0guu06jt",269,"106.csv","","null","resources/maskTrios/L1BB.jpg","null","",NA,NA,NA,NA,""
"image-keyboard-response",80,156639,"0.0-4.22-2.22","sobxwmu0guu06jt",269,"106.csv","","null","resources/images/coin2.png","null","",NA,NA,NA,NA,""
"image-keyboard-response",81,157088,"0.0-4.23-0.23","sobxwmu0guu06jt",269,"106.csv","","448.7000000476837","resources/trios/L1T2A3.jpg","37","restless",0.8,0.4,0.7,0.665934475086412,"true"
"image-keyboard-response",82,157490,"0.0-4.23-1.23","sobxwmu0guu06jt",269,"106.csv","","null","resources/maskTrios/L1BB.jpg","null","",NA,NA,NA,NA,""
"image-keyboard-response",83,158691,"0.0-4.23-2.23","sobxwmu0guu06jt",269,"106.csv","","null","resources/images/coin2.png","null","",NA,NA,NA,NA,""
"image-keyboard-response",84,159694,"0.0-4.24-0.24","sobxwmu0guu06jt",269,"106.csv","","1002.3999999761581","resources/trios/L1T2A3.jpg","37","restless",0.8,0.4,0.7,0.844427783838333,"false"
"image-keyboard-response",85,160096,"0.0-4.24-1.24","sobxwmu0guu06jt",269,"106.csv","","null","resources/maskTrios/L1BB.jpg","null","",NA,NA,NA,NA,""
"image-keyboard-response",86,161298,"0.0-4.24-2.24","sobxwmu0guu06jt",269,"106.csv","","null","resources/images/fishbone.png","null","",NA,NA,NA,NA,""
"image-keyboard-response",87,161705,"0.0-4.25-0.25","sobxwmu0guu06jt",269,"106.csv","","406.5","resources/trios/L1T2A3.jpg","39","restless",0.8,0.4,0.7,0.257913217676046,"true"
"image-keyboard-response",88,162106,"0.0-4.25-1.25","sobxwmu0guu06jt",269,"106.csv","","null","resources/maskTrios/BBA3.jpg","null","",NA,NA,NA,NA,""
"image-keyboard-response",89,163307,"0.0-4.25-2.25","sobxwmu0guu06jt",269,"106.csv","","null","resources/images/coin2.png","null","",NA,NA,NA,NA,""
"image-keyboard-response",90,163678,"0.0-4.26-0.26","sobxwmu0guu06jt",269,"106.csv","","369.80000001192093","resources/trios/L1T2A3.jpg","39","restless",0.8,0.4,0.7,0.734588257495355,"false"
"image-keyboard-response",91,164079,"0.0-4.26-1.26","sobxwmu0guu06jt",269,"106.csv","","null","resources/maskTrios/BBA3.jpg","null","",NA,NA,NA,NA,""
"image-keyboard-response",92,165281,"0.0-4.26-2.26","sobxwmu0guu06jt",269,"106.csv","","null","resources/images/fishbone.png","null","",NA,NA,NA,NA,""
"image-keyboard-response",93,165656,"0.0-4.27-0.27","sobxwmu0guu06jt",269,"106.csv","","374.2999999523163","resources/trios/L1T2A3.jpg","37","restless",0.8,0.4,0.7,0.843024629572801,"false"
"image-keyboard-response",94,166057,"0.0-4.27-1.27","sobxwmu0guu06jt",269,"106.csv","","null","resources/maskTrios/L1BB.jpg","null","",NA,NA,NA,NA,""
"image-keyboard-response",95,167259,"0.0-4.27-2.27","sobxwmu0guu06jt",269,"106.csv","","null","resources/images/fishbone.png","null","",NA,NA,NA,NA,""
"image-keyboard-response",96,167603,"0.0-4.28-0.28","sobxwmu0guu06jt",269,"106.csv","","343.5","resources/trios/L1T2A3.jpg","38","restless",0.8,0.4,0.7,0.250203505738162,"true"
"image-keyboard-response",97,168005,"0.0-4.28-1.28","sobxwmu0guu06jt",269,"106.csv","","null","resources/maskTrios/BT2B.jpg","null","",NA,NA,NA,NA,""
"image-keyboard-response",98,169207,"0.0-4.28-2.28","sobxwmu0guu06jt",269,"106.csv","","null","resources/images/coin2.png","null","",NA,NA,NA,NA,""
"image-keyboard-response",99,169610,"0.0-4.29-0.29","sobxwmu0guu06jt",269,"106.csv","","401.9000000357628","resources/trios/L1T2A3.jpg","38","restless",0.7,0.4,0.7,0.37935490298655,"true"
"image-keyboard-response",100,170012,"0.0-4.29-1.29","sobxwmu0guu06jt",269,"106.csv","","null","resources/maskTrios/BT2B.jpg","null","",NA,NA,NA,NA,""
"image-keyboard-response",101,171213,"0.0-4.29-2.29","sobxwmu0guu06jt",269,"106.csv","","null","resources/images/coin2.png","null","",NA,NA,NA,NA,""
"image-keyboard-response",102,171602,"0.0-4.30-0.30","sobxwmu0guu06jt",269,"106.csv","","388.5","resources/trios/L1T2A3.jpg","38","restless",0.6,0.4,0.7,0.755515886140379,"false"
"image-keyboard-response",103,172003,"0.0-4.30-1.30","sobxwmu0guu06jt",269,"106.csv","","null","resources/maskTrios/BT2B.jpg","null","",NA,NA,NA,NA,""
"image-keyboard-response",104,173204,"0.0-4.30-2.30","sobxwmu0guu06jt",269,"106.csv","","null","resources/images/fishbone.png","null","",NA,NA,NA,NA,""
"image-keyboard-response",105,173504,"0.0-4.31-0.31","sobxwmu0guu06jt",269,"106.csv","","298.69999998807907","resources/trios/L1T2A3.jpg","37","restless",0.6,0.4,0.8,0.286903664488074,"true"
"image-keyboard-response",106,173905,"0.0-4.31-1.31","sobxwmu0guu06jt",269,"106.csv","","null","resources/maskTrios/L1BB.jpg","null","",NA,NA,NA,NA,""
"image-keyboard-response",107,175106,"0.0-4.31-2.31","sobxwmu0guu06jt",269,"106.csv","","null","resources/images/coin2.png","null","",NA,NA,NA,NA,""
"image-keyboard-response",108,175421,"0.0-4.32-0.32","sobxwmu0guu06jt",269,"106.csv","","313.9000000357628","resources/trios/L1T2A3.jpg","37","restless",0.6,0.4,0.8,0.083435207459021,"true"
"image-keyboard-response",109,175822,"0.0-4.32-1.32","sobxwmu0guu06jt",269,"106.csv","","null","resources/maskTrios/L1BB.jpg","null","",NA,NA,NA,NA,""
"image-keyboard-response",110,177024,"0.0-4.32-2.32","sobxwmu0guu06jt",269,"106.csv","","null","resources/images/coin2.png","null","",NA,NA,NA,NA,""
"image-keyboard-response",111,177333,"0.0-4.33-0.33","sobxwmu0guu06jt",269,"106.csv","","308.19999998807907","resources/trios/L1T2A3.jpg","37","restless",0.6,0.4,0.8,0.513201881555192,"true"
"image-keyboard-response",112,177734,"0.0-4.33-1.33","sobxwmu0guu06jt",269,"106.csv","","null","resources/maskTrios/L1BB.jpg","null","",NA,NA,NA,NA,""
"image-keyboard-response",113,178936,"0.0-4.33-2.33","sobxwmu0guu06jt",269,"106.csv","","null","resources/images/coin2.png","null","",NA,NA,NA,NA,""
"image-keyboard-response",114,179254,"0.0-4.34-0.34","sobxwmu0guu06jt",269,"106.csv","","317.69999998807907","resources/trios/L1T2A3.jpg","37","restless",0.6,0.4,0.8,0.542997473403503,"true"
"image-keyboard-response",115,179657,"0.0-4.34-1.34","sobxwmu0guu06jt",269,"106.csv","","null","resources/maskTrios/L1BB.jpg","null","",NA,NA,NA,NA,""
"image-keyboard-response",116,180860,"0.0-4.34-2.34","sobxwmu0guu06jt",269,"106.csv","","null","resources/images/coin2.png","null","",NA,NA,NA,NA,""
"image-keyboard-response",117,181206,"0.0-4.35-0.35","sobxwmu0guu06jt",269,"106.csv","","345.39999997615814","resources/trios/L1T2A3.jpg","37","restless",0.6,0.4,0.8,0.683574878166997,"false"
"image-keyboard-response",118,181608,"0.0-4.35-1.35","sobxwmu0guu06jt",269,"106.csv","","null","resources/maskTrios/L1BB.jpg","null","",NA,NA,NA,NA,""
"image-keyboard-response",119,182809,"0.0-4.35-2.35","sobxwmu0guu06jt",269,"106.csv","","null","resources/images/fishbone.png","null","",NA,NA,NA,NA,""
"image-keyboard-response",120,183194,"0.0-4.36-0.36","sobxwmu0guu06jt",269,"106.csv","","383.39999997615814","resources/trios/L1T2A3.jpg","39","restless",0.6,0.4,0.7,0.538656468886607,"true"
"image-keyboard-response",121,183595,"0.0-4.36-1.36","sobxwmu0guu06jt",269,"106.csv","","null","resources/maskTrios/BBA3.jpg","null","",NA,NA,NA,NA,""
"image-keyboard-response",122,184797,"0.0-4.36-2.36","sobxwmu0guu06jt",269,"106.csv","","null","resources/images/coin2.png","null","",NA,NA,NA,NA,""
"image-keyboard-response",123,185166,"0.0-4.37-0.37","sobxwmu0guu06jt",269,"106.csv","","368.19999998807907","resources/trios/L1T2A3.jpg","37","restless",0.6,0.4,0.7,0.285372045406241,"true"
"image-keyboard-response",124,185567,"0.0-4.37-1.37","sobxwmu0guu06jt",269,"106.csv","","null","resources/maskTrios/L1BB.jpg","null","",NA,NA,NA,NA,""
"image-keyboard-response",125,186769,"0.0-4.37-2.37","sobxwmu0guu06jt",269,"106.csv","","null","resources/images/coin2.png","null","",NA,NA,NA,NA,""
"image-keyboard-response",126,187102,"0.0-4.38-0.38","sobxwmu0guu06jt",269,"106.csv","","331.7000000476837","resources/trios/L1T2A3.jpg","37","restless",0.6,0.4,0.7,0.976780967183658,"false"
"image-keyboard-response",127,187504,"0.0-4.38-1.38","sobxwmu0guu06jt",269,"106.csv","","null","resources/maskTrios/L1BB.jpg","null","",NA,NA,NA,NA,""
"image-keyboard-response",128,188707,"0.0-4.38-2.38","sobxwmu0guu06jt",269,"106.csv","","null","resources/images/fishbone.png","null","",NA,NA,NA,NA,""
"image-keyboard-response",129,189004,"0.0-4.39-0.39","sobxwmu0guu06jt",269,"106.csv","","296","resources/trios/L1T2A3.jpg","38","restless",0.5,0.4,0.7,0.54537450187162,"false"
"image-keyboard-response",130,189405,"0.0-4.39-1.39","sobxwmu0guu06jt",269,"106.csv","","null","resources/maskTrios/BT2B.jpg","null","",NA,NA,NA,NA,""
"image-keyboard-response",131,190608,"0.0-4.39-2.39","sobxwmu0guu06jt",269,"106.csv","","null","resources/images/fishbone.png","null","",NA,NA,NA,NA,""
"image-keyboard-response",132,190886,"0.0-4.40-0.40","sobxwmu0guu06jt",269,"106.csv","","277.60000002384186","resources/trios/L1T2A3.jpg","39","restless",0.5,0.4,0.7,0.102999751350645,"true"
"image-keyboard-response",133,191287,"0.0-4.40-1.40","sobxwmu0guu06jt",269,"106.csv","","null","resources/maskTrios/BBA3.jpg","null","",NA,NA,NA,NA,""
"image-keyboard-response",134,192489,"0.0-4.40-2.40","sobxwmu0guu06jt",269,"106.csv","","null","resources/images/coin2.png","null","",NA,NA,NA,NA,""
"image-keyboard-response",135,192839,"0.0-4.41-0.41","sobxwmu0guu06jt",269,"106.csv","","349.5999999642372","resources/trios/L1T2A3.jpg","39","restless",0.5,0.4,0.6,0.330948275014845,"true"
"image-keyboard-response",136,193241,"0.0-4.41-1.41","sobxwmu0guu06jt",269,"106.csv","","null","resources/maskTrios/BBA3.jpg","null","",NA,NA,NA,NA,""
"image-keyboard-response",137,194443,"0.0-4.41-2.41","sobxwmu0guu06jt",269,"106.csv","","null","resources/images/coin2.png","null","",NA,NA,NA,NA,""
"image-keyboard-response",138,194895,"0.0-4.42-0.42","sobxwmu0guu06jt",269,"106.csv","","451","resources/trios/L1T2A3.jpg","39","restless",0.5,0.4,0.6,0.491192404351656,"true"
"image-keyboard-response",139,195296,"0.0-4.42-1.42","sobxwmu0guu06jt",269,"106.csv","","null","resources/maskTrios/BBA3.jpg","null","",NA,NA,NA,NA,""
"image-keyboard-response",140,196497,"0.0-4.42-2.42","sobxwmu0guu06jt",269,"106.csv","","null","resources/images/coin2.png","null","",NA,NA,NA,NA,""
"image-keyboard-response",141,196812,"0.0-4.43-0.43","sobxwmu0guu06jt",269,"106.csv","","313.69999998807907","resources/trios/L1T2A3.jpg","39","restless",0.5,0.4,0.6,0.178846996648989,"true"
"image-keyboard-response",142,197213,"0.0-4.43-1.43","sobxwmu0guu06jt",269,"106.csv","","null","resources/maskTrios/BBA3.jpg","null","",NA,NA,NA,NA,""
"image-keyboard-response",143,198414,"0.0-4.43-2.43","sobxwmu0guu06jt",269,"106.csv","","null","resources/images/coin2.png","null","",NA,NA,NA,NA,""
"image-keyboard-response",144,198834,"0.0-4.44-0.44","sobxwmu0guu06jt",269,"106.csv","","419","resources/trios/L1T2A3.jpg","39","restless",0.5,0.5,0.6,0.131018995246329,"true"
"image-keyboard-response",145,199236,"0.0-4.44-1.44","sobxwmu0guu06jt",269,"106.csv","","null","resources/maskTrios/BBA3.jpg","null","",NA,NA,NA,NA,""
"image-keyboard-response",146,200437,"0.0-4.44-2.44","sobxwmu0guu06jt",269,"106.csv","","null","resources/images/coin2.png","null","",NA,NA,NA,NA,""
"image-keyboard-response",147,200829,"0.0-4.45-0.45","sobxwmu0guu06jt",269,"106.csv","","390.2000000476837","resources/trios/L1T2A3.jpg","39","restless",0.5,0.6,0.6,0.361075345979374,"true"
"image-keyboard-response",148,201230,"0.0-4.45-1.45","sobxwmu0guu06jt",269,"106.csv","","null","resources/maskTrios/BBA3.jpg","null","",NA,NA,NA,NA,""
"image-keyboard-response",149,202431,"0.0-4.45-2.45","sobxwmu0guu06jt",269,"106.csv","","null","resources/images/coin2.png","null","",NA,NA,NA,NA,""
"image-keyboard-response",150,202761,"0.0-4.46-0.46","sobxwmu0guu06jt",269,"106.csv","","329.19999998807907","resources/trios/L1T2A3.jpg","39","restless",0.5,0.6,0.6,0.893171635925675,"false"
"image-keyboard-response",151,203163,"0.0-4.46-1.46","sobxwmu0guu06jt",269,"106.csv","","null","resources/maskTrios/BBA3.jpg","null","",NA,NA,NA,NA,""
"image-keyboard-response",152,204364,"0.0-4.46-2.46","sobxwmu0guu06jt",269,"106.csv","","null","resources/images/fishbone.png","null","",NA,NA,NA,NA,""
"image-keyboard-response",153,204653,"0.0-4.47-0.47","sobxwmu0guu06jt",269,"106.csv","","287.80000001192093","resources/trios/L1T2A3.jpg","37","restless",0.5,0.6,0.6,0.443099433974662,"true"
"image-keyboard-response",154,205054,"0.0-4.47-1.47","sobxwmu0guu06jt",269,"106.csv","","null","resources/maskTrios/L1BB.jpg","null","",NA,NA,NA,NA,""
"image-keyboard-response",155,206256,"0.0-4.47-2.47","sobxwmu0guu06jt",269,"106.csv","","null","resources/images/coin2.png","null","",NA,NA,NA,NA,""
"image-keyboard-response",156,206606,"0.0-4.48-0.48","sobxwmu0guu06jt",269,"106.csv","","349.5999999642372","resources/trios/L1T2A3.jpg","37","restless",0.4,0.6,0.6,0.316341756699239,"true"
"image-keyboard-response",157,207008,"0.0-4.48-1.48","sobxwmu0guu06jt",269,"106.csv","","null","resources/maskTrios/L1BB.jpg","null","",NA,NA,NA,NA,""
"image-keyboard-response",158,208210,"0.0-4.48-2.48","sobxwmu0guu06jt",269,"106.csv","","null","resources/images/coin2.png","null","",NA,NA,NA,NA,""
"image-keyboard-response",159,208477,"0.0-4.49-0.49","sobxwmu0guu06jt",269,"106.csv","","265.80000001192093","resources/trios/L1T2A3.jpg","37","restless",0.4,0.6,0.6,0.116769036967313,"true"
"image-keyboard-response",160,208878,"0.0-4.49-1.49","sobxwmu0guu06jt",269,"106.csv","","null","resources/maskTrios/L1BB.jpg","null","",NA,NA,NA,NA,""
"image-keyboard-response",161,210079,"0.0-4.49-2.49","sobxwmu0guu06jt",269,"106.csv","","null","resources/images/coin2.png","null","",NA,NA,NA,NA,""
"image-keyboard-response",162,210769,"0.0-4.50-0.50","sobxwmu0guu06jt",269,"106.csv","","688.8999999761581","resources/trios/L1T2A3.jpg","37","restless",0.4,0.5,0.6,0.611571730631016,"false"
"image-keyboard-response",163,211171,"0.0-4.50-1.50","sobxwmu0guu06jt",269,"106.csv","","null","resources/maskTrios/L1BB.jpg","null","",NA,NA,NA,NA,""
"image-keyboard-response",164,212372,"0.0-4.50-2.50","sobxwmu0guu06jt",269,"106.csv","","null","resources/images/fishbone.png","null","",NA,NA,NA,NA,""
"image-keyboard-response",165,212859,"0.0-4.51-0.51","sobxwmu0guu06jt",269,"106.csv","","486.5","resources/trios/L1T2A3.jpg","39","restless",0.3,0.5,0.6,0.120100614590118,"true"
"image-keyboard-response",166,213261,"0.0-4.51-1.51","sobxwmu0guu06jt",269,"106.csv","","null","resources/maskTrios/BBA3.jpg","null","",NA,NA,NA,NA,""
"image-keyboard-response",167,214463,"0.0-4.51-2.51","sobxwmu0guu06jt",269,"106.csv","","null","resources/images/coin2.png","null","",NA,NA,NA,NA,""
"image-keyboard-response",168,214830,"0.0-4.52-0.52","sobxwmu0guu06jt",269,"106.csv","","365.69999998807907","resources/trios/L1T2A3.jpg","39","restless",0.3,0.5,0.6,0.204531605352916,"true"
"image-keyboard-response",169,215231,"0.0-4.52-1.52","sobxwmu0guu06jt",269,"106.csv","","null","resources/maskTrios/BBA3.jpg","null","",NA,NA,NA,NA,""
"image-keyboard-response",170,216434,"0.0-4.52-2.52","sobxwmu0guu06jt",269,"106.csv","","null","resources/images/coin2.png","null","",NA,NA,NA,NA,""
"image-keyboard-response",171,216732,"0.0-4.53-0.53","sobxwmu0guu06jt",269,"106.csv","","296.80000001192093","resources/trios/L1T2A3.jpg","39","restless",0.3,0.5,0.6,0.345969982551215,"true"
"image-keyboard-response",172,217133,"0.0-4.53-1.53","sobxwmu0guu06jt",269,"106.csv","","null","resources/maskTrios/BBA3.jpg","null","",NA,NA,NA,NA,""
"image-keyboard-response",173,218335,"0.0-4.53-2.53","sobxwmu0guu06jt",269,"106.csv","","null","resources/images/coin2.png","null","",NA,NA,NA,NA,""
"image-keyboard-response",174,218669,"0.0-4.54-0.54","sobxwmu0guu06jt",269,"106.csv","","332.89999997615814","resources/trios/L1T2A3.jpg","39","restless",0.3,0.6,0.6,0.0628116914138759,"true"
"image-keyboard-response",175,219071,"0.0-4.54-1.54","sobxwmu0guu06jt",269,"106.csv","","null","resources/maskTrios/BBA3.jpg","null","",NA,NA,NA,NA,""
"image-keyboard-response",176,220272,"0.0-4.54-2.54","sobxwmu0guu06jt",269,"106.csv","","null","resources/images/coin2.png","null","",NA,NA,NA,NA,""
"image-keyboard-response",177,220335,"0.0-4.55-0.55","sobxwmu0guu06jt",269,"106.csv","","62.09999996423721","resources/trios/L1T2A3.jpg","39","restless",0.3,0.7,0.6,0.765979863852275,"false"
"image-keyboard-response",178,220737,"0.0-4.55-1.55","sobxwmu0guu06jt",269,"106.csv","","null","resources/maskTrios/BBA3.jpg","null","",NA,NA,NA,NA,""
"image-keyboard-response",179,221938,"0.0-4.55-2.55","sobxwmu0guu06jt",269,"106.csv","","null","resources/images/fishbone.png","null","",NA,NA,NA,NA,""
"image-keyboard-response",180,222238,"0.0-4.56-0.56","sobxwmu0guu06jt",269,"106.csv","","299.10000002384186","resources/trios/L1T2A3.jpg","37","restless",0.3,0.7,0.6,0.622283617602304,"false"
"image-keyboard-response",181,222639,"0.0-4.56-1.56","sobxwmu0guu06jt",269,"106.csv","","null","resources/maskTrios/L1BB.jpg","null","",NA,NA,NA,NA,""
"image-keyboard-response",182,223841,"0.0-4.56-2.56","sobxwmu0guu06jt",269,"106.csv","","null","resources/images/fishbone.png","null","",NA,NA,NA,NA,""
"image-keyboard-response",183,224133,"0.0-4.57-0.57","sobxwmu0guu06jt",269,"106.csv","","291.19999998807907","resources/trios/L1T2A3.jpg","38","restless",0.3,0.7,0.6,0.983350203507099,"false"
"image-keyboard-response",184,224534,"0.0-4.57-1.57","sobxwmu0guu06jt",269,"106.csv","","null","resources/maskTrios/BT2B.jpg","null","",NA,NA,NA,NA,""
"image-keyboard-response",185,225736,"0.0-4.57-2.57","sobxwmu0guu06jt",269,"106.csv","","null","resources/images/fishbone.png","null","",NA,NA,NA,NA,""
"image-keyboard-response",186,226095,"0.0-4.58-0.58","sobxwmu0guu06jt",269,"106.csv","","357.89999997615814","resources/trios/L1T2A3.jpg","39","restless",0.3,0.7,0.7,0.777133989654286,"false"
"image-keyboard-response",187,226496,"0.0-4.58-1.58","sobxwmu0guu06jt",269,"106.csv","","null","resources/maskTrios/BBA3.jpg","null","",NA,NA,NA,NA,""
"image-keyboard-response",188,227697,"0.0-4.58-2.58","sobxwmu0guu06jt",269,"106.csv","","null","resources/images/fishbone.png","null","",NA,NA,NA,NA,""
"image-keyboard-response",189,228226,"0.0-4.59-0.59","sobxwmu0guu06jt",269,"106.csv","","528.1999999880791","resources/trios/L1T2A3.jpg","37","restless",0.3,0.7,0.7,0.99018407348315,"false"
"image-keyboard-response",190,228629,"0.0-4.59-1.59","sobxwmu0guu06jt",269,"106.csv","","null","resources/maskTrios/L1BB.jpg","null","",NA,NA,NA,NA,""
"image-keyboard-response",191,229831,"0.0-4.59-2.59","sobxwmu0guu06jt",269,"106.csv","","null","resources/images/fishbone.png","null","",NA,NA,NA,NA,""
"image-keyboard-response",192,230324,"0.0-4.60-0.60","sobxwmu0guu06jt",269,"106.csv","","492.5","resources/trios/L1T2A3.jpg","38","restless",0.4,0.7,0.7,0.00349852424808605,"true"
"image-keyboard-response",193,230726,"0.0-4.60-1.60","sobxwmu0guu06jt",269,"106.csv","","null","resources/maskTrios/BT2B.jpg","null","",NA,NA,NA,NA,""
"image-keyboard-response",194,231927,"0.0-4.60-2.60","sobxwmu0guu06jt",269,"106.csv","","null","resources/images/coin2.png","null","",NA,NA,NA,NA,""
"image-keyboard-response",195,232314,"0.0-4.61-0.61","sobxwmu0guu06jt",269,"106.csv","","386.19999998807907","resources/trios/L1T2A3.jpg","38","restless",0.4,0.7,0.7,0.350885423407342,"true"
"image-keyboard-response",196,232716,"0.0-4.61-1.61","sobxwmu0guu06jt",269,"106.csv","","null","resources/maskTrios/BT2B.jpg","null","",NA,NA,NA,NA,""
"image-keyboard-response",197,233917,"0.0-4.61-2.61","sobxwmu0guu06jt",269,"106.csv","","null","resources/images/coin2.png","null","",NA,NA,NA,NA,""
"image-keyboard-response",198,234261,"0.0-4.62-0.62","sobxwmu0guu06jt",269,"106.csv","","342.89999997615814","resources/trios/L1T2A3.jpg","38","restless",0.4,0.7,0.7,0.922910073765626,"false"
"image-keyboard-response",199,234663,"0.0-4.62-1.62","sobxwmu0guu06jt",269,"106.csv","","null","resources/maskTrios/BT2B.jpg","null","",NA,NA,NA,NA,""
"image-keyboard-response",200,235864,"0.0-4.62-2.62","sobxwmu0guu06jt",269,"106.csv","","null","resources/images/fishbone.png","null","",NA,NA,NA,NA,""
"image-keyboard-response",201,236172,"0.0-4.63-0.63","sobxwmu0guu06jt",269,"106.csv","","305.89999997615814","resources/trios/L1T2A3.jpg","37","restless",0.4,0.7,0.7,0.544290219680225,"false"
"image-keyboard-response",202,236574,"0.0-4.63-1.63","sobxwmu0guu06jt",269,"106.csv","","null","resources/maskTrios/L1BB.jpg","null","",NA,NA,NA,NA,""
"image-keyboard-response",203,237775,"0.0-4.63-2.63","sobxwmu0guu06jt",269,"106.csv","","null","resources/images/fishbone.png","null","",NA,NA,NA,NA,""
"image-keyboard-response",204,238131,"0.0-4.64-0.64","sobxwmu0guu06jt",269,"106.csv","","354.60000002384186","resources/trios/L1T2A3.jpg","39","restless",0.4,0.7,0.7,0.55206520549396,"true"
"image-keyboard-response",205,238534,"0.0-4.64-1.64","sobxwmu0guu06jt",269,"106.csv","","null","resources/maskTrios/BBA3.jpg","null","",NA,NA,NA,NA,""
"image-keyboard-response",206,239736,"0.0-4.64-2.64","sobxwmu0guu06jt",269,"106.csv","","null","resources/images/coin2.png","null","",NA,NA,NA,NA,""
"image-keyboard-response",207,240160,"0.0-4.65-0.65","sobxwmu0guu06jt",269,"106.csv","","423.2000000476837","resources/trios/L1T2A3.jpg","39","restless",0.4,0.7,0.7,0.258337718143289,"true"
"image-keyboard-response",208,240562,"0.0-4.65-1.65","sobxwmu0guu06jt",269,"106.csv","","null","resources/maskTrios/BBA3.jpg","null","",NA,NA,NA,NA,""
"image-keyboard-response",209,241764,"0.0-4.65-2.65","sobxwmu0guu06jt",269,"106.csv","","null","resources/images/coin2.png","null","",NA,NA,NA,NA,""
"image-keyboard-response",210,242102,"0.0-4.66-0.66","sobxwmu0guu06jt",269,"106.csv","","336.9000000357628","resources/trios/L1T2A3.jpg","39","restless",0.4,0.8,0.7,0.849351045959933,"false"
"image-keyboard-response",211,242504,"0.0-4.66-1.66","sobxwmu0guu06jt",269,"106.csv","","null","resources/maskTrios/BBA3.jpg","null","",NA,NA,NA,NA,""
"image-keyboard-response",212,243705,"0.0-4.66-2.66","sobxwmu0guu06jt",269,"106.csv","","null","resources/images/fishbone.png","null","",NA,NA,NA,NA,""
"image-keyboard-response",213,244014,"0.0-4.67-0.67","sobxwmu0guu06jt",269,"106.csv","","308.30000001192093","resources/trios/L1T2A3.jpg","38","restless",0.4,0.8,0.8,0.540228839217136,"true"
"image-keyboard-response",214,244416,"0.0-4.67-1.67","sobxwmu0guu06jt",269,"106.csv","","null","resources/maskTrios/BT2B.jpg","null","",NA,NA,NA,NA,""
"image-keyboard-response",215,245618,"0.0-4.67-2.67","sobxwmu0guu06jt",269,"106.csv","","null","resources/images/coin2.png","null","",NA,NA,NA,NA,""
"image-keyboard-response",216,245962,"0.0-4.68-0.68","sobxwmu0guu06jt",269,"106.csv","","343.5","resources/trios/L1T2A3.jpg","38","restless",0.4,0.8,0.9,0.5886479631673,"true"
"image-keyboard-response",217,246363,"0.0-4.68-1.68","sobxwmu0guu06jt",269,"106.csv","","null","resources/maskTrios/BT2B.jpg","null","",NA,NA,NA,NA,""
"image-keyboard-response",218,247564,"0.0-4.68-2.68","sobxwmu0guu06jt",269,"106.csv","","null","resources/images/coin2.png","null","",NA,NA,NA,NA,""
"image-keyboard-response",219,247904,"0.0-4.69-0.69","sobxwmu0guu06jt",269,"106.csv","","338.80000001192093","resources/trios/L1T2A3.jpg","38","restless",0.4,0.8,0.9,0.184689644210086,"true"
"image-keyboard-response",220,248305,"0.0-4.69-1.69","sobxwmu0guu06jt",269,"106.csv","","null","resources/maskTrios/BT2B.jpg","null","",NA,NA,NA,NA,""
"image-keyboard-response",221,249507,"0.0-4.69-2.69","sobxwmu0guu06jt",269,"106.csv","","null","resources/images/coin2.png","null","",NA,NA,NA,NA,""
"image-keyboard-response",222,249814,"0.0-4.70-0.70","sobxwmu0guu06jt",269,"106.csv","","305.60000002384186","resources/trios/L1T2A3.jpg","38","restless",0.4,0.8,0.9,0.104560219143482,"true"
"image-keyboard-response",223,250215,"0.0-4.70-1.70","sobxwmu0guu06jt",269,"106.csv","","null","resources/maskTrios/BT2B.jpg","null","",NA,NA,NA,NA,""
"image-keyboard-response",224,251416,"0.0-4.70-2.70","sobxwmu0guu06jt",269,"106.csv","","null","resources/images/coin2.png","null","",NA,NA,NA,NA,""
"image-keyboard-response",225,251733,"0.0-4.71-0.71","sobxwmu0guu06jt",269,"106.csv","","314.80000001192093","resources/trios/L1T2A3.jpg","38","restless",0.4,0.8,0.9,0.773113363214945,"true"
"image-keyboard-response",226,252135,"0.0-4.71-1.71","sobxwmu0guu06jt",269,"106.csv","","null","resources/maskTrios/BT2B.jpg","null","",NA,NA,NA,NA,""
"image-keyboard-response",227,253336,"0.0-4.71-2.71","sobxwmu0guu06jt",269,"106.csv","","null","resources/images/coin2.png","null","",NA,NA,NA,NA,""
"image-keyboard-response",228,253659,"0.0-4.72-0.72","sobxwmu0guu06jt",269,"106.csv","","322","resources/trios/L1T2A3.jpg","38","restless",0.4,0.8,0.9,0.0605298530794938,"true"
"image-keyboard-response",229,254061,"0.0-4.72-1.72","sobxwmu0guu06jt",269,"106.csv","","null","resources/maskTrios/BT2B.jpg","null","",NA,NA,NA,NA,""
"image-keyboard-response",230,255262,"0.0-4.72-2.72","sobxwmu0guu06jt",269,"106.csv","","null","resources/images/coin2.png","null","",NA,NA,NA,NA,""
"image-keyboard-response",231,255623,"0.0-4.73-0.73","sobxwmu0guu06jt",269,"106.csv","","359.60000002384186","resources/trios/L1T2A3.jpg","38","restless",0.4,0.8,0.8,0.277498088367986,"true"
"image-keyboard-response",232,256024,"0.0-4.73-1.73","sobxwmu0guu06jt",269,"106.csv","","null","resources/maskTrios/BT2B.jpg","null","",NA,NA,NA,NA,""
"image-keyboard-response",233,257226,"0.0-4.73-2.73","sobxwmu0guu06jt",269,"106.csv","","null","resources/images/coin2.png","null","",NA,NA,NA,NA,""
"image-keyboard-response",234,257527,"0.0-4.74-0.74","sobxwmu0guu06jt",269,"106.csv","","299.2999999523163","resources/trios/L1T2A3.jpg","38","restless",0.4,0.8,0.8,0.258515627837943,"true"
"image-keyboard-response",235,257928,"0.0-4.74-1.74","sobxwmu0guu06jt",269,"106.csv","","null","resources/maskTrios/BT2B.jpg","null","",NA,NA,NA,NA,""
"image-keyboard-response",236,259129,"0.0-4.74-2.74","sobxwmu0guu06jt",269,"106.csv","","null","resources/images/coin2.png","null","",NA,NA,NA,NA,""
"image-keyboard-response",237,259488,"0.0-4.75-0.75","sobxwmu0guu06jt",269,"106.csv","","357.80000001192093","resources/trios/L1T2A3.jpg","38","restless",0.4,0.8,0.8,0.825869572219964,"false"
"image-keyboard-response",238,259890,"0.0-4.75-1.75","sobxwmu0guu06jt",269,"106.csv","","null","resources/maskTrios/BT2B.jpg","null","",NA,NA,NA,NA,""
"image-keyboard-response",239,261091,"0.0-4.75-2.75","sobxwmu0guu06jt",269,"106.csv","","null","resources/images/fishbone.png","null","",NA,NA,NA,NA,""
"image-keyboard-response",240,261415,"0.0-4.76-0.76","sobxwmu0guu06jt",269,"106.csv","","322.5","resources/trios/L1T2A3.jpg","37","restless",0.3,0.8,0.8,0.752003169405825,"false"
"image-keyboard-response",241,261816,"0.0-4.76-1.76","sobxwmu0guu06jt",269,"106.csv","","null","resources/maskTrios/L1BB.jpg","null","",NA,NA,NA,NA,""
"image-keyboard-response",242,263017,"0.0-4.76-2.76","sobxwmu0guu06jt",269,"106.csv","","null","resources/images/fishbone.png","null","",NA,NA,NA,NA,""
"image-keyboard-response",243,263384,"0.0-4.77-0.77","sobxwmu0guu06jt",269,"106.csv","","365.5999999642372","resources/trios/L1T2A3.jpg","39","restless",0.3,0.8,0.8,0.199532383876331,"true"
"image-keyboard-response",244,263786,"0.0-4.77-1.77","sobxwmu0guu06jt",269,"106.csv","","null","resources/maskTrios/BBA3.jpg","null","",NA,NA,NA,NA,""
"image-keyboard-response",245,264988,"0.0-4.77-2.77","sobxwmu0guu06jt",269,"106.csv","","null","resources/images/coin2.png","null","",NA,NA,NA,NA,""
"image-keyboard-response",246,265385,"0.0-4.78-0.78","sobxwmu0guu06jt",269,"106.csv","","396.60000002384186","resources/trios/L1T2A3.jpg","39","restless",0.3,0.9,0.8,0.105888607169734,"true"
"image-keyboard-response",247,265787,"0.0-4.78-1.78","sobxwmu0guu06jt",269,"106.csv","","null","resources/maskTrios/BBA3.jpg","null","",NA,NA,NA,NA,""
"image-keyboard-response",248,266989,"0.0-4.78-2.78","sobxwmu0guu06jt",269,"106.csv","","null","resources/images/coin2.png","null","",NA,NA,NA,NA,""
"image-keyboard-response",249,267309,"0.0-4.79-0.79","sobxwmu0guu06jt",269,"106.csv","","318.9000000357628","resources/trios/L1T2A3.jpg","39","restless",0.3,0.9,0.8,0.647445421693773,"true"
"image-keyboard-response",250,267710,"0.0-4.79-1.79","sobxwmu0guu06jt",269,"106.csv","","null","resources/maskTrios/BBA3.jpg","null","",NA,NA,NA,NA,""
"image-keyboard-response",251,268911,"0.0-4.79-2.79","sobxwmu0guu06jt",269,"106.csv","","null","resources/images/coin2.png","null","",NA,NA,NA,NA,""
"image-keyboard-response",252,269254,"0.0-4.80-0.80","sobxwmu0guu06jt",269,"106.csv","","342","resources/trios/L1T2A3.jpg","39","restless",0.3,0.9,0.8,0.348066175516816,"true"
"image-keyboard-response",253,269655,"0.0-4.80-1.80","sobxwmu0guu06jt",269,"106.csv","","null","resources/maskTrios/BBA3.jpg","null","",NA,NA,NA,NA,""
"image-keyboard-response",254,270857,"0.0-4.80-2.80","sobxwmu0guu06jt",269,"106.csv","","null","resources/images/coin2.png","null","",NA,NA,NA,NA,""
"image-keyboard-response",255,271150,"0.0-4.81-0.81","sobxwmu0guu06jt",269,"106.csv","","292.10000002384186","resources/trios/L1T2A3.jpg","39","restless",0.3,0.9,0.8,0.0170226041312982,"true"
"image-keyboard-response",256,271551,"0.0-4.81-1.81","sobxwmu0guu06jt",269,"106.csv","","null","resources/maskTrios/BBA3.jpg","null","",NA,NA,NA,NA,""
"image-keyboard-response",257,272753,"0.0-4.81-2.81","sobxwmu0guu06jt",269,"106.csv","","null","resources/images/coin2.png","null","",NA,NA,NA,NA,""
"image-keyboard-response",258,273030,"0.0-4.82-0.82","sobxwmu0guu06jt",269,"106.csv","","275.30000001192093","resources/trios/L1T2A3.jpg","39","restless",0.3,0.9,0.7,0.999903292918612,"false"
"image-keyboard-response",259,273431,"0.0-4.82-1.82","sobxwmu0guu06jt",269,"106.csv","","null","resources/maskTrios/BBA3.jpg","null","",NA,NA,NA,NA,""
"image-keyboard-response",260,274632,"0.0-4.82-2.82","sobxwmu0guu06jt",269,"106.csv","","null","resources/images/fishbone.png","null","",NA,NA,NA,NA,""
"image-keyboard-response",261,274961,"0.0-4.83-0.83","sobxwmu0guu06jt",269,"106.csv","","328.4000000357628","resources/trios/L1T2A3.jpg","37","restless",0.3,0.9,0.7,0.246256481829091,"true"
"image-keyboard-response",262,275363,"0.0-4.83-1.83","sobxwmu0guu06jt",269,"106.csv","","null","resources/maskTrios/L1BB.jpg","null","",NA,NA,NA,NA,""
"image-keyboard-response",263,276564,"0.0-4.83-2.83","sobxwmu0guu06jt",269,"106.csv","","null","resources/images/coin2.png","null","",NA,NA,NA,NA,""
"image-keyboard-response",264,276922,"0.0-4.84-0.84","sobxwmu0guu06jt",269,"106.csv","","355.89999997615814","resources/trios/L1T2A3.jpg","37","restless",0.3,0.9,0.7,0.401208556535802,"false"
"image-keyboard-response",265,277324,"0.0-4.84-1.84","sobxwmu0guu06jt",269,"106.csv","","null","resources/maskTrios/L1BB.jpg","null","",NA,NA,NA,NA,""
"image-keyboard-response",266,278526,"0.0-4.84-2.84","sobxwmu0guu06jt",269,"106.csv","","null","resources/images/fishbone.png","null","",NA,NA,NA,NA,""
"image-keyboard-response",267,278841,"0.0-4.85-0.85","sobxwmu0guu06jt",269,"106.csv","","314.69999998807907","resources/trios/L1T2A3.jpg","38","restless",0.3,0.9,0.7,0.235672815898258,"true"
"image-keyboard-response",268,279244,"0.0-4.85-1.85","sobxwmu0guu06jt",269,"106.csv","","null","resources/maskTrios/BT2B.jpg","null","",NA,NA,NA,NA,""
"image-keyboard-response",269,280446,"0.0-4.85-2.85","sobxwmu0guu06jt",269,"106.csv","","null","resources/images/coin2.png","null","",NA,NA,NA,NA,""
"image-keyboard-response",270,280728,"0.0-4.86-0.86","sobxwmu0guu06jt",269,"106.csv","","280.69999998807907","resources/trios/L1T2A3.jpg","38","restless",0.3,0.8,0.7,0.969155859890832,"false"
"image-keyboard-response",271,281131,"0.0-4.86-1.86","sobxwmu0guu06jt",269,"106.csv","","null","resources/maskTrios/BT2B.jpg","null","",NA,NA,NA,NA,""
"image-keyboard-response",272,282332,"0.0-4.86-2.86","sobxwmu0guu06jt",269,"106.csv","","null","resources/images/fishbone.png","null","",NA,NA,NA,NA,""
"image-keyboard-response",273,282632,"0.0-4.87-0.87","sobxwmu0guu06jt",269,"106.csv","","298.80000001192093","resources/trios/L1T2A3.jpg","39","restless",0.3,0.7,0.6,0.309561072072772,"true"
"image-keyboard-response",274,283035,"0.0-4.87-1.87","sobxwmu0guu06jt",269,"106.csv","","null","resources/maskTrios/BBA3.jpg","null","",NA,NA,NA,NA,""
"image-keyboard-response",275,284236,"0.0-4.87-2.87","sobxwmu0guu06jt",269,"106.csv","","null","resources/images/coin2.png","null","",NA,NA,NA,NA,""
"image-keyboard-response",276,284563,"0.0-4.88-0.88","sobxwmu0guu06jt",269,"106.csv","","326.10000002384186","resources/trios/L1T2A3.jpg","37","restless",0.3,0.6,0.6,0.782294427879187,"false"
"image-keyboard-response",277,284966,"0.0-4.88-1.88","sobxwmu0guu06jt",269,"106.csv","","null","resources/maskTrios/L1BB.jpg","null","",NA,NA,NA,NA,""
"image-keyboard-response",278,286167,"0.0-4.88-2.88","sobxwmu0guu06jt",269,"106.csv","","null","resources/images/fishbone.png","null","",NA,NA,NA,NA,""
"image-keyboard-response",279,286506,"0.0-4.89-0.89","sobxwmu0guu06jt",269,"106.csv","","338.30000001192093","resources/trios/L1T2A3.jpg","38","restless",0.3,0.6,0.6,0.27616865218015,"true"
"image-keyboard-response",280,286907,"0.0-4.89-1.89","sobxwmu0guu06jt",269,"106.csv","","null","resources/maskTrios/BT2B.jpg","null","",NA,NA,NA,NA,""
"image-keyboard-response",281,288108,"0.0-4.89-2.89","sobxwmu0guu06jt",269,"106.csv","","null","resources/images/coin2.png","null","",NA,NA,NA,NA,""
"image-keyboard-response",282,288431,"0.0-4.90-0.90","sobxwmu0guu06jt",269,"106.csv","","322.80000001192093","resources/trios/L1T2A3.jpg","39","restless",0.3,0.6,0.6,0.159859124710672,"true"
"image-keyboard-response",283,288833,"0.0-4.90-1.90","sobxwmu0guu06jt",269,"106.csv","","null","resources/maskTrios/BBA3.jpg","null","",NA,NA,NA,NA,""
"image-keyboard-response",284,290035,"0.0-4.90-2.90","sobxwmu0guu06jt",269,"106.csv","","null","resources/images/coin2.png","null","",NA,NA,NA,NA,""
"image-keyboard-response",285,290337,"0.0-4.91-0.91","sobxwmu0guu06jt",269,"106.csv","","301.19999998807907","resources/trios/L1T2A3.jpg","38","restless",0.3,0.6,0.6,0.978081401511788,"false"
"image-keyboard-response",286,290739,"0.0-4.91-1.91","sobxwmu0guu06jt",269,"106.csv","","null","resources/maskTrios/BT2B.jpg","null","",NA,NA,NA,NA,""
"image-keyboard-response",287,291942,"0.0-4.91-2.91","sobxwmu0guu06jt",269,"106.csv","","null","resources/images/fishbone.png","null","",NA,NA,NA,NA,""
"image-keyboard-response",288,292352,"0.0-4.92-0.92","sobxwmu0guu06jt",269,"106.csv","","409.39999997615814","resources/trios/L1T2A3.jpg","39","restless",0.3,0.6,0.6,0.195603185650382,"true"
"image-keyboard-response",289,292754,"0.0-4.92-1.92","sobxwmu0guu06jt",269,"106.csv","","null","resources/maskTrios/BBA3.jpg","null","",NA,NA,NA,NA,""
"image-keyboard-response",290,293957,"0.0-4.92-2.92","sobxwmu0guu06jt",269,"106.csv","","null","resources/images/coin2.png","null","",NA,NA,NA,NA,""
"image-keyboard-response",291,294288,"0.0-4.93-0.93","sobxwmu0guu06jt",269,"106.csv","","330.5","resources/trios/L1T2A3.jpg","37","restless",0.3,0.6,0.6,0.396954042662162,"false"
"image-keyboard-response",292,294691,"0.0-4.93-1.93","sobxwmu0guu06jt",269,"106.csv","","null","resources/maskTrios/L1BB.jpg","null","",NA,NA,NA,NA,""
"image-keyboard-response",293,295894,"0.0-4.93-2.93","sobxwmu0guu06jt",269,"106.csv","","null","resources/images/fishbone.png","null","",NA,NA,NA,NA,""
"image-keyboard-response",294,296279,"0.0-4.94-0.94","sobxwmu0guu06jt",269,"106.csv","","384.5","resources/trios/L1T2A3.jpg","39","restless",0.3,0.6,0.6,0.0570096891357554,"true"
"image-keyboard-response",295,296681,"0.0-4.94-1.94","sobxwmu0guu06jt",269,"106.csv","","null","resources/maskTrios/BBA3.jpg","null","",NA,NA,NA,NA,""
"image-keyboard-response",296,297883,"0.0-4.94-2.94","sobxwmu0guu06jt",269,"106.csv","","null","resources/images/coin2.png","null","",NA,NA,NA,NA,""
"image-keyboard-response",297,298243,"0.0-4.95-0.95","sobxwmu0guu06jt",269,"106.csv","","358.4000000357628","resources/trios/L1T2A3.jpg","39","restless",0.3,0.6,0.6,0.432275159895126,"true"
"image-keyboard-response",298,298644,"0.0-4.95-1.95","sobxwmu0guu06jt",269,"106.csv","","null","resources/maskTrios/BBA3.jpg","null","",NA,NA,NA,NA,""
"image-keyboard-response",299,299845,"0.0-4.95-2.95","sobxwmu0guu06jt",269,"106.csv","","null","resources/images/coin2.png","null","",NA,NA,NA,NA,""
"image-keyboard-response",300,300220,"0.0-4.96-0.96","sobxwmu0guu06jt",269,"106.csv","","373.89999997615814","resources/trios/L1T2A3.jpg","39","restless",0.4,0.6,0.6,0.912526161168481,"false"
"image-keyboard-response",301,300622,"0.0-4.96-1.96","sobxwmu0guu06jt",269,"106.csv","","null","resources/maskTrios/BBA3.jpg","null","",NA,NA,NA,NA,""
"image-keyboard-response",302,301824,"0.0-4.96-2.96","sobxwmu0guu06jt",269,"106.csv","","null","resources/images/fishbone.png","null","",NA,NA,NA,NA,""
"image-keyboard-response",303,302152,"0.0-4.97-0.97","sobxwmu0guu06jt",269,"106.csv","","326.30000001192093","resources/trios/L1T2A3.jpg","38","restless",0.4,0.6,0.5,0.260526986494663,"true"
"image-keyboard-response",304,302553,"0.0-4.97-1.97","sobxwmu0guu06jt",269,"106.csv","","null","resources/maskTrios/BT2B.jpg","null","",NA,NA,NA,NA,""
"image-keyboard-response",305,303756,"0.0-4.97-2.97","sobxwmu0guu06jt",269,"106.csv","","null","resources/images/coin2.png","null","",NA,NA,NA,NA,""
"image-keyboard-response",306,304151,"0.0-4.98-0.98","sobxwmu0guu06jt",269,"106.csv","","394.4000000357628","resources/trios/L1T2A3.jpg","38","restless",0.4,0.6,0.5,0.94770895671546,"false"
"image-keyboard-response",307,304553,"0.0-4.98-1.98","sobxwmu0guu06jt",269,"106.csv","","null","resources/maskTrios/BT2B.jpg","null","",NA,NA,NA,NA,""
"image-keyboard-response",308,305755,"0.0-4.98-2.98","sobxwmu0guu06jt",269,"106.csv","","null","resources/images/fishbone.png","null","",NA,NA,NA,NA,""
"image-keyboard-response",309,306029,"0.0-4.99-0.99","sobxwmu0guu06jt",269,"106.csv","","273.10000002384186","resources/trios/L1T2A3.jpg","37","restless",0.4,0.6,0.5,0.857757237366467,"false"
"image-keyboard-response",310,306431,"0.0-4.99-1.99","sobxwmu0guu06jt",269,"106.csv","","null","resources/maskTrios/L1BB.jpg","null","",NA,NA,NA,NA,""
"image-keyboard-response",311,307632,"0.0-4.99-2.99","sobxwmu0guu06jt",269,"106.csv","","null","resources/images/fishbone.png","null","",NA,NA,NA,NA,""
"image-keyboard-response",312,307965,"0.0-4.100-0.100","sobxwmu0guu06jt",269,"106.csv","","331.60000002384186","resources/trios/L1T2A3.jpg","39","restless",0.4,0.6,0.5,0.514192207367358,"false"
"image-keyboard-response",313,308367,"0.0-4.100-1.100","sobxwmu0guu06jt",269,"106.csv","","null","resources/maskTrios/BBA3.jpg","null","",NA,NA,NA,NA,""
"image-keyboard-response",314,309568,"0.0-4.100-2.100","sobxwmu0guu06jt",269,"106.csv","","null","resources/images/fishbone.png","null","",NA,NA,NA,NA,""
"image-keyboard-response",315,311871,"0.0-4.101-0.101","sobxwmu0guu06jt",269,"106.csv","","2302.100000023842","resources/trios/L1T2A3.jpg","38","restless",0.4,0.6,0.5,0.991338645469815,"false"
"image-keyboard-response",316,312273,"0.0-4.101-1.101","sobxwmu0guu06jt",269,"106.csv","","null","resources/maskTrios/BT2B.jpg","null","",NA,NA,NA,NA,""
"image-keyboard-response",317,313474,"0.0-4.101-2.101","sobxwmu0guu06jt",269,"106.csv","","null","resources/images/fishbone.png","null","",NA,NA,NA,NA,""
"image-keyboard-response",318,313794,"0.0-4.102-0.102","sobxwmu0guu06jt",269,"106.csv","","317.7999999523163","resources/trios/L1T2A3.jpg","39","restless",0.4,0.6,0.5,0.369258562376497,"true"
"image-keyboard-response",319,314194,"0.0-4.102-1.102","sobxwmu0guu06jt",269,"106.csv","","null","resources/maskTrios/BBA3.jpg","null","",NA,NA,NA,NA,""
"image-keyboard-response",320,315396,"0.0-4.102-2.102","sobxwmu0guu06jt",269,"106.csv","","null","resources/images/coin2.png","null","",NA,NA,NA,NA,""
"image-keyboard-response",321,315766,"0.0-4.103-0.103","sobxwmu0guu06jt",269,"106.csv","","369.60000002384186","resources/trios/L1T2A3.jpg","39","restless",0.4,0.6,0.5,0.834893656909402,"false"
"image-keyboard-response",322,316168,"0.0-4.103-1.103","sobxwmu0guu06jt",269,"106.csv","","null","resources/maskTrios/BBA3.jpg","null","",NA,NA,NA,NA,""
"image-keyboard-response",323,317371,"0.0-4.103-2.103","sobxwmu0guu06jt",269,"106.csv","","null","resources/images/fishbone.png","null","",NA,NA,NA,NA,""
"image-keyboard-response",324,317680,"0.0-4.104-0.104","sobxwmu0guu06jt",269,"106.csv","","307.5","resources/trios/L1T2A3.jpg","37","restless",0.4,0.6,0.5,0.189371656244736,"true"
"image-keyboard-response",325,318081,"0.0-4.104-1.104","sobxwmu0guu06jt",269,"106.csv","","null","resources/maskTrios/L1BB.jpg","null","",NA,NA,NA,NA,""
"image-keyboard-response",326,319283,"0.0-4.104-2.104","sobxwmu0guu06jt",269,"106.csv","","null","resources/images/coin2.png","null","",NA,NA,NA,NA,""
"image-keyboard-response",327,319631,"0.0-4.105-0.105","sobxwmu0guu06jt",269,"106.csv","","347.39999997615814","resources/trios/L1T2A3.jpg","37","restless",0.4,0.6,0.5,0.952618577035279,"false"
"image-keyboard-response",328,320033,"0.0-4.105-1.105","sobxwmu0guu06jt",269,"106.csv","","null","resources/maskTrios/L1BB.jpg","null","",NA,NA,NA,NA,""
"image-keyboard-response",329,321235,"0.0-4.105-2.105","sobxwmu0guu06jt",269,"106.csv","","null","resources/images/fishbone.png","null","",NA,NA,NA,NA,""
"image-keyboard-response",330,321553,"0.0-4.106-0.106","sobxwmu0guu06jt",269,"106.csv","","317.89999997615814","resources/trios/L1T2A3.jpg","38","restless",0.4,0.6,0.5,0.320111049735769,"true"
"image-keyboard-response",331,321954,"0.0-4.106-1.106","sobxwmu0guu06jt",269,"106.csv","","null","resources/maskTrios/BT2B.jpg","null","",NA,NA,NA,NA,""
"image-keyboard-response",332,323155,"0.0-4.106-2.106","sobxwmu0guu06jt",269,"106.csv","","null","resources/images/coin2.png","null","",NA,NA,NA,NA,""
"image-keyboard-response",333,323763,"0.0-4.107-0.107","sobxwmu0guu06jt",269,"106.csv","","606.5","resources/trios/L1T2A3.jpg","38","restless",0.4,0.6,0.5,0.438168141747469,"true"
"image-keyboard-response",334,324165,"0.0-4.107-1.107","sobxwmu0guu06jt",269,"106.csv","","null","resources/maskTrios/BT2B.jpg","null","",NA,NA,NA,NA,""
"image-keyboard-response",335,325366,"0.0-4.107-2.107","sobxwmu0guu06jt",269,"106.csv","","null","resources/images/coin2.png","null","",NA,NA,NA,NA,""
"image-keyboard-response",336,327156,"0.0-4.108-0.108","sobxwmu0guu06jt",269,"106.csv","","1789.0999999642372","resources/trios/L1T2A3.jpg","38","restless",0.4,0.6,0.5,0.619828776258494,"false"
"image-keyboard-response",337,327559,"0.0-4.108-1.108","sobxwmu0guu06jt",269,"106.csv","","null","resources/maskTrios/BT2B.jpg","null","",NA,NA,NA,NA,""
"image-keyboard-response",338,328760,"0.0-4.108-2.108","sobxwmu0guu06jt",269,"106.csv","","null","resources/images/fishbone.png","null","",NA,NA,NA,NA,""
"image-keyboard-response",339,329154,"0.0-4.109-0.109","sobxwmu0guu06jt",269,"106.csv","","391.89999997615814","resources/trios/L1T2A3.jpg","39","restless",0.4,0.6,0.5,0.216297785697768,"true"
"image-keyboard-response",340,329556,"0.0-4.109-1.109","sobxwmu0guu06jt",269,"106.csv","","null","resources/maskTrios/BBA3.jpg","null","",NA,NA,NA,NA,""
"image-keyboard-response",341,330758,"0.0-4.109-2.109","sobxwmu0guu06jt",269,"106.csv","","null","resources/images/coin2.png","null","",NA,NA,NA,NA,""
"image-keyboard-response",342,331176,"0.0-4.110-0.110","sobxwmu0guu06jt",269,"106.csv","","416","resources/trios/L1T2A3.jpg","39","restless",0.4,0.6,0.5,0.341262663918168,"true"
"image-keyboard-response",343,331578,"0.0-4.110-1.110","sobxwmu0guu06jt",269,"106.csv","","null","resources/maskTrios/BBA3.jpg","null","",NA,NA,NA,NA,""
"image-keyboard-response",344,332779,"0.0-4.110-2.110","sobxwmu0guu06jt",269,"106.csv","","null","resources/images/coin2.png","null","",NA,NA,NA,NA,""
"image-keyboard-response",345,333215,"0.0-4.111-0.111","sobxwmu0guu06jt",269,"106.csv","","435","resources/trios/L1T2A3.jpg","39","restless",0.4,0.6,0.5,0.732134959836493,"false"
"image-keyboard-response",346,333617,"0.0-4.111-1.111","sobxwmu0guu06jt",269,"106.csv","","null","resources/maskTrios/BBA3.jpg","null","",NA,NA,NA,NA,""
"image-keyboard-response",347,334818,"0.0-4.111-2.111","sobxwmu0guu06jt",269,"106.csv","","null","resources/images/fishbone.png","null","",NA,NA,NA,NA,""
"image-keyboard-response",348,335338,"0.0-4.112-0.112","sobxwmu0guu06jt",269,"106.csv","","518.2000000476837","resources/trios/L1T2A3.jpg","37","restless",0.4,0.6,0.5,0.625620366880734,"false"
"image-keyboard-response",349,335739,"0.0-4.112-1.112","sobxwmu0guu06jt",269,"106.csv","","null","resources/maskTrios/L1BB.jpg","null","",NA,NA,NA,NA,""
"image-keyboard-response",350,336941,"0.0-4.112-2.112","sobxwmu0guu06jt",269,"106.csv","","null","resources/images/fishbone.png","null","",NA,NA,NA,NA,""
"image-keyboard-response",351,337307,"0.0-4.113-0.113","sobxwmu0guu06jt",269,"106.csv","","365.2000000476837","resources/trios/L1T2A3.jpg","39","restless",0.4,0.6,0.5,0.350901905423722,"true"
"image-keyboard-response",352,337709,"0.0-4.113-1.113","sobxwmu0guu06jt",269,"106.csv","","null","resources/maskTrios/BBA3.jpg","null","",NA,NA,NA,NA,""
"image-keyboard-response",353,338911,"0.0-4.113-2.113","sobxwmu0guu06jt",269,"106.csv","","null","resources/images/coin2.png","null","",NA,NA,NA,NA,""
"image-keyboard-response",354,339262,"0.0-4.114-0.114","sobxwmu0guu06jt",269,"106.csv","","350.0999999642372","resources/trios/L1T2A3.jpg","39","restless",0.4,0.6,0.5,0.112792487834398,"true"
"image-keyboard-response",355,339663,"0.0-4.114-1.114","sobxwmu0guu06jt",269,"106.csv","","null","resources/maskTrios/BBA3.jpg","null","",NA,NA,NA,NA,""
"image-keyboard-response",356,340865,"0.0-4.114-2.114","sobxwmu0guu06jt",269,"106.csv","","null","resources/images/coin2.png","null","",NA,NA,NA,NA,""
"image-keyboard-response",357,341296,"0.0-4.115-0.115","sobxwmu0guu06jt",269,"106.csv","","429.30000001192093","resources/trios/L1T2A3.jpg","39","restless",0.4,0.6,0.5,0.0104508333006745,"true"
"image-keyboard-response",358,341698,"0.0-4.115-1.115","sobxwmu0guu06jt",269,"106.csv","","null","resources/maskTrios/BBA3.jpg","null","",NA,NA,NA,NA,""
"image-keyboard-response",359,342899,"0.0-4.115-2.115","sobxwmu0guu06jt",269,"106.csv","","null","resources/images/coin2.png","null","",NA,NA,NA,NA,""
"image-keyboard-response",360,343224,"0.0-4.116-0.116","sobxwmu0guu06jt",269,"106.csv","","323.5","resources/trios/L1T2A3.jpg","39","restless",0.4,0.6,0.5,0.695990218267694,"false"
"image-keyboard-response",361,343626,"0.0-4.116-1.116","sobxwmu0guu06jt",269,"106.csv","","null","resources/maskTrios/BBA3.jpg","null","",NA,NA,NA,NA,""
"image-keyboard-response",362,344828,"0.0-4.116-2.116","sobxwmu0guu06jt",269,"106.csv","","null","resources/images/fishbone.png","null","",NA,NA,NA,NA,""
"image-keyboard-response",363,345520,"0.0-4.117-0.117","sobxwmu0guu06jt",269,"106.csv","","690.7999999523163","resources/trios/L1T2A3.jpg","38","restless",0.4,0.6,0.5,0.875482516619287,"false"
"image-keyboard-response",364,345922,"0.0-4.117-1.117","sobxwmu0guu06jt",269,"106.csv","","null","resources/maskTrios/BT2B.jpg","null","",NA,NA,NA,NA,""
"image-keyboard-response",365,347123,"0.0-4.117-2.117","sobxwmu0guu06jt",269,"106.csv","","null","resources/images/fishbone.png","null","",NA,NA,NA,NA,""
"image-keyboard-response",366,347393,"0.0-4.118-0.118","sobxwmu0guu06jt",269,"106.csv","","268.69999998807907","resources/trios/L1T2A3.jpg","39","restless",0.4,0.6,0.5,0.342499003365172,"true"
"image-keyboard-response",367,347794,"0.0-4.118-1.118","sobxwmu0guu06jt",269,"106.csv","","null","resources/maskTrios/BBA3.jpg","null","",NA,NA,NA,NA,""
"image-keyboard-response",368,348997,"0.0-4.118-2.118","sobxwmu0guu06jt",269,"106.csv","","null","resources/images/coin2.png","null","",NA,NA,NA,NA,""
"image-keyboard-response",369,349374,"0.0-4.119-0.119","sobxwmu0guu06jt",269,"106.csv","","376.19999998807907","resources/trios/L1T2A3.jpg","39","restless",0.4,0.6,0.5,0.413930585501381,"true"
"image-keyboard-response",370,349778,"0.0-4.119-1.119","sobxwmu0guu06jt",269,"106.csv","","null","resources/maskTrios/BBA3.jpg","null","",NA,NA,NA,NA,""
"image-keyboard-response",371,350979,"0.0-4.119-2.119","sobxwmu0guu06jt",269,"106.csv","","null","resources/images/coin2.png","null","",NA,NA,NA,NA,""
"image-keyboard-response",372,351359,"0.0-4.120-0.120","sobxwmu0guu06jt",269,"106.csv","","378.9000000357628","resources/trios/L1T2A3.jpg","39","restless",0.4,0.6,0.5,0.201498409623384,"true"
"image-keyboard-response",373,351761,"0.0-4.120-1.120","sobxwmu0guu06jt",269,"106.csv","","null","resources/maskTrios/BBA3.jpg","null","",NA,NA,NA,NA,""
"image-keyboard-response",374,352962,"0.0-4.120-2.120","sobxwmu0guu06jt",269,"106.csv","","null","resources/images/coin2.png","null","",NA,NA,NA,NA,""
"image-keyboard-response",375,353273,"0.0-4.121-0.121","sobxwmu0guu06jt",269,"106.csv","","309.10000002384186","resources/trios/L1T2A3.jpg","39","restless",0.5,0.6,0.6,0.136514900096688,"true"
"image-keyboard-response",376,353675,"0.0-4.121-1.121","sobxwmu0guu06jt",269,"106.csv","","null","resources/maskTrios/BBA3.jpg","null","",NA,NA,NA,NA,""
"image-keyboard-response",377,354877,"0.0-4.121-2.121","sobxwmu0guu06jt",269,"106.csv","","null","resources/images/coin2.png","null","",NA,NA,NA,NA,""
"image-keyboard-response",378,355167,"0.0-4.122-0.122","sobxwmu0guu06jt",269,"106.csv","","289.39999997615814","resources/trios/L1T2A3.jpg","39","restless",0.5,0.6,0.6,0.953187851928386,"false"
"image-keyboard-response",379,355569,"0.0-4.122-1.122","sobxwmu0guu06jt",269,"106.csv","","null","resources/maskTrios/BBA3.jpg","null","",NA,NA,NA,NA,""
"image-keyboard-response",380,356770,"0.0-4.122-2.122","sobxwmu0guu06jt",269,"106.csv","","null","resources/images/fishbone.png","null","",NA,NA,NA,NA,""
"image-keyboard-response",381,357150,"0.0-4.123-0.123","sobxwmu0guu06jt",269,"106.csv","","378.80000001192093","resources/trios/L1T2A3.jpg","37","restless",0.5,0.6,0.5,0.298721976869297,"true"
"image-keyboard-response",382,357552,"0.0-4.123-1.123","sobxwmu0guu06jt",269,"106.csv","","null","resources/maskTrios/L1BB.jpg","null","",NA,NA,NA,NA,""
"image-keyboard-response",383,358754,"0.0-4.123-2.123","sobxwmu0guu06jt",269,"106.csv","","null","resources/images/coin2.png","null","",NA,NA,NA,NA,""
"image-keyboard-response",384,359161,"0.0-4.124-0.124","sobxwmu0guu06jt",269,"106.csv","","405.69999998807907","resources/trios/L1T2A3.jpg","37","restless",0.5,0.6,0.5,0.993303569802103,"false"
"image-keyboard-response",385,359563,"0.0-4.124-1.124","sobxwmu0guu06jt",269,"106.csv","","null","resources/maskTrios/L1BB.jpg","null","",NA,NA,NA,NA,""
"image-keyboard-response",386,360765,"0.0-4.124-2.124","sobxwmu0guu06jt",269,"106.csv","","null","resources/images/fishbone.png","null","",NA,NA,NA,NA,""
"image-keyboard-response",387,361113,"0.0-4.125-0.125","sobxwmu0guu06jt",269,"106.csv","","347.30000001192093","resources/trios/L1T2A3.jpg","39","restless",0.5,0.7,0.5,0.0817168983093697,"true"
"image-keyboard-response",388,361514,"0.0-4.125-1.125","sobxwmu0guu06jt",269,"106.csv","","null","resources/maskTrios/BBA3.jpg","null","",NA,NA,NA,NA,""
"image-keyboard-response",389,362717,"0.0-4.125-2.125","sobxwmu0guu06jt",269,"106.csv","","null","resources/images/coin2.png","null","",NA,NA,NA,NA,""
"image-keyboard-response",390,362962,"0.0-4.126-0.126","sobxwmu0guu06jt",269,"106.csv","","243.4000000357628","resources/trios/L1T2A3.jpg","39","restless",0.5,0.7,0.5,0.447929932553113,"true"
"image-keyboard-response",391,363363,"0.0-4.126-1.126","sobxwmu0guu06jt",269,"106.csv","","null","resources/maskTrios/BBA3.jpg","null","",NA,NA,NA,NA,""
"image-keyboard-response",392,364565,"0.0-4.126-2.126","sobxwmu0guu06jt",269,"106.csv","","null","resources/images/coin2.png","null","",NA,NA,NA,NA,""
"image-keyboard-response",393,364838,"0.0-4.127-0.127","sobxwmu0guu06jt",269,"106.csv","","271.5","resources/trios/L1T2A3.jpg","39","restless",0.5,0.7,0.4,0.55274552485215,"false"
"image-keyboard-response",394,365240,"0.0-4.127-1.127","sobxwmu0guu06jt",269,"106.csv","","null","resources/maskTrios/BBA3.jpg","null","",NA,NA,NA,NA,""
"image-keyboard-response",395,366441,"0.0-4.127-2.127","sobxwmu0guu06jt",269,"106.csv","","null","resources/images/fishbone.png","null","",NA,NA,NA,NA,""
"image-keyboard-response",396,366780,"0.0-4.128-0.128","sobxwmu0guu06jt",269,"106.csv","","337.2999999523163","resources/trios/L1T2A3.jpg","37","restless",0.5,0.7,0.4,0.126347166301764,"true"
"image-keyboard-response",397,367181,"0.0-4.128-1.128","sobxwmu0guu06jt",269,"106.csv","","null","resources/maskTrios/L1BB.jpg","null","",NA,NA,NA,NA,""
"image-keyboard-response",398,368383,"0.0-4.128-2.128","sobxwmu0guu06jt",269,"106.csv","","null","resources/images/coin2.png","null","",NA,NA,NA,NA,""
"image-keyboard-response",399,368695,"0.0-4.129-0.129","sobxwmu0guu06jt",269,"106.csv","","310.30000001192093","resources/trios/L1T2A3.jpg","39","restless",0.5,0.7,0.4,0.153800609079924,"true"
"image-keyboard-response",400,369097,"0.0-4.129-1.129","sobxwmu0guu06jt",269,"106.csv","","null","resources/maskTrios/BBA3.jpg","null","",NA,NA,NA,NA,""
"image-keyboard-response",401,370299,"0.0-4.129-2.129","sobxwmu0guu06jt",269,"106.csv","","null","resources/images/coin2.png","null","",NA,NA,NA,NA,""
"image-keyboard-response",402,370635,"0.0-4.130-0.130","sobxwmu0guu06jt",269,"106.csv","","334.7000000476837","resources/trios/L1T2A3.jpg","39","restless",0.5,0.7,0.4,0.779708363273034,"false"
"image-keyboard-response",403,371036,"0.0-4.130-1.130","sobxwmu0guu06jt",269,"106.csv","","null","resources/maskTrios/BBA3.jpg","null","",NA,NA,NA,NA,""
"image-keyboard-response",404,372238,"0.0-4.130-2.130","sobxwmu0guu06jt",269,"106.csv","","null","resources/images/fishbone.png","null","",NA,NA,NA,NA,""
"image-keyboard-response",405,372526,"0.0-4.131-0.131","sobxwmu0guu06jt",269,"106.csv","","287","resources/trios/L1T2A3.jpg","37","restless",0.5,0.7,0.4,0.415068247497992,"true"
"image-keyboard-response",406,372927,"0.0-4.131-1.131","sobxwmu0guu06jt",269,"106.csv","","null","resources/maskTrios/L1BB.jpg","null","",NA,NA,NA,NA,""
"image-keyboard-response",407,374129,"0.0-4.131-2.131","sobxwmu0guu06jt",269,"106.csv","","null","resources/images/coin2.png","null","",NA,NA,NA,NA,""
"image-keyboard-response",408,374451,"0.0-4.132-0.132","sobxwmu0guu06jt",269,"106.csv","","320.30000001192093","resources/trios/L1T2A3.jpg","37","restless",0.6,0.7,0.4,0.968408051907128,"false"
"image-keyboard-response",409,374853,"0.0-4.132-1.132","sobxwmu0guu06jt",269,"106.csv","","null","resources/maskTrios/L1BB.jpg","null","",NA,NA,NA,NA,""
"image-keyboard-response",410,376056,"0.0-4.132-2.132","sobxwmu0guu06jt",269,"106.csv","","null","resources/images/fishbone.png","null","",NA,NA,NA,NA,""
"image-keyboard-response",411,376466,"0.0-4.133-0.133","sobxwmu0guu06jt",269,"106.csv","","409","resources/trios/L1T2A3.jpg","38","restless",0.6,0.7,0.4,0.994909089310751,"false"
"image-keyboard-response",412,376867,"0.0-4.133-1.133","sobxwmu0guu06jt",269,"106.csv","","null","resources/maskTrios/BT2B.jpg","null","",NA,NA,NA,NA,""
"image-keyboard-response",413,378069,"0.0-4.133-2.133","sobxwmu0guu06jt",269,"106.csv","","null","resources/images/fishbone.png","null","",NA,NA,NA,NA,""
"image-keyboard-response",414,378410,"0.0-4.134-0.134","sobxwmu0guu06jt",269,"106.csv","","339","resources/trios/L1T2A3.jpg","39","restless",0.6,0.7,0.4,0.753160018387874,"false"
"image-keyboard-response",415,378811,"0.0-4.134-1.134","sobxwmu0guu06jt",269,"106.csv","","null","resources/maskTrios/BBA3.jpg","null","",NA,NA,NA,NA,""
"image-keyboard-response",416,380014,"0.0-4.134-2.134","sobxwmu0guu06jt",269,"106.csv","","null","resources/images/fishbone.png","null","",NA,NA,NA,NA,""
"image-keyboard-response",417,380462,"0.0-4.135-0.135","sobxwmu0guu06jt",269,"106.csv","","447","resources/trios/L1T2A3.jpg","37","restless",0.6,0.7,0.4,0.862426449432798,"false"
"image-keyboard-response",418,380864,"0.0-4.135-1.135","sobxwmu0guu06jt",269,"106.csv","","null","resources/maskTrios/L1BB.jpg","null","",NA,NA,NA,NA,""
"image-keyboard-response",419,382065,"0.0-4.135-2.135","sobxwmu0guu06jt",269,"106.csv","","null","resources/images/fishbone.png","null","",NA,NA,NA,NA,""
"image-keyboard-response",420,382382,"0.0-4.136-0.136","sobxwmu0guu06jt",269,"106.csv","","315.60000002384186","resources/trios/L1T2A3.jpg","39","restless",0.6,0.7,0.4,0.977733614785081,"false"
"image-keyboard-response",421,382784,"0.0-4.136-1.136","sobxwmu0guu06jt",269,"106.csv","","null","resources/maskTrios/BBA3.jpg","null","",NA,NA,NA,NA,""
"image-keyboard-response",422,383987,"0.0-4.136-2.136","sobxwmu0guu06jt",269,"106.csv","","null","resources/images/fishbone.png","null","",NA,NA,NA,NA,""
"image-keyboard-response",423,384713,"0.0-4.137-0.137","sobxwmu0guu06jt",269,"106.csv","","725.2999999523163","resources/trios/L1T2A3.jpg","38","restless",0.6,0.7,0.4,0.646239467629152,"true"
"image-keyboard-response",424,385115,"0.0-4.137-1.137","sobxwmu0guu06jt",269,"106.csv","","null","resources/maskTrios/BT2B.jpg","null","",NA,NA,NA,NA,""
"image-keyboard-response",425,386316,"0.0-4.137-2.137","sobxwmu0guu06jt",269,"106.csv","","null","resources/images/coin2.png","null","",NA,NA,NA,NA,""
"image-keyboard-response",426,386671,"0.0-4.138-0.138","sobxwmu0guu06jt",269,"106.csv","","354","resources/trios/L1T2A3.jpg","38","restless",0.6,0.7,0.4,0.911351643368421,"false"
"image-keyboard-response",427,387072,"0.0-4.138-1.138","sobxwmu0guu06jt",269,"106.csv","","null","resources/maskTrios/BT2B.jpg","null","",NA,NA,NA,NA,""
"image-keyboard-response",428,388274,"0.0-4.138-2.138","sobxwmu0guu06jt",269,"106.csv","","null","resources/images/fishbone.png","null","",NA,NA,NA,NA,""
"image-keyboard-response",429,388658,"0.0-4.139-0.139","sobxwmu0guu06jt",269,"106.csv","","382.89999997615814","resources/trios/L1T2A3.jpg","39","restless",0.6,0.8,0.4,0.185114848864501,"true"
"image-keyboard-response",430,389059,"0.0-4.139-1.139","sobxwmu0guu06jt",269,"106.csv","","null","resources/maskTrios/BBA3.jpg","null","",NA,NA,NA,NA,""
"image-keyboard-response",431,390261,"0.0-4.139-2.139","sobxwmu0guu06jt",269,"106.csv","","null","resources/images/coin2.png","null","",NA,NA,NA,NA,""
"image-keyboard-response",432,390548,"0.0-4.140-0.140","sobxwmu0guu06jt",269,"106.csv","","285.19999998807907","resources/trios/L1T2A3.jpg","39","restless",0.6,0.8,0.4,0.0262676443360073,"true"
"image-keyboard-response",433,390950,"0.0-4.140-1.140","sobxwmu0guu06jt",269,"106.csv","","null","resources/maskTrios/BBA3.jpg","null","",NA,NA,NA,NA,""
"image-keyboard-response",434,392151,"0.0-4.140-2.140","sobxwmu0guu06jt",269,"106.csv","","null","resources/images/coin2.png","null","",NA,NA,NA,NA,""
"image-keyboard-response",435,392464,"0.0-4.141-0.141","sobxwmu0guu06jt",269,"106.csv","","312.0999999642372","resources/trios/L1T2A3.jpg","39","restless",0.6,0.8,0.4,0.529240579078591,"false"
"image-keyboard-response",436,392866,"0.0-4.141-1.141","sobxwmu0guu06jt",269,"106.csv","","null","resources/maskTrios/BBA3.jpg","null","",NA,NA,NA,NA,""
"image-keyboard-response",437,394067,"0.0-4.141-2.141","sobxwmu0guu06jt",269,"106.csv","","null","resources/images/fishbone.png","null","",NA,NA,NA,NA,""
"image-keyboard-response",438,394413,"0.0-4.142-0.142","sobxwmu0guu06jt",269,"106.csv","","344.9000000357628","resources/trios/L1T2A3.jpg","37","restless",0.6,0.8,0.4,0.975498008690117,"false"
"image-keyboard-response",439,394815,"0.0-4.142-1.142","sobxwmu0guu06jt",269,"106.csv","","null","resources/maskTrios/L1BB.jpg","null","",NA,NA,NA,NA,""
"image-keyboard-response",440,396018,"0.0-4.142-2.142","sobxwmu0guu06jt",269,"106.csv","","null","resources/images/fishbone.png","null","",NA,NA,NA,NA,""
"image-keyboard-response",441,396352,"0.0-4.143-0.143","sobxwmu0guu06jt",269,"106.csv","","333.10000002384186","resources/trios/L1T2A3.jpg","39","restless",0.5,0.8,0.3,0.803165949468779,"false"
"image-keyboard-response",442,396754,"0.0-4.143-1.143","sobxwmu0guu06jt",269,"106.csv","","null","resources/maskTrios/BBA3.jpg","null","",NA,NA,NA,NA,""
"image-keyboard-response",443,397955,"0.0-4.143-2.143","sobxwmu0guu06jt",269,"106.csv","","null","resources/images/fishbone.png","null","",NA,NA,NA,NA,""
"image-keyboard-response",444,398476,"0.0-4.144-0.144","sobxwmu0guu06jt",269,"106.csv","","520.4000000357628","resources/trios/L1T2A3.jpg","38","restless",0.5,0.9,0.3,0.645108223287564,"true"
"image-keyboard-response",445,398879,"0.0-4.144-1.144","sobxwmu0guu06jt",269,"106.csv","","null","resources/maskTrios/BT2B.jpg","null","",NA,NA,NA,NA,""
"image-keyboard-response",446,400079,"0.0-4.144-2.144","sobxwmu0guu06jt",269,"106.csv","","null","resources/images/coin2.png","null","",NA,NA,NA,NA,""
"image-keyboard-response",447,400482,"0.0-4.145-0.145","sobxwmu0guu06jt",269,"106.csv","","401.19999998807907","resources/trios/L1T2A3.jpg","38","restless",0.5,0.9,0.3,0.164439065815613,"true"
"image-keyboard-response",448,400885,"0.0-4.145-1.145","sobxwmu0guu06jt",269,"106.csv","","null","resources/maskTrios/BT2B.jpg","null","",NA,NA,NA,NA,""
"image-keyboard-response",449,402086,"0.0-4.145-2.145","sobxwmu0guu06jt",269,"106.csv","","null","resources/images/coin2.png","null","",NA,NA,NA,NA,""
"image-keyboard-response",450,402443,"0.0-4.146-0.146","sobxwmu0guu06jt",269,"106.csv","","355.89999997615814","resources/trios/L1T2A3.jpg","38","restless",0.5,0.9,0.3,0.228500965664594,"true"
"image-keyboard-response",451,402845,"0.0-4.146-1.146","sobxwmu0guu06jt",269,"106.csv","","null","resources/maskTrios/BT2B.jpg","null","",NA,NA,NA,NA,""
"image-keyboard-response",452,404046,"0.0-4.146-2.146","sobxwmu0guu06jt",269,"106.csv","","null","resources/images/coin2.png","null","",NA,NA,NA,NA,""
"image-keyboard-response",453,404447,"0.0-4.147-0.147","sobxwmu0guu06jt",269,"106.csv","","400.69999998807907","resources/trios/L1T2A3.jpg","38","restless",0.5,0.9,0.3,0.99272405481089,"false"
"image-keyboard-response",454,404849,"0.0-4.147-1.147","sobxwmu0guu06jt",269,"106.csv","","null","resources/maskTrios/BT2B.jpg","null","",NA,NA,NA,NA,""
"image-keyboard-response",455,406050,"0.0-4.147-2.147","sobxwmu0guu06jt",269,"106.csv","","null","resources/images/fishbone.png","null","",NA,NA,NA,NA,""
"image-keyboard-response",456,406328,"0.0-4.148-0.148","sobxwmu0guu06jt",269,"106.csv","","276.80000001192093","resources/trios/L1T2A3.jpg","39","restless",0.5,0.9,0.3,0.370963731714142,"false"
"image-keyboard-response",457,406729,"0.0-4.148-1.148","sobxwmu0guu06jt",269,"106.csv","","null","resources/maskTrios/BBA3.jpg","null","",NA,NA,NA,NA,""
"image-keyboard-response",458,407931,"0.0-4.148-2.148","sobxwmu0guu06jt",269,"106.csv","","null","resources/images/fishbone.png","null","",NA,NA,NA,NA,""
"image-keyboard-response",459,408589,"0.0-4.149-0.149","sobxwmu0guu06jt",269,"106.csv","","657.3000000119209","resources/trios/L1T2A3.jpg","39","restless",0.5,0.9,0.3,0.754522194973972,"false"
"image-keyboard-response",460,408990,"0.0-4.149-1.149","sobxwmu0guu06jt",269,"106.csv","","null","resources/maskTrios/BBA3.jpg","null","",NA,NA,NA,NA,""
"image-keyboard-response",461,410192,"0.0-4.149-2.149","sobxwmu0guu06jt",269,"106.csv","","null","resources/images/fishbone.png","null","",NA,NA,NA,NA,""
"image-keyboard-response",462,410502,"0.0-4.150-0.150","sobxwmu0guu06jt",269,"106.csv","","308.5","resources/trios/L1T2A3.jpg","37","restless",0.5,0.9,0.3,0.147358196762378,"true"
"image-keyboard-response",463,410904,"0.0-4.150-1.150","sobxwmu0guu06jt",269,"106.csv","","null","resources/maskTrios/L1BB.jpg","null","",NA,NA,NA,NA,""
"image-keyboard-response",464,412105,"0.0-4.150-2.150","sobxwmu0guu06jt",269,"106.csv","","null","resources/images/coin2.png","null","",NA,NA,NA,NA,""
"image-keyboard-response",465,412435,"0.0-4.151-0.151","sobxwmu0guu06jt",269,"106.csv","","328.7000000476837","resources/trios/L1T2A3.jpg","37","restless",0.5,0.8,0.3,0.182220777896479,"true"
"image-keyboard-response",466,412837,"0.0-4.151-1.151","sobxwmu0guu06jt",269,"106.csv","","null","resources/maskTrios/L1BB.jpg","null","",NA,NA,NA,NA,""
"image-keyboard-response",467,414038,"0.0-4.151-2.151","sobxwmu0guu06jt",269,"106.csv","","null","resources/images/coin2.png","null","",NA,NA,NA,NA,""
"image-keyboard-response",468,414348,"0.0-4.152-0.152","sobxwmu0guu06jt",269,"106.csv","","308.5","resources/trios/L1T2A3.jpg","37","restless",0.5,0.8,0.3,0.912388252402376,"false"
"image-keyboard-response",469,414750,"0.0-4.152-1.152","sobxwmu0guu06jt",269,"106.csv","","null","resources/maskTrios/L1BB.jpg","null","",NA,NA,NA,NA,""
"image-keyboard-response",470,415952,"0.0-4.152-2.152","sobxwmu0guu06jt",269,"106.csv","","null","resources/images/fishbone.png","null","",NA,NA,NA,NA,""
"image-keyboard-response",471,416223,"0.0-4.153-0.153","sobxwmu0guu06jt",269,"106.csv","","269.39999997615814","resources/trios/L1T2A3.jpg","38","restless",0.5,0.8,0.3,0.300332349491355,"true"
"image-keyboard-response",472,416624,"0.0-4.153-1.153","sobxwmu0guu06jt",269,"106.csv","","null","resources/maskTrios/BT2B.jpg","null","",NA,NA,NA,NA,""
"image-keyboard-response",473,417825,"0.0-4.153-2.153","sobxwmu0guu06jt",269,"106.csv","","null","resources/images/coin2.png","null","",NA,NA,NA,NA,""
"image-keyboard-response",474,418030,"0.0-4.154-0.154","sobxwmu0guu06jt",269,"106.csv","","204.0999999642372","resources/trios/L1T2A3.jpg","38","restless",0.5,0.8,0.3,0.929270678864568,"false"
"image-keyboard-response",475,418432,"0.0-4.154-1.154","sobxwmu0guu06jt",269,"106.csv","","null","resources/maskTrios/BT2B.jpg","null","",NA,NA,NA,NA,""
"image-keyboard-response",476,419634,"0.0-4.154-2.154","sobxwmu0guu06jt",269,"106.csv","","null","resources/images/fishbone.png","null","",NA,NA,NA,NA,""
"image-keyboard-response",477,419973,"0.0-4.155-0.155","sobxwmu0guu06jt",269,"106.csv","","338.2000000476837","resources/trios/L1T2A3.jpg","37","restless",0.5,0.8,0.3,0.785448519282949,"false"
"image-keyboard-response",478,420375,"0.0-4.155-1.155","sobxwmu0guu06jt",269,"106.csv","","null","resources/maskTrios/L1BB.jpg","null","",NA,NA,NA,NA,""
"image-keyboard-response",479,421577,"0.0-4.155-2.155","sobxwmu0guu06jt",269,"106.csv","","null","resources/images/fishbone.png","null","",NA,NA,NA,NA,""
"image-keyboard-response",480,421885,"0.0-4.156-0.156","sobxwmu0guu06jt",269,"106.csv","","307.30000001192093","resources/trios/L1T2A3.jpg","39","restless",0.5,0.8,0.3,0.297463704917774,"true"
"image-keyboard-response",481,422286,"0.0-4.156-1.156","sobxwmu0guu06jt",269,"106.csv","","null","resources/maskTrios/BBA3.jpg","null","",NA,NA,NA,NA,""
"image-keyboard-response",482,423488,"0.0-4.156-2.156","sobxwmu0guu06jt",269,"106.csv","","null","resources/images/coin2.png","null","",NA,NA,NA,NA,""
"image-keyboard-response",483,423897,"0.0-4.157-0.157","sobxwmu0guu06jt",269,"106.csv","","407.19999998807907","resources/trios/L1T2A3.jpg","39","restless",0.5,0.7,0.3,0.871408677503837,"false"
"image-keyboard-response",484,424298,"0.0-4.157-1.157","sobxwmu0guu06jt",269,"106.csv","","null","resources/maskTrios/BBA3.jpg","null","",NA,NA,NA,NA,""
"image-keyboard-response",485,425500,"0.0-4.157-2.157","sobxwmu0guu06jt",269,"106.csv","","null","resources/images/fishbone.png","null","",NA,NA,NA,NA,""
"image-keyboard-response",486,425829,"0.0-4.158-0.158","sobxwmu0guu06jt",269,"106.csv","","328.69999998807907","resources/trios/L1T2A3.jpg","38","restless",0.5,0.7,0.3,0.0180075211750217,"true"
"image-keyboard-response",487,426232,"0.0-4.158-1.158","sobxwmu0guu06jt",269,"106.csv","","null","resources/maskTrios/BT2B.jpg","null","",NA,NA,NA,NA,""
"image-keyboard-response",488,427434,"0.0-4.158-2.158","sobxwmu0guu06jt",269,"106.csv","","null","resources/images/coin2.png","null","",NA,NA,NA,NA,""
"image-keyboard-response",489,427842,"0.0-4.159-0.159","sobxwmu0guu06jt",269,"106.csv","","407.60000002384186","resources/trios/L1T2A3.jpg","38","restless",0.5,0.7,0.3,0.467670571676778,"true"
"image-keyboard-response",490,428244,"0.0-4.159-1.159","sobxwmu0guu06jt",269,"106.csv","","null","resources/maskTrios/BT2B.jpg","null","",NA,NA,NA,NA,""
"image-keyboard-response",491,429446,"0.0-4.159-2.159","sobxwmu0guu06jt",269,"106.csv","","null","resources/images/coin2.png","null","",NA,NA,NA,NA,""
"image-keyboard-response",492,429935,"0.0-4.160-0.160","sobxwmu0guu06jt",269,"106.csv","","487.19999998807907","resources/trios/L1T2A3.jpg","38","restless",0.5,0.7,0.3,0.938921103019941,"false"
"image-keyboard-response",493,430337,"0.0-4.160-1.160","sobxwmu0guu06jt",269,"106.csv","","null","resources/maskTrios/BT2B.jpg","null","",NA,NA,NA,NA,""
"image-keyboard-response",494,431538,"0.0-4.160-2.160","sobxwmu0guu06jt",269,"106.csv","","null","resources/images/fishbone.png","null","",NA,NA,NA,NA,""
"image-keyboard-response",495,431839,"0.0-4.161-0.161","sobxwmu0guu06jt",269,"106.csv","","300.19999998807907","resources/trios/L1T2A3.jpg","37","restless",0.5,0.7,0.3,0.543822995232201,"false"
"image-keyboard-response",496,432241,"0.0-4.161-1.161","sobxwmu0guu06jt",269,"106.csv","","null","resources/maskTrios/L1BB.jpg","null","",NA,NA,NA,NA,""
"image-keyboard-response",497,433442,"0.0-4.161-2.161","sobxwmu0guu06jt",269,"106.csv","","null","resources/images/fishbone.png","null","",NA,NA,NA,NA,""
"image-keyboard-response",498,433911,"0.0-4.162-0.162","sobxwmu0guu06jt",269,"106.csv","","467.19999998807907","resources/trios/L1T2A3.jpg","38","restless",0.5,0.7,0.3,0.109321765652602,"true"
"image-keyboard-response",499,434312,"0.0-4.162-1.162","sobxwmu0guu06jt",269,"106.csv","","null","resources/maskTrios/BT2B.jpg","null","",NA,NA,NA,NA,""
"image-keyboard-response",500,435513,"0.0-4.162-2.162","sobxwmu0guu06jt",269,"106.csv","","null","resources/images/coin2.png","null","",NA,NA,NA,NA,""
"image-keyboard-response",501,436217,"0.0-4.163-0.163","sobxwmu0guu06jt",269,"106.csv","","703.1000000238419","resources/trios/L1T2A3.jpg","38","restless",0.5,0.7,0.3,0.828289568148954,"false"
"image-keyboard-response",502,436619,"0.0-4.163-1.163","sobxwmu0guu06jt",269,"106.csv","","null","resources/maskTrios/BT2B.jpg","null","",NA,NA,NA,NA,""
"image-keyboard-response",503,437821,"0.0-4.163-2.163","sobxwmu0guu06jt",269,"106.csv","","null","resources/images/fishbone.png","null","",NA,NA,NA,NA,""
"image-keyboard-response",504,438150,"0.0-4.164-0.164","sobxwmu0guu06jt",269,"106.csv","","328.69999998807907","resources/trios/L1T2A3.jpg","39","restless",0.5,0.7,0.2,0.438375004817957,"false"
"image-keyboard-response",505,438552,"0.0-4.164-1.164","sobxwmu0guu06jt",269,"106.csv","","null","resources/maskTrios/BBA3.jpg","null","",NA,NA,NA,NA,""
"image-keyboard-response",506,439753,"0.0-4.164-2.164","sobxwmu0guu06jt",269,"106.csv","","null","resources/images/fishbone.png","null","",NA,NA,NA,NA,""
"image-keyboard-response",507,440031,"0.0-4.165-0.165","sobxwmu0guu06jt",269,"106.csv","","277","resources/trios/L1T2A3.jpg","38","restless",0.5,0.7,0.2,0.934585566512581,"false"
"image-keyboard-response",508,440433,"0.0-4.165-1.165","sobxwmu0guu06jt",269,"106.csv","","null","resources/maskTrios/BT2B.jpg","null","",NA,NA,NA,NA,""
"image-keyboard-response",509,441634,"0.0-4.165-2.165","sobxwmu0guu06jt",269,"106.csv","","null","resources/images/fishbone.png","null","",NA,NA,NA,NA,""
"image-keyboard-response",510,441977,"0.0-4.166-0.166","sobxwmu0guu06jt",269,"106.csv","","342.39999997615814","resources/trios/L1T2A3.jpg","37","restless",0.5,0.7,0.2,0.980856421068451,"false"
"image-keyboard-response",511,442379,"0.0-4.166-1.166","sobxwmu0guu06jt",269,"106.csv","","null","resources/maskTrios/L1BB.jpg","null","",NA,NA,NA,NA,""
"image-keyboard-response",512,443580,"0.0-4.166-2.166","sobxwmu0guu06jt",269,"106.csv","","null","resources/images/fishbone.png","null","",NA,NA,NA,NA,""
"image-keyboard-response",513,444006,"0.0-4.167-0.167","sobxwmu0guu06jt",269,"106.csv","","424.5999999642372","resources/trios/L1T2A3.jpg","38","restless",0.5,0.7,0.2,0.991572737468038,"false"
"image-keyboard-response",514,444407,"0.0-4.167-1.167","sobxwmu0guu06jt",269,"106.csv","","null","resources/maskTrios/BT2B.jpg","null","",NA,NA,NA,NA,""
"image-keyboard-response",515,445609,"0.0-4.167-2.167","sobxwmu0guu06jt",269,"106.csv","","null","resources/images/fishbone.png","null","",NA,NA,NA,NA,""
"image-keyboard-response",516,445913,"0.0-4.168-0.168","sobxwmu0guu06jt",269,"106.csv","","302.80000001192093","resources/trios/L1T2A3.jpg","39","restless",0.5,0.6,0.2,0.567509283111543,"false"
"image-keyboard-response",517,446315,"0.0-4.168-1.168","sobxwmu0guu06jt",269,"106.csv","","null","resources/maskTrios/BBA3.jpg","null","",NA,NA,NA,NA,""
"image-keyboard-response",518,447516,"0.0-4.168-2.168","sobxwmu0guu06jt",269,"106.csv","","null","resources/images/fishbone.png","null","",NA,NA,NA,NA,""
"image-keyboard-response",519,447857,"0.0-4.169-0.169","sobxwmu0guu06jt",269,"106.csv","","339.69999998807907","resources/trios/L1T2A3.jpg","38","restless",0.5,0.6,0.2,0.270928889175873,"true"
"image-keyboard-response",520,448259,"0.0-4.169-1.169","sobxwmu0guu06jt",269,"106.csv","","null","resources/maskTrios/BT2B.jpg","null","",NA,NA,NA,NA,""
"image-keyboard-response",521,449461,"0.0-4.169-2.169","sobxwmu0guu06jt",269,"106.csv","","null","resources/images/coin2.png","null","",NA,NA,NA,NA,""
"image-keyboard-response",522,449880,"0.0-4.170-0.170","sobxwmu0guu06jt",269,"106.csv","","417.69999998807907","resources/trios/L1T2A3.jpg","38","restless",0.5,0.6,0.2,0.853723174832677,"false"
"image-keyboard-response",523,450282,"0.0-4.170-1.170","sobxwmu0guu06jt",269,"106.csv","","null","resources/maskTrios/BT2B.jpg","null","",NA,NA,NA,NA,""
"image-keyboard-response",524,451483,"0.0-4.170-2.170","sobxwmu0guu06jt",269,"106.csv","","null","resources/images/fishbone.png","null","",NA,NA,NA,NA,""
"image-keyboard-response",525,451845,"0.0-4.171-0.171","sobxwmu0guu06jt",269,"106.csv","","361","resources/trios/L1T2A3.jpg","38","restless",0.5,0.5,0.2,0.418018461194711,"true"
"image-keyboard-response",526,452247,"0.0-4.171-1.171","sobxwmu0guu06jt",269,"106.csv","","null","resources/maskTrios/BT2B.jpg","null","",NA,NA,NA,NA,""
"image-keyboard-response",527,453449,"0.0-4.171-2.171","sobxwmu0guu06jt",269,"106.csv","","null","resources/images/coin2.png","null","",NA,NA,NA,NA,""
"image-keyboard-response",528,453892,"0.0-4.172-0.172","sobxwmu0guu06jt",269,"106.csv","","442.69999998807907","resources/trios/L1T2A3.jpg","38","restless",0.5,0.5,0.2,0.701494071548951,"false"
"image-keyboard-response",529,454294,"0.0-4.172-1.172","sobxwmu0guu06jt",269,"106.csv","","null","resources/maskTrios/BT2B.jpg","null","",NA,NA,NA,NA,""
"image-keyboard-response",530,455495,"0.0-4.172-2.172","sobxwmu0guu06jt",269,"106.csv","","null","resources/images/fishbone.png","null","",NA,NA,NA,NA,""
"image-keyboard-response",531,455808,"0.0-4.173-0.173","sobxwmu0guu06jt",269,"106.csv","","311.89999997615814","resources/trios/L1T2A3.jpg","37","restless",0.5,0.5,0.2,0.954583597138996,"false"
"image-keyboard-response",532,456209,"0.0-4.173-1.173","sobxwmu0guu06jt",269,"106.csv","","null","resources/maskTrios/L1BB.jpg","null","",NA,NA,NA,NA,""
"image-keyboard-response",533,457412,"0.0-4.173-2.173","sobxwmu0guu06jt",269,"106.csv","","null","resources/images/fishbone.png","null","",NA,NA,NA,NA,""
"image-keyboard-response",534,457731,"0.0-4.174-0.174","sobxwmu0guu06jt",269,"106.csv","","317.2999999523163","resources/trios/L1T2A3.jpg","39","restless",0.5,0.5,0.3,0.806891458060361,"false"
"image-keyboard-response",535,458133,"0.0-4.174-1.174","sobxwmu0guu06jt",269,"106.csv","","null","resources/maskTrios/BBA3.jpg","null","",NA,NA,NA,NA,""
"image-keyboard-response",536,459334,"0.0-4.174-2.174","sobxwmu0guu06jt",269,"106.csv","","null","resources/images/fishbone.png","null","",NA,NA,NA,NA,""
"image-keyboard-response",537,459692,"0.0-4.175-0.175","sobxwmu0guu06jt",269,"106.csv","","355.89999997615814","resources/trios/L1T2A3.jpg","38","restless",0.5,0.5,0.3,0.133456187965205,"true"
"image-keyboard-response",538,460094,"0.0-4.175-1.175","sobxwmu0guu06jt",269,"106.csv","","null","resources/maskTrios/BT2B.jpg","null","",NA,NA,NA,NA,""
"image-keyboard-response",539,461296,"0.0-4.175-2.175","sobxwmu0guu06jt",269,"106.csv","","null","resources/images/coin2.png","null","",NA,NA,NA,NA,""
"image-keyboard-response",540,461661,"0.0-4.176-0.176","sobxwmu0guu06jt",269,"106.csv","","363.9000000357628","resources/trios/L1T2A3.jpg","38","restless",0.5,0.5,0.3,0.141064302349824,"true"
"image-keyboard-response",541,462063,"0.0-4.176-1.176","sobxwmu0guu06jt",269,"106.csv","","null","resources/maskTrios/BT2B.jpg","null","",NA,NA,NA,NA,""
"image-keyboard-response",542,463264,"0.0-4.176-2.176","sobxwmu0guu06jt",269,"106.csv","","null","resources/images/coin2.png","null","",NA,NA,NA,NA,""
"image-keyboard-response",543,463622,"0.0-4.177-0.177","sobxwmu0guu06jt",269,"106.csv","","355.9000000357628","resources/trios/L1T2A3.jpg","38","restless",0.6,0.4,0.3,0.165614985038498,"true"
"image-keyboard-response",544,464024,"0.0-4.177-1.177","sobxwmu0guu06jt",269,"106.csv","","null","resources/maskTrios/BT2B.jpg","null","",NA,NA,NA,NA,""
"image-keyboard-response",545,465226,"0.0-4.177-2.177","sobxwmu0guu06jt",269,"106.csv","","null","resources/images/coin2.png","null","",NA,NA,NA,NA,""
"image-keyboard-response",546,465576,"0.0-4.178-0.178","sobxwmu0guu06jt",269,"106.csv","","349","resources/trios/L1T2A3.jpg","38","restless",0.7,0.4,0.3,0.70332815972502,"false"
"image-keyboard-response",547,465977,"0.0-4.178-1.178","sobxwmu0guu06jt",269,"106.csv","","null","resources/maskTrios/BT2B.jpg","null","",NA,NA,NA,NA,""
"image-keyboard-response",548,467178,"0.0-4.178-2.178","sobxwmu0guu06jt",269,"106.csv","","null","resources/images/fishbone.png","null","",NA,NA,NA,NA,""
"image-keyboard-response",549,467507,"0.0-4.179-0.179","sobxwmu0guu06jt",269,"106.csv","","328.0999999642372","resources/trios/L1T2A3.jpg","37","restless",0.7,0.4,0.3,0.446850460224475,"true"
"image-keyboard-response",550,467910,"0.0-4.179-1.179","sobxwmu0guu06jt",269,"106.csv","","null","resources/maskTrios/L1BB.jpg","null","",NA,NA,NA,NA,""
"image-keyboard-response",551,469112,"0.0-4.179-2.179","sobxwmu0guu06jt",269,"106.csv","","null","resources/images/coin2.png","null","",NA,NA,NA,NA,""
"image-keyboard-response",552,469614,"0.0-4.180-0.180","sobxwmu0guu06jt",269,"106.csv","","500.9000000357628","resources/trios/L1T2A3.jpg","38","restless",0.7,0.4,0.3,0.00696675348554932,"true"
"image-keyboard-response",553,470015,"0.0-4.180-1.180","sobxwmu0guu06jt",269,"106.csv","","null","resources/maskTrios/BT2B.jpg","null","",NA,NA,NA,NA,""
"image-keyboard-response",554,471217,"0.0-4.180-2.180","sobxwmu0guu06jt",269,"106.csv","","null","resources/images/coin2.png","null","",NA,NA,NA,NA,""
"image-keyboard-response",555,471572,"0.0-4.181-0.181","sobxwmu0guu06jt",269,"106.csv","","354.60000002384186","resources/trios/L1T2A3.jpg","38","restless",0.7,0.4,0.3,0.438561564088449,"false"
"image-keyboard-response",556,471973,"0.0-4.181-1.181","sobxwmu0guu06jt",269,"106.csv","","null","resources/maskTrios/BT2B.jpg","null","",NA,NA,NA,NA,""
"image-keyboard-response",557,473175,"0.0-4.181-2.181","sobxwmu0guu06jt",269,"106.csv","","null","resources/images/fishbone.png","null","",NA,NA,NA,NA,""
"image-keyboard-response",558,473489,"0.0-4.182-0.182","sobxwmu0guu06jt",269,"106.csv","","313.80000001192093","resources/trios/L1T2A3.jpg","37","restless",0.7,0.3,0.3,0.456960757502636,"true"
"image-keyboard-response",559,473891,"0.0-4.182-1.182","sobxwmu0guu06jt",269,"106.csv","","null","resources/maskTrios/L1BB.jpg","null","",NA,NA,NA,NA,""
"image-keyboard-response",560,475092,"0.0-4.182-2.182","sobxwmu0guu06jt",269,"106.csv","","null","resources/images/coin2.png","null","",NA,NA,NA,NA,""
"image-keyboard-response",561,475401,"0.0-4.183-0.183","sobxwmu0guu06jt",269,"106.csv","","308.5","resources/trios/L1T2A3.jpg","37","restless",0.7,0.3,0.4,0.984312132530154,"false"
"image-keyboard-response",562,475804,"0.0-4.183-1.183","sobxwmu0guu06jt",269,"106.csv","","null","resources/maskTrios/L1BB.jpg","null","",NA,NA,NA,NA,""
"image-keyboard-response",563,477005,"0.0-4.183-2.183","sobxwmu0guu06jt",269,"106.csv","","null","resources/images/fishbone.png","null","",NA,NA,NA,NA,""
"image-keyboard-response",564,477348,"0.0-4.184-0.184","sobxwmu0guu06jt",269,"106.csv","","341.39999997615814","resources/trios/L1T2A3.jpg","38","restless",0.7,0.3,0.5,0.13081575803822,"true"
"image-keyboard-response",565,477749,"0.0-4.184-1.184","sobxwmu0guu06jt",269,"106.csv","","null","resources/maskTrios/BT2B.jpg","null","",NA,NA,NA,NA,""
"image-keyboard-response",566,478951,"0.0-4.184-2.184","sobxwmu0guu06jt",269,"106.csv","","null","resources/images/coin2.png","null","",NA,NA,NA,NA,""
"image-keyboard-response",567,479343,"0.0-4.185-0.185","sobxwmu0guu06jt",269,"106.csv","","391.19999998807907","resources/trios/L1T2A3.jpg","38","restless",0.7,0.3,0.5,0.953695504449074,"false"
"image-keyboard-response",568,479746,"0.0-4.185-1.185","sobxwmu0guu06jt",269,"106.csv","","null","resources/maskTrios/BT2B.jpg","null","",NA,NA,NA,NA,""
"image-keyboard-response",569,480947,"0.0-4.185-2.185","sobxwmu0guu06jt",269,"106.csv","","null","resources/images/fishbone.png","null","",NA,NA,NA,NA,""
"image-keyboard-response",570,481302,"0.0-4.186-0.186","sobxwmu0guu06jt",269,"106.csv","","353.7000000476837","resources/trios/L1T2A3.jpg","37","restless",0.7,0.3,0.5,0.440658961471428,"true"
"image-keyboard-response",571,481704,"0.0-4.186-1.186","sobxwmu0guu06jt",269,"106.csv","","null","resources/maskTrios/L1BB.jpg","null","",NA,NA,NA,NA,""
"image-keyboard-response",572,482905,"0.0-4.186-2.186","sobxwmu0guu06jt",269,"106.csv","","null","resources/images/coin2.png","null","",NA,NA,NA,NA,""
"image-keyboard-response",573,483250,"0.0-4.187-0.187","sobxwmu0guu06jt",269,"106.csv","","344.30000001192093","resources/trios/L1T2A3.jpg","38","restless",0.7,0.3,0.5,0.839979632589134,"false"
"image-keyboard-response",574,483652,"0.0-4.187-1.187","sobxwmu0guu06jt",269,"106.csv","","null","resources/maskTrios/BT2B.jpg","null","",NA,NA,NA,NA,""
"image-keyboard-response",575,484854,"0.0-4.187-2.187","sobxwmu0guu06jt",269,"106.csv","","null","resources/images/fishbone.png","null","",NA,NA,NA,NA,""
"image-keyboard-response",576,485173,"0.0-4.188-0.188","sobxwmu0guu06jt",269,"106.csv","","318.30000001192093","resources/trios/L1T2A3.jpg","37","restless",0.7,0.3,0.5,0.0418926463087279,"true"
"image-keyboard-response",577,485575,"0.0-4.188-1.188","sobxwmu0guu06jt",269,"106.csv","","null","resources/maskTrios/L1BB.jpg","null","",NA,NA,NA,NA,""
"image-keyboard-response",578,486776,"0.0-4.188-2.188","sobxwmu0guu06jt",269,"106.csv","","null","resources/images/coin2.png","null","",NA,NA,NA,NA,""
"image-keyboard-response",579,487157,"0.0-4.189-0.189","sobxwmu0guu06jt",269,"106.csv","","379.5","resources/trios/L1T2A3.jpg","37","restless",0.7,0.3,0.5,0.308699226673086,"true"
"image-keyboard-response",580,487558,"0.0-4.189-1.189","sobxwmu0guu06jt",269,"106.csv","","null","resources/maskTrios/L1BB.jpg","null","",NA,NA,NA,NA,""
"image-keyboard-response",581,488760,"0.0-4.189-2.189","sobxwmu0guu06jt",269,"106.csv","","null","resources/images/coin2.png","null","",NA,NA,NA,NA,""
"image-keyboard-response",582,489150,"0.0-4.190-0.190","sobxwmu0guu06jt",269,"106.csv","","388.80000001192093","resources/trios/L1T2A3.jpg","37","restless",0.7,0.3,0.5,0.844331617610508,"false"
"image-keyboard-response",583,489551,"0.0-4.190-1.190","sobxwmu0guu06jt",269,"106.csv","","null","resources/maskTrios/L1BB.jpg","null","",NA,NA,NA,NA,""
"image-keyboard-response",584,490754,"0.0-4.190-2.190","sobxwmu0guu06jt",269,"106.csv","","null","resources/images/fishbone.png","null","",NA,NA,NA,NA,""
"image-keyboard-response",585,491074,"0.0-4.191-0.191","sobxwmu0guu06jt",269,"106.csv","","318.69999998807907","resources/trios/L1T2A3.jpg","38","restless",0.7,0.3,0.5,0.0872974343814283,"true"
"image-keyboard-response",586,491475,"0.0-4.191-1.191","sobxwmu0guu06jt",269,"106.csv","","null","resources/maskTrios/BT2B.jpg","null","",NA,NA,NA,NA,""
"image-keyboard-response",587,492676,"0.0-4.191-2.191","sobxwmu0guu06jt",269,"106.csv","","null","resources/images/coin2.png","null","",NA,NA,NA,NA,""
"image-keyboard-response",588,493041,"0.0-4.192-0.192","sobxwmu0guu06jt",269,"106.csv","","364.39999997615814","resources/trios/L1T2A3.jpg","38","restless",0.7,0.3,0.5,0.797725132438593,"false"
"image-keyboard-response",589,493443,"0.0-4.192-1.192","sobxwmu0guu06jt",269,"106.csv","","null","resources/maskTrios/BT2B.jpg","null","",NA,NA,NA,NA,""
"image-keyboard-response",590,494644,"0.0-4.192-2.192","sobxwmu0guu06jt",269,"106.csv","","null","resources/images/fishbone.png","null","",NA,NA,NA,NA,""
"image-keyboard-response",591,495003,"0.0-4.193-0.193","sobxwmu0guu06jt",269,"106.csv","","357","resources/trios/L1T2A3.jpg","37","restless",0.7,0.3,0.5,0.957257617058326,"false"
"image-keyboard-response",592,495404,"0.0-4.193-1.193","sobxwmu0guu06jt",269,"106.csv","","null","resources/maskTrios/L1BB.jpg","null","",NA,NA,NA,NA,""
"image-keyboard-response",593,496606,"0.0-4.193-2.193","sobxwmu0guu06jt",269,"106.csv","","null","resources/images/fishbone.png","null","",NA,NA,NA,NA,""
"image-keyboard-response",594,496976,"0.0-4.194-0.194","sobxwmu0guu06jt",269,"106.csv","","368.89999997615814","resources/trios/L1T2A3.jpg","39","restless",0.7,0.4,0.4,0.988138486096613,"false"
"image-keyboard-response",595,497377,"0.0-4.194-1.194","sobxwmu0guu06jt",269,"106.csv","","null","resources/maskTrios/BBA3.jpg","null","",NA,NA,NA,NA,""
"image-keyboard-response",596,498578,"0.0-4.194-2.194","sobxwmu0guu06jt",269,"106.csv","","null","resources/images/fishbone.png","null","",NA,NA,NA,NA,""
"image-keyboard-response",597,498966,"0.0-4.195-0.195","sobxwmu0guu06jt",269,"106.csv","","387.5","resources/trios/L1T2A3.jpg","38","restless",0.7,0.4,0.4,0.183598434077016,"true"
"image-keyboard-response",598,499367,"0.0-4.195-1.195","sobxwmu0guu06jt",269,"106.csv","","null","resources/maskTrios/BT2B.jpg","null","",NA,NA,NA,NA,""
"image-keyboard-response",599,500570,"0.0-4.195-2.195","sobxwmu0guu06jt",269,"106.csv","","null","resources/images/coin2.png","null","",NA,NA,NA,NA,""
"image-keyboard-response",600,501103,"0.0-4.196-0.196","sobxwmu0guu06jt",269,"106.csv","","532","resources/trios/L1T2A3.jpg","38","restless",0.7,0.4,0.4,0.559003832619579,"false"
"image-keyboard-response",601,501505,"0.0-4.196-1.196","sobxwmu0guu06jt",269,"106.csv","","null","resources/maskTrios/BT2B.jpg","null","",NA,NA,NA,NA,""
"image-keyboard-response",602,502707,"0.0-4.196-2.196","sobxwmu0guu06jt",269,"106.csv","","null","resources/images/fishbone.png","null","",NA,NA,NA,NA,""
"image-keyboard-response",603,503364,"0.0-4.197-0.197","sobxwmu0guu06jt",269,"106.csv","","656.0999999642372","resources/trios/L1T2A3.jpg","37","restless",0.7,0.4,0.4,0.600442986362495,"true"
"image-keyboard-response",604,503766,"0.0-4.197-1.197","sobxwmu0guu06jt",269,"106.csv","","null","resources/maskTrios/L1BB.jpg","null","",NA,NA,NA,NA,""
"image-keyboard-response",605,504968,"0.0-4.197-2.197","sobxwmu0guu06jt",269,"106.csv","","null","resources/images/coin2.png","null","",NA,NA,NA,NA,""
"image-keyboard-response",606,505912,"0.0-4.198-0.198","sobxwmu0guu06jt",269,"106.csv","","943.4000000357628","resources/trios/L1T2A3.jpg","37","restless",0.7,0.4,0.4,0.60402233171543,"true"
"image-keyboard-response",607,506314,"0.0-4.198-1.198","sobxwmu0guu06jt",269,"106.csv","","null","resources/maskTrios/L1BB.jpg","null","",NA,NA,NA,NA,""
