"trial_type","trial_index","time_elapsed","internal_node_id","subject","participantCode","walkNumber","success","rt","stimulus","key_press","test_part","leftProb","midProb","rightProb","generatedNum","correct"
"pavlovia",0,922,"0.0-0.0","gnh9a92utd42dqx",281,"44.csv","","","","","",NA,NA,NA,NA,""
"fullscreen",1,3843,"0.0-1.0","gnh9a92utd42dqx",281,"44.csv","true","","","","",NA,NA,NA,NA,""
"survey-html-form",2,14972,"0.0-2.0","gnh9a92utd42dqx",281,"44.csv","","11127.699999988079","","","",NA,NA,NA,NA,""
"image-keyboard-response",3,26285,"0.0-3.0-0.0","gnh9a92utd42dqx",281,"44.csv","","11312.700000047684","resources/images/parrot_nobg.png","13","",NA,NA,NA,NA,""
"image-keyboard-response",4,29299,"0.0-3.0-1.0","gnh9a92utd42dqx",281,"44.csv","","null","resources/image_sets/111.png","null","",NA,NA,NA,NA,""
"image-keyboard-response",5,34542,"0.0-3.0-2.0","gnh9a92utd42dqx",281,"44.csv","","5242.5","resources/image_sets/left_highlight.png","37","",NA,NA,NA,NA,""
"image-keyboard-response",6,35778,"0.0-3.0-3.0","gnh9a92utd42dqx",281,"44.csv","","1235.2000000476837","resources/image_sets/mid_highlight.png","38","",NA,NA,NA,NA,""
"image-keyboard-response",7,36302,"0.0-3.0-4.0","gnh9a92utd42dqx",281,"44.csv","","523.7000000476837","resources/image_sets/right_highlight.png","39","",NA,NA,NA,NA,""
"image-keyboard-response",8,37974,"0.0-3.0-5.0","gnh9a92utd42dqx",281,"44.csv","","1671","resources/image_sets/111.png","13","",NA,NA,NA,NA,""
"image-keyboard-response",9,40268,"0.0-3.0-6.0","gnh9a92utd42dqx",281,"44.csv","","2293.800000011921","resources/images/coin2.png","13","",NA,NA,NA,NA,""
"image-keyboard-response",10,42154,"0.0-3.0-7.0","gnh9a92utd42dqx",281,"44.csv","","1885.300000011921","resources/images/fishbone.png","13","",NA,NA,NA,NA,""
"html-keyboard-response",11,45035,"0.0-3.0-8.0","gnh9a92utd42dqx",281,"44.csv","","2879.899999976158","<p>You can track your coin total on the top right of your screen. </p><p>At the end of your journey you will be directed to a survey, so please click on the link before exiting the task</p><p>Press Enter to begin</p>","13","",NA,NA,NA,NA,""
"image-keyboard-response",12,48026,"0.0-4.0-0.0","gnh9a92utd42dqx",281,"44.csv","","2990.5","resources/trios/L1T2A3.jpg","38","restless",0.7,0.9,0.3,0.924850762420508,"false"
"image-keyboard-response",13,48440,"0.0-4.0-1.0","gnh9a92utd42dqx",281,"44.csv","","null","resources/maskTrios/BT2B.jpg","null","",NA,NA,NA,NA,""
"image-keyboard-response",14,49656,"0.0-4.0-2.0","gnh9a92utd42dqx",281,"44.csv","","null","resources/images/fishbone.png","null","",NA,NA,NA,NA,""
"image-keyboard-response",15,52047,"0.0-4.1-0.1","gnh9a92utd42dqx",281,"44.csv","","2389.399999976158","resources/trios/L1T2A3.jpg","37","restless",0.7,0.9,0.3,0.300818141837935,"true"
"image-keyboard-response",16,52462,"0.0-4.1-1.1","gnh9a92utd42dqx",281,"44.csv","","null","resources/maskTrios/L1BB.jpg","null","",NA,NA,NA,NA,""
"image-keyboard-response",17,53668,"0.0-4.1-2.1","gnh9a92utd42dqx",281,"44.csv","","null","resources/images/coin2.png","null","",NA,NA,NA,NA,""
"image-keyboard-response",18,55929,"0.0-4.2-0.2","gnh9a92utd42dqx",281,"44.csv","","2260.099999964237","resources/trios/L1T2A3.jpg","37","restless",0.7,0.9,0.3,0.697929171346759,"true"
"image-keyboard-response",19,56341,"0.0-4.2-1.2","gnh9a92utd42dqx",281,"44.csv","","null","resources/maskTrios/L1BB.jpg","null","",NA,NA,NA,NA,""
"image-keyboard-response",20,57556,"0.0-4.2-2.2","gnh9a92utd42dqx",281,"44.csv","","null","resources/images/coin2.png","null","",NA,NA,NA,NA,""
"image-keyboard-response",21,59725,"0.0-4.3-0.3","gnh9a92utd42dqx",281,"44.csv","","2167.899999976158","resources/trios/L1T2A3.jpg","37","restless",0.7,0.9,0.3,0.437253504351216,"true"
"image-keyboard-response",22,60130,"0.0-4.3-1.3","gnh9a92utd42dqx",281,"44.csv","","null","resources/maskTrios/L1BB.jpg","null","",NA,NA,NA,NA,""
"image-keyboard-response",23,61347,"0.0-4.3-2.3","gnh9a92utd42dqx",281,"44.csv","","null","resources/images/coin2.png","null","",NA,NA,NA,NA,""
"image-keyboard-response",24,63425,"0.0-4.4-0.4","gnh9a92utd42dqx",281,"44.csv","","2076.899999976158","resources/trios/L1T2A3.jpg","37","restless",0.7,0.8,0.3,0.820342334477712,"false"
"image-keyboard-response",25,63837,"0.0-4.4-1.4","gnh9a92utd42dqx",281,"44.csv","","null","resources/maskTrios/L1BB.jpg","null","",NA,NA,NA,NA,""
"image-keyboard-response",26,65046,"0.0-4.4-2.4","gnh9a92utd42dqx",281,"44.csv","","null","resources/images/fishbone.png","null","",NA,NA,NA,NA,""
"image-keyboard-response",27,66135,"0.0-4.5-0.5","gnh9a92utd42dqx",281,"44.csv","","1087.8999999761581","resources/trios/L1T2A3.jpg","39","restless",0.8,0.8,0.3,0.0112019681956628,"true"
"image-keyboard-response",28,66549,"0.0-4.5-1.5","gnh9a92utd42dqx",281,"44.csv","","null","resources/maskTrios/BBA3.jpg","null","",NA,NA,NA,NA,""
"image-keyboard-response",29,67762,"0.0-4.5-2.5","gnh9a92utd42dqx",281,"44.csv","","null","resources/images/coin2.png","null","",NA,NA,NA,NA,""
"image-keyboard-response",30,68812,"0.0-4.6-0.6","gnh9a92utd42dqx",281,"44.csv","","1049.3999999761581","resources/trios/L1T2A3.jpg","39","restless",0.8,0.8,0.3,0.539983833172644,"false"
"image-keyboard-response",31,69219,"0.0-4.6-1.6","gnh9a92utd42dqx",281,"44.csv","","null","resources/maskTrios/BBA3.jpg","null","",NA,NA,NA,NA,""
"image-keyboard-response",32,70434,"0.0-4.6-2.6","gnh9a92utd42dqx",281,"44.csv","","null","resources/images/fishbone.png","null","",NA,NA,NA,NA,""
"image-keyboard-response",33,72764,"0.0-4.7-0.7","gnh9a92utd42dqx",281,"44.csv","","2328.699999988079","resources/trios/L1T2A3.jpg","38","restless",0.8,0.8,0.2,0.872765244904079,"false"
"image-keyboard-response",34,73173,"0.0-4.7-1.7","gnh9a92utd42dqx",281,"44.csv","","null","resources/maskTrios/BT2B.jpg","null","",NA,NA,NA,NA,""
"image-keyboard-response",35,74384,"0.0-4.7-2.7","gnh9a92utd42dqx",281,"44.csv","","null","resources/images/fishbone.png","null","",NA,NA,NA,NA,""
"image-keyboard-response",36,75828,"0.0-4.8-0.8","gnh9a92utd42dqx",281,"44.csv","","1443.800000011921","resources/trios/L1T2A3.jpg","39","restless",0.8,0.8,0.2,0.486723753911415,"false"
"image-keyboard-response",37,76234,"0.0-4.8-1.8","gnh9a92utd42dqx",281,"44.csv","","null","resources/maskTrios/BBA3.jpg","null","",NA,NA,NA,NA,""
"image-keyboard-response",38,77446,"0.0-4.8-2.8","gnh9a92utd42dqx",281,"44.csv","","null","resources/images/fishbone.png","null","",NA,NA,NA,NA,""
"image-keyboard-response",39,78103,"0.0-4.9-0.9","gnh9a92utd42dqx",281,"44.csv","","655.3000000119209","resources/trios/L1T2A3.jpg","37","restless",0.8,0.8,0.2,0.247826492110485,"true"
"image-keyboard-response",40,78504,"0.0-4.9-1.9","gnh9a92utd42dqx",281,"44.csv","","null","resources/maskTrios/L1BB.jpg","null","",NA,NA,NA,NA,""
"image-keyboard-response",41,79715,"0.0-4.9-2.9","gnh9a92utd42dqx",281,"44.csv","","null","resources/images/coin2.png","null","",NA,NA,NA,NA,""
"image-keyboard-response",42,81069,"0.0-4.10-0.10","gnh9a92utd42dqx",281,"44.csv","","1352.699999988079","resources/trios/L1T2A3.jpg","37","restless",0.8,0.8,0.3,0.875801265922419,"false"
"image-keyboard-response",43,81479,"0.0-4.10-1.10","gnh9a92utd42dqx",281,"44.csv","","null","resources/maskTrios/L1BB.jpg","null","",NA,NA,NA,NA,""
"image-keyboard-response",44,82684,"0.0-4.10-2.10","gnh9a92utd42dqx",281,"44.csv","","null","resources/images/fishbone.png","null","",NA,NA,NA,NA,""
"image-keyboard-response",45,84056,"0.0-4.11-0.11","gnh9a92utd42dqx",281,"44.csv","","1370.8999999761581","resources/trios/L1T2A3.jpg","37","restless",0.8,0.8,0.3,0.8162837907595,"false"
"image-keyboard-response",46,84471,"0.0-4.11-1.11","gnh9a92utd42dqx",281,"44.csv","","null","resources/maskTrios/L1BB.jpg","null","",NA,NA,NA,NA,""
"image-keyboard-response",47,85684,"0.0-4.11-2.11","gnh9a92utd42dqx",281,"44.csv","","null","resources/images/fishbone.png","null","",NA,NA,NA,NA,""
"image-keyboard-response",48,86937,"0.0-4.12-0.12","gnh9a92utd42dqx",281,"44.csv","","1252","resources/trios/L1T2A3.jpg","39","restless",0.8,0.8,0.3,0.619624561765882,"false"
"image-keyboard-response",49,87349,"0.0-4.12-1.12","gnh9a92utd42dqx",281,"44.csv","","null","resources/maskTrios/BBA3.jpg","null","",NA,NA,NA,NA,""
"image-keyboard-response",50,88559,"0.0-4.12-2.12","gnh9a92utd42dqx",281,"44.csv","","null","resources/images/fishbone.png","null","",NA,NA,NA,NA,""
"image-keyboard-response",51,90577,"0.0-4.13-0.13","gnh9a92utd42dqx",281,"44.csv","","2017.699999988079","resources/trios/L1T2A3.jpg","38","restless",0.8,0.8,0.3,0.214891803192471,"true"
"image-keyboard-response",52,90983,"0.0-4.13-1.13","gnh9a92utd42dqx",281,"44.csv","","null","resources/maskTrios/BT2B.jpg","null","",NA,NA,NA,NA,""
"image-keyboard-response",53,92196,"0.0-4.13-2.13","gnh9a92utd42dqx",281,"44.csv","","null","resources/images/coin2.png","null","",NA,NA,NA,NA,""
"image-keyboard-response",54,93537,"0.0-4.14-0.14","gnh9a92utd42dqx",281,"44.csv","","1339.5999999642372","resources/trios/L1T2A3.jpg","38","restless",0.8,0.8,0.3,0.45190841383637,"true"
"image-keyboard-response",55,93946,"0.0-4.14-1.14","gnh9a92utd42dqx",281,"44.csv","","null","resources/maskTrios/BT2B.jpg","null","",NA,NA,NA,NA,""
"image-keyboard-response",56,95159,"0.0-4.14-2.14","gnh9a92utd42dqx",281,"44.csv","","null","resources/images/coin2.png","null","",NA,NA,NA,NA,""
"image-keyboard-response",57,96553,"0.0-4.15-0.15","gnh9a92utd42dqx",281,"44.csv","","1393.2000000476837","resources/trios/L1T2A3.jpg","38","restless",0.8,0.8,0.3,0.0388125454433859,"true"
"image-keyboard-response",58,96964,"0.0-4.15-1.15","gnh9a92utd42dqx",281,"44.csv","","null","resources/maskTrios/BT2B.jpg","null","",NA,NA,NA,NA,""
"image-keyboard-response",59,98168,"0.0-4.15-2.15","gnh9a92utd42dqx",281,"44.csv","","null","resources/images/coin2.png","null","",NA,NA,NA,NA,""
"image-keyboard-response",60,99514,"0.0-4.16-0.16","gnh9a92utd42dqx",281,"44.csv","","1345","resources/trios/L1T2A3.jpg","38","restless",0.8,0.8,0.3,0.792508514121844,"true"
"image-keyboard-response",61,99930,"0.0-4.16-1.16","gnh9a92utd42dqx",281,"44.csv","","null","resources/maskTrios/BT2B.jpg","null","",NA,NA,NA,NA,""
"image-keyboard-response",62,101132,"0.0-4.16-2.16","gnh9a92utd42dqx",281,"44.csv","","null","resources/images/coin2.png","null","",NA,NA,NA,NA,""
"image-keyboard-response",63,102360,"0.0-4.17-0.17","gnh9a92utd42dqx",281,"44.csv","","1226.300000011921","resources/trios/L1T2A3.jpg","38","restless",0.8,0.8,0.3,0.242317186004468,"true"
"image-keyboard-response",64,102763,"0.0-4.17-1.17","gnh9a92utd42dqx",281,"44.csv","","null","resources/maskTrios/BT2B.jpg","null","",NA,NA,NA,NA,""
"image-keyboard-response",65,103974,"0.0-4.17-2.17","gnh9a92utd42dqx",281,"44.csv","","null","resources/images/coin2.png","null","",NA,NA,NA,NA,""
"image-keyboard-response",66,105196,"0.0-4.18-0.18","gnh9a92utd42dqx",281,"44.csv","","1220.5999999642372","resources/trios/L1T2A3.jpg","38","restless",0.8,0.8,0.3,0.769291566449692,"true"
"image-keyboard-response",67,105611,"0.0-4.18-1.18","gnh9a92utd42dqx",281,"44.csv","","null","resources/maskTrios/BT2B.jpg","null","",NA,NA,NA,NA,""
"image-keyboard-response",68,106816,"0.0-4.18-2.18","gnh9a92utd42dqx",281,"44.csv","","null","resources/images/coin2.png","null","",NA,NA,NA,NA,""
"image-keyboard-response",69,107998,"0.0-4.19-0.19","gnh9a92utd42dqx",281,"44.csv","","1181.300000011921","resources/trios/L1T2A3.jpg","38","restless",0.8,0.8,0.3,0.358571024112434,"true"
"image-keyboard-response",70,108402,"0.0-4.19-1.19","gnh9a92utd42dqx",281,"44.csv","","null","resources/maskTrios/BT2B.jpg","null","",NA,NA,NA,NA,""
"image-keyboard-response",71,109616,"0.0-4.19-2.19","gnh9a92utd42dqx",281,"44.csv","","null","resources/images/coin2.png","null","",NA,NA,NA,NA,""
"image-keyboard-response",72,110872,"0.0-4.20-0.20","gnh9a92utd42dqx",281,"44.csv","","1255","resources/trios/L1T2A3.jpg","38","restless",0.8,0.8,0.3,0.458574416819499,"true"
"image-keyboard-response",73,111280,"0.0-4.20-1.20","gnh9a92utd42dqx",281,"44.csv","","null","resources/maskTrios/BT2B.jpg","null","",NA,NA,NA,NA,""
"image-keyboard-response",74,112484,"0.0-4.20-2.20","gnh9a92utd42dqx",281,"44.csv","","null","resources/images/coin2.png","null","",NA,NA,NA,NA,""
"image-keyboard-response",75,113652,"0.0-4.21-0.21","gnh9a92utd42dqx",281,"44.csv","","1166.3999999761581","resources/trios/L1T2A3.jpg","38","restless",0.8,0.7,0.3,0.512174907183699,"true"
"image-keyboard-response",76,114054,"0.0-4.21-1.21","gnh9a92utd42dqx",281,"44.csv","","null","resources/maskTrios/BT2B.jpg","null","",NA,NA,NA,NA,""
"image-keyboard-response",77,115262,"0.0-4.21-2.21","gnh9a92utd42dqx",281,"44.csv","","null","resources/images/coin2.png","null","",NA,NA,NA,NA,""
"image-keyboard-response",78,116198,"0.0-4.22-0.22","gnh9a92utd42dqx",281,"44.csv","","935.3999999761581","resources/trios/L1T2A3.jpg","38","restless",0.8,0.8,0.3,0.772207745409529,"true"
"image-keyboard-response",79,116601,"0.0-4.22-1.22","gnh9a92utd42dqx",281,"44.csv","","null","resources/maskTrios/BT2B.jpg","null","",NA,NA,NA,NA,""
"image-keyboard-response",80,117810,"0.0-4.22-2.22","gnh9a92utd42dqx",281,"44.csv","","null","resources/images/coin2.png","null","",NA,NA,NA,NA,""
"image-keyboard-response",81,119005,"0.0-4.23-0.23","gnh9a92utd42dqx",281,"44.csv","","1193.8999999761581","resources/trios/L1T2A3.jpg","38","restless",0.8,0.8,0.3,0.869146235541437,"false"
"image-keyboard-response",82,119409,"0.0-4.23-1.23","gnh9a92utd42dqx",281,"44.csv","","null","resources/maskTrios/BT2B.jpg","null","",NA,NA,NA,NA,""
"image-keyboard-response",83,120616,"0.0-4.23-2.23","gnh9a92utd42dqx",281,"44.csv","","null","resources/images/fishbone.png","null","",NA,NA,NA,NA,""
"image-keyboard-response",84,121930,"0.0-4.24-0.24","gnh9a92utd42dqx",281,"44.csv","","1313.300000011921","resources/trios/L1T2A3.jpg","37","restless",0.8,0.8,0.3,0.693428021613705,"true"
"image-keyboard-response",85,122338,"0.0-4.24-1.24","gnh9a92utd42dqx",281,"44.csv","","null","resources/maskTrios/L1BB.jpg","null","",NA,NA,NA,NA,""
"image-keyboard-response",86,123547,"0.0-4.24-2.24","gnh9a92utd42dqx",281,"44.csv","","null","resources/images/coin2.png","null","",NA,NA,NA,NA,""
"image-keyboard-response",87,124725,"0.0-4.25-0.25","gnh9a92utd42dqx",281,"44.csv","","1177.7000000476837","resources/trios/L1T2A3.jpg","37","restless",0.7,0.8,0.4,0.5872860087777,"true"
"image-keyboard-response",88,125139,"0.0-4.25-1.25","gnh9a92utd42dqx",281,"44.csv","","null","resources/maskTrios/L1BB.jpg","null","",NA,NA,NA,NA,""
"image-keyboard-response",89,126345,"0.0-4.25-2.25","gnh9a92utd42dqx",281,"44.csv","","null","resources/images/coin2.png","null","",NA,NA,NA,NA,""
"image-keyboard-response",90,127452,"0.0-4.26-0.26","gnh9a92utd42dqx",281,"44.csv","","1106.1000000238419","resources/trios/L1T2A3.jpg","37","restless",0.7,0.7,0.4,0.894061176908885,"false"
"image-keyboard-response",91,127865,"0.0-4.26-1.26","gnh9a92utd42dqx",281,"44.csv","","null","resources/maskTrios/L1BB.jpg","null","",NA,NA,NA,NA,""
"image-keyboard-response",92,129081,"0.0-4.26-2.26","gnh9a92utd42dqx",281,"44.csv","","null","resources/images/fishbone.png","null","",NA,NA,NA,NA,""
"image-keyboard-response",93,130512,"0.0-4.27-0.27","gnh9a92utd42dqx",281,"44.csv","","1430.6000000238419","resources/trios/L1T2A3.jpg","38","restless",0.7,0.7,0.4,0.197511383785941,"true"
"image-keyboard-response",94,130918,"0.0-4.27-1.27","gnh9a92utd42dqx",281,"44.csv","","null","resources/maskTrios/BT2B.jpg","null","",NA,NA,NA,NA,""
"image-keyboard-response",95,132130,"0.0-4.27-2.27","gnh9a92utd42dqx",281,"44.csv","","null","resources/images/coin2.png","null","",NA,NA,NA,NA,""
"image-keyboard-response",96,133437,"0.0-4.28-0.28","gnh9a92utd42dqx",281,"44.csv","","1306.699999988079","resources/trios/L1T2A3.jpg","38","restless",0.7,0.7,0.4,0.0664740725992969,"true"
"image-keyboard-response",97,133849,"0.0-4.28-1.28","gnh9a92utd42dqx",281,"44.csv","","null","resources/maskTrios/BT2B.jpg","null","",NA,NA,NA,NA,""
"image-keyboard-response",98,135057,"0.0-4.28-2.28","gnh9a92utd42dqx",281,"44.csv","","null","resources/images/coin2.png","null","",NA,NA,NA,NA,""
"image-keyboard-response",99,136643,"0.0-4.29-0.29","gnh9a92utd42dqx",281,"44.csv","","1584.800000011921","resources/trios/L1T2A3.jpg","38","restless",0.6,0.7,0.4,0.1873676155217,"true"
"image-keyboard-response",100,137044,"0.0-4.29-1.29","gnh9a92utd42dqx",281,"44.csv","","null","resources/maskTrios/BT2B.jpg","null","",NA,NA,NA,NA,""
"image-keyboard-response",101,138257,"0.0-4.29-2.29","gnh9a92utd42dqx",281,"44.csv","","null","resources/images/coin2.png","null","",NA,NA,NA,NA,""
"image-keyboard-response",102,140204,"0.0-4.30-0.30","gnh9a92utd42dqx",281,"44.csv","","1945.9000000357628","resources/trios/L1T2A3.jpg","37","restless",0.6,0.7,0.4,0.0454761403543276,"true"
"image-keyboard-response",103,140610,"0.0-4.30-1.30","gnh9a92utd42dqx",281,"44.csv","","null","resources/maskTrios/L1BB.jpg","null","",NA,NA,NA,NA,""
"image-keyboard-response",104,141825,"0.0-4.30-2.30","gnh9a92utd42dqx",281,"44.csv","","null","resources/images/coin2.png","null","",NA,NA,NA,NA,""
"image-keyboard-response",105,143556,"0.0-4.31-0.31","gnh9a92utd42dqx",281,"44.csv","","1729.2999999523163","resources/trios/L1T2A3.jpg","38","restless",0.6,0.6,0.4,0.715435476600243,"false"
"image-keyboard-response",106,143963,"0.0-4.31-1.31","gnh9a92utd42dqx",281,"44.csv","","null","resources/maskTrios/BT2B.jpg","null","",NA,NA,NA,NA,""
"image-keyboard-response",107,145168,"0.0-4.31-2.31","gnh9a92utd42dqx",281,"44.csv","","null","resources/images/fishbone.png","null","",NA,NA,NA,NA,""
"image-keyboard-response",108,146917,"0.0-4.32-0.32","gnh9a92utd42dqx",281,"44.csv","","1747.800000011921","resources/trios/L1T2A3.jpg","39","restless",0.6,0.6,0.4,0.616173066158449,"false"
"image-keyboard-response",109,147331,"0.0-4.32-1.32","gnh9a92utd42dqx",281,"44.csv","","null","resources/maskTrios/BBA3.jpg","null","",NA,NA,NA,NA,""
"image-keyboard-response",110,148546,"0.0-4.32-2.32","gnh9a92utd42dqx",281,"44.csv","","null","resources/images/fishbone.png","null","",NA,NA,NA,NA,""
"image-keyboard-response",111,150293,"0.0-4.33-0.33","gnh9a92utd42dqx",281,"44.csv","","1745.3999999761581","resources/trios/L1T2A3.jpg","37","restless",0.5,0.6,0.4,0.863939237884824,"false"
"image-keyboard-response",112,150694,"0.0-4.33-1.33","gnh9a92utd42dqx",281,"44.csv","","null","resources/maskTrios/L1BB.jpg","null","",NA,NA,NA,NA,""
"image-keyboard-response",113,151899,"0.0-4.33-2.33","gnh9a92utd42dqx",281,"44.csv","","null","resources/images/fishbone.png","null","",NA,NA,NA,NA,""
"image-keyboard-response",114,152985,"0.0-4.34-0.34","gnh9a92utd42dqx",281,"44.csv","","1085","resources/trios/L1T2A3.jpg","38","restless",0.5,0.6,0.5,0.348191774203159,"true"
"image-keyboard-response",115,153399,"0.0-4.34-1.34","gnh9a92utd42dqx",281,"44.csv","","null","resources/maskTrios/BT2B.jpg","null","",NA,NA,NA,NA,""
"image-keyboard-response",116,154600,"0.0-4.34-2.34","gnh9a92utd42dqx",281,"44.csv","","null","resources/images/coin2.png","null","",NA,NA,NA,NA,""
"image-keyboard-response",117,155638,"0.0-4.35-0.35","gnh9a92utd42dqx",281,"44.csv","","1037.2000000476837","resources/trios/L1T2A3.jpg","38","restless",0.5,0.6,0.5,0.0434717315908331,"true"
"image-keyboard-response",118,156050,"0.0-4.35-1.35","gnh9a92utd42dqx",281,"44.csv","","null","resources/maskTrios/BT2B.jpg","null","",NA,NA,NA,NA,""
"image-keyboard-response",119,157257,"0.0-4.35-2.35","gnh9a92utd42dqx",281,"44.csv","","null","resources/images/coin2.png","null","",NA,NA,NA,NA,""
"image-keyboard-response",120,158489,"0.0-4.36-0.36","gnh9a92utd42dqx",281,"44.csv","","1231.3999999761581","resources/trios/L1T2A3.jpg","38","restless",0.5,0.6,0.5,0.224586449876043,"true"
"image-keyboard-response",121,158894,"0.0-4.36-1.36","gnh9a92utd42dqx",281,"44.csv","","null","resources/maskTrios/BT2B.jpg","null","",NA,NA,NA,NA,""
"image-keyboard-response",122,160099,"0.0-4.36-2.36","gnh9a92utd42dqx",281,"44.csv","","null","resources/images/coin2.png","null","",NA,NA,NA,NA,""
"image-keyboard-response",123,161150,"0.0-4.37-0.37","gnh9a92utd42dqx",281,"44.csv","","1049.9000000357628","resources/trios/L1T2A3.jpg","38","restless",0.5,0.6,0.5,0.602813553584305,"false"
"image-keyboard-response",124,161563,"0.0-4.37-1.37","gnh9a92utd42dqx",281,"44.csv","","null","resources/maskTrios/BT2B.jpg","null","",NA,NA,NA,NA,""
"image-keyboard-response",125,162765,"0.0-4.37-2.37","gnh9a92utd42dqx",281,"44.csv","","null","resources/images/fishbone.png","null","",NA,NA,NA,NA,""
"image-keyboard-response",126,163977,"0.0-4.38-0.38","gnh9a92utd42dqx",281,"44.csv","","1211.6000000238419","resources/trios/L1T2A3.jpg","39","restless",0.5,0.6,0.5,0.876490350682724,"false"
"image-keyboard-response",127,164381,"0.0-4.38-1.38","gnh9a92utd42dqx",281,"44.csv","","null","resources/maskTrios/BBA3.jpg","null","",NA,NA,NA,NA,""
"image-keyboard-response",128,165592,"0.0-4.38-2.38","gnh9a92utd42dqx",281,"44.csv","","null","resources/images/fishbone.png","null","",NA,NA,NA,NA,""
"image-keyboard-response",129,166707,"0.0-4.39-0.39","gnh9a92utd42dqx",281,"44.csv","","1114.199999988079","resources/trios/L1T2A3.jpg","37","restless",0.5,0.6,0.5,0.214215293983356,"true"
"image-keyboard-response",130,167115,"0.0-4.39-1.39","gnh9a92utd42dqx",281,"44.csv","","null","resources/maskTrios/L1BB.jpg","null","",NA,NA,NA,NA,""
"image-keyboard-response",131,168331,"0.0-4.39-2.39","gnh9a92utd42dqx",281,"44.csv","","null","resources/images/coin2.png","null","",NA,NA,NA,NA,""
"image-keyboard-response",132,169308,"0.0-4.40-0.40","gnh9a92utd42dqx",281,"44.csv","","975.7999999523163","resources/trios/L1T2A3.jpg","37","restless",0.6,0.6,0.5,0.6990772380559,"false"
"image-keyboard-response",133,169715,"0.0-4.40-1.40","gnh9a92utd42dqx",281,"44.csv","","null","resources/maskTrios/L1BB.jpg","null","",NA,NA,NA,NA,""
"image-keyboard-response",134,170931,"0.0-4.40-2.40","gnh9a92utd42dqx",281,"44.csv","","null","resources/images/fishbone.png","null","",NA,NA,NA,NA,""
"image-keyboard-response",135,171673,"0.0-4.41-0.41","gnh9a92utd42dqx",281,"44.csv","","741","resources/trios/L1T2A3.jpg","38","restless",0.6,0.6,0.5,0.450007890099874,"true"
"image-keyboard-response",136,172088,"0.0-4.41-1.41","gnh9a92utd42dqx",281,"44.csv","","null","resources/maskTrios/BT2B.jpg","null","",NA,NA,NA,NA,""
"image-keyboard-response",137,173300,"0.0-4.41-2.41","gnh9a92utd42dqx",281,"44.csv","","null","resources/images/coin2.png","null","",NA,NA,NA,NA,""
"image-keyboard-response",138,174263,"0.0-4.42-0.42","gnh9a92utd42dqx",281,"44.csv","","963.1999999880791","resources/trios/L1T2A3.jpg","38","restless",0.6,0.5,0.5,0.284651272344981,"true"
"image-keyboard-response",139,174675,"0.0-4.42-1.42","gnh9a92utd42dqx",281,"44.csv","","null","resources/maskTrios/BT2B.jpg","null","",NA,NA,NA,NA,""
"image-keyboard-response",140,175880,"0.0-4.42-2.42","gnh9a92utd42dqx",281,"44.csv","","null","resources/images/coin2.png","null","",NA,NA,NA,NA,""
"image-keyboard-response",141,177089,"0.0-4.43-0.43","gnh9a92utd42dqx",281,"44.csv","","1208.199999988079","resources/trios/L1T2A3.jpg","38","restless",0.6,0.5,0.5,0.2761883820255,"true"
"image-keyboard-response",142,177499,"0.0-4.43-1.43","gnh9a92utd42dqx",281,"44.csv","","null","resources/maskTrios/BT2B.jpg","null","",NA,NA,NA,NA,""
"image-keyboard-response",143,178714,"0.0-4.43-2.43","gnh9a92utd42dqx",281,"44.csv","","null","resources/images/coin2.png","null","",NA,NA,NA,NA,""
"image-keyboard-response",144,179714,"0.0-4.44-0.44","gnh9a92utd42dqx",281,"44.csv","","999.3999999761581","resources/trios/L1T2A3.jpg","38","restless",0.6,0.5,0.6,0.500342163034588,"false"
"image-keyboard-response",145,180117,"0.0-4.44-1.44","gnh9a92utd42dqx",281,"44.csv","","null","resources/maskTrios/BT2B.jpg","null","",NA,NA,NA,NA,""
"image-keyboard-response",146,181333,"0.0-4.44-2.44","gnh9a92utd42dqx",281,"44.csv","","null","resources/images/fishbone.png","null","",NA,NA,NA,NA,""
"image-keyboard-response",147,182210,"0.0-4.45-0.45","gnh9a92utd42dqx",281,"44.csv","","875.8000000119209","resources/trios/L1T2A3.jpg","37","restless",0.6,0.5,0.6,0.122780442550837,"true"
"image-keyboard-response",148,182617,"0.0-4.45-1.45","gnh9a92utd42dqx",281,"44.csv","","null","resources/maskTrios/L1BB.jpg","null","",NA,NA,NA,NA,""
"image-keyboard-response",149,183830,"0.0-4.45-2.45","gnh9a92utd42dqx",281,"44.csv","","null","resources/images/coin2.png","null","",NA,NA,NA,NA,""
"image-keyboard-response",150,184790,"0.0-4.46-0.46","gnh9a92utd42dqx",281,"44.csv","","959.0999999642372","resources/trios/L1T2A3.jpg","37","restless",0.6,0.5,0.6,0.936171388763808,"false"
"image-keyboard-response",151,185199,"0.0-4.46-1.46","gnh9a92utd42dqx",281,"44.csv","","null","resources/maskTrios/L1BB.jpg","null","",NA,NA,NA,NA,""
"image-keyboard-response",152,186413,"0.0-4.46-2.46","gnh9a92utd42dqx",281,"44.csv","","null","resources/images/fishbone.png","null","",NA,NA,NA,NA,""
"image-keyboard-response",153,186932,"0.0-4.47-0.47","gnh9a92utd42dqx",281,"44.csv","","517.9000000357628","resources/trios/L1T2A3.jpg","38","restless",0.6,0.5,0.7,0.636249112368018,"false"
"image-keyboard-response",154,187339,"0.0-4.47-1.47","gnh9a92utd42dqx",281,"44.csv","","null","resources/maskTrios/BT2B.jpg","null","",NA,NA,NA,NA,""
"image-keyboard-response",155,188541,"0.0-4.47-2.47","gnh9a92utd42dqx",281,"44.csv","","null","resources/images/fishbone.png","null","",NA,NA,NA,NA,""
"image-keyboard-response",156,189332,"0.0-4.48-0.48","gnh9a92utd42dqx",281,"44.csv","","789.9000000357628","resources/trios/L1T2A3.jpg","37","restless",0.6,0.5,0.7,0.40562042836691,"true"
"image-keyboard-response",157,189750,"0.0-4.48-1.48","gnh9a92utd42dqx",281,"44.csv","","null","resources/maskTrios/L1BB.jpg","null","",NA,NA,NA,NA,""
"image-keyboard-response",158,190960,"0.0-4.48-2.48","gnh9a92utd42dqx",281,"44.csv","","null","resources/images/coin2.png","null","",NA,NA,NA,NA,""
"image-keyboard-response",159,191802,"0.0-4.49-0.49","gnh9a92utd42dqx",281,"44.csv","","840.6999999880791","resources/trios/L1T2A3.jpg","37","restless",0.6,0.5,0.7,0.937474259769801,"false"
"image-keyboard-response",160,192208,"0.0-4.49-1.49","gnh9a92utd42dqx",281,"44.csv","","null","resources/maskTrios/L1BB.jpg","null","",NA,NA,NA,NA,""
"image-keyboard-response",161,193411,"0.0-4.49-2.49","gnh9a92utd42dqx",281,"44.csv","","null","resources/images/fishbone.png","null","",NA,NA,NA,NA,""
"image-keyboard-response",162,193758,"0.0-4.50-0.50","gnh9a92utd42dqx",281,"44.csv","","344.89999997615814","resources/trios/L1T2A3.jpg","39","restless",0.6,0.5,0.7,0.0111178843602107,"true"
"image-keyboard-response",163,194161,"0.0-4.50-1.50","gnh9a92utd42dqx",281,"44.csv","","null","resources/maskTrios/BBA3.jpg","null","",NA,NA,NA,NA,""
"image-keyboard-response",164,195366,"0.0-4.50-2.50","gnh9a92utd42dqx",281,"44.csv","","null","resources/images/coin2.png","null","",NA,NA,NA,NA,""
"image-keyboard-response",165,196149,"0.0-4.51-0.51","gnh9a92utd42dqx",281,"44.csv","","781.4000000357628","resources/trios/L1T2A3.jpg","39","restless",0.6,0.5,0.7,0.290704252408704,"true"
"image-keyboard-response",166,196560,"0.0-4.51-1.51","gnh9a92utd42dqx",281,"44.csv","","null","resources/maskTrios/BBA3.jpg","null","",NA,NA,NA,NA,""
"image-keyboard-response",167,197767,"0.0-4.51-2.51","gnh9a92utd42dqx",281,"44.csv","","null","resources/images/coin2.png","null","",NA,NA,NA,NA,""
"image-keyboard-response",168,198584,"0.0-4.52-0.52","gnh9a92utd42dqx",281,"44.csv","","815.5","resources/trios/L1T2A3.jpg","39","restless",0.6,0.5,0.7,0.30480646526109,"true"
"image-keyboard-response",169,198998,"0.0-4.52-1.52","gnh9a92utd42dqx",281,"44.csv","","null","resources/maskTrios/BBA3.jpg","null","",NA,NA,NA,NA,""
"image-keyboard-response",170,200208,"0.0-4.52-2.52","gnh9a92utd42dqx",281,"44.csv","","null","resources/images/coin2.png","null","",NA,NA,NA,NA,""
"image-keyboard-response",171,201161,"0.0-4.53-0.53","gnh9a92utd42dqx",281,"44.csv","","951.9000000357628","resources/trios/L1T2A3.jpg","39","restless",0.6,0.5,0.7,0.22674445376011,"true"
"image-keyboard-response",172,201564,"0.0-4.53-1.53","gnh9a92utd42dqx",281,"44.csv","","null","resources/maskTrios/BBA3.jpg","null","",NA,NA,NA,NA,""
"image-keyboard-response",173,202780,"0.0-4.53-2.53","gnh9a92utd42dqx",281,"44.csv","","null","resources/images/coin2.png","null","",NA,NA,NA,NA,""
"image-keyboard-response",174,203661,"0.0-4.54-0.54","gnh9a92utd42dqx",281,"44.csv","","879.6000000238419","resources/trios/L1T2A3.jpg","39","restless",0.6,0.5,0.6,0.173091673355838,"true"
"image-keyboard-response",175,204067,"0.0-4.54-1.54","gnh9a92utd42dqx",281,"44.csv","","null","resources/maskTrios/BBA3.jpg","null","",NA,NA,NA,NA,""
"image-keyboard-response",176,205284,"0.0-4.54-2.54","gnh9a92utd42dqx",281,"44.csv","","null","resources/images/coin2.png","null","",NA,NA,NA,NA,""
"image-keyboard-response",177,206121,"0.0-4.55-0.55","gnh9a92utd42dqx",281,"44.csv","","836.8000000119209","resources/trios/L1T2A3.jpg","39","restless",0.6,0.6,0.6,0.132572873262149,"true"
"image-keyboard-response",178,206531,"0.0-4.55-1.55","gnh9a92utd42dqx",281,"44.csv","","null","resources/maskTrios/BBA3.jpg","null","",NA,NA,NA,NA,""
"image-keyboard-response",179,207739,"0.0-4.55-2.55","gnh9a92utd42dqx",281,"44.csv","","null","resources/images/coin2.png","null","",NA,NA,NA,NA,""
"image-keyboard-response",180,208501,"0.0-4.56-0.56","gnh9a92utd42dqx",281,"44.csv","","761.8000000119209","resources/trios/L1T2A3.jpg","39","restless",0.6,0.6,0.6,0.532734999385204,"true"
"image-keyboard-response",181,208906,"0.0-4.56-1.56","gnh9a92utd42dqx",281,"44.csv","","null","resources/maskTrios/BBA3.jpg","null","",NA,NA,NA,NA,""
"image-keyboard-response",182,210117,"0.0-4.56-2.56","gnh9a92utd42dqx",281,"44.csv","","null","resources/images/coin2.png","null","",NA,NA,NA,NA,""
"image-keyboard-response",183,211137,"0.0-4.57-0.57","gnh9a92utd42dqx",281,"44.csv","","1018.6999999880791","resources/trios/L1T2A3.jpg","39","restless",0.6,0.5,0.6,0.452637956907701,"true"
"image-keyboard-response",184,211549,"0.0-4.57-1.57","gnh9a92utd42dqx",281,"44.csv","","null","resources/maskTrios/BBA3.jpg","null","",NA,NA,NA,NA,""
"image-keyboard-response",185,212764,"0.0-4.57-2.57","gnh9a92utd42dqx",281,"44.csv","","null","resources/images/coin2.png","null","",NA,NA,NA,NA,""
"image-keyboard-response",186,213584,"0.0-4.58-0.58","gnh9a92utd42dqx",281,"44.csv","","818.6000000238419","resources/trios/L1T2A3.jpg","39","restless",0.6,0.5,0.6,0.553277253762585,"true"
"image-keyboard-response",187,213999,"0.0-4.58-1.58","gnh9a92utd42dqx",281,"44.csv","","null","resources/maskTrios/BBA3.jpg","null","",NA,NA,NA,NA,""
"image-keyboard-response",188,215214,"0.0-4.58-2.58","gnh9a92utd42dqx",281,"44.csv","","null","resources/images/coin2.png","null","",NA,NA,NA,NA,""
"image-keyboard-response",189,215883,"0.0-4.59-0.59","gnh9a92utd42dqx",281,"44.csv","","667.6999999880791","resources/trios/L1T2A3.jpg","39","restless",0.6,0.5,0.6,0.485141430543533,"true"
"image-keyboard-response",190,216298,"0.0-4.59-1.59","gnh9a92utd42dqx",281,"44.csv","","null","resources/maskTrios/BBA3.jpg","null","",NA,NA,NA,NA,""
"image-keyboard-response",191,217509,"0.0-4.59-2.59","gnh9a92utd42dqx",281,"44.csv","","null","resources/images/coin2.png","null","",NA,NA,NA,NA,""
"image-keyboard-response",192,218144,"0.0-4.60-0.60","gnh9a92utd42dqx",281,"44.csv","","633.3999999761581","resources/trios/L1T2A3.jpg","39","restless",0.6,0.5,0.6,0.182488414159369,"true"
"image-keyboard-response",193,218546,"0.0-4.60-1.60","gnh9a92utd42dqx",281,"44.csv","","null","resources/maskTrios/BBA3.jpg","null","",NA,NA,NA,NA,""
"image-keyboard-response",194,219748,"0.0-4.60-2.60","gnh9a92utd42dqx",281,"44.csv","","null","resources/images/coin2.png","null","",NA,NA,NA,NA,""
"image-keyboard-response",195,220260,"0.0-4.61-0.61","gnh9a92utd42dqx",281,"44.csv","","510","resources/trios/L1T2A3.jpg","39","restless",0.6,0.4,0.6,0.608227779491053,"false"
"image-keyboard-response",196,220667,"0.0-4.61-1.61","gnh9a92utd42dqx",281,"44.csv","","null","resources/maskTrios/BBA3.jpg","null","",NA,NA,NA,NA,""
"image-keyboard-response",197,221876,"0.0-4.61-2.61","gnh9a92utd42dqx",281,"44.csv","","null","resources/images/fishbone.png","null","",NA,NA,NA,NA,""
"image-keyboard-response",198,223250,"0.0-4.62-0.62","gnh9a92utd42dqx",281,"44.csv","","1372.3999999761581","resources/trios/L1T2A3.jpg","37","restless",0.6,0.4,0.6,0.780201194366871,"false"
"image-keyboard-response",199,223663,"0.0-4.62-1.62","gnh9a92utd42dqx",281,"44.csv","","null","resources/maskTrios/L1BB.jpg","null","",NA,NA,NA,NA,""
"image-keyboard-response",200,224867,"0.0-4.62-2.62","gnh9a92utd42dqx",281,"44.csv","","null","resources/images/fishbone.png","null","",NA,NA,NA,NA,""
"image-keyboard-response",201,225733,"0.0-4.63-0.63","gnh9a92utd42dqx",281,"44.csv","","865","resources/trios/L1T2A3.jpg","39","restless",0.6,0.3,0.6,0.653659231713519,"false"
"image-keyboard-response",202,226144,"0.0-4.63-1.63","gnh9a92utd42dqx",281,"44.csv","","null","resources/maskTrios/BBA3.jpg","null","",NA,NA,NA,NA,""
"image-keyboard-response",203,227354,"0.0-4.63-2.63","gnh9a92utd42dqx",281,"44.csv","","null","resources/images/fishbone.png","null","",NA,NA,NA,NA,""
"image-keyboard-response",204,227726,"0.0-4.64-0.64","gnh9a92utd42dqx",281,"44.csv","","370.9000000357628","resources/trios/L1T2A3.jpg","38","restless",0.7,0.3,0.6,0.398863021830092,"false"
"image-keyboard-response",205,228133,"0.0-4.64-1.64","gnh9a92utd42dqx",281,"44.csv","","null","resources/maskTrios/BT2B.jpg","null","",NA,NA,NA,NA,""
"image-keyboard-response",206,229347,"0.0-4.64-2.64","gnh9a92utd42dqx",281,"44.csv","","null","resources/images/fishbone.png","null","",NA,NA,NA,NA,""
"image-keyboard-response",207,230177,"0.0-4.65-0.65","gnh9a92utd42dqx",281,"44.csv","","828.8000000119209","resources/trios/L1T2A3.jpg","37","restless",0.7,0.3,0.6,0.242934977676263,"true"
"image-keyboard-response",208,230583,"0.0-4.65-1.65","gnh9a92utd42dqx",281,"44.csv","","null","resources/maskTrios/L1BB.jpg","null","",NA,NA,NA,NA,""
"image-keyboard-response",209,231796,"0.0-4.65-2.65","gnh9a92utd42dqx",281,"44.csv","","null","resources/images/coin2.png","null","",NA,NA,NA,NA,""
"image-keyboard-response",210,232472,"0.0-4.66-0.66","gnh9a92utd42dqx",281,"44.csv","","675","resources/trios/L1T2A3.jpg","37","restless",0.7,0.3,0.6,0.535861230881809,"true"
"image-keyboard-response",211,232883,"0.0-4.66-1.66","gnh9a92utd42dqx",281,"44.csv","","null","resources/maskTrios/L1BB.jpg","null","",NA,NA,NA,NA,""
"image-keyboard-response",212,234099,"0.0-4.66-2.66","gnh9a92utd42dqx",281,"44.csv","","null","resources/images/coin2.png","null","",NA,NA,NA,NA,""
"image-keyboard-response",213,234644,"0.0-4.67-0.67","gnh9a92utd42dqx",281,"44.csv","","543","resources/trios/L1T2A3.jpg","37","restless",0.7,0.3,0.6,0.345093554021288,"true"
"image-keyboard-response",214,235061,"0.0-4.67-1.67","gnh9a92utd42dqx",281,"44.csv","","null","resources/maskTrios/L1BB.jpg","null","",NA,NA,NA,NA,""
"image-keyboard-response",215,236273,"0.0-4.67-2.67","gnh9a92utd42dqx",281,"44.csv","","null","resources/images/coin2.png","null","",NA,NA,NA,NA,""
"image-keyboard-response",216,236910,"0.0-4.68-0.68","gnh9a92utd42dqx",281,"44.csv","","636","resources/trios/L1T2A3.jpg","37","restless",0.7,0.3,0.6,0.43654484117774,"true"
"image-keyboard-response",217,237315,"0.0-4.68-1.68","gnh9a92utd42dqx",281,"44.csv","","null","resources/maskTrios/L1BB.jpg","null","",NA,NA,NA,NA,""
"image-keyboard-response",218,238518,"0.0-4.68-2.68","gnh9a92utd42dqx",281,"44.csv","","null","resources/images/coin2.png","null","",NA,NA,NA,NA,""
"image-keyboard-response",219,239155,"0.0-4.69-0.69","gnh9a92utd42dqx",281,"44.csv","","636.3000000119209","resources/trios/L1T2A3.jpg","37","restless",0.7,0.3,0.6,0.443614185799997,"true"
"image-keyboard-response",220,239570,"0.0-4.69-1.69","gnh9a92utd42dqx",281,"44.csv","","null","resources/maskTrios/L1BB.jpg","null","",NA,NA,NA,NA,""
"image-keyboard-response",221,240784,"0.0-4.69-2.69","gnh9a92utd42dqx",281,"44.csv","","null","resources/images/coin2.png","null","",NA,NA,NA,NA,""
"image-keyboard-response",222,241500,"0.0-4.70-0.70","gnh9a92utd42dqx",281,"44.csv","","714.7999999523163","resources/trios/L1T2A3.jpg","37","restless",0.7,0.3,0.6,0.101590708557208,"true"
"image-keyboard-response",223,241913,"0.0-4.70-1.70","gnh9a92utd42dqx",281,"44.csv","","null","resources/maskTrios/L1BB.jpg","null","",NA,NA,NA,NA,""
"image-keyboard-response",224,243118,"0.0-4.70-2.70","gnh9a92utd42dqx",281,"44.csv","","null","resources/images/coin2.png","null","",NA,NA,NA,NA,""
"image-keyboard-response",225,243585,"0.0-4.71-0.71","gnh9a92utd42dqx",281,"44.csv","","466.7000000476837","resources/trios/L1T2A3.jpg","37","restless",0.7,0.2,0.6,0.0999667947472225,"true"
"image-keyboard-response",226,243997,"0.0-4.71-1.71","gnh9a92utd42dqx",281,"44.csv","","null","resources/maskTrios/L1BB.jpg","null","",NA,NA,NA,NA,""
"image-keyboard-response",227,245200,"0.0-4.71-2.71","gnh9a92utd42dqx",281,"44.csv","","null","resources/images/coin2.png","null","",NA,NA,NA,NA,""
"image-keyboard-response",228,245557,"0.0-4.72-0.72","gnh9a92utd42dqx",281,"44.csv","","356.5","resources/trios/L1T2A3.jpg","37","restless",0.7,0.2,0.6,0.0752413222647244,"true"
"image-keyboard-response",229,245967,"0.0-4.72-1.72","gnh9a92utd42dqx",281,"44.csv","","null","resources/maskTrios/L1BB.jpg","null","",NA,NA,NA,NA,""
"image-keyboard-response",230,247184,"0.0-4.72-2.72","gnh9a92utd42dqx",281,"44.csv","","null","resources/images/coin2.png","null","",NA,NA,NA,NA,""
"image-keyboard-response",231,247479,"0.0-4.73-0.73","gnh9a92utd42dqx",281,"44.csv","","294.30000001192093","resources/trios/L1T2A3.jpg","37","restless",0.7,0.2,0.6,0.248971611370008,"true"
"image-keyboard-response",232,247883,"0.0-4.73-1.73","gnh9a92utd42dqx",281,"44.csv","","null","resources/maskTrios/L1BB.jpg","null","",NA,NA,NA,NA,""
"image-keyboard-response",233,249098,"0.0-4.73-2.73","gnh9a92utd42dqx",281,"44.csv","","null","resources/images/coin2.png","null","",NA,NA,NA,NA,""
"image-keyboard-response",234,249467,"0.0-4.74-0.74","gnh9a92utd42dqx",281,"44.csv","","367.69999998807907","resources/trios/L1T2A3.jpg","37","restless",0.7,0.3,0.6,0.470997799151528,"true"
"image-keyboard-response",235,249883,"0.0-4.74-1.74","gnh9a92utd42dqx",281,"44.csv","","null","resources/maskTrios/L1BB.jpg","null","",NA,NA,NA,NA,""
"image-keyboard-response",236,251096,"0.0-4.74-2.74","gnh9a92utd42dqx",281,"44.csv","","null","resources/images/coin2.png","null","",NA,NA,NA,NA,""
"image-keyboard-response",237,251428,"0.0-4.75-0.75","gnh9a92utd42dqx",281,"44.csv","","331.5999999642372","resources/trios/L1T2A3.jpg","37","restless",0.7,0.3,0.5,0.698217547794597,"true"
"image-keyboard-response",238,251832,"0.0-4.75-1.75","gnh9a92utd42dqx",281,"44.csv","","null","resources/maskTrios/L1BB.jpg","null","",NA,NA,NA,NA,""
"image-keyboard-response",239,253046,"0.0-4.75-2.75","gnh9a92utd42dqx",281,"44.csv","","null","resources/images/coin2.png","null","",NA,NA,NA,NA,""
"image-keyboard-response",240,253314,"0.0-4.76-0.76","gnh9a92utd42dqx",281,"44.csv","","267.2000000476837","resources/trios/L1T2A3.jpg","37","restless",0.7,0.3,0.5,0.839564838160441,"false"
"image-keyboard-response",241,253730,"0.0-4.76-1.76","gnh9a92utd42dqx",281,"44.csv","","null","resources/maskTrios/L1BB.jpg","null","",NA,NA,NA,NA,""
"image-keyboard-response",242,254946,"0.0-4.76-2.76","gnh9a92utd42dqx",281,"44.csv","","null","resources/images/fishbone.png","null","",NA,NA,NA,NA,""
"image-keyboard-response",243,255565,"0.0-4.77-0.77","gnh9a92utd42dqx",281,"44.csv","","618","resources/trios/L1T2A3.jpg","38","restless",0.7,0.3,0.5,0.52335549486823,"false"
"image-keyboard-response",244,255968,"0.0-4.77-1.77","gnh9a92utd42dqx",281,"44.csv","","null","resources/maskTrios/BT2B.jpg","null","",NA,NA,NA,NA,""
"image-keyboard-response",245,257184,"0.0-4.77-2.77","gnh9a92utd42dqx",281,"44.csv","","null","resources/images/fishbone.png","null","",NA,NA,NA,NA,""
"image-keyboard-response",246,257960,"0.0-4.78-0.78","gnh9a92utd42dqx",281,"44.csv","","774.6999999880791","resources/trios/L1T2A3.jpg","37","restless",0.7,0.3,0.5,0.769894594208824,"false"
"image-keyboard-response",247,258365,"0.0-4.78-1.78","gnh9a92utd42dqx",281,"44.csv","","null","resources/maskTrios/L1BB.jpg","null","",NA,NA,NA,NA,""
"image-keyboard-response",248,259568,"0.0-4.78-2.78","gnh9a92utd42dqx",281,"44.csv","","null","resources/images/fishbone.png","null","",NA,NA,NA,NA,""
"image-keyboard-response",249,259880,"0.0-4.79-0.79","gnh9a92utd42dqx",281,"44.csv","","311","resources/trios/L1T2A3.jpg","39","restless",0.7,0.3,0.5,0.184002858785038,"true"
"image-keyboard-response",250,260284,"0.0-4.79-1.79","gnh9a92utd42dqx",281,"44.csv","","null","resources/maskTrios/BBA3.jpg","null","",NA,NA,NA,NA,""
"image-keyboard-response",251,261500,"0.0-4.79-2.79","gnh9a92utd42dqx",281,"44.csv","","null","resources/images/coin2.png","null","",NA,NA,NA,NA,""
"image-keyboard-response",252,261801,"0.0-4.80-0.80","gnh9a92utd42dqx",281,"44.csv","","299.89999997615814","resources/trios/L1T2A3.jpg","39","restless",0.7,0.2,0.5,0.634539435043136,"false"
"image-keyboard-response",253,262205,"0.0-4.80-1.80","gnh9a92utd42dqx",281,"44.csv","","null","resources/maskTrios/BBA3.jpg","null","",NA,NA,NA,NA,""
"image-keyboard-response",254,263415,"0.0-4.80-2.80","gnh9a92utd42dqx",281,"44.csv","","null","resources/images/fishbone.png","null","",NA,NA,NA,NA,""
"image-keyboard-response",255,263791,"0.0-4.81-0.81","gnh9a92utd42dqx",281,"44.csv","","375.30000001192093","resources/trios/L1T2A3.jpg","38","restless",0.7,0.2,0.5,0.413127307397201,"false"
"image-keyboard-response",256,264205,"0.0-4.81-1.81","gnh9a92utd42dqx",281,"44.csv","","null","resources/maskTrios/BT2B.jpg","null","",NA,NA,NA,NA,""
"image-keyboard-response",257,265409,"0.0-4.81-2.81","gnh9a92utd42dqx",281,"44.csv","","null","resources/images/fishbone.png","null","",NA,NA,NA,NA,""
"image-keyboard-response",258,265732,"0.0-4.82-0.82","gnh9a92utd42dqx",281,"44.csv","","322.5","resources/trios/L1T2A3.jpg","39","restless",0.6,0.2,0.5,0.692245236905146,"false"
"image-keyboard-response",259,266147,"0.0-4.82-1.82","gnh9a92utd42dqx",281,"44.csv","","null","resources/maskTrios/BBA3.jpg","null","",NA,NA,NA,NA,""
"image-keyboard-response",260,267362,"0.0-4.82-2.82","gnh9a92utd42dqx",281,"44.csv","","null","resources/images/fishbone.png","null","",NA,NA,NA,NA,""
"image-keyboard-response",261,267577,"0.0-4.83-0.83","gnh9a92utd42dqx",281,"44.csv","","213.89999997615814","resources/trios/L1T2A3.jpg","37","restless",0.6,0.2,0.5,0.227077529847577,"true"
"image-keyboard-response",262,267984,"0.0-4.83-1.83","gnh9a92utd42dqx",281,"44.csv","","null","resources/maskTrios/L1BB.jpg","null","",NA,NA,NA,NA,""
"image-keyboard-response",263,269188,"0.0-4.83-2.83","gnh9a92utd42dqx",281,"44.csv","","null","resources/images/coin2.png","null","",NA,NA,NA,NA,""
"image-keyboard-response",264,269884,"0.0-4.84-0.84","gnh9a92utd42dqx",281,"44.csv","","695","resources/trios/L1T2A3.jpg","37","restless",0.6,0.2,0.5,0.45937003382344,"true"
"image-keyboard-response",265,270300,"0.0-4.84-1.84","gnh9a92utd42dqx",281,"44.csv","","null","resources/maskTrios/L1BB.jpg","null","",NA,NA,NA,NA,""
"image-keyboard-response",266,271514,"0.0-4.84-2.84","gnh9a92utd42dqx",281,"44.csv","","null","resources/images/coin2.png","null","",NA,NA,NA,NA,""
"image-keyboard-response",267,271909,"0.0-4.85-0.85","gnh9a92utd42dqx",281,"44.csv","","393.19999998807907","resources/trios/L1T2A3.jpg","37","restless",0.6,0.2,0.5,0.673742563451897,"false"
"image-keyboard-response",268,272314,"0.0-4.85-1.85","gnh9a92utd42dqx",281,"44.csv","","null","resources/maskTrios/L1BB.jpg","null","",NA,NA,NA,NA,""
"image-keyboard-response",269,273530,"0.0-4.85-2.85","gnh9a92utd42dqx",281,"44.csv","","null","resources/images/fishbone.png","null","",NA,NA,NA,NA,""
"image-keyboard-response",270,273803,"0.0-4.86-0.86","gnh9a92utd42dqx",281,"44.csv","","272.2000000476837","resources/trios/L1T2A3.jpg","38","restless",0.6,0.2,0.5,0.665407396952033,"false"
"image-keyboard-response",271,274218,"0.0-4.86-1.86","gnh9a92utd42dqx",281,"44.csv","","null","resources/maskTrios/BT2B.jpg","null","",NA,NA,NA,NA,""
"image-keyboard-response",272,275425,"0.0-4.86-2.86","gnh9a92utd42dqx",281,"44.csv","","null","resources/images/fishbone.png","null","",NA,NA,NA,NA,""
"image-keyboard-response",273,275699,"0.0-4.87-0.87","gnh9a92utd42dqx",281,"44.csv","","273.30000001192093","resources/trios/L1T2A3.jpg","37","restless",0.6,0.2,0.5,0.499456399545767,"true"
"image-keyboard-response",274,276115,"0.0-4.87-1.87","gnh9a92utd42dqx",281,"44.csv","","null","resources/maskTrios/L1BB.jpg","null","",NA,NA,NA,NA,""
"image-keyboard-response",275,277331,"0.0-4.87-2.87","gnh9a92utd42dqx",281,"44.csv","","null","resources/images/coin2.png","null","",NA,NA,NA,NA,""
"image-keyboard-response",276,277855,"0.0-4.88-0.88","gnh9a92utd42dqx",281,"44.csv","","522.0999999642372","resources/trios/L1T2A3.jpg","37","restless",0.7,0.2,0.5,0.7526336132073,"false"
"image-keyboard-response",277,278262,"0.0-4.88-1.88","gnh9a92utd42dqx",281,"44.csv","","null","resources/maskTrios/L1BB.jpg","null","",NA,NA,NA,NA,""
"image-keyboard-response",278,279477,"0.0-4.88-2.88","gnh9a92utd42dqx",281,"44.csv","","null","resources/images/fishbone.png","null","",NA,NA,NA,NA,""
"image-keyboard-response",279,279720,"0.0-4.89-0.89","gnh9a92utd42dqx",281,"44.csv","","241.4000000357628","resources/trios/L1T2A3.jpg","39","restless",0.7,0.2,0.5,0.215764247883396,"true"
"image-keyboard-response",280,280131,"0.0-4.89-1.89","gnh9a92utd42dqx",281,"44.csv","","null","resources/maskTrios/BBA3.jpg","null","",NA,NA,NA,NA,""
"image-keyboard-response",281,281345,"0.0-4.89-2.89","gnh9a92utd42dqx",281,"44.csv","","null","resources/images/coin2.png","null","",NA,NA,NA,NA,""
"image-keyboard-response",282,281865,"0.0-4.90-0.90","gnh9a92utd42dqx",281,"44.csv","","518.1999999880791","resources/trios/L1T2A3.jpg","39","restless",0.7,0.2,0.6,0.66076267881823,"false"
"image-keyboard-response",283,282271,"0.0-4.90-1.90","gnh9a92utd42dqx",281,"44.csv","","null","resources/maskTrios/BBA3.jpg","null","",NA,NA,NA,NA,""
"image-keyboard-response",284,283480,"0.0-4.90-2.90","gnh9a92utd42dqx",281,"44.csv","","null","resources/images/fishbone.png","null","",NA,NA,NA,NA,""
"image-keyboard-response",285,284136,"0.0-4.91-0.91","gnh9a92utd42dqx",281,"44.csv","","654.1000000238419","resources/trios/L1T2A3.jpg","38","restless",0.7,0.2,0.6,0.844984789139076,"false"
"image-keyboard-response",286,284547,"0.0-4.91-1.91","gnh9a92utd42dqx",281,"44.csv","","null","resources/maskTrios/BT2B.jpg","null","",NA,NA,NA,NA,""
"image-keyboard-response",287,285754,"0.0-4.91-2.91","gnh9a92utd42dqx",281,"44.csv","","null","resources/images/fishbone.png","null","",NA,NA,NA,NA,""
"image-keyboard-response",288,286541,"0.0-4.92-0.92","gnh9a92utd42dqx",281,"44.csv","","786.1000000238419","resources/trios/L1T2A3.jpg","39","restless",0.7,0.2,0.6,0.918978873732674,"false"
"image-keyboard-response",289,286946,"0.0-4.92-1.92","gnh9a92utd42dqx",281,"44.csv","","null","resources/maskTrios/BBA3.jpg","null","",NA,NA,NA,NA,""
"image-keyboard-response",290,288160,"0.0-4.92-2.92","gnh9a92utd42dqx",281,"44.csv","","null","resources/images/fishbone.png","null","",NA,NA,NA,NA,""
"image-keyboard-response",291,288402,"0.0-4.93-0.93","gnh9a92utd42dqx",281,"44.csv","","240.19999998807907","resources/trios/L1T2A3.jpg","37","restless",0.7,0.2,0.5,0.375993580135543,"true"
"image-keyboard-response",292,288815,"0.0-4.93-1.93","gnh9a92utd42dqx",281,"44.csv","","null","resources/maskTrios/L1BB.jpg","null","",NA,NA,NA,NA,""
"image-keyboard-response",293,290029,"0.0-4.93-2.93","gnh9a92utd42dqx",281,"44.csv","","null","resources/images/coin2.png","null","",NA,NA,NA,NA,""
"image-keyboard-response",294,290302,"0.0-4.94-0.94","gnh9a92utd42dqx",281,"44.csv","","271.9000000357628","resources/trios/L1T2A3.jpg","37","restless",0.7,0.2,0.5,0.869002082055567,"false"
"image-keyboard-response",295,290719,"0.0-4.94-1.94","gnh9a92utd42dqx",281,"44.csv","","null","resources/maskTrios/L1BB.jpg","null","",NA,NA,NA,NA,""
"image-keyboard-response",296,291929,"0.0-4.94-2.94","gnh9a92utd42dqx",281,"44.csv","","null","resources/images/fishbone.png","null","",NA,NA,NA,NA,""
"image-keyboard-response",297,292179,"0.0-4.95-0.95","gnh9a92utd42dqx",281,"44.csv","","248.69999998807907","resources/trios/L1T2A3.jpg","38","restless",0.7,0.2,0.5,0.821316365549518,"false"
"image-keyboard-response",298,292582,"0.0-4.95-1.95","gnh9a92utd42dqx",281,"44.csv","","null","resources/maskTrios/BT2B.jpg","null","",NA,NA,NA,NA,""
"image-keyboard-response",299,293784,"0.0-4.95-2.95","gnh9a92utd42dqx",281,"44.csv","","null","resources/images/fishbone.png","null","",NA,NA,NA,NA,""
"image-keyboard-response",300,294039,"0.0-4.96-0.96","gnh9a92utd42dqx",281,"44.csv","","253.5999999642372","resources/trios/L1T2A3.jpg","37","restless",0.7,0.2,0.5,0.151208183284565,"true"
"image-keyboard-response",301,294449,"0.0-4.96-1.96","gnh9a92utd42dqx",281,"44.csv","","null","resources/maskTrios/L1BB.jpg","null","",NA,NA,NA,NA,""
"image-keyboard-response",302,295660,"0.0-4.96-2.96","gnh9a92utd42dqx",281,"44.csv","","null","resources/images/coin2.png","null","",NA,NA,NA,NA,""
"image-keyboard-response",303,296202,"0.0-4.97-0.97","gnh9a92utd42dqx",281,"44.csv","","540.2999999523163","resources/trios/L1T2A3.jpg","37","restless",0.6,0.2,0.4,0.49272438221083,"true"
"image-keyboard-response",304,296615,"0.0-4.97-1.97","gnh9a92utd42dqx",281,"44.csv","","null","resources/maskTrios/L1BB.jpg","null","",NA,NA,NA,NA,""
"image-keyboard-response",305,297826,"0.0-4.97-2.97","gnh9a92utd42dqx",281,"44.csv","","null","resources/images/coin2.png","null","",NA,NA,NA,NA,""
"image-keyboard-response",306,298178,"0.0-4.98-0.98","gnh9a92utd42dqx",281,"44.csv","","350.80000001192093","resources/trios/L1T2A3.jpg","37","restless",0.5,0.2,0.4,0.184833627975377,"true"
"image-keyboard-response",307,298580,"0.0-4.98-1.98","gnh9a92utd42dqx",281,"44.csv","","null","resources/maskTrios/L1BB.jpg","null","",NA,NA,NA,NA,""
"image-keyboard-response",308,299791,"0.0-4.98-2.98","gnh9a92utd42dqx",281,"44.csv","","null","resources/images/coin2.png","null","",NA,NA,NA,NA,""
"image-keyboard-response",309,300069,"0.0-4.99-0.99","gnh9a92utd42dqx",281,"44.csv","","276.30000001192093","resources/trios/L1T2A3.jpg","37","restless",0.5,0.2,0.4,0.408184701770839,"true"
"image-keyboard-response",310,300478,"0.0-4.99-1.99","gnh9a92utd42dqx",281,"44.csv","","null","resources/maskTrios/L1BB.jpg","null","",NA,NA,NA,NA,""
"image-keyboard-response",311,301682,"0.0-4.99-2.99","gnh9a92utd42dqx",281,"44.csv","","null","resources/images/coin2.png","null","",NA,NA,NA,NA,""
"image-keyboard-response",312,301954,"0.0-4.100-0.100","gnh9a92utd42dqx",281,"44.csv","","271.4000000357628","resources/trios/L1T2A3.jpg","37","restless",0.5,0.2,0.4,0.150639743502462,"true"
"image-keyboard-response",313,302364,"0.0-4.100-1.100","gnh9a92utd42dqx",281,"44.csv","","null","resources/maskTrios/L1BB.jpg","null","",NA,NA,NA,NA,""
"image-keyboard-response",314,303579,"0.0-4.100-2.100","gnh9a92utd42dqx",281,"44.csv","","null","resources/images/coin2.png","null","",NA,NA,NA,NA,""
"image-keyboard-response",315,303835,"0.0-4.101-0.101","gnh9a92utd42dqx",281,"44.csv","","254.5","resources/trios/L1T2A3.jpg","37","restless",0.5,0.2,0.4,0.481093749231789,"true"
"image-keyboard-response",316,304239,"0.0-4.101-1.101","gnh9a92utd42dqx",281,"44.csv","","null","resources/maskTrios/L1BB.jpg","null","",NA,NA,NA,NA,""
"image-keyboard-response",317,305445,"0.0-4.101-2.101","gnh9a92utd42dqx",281,"44.csv","","null","resources/images/coin2.png","null","",NA,NA,NA,NA,""
"image-keyboard-response",318,305675,"0.0-4.102-0.102","gnh9a92utd42dqx",281,"44.csv","","228.19999998807907","resources/trios/L1T2A3.jpg","37","restless",0.5,0.2,0.5,0.374406535812777,"true"
"image-keyboard-response",319,306083,"0.0-4.102-1.102","gnh9a92utd42dqx",281,"44.csv","","null","resources/maskTrios/L1BB.jpg","null","",NA,NA,NA,NA,""
"image-keyboard-response",320,307289,"0.0-4.102-2.102","gnh9a92utd42dqx",281,"44.csv","","null","resources/images/coin2.png","null","",NA,NA,NA,NA,""
"image-keyboard-response",321,307530,"0.0-4.103-0.103","gnh9a92utd42dqx",281,"44.csv","","240.0999999642372","resources/trios/L1T2A3.jpg","37","restless",0.5,0.2,0.5,0.651838473558113,"false"
"image-keyboard-response",322,307933,"0.0-4.103-1.103","gnh9a92utd42dqx",281,"44.csv","","null","resources/maskTrios/L1BB.jpg","null","",NA,NA,NA,NA,""
"image-keyboard-response",323,309148,"0.0-4.103-2.103","gnh9a92utd42dqx",281,"44.csv","","null","resources/images/fishbone.png","null","",NA,NA,NA,NA,""
"image-keyboard-response",324,309436,"0.0-4.104-0.104","gnh9a92utd42dqx",281,"44.csv","","286.19999998807907","resources/trios/L1T2A3.jpg","37","restless",0.5,0.2,0.5,0.459367389212188,"true"
"image-keyboard-response",325,309850,"0.0-4.104-1.104","gnh9a92utd42dqx",281,"44.csv","","null","resources/maskTrios/L1BB.jpg","null","",NA,NA,NA,NA,""
"image-keyboard-response",326,311064,"0.0-4.104-2.104","gnh9a92utd42dqx",281,"44.csv","","null","resources/images/coin2.png","null","",NA,NA,NA,NA,""
"image-keyboard-response",327,311321,"0.0-4.105-0.105","gnh9a92utd42dqx",281,"44.csv","","255.9000000357628","resources/trios/L1T2A3.jpg","37","restless",0.5,0.2,0.5,0.715736519951953,"false"
"image-keyboard-response",328,311731,"0.0-4.105-1.105","gnh9a92utd42dqx",281,"44.csv","","null","resources/maskTrios/L1BB.jpg","null","",NA,NA,NA,NA,""
"image-keyboard-response",329,312947,"0.0-4.105-2.105","gnh9a92utd42dqx",281,"44.csv","","null","resources/images/fishbone.png","null","",NA,NA,NA,NA,""
"image-keyboard-response",330,313212,"0.0-4.106-0.106","gnh9a92utd42dqx",281,"44.csv","","263.69999998807907","resources/trios/L1T2A3.jpg","38","restless",0.5,0.2,0.5,0.292451855274059,"false"
"image-keyboard-response",331,313615,"0.0-4.106-1.106","gnh9a92utd42dqx",281,"44.csv","","null","resources/maskTrios/BT2B.jpg","null","",NA,NA,NA,NA,""
"image-keyboard-response",332,314830,"0.0-4.106-2.106","gnh9a92utd42dqx",281,"44.csv","","null","resources/images/fishbone.png","null","",NA,NA,NA,NA,""
"image-keyboard-response",333,315053,"0.0-4.107-0.107","gnh9a92utd42dqx",281,"44.csv","","222.79999995231628","resources/trios/L1T2A3.jpg","39","restless",0.5,0.2,0.5,0.00397355061802918,"true"
"image-keyboard-response",334,315463,"0.0-4.107-1.107","gnh9a92utd42dqx",281,"44.csv","","null","resources/maskTrios/BBA3.jpg","null","",NA,NA,NA,NA,""
"image-keyboard-response",335,316667,"0.0-4.107-2.107","gnh9a92utd42dqx",281,"44.csv","","null","resources/images/coin2.png","null","",NA,NA,NA,NA,""
"image-keyboard-response",336,316934,"0.0-4.108-0.108","gnh9a92utd42dqx",281,"44.csv","","265.7000000476837","resources/trios/L1T2A3.jpg","39","restless",0.6,0.2,0.5,0.371158445091469,"true"
"image-keyboard-response",337,317347,"0.0-4.108-1.108","gnh9a92utd42dqx",281,"44.csv","","null","resources/maskTrios/BBA3.jpg","null","",NA,NA,NA,NA,""
"image-keyboard-response",338,318563,"0.0-4.108-2.108","gnh9a92utd42dqx",281,"44.csv","","null","resources/images/coin2.png","null","",NA,NA,NA,NA,""
"image-keyboard-response",339,318884,"0.0-4.109-0.109","gnh9a92utd42dqx",281,"44.csv","","319.60000002384186","resources/trios/L1T2A3.jpg","39","restless",0.6,0.2,0.5,0.506729703600721,"false"
"image-keyboard-response",340,319299,"0.0-4.109-1.109","gnh9a92utd42dqx",281,"44.csv","","null","resources/maskTrios/BBA3.jpg","null","",NA,NA,NA,NA,""
"image-keyboard-response",341,320515,"0.0-4.109-2.109","gnh9a92utd42dqx",281,"44.csv","","null","resources/images/fishbone.png","null","",NA,NA,NA,NA,""
"image-keyboard-response",342,320774,"0.0-4.110-0.110","gnh9a92utd42dqx",281,"44.csv","","257.39999997615814","resources/trios/L1T2A3.jpg","37","restless",0.6,0.2,0.5,0.870354480464856,"false"
"image-keyboard-response",343,321183,"0.0-4.110-1.110","gnh9a92utd42dqx",281,"44.csv","","null","resources/maskTrios/L1BB.jpg","null","",NA,NA,NA,NA,""
"image-keyboard-response",344,322391,"0.0-4.110-2.110","gnh9a92utd42dqx",281,"44.csv","","null","resources/images/fishbone.png","null","",NA,NA,NA,NA,""
"image-keyboard-response",345,322879,"0.0-4.111-0.111","gnh9a92utd42dqx",281,"44.csv","","487.30000001192093","resources/trios/L1T2A3.jpg","39","restless",0.6,0.2,0.5,0.627794984646118,"false"
"image-keyboard-response",346,323284,"0.0-4.111-1.111","gnh9a92utd42dqx",281,"44.csv","","null","resources/maskTrios/BBA3.jpg","null","",NA,NA,NA,NA,""
"image-keyboard-response",347,324498,"0.0-4.111-2.111","gnh9a92utd42dqx",281,"44.csv","","null","resources/images/fishbone.png","null","",NA,NA,NA,NA,""
"image-keyboard-response",348,324739,"0.0-4.112-0.112","gnh9a92utd42dqx",281,"44.csv","","239.30000001192093","resources/trios/L1T2A3.jpg","38","restless",0.6,0.2,0.5,0.940353599098115,"false"
"image-keyboard-response",349,325145,"0.0-4.112-1.112","gnh9a92utd42dqx",281,"44.csv","","null","resources/maskTrios/BT2B.jpg","null","",NA,NA,NA,NA,""
"image-keyboard-response",350,326360,"0.0-4.112-2.112","gnh9a92utd42dqx",281,"44.csv","","null","resources/images/fishbone.png","null","",NA,NA,NA,NA,""
"image-keyboard-response",351,327365,"0.0-4.113-0.113","gnh9a92utd42dqx",281,"44.csv","","1004.2999999523163","resources/trios/L1T2A3.jpg","37","restless",0.6,0.2,0.5,0.140444659973742,"true"
"image-keyboard-response",352,327767,"0.0-4.113-1.113","gnh9a92utd42dqx",281,"44.csv","","null","resources/maskTrios/L1BB.jpg","null","",NA,NA,NA,NA,""
"image-keyboard-response",353,328978,"0.0-4.113-2.113","gnh9a92utd42dqx",281,"44.csv","","null","resources/images/coin2.png","null","",NA,NA,NA,NA,""
"image-keyboard-response",354,329415,"0.0-4.114-0.114","gnh9a92utd42dqx",281,"44.csv","","436.9000000357628","resources/trios/L1T2A3.jpg","37","restless",0.6,0.3,0.5,0.566620119310103,"true"
"image-keyboard-response",355,329831,"0.0-4.114-1.114","gnh9a92utd42dqx",281,"44.csv","","null","resources/maskTrios/L1BB.jpg","null","",NA,NA,NA,NA,""
"image-keyboard-response",356,331034,"0.0-4.114-2.114","gnh9a92utd42dqx",281,"44.csv","","null","resources/images/coin2.png","null","",NA,NA,NA,NA,""
"image-keyboard-response",357,331461,"0.0-4.115-0.115","gnh9a92utd42dqx",281,"44.csv","","426","resources/trios/L1T2A3.jpg","37","restless",0.6,0.3,0.5,0.0270289450669803,"true"
"image-keyboard-response",358,331867,"0.0-4.115-1.115","gnh9a92utd42dqx",281,"44.csv","","null","resources/maskTrios/L1BB.jpg","null","",NA,NA,NA,NA,""
"image-keyboard-response",359,333084,"0.0-4.115-2.115","gnh9a92utd42dqx",281,"44.csv","","null","resources/images/coin2.png","null","",NA,NA,NA,NA,""
"image-keyboard-response",360,333356,"0.0-4.116-0.116","gnh9a92utd42dqx",281,"44.csv","","271.5","resources/trios/L1T2A3.jpg","37","restless",0.7,0.3,0.5,0.189830894296071,"true"
"image-keyboard-response",361,333761,"0.0-4.116-1.116","gnh9a92utd42dqx",281,"44.csv","","null","resources/maskTrios/L1BB.jpg","null","",NA,NA,NA,NA,""
"image-keyboard-response",362,334964,"0.0-4.116-2.116","gnh9a92utd42dqx",281,"44.csv","","null","resources/images/coin2.png","null","",NA,NA,NA,NA,""
"image-keyboard-response",363,335283,"0.0-4.117-0.117","gnh9a92utd42dqx",281,"44.csv","","318.30000001192093","resources/trios/L1T2A3.jpg","37","restless",0.7,0.3,0.5,0.314692615671102,"true"
"image-keyboard-response",364,335695,"0.0-4.117-1.117","gnh9a92utd42dqx",281,"44.csv","","null","resources/maskTrios/L1BB.jpg","null","",NA,NA,NA,NA,""
"image-keyboard-response",365,336897,"0.0-4.117-2.117","gnh9a92utd42dqx",281,"44.csv","","null","resources/images/coin2.png","null","",NA,NA,NA,NA,""
"image-keyboard-response",366,337177,"0.0-4.118-0.118","gnh9a92utd42dqx",281,"44.csv","","278.89999997615814","resources/trios/L1T2A3.jpg","37","restless",0.7,0.3,0.5,0.873179691645563,"false"
"image-keyboard-response",367,337580,"0.0-4.118-1.118","gnh9a92utd42dqx",281,"44.csv","","null","resources/maskTrios/L1BB.jpg","null","",NA,NA,NA,NA,""
"image-keyboard-response",368,338795,"0.0-4.118-2.118","gnh9a92utd42dqx",281,"44.csv","","null","resources/images/fishbone.png","null","",NA,NA,NA,NA,""
"image-keyboard-response",369,339102,"0.0-4.119-0.119","gnh9a92utd42dqx",281,"44.csv","","305.10000002384186","resources/trios/L1T2A3.jpg","39","restless",0.7,0.3,0.5,0.510506889888875,"false"
"image-keyboard-response",370,339515,"0.0-4.119-1.119","gnh9a92utd42dqx",281,"44.csv","","null","resources/maskTrios/BBA3.jpg","null","",NA,NA,NA,NA,""
"image-keyboard-response",371,340730,"0.0-4.119-2.119","gnh9a92utd42dqx",281,"44.csv","","null","resources/images/fishbone.png","null","",NA,NA,NA,NA,""
"image-keyboard-response",372,341003,"0.0-4.120-0.120","gnh9a92utd42dqx",281,"44.csv","","271.39999997615814","resources/trios/L1T2A3.jpg","38","restless",0.7,0.3,0.5,0.204103036574026,"true"
"image-keyboard-response",373,341415,"0.0-4.120-1.120","gnh9a92utd42dqx",281,"44.csv","","null","resources/maskTrios/BT2B.jpg","null","",NA,NA,NA,NA,""
"image-keyboard-response",374,342633,"0.0-4.120-2.120","gnh9a92utd42dqx",281,"44.csv","","null","resources/images/coin2.png","null","",NA,NA,NA,NA,""
"image-keyboard-response",375,342933,"0.0-4.121-0.121","gnh9a92utd42dqx",281,"44.csv","","299.0999999642372","resources/trios/L1T2A3.jpg","38","restless",0.7,0.3,0.5,0.405692750060205,"false"
"image-keyboard-response",376,343346,"0.0-4.121-1.121","gnh9a92utd42dqx",281,"44.csv","","null","resources/maskTrios/BT2B.jpg","null","",NA,NA,NA,NA,""
"image-keyboard-response",377,344557,"0.0-4.121-2.121","gnh9a92utd42dqx",281,"44.csv","","null","resources/images/fishbone.png","null","",NA,NA,NA,NA,""
"image-keyboard-response",378,344803,"0.0-4.122-0.122","gnh9a92utd42dqx",281,"44.csv","","245.10000002384186","resources/trios/L1T2A3.jpg","37","restless",0.7,0.3,0.5,0.886397409339972,"false"
"image-keyboard-response",379,345215,"0.0-4.122-1.122","gnh9a92utd42dqx",281,"44.csv","","null","resources/maskTrios/L1BB.jpg","null","",NA,NA,NA,NA,""
"image-keyboard-response",380,346430,"0.0-4.122-2.122","gnh9a92utd42dqx",281,"44.csv","","null","resources/images/fishbone.png","null","",NA,NA,NA,NA,""
"image-keyboard-response",381,346663,"0.0-4.123-0.123","gnh9a92utd42dqx",281,"44.csv","","232","resources/trios/L1T2A3.jpg","38","restless",0.7,0.3,0.5,0.229005079725497,"true"
"image-keyboard-response",382,347080,"0.0-4.123-1.123","gnh9a92utd42dqx",281,"44.csv","","null","resources/maskTrios/BT2B.jpg","null","",NA,NA,NA,NA,""
"image-keyboard-response",383,348284,"0.0-4.123-2.123","gnh9a92utd42dqx",281,"44.csv","","null","resources/images/coin2.png","null","",NA,NA,NA,NA,""
"image-keyboard-response",384,348583,"0.0-4.124-0.124","gnh9a92utd42dqx",281,"44.csv","","298.30000001192093","resources/trios/L1T2A3.jpg","38","restless",0.7,0.3,0.5,0.894840397887263,"false"
"image-keyboard-response",385,348989,"0.0-4.124-1.124","gnh9a92utd42dqx",281,"44.csv","","null","resources/maskTrios/BT2B.jpg","null","",NA,NA,NA,NA,""
"image-keyboard-response",386,350199,"0.0-4.124-2.124","gnh9a92utd42dqx",281,"44.csv","","null","resources/images/fishbone.png","null","",NA,NA,NA,NA,""
"image-keyboard-response",387,350460,"0.0-4.125-0.125","gnh9a92utd42dqx",281,"44.csv","","259.89999997615814","resources/trios/L1T2A3.jpg","39","restless",0.7,0.3,0.5,0.383645156382766,"true"
"image-keyboard-response",388,350865,"0.0-4.125-1.125","gnh9a92utd42dqx",281,"44.csv","","null","resources/maskTrios/BBA3.jpg","null","",NA,NA,NA,NA,""
"image-keyboard-response",389,352067,"0.0-4.125-2.125","gnh9a92utd42dqx",281,"44.csv","","null","resources/images/coin2.png","null","",NA,NA,NA,NA,""
"image-keyboard-response",390,352335,"0.0-4.126-0.126","gnh9a92utd42dqx",281,"44.csv","","266.89999997615814","resources/trios/L1T2A3.jpg","39","restless",0.6,0.3,0.5,0.740774902340848,"false"
"image-keyboard-response",391,352748,"0.0-4.126-1.126","gnh9a92utd42dqx",281,"44.csv","","null","resources/maskTrios/BBA3.jpg","null","",NA,NA,NA,NA,""
"image-keyboard-response",392,353949,"0.0-4.126-2.126","gnh9a92utd42dqx",281,"44.csv","","null","resources/images/fishbone.png","null","",NA,NA,NA,NA,""
"image-keyboard-response",393,354240,"0.0-4.127-0.127","gnh9a92utd42dqx",281,"44.csv","","290.10000002384186","resources/trios/L1T2A3.jpg","38","restless",0.6,0.3,0.5,0.805167856330142,"false"
"image-keyboard-response",394,354649,"0.0-4.127-1.127","gnh9a92utd42dqx",281,"44.csv","","null","resources/maskTrios/BT2B.jpg","null","",NA,NA,NA,NA,""
"image-keyboard-response",395,355856,"0.0-4.127-2.127","gnh9a92utd42dqx",281,"44.csv","","null","resources/images/fishbone.png","null","",NA,NA,NA,NA,""
"image-keyboard-response",396,356366,"0.0-4.128-0.128","gnh9a92utd42dqx",281,"44.csv","","508.69999998807907","resources/trios/L1T2A3.jpg","37","restless",0.6,0.2,0.5,0.663646826851853,"false"
"image-keyboard-response",397,356768,"0.0-4.128-1.128","gnh9a92utd42dqx",281,"44.csv","","null","resources/maskTrios/L1BB.jpg","null","",NA,NA,NA,NA,""
"image-keyboard-response",398,357980,"0.0-4.128-2.128","gnh9a92utd42dqx",281,"44.csv","","null","resources/images/fishbone.png","null","",NA,NA,NA,NA,""
"image-keyboard-response",399,358241,"0.0-4.129-0.129","gnh9a92utd42dqx",281,"44.csv","","260.5","resources/trios/L1T2A3.jpg","39","restless",0.6,0.2,0.5,0.279521863744296,"true"
"image-keyboard-response",400,358655,"0.0-4.129-1.129","gnh9a92utd42dqx",281,"44.csv","","null","resources/maskTrios/BBA3.jpg","null","",NA,NA,NA,NA,""
"image-keyboard-response",401,359860,"0.0-4.129-2.129","gnh9a92utd42dqx",281,"44.csv","","null","resources/images/coin2.png","null","",NA,NA,NA,NA,""
"image-keyboard-response",402,360117,"0.0-4.130-0.130","gnh9a92utd42dqx",281,"44.csv","","255.70000004768372","resources/trios/L1T2A3.jpg","39","restless",0.6,0.2,0.5,0.141539604342891,"true"
"image-keyboard-response",403,360524,"0.0-4.130-1.130","gnh9a92utd42dqx",281,"44.csv","","null","resources/maskTrios/BBA3.jpg","null","",NA,NA,NA,NA,""
"image-keyboard-response",404,361731,"0.0-4.130-2.130","gnh9a92utd42dqx",281,"44.csv","","null","resources/images/coin2.png","null","",NA,NA,NA,NA,""
"image-keyboard-response",405,362029,"0.0-4.131-0.131","gnh9a92utd42dqx",281,"44.csv","","296.5","resources/trios/L1T2A3.jpg","39","restless",0.6,0.2,0.5,0.412326911041017,"true"
"image-keyboard-response",406,362434,"0.0-4.131-1.131","gnh9a92utd42dqx",281,"44.csv","","null","resources/maskTrios/BBA3.jpg","null","",NA,NA,NA,NA,""
"image-keyboard-response",407,363646,"0.0-4.131-2.131","gnh9a92utd42dqx",281,"44.csv","","null","resources/images/coin2.png","null","",NA,NA,NA,NA,""
"image-keyboard-response",408,363902,"0.0-4.132-0.132","gnh9a92utd42dqx",281,"44.csv","","255.60000002384186","resources/trios/L1T2A3.jpg","39","restless",0.6,0.2,0.5,0.492859855833415,"true"
"image-keyboard-response",409,364311,"0.0-4.132-1.132","gnh9a92utd42dqx",281,"44.csv","","null","resources/maskTrios/BBA3.jpg","null","",NA,NA,NA,NA,""
"image-keyboard-response",410,365518,"0.0-4.132-2.132","gnh9a92utd42dqx",281,"44.csv","","null","resources/images/coin2.png","null","",NA,NA,NA,NA,""
"image-keyboard-response",411,365783,"0.0-4.133-0.133","gnh9a92utd42dqx",281,"44.csv","","263.80000001192093","resources/trios/L1T2A3.jpg","39","restless",0.6,0.2,0.5,0.0568338568044187,"true"
"image-keyboard-response",412,366199,"0.0-4.133-1.133","gnh9a92utd42dqx",281,"44.csv","","null","resources/maskTrios/BBA3.jpg","null","",NA,NA,NA,NA,""
"image-keyboard-response",413,367414,"0.0-4.133-2.133","gnh9a92utd42dqx",281,"44.csv","","null","resources/images/coin2.png","null","",NA,NA,NA,NA,""
"image-keyboard-response",414,367709,"0.0-4.134-0.134","gnh9a92utd42dqx",281,"44.csv","","293.69999998807907","resources/trios/L1T2A3.jpg","39","restless",0.6,0.1,0.5,0.9917051180153,"false"
"image-keyboard-response",415,368117,"0.0-4.134-1.134","gnh9a92utd42dqx",281,"44.csv","","null","resources/maskTrios/BBA3.jpg","null","",NA,NA,NA,NA,""
"image-keyboard-response",416,369331,"0.0-4.134-2.134","gnh9a92utd42dqx",281,"44.csv","","null","resources/images/fishbone.png","null","",NA,NA,NA,NA,""
"image-keyboard-response",417,369579,"0.0-4.135-0.135","gnh9a92utd42dqx",281,"44.csv","","247.10000002384186","resources/trios/L1T2A3.jpg","38","restless",0.6,0.1,0.5,0.209906373069704,"false"
"image-keyboard-response",418,369994,"0.0-4.135-1.135","gnh9a92utd42dqx",281,"44.csv","","null","resources/maskTrios/BT2B.jpg","null","",NA,NA,NA,NA,""
"image-keyboard-response",419,371207,"0.0-4.135-2.135","gnh9a92utd42dqx",281,"44.csv","","null","resources/images/fishbone.png","null","",NA,NA,NA,NA,""
"image-keyboard-response",420,371390,"0.0-4.136-0.136","gnh9a92utd42dqx",281,"44.csv","","181.60000002384186","resources/trios/L1T2A3.jpg","39","restless",0.6,0.2,0.5,0.0883873075907937,"true"
"image-keyboard-response",421,371804,"0.0-4.136-1.136","gnh9a92utd42dqx",281,"44.csv","","null","resources/maskTrios/BBA3.jpg","null","",NA,NA,NA,NA,""
"image-keyboard-response",422,373011,"0.0-4.136-2.136","gnh9a92utd42dqx",281,"44.csv","","null","resources/images/coin2.png","null","",NA,NA,NA,NA,""
"image-keyboard-response",423,373301,"0.0-4.137-0.137","gnh9a92utd42dqx",281,"44.csv","","288.7000000476837","resources/trios/L1T2A3.jpg","39","restless",0.6,0.2,0.5,0.379335319276291,"true"
"image-keyboard-response",424,373715,"0.0-4.137-1.137","gnh9a92utd42dqx",281,"44.csv","","null","resources/maskTrios/BBA3.jpg","null","",NA,NA,NA,NA,""
"image-keyboard-response",425,374930,"0.0-4.137-2.137","gnh9a92utd42dqx",281,"44.csv","","null","resources/images/coin2.png","null","",NA,NA,NA,NA,""
"image-keyboard-response",426,375221,"0.0-4.138-0.138","gnh9a92utd42dqx",281,"44.csv","","289.69999998807907","resources/trios/L1T2A3.jpg","39","restless",0.6,0.2,0.5,0.338374142874559,"true"
"image-keyboard-response",427,375624,"0.0-4.138-1.138","gnh9a92utd42dqx",281,"44.csv","","null","resources/maskTrios/BBA3.jpg","null","",NA,NA,NA,NA,""
"image-keyboard-response",428,376827,"0.0-4.138-2.138","gnh9a92utd42dqx",281,"44.csv","","null","resources/images/coin2.png","null","",NA,NA,NA,NA,""
"image-keyboard-response",429,377078,"0.0-4.139-0.139","gnh9a92utd42dqx",281,"44.csv","","249.60000002384186","resources/trios/L1T2A3.jpg","39","restless",0.6,0.2,0.5,0.995681292306316,"false"
"image-keyboard-response",430,377483,"0.0-4.139-1.139","gnh9a92utd42dqx",281,"44.csv","","null","resources/maskTrios/BBA3.jpg","null","",NA,NA,NA,NA,""
"image-keyboard-response",431,378699,"0.0-4.139-2.139","gnh9a92utd42dqx",281,"44.csv","","null","resources/images/fishbone.png","null","",NA,NA,NA,NA,""
"image-keyboard-response",432,378971,"0.0-4.140-0.140","gnh9a92utd42dqx",281,"44.csv","","270.30000001192093","resources/trios/L1T2A3.jpg","37","restless",0.6,0.2,0.5,0.0399842292815515,"true"
"image-keyboard-response",433,379384,"0.0-4.140-1.140","gnh9a92utd42dqx",281,"44.csv","","null","resources/maskTrios/L1BB.jpg","null","",NA,NA,NA,NA,""
"image-keyboard-response",434,380600,"0.0-4.140-2.140","gnh9a92utd42dqx",281,"44.csv","","null","resources/images/coin2.png","null","",NA,NA,NA,NA,""
"image-keyboard-response",435,380833,"0.0-4.141-0.141","gnh9a92utd42dqx",281,"44.csv","","231.69999998807907","resources/trios/L1T2A3.jpg","37","restless",0.6,0.2,0.5,0.882517110854911,"false"
"image-keyboard-response",436,381246,"0.0-4.141-1.141","gnh9a92utd42dqx",281,"44.csv","","null","resources/maskTrios/L1BB.jpg","null","",NA,NA,NA,NA,""
"image-keyboard-response",437,382455,"0.0-4.141-2.141","gnh9a92utd42dqx",281,"44.csv","","null","resources/images/fishbone.png","null","",NA,NA,NA,NA,""
"image-keyboard-response",438,382692,"0.0-4.142-0.142","gnh9a92utd42dqx",281,"44.csv","","236.39999997615814","resources/trios/L1T2A3.jpg","39","restless",0.6,0.2,0.5,0.817841088674303,"false"
"image-keyboard-response",439,383101,"0.0-4.142-1.142","gnh9a92utd42dqx",281,"44.csv","","null","resources/maskTrios/BBA3.jpg","null","",NA,NA,NA,NA,""
"image-keyboard-response",440,384311,"0.0-4.142-2.142","gnh9a92utd42dqx",281,"44.csv","","null","resources/images/fishbone.png","null","",NA,NA,NA,NA,""
"image-keyboard-response",441,384532,"0.0-4.143-0.143","gnh9a92utd42dqx",281,"44.csv","","220.30000001192093","resources/trios/L1T2A3.jpg","37","restless",0.6,0.2,0.5,0.81162803080342,"false"
"image-keyboard-response",442,384938,"0.0-4.143-1.143","gnh9a92utd42dqx",281,"44.csv","","null","resources/maskTrios/L1BB.jpg","null","",NA,NA,NA,NA,""
"image-keyboard-response",443,386146,"0.0-4.143-2.143","gnh9a92utd42dqx",281,"44.csv","","null","resources/images/fishbone.png","null","",NA,NA,NA,NA,""
"image-keyboard-response",444,386333,"0.0-4.144-0.144","gnh9a92utd42dqx",281,"44.csv","","185.9000000357628","resources/trios/L1T2A3.jpg","38","restless",0.6,0.3,0.5,0.0814503892967036,"true"
"image-keyboard-response",445,386741,"0.0-4.144-1.144","gnh9a92utd42dqx",281,"44.csv","","null","resources/maskTrios/BT2B.jpg","null","",NA,NA,NA,NA,""
"image-keyboard-response",446,387945,"0.0-4.144-2.144","gnh9a92utd42dqx",281,"44.csv","","null","resources/images/coin2.png","null","",NA,NA,NA,NA,""
"image-keyboard-response",447,388203,"0.0-4.145-0.145","gnh9a92utd42dqx",281,"44.csv","","256.5","resources/trios/L1T2A3.jpg","38","restless",0.6,0.3,0.6,0.957585520535329,"false"
"image-keyboard-response",448,388609,"0.0-4.145-1.145","gnh9a92utd42dqx",281,"44.csv","","null","resources/maskTrios/BT2B.jpg","null","",NA,NA,NA,NA,""
"image-keyboard-response",449,389819,"0.0-4.145-2.145","gnh9a92utd42dqx",281,"44.csv","","null","resources/images/fishbone.png","null","",NA,NA,NA,NA,""
"image-keyboard-response",450,390075,"0.0-4.146-0.146","gnh9a92utd42dqx",281,"44.csv","","254.60000002384186","resources/trios/L1T2A3.jpg","37","restless",0.6,0.3,0.6,0.24194623202029,"true"
"image-keyboard-response",451,390484,"0.0-4.146-1.146","gnh9a92utd42dqx",281,"44.csv","","null","resources/maskTrios/L1BB.jpg","null","",NA,NA,NA,NA,""
"image-keyboard-response",452,391699,"0.0-4.146-2.146","gnh9a92utd42dqx",281,"44.csv","","null","resources/images/coin2.png","null","",NA,NA,NA,NA,""
"image-keyboard-response",453,391985,"0.0-4.147-0.147","gnh9a92utd42dqx",281,"44.csv","","285","resources/trios/L1T2A3.jpg","37","restless",0.7,0.3,0.6,0.713434109803087,"false"
"image-keyboard-response",454,392396,"0.0-4.147-1.147","gnh9a92utd42dqx",281,"44.csv","","null","resources/maskTrios/L1BB.jpg","null","",NA,NA,NA,NA,""
"image-keyboard-response",455,393600,"0.0-4.147-2.147","gnh9a92utd42dqx",281,"44.csv","","null","resources/images/fishbone.png","null","",NA,NA,NA,NA,""
"image-keyboard-response",456,393884,"0.0-4.148-0.148","gnh9a92utd42dqx",281,"44.csv","","282.9000000357628","resources/trios/L1T2A3.jpg","38","restless",0.7,0.2,0.6,0.788122502111738,"false"
"image-keyboard-response",457,394296,"0.0-4.148-1.148","gnh9a92utd42dqx",281,"44.csv","","null","resources/maskTrios/BT2B.jpg","null","",NA,NA,NA,NA,""
"image-keyboard-response",458,395511,"0.0-4.148-2.148","gnh9a92utd42dqx",281,"44.csv","","null","resources/images/fishbone.png","null","",NA,NA,NA,NA,""
"image-keyboard-response",459,395910,"0.0-4.149-0.149","gnh9a92utd42dqx",281,"44.csv","","398.5","resources/trios/L1T2A3.jpg","37","restless",0.7,0.3,0.6,0.907910391351159,"false"
"image-keyboard-response",460,396314,"0.0-4.149-1.149","gnh9a92utd42dqx",281,"44.csv","","null","resources/maskTrios/L1BB.jpg","null","",NA,NA,NA,NA,""
"image-keyboard-response",461,397530,"0.0-4.149-2.149","gnh9a92utd42dqx",281,"44.csv","","null","resources/images/fishbone.png","null","",NA,NA,NA,NA,""
"image-keyboard-response",462,397740,"0.0-4.150-0.150","gnh9a92utd42dqx",281,"44.csv","","208.69999998807907","resources/trios/L1T2A3.jpg","39","restless",0.7,0.3,0.6,0.0887604508759614,"true"
"image-keyboard-response",463,398149,"0.0-4.150-1.150","gnh9a92utd42dqx",281,"44.csv","","null","resources/maskTrios/BBA3.jpg","null","",NA,NA,NA,NA,""
"image-keyboard-response",464,399361,"0.0-4.150-2.150","gnh9a92utd42dqx",281,"44.csv","","null","resources/images/coin2.png","null","",NA,NA,NA,NA,""
"image-keyboard-response",465,399580,"0.0-4.151-0.151","gnh9a92utd42dqx",281,"44.csv","","218.5","resources/trios/L1T2A3.jpg","39","restless",0.7,0.3,0.6,0.87985811428583,"false"
"image-keyboard-response",466,399992,"0.0-4.151-1.151","gnh9a92utd42dqx",281,"44.csv","","null","resources/maskTrios/BBA3.jpg","null","",NA,NA,NA,NA,""
"image-keyboard-response",467,401199,"0.0-4.151-2.151","gnh9a92utd42dqx",281,"44.csv","","null","resources/images/fishbone.png","null","",NA,NA,NA,NA,""
"image-keyboard-response",468,401511,"0.0-4.152-0.152","gnh9a92utd42dqx",281,"44.csv","","310.30000001192093","resources/trios/L1T2A3.jpg","37","restless",0.7,0.4,0.6,0.956519510622473,"false"
"image-keyboard-response",469,401915,"0.0-4.152-1.152","gnh9a92utd42dqx",281,"44.csv","","null","resources/maskTrios/L1BB.jpg","null","",NA,NA,NA,NA,""
"image-keyboard-response",470,403124,"0.0-4.152-2.152","gnh9a92utd42dqx",281,"44.csv","","null","resources/images/fishbone.png","null","",NA,NA,NA,NA,""
"image-keyboard-response",471,403346,"0.0-4.153-0.153","gnh9a92utd42dqx",281,"44.csv","","221.5999999642372","resources/trios/L1T2A3.jpg","39","restless",0.7,0.4,0.6,0.156927616274378,"true"
"image-keyboard-response",472,403755,"0.0-4.153-1.153","gnh9a92utd42dqx",281,"44.csv","","null","resources/maskTrios/BBA3.jpg","null","",NA,NA,NA,NA,""
"image-keyboard-response",473,404964,"0.0-4.153-2.153","gnh9a92utd42dqx",281,"44.csv","","null","resources/images/coin2.png","null","",NA,NA,NA,NA,""
"image-keyboard-response",474,405211,"0.0-4.154-0.154","gnh9a92utd42dqx",281,"44.csv","","245.80000001192093","resources/trios/L1T2A3.jpg","39","restless",0.6,0.4,0.6,0.694197925305138,"false"
"image-keyboard-response",475,405616,"0.0-4.154-1.154","gnh9a92utd42dqx",281,"44.csv","","null","resources/maskTrios/BBA3.jpg","null","",NA,NA,NA,NA,""
"image-keyboard-response",476,406832,"0.0-4.154-2.154","gnh9a92utd42dqx",281,"44.csv","","null","resources/images/fishbone.png","null","",NA,NA,NA,NA,""
"image-keyboard-response",477,407100,"0.0-4.155-0.155","gnh9a92utd42dqx",281,"44.csv","","266.89999997615814","resources/trios/L1T2A3.jpg","38","restless",0.6,0.4,0.6,0.265349944481096,"true"
"image-keyboard-response",478,407514,"0.0-4.155-1.155","gnh9a92utd42dqx",281,"44.csv","","null","resources/maskTrios/BT2B.jpg","null","",NA,NA,NA,NA,""
"image-keyboard-response",479,408731,"0.0-4.155-2.155","gnh9a92utd42dqx",281,"44.csv","","null","resources/images/coin2.png","null","",NA,NA,NA,NA,""
"image-keyboard-response",480,409023,"0.0-4.156-0.156","gnh9a92utd42dqx",281,"44.csv","","291.30000001192093","resources/trios/L1T2A3.jpg","38","restless",0.6,0.4,0.6,0.335881823468883,"true"
"image-keyboard-response",481,409433,"0.0-4.156-1.156","gnh9a92utd42dqx",281,"44.csv","","null","resources/maskTrios/BT2B.jpg","null","",NA,NA,NA,NA,""
"image-keyboard-response",482,410640,"0.0-4.156-2.156","gnh9a92utd42dqx",281,"44.csv","","null","resources/images/coin2.png","null","",NA,NA,NA,NA,""
"image-keyboard-response",483,410893,"0.0-4.157-0.157","gnh9a92utd42dqx",281,"44.csv","","251.89999997615814","resources/trios/L1T2A3.jpg","38","restless",0.6,0.5,0.6,0.221369871659503,"true"
"image-keyboard-response",484,411299,"0.0-4.157-1.157","gnh9a92utd42dqx",281,"44.csv","","null","resources/maskTrios/BT2B.jpg","null","",NA,NA,NA,NA,""
"image-keyboard-response",485,412515,"0.0-4.157-2.157","gnh9a92utd42dqx",281,"44.csv","","null","resources/images/coin2.png","null","",NA,NA,NA,NA,""
"image-keyboard-response",486,412783,"0.0-4.158-0.158","gnh9a92utd42dqx",281,"44.csv","","266.89999997615814","resources/trios/L1T2A3.jpg","38","restless",0.6,0.5,0.6,0.612317706841927,"false"
"image-keyboard-response",487,413190,"0.0-4.158-1.158","gnh9a92utd42dqx",281,"44.csv","","null","resources/maskTrios/BT2B.jpg","null","",NA,NA,NA,NA,""
"image-keyboard-response",488,414396,"0.0-4.158-2.158","gnh9a92utd42dqx",281,"44.csv","","null","resources/images/fishbone.png","null","",NA,NA,NA,NA,""
"image-keyboard-response",489,414683,"0.0-4.159-0.159","gnh9a92utd42dqx",281,"44.csv","","285.60000002384186","resources/trios/L1T2A3.jpg","37","restless",0.6,0.5,0.6,0.191433481585095,"true"
"image-keyboard-response",490,415085,"0.0-4.159-1.159","gnh9a92utd42dqx",281,"44.csv","","null","resources/maskTrios/L1BB.jpg","null","",NA,NA,NA,NA,""
"image-keyboard-response",491,416299,"0.0-4.159-2.159","gnh9a92utd42dqx",281,"44.csv","","null","resources/images/coin2.png","null","",NA,NA,NA,NA,""
"image-keyboard-response",492,416560,"0.0-4.160-0.160","gnh9a92utd42dqx",281,"44.csv","","259.5","resources/trios/L1T2A3.jpg","37","restless",0.6,0.5,0.6,0.564571191234497,"true"
"image-keyboard-response",493,416964,"0.0-4.160-1.160","gnh9a92utd42dqx",281,"44.csv","","null","resources/maskTrios/L1BB.jpg","null","",NA,NA,NA,NA,""
"image-keyboard-response",494,418168,"0.0-4.160-2.160","gnh9a92utd42dqx",281,"44.csv","","null","resources/images/coin2.png","null","",NA,NA,NA,NA,""
"image-keyboard-response",495,418425,"0.0-4.161-0.161","gnh9a92utd42dqx",281,"44.csv","","256.2000000476837","resources/trios/L1T2A3.jpg","37","restless",0.6,0.5,0.6,0.835398954559204,"false"
"image-keyboard-response",496,418830,"0.0-4.161-1.161","gnh9a92utd42dqx",281,"44.csv","","null","resources/maskTrios/L1BB.jpg","null","",NA,NA,NA,NA,""
"image-keyboard-response",497,420046,"0.0-4.161-2.161","gnh9a92utd42dqx",281,"44.csv","","null","resources/images/fishbone.png","null","",NA,NA,NA,NA,""
"image-keyboard-response",498,420269,"0.0-4.162-0.162","gnh9a92utd42dqx",281,"44.csv","","222.20000004768372","resources/trios/L1T2A3.jpg","38","restless",0.6,0.5,0.6,0.614536393195497,"false"
"image-keyboard-response",499,420678,"0.0-4.162-1.162","gnh9a92utd42dqx",281,"44.csv","","null","resources/maskTrios/BT2B.jpg","null","",NA,NA,NA,NA,""
"image-keyboard-response",500,421892,"0.0-4.162-2.162","gnh9a92utd42dqx",281,"44.csv","","null","resources/images/fishbone.png","null","",NA,NA,NA,NA,""
"image-keyboard-response",501,422105,"0.0-4.163-0.163","gnh9a92utd42dqx",281,"44.csv","","211.10000002384186","resources/trios/L1T2A3.jpg","37","restless",0.5,0.5,0.6,0.842595304574714,"false"
"image-keyboard-response",502,422508,"0.0-4.163-1.163","gnh9a92utd42dqx",281,"44.csv","","null","resources/maskTrios/L1BB.jpg","null","",NA,NA,NA,NA,""
"image-keyboard-response",503,423715,"0.0-4.163-2.163","gnh9a92utd42dqx",281,"44.csv","","null","resources/images/fishbone.png","null","",NA,NA,NA,NA,""
"image-keyboard-response",504,423966,"0.0-4.164-0.164","gnh9a92utd42dqx",281,"44.csv","","249.80000001192093","resources/trios/L1T2A3.jpg","39","restless",0.5,0.5,0.6,0.0130194005521798,"true"
"image-keyboard-response",505,424384,"0.0-4.164-1.164","gnh9a92utd42dqx",281,"44.csv","","null","resources/maskTrios/BBA3.jpg","null","",NA,NA,NA,NA,""
"image-keyboard-response",506,425594,"0.0-4.164-2.164","gnh9a92utd42dqx",281,"44.csv","","null","resources/images/coin2.png","null","",NA,NA,NA,NA,""
"image-keyboard-response",507,425865,"0.0-4.165-0.165","gnh9a92utd42dqx",281,"44.csv","","270.0999999642372","resources/trios/L1T2A3.jpg","39","restless",0.5,0.6,0.6,0.336890878275085,"true"
"image-keyboard-response",508,426267,"0.0-4.165-1.165","gnh9a92utd42dqx",281,"44.csv","","null","resources/maskTrios/BBA3.jpg","null","",NA,NA,NA,NA,""
"image-keyboard-response",509,427471,"0.0-4.165-2.165","gnh9a92utd42dqx",281,"44.csv","","null","resources/images/coin2.png","null","",NA,NA,NA,NA,""
"image-keyboard-response",510,427732,"0.0-4.166-0.166","gnh9a92utd42dqx",281,"44.csv","","260.10000002384186","resources/trios/L1T2A3.jpg","39","restless",0.5,0.6,0.6,0.336879748764296,"true"
"image-keyboard-response",511,428135,"0.0-4.166-1.166","gnh9a92utd42dqx",281,"44.csv","","null","resources/maskTrios/BBA3.jpg","null","",NA,NA,NA,NA,""
"image-keyboard-response",512,429349,"0.0-4.166-2.166","gnh9a92utd42dqx",281,"44.csv","","null","resources/images/coin2.png","null","",NA,NA,NA,NA,""
"image-keyboard-response",513,429616,"0.0-4.167-0.167","gnh9a92utd42dqx",281,"44.csv","","266.5","resources/trios/L1T2A3.jpg","39","restless",0.5,0.6,0.6,0.198823722181423,"true"
"image-keyboard-response",514,430031,"0.0-4.167-1.167","gnh9a92utd42dqx",281,"44.csv","","null","resources/maskTrios/BBA3.jpg","null","",NA,NA,NA,NA,""
"image-keyboard-response",515,431244,"0.0-4.167-2.167","gnh9a92utd42dqx",281,"44.csv","","null","resources/images/coin2.png","null","",NA,NA,NA,NA,""
"image-keyboard-response",516,431517,"0.0-4.168-0.168","gnh9a92utd42dqx",281,"44.csv","","272.5","resources/trios/L1T2A3.jpg","39","restless",0.5,0.6,0.6,0.571062837947266,"true"
"image-keyboard-response",517,431930,"0.0-4.168-1.168","gnh9a92utd42dqx",281,"44.csv","","null","resources/maskTrios/BBA3.jpg","null","",NA,NA,NA,NA,""
"image-keyboard-response",518,433146,"0.0-4.168-2.168","gnh9a92utd42dqx",281,"44.csv","","null","resources/images/coin2.png","null","",NA,NA,NA,NA,""
"image-keyboard-response",519,433443,"0.0-4.169-0.169","gnh9a92utd42dqx",281,"44.csv","","294.9000000357628","resources/trios/L1T2A3.jpg","39","restless",0.5,0.6,0.6,0.290371858593403,"true"
"image-keyboard-response",520,433846,"0.0-4.169-1.169","gnh9a92utd42dqx",281,"44.csv","","null","resources/maskTrios/BBA3.jpg","null","",NA,NA,NA,NA,""
"image-keyboard-response",521,435062,"0.0-4.169-2.169","gnh9a92utd42dqx",281,"44.csv","","null","resources/images/coin2.png","null","",NA,NA,NA,NA,""
"image-keyboard-response",522,435318,"0.0-4.170-0.170","gnh9a92utd42dqx",281,"44.csv","","254.80000001192093","resources/trios/L1T2A3.jpg","39","restless",0.5,0.6,0.6,0.181983319571841,"true"
"image-keyboard-response",523,435731,"0.0-4.170-1.170","gnh9a92utd42dqx",281,"44.csv","","null","resources/maskTrios/BBA3.jpg","null","",NA,NA,NA,NA,""
"image-keyboard-response",524,436947,"0.0-4.170-2.170","gnh9a92utd42dqx",281,"44.csv","","null","resources/images/coin2.png","null","",NA,NA,NA,NA,""
"image-keyboard-response",525,437164,"0.0-4.171-0.171","gnh9a92utd42dqx",281,"44.csv","","215.39999997615814","resources/trios/L1T2A3.jpg","39","restless",0.5,0.6,0.6,0.649207493104523,"false"
"image-keyboard-response",526,437576,"0.0-4.171-1.171","gnh9a92utd42dqx",281,"44.csv","","null","resources/maskTrios/BBA3.jpg","null","",NA,NA,NA,NA,""
"image-keyboard-response",527,438793,"0.0-4.171-2.171","gnh9a92utd42dqx",281,"44.csv","","null","resources/images/fishbone.png","null","",NA,NA,NA,NA,""
"image-keyboard-response",528,438884,"0.0-4.172-0.172","gnh9a92utd42dqx",281,"44.csv","","90","resources/trios/L1T2A3.jpg","37","restless",0.5,0.6,0.5,0.380003065156495,"true"
"image-keyboard-response",529,439295,"0.0-4.172-1.172","gnh9a92utd42dqx",281,"44.csv","","null","resources/maskTrios/L1BB.jpg","null","",NA,NA,NA,NA,""
"image-keyboard-response",530,440500,"0.0-4.172-2.172","gnh9a92utd42dqx",281,"44.csv","","null","resources/images/coin2.png","null","",NA,NA,NA,NA,""
"image-keyboard-response",531,440709,"0.0-4.173-0.173","gnh9a92utd42dqx",281,"44.csv","","208.29999995231628","resources/trios/L1T2A3.jpg","37","restless",0.4,0.6,0.5,0.853565033421437,"false"
"image-keyboard-response",532,441124,"0.0-4.173-1.173","gnh9a92utd42dqx",281,"44.csv","","null","resources/maskTrios/L1BB.jpg","null","",NA,NA,NA,NA,""
"image-keyboard-response",533,442333,"0.0-4.173-2.173","gnh9a92utd42dqx",281,"44.csv","","null","resources/images/fishbone.png","null","",NA,NA,NA,NA,""
"image-keyboard-response",534,442544,"0.0-4.174-0.174","gnh9a92utd42dqx",281,"44.csv","","209.9000000357628","resources/trios/L1T2A3.jpg","39","restless",0.4,0.6,0.5,0.121385393454824,"true"
"image-keyboard-response",535,442958,"0.0-4.174-1.174","gnh9a92utd42dqx",281,"44.csv","","null","resources/maskTrios/BBA3.jpg","null","",NA,NA,NA,NA,""
"image-keyboard-response",536,444162,"0.0-4.174-2.174","gnh9a92utd42dqx",281,"44.csv","","null","resources/images/coin2.png","null","",NA,NA,NA,NA,""
"image-keyboard-response",537,444415,"0.0-4.175-0.175","gnh9a92utd42dqx",281,"44.csv","","251.89999997615814","resources/trios/L1T2A3.jpg","39","restless",0.4,0.6,0.5,0.00213330808237644,"true"
"image-keyboard-response",538,444831,"0.0-4.175-1.175","gnh9a92utd42dqx",281,"44.csv","","null","resources/maskTrios/BBA3.jpg","null","",NA,NA,NA,NA,""
"image-keyboard-response",539,446037,"0.0-4.175-2.175","gnh9a92utd42dqx",281,"44.csv","","null","resources/images/coin2.png","null","",NA,NA,NA,NA,""
"image-keyboard-response",540,446260,"0.0-4.176-0.176","gnh9a92utd42dqx",281,"44.csv","","221.80000001192093","resources/trios/L1T2A3.jpg","39","restless",0.4,0.7,0.5,0.551663845936414,"false"
"image-keyboard-response",541,446676,"0.0-4.176-1.176","gnh9a92utd42dqx",281,"44.csv","","null","resources/maskTrios/BBA3.jpg","null","",NA,NA,NA,NA,""
"image-keyboard-response",542,447884,"0.0-4.176-2.176","gnh9a92utd42dqx",281,"44.csv","","null","resources/images/fishbone.png","null","",NA,NA,NA,NA,""
"image-keyboard-response",543,448110,"0.0-4.177-0.177","gnh9a92utd42dqx",281,"44.csv","","225.20000004768372","resources/trios/L1T2A3.jpg","38","restless",0.4,0.8,0.6,0.634024951208465,"true"
"image-keyboard-response",544,448515,"0.0-4.177-1.177","gnh9a92utd42dqx",281,"44.csv","","null","resources/maskTrios/BT2B.jpg","null","",NA,NA,NA,NA,""
"image-keyboard-response",545,449724,"0.0-4.177-2.177","gnh9a92utd42dqx",281,"44.csv","","null","resources/images/coin2.png","null","",NA,NA,NA,NA,""
"image-keyboard-response",546,449965,"0.0-4.178-0.178","gnh9a92utd42dqx",281,"44.csv","","240.5","resources/trios/L1T2A3.jpg","38","restless",0.4,0.8,0.6,0.26173426859894,"true"
"image-keyboard-response",547,450371,"0.0-4.178-1.178","gnh9a92utd42dqx",281,"44.csv","","null","resources/maskTrios/BT2B.jpg","null","",NA,NA,NA,NA,""
"image-keyboard-response",548,451580,"0.0-4.178-2.178","gnh9a92utd42dqx",281,"44.csv","","null","resources/images/coin2.png","null","",NA,NA,NA,NA,""
"image-keyboard-response",549,451836,"0.0-4.179-0.179","gnh9a92utd42dqx",281,"44.csv","","254.5","resources/trios/L1T2A3.jpg","38","restless",0.4,0.8,0.6,0.48069933710998,"true"
"image-keyboard-response",550,452246,"0.0-4.179-1.179","gnh9a92utd42dqx",281,"44.csv","","null","resources/maskTrios/BT2B.jpg","null","",NA,NA,NA,NA,""
"image-keyboard-response",551,453462,"0.0-4.179-2.179","gnh9a92utd42dqx",281,"44.csv","","null","resources/images/coin2.png","null","",NA,NA,NA,NA,""
"image-keyboard-response",552,453721,"0.0-4.180-0.180","gnh9a92utd42dqx",281,"44.csv","","258.5","resources/trios/L1T2A3.jpg","38","restless",0.4,0.8,0.6,0.510893226656736,"true"
"image-keyboard-response",553,454128,"0.0-4.180-1.180","gnh9a92utd42dqx",281,"44.csv","","null","resources/maskTrios/BT2B.jpg","null","",NA,NA,NA,NA,""
"image-keyboard-response",554,455330,"0.0-4.180-2.180","gnh9a92utd42dqx",281,"44.csv","","null","resources/images/coin2.png","null","",NA,NA,NA,NA,""
"image-keyboard-response",555,455477,"0.0-4.181-0.181","gnh9a92utd42dqx",281,"44.csv","","145.5","resources/trios/L1T2A3.jpg","38","restless",0.3,0.8,0.6,0.895295327736971,"false"
"image-keyboard-response",556,455881,"0.0-4.181-1.181","gnh9a92utd42dqx",281,"44.csv","","null","resources/maskTrios/BT2B.jpg","null","",NA,NA,NA,NA,""
"image-keyboard-response",557,457089,"0.0-4.181-2.181","gnh9a92utd42dqx",281,"44.csv","","null","resources/images/fishbone.png","null","",NA,NA,NA,NA,""
"image-keyboard-response",558,457367,"0.0-4.182-0.182","gnh9a92utd42dqx",281,"44.csv","","277.69999998807907","resources/trios/L1T2A3.jpg","39","restless",0.3,0.8,0.5,0.474083350761542,"true"
"image-keyboard-response",559,457770,"0.0-4.182-1.182","gnh9a92utd42dqx",281,"44.csv","","null","resources/maskTrios/BBA3.jpg","null","",NA,NA,NA,NA,""
"image-keyboard-response",560,458983,"0.0-4.182-2.182","gnh9a92utd42dqx",281,"44.csv","","null","resources/images/coin2.png","null","",NA,NA,NA,NA,""
"image-keyboard-response",561,459222,"0.0-4.183-0.183","gnh9a92utd42dqx",281,"44.csv","","238","resources/trios/L1T2A3.jpg","39","restless",0.4,0.7,0.5,0.502339218617796,"false"
"image-keyboard-response",562,459631,"0.0-4.183-1.183","gnh9a92utd42dqx",281,"44.csv","","null","resources/maskTrios/BBA3.jpg","null","",NA,NA,NA,NA,""
"image-keyboard-response",563,460843,"0.0-4.183-2.183","gnh9a92utd42dqx",281,"44.csv","","null","resources/images/fishbone.png","null","",NA,NA,NA,NA,""
"image-keyboard-response",564,461038,"0.0-4.184-0.184","gnh9a92utd42dqx",281,"44.csv","","194.69999998807907","resources/trios/L1T2A3.jpg","37","restless",0.5,0.7,0.5,0.835865382126604,"false"
"image-keyboard-response",565,461450,"0.0-4.184-1.184","gnh9a92utd42dqx",281,"44.csv","","null","resources/maskTrios/L1BB.jpg","null","",NA,NA,NA,NA,""
"image-keyboard-response",566,462658,"0.0-4.184-2.184","gnh9a92utd42dqx",281,"44.csv","","null","resources/images/fishbone.png","null","",NA,NA,NA,NA,""
"image-keyboard-response",567,462838,"0.0-4.185-0.185","gnh9a92utd42dqx",281,"44.csv","","178.5999999642372","resources/trios/L1T2A3.jpg","38","restless",0.5,0.7,0.5,0.252384976505265,"true"
"image-keyboard-response",568,463247,"0.0-4.185-1.185","gnh9a92utd42dqx",281,"44.csv","","null","resources/maskTrios/BT2B.jpg","null","",NA,NA,NA,NA,""
"image-keyboard-response",569,464454,"0.0-4.185-2.185","gnh9a92utd42dqx",281,"44.csv","","null","resources/images/coin2.png","null","",NA,NA,NA,NA,""
"image-keyboard-response",570,464689,"0.0-4.186-0.186","gnh9a92utd42dqx",281,"44.csv","","234.19999998807907","resources/trios/L1T2A3.jpg","38","restless",0.5,0.7,0.5,0.409510108630466,"true"
"image-keyboard-response",571,465100,"0.0-4.186-1.186","gnh9a92utd42dqx",281,"44.csv","","null","resources/maskTrios/BT2B.jpg","null","",NA,NA,NA,NA,""
"image-keyboard-response",572,466315,"0.0-4.186-2.186","gnh9a92utd42dqx",281,"44.csv","","null","resources/images/coin2.png","null","",NA,NA,NA,NA,""
"image-keyboard-response",573,466644,"0.0-4.187-0.187","gnh9a92utd42dqx",281,"44.csv","","327.7999999523163","resources/trios/L1T2A3.jpg","38","restless",0.5,0.7,0.5,0.662131917989176,"true"
"image-keyboard-response",574,467061,"0.0-4.187-1.187","gnh9a92utd42dqx",281,"44.csv","","null","resources/maskTrios/BT2B.jpg","null","",NA,NA,NA,NA,""
"image-keyboard-response",575,468263,"0.0-4.187-2.187","gnh9a92utd42dqx",281,"44.csv","","null","resources/images/coin2.png","null","",NA,NA,NA,NA,""
"image-keyboard-response",576,468539,"0.0-4.188-0.188","gnh9a92utd42dqx",281,"44.csv","","274.80000001192093","resources/trios/L1T2A3.jpg","38","restless",0.5,0.8,0.5,0.510640394002051,"true"
"image-keyboard-response",577,468946,"0.0-4.188-1.188","gnh9a92utd42dqx",281,"44.csv","","null","resources/maskTrios/BT2B.jpg","null","",NA,NA,NA,NA,""
"image-keyboard-response",578,470162,"0.0-4.188-2.188","gnh9a92utd42dqx",281,"44.csv","","null","resources/images/coin2.png","null","",NA,NA,NA,NA,""
"image-keyboard-response",579,470420,"0.0-4.189-0.189","gnh9a92utd42dqx",281,"44.csv","","255.80000001192093","resources/trios/L1T2A3.jpg","38","restless",0.5,0.8,0.5,0.741343003211594,"true"
"image-keyboard-response",580,470830,"0.0-4.189-1.189","gnh9a92utd42dqx",281,"44.csv","","null","resources/maskTrios/BT2B.jpg","null","",NA,NA,NA,NA,""
"image-keyboard-response",581,472046,"0.0-4.189-2.189","gnh9a92utd42dqx",281,"44.csv","","null","resources/images/coin2.png","null","",NA,NA,NA,NA,""
"image-keyboard-response",582,472364,"0.0-4.190-0.190","gnh9a92utd42dqx",281,"44.csv","","317.39999997615814","resources/trios/L1T2A3.jpg","38","restless",0.5,0.8,0.5,0.214163966832751,"true"
"image-keyboard-response",583,472768,"0.0-4.190-1.190","gnh9a92utd42dqx",281,"44.csv","","null","resources/maskTrios/BT2B.jpg","null","",NA,NA,NA,NA,""
"image-keyboard-response",584,473984,"0.0-4.190-2.190","gnh9a92utd42dqx",281,"44.csv","","null","resources/images/coin2.png","null","",NA,NA,NA,NA,""
"image-keyboard-response",585,474256,"0.0-4.191-0.191","gnh9a92utd42dqx",281,"44.csv","","270.89999997615814","resources/trios/L1T2A3.jpg","38","restless",0.5,0.8,0.5,0.521944243802526,"true"
"image-keyboard-response",586,474660,"0.0-4.191-1.191","gnh9a92utd42dqx",281,"44.csv","","null","resources/maskTrios/BT2B.jpg","null","",NA,NA,NA,NA,""
"image-keyboard-response",587,475867,"0.0-4.191-2.191","gnh9a92utd42dqx",281,"44.csv","","null","resources/images/coin2.png","null","",NA,NA,NA,NA,""
"image-keyboard-response",588,476145,"0.0-4.192-0.192","gnh9a92utd42dqx",281,"44.csv","","277.39999997615814","resources/trios/L1T2A3.jpg","38","restless",0.5,0.8,0.5,0.54702310442951,"true"
"image-keyboard-response",589,476562,"0.0-4.192-1.192","gnh9a92utd42dqx",281,"44.csv","","null","resources/maskTrios/BT2B.jpg","null","",NA,NA,NA,NA,""
"image-keyboard-response",590,477768,"0.0-4.192-2.192","gnh9a92utd42dqx",281,"44.csv","","null","resources/images/coin2.png","null","",NA,NA,NA,NA,""
"image-keyboard-response",591,478027,"0.0-4.193-0.193","gnh9a92utd42dqx",281,"44.csv","","258.4000000357628","resources/trios/L1T2A3.jpg","38","restless",0.5,0.8,0.5,0.969519838903394,"false"
"image-keyboard-response",592,478431,"0.0-4.193-1.193","gnh9a92utd42dqx",281,"44.csv","","null","resources/maskTrios/BT2B.jpg","null","",NA,NA,NA,NA,""
"image-keyboard-response",593,479640,"0.0-4.193-2.193","gnh9a92utd42dqx",281,"44.csv","","null","resources/images/fishbone.png","null","",NA,NA,NA,NA,""
"image-keyboard-response",594,479916,"0.0-4.194-0.194","gnh9a92utd42dqx",281,"44.csv","","275.5","resources/trios/L1T2A3.jpg","38","restless",0.5,0.8,0.5,0.476322574884822,"true"
"image-keyboard-response",595,480318,"0.0-4.194-1.194","gnh9a92utd42dqx",281,"44.csv","","null","resources/maskTrios/BT2B.jpg","null","",NA,NA,NA,NA,""
"image-keyboard-response",596,481530,"0.0-4.194-2.194","gnh9a92utd42dqx",281,"44.csv","","null","resources/images/coin2.png","null","",NA,NA,NA,NA,""
"image-keyboard-response",597,482386,"0.0-4.195-0.195","gnh9a92utd42dqx",281,"44.csv","","854.6999999880791","resources/trios/L1T2A3.jpg","38","restless",0.5,0.8,0.5,0.594494325293447,"true"
"image-keyboard-response",598,482795,"0.0-4.195-1.195","gnh9a92utd42dqx",281,"44.csv","","null","resources/maskTrios/BT2B.jpg","null","",NA,NA,NA,NA,""
"image-keyboard-response",599,484010,"0.0-4.195-2.195","gnh9a92utd42dqx",281,"44.csv","","null","resources/images/coin2.png","null","",NA,NA,NA,NA,""
"image-keyboard-response",600,484502,"0.0-4.196-0.196","gnh9a92utd42dqx",281,"44.csv","","490.30000001192093","resources/trios/L1T2A3.jpg","38","restless",0.5,0.8,0.5,0.0850552270699843,"true"
"image-keyboard-response",601,484912,"0.0-4.196-1.196","gnh9a92utd42dqx",281,"44.csv","","null","resources/maskTrios/BT2B.jpg","null","",NA,NA,NA,NA,""
"image-keyboard-response",602,486115,"0.0-4.196-2.196","gnh9a92utd42dqx",281,"44.csv","","null","resources/images/coin2.png","null","",NA,NA,NA,NA,""
"image-keyboard-response",603,486502,"0.0-4.197-0.197","gnh9a92utd42dqx",281,"44.csv","","385.0999999642372","resources/trios/L1T2A3.jpg","38","restless",0.5,0.8,0.5,0.916950496233951,"false"
"image-keyboard-response",604,486915,"0.0-4.197-1.197","gnh9a92utd42dqx",281,"44.csv","","null","resources/maskTrios/BT2B.jpg","null","",NA,NA,NA,NA,""
"image-keyboard-response",605,488130,"0.0-4.197-2.197","gnh9a92utd42dqx",281,"44.csv","","null","resources/images/fishbone.png","null","",NA,NA,NA,NA,""
"image-keyboard-response",606,488508,"0.0-4.198-0.198","gnh9a92utd42dqx",281,"44.csv","","376","resources/trios/L1T2A3.jpg","39","restless",0.5,0.8,0.5,0.308391873716793,"true"
"image-keyboard-response",607,488910,"0.0-4.198-1.198","gnh9a92utd42dqx",281,"44.csv","","null","resources/maskTrios/BBA3.jpg","null","",NA,NA,NA,NA,""
"image-keyboard-response",608,490115,"0.0-4.198-2.198","gnh9a92utd42dqx",281,"44.csv","","null","resources/images/coin2.png","null","",NA,NA,NA,NA,""
"image-keyboard-response",609,490388,"0.0-4.199-0.199","gnh9a92utd42dqx",281,"44.csv","","272.19999998807907","resources/trios/L1T2A3.jpg","39","restless",0.5,0.8,0.5,0.580503856892166,"false"
"image-keyboard-response",610,490792,"0.0-4.199-1.199","gnh9a92utd42dqx",281,"44.csv","","null","resources/maskTrios/BBA3.jpg","null","",NA,NA,NA,NA,""
"image-keyboard-response",611,492000,"0.0-4.199-2.199","gnh9a92utd42dqx",281,"44.csv","","null","resources/images/fishbone.png","null","",NA,NA,NA,NA,""
"survey-text",612,595214,"0.0-5.0","gnh9a92utd42dqx",281,"44.csv","","103211.80000001192","","","",NA,NA,NA,NA,""
