"trial_type","trial_index","time_elapsed","internal_node_id","subject","participantCode","walkNumber","success","rt","stimulus","key_press","test_part","leftProb","midProb","rightProb","generatedNum","correct"
"pavlovia",0,1395,"0.0-0.0","jnqr7br1x8vlvx8",254,"50.csv","","","","","",NA,NA,NA,NA,""
"fullscreen",1,4990,"0.0-1.0","jnqr7br1x8vlvx8",254,"50.csv","true","","","","",NA,NA,NA,NA,""
"survey-html-form",2,18259,"0.0-2.0","jnqr7br1x8vlvx8",254,"50.csv","","13124","","","",NA,NA,NA,NA,""
"image-keyboard-response",3,34758,"0.0-3.0-0.0","jnqr7br1x8vlvx8",254,"50.csv","","16497","resources/images/parrot_nobg.png","13","",NA,NA,NA,NA,""
"image-keyboard-response",4,37761,"0.0-3.0-1.0","jnqr7br1x8vlvx8",254,"50.csv","","null","resources/image_sets/111.png","null","",NA,NA,NA,NA,""
"image-keyboard-response",5,41109,"0.0-3.0-2.0","jnqr7br1x8vlvx8",254,"50.csv","","3345","resources/image_sets/left_highlight.png","37","",NA,NA,NA,NA,""
"image-keyboard-response",6,42063,"0.0-3.0-3.0","jnqr7br1x8vlvx8",254,"50.csv","","954","resources/image_sets/mid_highlight.png","38","",NA,NA,NA,NA,""
"image-keyboard-response",7,43173,"0.0-3.0-4.0","jnqr7br1x8vlvx8",254,"50.csv","","1107","resources/image_sets/right_highlight.png","39","",NA,NA,NA,NA,""
"image-keyboard-response",8,44836,"0.0-3.0-5.0","jnqr7br1x8vlvx8",254,"50.csv","","1662","resources/image_sets/111.png","13","",NA,NA,NA,NA,""
"image-keyboard-response",9,46309,"0.0-3.0-6.0","jnqr7br1x8vlvx8",254,"50.csv","","1472","resources/images/coin2.png","13","",NA,NA,NA,NA,""
"image-keyboard-response",10,47605,"0.0-3.0-7.0","jnqr7br1x8vlvx8",254,"50.csv","","1295","resources/images/fishbone.png","13","",NA,NA,NA,NA,""
"html-keyboard-response",11,50592,"0.0-3.0-8.0","jnqr7br1x8vlvx8",254,"50.csv","","2986","<p>You can track your coin total on the top right of your screen. </p><p>At the end of your journey you will be directed to a survey, so please click on the link before exiting the task</p><p>Press Enter to begin</p>","13","",NA,NA,NA,NA,""
"image-keyboard-response",12,51785,"0.0-4.0-0.0","jnqr7br1x8vlvx8",254,"50.csv","","1192","resources/trios/L1T2A3.jpg","38","restless",0.9,0.3,0.7,0.357996369810034,"false"
"image-keyboard-response",13,52195,"0.0-4.0-1.0","jnqr7br1x8vlvx8",254,"50.csv","","null","resources/maskTrios/BT2B.jpg","null","",NA,NA,NA,NA,""
"image-keyboard-response",14,53397,"0.0-4.0-2.0","jnqr7br1x8vlvx8",254,"50.csv","","null","resources/images/fishbone.png","null","",NA,NA,NA,NA,""
"image-keyboard-response",15,53995,"0.0-4.1-0.1","jnqr7br1x8vlvx8",254,"50.csv","","597","resources/trios/L1T2A3.jpg","38","restless",0.9,0.3,0.7,0.969086061667834,"false"
"image-keyboard-response",16,54403,"0.0-4.1-1.1","jnqr7br1x8vlvx8",254,"50.csv","","null","resources/maskTrios/BT2B.jpg","null","",NA,NA,NA,NA,""
"image-keyboard-response",17,55609,"0.0-4.1-2.1","jnqr7br1x8vlvx8",254,"50.csv","","null","resources/images/fishbone.png","null","",NA,NA,NA,NA,""
"image-keyboard-response",18,56099,"0.0-4.2-0.2","jnqr7br1x8vlvx8",254,"50.csv","","489","resources/trios/L1T2A3.jpg","39","restless",0.8,0.3,0.7,0.294854552956368,"true"
"image-keyboard-response",19,56509,"0.0-4.2-1.2","jnqr7br1x8vlvx8",254,"50.csv","","null","resources/maskTrios/BBA3.jpg","null","",NA,NA,NA,NA,""
"image-keyboard-response",20,57717,"0.0-4.2-2.2","jnqr7br1x8vlvx8",254,"50.csv","","null","resources/images/coin2.png","null","",NA,NA,NA,NA,""
"image-keyboard-response",21,58227,"0.0-4.3-0.3","jnqr7br1x8vlvx8",254,"50.csv","","509","resources/trios/L1T2A3.jpg","39","restless",0.8,0.3,0.7,0.23828412323243,"true"
"image-keyboard-response",22,58633,"0.0-4.3-1.3","jnqr7br1x8vlvx8",254,"50.csv","","null","resources/maskTrios/BBA3.jpg","null","",NA,NA,NA,NA,""
"image-keyboard-response",23,59837,"0.0-4.3-2.3","jnqr7br1x8vlvx8",254,"50.csv","","null","resources/images/coin2.png","null","",NA,NA,NA,NA,""
"image-keyboard-response",24,60273,"0.0-4.4-0.4","jnqr7br1x8vlvx8",254,"50.csv","","434","resources/trios/L1T2A3.jpg","39","restless",0.8,0.2,0.7,0.187006343142366,"true"
"image-keyboard-response",25,60681,"0.0-4.4-1.4","jnqr7br1x8vlvx8",254,"50.csv","","null","resources/maskTrios/BBA3.jpg","null","",NA,NA,NA,NA,""
"image-keyboard-response",26,61889,"0.0-4.4-2.4","jnqr7br1x8vlvx8",254,"50.csv","","null","resources/images/coin2.png","null","",NA,NA,NA,NA,""
"image-keyboard-response",27,62383,"0.0-4.5-0.5","jnqr7br1x8vlvx8",254,"50.csv","","493","resources/trios/L1T2A3.jpg","39","restless",0.8,0.2,0.7,0.723616334601056,"false"
"image-keyboard-response",28,62790,"0.0-4.5-1.5","jnqr7br1x8vlvx8",254,"50.csv","","null","resources/maskTrios/BBA3.jpg","null","",NA,NA,NA,NA,""
"image-keyboard-response",29,63997,"0.0-4.5-2.5","jnqr7br1x8vlvx8",254,"50.csv","","null","resources/images/fishbone.png","null","",NA,NA,NA,NA,""
"image-keyboard-response",30,64508,"0.0-4.6-0.6","jnqr7br1x8vlvx8",254,"50.csv","","509","resources/trios/L1T2A3.jpg","37","restless",0.8,0.2,0.7,0.341021060377782,"true"
"image-keyboard-response",31,64911,"0.0-4.6-1.6","jnqr7br1x8vlvx8",254,"50.csv","","null","resources/maskTrios/L1BB.jpg","null","",NA,NA,NA,NA,""
"image-keyboard-response",32,66114,"0.0-4.6-2.6","jnqr7br1x8vlvx8",254,"50.csv","","null","resources/images/coin2.png","null","",NA,NA,NA,NA,""
"image-keyboard-response",33,66451,"0.0-4.7-0.7","jnqr7br1x8vlvx8",254,"50.csv","","335","resources/trios/L1T2A3.jpg","37","restless",0.8,0.2,0.7,0.0654453110614023,"true"
"image-keyboard-response",34,66864,"0.0-4.7-1.7","jnqr7br1x8vlvx8",254,"50.csv","","null","resources/maskTrios/L1BB.jpg","null","",NA,NA,NA,NA,""
"image-keyboard-response",35,68127,"0.0-4.7-2.7","jnqr7br1x8vlvx8",254,"50.csv","","null","resources/images/coin2.png","null","",NA,NA,NA,NA,""
"image-keyboard-response",36,68562,"0.0-4.8-0.8","jnqr7br1x8vlvx8",254,"50.csv","","433","resources/trios/L1T2A3.jpg","37","restless",0.8,0.2,0.7,0.741499725678412,"true"
"image-keyboard-response",37,68968,"0.0-4.8-1.8","jnqr7br1x8vlvx8",254,"50.csv","","null","resources/maskTrios/L1BB.jpg","null","",NA,NA,NA,NA,""
"image-keyboard-response",38,70172,"0.0-4.8-2.8","jnqr7br1x8vlvx8",254,"50.csv","","null","resources/images/coin2.png","null","",NA,NA,NA,NA,""
"image-keyboard-response",39,70607,"0.0-4.9-0.9","jnqr7br1x8vlvx8",254,"50.csv","","434","resources/trios/L1T2A3.jpg","38","restless",0.8,0.2,0.6,0.996849659947414,"false"
"image-keyboard-response",40,71012,"0.0-4.9-1.9","jnqr7br1x8vlvx8",254,"50.csv","","null","resources/maskTrios/BT2B.jpg","null","",NA,NA,NA,NA,""
"image-keyboard-response",41,72225,"0.0-4.9-2.9","jnqr7br1x8vlvx8",254,"50.csv","","null","resources/images/fishbone.png","null","",NA,NA,NA,NA,""
"image-keyboard-response",42,72635,"0.0-4.10-0.10","jnqr7br1x8vlvx8",254,"50.csv","","407","resources/trios/L1T2A3.jpg","37","restless",0.8,0.2,0.6,0.0634887054931376,"true"
"image-keyboard-response",43,73039,"0.0-4.10-1.10","jnqr7br1x8vlvx8",254,"50.csv","","null","resources/maskTrios/L1BB.jpg","null","",NA,NA,NA,NA,""
"image-keyboard-response",44,74247,"0.0-4.10-2.10","jnqr7br1x8vlvx8",254,"50.csv","","null","resources/images/coin2.png","null","",NA,NA,NA,NA,""
"image-keyboard-response",45,74931,"0.0-4.11-0.11","jnqr7br1x8vlvx8",254,"50.csv","","683","resources/trios/L1T2A3.jpg","37","restless",0.7,0.2,0.6,0.112845440979961,"true"
"image-keyboard-response",46,75343,"0.0-4.11-1.11","jnqr7br1x8vlvx8",254,"50.csv","","null","resources/maskTrios/L1BB.jpg","null","",NA,NA,NA,NA,""
"image-keyboard-response",47,76545,"0.0-4.11-2.11","jnqr7br1x8vlvx8",254,"50.csv","","null","resources/images/coin2.png","null","",NA,NA,NA,NA,""
"image-keyboard-response",48,77107,"0.0-4.12-0.12","jnqr7br1x8vlvx8",254,"50.csv","","559","resources/trios/L1T2A3.jpg","37","restless",0.7,0.2,0.6,0.313829068495209,"true"
"image-keyboard-response",49,77517,"0.0-4.12-1.12","jnqr7br1x8vlvx8",254,"50.csv","","null","resources/maskTrios/L1BB.jpg","null","",NA,NA,NA,NA,""
"image-keyboard-response",50,78725,"0.0-4.12-2.12","jnqr7br1x8vlvx8",254,"50.csv","","null","resources/images/coin2.png","null","",NA,NA,NA,NA,""
"image-keyboard-response",51,79074,"0.0-4.13-0.13","jnqr7br1x8vlvx8",254,"50.csv","","348","resources/trios/L1T2A3.jpg","37","restless",0.7,0.2,0.6,0.0486830881466955,"true"
"image-keyboard-response",52,79477,"0.0-4.13-1.13","jnqr7br1x8vlvx8",254,"50.csv","","null","resources/maskTrios/L1BB.jpg","null","",NA,NA,NA,NA,""
"image-keyboard-response",53,80738,"0.0-4.13-2.13","jnqr7br1x8vlvx8",254,"50.csv","","null","resources/images/coin2.png","null","",NA,NA,NA,NA,""
"image-keyboard-response",54,81093,"0.0-4.14-0.14","jnqr7br1x8vlvx8",254,"50.csv","","354","resources/trios/L1T2A3.jpg","37","restless",0.7,0.2,0.6,0.291469088885164,"true"
"image-keyboard-response",55,81496,"0.0-4.14-1.14","jnqr7br1x8vlvx8",254,"50.csv","","null","resources/maskTrios/L1BB.jpg","null","",NA,NA,NA,NA,""
"image-keyboard-response",56,82756,"0.0-4.14-2.14","jnqr7br1x8vlvx8",254,"50.csv","","null","resources/images/coin2.png","null","",NA,NA,NA,NA,""
"image-keyboard-response",57,83056,"0.0-4.15-0.15","jnqr7br1x8vlvx8",254,"50.csv","","298","resources/trios/L1T2A3.jpg","37","restless",0.7,0.2,0.6,0.059002593831612,"true"
"image-keyboard-response",58,83466,"0.0-4.15-1.15","jnqr7br1x8vlvx8",254,"50.csv","","null","resources/maskTrios/L1BB.jpg","null","",NA,NA,NA,NA,""
"image-keyboard-response",59,84773,"0.0-4.15-2.15","jnqr7br1x8vlvx8",254,"50.csv","","null","resources/images/coin2.png","null","",NA,NA,NA,NA,""
"image-keyboard-response",60,84978,"0.0-4.16-0.16","jnqr7br1x8vlvx8",254,"50.csv","","204","resources/trios/L1T2A3.jpg","37","restless",0.7,0.2,0.6,0.23532509074065,"true"
"image-keyboard-response",61,85390,"0.0-4.16-1.16","jnqr7br1x8vlvx8",254,"50.csv","","null","resources/maskTrios/L1BB.jpg","null","",NA,NA,NA,NA,""
"image-keyboard-response",62,86600,"0.0-4.16-2.16","jnqr7br1x8vlvx8",254,"50.csv","","null","resources/images/coin2.png","null","",NA,NA,NA,NA,""
"image-keyboard-response",63,87001,"0.0-4.17-0.17","jnqr7br1x8vlvx8",254,"50.csv","","400","resources/trios/L1T2A3.jpg","37","restless",0.7,0.2,0.6,0.593593294767294,"true"
"image-keyboard-response",64,87408,"0.0-4.17-1.17","jnqr7br1x8vlvx8",254,"50.csv","","null","resources/maskTrios/L1BB.jpg","null","",NA,NA,NA,NA,""
"image-keyboard-response",65,88614,"0.0-4.17-2.17","jnqr7br1x8vlvx8",254,"50.csv","","null","resources/images/coin2.png","null","",NA,NA,NA,NA,""
"image-keyboard-response",66,89024,"0.0-4.18-0.18","jnqr7br1x8vlvx8",254,"50.csv","","409","resources/trios/L1T2A3.jpg","37","restless",0.7,0.2,0.6,0.0258144099848564,"true"
"image-keyboard-response",67,89429,"0.0-4.18-1.18","jnqr7br1x8vlvx8",254,"50.csv","","null","resources/maskTrios/L1BB.jpg","null","",NA,NA,NA,NA,""
"image-keyboard-response",68,90635,"0.0-4.18-2.18","jnqr7br1x8vlvx8",254,"50.csv","","null","resources/images/coin2.png","null","",NA,NA,NA,NA,""
"image-keyboard-response",69,90884,"0.0-4.19-0.19","jnqr7br1x8vlvx8",254,"50.csv","","247","resources/trios/L1T2A3.jpg","37","restless",0.7,0.3,0.6,0.25308287632729,"true"
"image-keyboard-response",70,91288,"0.0-4.19-1.19","jnqr7br1x8vlvx8",254,"50.csv","","null","resources/maskTrios/L1BB.jpg","null","",NA,NA,NA,NA,""
"image-keyboard-response",71,92495,"0.0-4.19-2.19","jnqr7br1x8vlvx8",254,"50.csv","","null","resources/images/coin2.png","null","",NA,NA,NA,NA,""
"image-keyboard-response",72,92670,"0.0-4.20-0.20","jnqr7br1x8vlvx8",254,"50.csv","","173","resources/trios/L1T2A3.jpg","37","restless",0.7,0.3,0.6,0.880250987603073,"false"
"image-keyboard-response",73,93080,"0.0-4.20-1.20","jnqr7br1x8vlvx8",254,"50.csv","","null","resources/maskTrios/L1BB.jpg","null","",NA,NA,NA,NA,""
"image-keyboard-response",74,94292,"0.0-4.20-2.20","jnqr7br1x8vlvx8",254,"50.csv","","null","resources/images/fishbone.png","null","",NA,NA,NA,NA,""
"image-keyboard-response",75,95186,"0.0-4.21-0.21","jnqr7br1x8vlvx8",254,"50.csv","","893","resources/trios/L1T2A3.jpg","39","restless",0.7,0.3,0.6,0.50542387532515,"true"
"image-keyboard-response",76,95592,"0.0-4.21-1.21","jnqr7br1x8vlvx8",254,"50.csv","","null","resources/maskTrios/BBA3.jpg","null","",NA,NA,NA,NA,""
"image-keyboard-response",77,96799,"0.0-4.21-2.21","jnqr7br1x8vlvx8",254,"50.csv","","null","resources/images/coin2.png","null","",NA,NA,NA,NA,""
"image-keyboard-response",78,96872,"0.0-4.22-0.22","jnqr7br1x8vlvx8",254,"50.csv","","72","resources/trios/L1T2A3.jpg","39","restless",0.7,0.3,0.6,0.0521115926913845,"true"
"image-keyboard-response",79,97313,"0.0-4.22-1.22","jnqr7br1x8vlvx8",254,"50.csv","","null","resources/maskTrios/BBA3.jpg","null","",NA,NA,NA,NA,""
"image-keyboard-response",80,98515,"0.0-4.22-2.22","jnqr7br1x8vlvx8",254,"50.csv","","null","resources/images/coin2.png","null","",NA,NA,NA,NA,""
"image-keyboard-response",81,98519,"0.0-4.23-0.23","jnqr7br1x8vlvx8",254,"50.csv","","3","resources/trios/L1T2A3.jpg","39","restless",0.7,0.3,0.6,0.60367203787972,"false"
"image-keyboard-response",82,98925,"0.0-4.23-1.23","jnqr7br1x8vlvx8",254,"50.csv","","null","resources/maskTrios/BBA3.jpg","null","",NA,NA,NA,NA,""
"image-keyboard-response",83,100192,"0.0-4.23-2.23","jnqr7br1x8vlvx8",254,"50.csv","","null","resources/images/fishbone.png","null","",NA,NA,NA,NA,""
"image-keyboard-response",84,100296,"0.0-4.24-0.24","jnqr7br1x8vlvx8",254,"50.csv","","104","resources/trios/L1T2A3.jpg","38","restless",0.7,0.3,0.6,0.143369055323495,"true"
"image-keyboard-response",85,100703,"0.0-4.24-1.24","jnqr7br1x8vlvx8",254,"50.csv","","null","resources/maskTrios/BT2B.jpg","null","",NA,NA,NA,NA,""
"image-keyboard-response",86,101905,"0.0-4.24-2.24","jnqr7br1x8vlvx8",254,"50.csv","","null","resources/images/coin2.png","null","",NA,NA,NA,NA,""
"image-keyboard-response",87,101949,"0.0-4.25-0.25","jnqr7br1x8vlvx8",254,"50.csv","","43","resources/trios/L1T2A3.jpg","38","restless",0.7,0.3,0.6,0.0428375909023538,"true"
"image-keyboard-response",88,102355,"0.0-4.25-1.25","jnqr7br1x8vlvx8",254,"50.csv","","null","resources/maskTrios/BT2B.jpg","null","",NA,NA,NA,NA,""
"image-keyboard-response",89,103557,"0.0-4.25-2.25","jnqr7br1x8vlvx8",254,"50.csv","","null","resources/images/coin2.png","null","",NA,NA,NA,NA,""
"image-keyboard-response",90,103711,"0.0-4.26-0.26","jnqr7br1x8vlvx8",254,"50.csv","","153","resources/trios/L1T2A3.jpg","38","restless",0.7,0.3,0.6,0.0755653414229051,"true"
"image-keyboard-response",91,104117,"0.0-4.26-1.26","jnqr7br1x8vlvx8",254,"50.csv","","null","resources/maskTrios/BT2B.jpg","null","",NA,NA,NA,NA,""
"image-keyboard-response",92,105329,"0.0-4.26-2.26","jnqr7br1x8vlvx8",254,"50.csv","","null","resources/images/coin2.png","null","",NA,NA,NA,NA,""
"image-keyboard-response",93,105371,"0.0-4.27-0.27","jnqr7br1x8vlvx8",254,"50.csv","","42","resources/trios/L1T2A3.jpg","38","restless",0.7,0.3,0.6,0.607992499933078,"false"
"image-keyboard-response",94,105778,"0.0-4.27-1.27","jnqr7br1x8vlvx8",254,"50.csv","","null","resources/maskTrios/BT2B.jpg","null","",NA,NA,NA,NA,""
"image-keyboard-response",95,106984,"0.0-4.27-2.27","jnqr7br1x8vlvx8",254,"50.csv","","null","resources/images/fishbone.png","null","",NA,NA,NA,NA,""
"image-keyboard-response",96,107308,"0.0-4.28-0.28","jnqr7br1x8vlvx8",254,"50.csv","","318","resources/trios/L1T2A3.jpg","37","restless",0.7,0.4,0.5,0.682653427611924,"true"
"image-keyboard-response",97,107713,"0.0-4.28-1.28","jnqr7br1x8vlvx8",254,"50.csv","","null","resources/maskTrios/L1BB.jpg","null","",NA,NA,NA,NA,""
"image-keyboard-response",98,108917,"0.0-4.28-2.28","jnqr7br1x8vlvx8",254,"50.csv","","null","resources/images/coin2.png","null","",NA,NA,NA,NA,""
"image-keyboard-response",99,108989,"0.0-4.29-0.29","jnqr7br1x8vlvx8",254,"50.csv","","70","resources/trios/L1T2A3.jpg","37","restless",0.7,0.4,0.5,0.534566893582499,"true"
"image-keyboard-response",100,109396,"0.0-4.29-1.29","jnqr7br1x8vlvx8",254,"50.csv","","null","resources/maskTrios/L1BB.jpg","null","",NA,NA,NA,NA,""
"image-keyboard-response",101,110599,"0.0-4.29-2.29","jnqr7br1x8vlvx8",254,"50.csv","","null","resources/images/coin2.png","null","",NA,NA,NA,NA,""
"image-keyboard-response",102,110903,"0.0-4.30-0.30","jnqr7br1x8vlvx8",254,"50.csv","","303","resources/trios/L1T2A3.jpg","37","restless",0.7,0.4,0.5,0.568932799236066,"true"
"image-keyboard-response",103,111309,"0.0-4.30-1.30","jnqr7br1x8vlvx8",254,"50.csv","","null","resources/maskTrios/L1BB.jpg","null","",NA,NA,NA,NA,""
"image-keyboard-response",104,112519,"0.0-4.30-2.30","jnqr7br1x8vlvx8",254,"50.csv","","null","resources/images/coin2.png","null","",NA,NA,NA,NA,""
"image-keyboard-response",105,112694,"0.0-4.31-0.31","jnqr7br1x8vlvx8",254,"50.csv","","172","resources/trios/L1T2A3.jpg","37","restless",0.7,0.4,0.5,0.241575939612687,"true"
"image-keyboard-response",106,113100,"0.0-4.31-1.31","jnqr7br1x8vlvx8",254,"50.csv","","null","resources/maskTrios/L1BB.jpg","null","",NA,NA,NA,NA,""
"image-keyboard-response",107,114302,"0.0-4.31-2.31","jnqr7br1x8vlvx8",254,"50.csv","","null","resources/images/coin2.png","null","",NA,NA,NA,NA,""
"image-keyboard-response",108,114317,"0.0-4.32-0.32","jnqr7br1x8vlvx8",254,"50.csv","","13","resources/trios/L1T2A3.jpg","37","restless",0.7,0.4,0.5,0.496130181815996,"true"
"image-keyboard-response",109,114722,"0.0-4.32-1.32","jnqr7br1x8vlvx8",254,"50.csv","","null","resources/maskTrios/L1BB.jpg","null","",NA,NA,NA,NA,""
"image-keyboard-response",110,115933,"0.0-4.32-2.32","jnqr7br1x8vlvx8",254,"50.csv","","null","resources/images/coin2.png","null","",NA,NA,NA,NA,""
"image-keyboard-response",111,115997,"0.0-4.33-0.33","jnqr7br1x8vlvx8",254,"50.csv","","64","resources/trios/L1T2A3.jpg","37","restless",0.7,0.4,0.5,0.864706767024849,"false"
"image-keyboard-response",112,116403,"0.0-4.33-1.33","jnqr7br1x8vlvx8",254,"50.csv","","null","resources/maskTrios/L1BB.jpg","null","",NA,NA,NA,NA,""
"image-keyboard-response",113,117608,"0.0-4.33-2.33","jnqr7br1x8vlvx8",254,"50.csv","","null","resources/images/fishbone.png","null","",NA,NA,NA,NA,""
"image-keyboard-response",114,118073,"0.0-4.34-0.34","jnqr7br1x8vlvx8",254,"50.csv","","463","resources/trios/L1T2A3.jpg","38","restless",0.7,0.4,0.5,0.459576224768668,"false"
"image-keyboard-response",115,118482,"0.0-4.34-1.34","jnqr7br1x8vlvx8",254,"50.csv","","null","resources/maskTrios/BT2B.jpg","null","",NA,NA,NA,NA,""
"image-keyboard-response",116,119683,"0.0-4.34-2.34","jnqr7br1x8vlvx8",254,"50.csv","","null","resources/images/fishbone.png","null","",NA,NA,NA,NA,""
"image-keyboard-response",117,119831,"0.0-4.35-0.35","jnqr7br1x8vlvx8",254,"50.csv","","146","resources/trios/L1T2A3.jpg","39","restless",0.7,0.4,0.5,0.73764578514931,"false"
"image-keyboard-response",118,120237,"0.0-4.35-1.35","jnqr7br1x8vlvx8",254,"50.csv","","null","resources/maskTrios/BBA3.jpg","null","",NA,NA,NA,NA,""
"image-keyboard-response",119,121438,"0.0-4.35-2.35","jnqr7br1x8vlvx8",254,"50.csv","","null","resources/images/fishbone.png","null","",NA,NA,NA,NA,""
"image-keyboard-response",120,121722,"0.0-4.36-0.36","jnqr7br1x8vlvx8",254,"50.csv","","282","resources/trios/L1T2A3.jpg","38","restless",0.7,0.4,0.5,0.634534495961876,"false"
"image-keyboard-response",121,122128,"0.0-4.36-1.36","jnqr7br1x8vlvx8",254,"50.csv","","null","resources/maskTrios/BT2B.jpg","null","",NA,NA,NA,NA,""
"image-keyboard-response",122,123444,"0.0-4.36-2.36","jnqr7br1x8vlvx8",254,"50.csv","","null","resources/images/fishbone.png","null","",NA,NA,NA,NA,""
"image-keyboard-response",123,123638,"0.0-4.37-0.37","jnqr7br1x8vlvx8",254,"50.csv","","193","resources/trios/L1T2A3.jpg","37","restless",0.7,0.4,0.5,0.151869225412535,"true"
"image-keyboard-response",124,124043,"0.0-4.37-1.37","jnqr7br1x8vlvx8",254,"50.csv","","null","resources/maskTrios/L1BB.jpg","null","",NA,NA,NA,NA,""
"image-keyboard-response",125,125245,"0.0-4.37-2.37","jnqr7br1x8vlvx8",254,"50.csv","","null","resources/images/coin2.png","null","",NA,NA,NA,NA,""
"image-keyboard-response",126,125402,"0.0-4.38-0.38","jnqr7br1x8vlvx8",254,"50.csv","","155","resources/trios/L1T2A3.jpg","37","restless",0.8,0.4,0.5,0.244538665485252,"true"
"image-keyboard-response",127,125806,"0.0-4.38-1.38","jnqr7br1x8vlvx8",254,"50.csv","","null","resources/maskTrios/L1BB.jpg","null","",NA,NA,NA,NA,""
"image-keyboard-response",128,127016,"0.0-4.38-2.38","jnqr7br1x8vlvx8",254,"50.csv","","null","resources/images/coin2.png","null","",NA,NA,NA,NA,""
"image-keyboard-response",129,127138,"0.0-4.39-0.39","jnqr7br1x8vlvx8",254,"50.csv","","122","resources/trios/L1T2A3.jpg","37","restless",0.8,0.4,0.5,0.312667710589573,"true"
"image-keyboard-response",130,127547,"0.0-4.39-1.39","jnqr7br1x8vlvx8",254,"50.csv","","null","resources/maskTrios/L1BB.jpg","null","",NA,NA,NA,NA,""
"image-keyboard-response",131,128751,"0.0-4.39-2.39","jnqr7br1x8vlvx8",254,"50.csv","","null","resources/images/coin2.png","null","",NA,NA,NA,NA,""
"image-keyboard-response",132,128815,"0.0-4.40-0.40","jnqr7br1x8vlvx8",254,"50.csv","","63","resources/trios/L1T2A3.jpg","37","restless",0.8,0.4,0.5,0.369068162764336,"true"
"image-keyboard-response",133,129223,"0.0-4.40-1.40","jnqr7br1x8vlvx8",254,"50.csv","","null","resources/maskTrios/L1BB.jpg","null","",NA,NA,NA,NA,""
"image-keyboard-response",134,130426,"0.0-4.40-2.40","jnqr7br1x8vlvx8",254,"50.csv","","null","resources/images/coin2.png","null","",NA,NA,NA,NA,""
"image-keyboard-response",135,130589,"0.0-4.41-0.41","jnqr7br1x8vlvx8",254,"50.csv","","162","resources/trios/L1T2A3.jpg","37","restless",0.8,0.4,0.5,0.623162751979766,"true"
"image-keyboard-response",136,130996,"0.0-4.41-1.41","jnqr7br1x8vlvx8",254,"50.csv","","null","resources/maskTrios/L1BB.jpg","null","",NA,NA,NA,NA,""
"image-keyboard-response",137,132208,"0.0-4.41-2.41","jnqr7br1x8vlvx8",254,"50.csv","","null","resources/images/coin2.png","null","",NA,NA,NA,NA,""
"image-keyboard-response",138,132388,"0.0-4.42-0.42","jnqr7br1x8vlvx8",254,"50.csv","","179","resources/trios/L1T2A3.jpg","37","restless",0.8,0.5,0.5,0.257265057498189,"true"
"image-keyboard-response",139,132791,"0.0-4.42-1.42","jnqr7br1x8vlvx8",254,"50.csv","","null","resources/maskTrios/L1BB.jpg","null","",NA,NA,NA,NA,""
"image-keyboard-response",140,133999,"0.0-4.42-2.42","jnqr7br1x8vlvx8",254,"50.csv","","null","resources/images/coin2.png","null","",NA,NA,NA,NA,""
"image-keyboard-response",141,134467,"0.0-4.43-0.43","jnqr7br1x8vlvx8",254,"50.csv","","467","resources/trios/L1T2A3.jpg","37","restless",0.8,0.5,0.5,0.542780533627747,"true"
"image-keyboard-response",142,134871,"0.0-4.43-1.43","jnqr7br1x8vlvx8",254,"50.csv","","null","resources/maskTrios/L1BB.jpg","null","",NA,NA,NA,NA,""
"image-keyboard-response",143,136081,"0.0-4.43-2.43","jnqr7br1x8vlvx8",254,"50.csv","","null","resources/images/coin2.png","null","",NA,NA,NA,NA,""
"image-keyboard-response",144,136107,"0.0-4.44-0.44","jnqr7br1x8vlvx8",254,"50.csv","","25","resources/trios/L1T2A3.jpg","37","restless",0.8,0.5,0.5,0.925999430293761,"false"
"image-keyboard-response",145,136510,"0.0-4.44-1.44","jnqr7br1x8vlvx8",254,"50.csv","","null","resources/maskTrios/L1BB.jpg","null","",NA,NA,NA,NA,""
"image-keyboard-response",146,137717,"0.0-4.44-2.44","jnqr7br1x8vlvx8",254,"50.csv","","null","resources/images/fishbone.png","null","",NA,NA,NA,NA,""
"image-keyboard-response",147,137952,"0.0-4.45-0.45","jnqr7br1x8vlvx8",254,"50.csv","","233","resources/trios/L1T2A3.jpg","38","restless",0.8,0.5,0.5,0.16844254408796,"true"
"image-keyboard-response",148,138357,"0.0-4.45-1.45","jnqr7br1x8vlvx8",254,"50.csv","","null","resources/maskTrios/BT2B.jpg","null","",NA,NA,NA,NA,""
"image-keyboard-response",149,139567,"0.0-4.45-2.45","jnqr7br1x8vlvx8",254,"50.csv","","null","resources/images/coin2.png","null","",NA,NA,NA,NA,""
"image-keyboard-response",150,139890,"0.0-4.46-0.46","jnqr7br1x8vlvx8",254,"50.csv","","321","resources/trios/L1T2A3.jpg","38","restless",0.7,0.5,0.5,0.52924726544081,"false"
"image-keyboard-response",151,140292,"0.0-4.46-1.46","jnqr7br1x8vlvx8",254,"50.csv","","null","resources/maskTrios/BT2B.jpg","null","",NA,NA,NA,NA,""
"image-keyboard-response",152,141621,"0.0-4.46-2.46","jnqr7br1x8vlvx8",254,"50.csv","","null","resources/images/fishbone.png","null","",NA,NA,NA,NA,""
"image-keyboard-response",153,142097,"0.0-4.47-0.47","jnqr7br1x8vlvx8",254,"50.csv","","475","resources/trios/L1T2A3.jpg","39","restless",0.7,0.5,0.5,0.161989654043543,"true"
"image-keyboard-response",154,142501,"0.0-4.47-1.47","jnqr7br1x8vlvx8",254,"50.csv","","null","resources/maskTrios/BBA3.jpg","null","",NA,NA,NA,NA,""
"image-keyboard-response",155,143712,"0.0-4.47-2.47","jnqr7br1x8vlvx8",254,"50.csv","","null","resources/images/coin2.png","null","",NA,NA,NA,NA,""
"image-keyboard-response",156,143881,"0.0-4.48-0.48","jnqr7br1x8vlvx8",254,"50.csv","","168","resources/trios/L1T2A3.jpg","39","restless",0.7,0.6,0.5,0.294103320969908,"true"
"image-keyboard-response",157,144285,"0.0-4.48-1.48","jnqr7br1x8vlvx8",254,"50.csv","","null","resources/maskTrios/BBA3.jpg","null","",NA,NA,NA,NA,""
"image-keyboard-response",158,145494,"0.0-4.48-2.48","jnqr7br1x8vlvx8",254,"50.csv","","null","resources/images/coin2.png","null","",NA,NA,NA,NA,""
"image-keyboard-response",159,145716,"0.0-4.49-0.49","jnqr7br1x8vlvx8",254,"50.csv","","221","resources/trios/L1T2A3.jpg","39","restless",0.7,0.7,0.5,0.525556895573044,"false"
"image-keyboard-response",160,146121,"0.0-4.49-1.49","jnqr7br1x8vlvx8",254,"50.csv","","null","resources/maskTrios/BBA3.jpg","null","",NA,NA,NA,NA,""
"image-keyboard-response",161,147332,"0.0-4.49-2.49","jnqr7br1x8vlvx8",254,"50.csv","","null","resources/images/fishbone.png","null","",NA,NA,NA,NA,""
"image-keyboard-response",162,147687,"0.0-4.50-0.50","jnqr7br1x8vlvx8",254,"50.csv","","354","resources/trios/L1T2A3.jpg","37","restless",0.7,0.7,0.5,0.429254782465585,"true"
"image-keyboard-response",163,148093,"0.0-4.50-1.50","jnqr7br1x8vlvx8",254,"50.csv","","null","resources/maskTrios/L1BB.jpg","null","",NA,NA,NA,NA,""
"image-keyboard-response",164,149302,"0.0-4.50-2.50","jnqr7br1x8vlvx8",254,"50.csv","","null","resources/images/coin2.png","null","",NA,NA,NA,NA,""
"image-keyboard-response",165,149348,"0.0-4.51-0.51","jnqr7br1x8vlvx8",254,"50.csv","","46","resources/trios/L1T2A3.jpg","37","restless",0.7,0.7,0.5,0.763141890921523,"false"
"image-keyboard-response",166,149755,"0.0-4.51-1.51","jnqr7br1x8vlvx8",254,"50.csv","","null","resources/maskTrios/L1BB.jpg","null","",NA,NA,NA,NA,""
"image-keyboard-response",167,150957,"0.0-4.51-2.51","jnqr7br1x8vlvx8",254,"50.csv","","null","resources/images/fishbone.png","null","",NA,NA,NA,NA,""
"image-keyboard-response",168,151136,"0.0-4.52-0.52","jnqr7br1x8vlvx8",254,"50.csv","","180","resources/trios/L1T2A3.jpg","38","restless",0.7,0.7,0.6,0.584095731102078,"true"
"image-keyboard-response",169,151540,"0.0-4.52-1.52","jnqr7br1x8vlvx8",254,"50.csv","","null","resources/maskTrios/BT2B.jpg","null","",NA,NA,NA,NA,""
"image-keyboard-response",170,152751,"0.0-4.52-2.52","jnqr7br1x8vlvx8",254,"50.csv","","null","resources/images/coin2.png","null","",NA,NA,NA,NA,""
"image-keyboard-response",171,152786,"0.0-4.53-0.53","jnqr7br1x8vlvx8",254,"50.csv","","34","resources/trios/L1T2A3.jpg","38","restless",0.7,0.7,0.6,0.279769517548854,"true"
"image-keyboard-response",172,153192,"0.0-4.53-1.53","jnqr7br1x8vlvx8",254,"50.csv","","null","resources/maskTrios/BT2B.jpg","null","",NA,NA,NA,NA,""
"image-keyboard-response",173,154393,"0.0-4.53-2.53","jnqr7br1x8vlvx8",254,"50.csv","","null","resources/images/coin2.png","null","",NA,NA,NA,NA,""
"image-keyboard-response",174,154672,"0.0-4.54-0.54","jnqr7br1x8vlvx8",254,"50.csv","","277","resources/trios/L1T2A3.jpg","38","restless",0.6,0.7,0.6,0.896360720946617,"false"
"image-keyboard-response",175,155075,"0.0-4.54-1.54","jnqr7br1x8vlvx8",254,"50.csv","","null","resources/maskTrios/BT2B.jpg","null","",NA,NA,NA,NA,""
"image-keyboard-response",176,156284,"0.0-4.54-2.54","jnqr7br1x8vlvx8",254,"50.csv","","null","resources/images/fishbone.png","null","",NA,NA,NA,NA,""
"image-keyboard-response",177,156427,"0.0-4.55-0.55","jnqr7br1x8vlvx8",254,"50.csv","","142","resources/trios/L1T2A3.jpg","39","restless",0.5,0.7,0.6,0.280728310398758,"true"
"image-keyboard-response",178,156840,"0.0-4.55-1.55","jnqr7br1x8vlvx8",254,"50.csv","","null","resources/maskTrios/BBA3.jpg","null","",NA,NA,NA,NA,""
"image-keyboard-response",179,158043,"0.0-4.55-2.55","jnqr7br1x8vlvx8",254,"50.csv","","null","resources/images/coin2.png","null","",NA,NA,NA,NA,""
"image-keyboard-response",180,158370,"0.0-4.56-0.56","jnqr7br1x8vlvx8",254,"50.csv","","326","resources/trios/L1T2A3.jpg","39","restless",0.5,0.7,0.6,0.18895053662295,"true"
"image-keyboard-response",181,158775,"0.0-4.56-1.56","jnqr7br1x8vlvx8",254,"50.csv","","null","resources/maskTrios/BBA3.jpg","null","",NA,NA,NA,NA,""
"image-keyboard-response",182,159979,"0.0-4.56-2.56","jnqr7br1x8vlvx8",254,"50.csv","","null","resources/images/coin2.png","null","",NA,NA,NA,NA,""
"image-keyboard-response",183,160032,"0.0-4.57-0.57","jnqr7br1x8vlvx8",254,"50.csv","","53","resources/trios/L1T2A3.jpg","39","restless",0.5,0.7,0.6,0.320608392385395,"true"
"image-keyboard-response",184,160440,"0.0-4.57-1.57","jnqr7br1x8vlvx8",254,"50.csv","","null","resources/maskTrios/BBA3.jpg","null","",NA,NA,NA,NA,""
"image-keyboard-response",185,161645,"0.0-4.57-2.57","jnqr7br1x8vlvx8",254,"50.csv","","null","resources/images/coin2.png","null","",NA,NA,NA,NA,""
"image-keyboard-response",186,161978,"0.0-4.58-0.58","jnqr7br1x8vlvx8",254,"50.csv","","333","resources/trios/L1T2A3.jpg","39","restless",0.5,0.7,0.6,0.642120535059583,"false"
"image-keyboard-response",187,162388,"0.0-4.58-1.58","jnqr7br1x8vlvx8",254,"50.csv","","null","resources/maskTrios/BBA3.jpg","null","",NA,NA,NA,NA,""
"image-keyboard-response",188,163593,"0.0-4.58-2.58","jnqr7br1x8vlvx8",254,"50.csv","","null","resources/images/fishbone.png","null","",NA,NA,NA,NA,""
"image-keyboard-response",189,163886,"0.0-4.59-0.59","jnqr7br1x8vlvx8",254,"50.csv","","292","resources/trios/L1T2A3.jpg","37","restless",0.5,0.7,0.6,0.747604231820242,"false"
"image-keyboard-response",190,164294,"0.0-4.59-1.59","jnqr7br1x8vlvx8",254,"50.csv","","null","resources/maskTrios/L1BB.jpg","null","",NA,NA,NA,NA,""
"image-keyboard-response",191,165495,"0.0-4.59-2.59","jnqr7br1x8vlvx8",254,"50.csv","","null","resources/images/fishbone.png","null","",NA,NA,NA,NA,""
"image-keyboard-response",192,165508,"0.0-4.60-0.60","jnqr7br1x8vlvx8",254,"50.csv","","11","resources/trios/L1T2A3.jpg","38","restless",0.5,0.7,0.6,0.109699352647107,"true"
"image-keyboard-response",193,165914,"0.0-4.60-1.60","jnqr7br1x8vlvx8",254,"50.csv","","null","resources/maskTrios/BT2B.jpg","null","",NA,NA,NA,NA,""
"image-keyboard-response",194,167122,"0.0-4.60-2.60","jnqr7br1x8vlvx8",254,"50.csv","","null","resources/images/coin2.png","null","",NA,NA,NA,NA,""
"image-keyboard-response",195,167983,"0.0-4.61-0.61","jnqr7br1x8vlvx8",254,"50.csv","","859","resources/trios/L1T2A3.jpg","38","restless",0.5,0.7,0.6,0.996837239269837,"false"
"image-keyboard-response",196,168392,"0.0-4.61-1.61","jnqr7br1x8vlvx8",254,"50.csv","","null","resources/maskTrios/BT2B.jpg","null","",NA,NA,NA,NA,""
"image-keyboard-response",197,169596,"0.0-4.61-2.61","jnqr7br1x8vlvx8",254,"50.csv","","null","resources/images/fishbone.png","null","",NA,NA,NA,NA,""
"image-keyboard-response",198,169691,"0.0-4.62-0.62","jnqr7br1x8vlvx8",254,"50.csv","","91","resources/trios/L1T2A3.jpg","39","restless",0.5,0.7,0.6,0.649072801439591,"false"
"image-keyboard-response",199,170095,"0.0-4.62-1.62","jnqr7br1x8vlvx8",254,"50.csv","","null","resources/maskTrios/BBA3.jpg","null","",NA,NA,NA,NA,""
"image-keyboard-response",200,171299,"0.0-4.62-2.62","jnqr7br1x8vlvx8",254,"50.csv","","null","resources/images/fishbone.png","null","",NA,NA,NA,NA,""
"image-keyboard-response",201,171793,"0.0-4.63-0.63","jnqr7br1x8vlvx8",254,"50.csv","","493","resources/trios/L1T2A3.jpg","37","restless",0.5,0.7,0.6,0.550073755379971,"false"
"image-keyboard-response",202,172199,"0.0-4.63-1.63","jnqr7br1x8vlvx8",254,"50.csv","","null","resources/maskTrios/L1BB.jpg","null","",NA,NA,NA,NA,""
"image-keyboard-response",203,173405,"0.0-4.63-2.63","jnqr7br1x8vlvx8",254,"50.csv","","null","resources/images/fishbone.png","null","",NA,NA,NA,NA,""
"image-keyboard-response",204,173539,"0.0-4.64-0.64","jnqr7br1x8vlvx8",254,"50.csv","","131","resources/trios/L1T2A3.jpg","38","restless",0.5,0.7,0.6,0.0215063743473364,"true"
"image-keyboard-response",205,173945,"0.0-4.64-1.64","jnqr7br1x8vlvx8",254,"50.csv","","null","resources/maskTrios/BT2B.jpg","null","",NA,NA,NA,NA,""
"image-keyboard-response",206,175152,"0.0-4.64-2.64","jnqr7br1x8vlvx8",254,"50.csv","","null","resources/images/coin2.png","null","",NA,NA,NA,NA,""
"image-keyboard-response",207,175820,"0.0-4.65-0.65","jnqr7br1x8vlvx8",254,"50.csv","","668","resources/trios/L1T2A3.jpg","38","restless",0.5,0.7,0.6,0.097586813258446,"true"
"image-keyboard-response",208,176227,"0.0-4.65-1.65","jnqr7br1x8vlvx8",254,"50.csv","","null","resources/maskTrios/BT2B.jpg","null","",NA,NA,NA,NA,""
"image-keyboard-response",209,177437,"0.0-4.65-2.65","jnqr7br1x8vlvx8",254,"50.csv","","null","resources/images/coin2.png","null","",NA,NA,NA,NA,""
"image-keyboard-response",210,177731,"0.0-4.66-0.66","jnqr7br1x8vlvx8",254,"50.csv","","292","resources/trios/L1T2A3.jpg","38","restless",0.5,0.7,0.6,0.328233575478631,"true"
"image-keyboard-response",211,178136,"0.0-4.66-1.66","jnqr7br1x8vlvx8",254,"50.csv","","null","resources/maskTrios/BT2B.jpg","null","",NA,NA,NA,NA,""
"image-keyboard-response",212,179341,"0.0-4.66-2.66","jnqr7br1x8vlvx8",254,"50.csv","","null","resources/images/coin2.png","null","",NA,NA,NA,NA,""
"image-keyboard-response",213,179625,"0.0-4.67-0.67","jnqr7br1x8vlvx8",254,"50.csv","","282","resources/trios/L1T2A3.jpg","38","restless",0.5,0.7,0.6,0.553300825794989,"true"
"image-keyboard-response",214,180028,"0.0-4.67-1.67","jnqr7br1x8vlvx8",254,"50.csv","","null","resources/maskTrios/BT2B.jpg","null","",NA,NA,NA,NA,""
"image-keyboard-response",215,181344,"0.0-4.67-2.67","jnqr7br1x8vlvx8",254,"50.csv","","null","resources/images/coin2.png","null","",NA,NA,NA,NA,""
"image-keyboard-response",216,181458,"0.0-4.68-0.68","jnqr7br1x8vlvx8",254,"50.csv","","111","resources/trios/L1T2A3.jpg","38","restless",0.5,0.7,0.6,0.591476369318311,"true"
"image-keyboard-response",217,181865,"0.0-4.68-1.68","jnqr7br1x8vlvx8",254,"50.csv","","null","resources/maskTrios/BT2B.jpg","null","",NA,NA,NA,NA,""
"image-keyboard-response",218,183070,"0.0-4.68-2.68","jnqr7br1x8vlvx8",254,"50.csv","","null","resources/images/coin2.png","null","",NA,NA,NA,NA,""
"image-keyboard-response",219,183405,"0.0-4.69-0.69","jnqr7br1x8vlvx8",254,"50.csv","","333","resources/trios/L1T2A3.jpg","38","restless",0.5,0.7,0.6,0.131125424277597,"true"
"image-keyboard-response",220,183811,"0.0-4.69-1.69","jnqr7br1x8vlvx8",254,"50.csv","","null","resources/maskTrios/BT2B.jpg","null","",NA,NA,NA,NA,""
"image-keyboard-response",221,185016,"0.0-4.69-2.69","jnqr7br1x8vlvx8",254,"50.csv","","null","resources/images/coin2.png","null","",NA,NA,NA,NA,""
"image-keyboard-response",222,185306,"0.0-4.70-0.70","jnqr7br1x8vlvx8",254,"50.csv","","288","resources/trios/L1T2A3.jpg","38","restless",0.4,0.7,0.6,0.464201985320946,"true"
"image-keyboard-response",223,185715,"0.0-4.70-1.70","jnqr7br1x8vlvx8",254,"50.csv","","null","resources/maskTrios/BT2B.jpg","null","",NA,NA,NA,NA,""
"image-keyboard-response",224,186922,"0.0-4.70-2.70","jnqr7br1x8vlvx8",254,"50.csv","","null","resources/images/coin2.png","null","",NA,NA,NA,NA,""
"image-keyboard-response",225,187206,"0.0-4.71-0.71","jnqr7br1x8vlvx8",254,"50.csv","","283","resources/trios/L1T2A3.jpg","38","restless",0.4,0.7,0.6,0.412001198290192,"true"
"image-keyboard-response",226,187612,"0.0-4.71-1.71","jnqr7br1x8vlvx8",254,"50.csv","","null","resources/maskTrios/BT2B.jpg","null","",NA,NA,NA,NA,""
"image-keyboard-response",227,188822,"0.0-4.71-2.71","jnqr7br1x8vlvx8",254,"50.csv","","null","resources/images/coin2.png","null","",NA,NA,NA,NA,""
"image-keyboard-response",228,188975,"0.0-4.72-0.72","jnqr7br1x8vlvx8",254,"50.csv","","152","resources/trios/L1T2A3.jpg","38","restless",0.3,0.7,0.6,0.608348573911182,"true"
"image-keyboard-response",229,189383,"0.0-4.72-1.72","jnqr7br1x8vlvx8",254,"50.csv","","null","resources/maskTrios/BT2B.jpg","null","",NA,NA,NA,NA,""
"image-keyboard-response",230,190584,"0.0-4.72-2.72","jnqr7br1x8vlvx8",254,"50.csv","","null","resources/images/coin2.png","null","",NA,NA,NA,NA,""
"image-keyboard-response",231,190820,"0.0-4.73-0.73","jnqr7br1x8vlvx8",254,"50.csv","","234","resources/trios/L1T2A3.jpg","38","restless",0.3,0.7,0.6,0.13730471970347,"true"
"image-keyboard-response",232,191224,"0.0-4.73-1.73","jnqr7br1x8vlvx8",254,"50.csv","","null","resources/maskTrios/BT2B.jpg","null","",NA,NA,NA,NA,""
"image-keyboard-response",233,192434,"0.0-4.73-2.73","jnqr7br1x8vlvx8",254,"50.csv","","null","resources/images/coin2.png","null","",NA,NA,NA,NA,""
"image-keyboard-response",234,192647,"0.0-4.74-0.74","jnqr7br1x8vlvx8",254,"50.csv","","212","resources/trios/L1T2A3.jpg","38","restless",0.3,0.7,0.6,0.699870183860676,"true"
"image-keyboard-response",235,193052,"0.0-4.74-1.74","jnqr7br1x8vlvx8",254,"50.csv","","null","resources/maskTrios/BT2B.jpg","null","",NA,NA,NA,NA,""
"image-keyboard-response",236,194255,"0.0-4.74-2.74","jnqr7br1x8vlvx8",254,"50.csv","","null","resources/images/coin2.png","null","",NA,NA,NA,NA,""
"image-keyboard-response",237,194611,"0.0-4.75-0.75","jnqr7br1x8vlvx8",254,"50.csv","","354","resources/trios/L1T2A3.jpg","38","restless",0.3,0.7,0.6,0.0706289673166881,"true"
"image-keyboard-response",238,195060,"0.0-4.75-1.75","jnqr7br1x8vlvx8",254,"50.csv","","null","resources/maskTrios/BT2B.jpg","null","",NA,NA,NA,NA,""
"image-keyboard-response",239,196270,"0.0-4.75-2.75","jnqr7br1x8vlvx8",254,"50.csv","","null","resources/images/coin2.png","null","",NA,NA,NA,NA,""
"image-keyboard-response",240,196582,"0.0-4.76-0.76","jnqr7br1x8vlvx8",254,"50.csv","","311","resources/trios/L1T2A3.jpg","38","restless",0.3,0.7,0.6,0.0240290005386111,"true"
"image-keyboard-response",241,196985,"0.0-4.76-1.76","jnqr7br1x8vlvx8",254,"50.csv","","null","resources/maskTrios/BT2B.jpg","null","",NA,NA,NA,NA,""
"image-keyboard-response",242,198196,"0.0-4.76-2.76","jnqr7br1x8vlvx8",254,"50.csv","","null","resources/images/coin2.png","null","",NA,NA,NA,NA,""
"image-keyboard-response",243,198456,"0.0-4.77-0.77","jnqr7br1x8vlvx8",254,"50.csv","","259","resources/trios/L1T2A3.jpg","38","restless",0.3,0.7,0.6,0.248716415604984,"true"
"image-keyboard-response",244,198858,"0.0-4.77-1.77","jnqr7br1x8vlvx8",254,"50.csv","","null","resources/maskTrios/BT2B.jpg","null","",NA,NA,NA,NA,""
"image-keyboard-response",245,200068,"0.0-4.77-2.77","jnqr7br1x8vlvx8",254,"50.csv","","null","resources/images/coin2.png","null","",NA,NA,NA,NA,""
"image-keyboard-response",246,200360,"0.0-4.78-0.78","jnqr7br1x8vlvx8",254,"50.csv","","290","resources/trios/L1T2A3.jpg","38","restless",0.3,0.8,0.6,0.264728997557563,"true"
"image-keyboard-response",247,200763,"0.0-4.78-1.78","jnqr7br1x8vlvx8",254,"50.csv","","null","resources/maskTrios/BT2B.jpg","null","",NA,NA,NA,NA,""
"image-keyboard-response",248,201975,"0.0-4.78-2.78","jnqr7br1x8vlvx8",254,"50.csv","","null","resources/images/coin2.png","null","",NA,NA,NA,NA,""
"image-keyboard-response",249,202287,"0.0-4.79-0.79","jnqr7br1x8vlvx8",254,"50.csv","","311","resources/trios/L1T2A3.jpg","38","restless",0.3,0.8,0.6,0.965761185217264,"false"
"image-keyboard-response",250,202690,"0.0-4.79-1.79","jnqr7br1x8vlvx8",254,"50.csv","","null","resources/maskTrios/BT2B.jpg","null","",NA,NA,NA,NA,""
"image-keyboard-response",251,203979,"0.0-4.79-2.79","jnqr7br1x8vlvx8",254,"50.csv","","null","resources/images/fishbone.png","null","",NA,NA,NA,NA,""
"image-keyboard-response",252,204245,"0.0-4.80-0.80","jnqr7br1x8vlvx8",254,"50.csv","","264","resources/trios/L1T2A3.jpg","39","restless",0.3,0.8,0.6,0.670708625721422,"false"
"image-keyboard-response",253,204649,"0.0-4.80-1.80","jnqr7br1x8vlvx8",254,"50.csv","","null","resources/maskTrios/BBA3.jpg","null","",NA,NA,NA,NA,""
"image-keyboard-response",254,205991,"0.0-4.80-2.80","jnqr7br1x8vlvx8",254,"50.csv","","null","resources/images/fishbone.png","null","",NA,NA,NA,NA,""
"image-keyboard-response",255,206314,"0.0-4.81-0.81","jnqr7br1x8vlvx8",254,"50.csv","","323","resources/trios/L1T2A3.jpg","37","restless",0.3,0.8,0.6,0.408583810109143,"false"
"image-keyboard-response",256,206717,"0.0-4.81-1.81","jnqr7br1x8vlvx8",254,"50.csv","","null","resources/maskTrios/L1BB.jpg","null","",NA,NA,NA,NA,""
"image-keyboard-response",257,208003,"0.0-4.81-2.81","jnqr7br1x8vlvx8",254,"50.csv","","null","resources/images/fishbone.png","null","",NA,NA,NA,NA,""
"image-keyboard-response",258,208307,"0.0-4.82-0.82","jnqr7br1x8vlvx8",254,"50.csv","","301","resources/trios/L1T2A3.jpg","38","restless",0.4,0.8,0.6,0.195393428350743,"true"
"image-keyboard-response",259,208709,"0.0-4.82-1.82","jnqr7br1x8vlvx8",254,"50.csv","","null","resources/maskTrios/BT2B.jpg","null","",NA,NA,NA,NA,""
"image-keyboard-response",260,210020,"0.0-4.82-2.82","jnqr7br1x8vlvx8",254,"50.csv","","null","resources/images/coin2.png","null","",NA,NA,NA,NA,""
"image-keyboard-response",261,210156,"0.0-4.83-0.83","jnqr7br1x8vlvx8",254,"50.csv","","134","resources/trios/L1T2A3.jpg","38","restless",0.4,0.8,0.6,0.777993308653767,"true"
"image-keyboard-response",262,210559,"0.0-4.83-1.83","jnqr7br1x8vlvx8",254,"50.csv","","null","resources/maskTrios/BT2B.jpg","null","",NA,NA,NA,NA,""
"image-keyboard-response",263,211771,"0.0-4.83-2.83","jnqr7br1x8vlvx8",254,"50.csv","","null","resources/images/coin2.png","null","",NA,NA,NA,NA,""
"image-keyboard-response",264,211852,"0.0-4.84-0.84","jnqr7br1x8vlvx8",254,"50.csv","","79","resources/trios/L1T2A3.jpg","38","restless",0.4,0.8,0.6,0.436348980671907,"true"
"image-keyboard-response",265,212258,"0.0-4.84-1.84","jnqr7br1x8vlvx8",254,"50.csv","","null","resources/maskTrios/BT2B.jpg","null","",NA,NA,NA,NA,""
"image-keyboard-response",266,213460,"0.0-4.84-2.84","jnqr7br1x8vlvx8",254,"50.csv","","null","resources/images/coin2.png","null","",NA,NA,NA,NA,""
"image-keyboard-response",267,213772,"0.0-4.85-0.85","jnqr7br1x8vlvx8",254,"50.csv","","310","resources/trios/L1T2A3.jpg","38","restless",0.5,0.8,0.6,0.566018364242916,"true"
"image-keyboard-response",268,214175,"0.0-4.85-1.85","jnqr7br1x8vlvx8",254,"50.csv","","null","resources/maskTrios/BT2B.jpg","null","",NA,NA,NA,NA,""
"image-keyboard-response",269,215378,"0.0-4.85-2.85","jnqr7br1x8vlvx8",254,"50.csv","","null","resources/images/coin2.png","null","",NA,NA,NA,NA,""
"image-keyboard-response",270,215659,"0.0-4.86-0.86","jnqr7br1x8vlvx8",254,"50.csv","","279","resources/trios/L1T2A3.jpg","38","restless",0.5,0.8,0.5,0.902460211079863,"false"
"image-keyboard-response",271,216071,"0.0-4.86-1.86","jnqr7br1x8vlvx8",254,"50.csv","","null","resources/maskTrios/BT2B.jpg","null","",NA,NA,NA,NA,""
"image-keyboard-response",272,217383,"0.0-4.86-2.86","jnqr7br1x8vlvx8",254,"50.csv","","null","resources/images/fishbone.png","null","",NA,NA,NA,NA,""
"image-keyboard-response",273,217848,"0.0-4.87-0.87","jnqr7br1x8vlvx8",254,"50.csv","","465","resources/trios/L1T2A3.jpg","38","restless",0.5,0.8,0.4,0.660710449626391,"true"
"image-keyboard-response",274,218252,"0.0-4.87-1.87","jnqr7br1x8vlvx8",254,"50.csv","","null","resources/maskTrios/BT2B.jpg","null","",NA,NA,NA,NA,""
"image-keyboard-response",275,219461,"0.0-4.87-2.87","jnqr7br1x8vlvx8",254,"50.csv","","null","resources/images/coin2.png","null","",NA,NA,NA,NA,""
"image-keyboard-response",276,219545,"0.0-4.88-0.88","jnqr7br1x8vlvx8",254,"50.csv","","82","resources/trios/L1T2A3.jpg","38","restless",0.5,0.8,0.4,0.678016644562577,"true"
"image-keyboard-response",277,219961,"0.0-4.88-1.88","jnqr7br1x8vlvx8",254,"50.csv","","null","resources/maskTrios/BT2B.jpg","null","",NA,NA,NA,NA,""
"image-keyboard-response",278,221165,"0.0-4.88-2.88","jnqr7br1x8vlvx8",254,"50.csv","","null","resources/images/coin2.png","null","",NA,NA,NA,NA,""
"image-keyboard-response",279,221237,"0.0-4.89-0.89","jnqr7br1x8vlvx8",254,"50.csv","","70","resources/trios/L1T2A3.jpg","38","restless",0.5,0.8,0.4,0.884394388720635,"false"
"image-keyboard-response",280,221648,"0.0-4.89-1.89","jnqr7br1x8vlvx8",254,"50.csv","","null","resources/maskTrios/BT2B.jpg","null","",NA,NA,NA,NA,""
"image-keyboard-response",281,222865,"0.0-4.89-2.89","jnqr7br1x8vlvx8",254,"50.csv","","null","resources/images/fishbone.png","null","",NA,NA,NA,NA,""
"image-keyboard-response",282,223320,"0.0-4.90-0.90","jnqr7br1x8vlvx8",254,"50.csv","","454","resources/trios/L1T2A3.jpg","38","restless",0.5,0.8,0.4,0.536654411567207,"true"
"image-keyboard-response",283,223726,"0.0-4.90-1.90","jnqr7br1x8vlvx8",254,"50.csv","","null","resources/maskTrios/BT2B.jpg","null","",NA,NA,NA,NA,""
"image-keyboard-response",284,224942,"0.0-4.90-2.90","jnqr7br1x8vlvx8",254,"50.csv","","null","resources/images/coin2.png","null","",NA,NA,NA,NA,""
"image-keyboard-response",285,225146,"0.0-4.91-0.91","jnqr7br1x8vlvx8",254,"50.csv","","203","resources/trios/L1T2A3.jpg","38","restless",0.5,0.8,0.3,0.752053460076403,"true"
"image-keyboard-response",286,225555,"0.0-4.91-1.91","jnqr7br1x8vlvx8",254,"50.csv","","null","resources/maskTrios/BT2B.jpg","null","",NA,NA,NA,NA,""
"image-keyboard-response",287,226767,"0.0-4.91-2.91","jnqr7br1x8vlvx8",254,"50.csv","","null","resources/images/coin2.png","null","",NA,NA,NA,NA,""
"image-keyboard-response",288,227085,"0.0-4.92-0.92","jnqr7br1x8vlvx8",254,"50.csv","","316","resources/trios/L1T2A3.jpg","38","restless",0.5,0.8,0.3,0.528470114246033,"true"
"image-keyboard-response",289,227491,"0.0-4.92-1.92","jnqr7br1x8vlvx8",254,"50.csv","","null","resources/maskTrios/BT2B.jpg","null","",NA,NA,NA,NA,""
"image-keyboard-response",290,228708,"0.0-4.92-2.92","jnqr7br1x8vlvx8",254,"50.csv","","null","resources/images/coin2.png","null","",NA,NA,NA,NA,""
"image-keyboard-response",291,228877,"0.0-4.93-0.93","jnqr7br1x8vlvx8",254,"50.csv","","168","resources/trios/L1T2A3.jpg","38","restless",0.4,0.8,0.3,0.80823526234724,"false"
"image-keyboard-response",292,229290,"0.0-4.93-1.93","jnqr7br1x8vlvx8",254,"50.csv","","null","resources/maskTrios/BT2B.jpg","null","",NA,NA,NA,NA,""
"image-keyboard-response",293,230494,"0.0-4.93-2.93","jnqr7br1x8vlvx8",254,"50.csv","","null","resources/images/fishbone.png","null","",NA,NA,NA,NA,""
"image-keyboard-response",294,230669,"0.0-4.94-0.94","jnqr7br1x8vlvx8",254,"50.csv","","173","resources/trios/L1T2A3.jpg","38","restless",0.4,0.8,0.3,0.944297744292599,"false"
"image-keyboard-response",295,231074,"0.0-4.94-1.94","jnqr7br1x8vlvx8",254,"50.csv","","null","resources/maskTrios/BT2B.jpg","null","",NA,NA,NA,NA,""
"image-keyboard-response",296,232275,"0.0-4.94-2.94","jnqr7br1x8vlvx8",254,"50.csv","","null","resources/images/fishbone.png","null","",NA,NA,NA,NA,""
"image-keyboard-response",297,232601,"0.0-4.95-0.95","jnqr7br1x8vlvx8",254,"50.csv","","324","resources/trios/L1T2A3.jpg","37","restless",0.4,0.8,0.3,0.639116700073923,"false"
"image-keyboard-response",298,233014,"0.0-4.95-1.95","jnqr7br1x8vlvx8",254,"50.csv","","null","resources/maskTrios/L1BB.jpg","null","",NA,NA,NA,NA,""
"image-keyboard-response",299,234224,"0.0-4.95-2.95","jnqr7br1x8vlvx8",254,"50.csv","","null","resources/images/fishbone.png","null","",NA,NA,NA,NA,""
"image-keyboard-response",300,234515,"0.0-4.96-0.96","jnqr7br1x8vlvx8",254,"50.csv","","291","resources/trios/L1T2A3.jpg","39","restless",0.4,0.8,0.3,0.00650299247827313,"true"
"image-keyboard-response",301,234924,"0.0-4.96-1.96","jnqr7br1x8vlvx8",254,"50.csv","","null","resources/maskTrios/BBA3.jpg","null","",NA,NA,NA,NA,""
"image-keyboard-response",302,236139,"0.0-4.96-2.96","jnqr7br1x8vlvx8",254,"50.csv","","null","resources/images/coin2.png","null","",NA,NA,NA,NA,""
"image-keyboard-response",303,236267,"0.0-4.97-0.97","jnqr7br1x8vlvx8",254,"50.csv","","127","resources/trios/L1T2A3.jpg","39","restless",0.4,0.8,0.3,0.758132953119056,"false"
"image-keyboard-response",304,236675,"0.0-4.97-1.97","jnqr7br1x8vlvx8",254,"50.csv","","null","resources/maskTrios/BBA3.jpg","null","",NA,NA,NA,NA,""
"image-keyboard-response",305,237881,"0.0-4.97-2.97","jnqr7br1x8vlvx8",254,"50.csv","","null","resources/images/fishbone.png","null","",NA,NA,NA,NA,""
"image-keyboard-response",306,238136,"0.0-4.98-0.98","jnqr7br1x8vlvx8",254,"50.csv","","254","resources/trios/L1T2A3.jpg","39","restless",0.4,0.8,0.3,0.0460262786024218,"true"
"image-keyboard-response",307,238546,"0.0-4.98-1.98","jnqr7br1x8vlvx8",254,"50.csv","","null","resources/maskTrios/BBA3.jpg","null","",NA,NA,NA,NA,""
"image-keyboard-response",308,239749,"0.0-4.98-2.98","jnqr7br1x8vlvx8",254,"50.csv","","null","resources/images/coin2.png","null","",NA,NA,NA,NA,""
"image-keyboard-response",309,239845,"0.0-4.99-0.99","jnqr7br1x8vlvx8",254,"50.csv","","95","resources/trios/L1T2A3.jpg","39","restless",0.4,0.8,0.3,0.3620842736712,"false"
"image-keyboard-response",310,240248,"0.0-4.99-1.99","jnqr7br1x8vlvx8",254,"50.csv","","null","resources/maskTrios/BBA3.jpg","null","",NA,NA,NA,NA,""
"image-keyboard-response",311,241450,"0.0-4.99-2.99","jnqr7br1x8vlvx8",254,"50.csv","","null","resources/images/fishbone.png","null","",NA,NA,NA,NA,""
"image-keyboard-response",312,241741,"0.0-4.100-0.100","jnqr7br1x8vlvx8",254,"50.csv","","289","resources/trios/L1T2A3.jpg","37","restless",0.4,0.8,0.3,0.380129818741953,"true"
"image-keyboard-response",313,242149,"0.0-4.100-1.100","jnqr7br1x8vlvx8",254,"50.csv","","null","resources/maskTrios/L1BB.jpg","null","",NA,NA,NA,NA,""
"image-keyboard-response",314,243457,"0.0-4.100-2.100","jnqr7br1x8vlvx8",254,"50.csv","","null","resources/images/coin2.png","null","",NA,NA,NA,NA,""
"image-keyboard-response",315,243477,"0.0-4.101-0.101","jnqr7br1x8vlvx8",254,"50.csv","","18","resources/trios/L1T2A3.jpg","37","restless",0.4,0.8,0.3,0.719408306892929,"false"
"image-keyboard-response",316,243879,"0.0-4.101-1.101","jnqr7br1x8vlvx8",254,"50.csv","","null","resources/maskTrios/L1BB.jpg","null","",NA,NA,NA,NA,""
"image-keyboard-response",317,245090,"0.0-4.101-2.101","jnqr7br1x8vlvx8",254,"50.csv","","null","resources/images/fishbone.png","null","",NA,NA,NA,NA,""
"image-keyboard-response",318,245395,"0.0-4.102-0.102","jnqr7br1x8vlvx8",254,"50.csv","","303","resources/trios/L1T2A3.jpg","37","restless",0.4,0.8,0.3,0.602483477987571,"false"
"image-keyboard-response",319,245809,"0.0-4.102-1.102","jnqr7br1x8vlvx8",254,"50.csv","","null","resources/maskTrios/L1BB.jpg","null","",NA,NA,NA,NA,""
"image-keyboard-response",320,247016,"0.0-4.102-2.102","jnqr7br1x8vlvx8",254,"50.csv","","null","resources/images/fishbone.png","null","",NA,NA,NA,NA,""
"image-keyboard-response",321,247253,"0.0-4.103-0.103","jnqr7br1x8vlvx8",254,"50.csv","","235","resources/trios/L1T2A3.jpg","39","restless",0.4,0.8,0.3,0.651773878141738,"false"
"image-keyboard-response",322,247654,"0.0-4.103-1.103","jnqr7br1x8vlvx8",254,"50.csv","","null","resources/maskTrios/BBA3.jpg","null","",NA,NA,NA,NA,""
"image-keyboard-response",323,248856,"0.0-4.103-2.103","jnqr7br1x8vlvx8",254,"50.csv","","null","resources/images/fishbone.png","null","",NA,NA,NA,NA,""
"image-keyboard-response",324,249148,"0.0-4.104-0.104","jnqr7br1x8vlvx8",254,"50.csv","","290","resources/trios/L1T2A3.jpg","38","restless",0.4,0.8,0.4,0.200781159094559,"true"
"image-keyboard-response",325,249550,"0.0-4.104-1.104","jnqr7br1x8vlvx8",254,"50.csv","","null","resources/maskTrios/BT2B.jpg","null","",NA,NA,NA,NA,""
"image-keyboard-response",326,250754,"0.0-4.104-2.104","jnqr7br1x8vlvx8",254,"50.csv","","null","resources/images/coin2.png","null","",NA,NA,NA,NA,""
"image-keyboard-response",327,250822,"0.0-4.105-0.105","jnqr7br1x8vlvx8",254,"50.csv","","67","resources/trios/L1T2A3.jpg","38","restless",0.4,0.9,0.3,0.880499959465232,"true"
"image-keyboard-response",328,251232,"0.0-4.105-1.105","jnqr7br1x8vlvx8",254,"50.csv","","null","resources/maskTrios/BT2B.jpg","null","",NA,NA,NA,NA,""
"image-keyboard-response",329,252448,"0.0-4.105-2.105","jnqr7br1x8vlvx8",254,"50.csv","","null","resources/images/coin2.png","null","",NA,NA,NA,NA,""
"image-keyboard-response",330,252528,"0.0-4.106-0.106","jnqr7br1x8vlvx8",254,"50.csv","","78","resources/trios/L1T2A3.jpg","38","restless",0.4,0.9,0.3,0.491100532001976,"true"
"image-keyboard-response",331,252939,"0.0-4.106-1.106","jnqr7br1x8vlvx8",254,"50.csv","","null","resources/maskTrios/BT2B.jpg","null","",NA,NA,NA,NA,""
"image-keyboard-response",332,254149,"0.0-4.106-2.106","jnqr7br1x8vlvx8",254,"50.csv","","null","resources/images/coin2.png","null","",NA,NA,NA,NA,""
"image-keyboard-response",333,254323,"0.0-4.107-0.107","jnqr7br1x8vlvx8",254,"50.csv","","172","resources/trios/L1T2A3.jpg","38","restless",0.4,0.9,0.3,0.495133544730624,"true"
"image-keyboard-response",334,254726,"0.0-4.107-1.107","jnqr7br1x8vlvx8",254,"50.csv","","null","resources/maskTrios/BT2B.jpg","null","",NA,NA,NA,NA,""
"image-keyboard-response",335,255937,"0.0-4.107-2.107","jnqr7br1x8vlvx8",254,"50.csv","","null","resources/images/coin2.png","null","",NA,NA,NA,NA,""
"image-keyboard-response",336,256025,"0.0-4.108-0.108","jnqr7br1x8vlvx8",254,"50.csv","","86","resources/trios/L1T2A3.jpg","38","restless",0.4,0.9,0.3,0.668158463141209,"true"
"image-keyboard-response",337,256429,"0.0-4.108-1.108","jnqr7br1x8vlvx8",254,"50.csv","","null","resources/maskTrios/BT2B.jpg","null","",NA,NA,NA,NA,""
"image-keyboard-response",338,257647,"0.0-4.108-2.108","jnqr7br1x8vlvx8",254,"50.csv","","null","resources/images/coin2.png","null","",NA,NA,NA,NA,""
"image-keyboard-response",339,257795,"0.0-4.109-0.109","jnqr7br1x8vlvx8",254,"50.csv","","147","resources/trios/L1T2A3.jpg","38","restless",0.4,0.9,0.3,0.948247577678588,"false"
"image-keyboard-response",340,258220,"0.0-4.109-1.109","jnqr7br1x8vlvx8",254,"50.csv","","null","resources/maskTrios/BT2B.jpg","null","",NA,NA,NA,NA,""
"image-keyboard-response",341,259429,"0.0-4.109-2.109","jnqr7br1x8vlvx8",254,"50.csv","","null","resources/images/fishbone.png","null","",NA,NA,NA,NA,""
"image-keyboard-response",342,259679,"0.0-4.110-0.110","jnqr7br1x8vlvx8",254,"50.csv","","247","resources/trios/L1T2A3.jpg","38","restless",0.4,0.9,0.3,0.838418635200409,"true"
"image-keyboard-response",343,260080,"0.0-4.110-1.110","jnqr7br1x8vlvx8",254,"50.csv","","null","resources/maskTrios/BT2B.jpg","null","",NA,NA,NA,NA,""
"image-keyboard-response",344,261289,"0.0-4.110-2.110","jnqr7br1x8vlvx8",254,"50.csv","","null","resources/images/coin2.png","null","",NA,NA,NA,NA,""
"image-keyboard-response",345,261328,"0.0-4.111-0.111","jnqr7br1x8vlvx8",254,"50.csv","","38","resources/trios/L1T2A3.jpg","38","restless",0.4,0.9,0.3,0.320395407686768,"true"
"image-keyboard-response",346,261729,"0.0-4.111-1.111","jnqr7br1x8vlvx8",254,"50.csv","","null","resources/maskTrios/BT2B.jpg","null","",NA,NA,NA,NA,""
"image-keyboard-response",347,262934,"0.0-4.111-2.111","jnqr7br1x8vlvx8",254,"50.csv","","null","resources/images/coin2.png","null","",NA,NA,NA,NA,""
"image-keyboard-response",348,263296,"0.0-4.112-0.112","jnqr7br1x8vlvx8",254,"50.csv","","361","resources/trios/L1T2A3.jpg","38","restless",0.4,0.9,0.3,0.692651248100241,"true"
"image-keyboard-response",349,263708,"0.0-4.112-1.112","jnqr7br1x8vlvx8",254,"50.csv","","null","resources/maskTrios/BT2B.jpg","null","",NA,NA,NA,NA,""
"image-keyboard-response",350,264943,"0.0-4.112-2.112","jnqr7br1x8vlvx8",254,"50.csv","","null","resources/images/coin2.png","null","",NA,NA,NA,NA,""
"image-keyboard-response",351,265102,"0.0-4.113-0.113","jnqr7br1x8vlvx8",254,"50.csv","","158","resources/trios/L1T2A3.jpg","38","restless",0.4,0.9,0.3,0.236079965059851,"true"
"image-keyboard-response",352,265504,"0.0-4.113-1.113","jnqr7br1x8vlvx8",254,"50.csv","","null","resources/maskTrios/BT2B.jpg","null","",NA,NA,NA,NA,""
"image-keyboard-response",353,266722,"0.0-4.113-2.113","jnqr7br1x8vlvx8",254,"50.csv","","null","resources/images/coin2.png","null","",NA,NA,NA,NA,""
"image-keyboard-response",354,266784,"0.0-4.114-0.114","jnqr7br1x8vlvx8",254,"50.csv","","62","resources/trios/L1T2A3.jpg","38","restless",0.4,0.9,0.3,0.506768550493078,"true"
"image-keyboard-response",355,267185,"0.0-4.114-1.114","jnqr7br1x8vlvx8",254,"50.csv","","null","resources/maskTrios/BT2B.jpg","null","",NA,NA,NA,NA,""
"image-keyboard-response",356,268390,"0.0-4.114-2.114","jnqr7br1x8vlvx8",254,"50.csv","","null","resources/images/coin2.png","null","",NA,NA,NA,NA,""
"image-keyboard-response",357,268392,"0.0-4.115-0.115","jnqr7br1x8vlvx8",254,"50.csv","","1","resources/trios/L1T2A3.jpg","38","restless",0.4,0.9,0.3,0.839562262631795,"true"
"image-keyboard-response",358,268796,"0.0-4.115-1.115","jnqr7br1x8vlvx8",254,"50.csv","","null","resources/maskTrios/BT2B.jpg","null","",NA,NA,NA,NA,""
"image-keyboard-response",359,270000,"0.0-4.115-2.115","jnqr7br1x8vlvx8",254,"50.csv","","null","resources/images/coin2.png","null","",NA,NA,NA,NA,""
"image-keyboard-response",360,270081,"0.0-4.116-0.116","jnqr7br1x8vlvx8",254,"50.csv","","81","resources/trios/L1T2A3.jpg","38","restless",0.4,0.9,0.4,0.894514387819853,"true"
"image-keyboard-response",361,270483,"0.0-4.116-1.116","jnqr7br1x8vlvx8",254,"50.csv","","null","resources/maskTrios/BT2B.jpg","null","",NA,NA,NA,NA,""
"image-keyboard-response",362,271690,"0.0-4.116-2.116","jnqr7br1x8vlvx8",254,"50.csv","","null","resources/images/coin2.png","null","",NA,NA,NA,NA,""
"image-keyboard-response",363,271754,"0.0-4.117-0.117","jnqr7br1x8vlvx8",254,"50.csv","","62","resources/trios/L1T2A3.jpg","38","restless",0.4,0.9,0.4,0.990164148896052,"false"
"image-keyboard-response",364,272159,"0.0-4.117-1.117","jnqr7br1x8vlvx8",254,"50.csv","","null","resources/maskTrios/BT2B.jpg","null","",NA,NA,NA,NA,""
"image-keyboard-response",365,273367,"0.0-4.117-2.117","jnqr7br1x8vlvx8",254,"50.csv","","null","resources/images/fishbone.png","null","",NA,NA,NA,NA,""
"image-keyboard-response",366,273638,"0.0-4.118-0.118","jnqr7br1x8vlvx8",254,"50.csv","","269","resources/trios/L1T2A3.jpg","38","restless",0.4,0.9,0.4,0.250657448311018,"true"
"image-keyboard-response",367,274090,"0.0-4.118-1.118","jnqr7br1x8vlvx8",254,"50.csv","","null","resources/maskTrios/BT2B.jpg","null","",NA,NA,NA,NA,""
"image-keyboard-response",368,275387,"0.0-4.118-2.118","jnqr7br1x8vlvx8",254,"50.csv","","null","resources/images/coin2.png","null","",NA,NA,NA,NA,""
"image-keyboard-response",369,275509,"0.0-4.119-0.119","jnqr7br1x8vlvx8",254,"50.csv","","120","resources/trios/L1T2A3.jpg","38","restless",0.3,0.9,0.4,0.31767145997598,"true"
"image-keyboard-response",370,275913,"0.0-4.119-1.119","jnqr7br1x8vlvx8",254,"50.csv","","null","resources/maskTrios/BT2B.jpg","null","",NA,NA,NA,NA,""
"image-keyboard-response",371,277117,"0.0-4.119-2.119","jnqr7br1x8vlvx8",254,"50.csv","","null","resources/images/coin2.png","null","",NA,NA,NA,NA,""
"image-keyboard-response",372,277301,"0.0-4.120-0.120","jnqr7br1x8vlvx8",254,"50.csv","","183","resources/trios/L1T2A3.jpg","38","restless",0.3,0.9,0.4,0.53858788678092,"true"
"image-keyboard-response",373,277702,"0.0-4.120-1.120","jnqr7br1x8vlvx8",254,"50.csv","","null","resources/maskTrios/BT2B.jpg","null","",NA,NA,NA,NA,""
"image-keyboard-response",374,278915,"0.0-4.120-2.120","jnqr7br1x8vlvx8",254,"50.csv","","null","resources/images/coin2.png","null","",NA,NA,NA,NA,""
"image-keyboard-response",375,279706,"0.0-4.121-0.121","jnqr7br1x8vlvx8",254,"50.csv","","790","resources/trios/L1T2A3.jpg","38","restless",0.3,0.9,0.4,0.449964644211688,"true"
"image-keyboard-response",376,280119,"0.0-4.121-1.121","jnqr7br1x8vlvx8",254,"50.csv","","null","resources/maskTrios/BT2B.jpg","null","",NA,NA,NA,NA,""
"image-keyboard-response",377,281331,"0.0-4.121-2.121","jnqr7br1x8vlvx8",254,"50.csv","","null","resources/images/coin2.png","null","",NA,NA,NA,NA,""
"image-keyboard-response",378,281400,"0.0-4.122-0.122","jnqr7br1x8vlvx8",254,"50.csv","","67","resources/trios/L1T2A3.jpg","38","restless",0.3,0.9,0.5,0.462177789439442,"true"
"image-keyboard-response",379,281807,"0.0-4.122-1.122","jnqr7br1x8vlvx8",254,"50.csv","","null","resources/maskTrios/BT2B.jpg","null","",NA,NA,NA,NA,""
"image-keyboard-response",380,283016,"0.0-4.122-2.122","jnqr7br1x8vlvx8",254,"50.csv","","null","resources/images/coin2.png","null","",NA,NA,NA,NA,""
"image-keyboard-response",381,283203,"0.0-4.123-0.123","jnqr7br1x8vlvx8",254,"50.csv","","186","resources/trios/L1T2A3.jpg","38","restless",0.3,0.9,0.5,0.24521621662183,"true"
"image-keyboard-response",382,283605,"0.0-4.123-1.123","jnqr7br1x8vlvx8",254,"50.csv","","null","resources/maskTrios/BT2B.jpg","null","",NA,NA,NA,NA,""
"image-keyboard-response",383,284807,"0.0-4.123-2.123","jnqr7br1x8vlvx8",254,"50.csv","","null","resources/images/coin2.png","null","",NA,NA,NA,NA,""
"image-keyboard-response",384,284900,"0.0-4.124-0.124","jnqr7br1x8vlvx8",254,"50.csv","","92","resources/trios/L1T2A3.jpg","38","restless",0.2,0.9,0.5,0.638642055398309,"true"
"image-keyboard-response",385,285309,"0.0-4.124-1.124","jnqr7br1x8vlvx8",254,"50.csv","","null","resources/maskTrios/BT2B.jpg","null","",NA,NA,NA,NA,""
"image-keyboard-response",386,286513,"0.0-4.124-2.124","jnqr7br1x8vlvx8",254,"50.csv","","null","resources/images/coin2.png","null","",NA,NA,NA,NA,""
"image-keyboard-response",387,286595,"0.0-4.125-0.125","jnqr7br1x8vlvx8",254,"50.csv","","81","resources/trios/L1T2A3.jpg","38","restless",0.2,0.9,0.5,0.712456847527262,"true"
"image-keyboard-response",388,287001,"0.0-4.125-1.125","jnqr7br1x8vlvx8",254,"50.csv","","null","resources/maskTrios/BT2B.jpg","null","",NA,NA,NA,NA,""
"image-keyboard-response",389,288206,"0.0-4.125-2.125","jnqr7br1x8vlvx8",254,"50.csv","","null","resources/images/coin2.png","null","",NA,NA,NA,NA,""
"image-keyboard-response",390,288428,"0.0-4.126-0.126","jnqr7br1x8vlvx8",254,"50.csv","","222","resources/trios/L1T2A3.jpg","38","restless",0.2,0.9,0.4,0.230513166211628,"true"
"image-keyboard-response",391,288832,"0.0-4.126-1.126","jnqr7br1x8vlvx8",254,"50.csv","","null","resources/maskTrios/BT2B.jpg","null","",NA,NA,NA,NA,""
"image-keyboard-response",392,290048,"0.0-4.126-2.126","jnqr7br1x8vlvx8",254,"50.csv","","null","resources/images/coin2.png","null","",NA,NA,NA,NA,""
"image-keyboard-response",393,290066,"0.0-4.127-0.127","jnqr7br1x8vlvx8",254,"50.csv","","17","resources/trios/L1T2A3.jpg","38","restless",0.3,0.9,0.5,0.215076781833086,"true"
"image-keyboard-response",394,290472,"0.0-4.127-1.127","jnqr7br1x8vlvx8",254,"50.csv","","null","resources/maskTrios/BT2B.jpg","null","",NA,NA,NA,NA,""
"image-keyboard-response",395,291674,"0.0-4.127-2.127","jnqr7br1x8vlvx8",254,"50.csv","","null","resources/images/coin2.png","null","",NA,NA,NA,NA,""
"image-keyboard-response",396,291876,"0.0-4.128-0.128","jnqr7br1x8vlvx8",254,"50.csv","","200","resources/trios/L1T2A3.jpg","38","restless",0.3,0.9,0.5,0.946806806212259,"false"
"image-keyboard-response",397,292287,"0.0-4.128-1.128","jnqr7br1x8vlvx8",254,"50.csv","","null","resources/maskTrios/BT2B.jpg","null","",NA,NA,NA,NA,""
"image-keyboard-response",398,293500,"0.0-4.128-2.128","jnqr7br1x8vlvx8",254,"50.csv","","null","resources/images/fishbone.png","null","",NA,NA,NA,NA,""
"image-keyboard-response",399,293569,"0.0-4.129-0.129","jnqr7br1x8vlvx8",254,"50.csv","","67","resources/trios/L1T2A3.jpg","38","restless",0.3,0.8,0.5,0.972746730596595,"false"
"image-keyboard-response",400,293974,"0.0-4.129-1.129","jnqr7br1x8vlvx8",254,"50.csv","","null","resources/maskTrios/BT2B.jpg","null","",NA,NA,NA,NA,""
"image-keyboard-response",401,295188,"0.0-4.129-2.129","jnqr7br1x8vlvx8",254,"50.csv","","null","resources/images/fishbone.png","null","",NA,NA,NA,NA,""
"image-keyboard-response",402,295276,"0.0-4.130-0.130","jnqr7br1x8vlvx8",254,"50.csv","","87","resources/trios/L1T2A3.jpg","37","restless",0.3,0.8,0.5,0.477640902029825,"false"
"image-keyboard-response",403,295686,"0.0-4.130-1.130","jnqr7br1x8vlvx8",254,"50.csv","","null","resources/maskTrios/L1BB.jpg","null","",NA,NA,NA,NA,""
"image-keyboard-response",404,296897,"0.0-4.130-2.130","jnqr7br1x8vlvx8",254,"50.csv","","null","resources/images/fishbone.png","null","",NA,NA,NA,NA,""
"image-keyboard-response",405,296944,"0.0-4.131-0.131","jnqr7br1x8vlvx8",254,"50.csv","","46","resources/trios/L1T2A3.jpg","39","restless",0.3,0.8,0.5,0.653460773639689,"false"
"image-keyboard-response",406,297361,"0.0-4.131-1.131","jnqr7br1x8vlvx8",254,"50.csv","","null","resources/maskTrios/BBA3.jpg","null","",NA,NA,NA,NA,""
"image-keyboard-response",407,298578,"0.0-4.131-2.131","jnqr7br1x8vlvx8",254,"50.csv","","null","resources/images/fishbone.png","null","",NA,NA,NA,NA,""
"image-keyboard-response",408,298704,"0.0-4.132-0.132","jnqr7br1x8vlvx8",254,"50.csv","","125","resources/trios/L1T2A3.jpg","38","restless",0.3,0.8,0.5,0.472036074938751,"true"
"image-keyboard-response",409,299116,"0.0-4.132-1.132","jnqr7br1x8vlvx8",254,"50.csv","","null","resources/maskTrios/BT2B.jpg","null","",NA,NA,NA,NA,""
"image-keyboard-response",410,300321,"0.0-4.132-2.132","jnqr7br1x8vlvx8",254,"50.csv","","null","resources/images/coin2.png","null","",NA,NA,NA,NA,""
"image-keyboard-response",411,300470,"0.0-4.133-0.133","jnqr7br1x8vlvx8",254,"50.csv","","148","resources/trios/L1T2A3.jpg","38","restless",0.3,0.8,0.5,0.732961645568595,"true"
"image-keyboard-response",412,300880,"0.0-4.133-1.133","jnqr7br1x8vlvx8",254,"50.csv","","null","resources/maskTrios/BT2B.jpg","null","",NA,NA,NA,NA,""
"image-keyboard-response",413,302090,"0.0-4.133-2.133","jnqr7br1x8vlvx8",254,"50.csv","","null","resources/images/coin2.png","null","",NA,NA,NA,NA,""
"image-keyboard-response",414,302187,"0.0-4.134-0.134","jnqr7br1x8vlvx8",254,"50.csv","","96","resources/trios/L1T2A3.jpg","38","restless",0.2,0.8,0.5,0.854135232690556,"false"
"image-keyboard-response",415,302591,"0.0-4.134-1.134","jnqr7br1x8vlvx8",254,"50.csv","","null","resources/maskTrios/BT2B.jpg","null","",NA,NA,NA,NA,""
"image-keyboard-response",416,303821,"0.0-4.134-2.134","jnqr7br1x8vlvx8",254,"50.csv","","null","resources/images/fishbone.png","null","",NA,NA,NA,NA,""
"image-keyboard-response",417,304187,"0.0-4.135-0.135","jnqr7br1x8vlvx8",254,"50.csv","","365","resources/trios/L1T2A3.jpg","38","restless",0.2,0.8,0.5,0.0813665707839887,"true"
"image-keyboard-response",418,304595,"0.0-4.135-1.135","jnqr7br1x8vlvx8",254,"50.csv","","null","resources/maskTrios/BT2B.jpg","null","",NA,NA,NA,NA,""
"image-keyboard-response",419,305840,"0.0-4.135-2.135","jnqr7br1x8vlvx8",254,"50.csv","","null","resources/images/coin2.png","null","",NA,NA,NA,NA,""
"image-keyboard-response",420,305860,"0.0-4.136-0.136","jnqr7br1x8vlvx8",254,"50.csv","","18","resources/trios/L1T2A3.jpg","38","restless",0.2,0.8,0.5,0.851507670689669,"false"
"image-keyboard-response",421,306265,"0.0-4.136-1.136","jnqr7br1x8vlvx8",254,"50.csv","","null","resources/maskTrios/BT2B.jpg","null","",NA,NA,NA,NA,""
"image-keyboard-response",422,307478,"0.0-4.136-2.136","jnqr7br1x8vlvx8",254,"50.csv","","null","resources/images/fishbone.png","null","",NA,NA,NA,NA,""
"image-keyboard-response",423,307718,"0.0-4.137-0.137","jnqr7br1x8vlvx8",254,"50.csv","","239","resources/trios/L1T2A3.jpg","38","restless",0.2,0.8,0.5,0.271559332811881,"true"
"image-keyboard-response",424,308121,"0.0-4.137-1.137","jnqr7br1x8vlvx8",254,"50.csv","","null","resources/maskTrios/BT2B.jpg","null","",NA,NA,NA,NA,""
"image-keyboard-response",425,309326,"0.0-4.137-2.137","jnqr7br1x8vlvx8",254,"50.csv","","null","resources/images/coin2.png","null","",NA,NA,NA,NA,""
"image-keyboard-response",426,309503,"0.0-4.138-0.138","jnqr7br1x8vlvx8",254,"50.csv","","177","resources/trios/L1T2A3.jpg","38","restless",0.2,0.8,0.5,0.546387256486835,"true"
"image-keyboard-response",427,309918,"0.0-4.138-1.138","jnqr7br1x8vlvx8",254,"50.csv","","null","resources/maskTrios/BT2B.jpg","null","",NA,NA,NA,NA,""
"image-keyboard-response",428,311124,"0.0-4.138-2.138","jnqr7br1x8vlvx8",254,"50.csv","","null","resources/images/coin2.png","null","",NA,NA,NA,NA,""
"image-keyboard-response",429,311219,"0.0-4.139-0.139","jnqr7br1x8vlvx8",254,"50.csv","","95","resources/trios/L1T2A3.jpg","38","restless",0.3,0.8,0.5,0.757813916112569,"true"
"image-keyboard-response",430,311626,"0.0-4.139-1.139","jnqr7br1x8vlvx8",254,"50.csv","","null","resources/maskTrios/BT2B.jpg","null","",NA,NA,NA,NA,""
"image-keyboard-response",431,312836,"0.0-4.139-2.139","jnqr7br1x8vlvx8",254,"50.csv","","null","resources/images/coin2.png","null","",NA,NA,NA,NA,""
"image-keyboard-response",432,312911,"0.0-4.140-0.140","jnqr7br1x8vlvx8",254,"50.csv","","72","resources/trios/L1T2A3.jpg","38","restless",0.3,0.8,0.5,0.983303499307051,"false"
"image-keyboard-response",433,313323,"0.0-4.140-1.140","jnqr7br1x8vlvx8",254,"50.csv","","null","resources/maskTrios/BT2B.jpg","null","",NA,NA,NA,NA,""
"image-keyboard-response",434,314531,"0.0-4.140-2.140","jnqr7br1x8vlvx8",254,"50.csv","","null","resources/images/fishbone.png","null","",NA,NA,NA,NA,""
"image-keyboard-response",435,314746,"0.0-4.141-0.141","jnqr7br1x8vlvx8",254,"50.csv","","212","resources/trios/L1T2A3.jpg","38","restless",0.3,0.8,0.5,0.0731468440386962,"true"
"image-keyboard-response",436,315150,"0.0-4.141-1.141","jnqr7br1x8vlvx8",254,"50.csv","","null","resources/maskTrios/BT2B.jpg","null","",NA,NA,NA,NA,""
"image-keyboard-response",437,316355,"0.0-4.141-2.141","jnqr7br1x8vlvx8",254,"50.csv","","null","resources/images/coin2.png","null","",NA,NA,NA,NA,""
"image-keyboard-response",438,316416,"0.0-4.142-0.142","jnqr7br1x8vlvx8",254,"50.csv","","60","resources/trios/L1T2A3.jpg","38","restless",0.3,0.8,0.4,0.340058515797285,"true"
"image-keyboard-response",439,316821,"0.0-4.142-1.142","jnqr7br1x8vlvx8",254,"50.csv","","null","resources/maskTrios/BT2B.jpg","null","",NA,NA,NA,NA,""
"image-keyboard-response",440,318028,"0.0-4.142-2.142","jnqr7br1x8vlvx8",254,"50.csv","","null","resources/images/coin2.png","null","",NA,NA,NA,NA,""
"image-keyboard-response",441,318219,"0.0-4.143-0.143","jnqr7br1x8vlvx8",254,"50.csv","","190","resources/trios/L1T2A3.jpg","38","restless",0.3,0.8,0.4,0.954187901984431,"false"
"image-keyboard-response",442,318658,"0.0-4.143-1.143","jnqr7br1x8vlvx8",254,"50.csv","","null","resources/maskTrios/BT2B.jpg","null","",NA,NA,NA,NA,""
"image-keyboard-response",443,319859,"0.0-4.143-2.143","jnqr7br1x8vlvx8",254,"50.csv","","null","resources/images/fishbone.png","null","",NA,NA,NA,NA,""
"image-keyboard-response",444,319939,"0.0-4.144-0.144","jnqr7br1x8vlvx8",254,"50.csv","","78","resources/trios/L1T2A3.jpg","38","restless",0.3,0.8,0.4,0.19540732658188,"true"
"image-keyboard-response",445,320343,"0.0-4.144-1.144","jnqr7br1x8vlvx8",254,"50.csv","","null","resources/maskTrios/BT2B.jpg","null","",NA,NA,NA,NA,""
"image-keyboard-response",446,321554,"0.0-4.144-2.144","jnqr7br1x8vlvx8",254,"50.csv","","null","resources/images/coin2.png","null","",NA,NA,NA,NA,""
"image-keyboard-response",447,321612,"0.0-4.145-0.145","jnqr7br1x8vlvx8",254,"50.csv","","55","resources/trios/L1T2A3.jpg","38","restless",0.3,0.9,0.5,0.469434320594302,"true"
"image-keyboard-response",448,322013,"0.0-4.145-1.145","jnqr7br1x8vlvx8",254,"50.csv","","null","resources/maskTrios/BT2B.jpg","null","",NA,NA,NA,NA,""
"image-keyboard-response",449,323215,"0.0-4.145-2.145","jnqr7br1x8vlvx8",254,"50.csv","","null","resources/images/coin2.png","null","",NA,NA,NA,NA,""
"image-keyboard-response",450,323307,"0.0-4.146-0.146","jnqr7br1x8vlvx8",254,"50.csv","","92","resources/trios/L1T2A3.jpg","38","restless",0.3,0.9,0.5,0.910156860113433,"false"
"image-keyboard-response",451,323719,"0.0-4.146-1.146","jnqr7br1x8vlvx8",254,"50.csv","","null","resources/maskTrios/BT2B.jpg","null","",NA,NA,NA,NA,""
"image-keyboard-response",452,324930,"0.0-4.146-2.146","jnqr7br1x8vlvx8",254,"50.csv","","null","resources/images/fishbone.png","null","",NA,NA,NA,NA,""
"image-keyboard-response",453,325275,"0.0-4.147-0.147","jnqr7br1x8vlvx8",254,"50.csv","","345","resources/trios/L1T2A3.jpg","38","restless",0.3,0.9,0.5,0.831266811435851,"true"
"image-keyboard-response",454,325678,"0.0-4.147-1.147","jnqr7br1x8vlvx8",254,"50.csv","","null","resources/maskTrios/BT2B.jpg","null","",NA,NA,NA,NA,""
"image-keyboard-response",455,326890,"0.0-4.147-2.147","jnqr7br1x8vlvx8",254,"50.csv","","null","resources/images/coin2.png","null","",NA,NA,NA,NA,""
"image-keyboard-response",456,327411,"0.0-4.148-0.148","jnqr7br1x8vlvx8",254,"50.csv","","520","resources/trios/L1T2A3.jpg","38","restless",0.3,0.9,0.5,0.989096357395311,"false"
"image-keyboard-response",457,327813,"0.0-4.148-1.148","jnqr7br1x8vlvx8",254,"50.csv","","null","resources/maskTrios/BT2B.jpg","null","",NA,NA,NA,NA,""
"image-keyboard-response",458,329016,"0.0-4.148-2.148","jnqr7br1x8vlvx8",254,"50.csv","","null","resources/images/fishbone.png","null","",NA,NA,NA,NA,""
"image-keyboard-response",459,330257,"0.0-4.149-0.149","jnqr7br1x8vlvx8",254,"50.csv","","1240","resources/trios/L1T2A3.jpg","38","restless",0.3,0.9,0.5,0.83336850204991,"true"
"image-keyboard-response",460,330659,"0.0-4.149-1.149","jnqr7br1x8vlvx8",254,"50.csv","","null","resources/maskTrios/BT2B.jpg","null","",NA,NA,NA,NA,""
"image-keyboard-response",461,331870,"0.0-4.149-2.149","jnqr7br1x8vlvx8",254,"50.csv","","null","resources/images/coin2.png","null","",NA,NA,NA,NA,""
"image-keyboard-response",462,333471,"0.0-4.150-0.150","jnqr7br1x8vlvx8",254,"50.csv","","1599","resources/trios/L1T2A3.jpg","38","restless",0.4,0.9,0.5,0.621243735126883,"true"
"image-keyboard-response",463,333873,"0.0-4.150-1.150","jnqr7br1x8vlvx8",254,"50.csv","","null","resources/maskTrios/BT2B.jpg","null","",NA,NA,NA,NA,""
"image-keyboard-response",464,335085,"0.0-4.150-2.150","jnqr7br1x8vlvx8",254,"50.csv","","null","resources/images/coin2.png","null","",NA,NA,NA,NA,""
"image-keyboard-response",465,335143,"0.0-4.151-0.151","jnqr7br1x8vlvx8",254,"50.csv","","57","resources/trios/L1T2A3.jpg","38","restless",0.4,0.9,0.5,0.174884068327336,"true"
"image-keyboard-response",466,335549,"0.0-4.151-1.151","jnqr7br1x8vlvx8",254,"50.csv","","null","resources/maskTrios/BT2B.jpg","null","",NA,NA,NA,NA,""
"image-keyboard-response",467,336872,"0.0-4.151-2.151","jnqr7br1x8vlvx8",254,"50.csv","","null","resources/images/coin2.png","null","",NA,NA,NA,NA,""
"image-keyboard-response",468,337000,"0.0-4.152-0.152","jnqr7br1x8vlvx8",254,"50.csv","","127","resources/trios/L1T2A3.jpg","38","restless",0.4,0.9,0.5,0.0299150536360816,"true"
"image-keyboard-response",469,337405,"0.0-4.152-1.152","jnqr7br1x8vlvx8",254,"50.csv","","null","resources/maskTrios/BT2B.jpg","null","",NA,NA,NA,NA,""
"image-keyboard-response",470,338608,"0.0-4.152-2.152","jnqr7br1x8vlvx8",254,"50.csv","","null","resources/images/coin2.png","null","",NA,NA,NA,NA,""
"image-keyboard-response",471,338750,"0.0-4.153-0.153","jnqr7br1x8vlvx8",254,"50.csv","","140","resources/trios/L1T2A3.jpg","38","restless",0.4,0.8,0.5,0.681824171773183,"true"
"image-keyboard-response",472,339162,"0.0-4.153-1.153","jnqr7br1x8vlvx8",254,"50.csv","","null","resources/maskTrios/BT2B.jpg","null","",NA,NA,NA,NA,""
"image-keyboard-response",473,340367,"0.0-4.153-2.153","jnqr7br1x8vlvx8",254,"50.csv","","null","resources/images/coin2.png","null","",NA,NA,NA,NA,""
"image-keyboard-response",474,340372,"0.0-4.154-0.154","jnqr7br1x8vlvx8",254,"50.csv","","3","resources/trios/L1T2A3.jpg","38","restless",0.5,0.8,0.5,0.88682684202721,"false"
"image-keyboard-response",475,340780,"0.0-4.154-1.154","jnqr7br1x8vlvx8",254,"50.csv","","null","resources/maskTrios/BT2B.jpg","null","",NA,NA,NA,NA,""
"image-keyboard-response",476,341989,"0.0-4.154-2.154","jnqr7br1x8vlvx8",254,"50.csv","","null","resources/images/fishbone.png","null","",NA,NA,NA,NA,""
"image-keyboard-response",477,342178,"0.0-4.155-0.155","jnqr7br1x8vlvx8",254,"50.csv","","187","resources/trios/L1T2A3.jpg","39","restless",0.5,0.8,0.5,0.451380180555258,"true"
"image-keyboard-response",478,342592,"0.0-4.155-1.155","jnqr7br1x8vlvx8",254,"50.csv","","null","resources/maskTrios/BBA3.jpg","null","",NA,NA,NA,NA,""
"image-keyboard-response",479,343880,"0.0-4.155-2.155","jnqr7br1x8vlvx8",254,"50.csv","","null","resources/images/coin2.png","null","",NA,NA,NA,NA,""
"image-keyboard-response",480,343948,"0.0-4.156-0.156","jnqr7br1x8vlvx8",254,"50.csv","","65","resources/trios/L1T2A3.jpg","39","restless",0.5,0.8,0.5,0.289982832645167,"true"
"image-keyboard-response",481,344349,"0.0-4.156-1.156","jnqr7br1x8vlvx8",254,"50.csv","","null","resources/maskTrios/BBA3.jpg","null","",NA,NA,NA,NA,""
"image-keyboard-response",482,345554,"0.0-4.156-2.156","jnqr7br1x8vlvx8",254,"50.csv","","null","resources/images/coin2.png","null","",NA,NA,NA,NA,""
"image-keyboard-response",483,345559,"0.0-4.157-0.157","jnqr7br1x8vlvx8",254,"50.csv","","2","resources/trios/L1T2A3.jpg","39","restless",0.5,0.8,0.5,0.863646296544422,"false"
"image-keyboard-response",484,345965,"0.0-4.157-1.157","jnqr7br1x8vlvx8",254,"50.csv","","null","resources/maskTrios/BBA3.jpg","null","",NA,NA,NA,NA,""
"image-keyboard-response",485,347170,"0.0-4.157-2.157","jnqr7br1x8vlvx8",254,"50.csv","","null","resources/images/fishbone.png","null","",NA,NA,NA,NA,""
"image-keyboard-response",486,347409,"0.0-4.158-0.158","jnqr7br1x8vlvx8",254,"50.csv","","238","resources/trios/L1T2A3.jpg","39","restless",0.5,0.8,0.5,0.432889305570811,"true"
"image-keyboard-response",487,347822,"0.0-4.158-1.158","jnqr7br1x8vlvx8",254,"50.csv","","null","resources/maskTrios/BBA3.jpg","null","",NA,NA,NA,NA,""
"image-keyboard-response",488,349032,"0.0-4.158-2.158","jnqr7br1x8vlvx8",254,"50.csv","","null","resources/images/coin2.png","null","",NA,NA,NA,NA,""
"image-keyboard-response",489,349140,"0.0-4.159-0.159","jnqr7br1x8vlvx8",254,"50.csv","","106","resources/trios/L1T2A3.jpg","39","restless",0.5,0.8,0.5,0.571818834356746,"false"
"image-keyboard-response",490,349547,"0.0-4.159-1.159","jnqr7br1x8vlvx8",254,"50.csv","","null","resources/maskTrios/BBA3.jpg","null","",NA,NA,NA,NA,""
"image-keyboard-response",491,350749,"0.0-4.159-2.159","jnqr7br1x8vlvx8",254,"50.csv","","null","resources/images/fishbone.png","null","",NA,NA,NA,NA,""
"image-keyboard-response",492,351095,"0.0-4.160-0.160","jnqr7br1x8vlvx8",254,"50.csv","","344","resources/trios/L1T2A3.jpg","37","restless",0.4,0.8,0.5,0.690988272540419,"false"
"image-keyboard-response",493,351498,"0.0-4.160-1.160","jnqr7br1x8vlvx8",254,"50.csv","","null","resources/maskTrios/L1BB.jpg","null","",NA,NA,NA,NA,""
"image-keyboard-response",494,352714,"0.0-4.160-2.160","jnqr7br1x8vlvx8",254,"50.csv","","null","resources/images/fishbone.png","null","",NA,NA,NA,NA,""
"image-keyboard-response",495,353002,"0.0-4.161-0.161","jnqr7br1x8vlvx8",254,"50.csv","","287","resources/trios/L1T2A3.jpg","39","restless",0.4,0.8,0.5,0.795544857841869,"false"
"image-keyboard-response",496,353406,"0.0-4.161-1.161","jnqr7br1x8vlvx8",254,"50.csv","","null","resources/maskTrios/BBA3.jpg","null","",NA,NA,NA,NA,""
"image-keyboard-response",497,354616,"0.0-4.161-2.161","jnqr7br1x8vlvx8",254,"50.csv","","null","resources/images/fishbone.png","null","",NA,NA,NA,NA,""
"image-keyboard-response",498,354822,"0.0-4.162-0.162","jnqr7br1x8vlvx8",254,"50.csv","","204","resources/trios/L1T2A3.jpg","39","restless",0.4,0.8,0.5,0.122290081133933,"true"
"image-keyboard-response",499,355230,"0.0-4.162-1.162","jnqr7br1x8vlvx8",254,"50.csv","","null","resources/maskTrios/BBA3.jpg","null","",NA,NA,NA,NA,""
"image-keyboard-response",500,356444,"0.0-4.162-2.162","jnqr7br1x8vlvx8",254,"50.csv","","null","resources/images/coin2.png","null","",NA,NA,NA,NA,""
"image-keyboard-response",501,356766,"0.0-4.163-0.163","jnqr7br1x8vlvx8",254,"50.csv","","321","resources/trios/L1T2A3.jpg","39","restless",0.4,0.8,0.5,0.836441594011607,"false"
"image-keyboard-response",502,357186,"0.0-4.163-1.163","jnqr7br1x8vlvx8",254,"50.csv","","null","resources/maskTrios/BBA3.jpg","null","",NA,NA,NA,NA,""
"image-keyboard-response",503,358402,"0.0-4.163-2.163","jnqr7br1x8vlvx8",254,"50.csv","","null","resources/images/fishbone.png","null","",NA,NA,NA,NA,""
"image-keyboard-response",504,358723,"0.0-4.164-0.164","jnqr7br1x8vlvx8",254,"50.csv","","320","resources/trios/L1T2A3.jpg","39","restless",0.4,0.8,0.5,0.441141240770977,"true"
"image-keyboard-response",505,359129,"0.0-4.164-1.164","jnqr7br1x8vlvx8",254,"50.csv","","null","resources/maskTrios/BBA3.jpg","null","",NA,NA,NA,NA,""
"image-keyboard-response",506,360345,"0.0-4.164-2.164","jnqr7br1x8vlvx8",254,"50.csv","","null","resources/images/coin2.png","null","",NA,NA,NA,NA,""
"image-keyboard-response",507,360732,"0.0-4.165-0.165","jnqr7br1x8vlvx8",254,"50.csv","","385","resources/trios/L1T2A3.jpg","39","restless",0.4,0.8,0.5,0.0732732431127004,"true"
"image-keyboard-response",508,361148,"0.0-4.165-1.165","jnqr7br1x8vlvx8",254,"50.csv","","null","resources/maskTrios/BBA3.jpg","null","",NA,NA,NA,NA,""
"image-keyboard-response",509,362353,"0.0-4.165-2.165","jnqr7br1x8vlvx8",254,"50.csv","","null","resources/images/coin2.png","null","",NA,NA,NA,NA,""
"image-keyboard-response",510,362718,"0.0-4.166-0.166","jnqr7br1x8vlvx8",254,"50.csv","","364","resources/trios/L1T2A3.jpg","39","restless",0.4,0.8,0.5,0.989798240767003,"false"
"image-keyboard-response",511,363121,"0.0-4.166-1.166","jnqr7br1x8vlvx8",254,"50.csv","","null","resources/maskTrios/BBA3.jpg","null","",NA,NA,NA,NA,""
"image-keyboard-response",512,364324,"0.0-4.166-2.166","jnqr7br1x8vlvx8",254,"50.csv","","null","resources/images/fishbone.png","null","",NA,NA,NA,NA,""
"image-keyboard-response",513,364560,"0.0-4.167-0.167","jnqr7br1x8vlvx8",254,"50.csv","","234","resources/trios/L1T2A3.jpg","38","restless",0.4,0.7,0.5,0.437792803686078,"true"
"image-keyboard-response",514,364968,"0.0-4.167-1.167","jnqr7br1x8vlvx8",254,"50.csv","","null","resources/maskTrios/BT2B.jpg","null","",NA,NA,NA,NA,""
"image-keyboard-response",515,366180,"0.0-4.167-2.167","jnqr7br1x8vlvx8",254,"50.csv","","null","resources/images/coin2.png","null","",NA,NA,NA,NA,""
"image-keyboard-response",516,366335,"0.0-4.168-0.168","jnqr7br1x8vlvx8",254,"50.csv","","154","resources/trios/L1T2A3.jpg","38","restless",0.4,0.7,0.5,0.846862455168344,"false"
"image-keyboard-response",517,366738,"0.0-4.168-1.168","jnqr7br1x8vlvx8",254,"50.csv","","null","resources/maskTrios/BT2B.jpg","null","",NA,NA,NA,NA,""
"image-keyboard-response",518,367952,"0.0-4.168-2.168","jnqr7br1x8vlvx8",254,"50.csv","","null","resources/images/fishbone.png","null","",NA,NA,NA,NA,""
"image-keyboard-response",519,368040,"0.0-4.169-0.169","jnqr7br1x8vlvx8",254,"50.csv","","85","resources/trios/L1T2A3.jpg","38","restless",0.4,0.7,0.5,0.730785308173363,"false"
"image-keyboard-response",520,368455,"0.0-4.169-1.169","jnqr7br1x8vlvx8",254,"50.csv","","null","resources/maskTrios/BT2B.jpg","null","",NA,NA,NA,NA,""
"image-keyboard-response",521,369663,"0.0-4.169-2.169","jnqr7br1x8vlvx8",254,"50.csv","","null","resources/images/fishbone.png","null","",NA,NA,NA,NA,""
"image-keyboard-response",522,369838,"0.0-4.170-0.170","jnqr7br1x8vlvx8",254,"50.csv","","173","resources/trios/L1T2A3.jpg","39","restless",0.4,0.7,0.5,0.225304773513375,"true"
"image-keyboard-response",523,370246,"0.0-4.170-1.170","jnqr7br1x8vlvx8",254,"50.csv","","null","resources/maskTrios/BBA3.jpg","null","",NA,NA,NA,NA,""
"image-keyboard-response",524,371460,"0.0-4.170-2.170","jnqr7br1x8vlvx8",254,"50.csv","","null","resources/images/coin2.png","null","",NA,NA,NA,NA,""
"image-keyboard-response",525,371511,"0.0-4.171-0.171","jnqr7br1x8vlvx8",254,"50.csv","","50","resources/trios/L1T2A3.jpg","39","restless",0.4,0.7,0.5,0.23814800029701,"true"
"image-keyboard-response",526,371917,"0.0-4.171-1.171","jnqr7br1x8vlvx8",254,"50.csv","","null","resources/maskTrios/BBA3.jpg","null","",NA,NA,NA,NA,""
"image-keyboard-response",527,373121,"0.0-4.171-2.171","jnqr7br1x8vlvx8",254,"50.csv","","null","resources/images/coin2.png","null","",NA,NA,NA,NA,""
"image-keyboard-response",528,373258,"0.0-4.172-0.172","jnqr7br1x8vlvx8",254,"50.csv","","135","resources/trios/L1T2A3.jpg","39","restless",0.4,0.6,0.5,0.576229001461375,"false"
"image-keyboard-response",529,373659,"0.0-4.172-1.172","jnqr7br1x8vlvx8",254,"50.csv","","null","resources/maskTrios/BBA3.jpg","null","",NA,NA,NA,NA,""
"image-keyboard-response",530,374876,"0.0-4.172-2.172","jnqr7br1x8vlvx8",254,"50.csv","","null","resources/images/fishbone.png","null","",NA,NA,NA,NA,""
"image-keyboard-response",531,374983,"0.0-4.173-0.173","jnqr7br1x8vlvx8",254,"50.csv","","104","resources/trios/L1T2A3.jpg","39","restless",0.4,0.6,0.5,0.798916277783742,"false"
"image-keyboard-response",532,375399,"0.0-4.173-1.173","jnqr7br1x8vlvx8",254,"50.csv","","null","resources/maskTrios/BBA3.jpg","null","",NA,NA,NA,NA,""
"image-keyboard-response",533,376614,"0.0-4.173-2.173","jnqr7br1x8vlvx8",254,"50.csv","","null","resources/images/fishbone.png","null","",NA,NA,NA,NA,""
"image-keyboard-response",534,376727,"0.0-4.174-0.174","jnqr7br1x8vlvx8",254,"50.csv","","111","resources/trios/L1T2A3.jpg","37","restless",0.4,0.6,0.5,0.423227165513426,"false"
"image-keyboard-response",535,377142,"0.0-4.174-1.174","jnqr7br1x8vlvx8",254,"50.csv","","null","resources/maskTrios/L1BB.jpg","null","",NA,NA,NA,NA,""
"image-keyboard-response",536,378351,"0.0-4.174-2.174","jnqr7br1x8vlvx8",254,"50.csv","","null","resources/images/fishbone.png","null","",NA,NA,NA,NA,""
"image-keyboard-response",537,378433,"0.0-4.175-0.175","jnqr7br1x8vlvx8",254,"50.csv","","80","resources/trios/L1T2A3.jpg","37","restless",0.3,0.6,0.4,0.398692177272229,"false"
"image-keyboard-response",538,378834,"0.0-4.175-1.175","jnqr7br1x8vlvx8",254,"50.csv","","null","resources/maskTrios/L1BB.jpg","null","",NA,NA,NA,NA,""
"image-keyboard-response",539,380051,"0.0-4.175-2.175","jnqr7br1x8vlvx8",254,"50.csv","","null","resources/images/fishbone.png","null","",NA,NA,NA,NA,""
"image-keyboard-response",540,380444,"0.0-4.176-0.176","jnqr7br1x8vlvx8",254,"50.csv","","391","resources/trios/L1T2A3.jpg","37","restless",0.4,0.6,0.4,0.955375096128638,"false"
"image-keyboard-response",541,380858,"0.0-4.176-1.176","jnqr7br1x8vlvx8",254,"50.csv","","null","resources/maskTrios/L1BB.jpg","null","",NA,NA,NA,NA,""
"image-keyboard-response",542,382066,"0.0-4.176-2.176","jnqr7br1x8vlvx8",254,"50.csv","","null","resources/images/fishbone.png","null","",NA,NA,NA,NA,""
"image-keyboard-response",543,382266,"0.0-4.177-0.177","jnqr7br1x8vlvx8",254,"50.csv","","199","resources/trios/L1T2A3.jpg","38","restless",0.5,0.6,0.4,0.920386506707484,"false"
"image-keyboard-response",544,382668,"0.0-4.177-1.177","jnqr7br1x8vlvx8",254,"50.csv","","null","resources/maskTrios/BT2B.jpg","null","",NA,NA,NA,NA,""
"image-keyboard-response",545,383873,"0.0-4.177-2.177","jnqr7br1x8vlvx8",254,"50.csv","","null","resources/images/fishbone.png","null","",NA,NA,NA,NA,""
"image-keyboard-response",546,384013,"0.0-4.178-0.178","jnqr7br1x8vlvx8",254,"50.csv","","140","resources/trios/L1T2A3.jpg","38","restless",0.5,0.6,0.4,0.476541469655148,"true"
"image-keyboard-response",547,384419,"0.0-4.178-1.178","jnqr7br1x8vlvx8",254,"50.csv","","null","resources/maskTrios/BT2B.jpg","null","",NA,NA,NA,NA,""
"image-keyboard-response",548,385630,"0.0-4.178-2.178","jnqr7br1x8vlvx8",254,"50.csv","","null","resources/images/coin2.png","null","",NA,NA,NA,NA,""
"image-keyboard-response",549,385634,"0.0-4.179-0.179","jnqr7br1x8vlvx8",254,"50.csv","","2","resources/trios/L1T2A3.jpg","38","restless",0.5,0.6,0.4,0.358684368039745,"true"
"image-keyboard-response",550,386047,"0.0-4.179-1.179","jnqr7br1x8vlvx8",254,"50.csv","","null","resources/maskTrios/BT2B.jpg","null","",NA,NA,NA,NA,""
"image-keyboard-response",551,387253,"0.0-4.179-2.179","jnqr7br1x8vlvx8",254,"50.csv","","null","resources/images/coin2.png","null","",NA,NA,NA,NA,""
"image-keyboard-response",552,387327,"0.0-4.180-0.180","jnqr7br1x8vlvx8",254,"50.csv","","75","resources/trios/L1T2A3.jpg","38","restless",0.5,0.6,0.5,0.844591232157197,"false"
"image-keyboard-response",553,387730,"0.0-4.180-1.180","jnqr7br1x8vlvx8",254,"50.csv","","null","resources/maskTrios/BT2B.jpg","null","",NA,NA,NA,NA,""
"image-keyboard-response",554,388940,"0.0-4.180-2.180","jnqr7br1x8vlvx8",254,"50.csv","","null","resources/images/fishbone.png","null","",NA,NA,NA,NA,""
"image-keyboard-response",555,388966,"0.0-4.181-0.181","jnqr7br1x8vlvx8",254,"50.csv","","23","resources/trios/L1T2A3.jpg","38","restless",0.5,0.5,0.4,0.433402612133376,"true"
"image-keyboard-response",556,389370,"0.0-4.181-1.181","jnqr7br1x8vlvx8",254,"50.csv","","null","resources/maskTrios/BT2B.jpg","null","",NA,NA,NA,NA,""
"image-keyboard-response",557,390578,"0.0-4.181-2.181","jnqr7br1x8vlvx8",254,"50.csv","","null","resources/images/coin2.png","null","",NA,NA,NA,NA,""
"image-keyboard-response",558,390730,"0.0-4.182-0.182","jnqr7br1x8vlvx8",254,"50.csv","","150","resources/trios/L1T2A3.jpg","38","restless",0.5,0.5,0.4,0.18169117014436,"true"
"image-keyboard-response",559,391180,"0.0-4.182-1.182","jnqr7br1x8vlvx8",254,"50.csv","","null","resources/maskTrios/BT2B.jpg","null","",NA,NA,NA,NA,""
"image-keyboard-response",560,392385,"0.0-4.182-2.182","jnqr7br1x8vlvx8",254,"50.csv","","null","resources/images/coin2.png","null","",NA,NA,NA,NA,""
"image-keyboard-response",561,392538,"0.0-4.183-0.183","jnqr7br1x8vlvx8",254,"50.csv","","150","resources/trios/L1T2A3.jpg","38","restless",0.5,0.4,0.4,0.642365064644648,"false"
"image-keyboard-response",562,392950,"0.0-4.183-1.183","jnqr7br1x8vlvx8",254,"50.csv","","null","resources/maskTrios/BT2B.jpg","null","",NA,NA,NA,NA,""
"image-keyboard-response",563,394160,"0.0-4.183-2.183","jnqr7br1x8vlvx8",254,"50.csv","","null","resources/images/fishbone.png","null","",NA,NA,NA,NA,""
"image-keyboard-response",564,394364,"0.0-4.184-0.184","jnqr7br1x8vlvx8",254,"50.csv","","202","resources/trios/L1T2A3.jpg","38","restless",0.6,0.4,0.4,0.155989562506783,"true"
"image-keyboard-response",565,394772,"0.0-4.184-1.184","jnqr7br1x8vlvx8",254,"50.csv","","null","resources/maskTrios/BT2B.jpg","null","",NA,NA,NA,NA,""
"image-keyboard-response",566,395983,"0.0-4.184-2.184","jnqr7br1x8vlvx8",254,"50.csv","","null","resources/images/coin2.png","null","",NA,NA,NA,NA,""
"image-keyboard-response",567,396288,"0.0-4.185-0.185","jnqr7br1x8vlvx8",254,"50.csv","","303","resources/trios/L1T2A3.jpg","38","restless",0.7,0.4,0.4,0.666823908587791,"false"
"image-keyboard-response",568,396699,"0.0-4.185-1.185","jnqr7br1x8vlvx8",254,"50.csv","","null","resources/maskTrios/BT2B.jpg","null","",NA,NA,NA,NA,""
"image-keyboard-response",569,397907,"0.0-4.185-2.185","jnqr7br1x8vlvx8",254,"50.csv","","null","resources/images/fishbone.png","null","",NA,NA,NA,NA,""
"image-keyboard-response",570,398760,"0.0-4.186-0.186","jnqr7br1x8vlvx8",254,"50.csv","","851","resources/trios/L1T2A3.jpg","38","restless",0.7,0.4,0.4,0.257710367551368,"true"
"image-keyboard-response",571,399160,"0.0-4.186-1.186","jnqr7br1x8vlvx8",254,"50.csv","","null","resources/maskTrios/BT2B.jpg","null","",NA,NA,NA,NA,""
"image-keyboard-response",572,400371,"0.0-4.186-2.186","jnqr7br1x8vlvx8",254,"50.csv","","null","resources/images/coin2.png","null","",NA,NA,NA,NA,""
"image-keyboard-response",573,400756,"0.0-4.187-0.187","jnqr7br1x8vlvx8",254,"50.csv","","383","resources/trios/L1T2A3.jpg","38","restless",0.7,0.4,0.4,0.693764642474362,"false"
"image-keyboard-response",574,401159,"0.0-4.187-1.187","jnqr7br1x8vlvx8",254,"50.csv","","null","resources/maskTrios/BT2B.jpg","null","",NA,NA,NA,NA,""
"image-keyboard-response",575,402371,"0.0-4.187-2.187","jnqr7br1x8vlvx8",254,"50.csv","","null","resources/images/fishbone.png","null","",NA,NA,NA,NA,""
"image-keyboard-response",576,402757,"0.0-4.188-0.188","jnqr7br1x8vlvx8",254,"50.csv","","384","resources/trios/L1T2A3.jpg","38","restless",0.7,0.4,0.4,0.274599765363071,"true"
"image-keyboard-response",577,403161,"0.0-4.188-1.188","jnqr7br1x8vlvx8",254,"50.csv","","null","resources/maskTrios/BT2B.jpg","null","",NA,NA,NA,NA,""
"image-keyboard-response",578,404372,"0.0-4.188-2.188","jnqr7br1x8vlvx8",254,"50.csv","","null","resources/images/coin2.png","null","",NA,NA,NA,NA,""
"image-keyboard-response",579,404759,"0.0-4.189-0.189","jnqr7br1x8vlvx8",254,"50.csv","","385","resources/trios/L1T2A3.jpg","38","restless",0.7,0.4,0.4,0.650717042934643,"false"
"image-keyboard-response",580,405167,"0.0-4.189-1.189","jnqr7br1x8vlvx8",254,"50.csv","","null","resources/maskTrios/BT2B.jpg","null","",NA,NA,NA,NA,""
"image-keyboard-response",581,406373,"0.0-4.189-2.189","jnqr7br1x8vlvx8",254,"50.csv","","null","resources/images/fishbone.png","null","",NA,NA,NA,NA,""
"image-keyboard-response",582,406719,"0.0-4.190-0.190","jnqr7br1x8vlvx8",254,"50.csv","","345","resources/trios/L1T2A3.jpg","38","restless",0.7,0.4,0.4,0.00156630921664958,"true"
"image-keyboard-response",583,407124,"0.0-4.190-1.190","jnqr7br1x8vlvx8",254,"50.csv","","null","resources/maskTrios/BT2B.jpg","null","",NA,NA,NA,NA,""
"image-keyboard-response",584,408334,"0.0-4.190-2.190","jnqr7br1x8vlvx8",254,"50.csv","","null","resources/images/coin2.png","null","",NA,NA,NA,NA,""
"image-keyboard-response",585,408748,"0.0-4.191-0.191","jnqr7br1x8vlvx8",254,"50.csv","","413","resources/trios/L1T2A3.jpg","39","restless",0.7,0.4,0.4,0.162169728677808,"true"
"image-keyboard-response",586,409157,"0.0-4.191-1.191","jnqr7br1x8vlvx8",254,"50.csv","","null","resources/maskTrios/BBA3.jpg","null","",NA,NA,NA,NA,""
"image-keyboard-response",587,410364,"0.0-4.191-2.191","jnqr7br1x8vlvx8",254,"50.csv","","null","resources/images/coin2.png","null","",NA,NA,NA,NA,""
"image-keyboard-response",588,410734,"0.0-4.192-0.192","jnqr7br1x8vlvx8",254,"50.csv","","369","resources/trios/L1T2A3.jpg","39","restless",0.7,0.4,0.4,0.45622129903164,"false"
"image-keyboard-response",589,411141,"0.0-4.192-1.192","jnqr7br1x8vlvx8",254,"50.csv","","null","resources/maskTrios/BBA3.jpg","null","",NA,NA,NA,NA,""
"image-keyboard-response",590,412379,"0.0-4.192-2.192","jnqr7br1x8vlvx8",254,"50.csv","","null","resources/images/fishbone.png","null","",NA,NA,NA,NA,""
"image-keyboard-response",591,412666,"0.0-4.193-0.193","jnqr7br1x8vlvx8",254,"50.csv","","285","resources/trios/L1T2A3.jpg","39","restless",0.7,0.4,0.4,0.764329120789083,"false"
"image-keyboard-response",592,413073,"0.0-4.193-1.193","jnqr7br1x8vlvx8",254,"50.csv","","null","resources/maskTrios/BBA3.jpg","null","",NA,NA,NA,NA,""
"image-keyboard-response",593,414394,"0.0-4.193-2.193","jnqr7br1x8vlvx8",254,"50.csv","","null","resources/images/fishbone.png","null","",NA,NA,NA,NA,""
"image-keyboard-response",594,414653,"0.0-4.194-0.194","jnqr7br1x8vlvx8",254,"50.csv","","258","resources/trios/L1T2A3.jpg","38","restless",0.7,0.4,0.4,0.992497783610792,"false"
"image-keyboard-response",595,415060,"0.0-4.194-1.194","jnqr7br1x8vlvx8",254,"50.csv","","null","resources/maskTrios/BT2B.jpg","null","",NA,NA,NA,NA,""
"image-keyboard-response",596,416411,"0.0-4.194-2.194","jnqr7br1x8vlvx8",254,"50.csv","","null","resources/images/fishbone.png","null","",NA,NA,NA,NA,""
"image-keyboard-response",597,416752,"0.0-4.195-0.195","jnqr7br1x8vlvx8",254,"50.csv","","340","resources/trios/L1T2A3.jpg","38","restless",0.7,0.4,0.4,0.551666420585101,"false"
"image-keyboard-response",598,417160,"0.0-4.195-1.195","jnqr7br1x8vlvx8",254,"50.csv","","null","resources/maskTrios/BT2B.jpg","null","",NA,NA,NA,NA,""
"image-keyboard-response",599,418415,"0.0-4.195-2.195","jnqr7br1x8vlvx8",254,"50.csv","","null","resources/images/fishbone.png","null","",NA,NA,NA,NA,""
"image-keyboard-response",600,418741,"0.0-4.196-0.196","jnqr7br1x8vlvx8",254,"50.csv","","324","resources/trios/L1T2A3.jpg","38","restless",0.7,0.4,0.4,0.00185315476599412,"true"
"image-keyboard-response",601,419152,"0.0-4.196-1.196","jnqr7br1x8vlvx8",254,"50.csv","","null","resources/maskTrios/BT2B.jpg","null","",NA,NA,NA,NA,""
"image-keyboard-response",602,420433,"0.0-4.196-2.196","jnqr7br1x8vlvx8",254,"50.csv","","null","resources/images/coin2.png","null","",NA,NA,NA,NA,""
"image-keyboard-response",603,420450,"0.0-4.197-0.197","jnqr7br1x8vlvx8",254,"50.csv","","16","resources/trios/L1T2A3.jpg","38","restless",0.7,0.3,0.4,0.420143626197082,"false"
"image-keyboard-response",604,420856,"0.0-4.197-1.197","jnqr7br1x8vlvx8",254,"50.csv","","null","resources/maskTrios/BT2B.jpg","null","",NA,NA,NA,NA,""
"image-keyboard-response",605,422062,"0.0-4.197-2.197","jnqr7br1x8vlvx8",254,"50.csv","","null","resources/images/fishbone.png","null","",NA,NA,NA,NA,""
"image-keyboard-response",606,422604,"0.0-4.198-0.198","jnqr7br1x8vlvx8",254,"50.csv","","539","resources/trios/L1T2A3.jpg","38","restless",0.7,0.3,0.5,0.749291261661429,"false"
"image-keyboard-response",607,423012,"0.0-4.198-1.198","jnqr7br1x8vlvx8",254,"50.csv","","null","resources/maskTrios/BT2B.jpg","null","",NA,NA,NA,NA,""
"image-keyboard-response",608,424215,"0.0-4.198-2.198","jnqr7br1x8vlvx8",254,"50.csv","","null","resources/images/fishbone.png","null","",NA,NA,NA,NA,""
"image-keyboard-response",609,424611,"0.0-4.199-0.199","jnqr7br1x8vlvx8",254,"50.csv","","396","resources/trios/L1T2A3.jpg","39","restless",0.7,0.3,0.5,0.155972754370449,"true"
"image-keyboard-response",610,425017,"0.0-4.199-1.199","jnqr7br1x8vlvx8",254,"50.csv","","null","resources/maskTrios/BBA3.jpg","null","",NA,NA,NA,NA,""
"image-keyboard-response",611,426221,"0.0-4.199-2.199","jnqr7br1x8vlvx8",254,"50.csv","","null","resources/images/coin2.png","null","",NA,NA,NA,NA,""
"survey-text",612,498633,"0.0-5.0","jnqr7br1x8vlvx8",254,"50.csv","","72401","","","",NA,NA,NA,NA,""
