"trial_type","trial_index","time_elapsed","internal_node_id","subject","participantCode","walkNumber","success","rt","stimulus","key_press","test_part","leftProb","midProb","rightProb","generatedNum","correct"
"pavlovia",0,1264,"0.0-0.0","h0w8eb372ejs0ft",773,"171.csv","","","","","",NA,NA,NA,NA,""
"fullscreen",1,4985,"0.0-1.0","h0w8eb372ejs0ft",773,"171.csv","true","","","","",NA,NA,NA,NA,""
"survey-html-form",2,56938,"0.0-2.0","h0w8eb372ejs0ft",773,"171.csv","","51952","","","",NA,NA,NA,NA,""
"image-keyboard-response",3,91598,"0.0-3.0-0.0","h0w8eb372ejs0ft",773,"171.csv","","34654","resources/images/parrot_nobg.png","13","",NA,NA,NA,NA,""
"image-keyboard-response",4,94607,"0.0-3.0-1.0","h0w8eb372ejs0ft",773,"171.csv","","null","resources/image_sets/111.png","null","",NA,NA,NA,NA,""
"image-keyboard-response",5,99234,"0.0-3.0-2.0","h0w8eb372ejs0ft",773,"171.csv","","4617.999999999985","resources/image_sets/left_highlight.png","37","",NA,NA,NA,NA,""
"image-keyboard-response",6,102128,"0.0-3.0-3.0","h0w8eb372ejs0ft",773,"171.csv","","2886.9999999999854","resources/image_sets/mid_highlight.png","38","",NA,NA,NA,NA,""
"image-keyboard-response",7,103190,"0.0-3.0-4.0","h0w8eb372ejs0ft",773,"171.csv","","1054","resources/image_sets/right_highlight.png","39","",NA,NA,NA,NA,""
"image-keyboard-response",8,107353,"0.0-3.0-5.0","h0w8eb372ejs0ft",773,"171.csv","","4153","resources/image_sets/111.png","13","",NA,NA,NA,NA,""
"image-keyboard-response",9,109783,"0.0-3.0-6.0","h0w8eb372ejs0ft",773,"171.csv","","2425","resources/images/coin2.png","13","",NA,NA,NA,NA,""
"image-keyboard-response",10,112727,"0.0-3.0-7.0","h0w8eb372ejs0ft",773,"171.csv","","2936","resources/images/fishbone.png","13","",NA,NA,NA,NA,""
"html-keyboard-response",11,119865,"0.0-3.0-8.0","h0w8eb372ejs0ft",773,"171.csv","","7135","<p>You can track your coin total on the top right of your screen. </p><p>At the end of your journey you will be directed to a survey, so please click on the link before exiting the task</p><p>Press Enter to begin</p>","13","",NA,NA,NA,NA,""
"image-keyboard-response",12,122553,"0.0-4.0-0.0","h0w8eb372ejs0ft",773,"171.csv","","2681","resources/trios/L1T4A3.jpg","37","restless",0.3,0.9,0.7,0.652486931355111,"false"
"image-keyboard-response",13,122962,"0.0-4.0-1.0","h0w8eb372ejs0ft",773,"171.csv","","null","resources/maskTrios/L1BB.jpg","null","",NA,NA,NA,NA,""
"image-keyboard-response",14,124172,"0.0-4.0-2.0","h0w8eb372ejs0ft",773,"171.csv","","null","resources/images/fishbone.png","null","",NA,NA,NA,NA,""
"image-keyboard-response",15,124548,"0.0-4.1-0.1","h0w8eb372ejs0ft",773,"171.csv","","367","resources/trios/L1T4A3.jpg","38","restless",0.3,0.9,0.7,0.627687073350808,"true"
"image-keyboard-response",16,124957,"0.0-4.1-1.1","h0w8eb372ejs0ft",773,"171.csv","","null","resources/maskTrios/BT4B.jpg","null","",NA,NA,NA,NA,""
"image-keyboard-response",17,126166,"0.0-4.1-2.1","h0w8eb372ejs0ft",773,"171.csv","","null","resources/images/coin2.png","null","",NA,NA,NA,NA,""
"image-keyboard-response",18,126514,"0.0-4.2-0.2","h0w8eb372ejs0ft",773,"171.csv","","339","resources/trios/L1T4A3.jpg","39","restless",0.2,0.8,0.7,0.805708900124163,"false"
"image-keyboard-response",19,126925,"0.0-4.2-1.2","h0w8eb372ejs0ft",773,"171.csv","","null","resources/maskTrios/BBA3.jpg","null","",NA,NA,NA,NA,""
"image-keyboard-response",20,128136,"0.0-4.2-2.2","h0w8eb372ejs0ft",773,"171.csv","","null","resources/images/fishbone.png","null","",NA,NA,NA,NA,""
"image-keyboard-response",21,128468,"0.0-4.3-0.3","h0w8eb372ejs0ft",773,"171.csv","","324","resources/trios/L1T4A3.jpg","38","restless",0.2,0.8,0.7,0.416973185226416,"true"
"image-keyboard-response",22,128877,"0.0-4.3-1.3","h0w8eb372ejs0ft",773,"171.csv","","null","resources/maskTrios/BT4B.jpg","null","",NA,NA,NA,NA,""
"image-keyboard-response",23,130086,"0.0-4.3-2.3","h0w8eb372ejs0ft",773,"171.csv","","null","resources/images/coin2.png","null","",NA,NA,NA,NA,""
"image-keyboard-response",24,130442,"0.0-4.4-0.4","h0w8eb372ejs0ft",773,"171.csv","","347","resources/trios/L1T4A3.jpg","38","restless",0.2,0.7,0.7,0.101019761891739,"true"
"image-keyboard-response",25,130852,"0.0-4.4-1.4","h0w8eb372ejs0ft",773,"171.csv","","null","resources/maskTrios/BT4B.jpg","null","",NA,NA,NA,NA,""
"image-keyboard-response",26,132064,"0.0-4.4-2.4","h0w8eb372ejs0ft",773,"171.csv","","null","resources/images/coin2.png","null","",NA,NA,NA,NA,""
"image-keyboard-response",27,132670,"0.0-4.5-0.5","h0w8eb372ejs0ft",773,"171.csv","","596","resources/trios/L1T4A3.jpg","38","restless",0.2,0.7,0.6,0.814743001706288,"false"
"image-keyboard-response",28,133081,"0.0-4.5-1.5","h0w8eb372ejs0ft",773,"171.csv","","null","resources/maskTrios/BT4B.jpg","null","",NA,NA,NA,NA,""
"image-keyboard-response",29,134291,"0.0-4.5-2.5","h0w8eb372ejs0ft",773,"171.csv","","null","resources/images/fishbone.png","null","",NA,NA,NA,NA,""
"image-keyboard-response",30,134609,"0.0-4.6-0.6","h0w8eb372ejs0ft",773,"171.csv","","311","resources/trios/L1T4A3.jpg","39","restless",0.2,0.7,0.6,0.743365222069731,"false"
"image-keyboard-response",31,135018,"0.0-4.6-1.6","h0w8eb372ejs0ft",773,"171.csv","","null","resources/maskTrios/BBA3.jpg","null","",NA,NA,NA,NA,""
"image-keyboard-response",32,136228,"0.0-4.6-2.6","h0w8eb372ejs0ft",773,"171.csv","","null","resources/images/fishbone.png","null","",NA,NA,NA,NA,""
"image-keyboard-response",33,136281,"0.0-4.7-0.7","h0w8eb372ejs0ft",773,"171.csv","","43","resources/trios/L1T4A3.jpg","37","restless",0.2,0.7,0.6,0.0908683546257629,"true"
"image-keyboard-response",34,136688,"0.0-4.7-1.7","h0w8eb372ejs0ft",773,"171.csv","","null","resources/maskTrios/L1BB.jpg","null","",NA,NA,NA,NA,""
"image-keyboard-response",35,137897,"0.0-4.7-2.7","h0w8eb372ejs0ft",773,"171.csv","","null","resources/images/coin2.png","null","",NA,NA,NA,NA,""
"image-keyboard-response",36,138160,"0.0-4.8-0.8","h0w8eb372ejs0ft",773,"171.csv","","252.9999999999709","resources/trios/L1T4A3.jpg","37","restless",0.2,0.8,0.6,0.662282207013176,"false"
"image-keyboard-response",37,138570,"0.0-4.8-1.8","h0w8eb372ejs0ft",773,"171.csv","","null","resources/maskTrios/L1BB.jpg","null","",NA,NA,NA,NA,""
"image-keyboard-response",38,139778,"0.0-4.8-2.8","h0w8eb372ejs0ft",773,"171.csv","","null","resources/images/fishbone.png","null","",NA,NA,NA,NA,""
"image-keyboard-response",39,140722,"0.0-4.9-0.9","h0w8eb372ejs0ft",773,"171.csv","","936","resources/trios/L1T4A3.jpg","38","restless",0.2,0.8,0.6,0.289043212786681,"true"
"image-keyboard-response",40,141130,"0.0-4.9-1.9","h0w8eb372ejs0ft",773,"171.csv","","null","resources/maskTrios/BT4B.jpg","null","",NA,NA,NA,NA,""
"image-keyboard-response",41,142339,"0.0-4.9-2.9","h0w8eb372ejs0ft",773,"171.csv","","null","resources/images/coin2.png","null","",NA,NA,NA,NA,""
"image-keyboard-response",42,142689,"0.0-4.10-0.10","h0w8eb372ejs0ft",773,"171.csv","","344","resources/trios/L1T4A3.jpg","38","restless",0.2,0.8,0.6,0.0526199443211456,"true"
"image-keyboard-response",43,143098,"0.0-4.10-1.10","h0w8eb372ejs0ft",773,"171.csv","","null","resources/maskTrios/BT4B.jpg","null","",NA,NA,NA,NA,""
"image-keyboard-response",44,144309,"0.0-4.10-2.10","h0w8eb372ejs0ft",773,"171.csv","","null","resources/images/coin2.png","null","",NA,NA,NA,NA,""
"image-keyboard-response",45,144709,"0.0-4.11-0.11","h0w8eb372ejs0ft",773,"171.csv","","388","resources/trios/L1T4A3.jpg","38","restless",0.2,0.8,0.6,0.137873924761079,"true"
"image-keyboard-response",46,145120,"0.0-4.11-1.11","h0w8eb372ejs0ft",773,"171.csv","","null","resources/maskTrios/BT4B.jpg","null","",NA,NA,NA,NA,""
"image-keyboard-response",47,146332,"0.0-4.11-2.11","h0w8eb372ejs0ft",773,"171.csv","","null","resources/images/coin2.png","null","",NA,NA,NA,NA,""
"image-keyboard-response",48,147068,"0.0-4.12-0.12","h0w8eb372ejs0ft",773,"171.csv","","728.0000000000291","resources/trios/L1T4A3.jpg","39","restless",0.2,0.8,0.6,0.0499545583892647,"true"
"image-keyboard-response",49,147479,"0.0-4.12-1.12","h0w8eb372ejs0ft",773,"171.csv","","null","resources/maskTrios/BBA3.jpg","null","",NA,NA,NA,NA,""
"image-keyboard-response",50,148688,"0.0-4.12-2.12","h0w8eb372ejs0ft",773,"171.csv","","null","resources/images/coin2.png","null","",NA,NA,NA,NA,""
"image-keyboard-response",51,148986,"0.0-4.13-0.13","h0w8eb372ejs0ft",773,"171.csv","","289","resources/trios/L1T4A3.jpg","38","restless",0.2,0.8,0.6,0.346231961922881,"true"
"image-keyboard-response",52,149395,"0.0-4.13-1.13","h0w8eb372ejs0ft",773,"171.csv","","null","resources/maskTrios/BT4B.jpg","null","",NA,NA,NA,NA,""
"image-keyboard-response",53,150606,"0.0-4.13-2.13","h0w8eb372ejs0ft",773,"171.csv","","null","resources/images/coin2.png","null","",NA,NA,NA,NA,""
"image-keyboard-response",54,150846,"0.0-4.14-0.14","h0w8eb372ejs0ft",773,"171.csv","","229","resources/trios/L1T4A3.jpg","37","restless",0.2,0.8,0.6,0.826487033549575,"false"
"image-keyboard-response",55,151257,"0.0-4.14-1.14","h0w8eb372ejs0ft",773,"171.csv","","null","resources/maskTrios/L1BB.jpg","null","",NA,NA,NA,NA,""
"image-keyboard-response",56,152469,"0.0-4.14-2.14","h0w8eb372ejs0ft",773,"171.csv","","null","resources/images/fishbone.png","null","",NA,NA,NA,NA,""
"image-keyboard-response",57,152849,"0.0-4.15-0.15","h0w8eb372ejs0ft",773,"171.csv","","369","resources/trios/L1T4A3.jpg","38","restless",0.2,0.8,0.6,0.693355859148471,"true"
"image-keyboard-response",58,153258,"0.0-4.15-1.15","h0w8eb372ejs0ft",773,"171.csv","","null","resources/maskTrios/BT4B.jpg","null","",NA,NA,NA,NA,""
"image-keyboard-response",59,154468,"0.0-4.15-2.15","h0w8eb372ejs0ft",773,"171.csv","","null","resources/images/coin2.png","null","",NA,NA,NA,NA,""
"image-keyboard-response",60,154757,"0.0-4.16-0.16","h0w8eb372ejs0ft",773,"171.csv","","280","resources/trios/L1T4A3.jpg","39","restless",0.2,0.8,0.6,0.0561458302727086,"true"
"image-keyboard-response",61,155166,"0.0-4.16-1.16","h0w8eb372ejs0ft",773,"171.csv","","null","resources/maskTrios/BBA3.jpg","null","",NA,NA,NA,NA,""
"image-keyboard-response",62,156377,"0.0-4.16-2.16","h0w8eb372ejs0ft",773,"171.csv","","null","resources/images/coin2.png","null","",NA,NA,NA,NA,""
"image-keyboard-response",63,156516,"0.0-4.17-0.17","h0w8eb372ejs0ft",773,"171.csv","","130","resources/trios/L1T4A3.jpg","38","restless",0.2,0.7,0.6,0.0572298880396577,"true"
"image-keyboard-response",64,156926,"0.0-4.17-1.17","h0w8eb372ejs0ft",773,"171.csv","","null","resources/maskTrios/BT4B.jpg","null","",NA,NA,NA,NA,""
"image-keyboard-response",65,158137,"0.0-4.17-2.17","h0w8eb372ejs0ft",773,"171.csv","","null","resources/images/coin2.png","null","",NA,NA,NA,NA,""
"image-keyboard-response",66,158406,"0.0-4.18-0.18","h0w8eb372ejs0ft",773,"171.csv","","260","resources/trios/L1T4A3.jpg","38","restless",0.2,0.7,0.6,0.9936920240122,"false"
"image-keyboard-response",67,158815,"0.0-4.18-1.18","h0w8eb372ejs0ft",773,"171.csv","","null","resources/maskTrios/BT4B.jpg","null","",NA,NA,NA,NA,""
"image-keyboard-response",68,160025,"0.0-4.18-2.18","h0w8eb372ejs0ft",773,"171.csv","","null","resources/images/fishbone.png","null","",NA,NA,NA,NA,""
"image-keyboard-response",69,160295,"0.0-4.19-0.19","h0w8eb372ejs0ft",773,"171.csv","","259","resources/trios/L1T4A3.jpg","39","restless",0.2,0.7,0.6,0.148280086363048,"true"
"image-keyboard-response",70,160705,"0.0-4.19-1.19","h0w8eb372ejs0ft",773,"171.csv","","null","resources/maskTrios/BBA3.jpg","null","",NA,NA,NA,NA,""
"image-keyboard-response",71,161915,"0.0-4.19-2.19","h0w8eb372ejs0ft",773,"171.csv","","null","resources/images/coin2.png","null","",NA,NA,NA,NA,""
"image-keyboard-response",72,162001,"0.0-4.20-0.20","h0w8eb372ejs0ft",773,"171.csv","","76","resources/trios/L1T4A3.jpg","39","restless",0.2,0.7,0.6,0.635279541934887,"false"
"image-keyboard-response",73,162408,"0.0-4.20-1.20","h0w8eb372ejs0ft",773,"171.csv","","null","resources/maskTrios/BBA3.jpg","null","",NA,NA,NA,NA,""
"image-keyboard-response",74,163619,"0.0-4.20-2.20","h0w8eb372ejs0ft",773,"171.csv","","null","resources/images/fishbone.png","null","",NA,NA,NA,NA,""
"image-keyboard-response",75,163843,"0.0-4.21-0.21","h0w8eb372ejs0ft",773,"171.csv","","214","resources/trios/L1T4A3.jpg","37","restless",0.2,0.7,0.6,0.180996946440538,"true"
"image-keyboard-response",76,164254,"0.0-4.21-1.21","h0w8eb372ejs0ft",773,"171.csv","","null","resources/maskTrios/L1BB.jpg","null","",NA,NA,NA,NA,""
"image-keyboard-response",77,165463,"0.0-4.21-2.21","h0w8eb372ejs0ft",773,"171.csv","","null","resources/images/coin2.png","null","",NA,NA,NA,NA,""
"image-keyboard-response",78,166215,"0.0-4.22-0.22","h0w8eb372ejs0ft",773,"171.csv","","741","resources/trios/L1T4A3.jpg","37","restless",0.2,0.6,0.6,0.09024033258111,"true"
"image-keyboard-response",79,166623,"0.0-4.22-1.22","h0w8eb372ejs0ft",773,"171.csv","","null","resources/maskTrios/L1BB.jpg","null","",NA,NA,NA,NA,""
"image-keyboard-response",80,167835,"0.0-4.22-2.22","h0w8eb372ejs0ft",773,"171.csv","","null","resources/images/coin2.png","null","",NA,NA,NA,NA,""
"image-keyboard-response",81,168260,"0.0-4.23-0.23","h0w8eb372ejs0ft",773,"171.csv","","417","resources/trios/L1T4A3.jpg","37","restless",0.2,0.6,0.6,0.759503253652205,"false"
"image-keyboard-response",82,168665,"0.0-4.23-1.23","h0w8eb372ejs0ft",773,"171.csv","","null","resources/maskTrios/L1BB.jpg","null","",NA,NA,NA,NA,""
"image-keyboard-response",83,169876,"0.0-4.23-2.23","h0w8eb372ejs0ft",773,"171.csv","","null","resources/images/fishbone.png","null","",NA,NA,NA,NA,""
"image-keyboard-response",84,170173,"0.0-4.24-0.24","h0w8eb372ejs0ft",773,"171.csv","","288","resources/trios/L1T4A3.jpg","38","restless",0.2,0.5,0.6,0.836902504167421,"false"
"image-keyboard-response",85,170583,"0.0-4.24-1.24","h0w8eb372ejs0ft",773,"171.csv","","null","resources/maskTrios/BT4B.jpg","null","",NA,NA,NA,NA,""
"image-keyboard-response",86,171795,"0.0-4.24-2.24","h0w8eb372ejs0ft",773,"171.csv","","null","resources/images/fishbone.png","null","",NA,NA,NA,NA,""
"image-keyboard-response",87,172127,"0.0-4.25-0.25","h0w8eb372ejs0ft",773,"171.csv","","321.9999999999709","resources/trios/L1T4A3.jpg","38","restless",0.2,0.5,0.6,0.600045053419095,"false"
"image-keyboard-response",88,172538,"0.0-4.25-1.25","h0w8eb372ejs0ft",773,"171.csv","","null","resources/maskTrios/BT4B.jpg","null","",NA,NA,NA,NA,""
"image-keyboard-response",89,173748,"0.0-4.25-2.25","h0w8eb372ejs0ft",773,"171.csv","","null","resources/images/fishbone.png","null","",NA,NA,NA,NA,""
"image-keyboard-response",90,174053,"0.0-4.26-0.26","h0w8eb372ejs0ft",773,"171.csv","","296","resources/trios/L1T4A3.jpg","39","restless",0.2,0.5,0.6,0.894367705513432,"false"
"image-keyboard-response",91,174462,"0.0-4.26-1.26","h0w8eb372ejs0ft",773,"171.csv","","null","resources/maskTrios/BBA3.jpg","null","",NA,NA,NA,NA,""
"image-keyboard-response",92,175672,"0.0-4.26-2.26","h0w8eb372ejs0ft",773,"171.csv","","null","resources/images/fishbone.png","null","",NA,NA,NA,NA,""
"image-keyboard-response",93,175924,"0.0-4.27-0.27","h0w8eb372ejs0ft",773,"171.csv","","242.9999999999709","resources/trios/L1T4A3.jpg","37","restless",0.2,0.5,0.6,0.321562773229432,"false"
"image-keyboard-response",94,176333,"0.0-4.27-1.27","h0w8eb372ejs0ft",773,"171.csv","","null","resources/maskTrios/L1BB.jpg","null","",NA,NA,NA,NA,""
"image-keyboard-response",95,177544,"0.0-4.27-2.27","h0w8eb372ejs0ft",773,"171.csv","","null","resources/images/fishbone.png","null","",NA,NA,NA,NA,""
"image-keyboard-response",96,177771,"0.0-4.28-0.28","h0w8eb372ejs0ft",773,"171.csv","","215.9999999999709","resources/trios/L1T4A3.jpg","38","restless",0.2,0.5,0.6,0.857796519309183,"false"
"image-keyboard-response",97,178180,"0.0-4.28-1.28","h0w8eb372ejs0ft",773,"171.csv","","null","resources/maskTrios/BT4B.jpg","null","",NA,NA,NA,NA,""
"image-keyboard-response",98,179392,"0.0-4.28-2.28","h0w8eb372ejs0ft",773,"171.csv","","null","resources/images/fishbone.png","null","",NA,NA,NA,NA,""
"image-keyboard-response",99,179642,"0.0-4.29-0.29","h0w8eb372ejs0ft",773,"171.csv","","239","resources/trios/L1T4A3.jpg","39","restless",0.2,0.5,0.7,0.0184598210232205,"true"
"image-keyboard-response",100,180050,"0.0-4.29-1.29","h0w8eb372ejs0ft",773,"171.csv","","null","resources/maskTrios/BBA3.jpg","null","",NA,NA,NA,NA,""
"image-keyboard-response",101,181259,"0.0-4.29-2.29","h0w8eb372ejs0ft",773,"171.csv","","null","resources/images/coin2.png","null","",NA,NA,NA,NA,""
"image-keyboard-response",102,181515,"0.0-4.30-0.30","h0w8eb372ejs0ft",773,"171.csv","","246","resources/trios/L1T4A3.jpg","39","restless",0.2,0.5,0.7,0.983468944965708,"false"
"image-keyboard-response",103,181924,"0.0-4.30-1.30","h0w8eb372ejs0ft",773,"171.csv","","null","resources/maskTrios/BBA3.jpg","null","",NA,NA,NA,NA,""
"image-keyboard-response",104,183132,"0.0-4.30-2.30","h0w8eb372ejs0ft",773,"171.csv","","null","resources/images/fishbone.png","null","",NA,NA,NA,NA,""
"image-keyboard-response",105,183607,"0.0-4.31-0.31","h0w8eb372ejs0ft",773,"171.csv","","466","resources/trios/L1T4A3.jpg","38","restless",0.2,0.4,0.7,0.630991386414571,"false"
"image-keyboard-response",106,184017,"0.0-4.31-1.31","h0w8eb372ejs0ft",773,"171.csv","","null","resources/maskTrios/BT4B.jpg","null","",NA,NA,NA,NA,""
"image-keyboard-response",107,185226,"0.0-4.31-2.31","h0w8eb372ejs0ft",773,"171.csv","","null","resources/images/fishbone.png","null","",NA,NA,NA,NA,""
"image-keyboard-response",108,185379,"0.0-4.32-0.32","h0w8eb372ejs0ft",773,"171.csv","","143","resources/trios/L1T4A3.jpg","37","restless",0.2,0.4,0.7,0.0305259592983715,"true"
"image-keyboard-response",109,185788,"0.0-4.32-1.32","h0w8eb372ejs0ft",773,"171.csv","","null","resources/maskTrios/L1BB.jpg","null","",NA,NA,NA,NA,""
"image-keyboard-response",110,187000,"0.0-4.32-2.32","h0w8eb372ejs0ft",773,"171.csv","","null","resources/images/coin2.png","null","",NA,NA,NA,NA,""
"image-keyboard-response",111,187270,"0.0-4.33-0.33","h0w8eb372ejs0ft",773,"171.csv","","260","resources/trios/L1T4A3.jpg","37","restless",0.2,0.4,0.7,0.877558892069073,"false"
"image-keyboard-response",112,187676,"0.0-4.33-1.33","h0w8eb372ejs0ft",773,"171.csv","","null","resources/maskTrios/L1BB.jpg","null","",NA,NA,NA,NA,""
"image-keyboard-response",113,188887,"0.0-4.33-2.33","h0w8eb372ejs0ft",773,"171.csv","","null","resources/images/fishbone.png","null","",NA,NA,NA,NA,""
"image-keyboard-response",114,189476,"0.0-4.34-0.34","h0w8eb372ejs0ft",773,"171.csv","","580","resources/trios/L1T4A3.jpg","38","restless",0.2,0.4,0.6,0.975616467563379,"false"
"image-keyboard-response",115,189883,"0.0-4.34-1.34","h0w8eb372ejs0ft",773,"171.csv","","null","resources/maskTrios/BT4B.jpg","null","",NA,NA,NA,NA,""
"image-keyboard-response",116,191092,"0.0-4.34-2.34","h0w8eb372ejs0ft",773,"171.csv","","null","resources/images/fishbone.png","null","",NA,NA,NA,NA,""
"image-keyboard-response",117,191271,"0.0-4.35-0.35","h0w8eb372ejs0ft",773,"171.csv","","170","resources/trios/L1T4A3.jpg","39","restless",0.2,0.4,0.6,0.928826363077649,"false"
"image-keyboard-response",118,191680,"0.0-4.35-1.35","h0w8eb372ejs0ft",773,"171.csv","","null","resources/maskTrios/BBA3.jpg","null","",NA,NA,NA,NA,""
"image-keyboard-response",119,192891,"0.0-4.35-2.35","h0w8eb372ejs0ft",773,"171.csv","","null","resources/images/fishbone.png","null","",NA,NA,NA,NA,""
"image-keyboard-response",120,193143,"0.0-4.36-0.36","h0w8eb372ejs0ft",773,"171.csv","","241","resources/trios/L1T4A3.jpg","39","restless",0.2,0.4,0.6,0.693751685143746,"false"
"image-keyboard-response",121,193552,"0.0-4.36-1.36","h0w8eb372ejs0ft",773,"171.csv","","null","resources/maskTrios/BBA3.jpg","null","",NA,NA,NA,NA,""
"image-keyboard-response",122,194761,"0.0-4.36-2.36","h0w8eb372ejs0ft",773,"171.csv","","null","resources/images/fishbone.png","null","",NA,NA,NA,NA,""
"image-keyboard-response",123,194825,"0.0-4.37-0.37","h0w8eb372ejs0ft",773,"171.csv","","56.999999999970896","resources/trios/L1T4A3.jpg","38","restless",0.2,0.3,0.6,0.853327195461132,"false"
"image-keyboard-response",124,195233,"0.0-4.37-1.37","h0w8eb372ejs0ft",773,"171.csv","","null","resources/maskTrios/BT4B.jpg","null","",NA,NA,NA,NA,""
"image-keyboard-response",125,196444,"0.0-4.37-2.37","h0w8eb372ejs0ft",773,"171.csv","","null","resources/images/fishbone.png","null","",NA,NA,NA,NA,""
"image-keyboard-response",126,196806,"0.0-4.38-0.38","h0w8eb372ejs0ft",773,"171.csv","","354","resources/trios/L1T4A3.jpg","37","restless",0.2,0.3,0.6,0.807108166300235,"false"
"image-keyboard-response",127,197216,"0.0-4.38-1.38","h0w8eb372ejs0ft",773,"171.csv","","null","resources/maskTrios/L1BB.jpg","null","",NA,NA,NA,NA,""
"image-keyboard-response",128,198428,"0.0-4.38-2.38","h0w8eb372ejs0ft",773,"171.csv","","null","resources/images/fishbone.png","null","",NA,NA,NA,NA,""
"image-keyboard-response",129,198569,"0.0-4.39-0.39","h0w8eb372ejs0ft",773,"171.csv","","132","resources/trios/L1T4A3.jpg","39","restless",0.2,0.3,0.6,0.651501511676119,"false"
"image-keyboard-response",130,198977,"0.0-4.39-1.39","h0w8eb372ejs0ft",773,"171.csv","","null","resources/maskTrios/BBA3.jpg","null","",NA,NA,NA,NA,""
"image-keyboard-response",131,200185,"0.0-4.39-2.39","h0w8eb372ejs0ft",773,"171.csv","","null","resources/images/fishbone.png","null","",NA,NA,NA,NA,""
"image-keyboard-response",132,200455,"0.0-4.40-0.40","h0w8eb372ejs0ft",773,"171.csv","","261","resources/trios/L1T4A3.jpg","38","restless",0.2,0.3,0.6,0.0990197931191327,"true"
"image-keyboard-response",133,200863,"0.0-4.40-1.40","h0w8eb372ejs0ft",773,"171.csv","","null","resources/maskTrios/BT4B.jpg","null","",NA,NA,NA,NA,""
"image-keyboard-response",134,202072,"0.0-4.40-2.40","h0w8eb372ejs0ft",773,"171.csv","","null","resources/images/coin2.png","null","",NA,NA,NA,NA,""
"image-keyboard-response",135,202394,"0.0-4.41-0.41","h0w8eb372ejs0ft",773,"171.csv","","312.0000000000291","resources/trios/L1T4A3.jpg","37","restless",0.2,0.3,0.5,0.424882519091012,"false"
"image-keyboard-response",136,202802,"0.0-4.41-1.41","h0w8eb372ejs0ft",773,"171.csv","","null","resources/maskTrios/L1BB.jpg","null","",NA,NA,NA,NA,""
"image-keyboard-response",137,204011,"0.0-4.41-2.41","h0w8eb372ejs0ft",773,"171.csv","","null","resources/images/fishbone.png","null","",NA,NA,NA,NA,""
"image-keyboard-response",138,204723,"0.0-4.42-0.42","h0w8eb372ejs0ft",773,"171.csv","","704","resources/trios/L1T4A3.jpg","38","restless",0.2,0.3,0.4,0.0018879561094125,"true"
"image-keyboard-response",139,205134,"0.0-4.42-1.42","h0w8eb372ejs0ft",773,"171.csv","","null","resources/maskTrios/BT4B.jpg","null","",NA,NA,NA,NA,""
"image-keyboard-response",140,206344,"0.0-4.42-2.42","h0w8eb372ejs0ft",773,"171.csv","","null","resources/images/coin2.png","null","",NA,NA,NA,NA,""
"image-keyboard-response",141,206764,"0.0-4.43-0.43","h0w8eb372ejs0ft",773,"171.csv","","409","resources/trios/L1T4A3.jpg","38","restless",0.2,0.3,0.4,0.448005257113541,"false"
"image-keyboard-response",142,207172,"0.0-4.43-1.43","h0w8eb372ejs0ft",773,"171.csv","","null","resources/maskTrios/BT4B.jpg","null","",NA,NA,NA,NA,""
"image-keyboard-response",143,208381,"0.0-4.43-2.43","h0w8eb372ejs0ft",773,"171.csv","","null","resources/images/fishbone.png","null","",NA,NA,NA,NA,""
"image-keyboard-response",144,208652,"0.0-4.44-0.44","h0w8eb372ejs0ft",773,"171.csv","","260","resources/trios/L1T4A3.jpg","37","restless",0.3,0.3,0.3,0.0600678881461431,"true"
"image-keyboard-response",145,209061,"0.0-4.44-1.44","h0w8eb372ejs0ft",773,"171.csv","","null","resources/maskTrios/L1BB.jpg","null","",NA,NA,NA,NA,""
"image-keyboard-response",146,210274,"0.0-4.44-2.44","h0w8eb372ejs0ft",773,"171.csv","","null","resources/images/coin2.png","null","",NA,NA,NA,NA,""
"image-keyboard-response",147,210638,"0.0-4.45-0.45","h0w8eb372ejs0ft",773,"171.csv","","353","resources/trios/L1T4A3.jpg","39","restless",0.3,0.3,0.3,0.0154063355537649,"true"
"image-keyboard-response",148,211048,"0.0-4.45-1.45","h0w8eb372ejs0ft",773,"171.csv","","null","resources/maskTrios/BBA3.jpg","null","",NA,NA,NA,NA,""
"image-keyboard-response",149,212260,"0.0-4.45-2.45","h0w8eb372ejs0ft",773,"171.csv","","null","resources/images/coin2.png","null","",NA,NA,NA,NA,""
"image-keyboard-response",150,212616,"0.0-4.46-0.46","h0w8eb372ejs0ft",773,"171.csv","","346","resources/trios/L1T4A3.jpg","39","restless",0.3,0.3,0.3,0.777468201373079,"false"
"image-keyboard-response",151,213025,"0.0-4.46-1.46","h0w8eb372ejs0ft",773,"171.csv","","null","resources/maskTrios/BBA3.jpg","null","",NA,NA,NA,NA,""
"image-keyboard-response",152,214236,"0.0-4.46-2.46","h0w8eb372ejs0ft",773,"171.csv","","null","resources/images/fishbone.png","null","",NA,NA,NA,NA,""
"image-keyboard-response",153,214386,"0.0-4.47-0.47","h0w8eb372ejs0ft",773,"171.csv","","142","resources/trios/L1T4A3.jpg","37","restless",0.3,0.3,0.3,0.918916481019999,"false"
"image-keyboard-response",154,214797,"0.0-4.47-1.47","h0w8eb372ejs0ft",773,"171.csv","","null","resources/maskTrios/L1BB.jpg","null","",NA,NA,NA,NA,""
"image-keyboard-response",155,216009,"0.0-4.47-2.47","h0w8eb372ejs0ft",773,"171.csv","","null","resources/images/fishbone.png","null","",NA,NA,NA,NA,""
"image-keyboard-response",156,216567,"0.0-4.48-0.48","h0w8eb372ejs0ft",773,"171.csv","","547","resources/trios/L1T4A3.jpg","38","restless",0.3,0.3,0.4,0.384425183581405,"false"
"image-keyboard-response",157,216975,"0.0-4.48-1.48","h0w8eb372ejs0ft",773,"171.csv","","null","resources/maskTrios/BT4B.jpg","null","",NA,NA,NA,NA,""
"image-keyboard-response",158,218184,"0.0-4.48-2.48","h0w8eb372ejs0ft",773,"171.csv","","null","resources/images/fishbone.png","null","",NA,NA,NA,NA,""
"image-keyboard-response",159,218859,"0.0-4.49-0.49","h0w8eb372ejs0ft",773,"171.csv","","666","resources/trios/L1T4A3.jpg","38","restless",0.3,0.3,0.4,0.456941691156935,"false"
"image-keyboard-response",160,219268,"0.0-4.49-1.49","h0w8eb372ejs0ft",773,"171.csv","","null","resources/maskTrios/BT4B.jpg","null","",NA,NA,NA,NA,""
"image-keyboard-response",161,220480,"0.0-4.49-2.49","h0w8eb372ejs0ft",773,"171.csv","","null","resources/images/fishbone.png","null","",NA,NA,NA,NA,""
"image-keyboard-response",162,220817,"0.0-4.50-0.50","h0w8eb372ejs0ft",773,"171.csv","","327","resources/trios/L1T4A3.jpg","39","restless",0.3,0.3,0.4,0.740309689285333,"false"
"image-keyboard-response",163,221226,"0.0-4.50-1.50","h0w8eb372ejs0ft",773,"171.csv","","null","resources/maskTrios/BBA3.jpg","null","",NA,NA,NA,NA,""
"image-keyboard-response",164,222436,"0.0-4.50-2.50","h0w8eb372ejs0ft",773,"171.csv","","null","resources/images/fishbone.png","null","",NA,NA,NA,NA,""
"image-keyboard-response",165,222657,"0.0-4.51-0.51","h0w8eb372ejs0ft",773,"171.csv","","212","resources/trios/L1T4A3.jpg","37","restless",0.3,0.3,0.4,0.3446272397997,"false"
"image-keyboard-response",166,223067,"0.0-4.51-1.51","h0w8eb372ejs0ft",773,"171.csv","","null","resources/maskTrios/L1BB.jpg","null","",NA,NA,NA,NA,""
"image-keyboard-response",167,224276,"0.0-4.51-2.51","h0w8eb372ejs0ft",773,"171.csv","","null","resources/images/fishbone.png","null","",NA,NA,NA,NA,""
"image-keyboard-response",168,224582,"0.0-4.52-0.52","h0w8eb372ejs0ft",773,"171.csv","","295","resources/trios/L1T4A3.jpg","39","restless",0.3,0.3,0.4,0.404196729248181,"false"
"image-keyboard-response",169,224991,"0.0-4.52-1.52","h0w8eb372ejs0ft",773,"171.csv","","null","resources/maskTrios/BBA3.jpg","null","",NA,NA,NA,NA,""
"image-keyboard-response",170,226201,"0.0-4.52-2.52","h0w8eb372ejs0ft",773,"171.csv","","null","resources/images/fishbone.png","null","",NA,NA,NA,NA,""
"image-keyboard-response",171,226231,"0.0-4.53-0.53","h0w8eb372ejs0ft",773,"171.csv","","21.999999999970896","resources/trios/L1T4A3.jpg","37","restless",0.3,0.3,0.4,0.495837904898736,"false"
"image-keyboard-response",172,226637,"0.0-4.53-1.53","h0w8eb372ejs0ft",773,"171.csv","","null","resources/maskTrios/L1BB.jpg","null","",NA,NA,NA,NA,""
"image-keyboard-response",173,227849,"0.0-4.53-2.53","h0w8eb372ejs0ft",773,"171.csv","","null","resources/images/fishbone.png","null","",NA,NA,NA,NA,""
"image-keyboard-response",174,228104,"0.0-4.54-0.54","h0w8eb372ejs0ft",773,"171.csv","","245","resources/trios/L1T4A3.jpg","38","restless",0.3,0.3,0.5,0.391818436665382,"false"
"image-keyboard-response",175,228512,"0.0-4.54-1.54","h0w8eb372ejs0ft",773,"171.csv","","null","resources/maskTrios/BT4B.jpg","null","",NA,NA,NA,NA,""
"image-keyboard-response",176,229723,"0.0-4.54-2.54","h0w8eb372ejs0ft",773,"171.csv","","null","resources/images/fishbone.png","null","",NA,NA,NA,NA,""
"image-keyboard-response",177,229982,"0.0-4.55-0.55","h0w8eb372ejs0ft",773,"171.csv","","248.9999999999709","resources/trios/L1T4A3.jpg","38","restless",0.3,0.3,0.5,0.902674366619861,"false"
"image-keyboard-response",178,230391,"0.0-4.55-1.55","h0w8eb372ejs0ft",773,"171.csv","","null","resources/maskTrios/BT4B.jpg","null","",NA,NA,NA,NA,""
"image-keyboard-response",179,231599,"0.0-4.55-2.55","h0w8eb372ejs0ft",773,"171.csv","","null","resources/images/fishbone.png","null","",NA,NA,NA,NA,""
"image-keyboard-response",180,232076,"0.0-4.56-0.56","h0w8eb372ejs0ft",773,"171.csv","","467","resources/trios/L1T4A3.jpg","37","restless",0.3,0.3,0.5,0.353072897999752,"false"
"image-keyboard-response",181,232486,"0.0-4.56-1.56","h0w8eb372ejs0ft",773,"171.csv","","null","resources/maskTrios/L1BB.jpg","null","",NA,NA,NA,NA,""
"image-keyboard-response",182,233697,"0.0-4.56-2.56","h0w8eb372ejs0ft",773,"171.csv","","null","resources/images/fishbone.png","null","",NA,NA,NA,NA,""
"image-keyboard-response",183,233888,"0.0-4.57-0.57","h0w8eb372ejs0ft",773,"171.csv","","182","resources/trios/L1T4A3.jpg","39","restless",0.4,0.3,0.5,0.807957014843456,"false"
"image-keyboard-response",184,234298,"0.0-4.57-1.57","h0w8eb372ejs0ft",773,"171.csv","","null","resources/maskTrios/BBA3.jpg","null","",NA,NA,NA,NA,""
"image-keyboard-response",185,235510,"0.0-4.57-2.57","h0w8eb372ejs0ft",773,"171.csv","","null","resources/images/fishbone.png","null","",NA,NA,NA,NA,""
"image-keyboard-response",186,235889,"0.0-4.58-0.58","h0w8eb372ejs0ft",773,"171.csv","","367","resources/trios/L1T4A3.jpg","37","restless",0.4,0.3,0.5,0.927871252688785,"false"
"image-keyboard-response",187,236299,"0.0-4.58-1.58","h0w8eb372ejs0ft",773,"171.csv","","null","resources/maskTrios/L1BB.jpg","null","",NA,NA,NA,NA,""
"image-keyboard-response",188,237508,"0.0-4.58-2.58","h0w8eb372ejs0ft",773,"171.csv","","null","resources/images/fishbone.png","null","",NA,NA,NA,NA,""
"image-keyboard-response",189,237789,"0.0-4.59-0.59","h0w8eb372ejs0ft",773,"171.csv","","273","resources/trios/L1T4A3.jpg","39","restless",0.4,0.3,0.5,0.99772407616824,"false"
"image-keyboard-response",190,238199,"0.0-4.59-1.59","h0w8eb372ejs0ft",773,"171.csv","","null","resources/maskTrios/BBA3.jpg","null","",NA,NA,NA,NA,""
"image-keyboard-response",191,239411,"0.0-4.59-2.59","h0w8eb372ejs0ft",773,"171.csv","","null","resources/images/fishbone.png","null","",NA,NA,NA,NA,""
"image-keyboard-response",192,239657,"0.0-4.60-0.60","h0w8eb372ejs0ft",773,"171.csv","","236","resources/trios/L1T4A3.jpg","37","restless",0.4,0.3,0.5,0.235954233578222,"true"
"image-keyboard-response",193,240067,"0.0-4.60-1.60","h0w8eb372ejs0ft",773,"171.csv","","null","resources/maskTrios/L1BB.jpg","null","",NA,NA,NA,NA,""
"image-keyboard-response",194,241276,"0.0-4.60-2.60","h0w8eb372ejs0ft",773,"171.csv","","null","resources/images/coin2.png","null","",NA,NA,NA,NA,""
"image-keyboard-response",195,241560,"0.0-4.61-0.61","h0w8eb372ejs0ft",773,"171.csv","","275.0000000000291","resources/trios/L1T4A3.jpg","38","restless",0.4,0.3,0.5,0.438585032952372,"false"
"image-keyboard-response",196,241970,"0.0-4.61-1.61","h0w8eb372ejs0ft",773,"171.csv","","null","resources/maskTrios/BT4B.jpg","null","",NA,NA,NA,NA,""
"image-keyboard-response",197,243180,"0.0-4.61-2.61","h0w8eb372ejs0ft",773,"171.csv","","null","resources/images/fishbone.png","null","",NA,NA,NA,NA,""
"image-keyboard-response",198,243438,"0.0-4.62-0.62","h0w8eb372ejs0ft",773,"171.csv","","249","resources/trios/L1T4A3.jpg","37","restless",0.4,0.3,0.5,0.292650422355747,"true"
"image-keyboard-response",199,243848,"0.0-4.62-1.62","h0w8eb372ejs0ft",773,"171.csv","","null","resources/maskTrios/L1BB.jpg","null","",NA,NA,NA,NA,""
"image-keyboard-response",200,245059,"0.0-4.62-2.62","h0w8eb372ejs0ft",773,"171.csv","","null","resources/images/coin2.png","null","",NA,NA,NA,NA,""
"image-keyboard-response",201,245331,"0.0-4.63-0.63","h0w8eb372ejs0ft",773,"171.csv","","264","resources/trios/L1T4A3.jpg","37","restless",0.4,0.3,0.5,0.254344014995538,"true"
"image-keyboard-response",202,245741,"0.0-4.63-1.63","h0w8eb372ejs0ft",773,"171.csv","","null","resources/maskTrios/L1BB.jpg","null","",NA,NA,NA,NA,""
"image-keyboard-response",203,246950,"0.0-4.63-2.63","h0w8eb372ejs0ft",773,"171.csv","","null","resources/images/coin2.png","null","",NA,NA,NA,NA,""
"image-keyboard-response",204,247311,"0.0-4.64-0.64","h0w8eb372ejs0ft",773,"171.csv","","352.9999999999709","resources/trios/L1T4A3.jpg","37","restless",0.4,0.3,0.5,0.916292767068129,"false"
"image-keyboard-response",205,247721,"0.0-4.64-1.64","h0w8eb372ejs0ft",773,"171.csv","","null","resources/maskTrios/L1BB.jpg","null","",NA,NA,NA,NA,""
"image-keyboard-response",206,248930,"0.0-4.64-2.64","h0w8eb372ejs0ft",773,"171.csv","","null","resources/images/fishbone.png","null","",NA,NA,NA,NA,""
"image-keyboard-response",207,249285,"0.0-4.65-0.65","h0w8eb372ejs0ft",773,"171.csv","","346","resources/trios/L1T4A3.jpg","39","restless",0.4,0.3,0.6,0.836368337039309,"false"
"image-keyboard-response",208,249695,"0.0-4.65-1.65","h0w8eb372ejs0ft",773,"171.csv","","null","resources/maskTrios/BBA3.jpg","null","",NA,NA,NA,NA,""
"image-keyboard-response",209,250905,"0.0-4.65-2.65","h0w8eb372ejs0ft",773,"171.csv","","null","resources/images/fishbone.png","null","",NA,NA,NA,NA,""
"image-keyboard-response",210,250950,"0.0-4.66-0.66","h0w8eb372ejs0ft",773,"171.csv","","36","resources/trios/L1T4A3.jpg","37","restless",0.4,0.3,0.6,0.355445486113391,"true"
"image-keyboard-response",211,251356,"0.0-4.66-1.66","h0w8eb372ejs0ft",773,"171.csv","","null","resources/maskTrios/L1BB.jpg","null","",NA,NA,NA,NA,""
"image-keyboard-response",212,252568,"0.0-4.66-2.66","h0w8eb372ejs0ft",773,"171.csv","","null","resources/images/coin2.png","null","",NA,NA,NA,NA,""
"image-keyboard-response",213,252760,"0.0-4.67-0.67","h0w8eb372ejs0ft",773,"171.csv","","184.0000000000291","resources/trios/L1T4A3.jpg","38","restless",0.4,0.3,0.6,0.0492931371437166,"true"
"image-keyboard-response",214,253172,"0.0-4.67-1.67","h0w8eb372ejs0ft",773,"171.csv","","null","resources/maskTrios/BT4B.jpg","null","",NA,NA,NA,NA,""
"image-keyboard-response",215,254383,"0.0-4.67-2.67","h0w8eb372ejs0ft",773,"171.csv","","null","resources/images/coin2.png","null","",NA,NA,NA,NA,""
"image-keyboard-response",216,254558,"0.0-4.68-0.68","h0w8eb372ejs0ft",773,"171.csv","","165.9999999999709","resources/trios/L1T4A3.jpg","37","restless",0.4,0.3,0.6,0.0902676083662959,"true"
"image-keyboard-response",217,254967,"0.0-4.68-1.68","h0w8eb372ejs0ft",773,"171.csv","","null","resources/maskTrios/L1BB.jpg","null","",NA,NA,NA,NA,""
"image-keyboard-response",218,256176,"0.0-4.68-2.68","h0w8eb372ejs0ft",773,"171.csv","","null","resources/images/coin2.png","null","",NA,NA,NA,NA,""
"image-keyboard-response",219,256488,"0.0-4.69-0.69","h0w8eb372ejs0ft",773,"171.csv","","301","resources/trios/L1T4A3.jpg","37","restless",0.4,0.3,0.6,0.424133686402719,"false"
"image-keyboard-response",220,256898,"0.0-4.69-1.69","h0w8eb372ejs0ft",773,"171.csv","","null","resources/maskTrios/L1BB.jpg","null","",NA,NA,NA,NA,""
"image-keyboard-response",221,258110,"0.0-4.69-2.69","h0w8eb372ejs0ft",773,"171.csv","","null","resources/images/fishbone.png","null","",NA,NA,NA,NA,""
"image-keyboard-response",222,258366,"0.0-4.70-0.70","h0w8eb372ejs0ft",773,"171.csv","","247.0000000000291","resources/trios/L1T4A3.jpg","37","restless",0.4,0.3,0.6,0.0430585929298857,"true"
"image-keyboard-response",223,258776,"0.0-4.70-1.70","h0w8eb372ejs0ft",773,"171.csv","","null","resources/maskTrios/L1BB.jpg","null","",NA,NA,NA,NA,""
"image-keyboard-response",224,259985,"0.0-4.70-2.70","h0w8eb372ejs0ft",773,"171.csv","","null","resources/images/coin2.png","null","",NA,NA,NA,NA,""
"image-keyboard-response",225,260227,"0.0-4.71-0.71","h0w8eb372ejs0ft",773,"171.csv","","232","resources/trios/L1T4A3.jpg","38","restless",0.4,0.3,0.6,0.466753903760578,"false"
"image-keyboard-response",226,260636,"0.0-4.71-1.71","h0w8eb372ejs0ft",773,"171.csv","","null","resources/maskTrios/BT4B.jpg","null","",NA,NA,NA,NA,""
"image-keyboard-response",227,261847,"0.0-4.71-2.71","h0w8eb372ejs0ft",773,"171.csv","","null","resources/images/fishbone.png","null","",NA,NA,NA,NA,""
"image-keyboard-response",228,262440,"0.0-4.72-0.72","h0w8eb372ejs0ft",773,"171.csv","","582","resources/trios/L1T4A3.jpg","39","restless",0.4,0.3,0.6,0.879140272358522,"false"
"image-keyboard-response",229,262850,"0.0-4.72-1.72","h0w8eb372ejs0ft",773,"171.csv","","null","resources/maskTrios/BBA3.jpg","null","",NA,NA,NA,NA,""
"image-keyboard-response",230,264060,"0.0-4.72-2.72","h0w8eb372ejs0ft",773,"171.csv","","null","resources/images/fishbone.png","null","",NA,NA,NA,NA,""
"image-keyboard-response",231,264351,"0.0-4.73-0.73","h0w8eb372ejs0ft",773,"171.csv","","280","resources/trios/L1T4A3.jpg","37","restless",0.4,0.3,0.6,0.213746933724339,"true"
"image-keyboard-response",232,264760,"0.0-4.73-1.73","h0w8eb372ejs0ft",773,"171.csv","","null","resources/maskTrios/L1BB.jpg","null","",NA,NA,NA,NA,""
"image-keyboard-response",233,265971,"0.0-4.73-2.73","h0w8eb372ejs0ft",773,"171.csv","","null","resources/images/coin2.png","null","",NA,NA,NA,NA,""
"image-keyboard-response",234,266393,"0.0-4.74-0.74","h0w8eb372ejs0ft",773,"171.csv","","412","resources/trios/L1T4A3.jpg","37","restless",0.4,0.3,0.6,0.633763913693763,"false"
"image-keyboard-response",235,266804,"0.0-4.74-1.74","h0w8eb372ejs0ft",773,"171.csv","","null","resources/maskTrios/L1BB.jpg","null","",NA,NA,NA,NA,""
"image-keyboard-response",236,268015,"0.0-4.74-2.74","h0w8eb372ejs0ft",773,"171.csv","","null","resources/images/fishbone.png","null","",NA,NA,NA,NA,""
"image-keyboard-response",237,268324,"0.0-4.75-0.75","h0w8eb372ejs0ft",773,"171.csv","","299.0000000000582","resources/trios/L1T4A3.jpg","38","restless",0.4,0.3,0.6,0.0852261438767711,"true"
"image-keyboard-response",238,268733,"0.0-4.75-1.75","h0w8eb372ejs0ft",773,"171.csv","","null","resources/maskTrios/BT4B.jpg","null","",NA,NA,NA,NA,""
"image-keyboard-response",239,269945,"0.0-4.75-2.75","h0w8eb372ejs0ft",773,"171.csv","","null","resources/images/coin2.png","null","",NA,NA,NA,NA,""
"image-keyboard-response",240,270252,"0.0-4.76-0.76","h0w8eb372ejs0ft",773,"171.csv","","298","resources/trios/L1T4A3.jpg","37","restless",0.5,0.3,0.6,0.0590045718451501,"true"
"image-keyboard-response",241,270661,"0.0-4.76-1.76","h0w8eb372ejs0ft",773,"171.csv","","null","resources/maskTrios/L1BB.jpg","null","",NA,NA,NA,NA,""
"image-keyboard-response",242,271871,"0.0-4.76-2.76","h0w8eb372ejs0ft",773,"171.csv","","null","resources/images/coin2.png","null","",NA,NA,NA,NA,""
"image-keyboard-response",243,272012,"0.0-4.77-0.77","h0w8eb372ejs0ft",773,"171.csv","","131","resources/trios/L1T4A3.jpg","38","restless",0.5,0.3,0.6,0.932107308628959,"false"
"image-keyboard-response",244,272423,"0.0-4.77-1.77","h0w8eb372ejs0ft",773,"171.csv","","null","resources/maskTrios/BT4B.jpg","null","",NA,NA,NA,NA,""
"image-keyboard-response",245,273631,"0.0-4.77-2.77","h0w8eb372ejs0ft",773,"171.csv","","null","resources/images/fishbone.png","null","",NA,NA,NA,NA,""
"image-keyboard-response",246,273768,"0.0-4.78-0.78","h0w8eb372ejs0ft",773,"171.csv","","126","resources/trios/L1T4A3.jpg","37","restless",0.5,0.3,0.6,0.285167519575223,"true"
"image-keyboard-response",247,274177,"0.0-4.78-1.78","h0w8eb372ejs0ft",773,"171.csv","","null","resources/maskTrios/L1BB.jpg","null","",NA,NA,NA,NA,""
"image-keyboard-response",248,275388,"0.0-4.78-2.78","h0w8eb372ejs0ft",773,"171.csv","","null","resources/images/coin2.png","null","",NA,NA,NA,NA,""
"image-keyboard-response",249,275639,"0.0-4.79-0.79","h0w8eb372ejs0ft",773,"171.csv","","240","resources/trios/L1T4A3.jpg","38","restless",0.5,0.3,0.6,0.0972152523008627,"true"
"image-keyboard-response",250,276046,"0.0-4.79-1.79","h0w8eb372ejs0ft",773,"171.csv","","null","resources/maskTrios/BT4B.jpg","null","",NA,NA,NA,NA,""
"image-keyboard-response",251,277256,"0.0-4.79-2.79","h0w8eb372ejs0ft",773,"171.csv","","null","resources/images/coin2.png","null","",NA,NA,NA,NA,""
"image-keyboard-response",252,277429,"0.0-4.80-0.80","h0w8eb372ejs0ft",773,"171.csv","","162","resources/trios/L1T4A3.jpg","39","restless",0.5,0.3,0.6,0.233477300435941,"true"
"image-keyboard-response",253,277840,"0.0-4.80-1.80","h0w8eb372ejs0ft",773,"171.csv","","null","resources/maskTrios/BBA3.jpg","null","",NA,NA,NA,NA,""
"image-keyboard-response",254,279050,"0.0-4.80-2.80","h0w8eb372ejs0ft",773,"171.csv","","null","resources/images/coin2.png","null","",NA,NA,NA,NA,""
"image-keyboard-response",255,279882,"0.0-4.81-0.81","h0w8eb372ejs0ft",773,"171.csv","","819.9999999999418","resources/trios/L1T4A3.jpg","37","restless",0.5,0.3,0.6,0.224702072872717,"true"
"image-keyboard-response",256,280290,"0.0-4.81-1.81","h0w8eb372ejs0ft",773,"171.csv","","null","resources/maskTrios/L1BB.jpg","null","",NA,NA,NA,NA,""
"image-keyboard-response",257,281502,"0.0-4.81-2.81","h0w8eb372ejs0ft",773,"171.csv","","null","resources/images/coin2.png","null","",NA,NA,NA,NA,""
"image-keyboard-response",258,281757,"0.0-4.82-0.82","h0w8eb372ejs0ft",773,"171.csv","","246","resources/trios/L1T4A3.jpg","38","restless",0.5,0.2,0.6,0.299997127505467,"false"
"image-keyboard-response",259,282167,"0.0-4.82-1.82","h0w8eb372ejs0ft",773,"171.csv","","null","resources/maskTrios/BT4B.jpg","null","",NA,NA,NA,NA,""
"image-keyboard-response",260,283378,"0.0-4.82-2.82","h0w8eb372ejs0ft",773,"171.csv","","null","resources/images/fishbone.png","null","",NA,NA,NA,NA,""
"image-keyboard-response",261,283906,"0.0-4.83-0.83","h0w8eb372ejs0ft",773,"171.csv","","517","resources/trios/L1T4A3.jpg","37","restless",0.6,0.2,0.6,0.832173757228666,"false"
"image-keyboard-response",262,284315,"0.0-4.83-1.83","h0w8eb372ejs0ft",773,"171.csv","","null","resources/maskTrios/L1BB.jpg","null","",NA,NA,NA,NA,""
"image-keyboard-response",263,285524,"0.0-4.83-2.83","h0w8eb372ejs0ft",773,"171.csv","","null","resources/images/fishbone.png","null","",NA,NA,NA,NA,""
"image-keyboard-response",264,285682,"0.0-4.84-0.84","h0w8eb372ejs0ft",773,"171.csv","","147","resources/trios/L1T4A3.jpg","37","restless",0.5,0.2,0.6,0.79705967021856,"false"
"image-keyboard-response",265,286092,"0.0-4.84-1.84","h0w8eb372ejs0ft",773,"171.csv","","null","resources/maskTrios/L1BB.jpg","null","",NA,NA,NA,NA,""
"image-keyboard-response",266,287304,"0.0-4.84-2.84","h0w8eb372ejs0ft",773,"171.csv","","null","resources/images/fishbone.png","null","",NA,NA,NA,NA,""
"image-keyboard-response",267,287557,"0.0-4.85-0.85","h0w8eb372ejs0ft",773,"171.csv","","243","resources/trios/L1T4A3.jpg","39","restless",0.5,0.2,0.6,0.279744657404335,"true"
"image-keyboard-response",268,287968,"0.0-4.85-1.85","h0w8eb372ejs0ft",773,"171.csv","","null","resources/maskTrios/BBA3.jpg","null","",NA,NA,NA,NA,""
"image-keyboard-response",269,289178,"0.0-4.85-2.85","h0w8eb372ejs0ft",773,"171.csv","","null","resources/images/coin2.png","null","",NA,NA,NA,NA,""
"image-keyboard-response",270,289673,"0.0-4.86-0.86","h0w8eb372ejs0ft",773,"171.csv","","483","resources/trios/L1T4A3.jpg","37","restless",0.5,0.2,0.6,0.682516674851583,"false"
"image-keyboard-response",271,290084,"0.0-4.86-1.86","h0w8eb372ejs0ft",773,"171.csv","","null","resources/maskTrios/L1BB.jpg","null","",NA,NA,NA,NA,""
"image-keyboard-response",272,291295,"0.0-4.86-2.86","h0w8eb372ejs0ft",773,"171.csv","","null","resources/images/fishbone.png","null","",NA,NA,NA,NA,""
"image-keyboard-response",273,291461,"0.0-4.87-0.87","h0w8eb372ejs0ft",773,"171.csv","","156","resources/trios/L1T4A3.jpg","38","restless",0.5,0.2,0.7,0.655535728381737,"false"
"image-keyboard-response",274,291870,"0.0-4.87-1.87","h0w8eb372ejs0ft",773,"171.csv","","null","resources/maskTrios/BT4B.jpg","null","",NA,NA,NA,NA,""
"image-keyboard-response",275,293081,"0.0-4.87-2.87","h0w8eb372ejs0ft",773,"171.csv","","null","resources/images/fishbone.png","null","",NA,NA,NA,NA,""
"image-keyboard-response",276,293353,"0.0-4.88-0.88","h0w8eb372ejs0ft",773,"171.csv","","263","resources/trios/L1T4A3.jpg","37","restless",0.5,0.2,0.7,0.781218177406136,"false"
"image-keyboard-response",277,293763,"0.0-4.88-1.88","h0w8eb372ejs0ft",773,"171.csv","","null","resources/maskTrios/L1BB.jpg","null","",NA,NA,NA,NA,""
"image-keyboard-response",278,294972,"0.0-4.88-2.88","h0w8eb372ejs0ft",773,"171.csv","","null","resources/images/fishbone.png","null","",NA,NA,NA,NA,""
"image-keyboard-response",279,295257,"0.0-4.89-0.89","h0w8eb372ejs0ft",773,"171.csv","","274","resources/trios/L1T4A3.jpg","39","restless",0.5,0.2,0.7,0.240277976686939,"true"
"image-keyboard-response",280,295667,"0.0-4.89-1.89","h0w8eb372ejs0ft",773,"171.csv","","null","resources/maskTrios/BBA3.jpg","null","",NA,NA,NA,NA,""
"image-keyboard-response",281,296879,"0.0-4.89-2.89","h0w8eb372ejs0ft",773,"171.csv","","null","resources/images/coin2.png","null","",NA,NA,NA,NA,""
"image-keyboard-response",282,297208,"0.0-4.90-0.90","h0w8eb372ejs0ft",773,"171.csv","","318","resources/trios/L1T4A3.jpg","37","restless",0.5,0.3,0.7,0.343024774276836,"true"
"image-keyboard-response",283,297619,"0.0-4.90-1.90","h0w8eb372ejs0ft",773,"171.csv","","null","resources/maskTrios/L1BB.jpg","null","",NA,NA,NA,NA,""
"image-keyboard-response",284,298831,"0.0-4.90-2.90","h0w8eb372ejs0ft",773,"171.csv","","null","resources/images/coin2.png","null","",NA,NA,NA,NA,""
"image-keyboard-response",285,299160,"0.0-4.91-0.91","h0w8eb372ejs0ft",773,"171.csv","","320","resources/trios/L1T4A3.jpg","38","restless",0.5,0.3,0.7,0.571164230556937,"false"
"image-keyboard-response",286,299569,"0.0-4.91-1.91","h0w8eb372ejs0ft",773,"171.csv","","null","resources/maskTrios/BT4B.jpg","null","",NA,NA,NA,NA,""
"image-keyboard-response",287,300778,"0.0-4.91-2.91","h0w8eb372ejs0ft",773,"171.csv","","null","resources/images/fishbone.png","null","",NA,NA,NA,NA,""
"image-keyboard-response",288,301157,"0.0-4.92-0.92","h0w8eb372ejs0ft",773,"171.csv","","368.0000000000582","resources/trios/L1T4A3.jpg","39","restless",0.5,0.3,0.7,0.148944190326839,"true"
"image-keyboard-response",289,301566,"0.0-4.92-1.92","h0w8eb372ejs0ft",773,"171.csv","","null","resources/maskTrios/BBA3.jpg","null","",NA,NA,NA,NA,""
"image-keyboard-response",290,302778,"0.0-4.92-2.92","h0w8eb372ejs0ft",773,"171.csv","","null","resources/images/coin2.png","null","",NA,NA,NA,NA,""
"image-keyboard-response",291,303019,"0.0-4.93-0.93","h0w8eb372ejs0ft",773,"171.csv","","231.0000000000582","resources/trios/L1T4A3.jpg","37","restless",0.5,0.3,0.7,0.0552660034988095,"true"
"image-keyboard-response",292,303430,"0.0-4.93-1.93","h0w8eb372ejs0ft",773,"171.csv","","null","resources/maskTrios/L1BB.jpg","null","",NA,NA,NA,NA,""
"image-keyboard-response",293,304642,"0.0-4.93-2.93","h0w8eb372ejs0ft",773,"171.csv","","null","resources/images/coin2.png","null","",NA,NA,NA,NA,""
"image-keyboard-response",294,304717,"0.0-4.94-0.94","h0w8eb372ejs0ft",773,"171.csv","","65","resources/trios/L1T4A3.jpg","38","restless",0.5,0.3,0.7,0.430616136769248,"false"
"image-keyboard-response",295,305125,"0.0-4.94-1.94","h0w8eb372ejs0ft",773,"171.csv","","null","resources/maskTrios/BT4B.jpg","null","",NA,NA,NA,NA,""
"image-keyboard-response",296,306337,"0.0-4.94-2.94","h0w8eb372ejs0ft",773,"171.csv","","null","resources/images/fishbone.png","null","",NA,NA,NA,NA,""
"image-keyboard-response",297,306653,"0.0-4.95-0.95","h0w8eb372ejs0ft",773,"171.csv","","305","resources/trios/L1T4A3.jpg","39","restless",0.4,0.3,0.7,0.0237200317028496,"true"
"image-keyboard-response",298,307063,"0.0-4.95-1.95","h0w8eb372ejs0ft",773,"171.csv","","null","resources/maskTrios/BBA3.jpg","null","",NA,NA,NA,NA,""
"image-keyboard-response",299,308273,"0.0-4.95-2.95","h0w8eb372ejs0ft",773,"171.csv","","null","resources/images/coin2.png","null","",NA,NA,NA,NA,""
"image-keyboard-response",300,308668,"0.0-4.96-0.96","h0w8eb372ejs0ft",773,"171.csv","","384","resources/trios/L1T4A3.jpg","37","restless",0.4,0.3,0.7,0.0549610509726431,"true"
"image-keyboard-response",301,309078,"0.0-4.96-1.96","h0w8eb372ejs0ft",773,"171.csv","","null","resources/maskTrios/L1BB.jpg","null","",NA,NA,NA,NA,""
"image-keyboard-response",302,310289,"0.0-4.96-2.96","h0w8eb372ejs0ft",773,"171.csv","","null","resources/images/coin2.png","null","",NA,NA,NA,NA,""
"image-keyboard-response",303,310582,"0.0-4.97-0.97","h0w8eb372ejs0ft",773,"171.csv","","290","resources/trios/L1T4A3.jpg","39","restless",0.4,0.3,0.7,0.28875201200897,"true"
"image-keyboard-response",304,310991,"0.0-4.97-1.97","h0w8eb372ejs0ft",773,"171.csv","","null","resources/maskTrios/BBA3.jpg","null","",NA,NA,NA,NA,""
"image-keyboard-response",305,312200,"0.0-4.97-2.97","h0w8eb372ejs0ft",773,"171.csv","","null","resources/images/coin2.png","null","",NA,NA,NA,NA,""
"image-keyboard-response",306,312483,"0.0-4.98-0.98","h0w8eb372ejs0ft",773,"171.csv","","272","resources/trios/L1T4A3.jpg","38","restless",0.4,0.3,0.7,0.0346726875884743,"true"
"image-keyboard-response",307,312891,"0.0-4.98-1.98","h0w8eb372ejs0ft",773,"171.csv","","null","resources/maskTrios/BT4B.jpg","null","",NA,NA,NA,NA,""
"image-keyboard-response",308,314103,"0.0-4.98-2.98","h0w8eb372ejs0ft",773,"171.csv","","null","resources/images/coin2.png","null","",NA,NA,NA,NA,""
"image-keyboard-response",309,314402,"0.0-4.99-0.99","h0w8eb372ejs0ft",773,"171.csv","","290","resources/trios/L1T4A3.jpg","37","restless",0.4,0.3,0.7,0.00754885029675434,"true"
"image-keyboard-response",310,314811,"0.0-4.99-1.99","h0w8eb372ejs0ft",773,"171.csv","","null","resources/maskTrios/L1BB.jpg","null","",NA,NA,NA,NA,""
"image-keyboard-response",311,316023,"0.0-4.99-2.99","h0w8eb372ejs0ft",773,"171.csv","","null","resources/images/coin2.png","null","",NA,NA,NA,NA,""
"image-keyboard-response",312,316318,"0.0-4.100-0.100","h0w8eb372ejs0ft",773,"171.csv","","286","resources/trios/L1T4A3.jpg","39","restless",0.4,0.3,0.7,0.174330826347397,"true"
"image-keyboard-response",313,316726,"0.0-4.100-1.100","h0w8eb372ejs0ft",773,"171.csv","","null","resources/maskTrios/BBA3.jpg","null","",NA,NA,NA,NA,""
"image-keyboard-response",314,317938,"0.0-4.100-2.100","h0w8eb372ejs0ft",773,"171.csv","","null","resources/images/coin2.png","null","",NA,NA,NA,NA,""
"image-keyboard-response",315,318442,"0.0-4.101-0.101","h0w8eb372ejs0ft",773,"171.csv","","494.9999999999418","resources/trios/L1T4A3.jpg","38","restless",0.4,0.3,0.7,0.631722876643425,"false"
"image-keyboard-response",316,318852,"0.0-4.101-1.101","h0w8eb372ejs0ft",773,"171.csv","","null","resources/maskTrios/BT4B.jpg","null","",NA,NA,NA,NA,""
"image-keyboard-response",317,320061,"0.0-4.101-2.101","h0w8eb372ejs0ft",773,"171.csv","","null","resources/images/fishbone.png","null","",NA,NA,NA,NA,""
"image-keyboard-response",318,320354,"0.0-4.102-0.102","h0w8eb372ejs0ft",773,"171.csv","","280.9999999999418","resources/trios/L1T4A3.jpg","37","restless",0.4,0.4,0.8,0.955868237017232,"false"
"image-keyboard-response",319,320763,"0.0-4.102-1.102","h0w8eb372ejs0ft",773,"171.csv","","null","resources/maskTrios/L1BB.jpg","null","",NA,NA,NA,NA,""
"image-keyboard-response",320,321973,"0.0-4.102-2.102","h0w8eb372ejs0ft",773,"171.csv","","null","resources/images/fishbone.png","null","",NA,NA,NA,NA,""
"image-keyboard-response",321,322378,"0.0-4.103-0.103","h0w8eb372ejs0ft",773,"171.csv","","394","resources/trios/L1T4A3.jpg","39","restless",0.4,0.4,0.8,0.40582648891078,"true"
"image-keyboard-response",322,322784,"0.0-4.103-1.103","h0w8eb372ejs0ft",773,"171.csv","","null","resources/maskTrios/BBA3.jpg","null","",NA,NA,NA,NA,""
"image-keyboard-response",323,323995,"0.0-4.103-2.103","h0w8eb372ejs0ft",773,"171.csv","","null","resources/images/coin2.png","null","",NA,NA,NA,NA,""
"image-keyboard-response",324,324170,"0.0-4.104-0.104","h0w8eb372ejs0ft",773,"171.csv","","166","resources/trios/L1T4A3.jpg","37","restless",0.4,0.4,0.8,0.53112257386055,"false"
"image-keyboard-response",325,324580,"0.0-4.104-1.104","h0w8eb372ejs0ft",773,"171.csv","","null","resources/maskTrios/L1BB.jpg","null","",NA,NA,NA,NA,""
"image-keyboard-response",326,325785,"0.0-4.104-2.104","h0w8eb372ejs0ft",773,"171.csv","","null","resources/images/fishbone.png","null","",NA,NA,NA,NA,""
"image-keyboard-response",327,326130,"0.0-4.105-0.105","h0w8eb372ejs0ft",773,"171.csv","","336","resources/trios/L1T4A3.jpg","38","restless",0.4,0.4,0.8,0.22445413561706,"true"
"image-keyboard-response",328,326540,"0.0-4.105-1.105","h0w8eb372ejs0ft",773,"171.csv","","null","resources/maskTrios/BT4B.jpg","null","",NA,NA,NA,NA,""
"image-keyboard-response",329,327750,"0.0-4.105-2.105","h0w8eb372ejs0ft",773,"171.csv","","null","resources/images/coin2.png","null","",NA,NA,NA,NA,""
"image-keyboard-response",330,328097,"0.0-4.106-0.106","h0w8eb372ejs0ft",773,"171.csv","","338","resources/trios/L1T4A3.jpg","39","restless",0.5,0.4,0.8,0.406962576166001,"true"
"image-keyboard-response",331,328504,"0.0-4.106-1.106","h0w8eb372ejs0ft",773,"171.csv","","null","resources/maskTrios/BBA3.jpg","null","",NA,NA,NA,NA,""
"image-keyboard-response",332,329713,"0.0-4.106-2.106","h0w8eb372ejs0ft",773,"171.csv","","null","resources/images/coin2.png","null","",NA,NA,NA,NA,""
"image-keyboard-response",333,329765,"0.0-4.107-0.107","h0w8eb372ejs0ft",773,"171.csv","","43","resources/trios/L1T4A3.jpg","37","restless",0.5,0.4,0.8,0.369816648970239,"true"
"image-keyboard-response",334,330172,"0.0-4.107-1.107","h0w8eb372ejs0ft",773,"171.csv","","null","resources/maskTrios/L1BB.jpg","null","",NA,NA,NA,NA,""
"image-keyboard-response",335,331383,"0.0-4.107-2.107","h0w8eb372ejs0ft",773,"171.csv","","null","resources/images/coin2.png","null","",NA,NA,NA,NA,""
"image-keyboard-response",336,331789,"0.0-4.108-0.108","h0w8eb372ejs0ft",773,"171.csv","","396","resources/trios/L1T4A3.jpg","39","restless",0.5,0.4,0.8,0.261276830245206,"true"
"image-keyboard-response",337,332200,"0.0-4.108-1.108","h0w8eb372ejs0ft",773,"171.csv","","null","resources/maskTrios/BBA3.jpg","null","",NA,NA,NA,NA,""
"image-keyboard-response",338,333410,"0.0-4.108-2.108","h0w8eb372ejs0ft",773,"171.csv","","null","resources/images/coin2.png","null","",NA,NA,NA,NA,""
"image-keyboard-response",339,333710,"0.0-4.109-0.109","h0w8eb372ejs0ft",773,"171.csv","","289","resources/trios/L1T4A3.jpg","38","restless",0.5,0.5,0.7,0.704338600792368,"false"
"image-keyboard-response",340,334118,"0.0-4.109-1.109","h0w8eb372ejs0ft",773,"171.csv","","null","resources/maskTrios/BT4B.jpg","null","",NA,NA,NA,NA,""
"image-keyboard-response",341,335330,"0.0-4.109-2.109","h0w8eb372ejs0ft",773,"171.csv","","null","resources/images/fishbone.png","null","",NA,NA,NA,NA,""
"image-keyboard-response",342,336298,"0.0-4.110-0.110","h0w8eb372ejs0ft",773,"171.csv","","957.0000000000582","resources/trios/L1T4A3.jpg","37","restless",0.6,0.6,0.7,0.793428105015191,"false"
"image-keyboard-response",343,336709,"0.0-4.110-1.110","h0w8eb372ejs0ft",773,"171.csv","","null","resources/maskTrios/L1BB.jpg","null","",NA,NA,NA,NA,""
"image-keyboard-response",344,337919,"0.0-4.110-2.110","h0w8eb372ejs0ft",773,"171.csv","","null","resources/images/fishbone.png","null","",NA,NA,NA,NA,""
"image-keyboard-response",345,338275,"0.0-4.111-0.111","h0w8eb372ejs0ft",773,"171.csv","","344.9999999999418","resources/trios/L1T4A3.jpg","39","restless",0.6,0.6,0.7,0.976139517085978,"false"
"image-keyboard-response",346,338683,"0.0-4.111-1.111","h0w8eb372ejs0ft",773,"171.csv","","null","resources/maskTrios/BBA3.jpg","null","",NA,NA,NA,NA,""
"image-keyboard-response",347,339895,"0.0-4.111-2.111","h0w8eb372ejs0ft",773,"171.csv","","null","resources/images/fishbone.png","null","",NA,NA,NA,NA,""
"image-keyboard-response",348,340085,"0.0-4.112-0.112","h0w8eb372ejs0ft",773,"171.csv","","182","resources/trios/L1T4A3.jpg","39","restless",0.6,0.5,0.7,0.472754666961021,"true"
"image-keyboard-response",349,340496,"0.0-4.112-1.112","h0w8eb372ejs0ft",773,"171.csv","","null","resources/maskTrios/BBA3.jpg","null","",NA,NA,NA,NA,""
"image-keyboard-response",350,341708,"0.0-4.112-2.112","h0w8eb372ejs0ft",773,"171.csv","","null","resources/images/coin2.png","null","",NA,NA,NA,NA,""
"image-keyboard-response",351,342377,"0.0-4.113-0.113","h0w8eb372ejs0ft",773,"171.csv","","665","resources/trios/L1T4A3.jpg","37","restless",0.6,0.5,0.7,0.792902941298431,"false"
"image-keyboard-response",352,342783,"0.0-4.113-1.113","h0w8eb372ejs0ft",773,"171.csv","","null","resources/maskTrios/L1BB.jpg","null","",NA,NA,NA,NA,""
"image-keyboard-response",353,343995,"0.0-4.113-2.113","h0w8eb372ejs0ft",773,"171.csv","","null","resources/images/fishbone.png","null","",NA,NA,NA,NA,""
"image-keyboard-response",354,344476,"0.0-4.114-0.114","h0w8eb372ejs0ft",773,"171.csv","","473","resources/trios/L1T4A3.jpg","38","restless",0.6,0.5,0.7,0.463063060221989,"true"
"image-keyboard-response",355,344885,"0.0-4.114-1.114","h0w8eb372ejs0ft",773,"171.csv","","null","resources/maskTrios/BT4B.jpg","null","",NA,NA,NA,NA,""
"image-keyboard-response",356,346097,"0.0-4.114-2.114","h0w8eb372ejs0ft",773,"171.csv","","null","resources/images/coin2.png","null","",NA,NA,NA,NA,""
"image-keyboard-response",357,346452,"0.0-4.115-0.115","h0w8eb372ejs0ft",773,"171.csv","","346","resources/trios/L1T4A3.jpg","39","restless",0.7,0.5,0.7,0.339598246390474,"true"
"image-keyboard-response",358,346860,"0.0-4.115-1.115","h0w8eb372ejs0ft",773,"171.csv","","null","resources/maskTrios/BBA3.jpg","null","",NA,NA,NA,NA,""
"image-keyboard-response",359,348072,"0.0-4.115-2.115","h0w8eb372ejs0ft",773,"171.csv","","null","resources/images/coin2.png","null","",NA,NA,NA,NA,""
"image-keyboard-response",360,348401,"0.0-4.116-0.116","h0w8eb372ejs0ft",773,"171.csv","","318","resources/trios/L1T4A3.jpg","37","restless",0.6,0.5,0.7,0.491099958484182,"true"
"image-keyboard-response",361,348810,"0.0-4.116-1.116","h0w8eb372ejs0ft",773,"171.csv","","null","resources/maskTrios/L1BB.jpg","null","",NA,NA,NA,NA,""
"image-keyboard-response",362,350020,"0.0-4.116-2.116","h0w8eb372ejs0ft",773,"171.csv","","null","resources/images/coin2.png","null","",NA,NA,NA,NA,""
"image-keyboard-response",363,350671,"0.0-4.117-0.117","h0w8eb372ejs0ft",773,"171.csv","","641","resources/trios/L1T4A3.jpg","39","restless",0.6,0.5,0.7,0.98444968348912,"false"
"image-keyboard-response",364,351079,"0.0-4.117-1.117","h0w8eb372ejs0ft",773,"171.csv","","null","resources/maskTrios/BBA3.jpg","null","",NA,NA,NA,NA,""
"image-keyboard-response",365,352291,"0.0-4.117-2.117","h0w8eb372ejs0ft",773,"171.csv","","null","resources/images/fishbone.png","null","",NA,NA,NA,NA,""
"image-keyboard-response",366,352618,"0.0-4.118-0.118","h0w8eb372ejs0ft",773,"171.csv","","318","resources/trios/L1T4A3.jpg","37","restless",0.6,0.5,0.7,0.414090931950111,"true"
"image-keyboard-response",367,353026,"0.0-4.118-1.118","h0w8eb372ejs0ft",773,"171.csv","","null","resources/maskTrios/L1BB.jpg","null","",NA,NA,NA,NA,""
"image-keyboard-response",368,354236,"0.0-4.118-2.118","h0w8eb372ejs0ft",773,"171.csv","","null","resources/images/coin2.png","null","",NA,NA,NA,NA,""
"image-keyboard-response",369,354522,"0.0-4.119-0.119","h0w8eb372ejs0ft",773,"171.csv","","275","resources/trios/L1T4A3.jpg","38","restless",0.6,0.5,0.7,0.749778452526095,"false"
"image-keyboard-response",370,354931,"0.0-4.119-1.119","h0w8eb372ejs0ft",773,"171.csv","","null","resources/maskTrios/BT4B.jpg","null","",NA,NA,NA,NA,""
"image-keyboard-response",371,356140,"0.0-4.119-2.119","h0w8eb372ejs0ft",773,"171.csv","","null","resources/images/fishbone.png","null","",NA,NA,NA,NA,""
"image-keyboard-response",372,356460,"0.0-4.120-0.120","h0w8eb372ejs0ft",773,"171.csv","","309","resources/trios/L1T4A3.jpg","39","restless",0.6,0.5,0.7,0.756275116553953,"false"
"image-keyboard-response",373,356870,"0.0-4.120-1.120","h0w8eb372ejs0ft",773,"171.csv","","null","resources/maskTrios/BBA3.jpg","null","",NA,NA,NA,NA,""
"image-keyboard-response",374,358080,"0.0-4.120-2.120","h0w8eb372ejs0ft",773,"171.csv","","null","resources/images/fishbone.png","null","",NA,NA,NA,NA,""
"image-keyboard-response",375,358377,"0.0-4.121-0.121","h0w8eb372ejs0ft",773,"171.csv","","287","resources/trios/L1T4A3.jpg","37","restless",0.6,0.5,0.7,0.858559268131363,"false"
"image-keyboard-response",376,358787,"0.0-4.121-1.121","h0w8eb372ejs0ft",773,"171.csv","","null","resources/maskTrios/L1BB.jpg","null","",NA,NA,NA,NA,""
"image-keyboard-response",377,359998,"0.0-4.121-2.121","h0w8eb372ejs0ft",773,"171.csv","","null","resources/images/fishbone.png","null","",NA,NA,NA,NA,""
"image-keyboard-response",378,360322,"0.0-4.122-0.122","h0w8eb372ejs0ft",773,"171.csv","","315","resources/trios/L1T4A3.jpg","39","restless",0.6,0.5,0.7,0.675553298906536,"true"
"image-keyboard-response",379,360731,"0.0-4.122-1.122","h0w8eb372ejs0ft",773,"171.csv","","null","resources/maskTrios/BBA3.jpg","null","",NA,NA,NA,NA,""
"image-keyboard-response",380,361942,"0.0-4.122-2.122","h0w8eb372ejs0ft",773,"171.csv","","null","resources/images/coin2.png","null","",NA,NA,NA,NA,""
"image-keyboard-response",381,362798,"0.0-4.123-0.123","h0w8eb372ejs0ft",773,"171.csv","","846.0000000000582","resources/trios/L1T4A3.jpg","38","restless",0.6,0.5,0.6,0.485457739445647,"true"
"image-keyboard-response",382,363209,"0.0-4.123-1.123","h0w8eb372ejs0ft",773,"171.csv","","null","resources/maskTrios/BT4B.jpg","null","",NA,NA,NA,NA,""
"image-keyboard-response",383,364421,"0.0-4.123-2.123","h0w8eb372ejs0ft",773,"171.csv","","null","resources/images/coin2.png","null","",NA,NA,NA,NA,""
"image-keyboard-response",384,364818,"0.0-4.124-0.124","h0w8eb372ejs0ft",773,"171.csv","","386","resources/trios/L1T4A3.jpg","38","restless",0.6,0.5,0.6,0.398572542640489,"true"
"image-keyboard-response",385,365229,"0.0-4.124-1.124","h0w8eb372ejs0ft",773,"171.csv","","null","resources/maskTrios/BT4B.jpg","null","",NA,NA,NA,NA,""
"image-keyboard-response",386,366440,"0.0-4.124-2.124","h0w8eb372ejs0ft",773,"171.csv","","null","resources/images/coin2.png","null","",NA,NA,NA,NA,""
"image-keyboard-response",387,367095,"0.0-4.125-0.125","h0w8eb372ejs0ft",773,"171.csv","","646.0000000000582","resources/trios/L1T4A3.jpg","38","restless",0.6,0.5,0.6,0.320660112767924,"true"
"image-keyboard-response",388,367501,"0.0-4.125-1.125","h0w8eb372ejs0ft",773,"171.csv","","null","resources/maskTrios/BT4B.jpg","null","",NA,NA,NA,NA,""
"image-keyboard-response",389,368714,"0.0-4.125-2.125","h0w8eb372ejs0ft",773,"171.csv","","null","resources/images/coin2.png","null","",NA,NA,NA,NA,""
"image-keyboard-response",390,369158,"0.0-4.126-0.126","h0w8eb372ejs0ft",773,"171.csv","","435","resources/trios/L1T4A3.jpg","38","restless",0.6,0.5,0.6,0.691445935303242,"false"
"image-keyboard-response",391,369568,"0.0-4.126-1.126","h0w8eb372ejs0ft",773,"171.csv","","null","resources/maskTrios/BT4B.jpg","null","",NA,NA,NA,NA,""
"image-keyboard-response",392,370778,"0.0-4.126-2.126","h0w8eb372ejs0ft",773,"171.csv","","null","resources/images/fishbone.png","null","",NA,NA,NA,NA,""
"image-keyboard-response",393,371090,"0.0-4.127-0.127","h0w8eb372ejs0ft",773,"171.csv","","304","resources/trios/L1T4A3.jpg","39","restless",0.6,0.5,0.6,0.517459527956935,"true"
"image-keyboard-response",394,371500,"0.0-4.127-1.127","h0w8eb372ejs0ft",773,"171.csv","","null","resources/maskTrios/BBA3.jpg","null","",NA,NA,NA,NA,""
"image-keyboard-response",395,372711,"0.0-4.127-2.127","h0w8eb372ejs0ft",773,"171.csv","","null","resources/images/coin2.png","null","",NA,NA,NA,NA,""
"image-keyboard-response",396,373003,"0.0-4.128-0.128","h0w8eb372ejs0ft",773,"171.csv","","281","resources/trios/L1T4A3.jpg","39","restless",0.6,0.5,0.5,0.194039361473258,"true"
"image-keyboard-response",397,373413,"0.0-4.128-1.128","h0w8eb372ejs0ft",773,"171.csv","","null","resources/maskTrios/BBA3.jpg","null","",NA,NA,NA,NA,""
"image-keyboard-response",398,374625,"0.0-4.128-2.128","h0w8eb372ejs0ft",773,"171.csv","","null","resources/images/coin2.png","null","",NA,NA,NA,NA,""
"image-keyboard-response",399,374970,"0.0-4.129-0.129","h0w8eb372ejs0ft",773,"171.csv","","334.0000000000582","resources/trios/L1T4A3.jpg","39","restless",0.5,0.5,0.5,0.588969487079014,"false"
"image-keyboard-response",400,375380,"0.0-4.129-1.129","h0w8eb372ejs0ft",773,"171.csv","","null","resources/maskTrios/BBA3.jpg","null","",NA,NA,NA,NA,""
"image-keyboard-response",401,376591,"0.0-4.129-2.129","h0w8eb372ejs0ft",773,"171.csv","","null","resources/images/fishbone.png","null","",NA,NA,NA,NA,""
"image-keyboard-response",402,377004,"0.0-4.130-0.130","h0w8eb372ejs0ft",773,"171.csv","","404","resources/trios/L1T4A3.jpg","38","restless",0.5,0.5,0.5,0.436456095457407,"true"
"image-keyboard-response",403,377410,"0.0-4.130-1.130","h0w8eb372ejs0ft",773,"171.csv","","null","resources/maskTrios/BT4B.jpg","null","",NA,NA,NA,NA,""
"image-keyboard-response",404,378620,"0.0-4.130-2.130","h0w8eb372ejs0ft",773,"171.csv","","null","resources/images/coin2.png","null","",NA,NA,NA,NA,""
"image-keyboard-response",405,379304,"0.0-4.131-0.131","h0w8eb372ejs0ft",773,"171.csv","","673","resources/trios/L1T4A3.jpg","38","restless",0.5,0.5,0.5,0.132617407370801,"true"
"image-keyboard-response",406,379712,"0.0-4.131-1.131","h0w8eb372ejs0ft",773,"171.csv","","null","resources/maskTrios/BT4B.jpg","null","",NA,NA,NA,NA,""
"image-keyboard-response",407,380924,"0.0-4.131-2.131","h0w8eb372ejs0ft",773,"171.csv","","null","resources/images/coin2.png","null","",NA,NA,NA,NA,""
"image-keyboard-response",408,381513,"0.0-4.132-0.132","h0w8eb372ejs0ft",773,"171.csv","","578","resources/trios/L1T4A3.jpg","38","restless",0.5,0.5,0.5,0.319059999165264,"true"
"image-keyboard-response",409,381923,"0.0-4.132-1.132","h0w8eb372ejs0ft",773,"171.csv","","null","resources/maskTrios/BT4B.jpg","null","",NA,NA,NA,NA,""
"image-keyboard-response",410,383132,"0.0-4.132-2.132","h0w8eb372ejs0ft",773,"171.csv","","null","resources/images/coin2.png","null","",NA,NA,NA,NA,""
"image-keyboard-response",411,383637,"0.0-4.133-0.133","h0w8eb372ejs0ft",773,"171.csv","","496","resources/trios/L1T4A3.jpg","37","restless",0.6,0.5,0.5,0.221369550571158,"true"
"image-keyboard-response",412,384047,"0.0-4.133-1.133","h0w8eb372ejs0ft",773,"171.csv","","null","resources/maskTrios/L1BB.jpg","null","",NA,NA,NA,NA,""
"image-keyboard-response",413,385256,"0.0-4.133-2.133","h0w8eb372ejs0ft",773,"171.csv","","null","resources/images/coin2.png","null","",NA,NA,NA,NA,""
"image-keyboard-response",414,385641,"0.0-4.134-0.134","h0w8eb372ejs0ft",773,"171.csv","","376","resources/trios/L1T4A3.jpg","37","restless",0.6,0.6,0.5,0.0816215287483315,"true"
"image-keyboard-response",415,386050,"0.0-4.134-1.134","h0w8eb372ejs0ft",773,"171.csv","","null","resources/maskTrios/L1BB.jpg","null","",NA,NA,NA,NA,""
"image-keyboard-response",416,387260,"0.0-4.134-2.134","h0w8eb372ejs0ft",773,"171.csv","","null","resources/images/coin2.png","null","",NA,NA,NA,NA,""
"image-keyboard-response",417,387479,"0.0-4.135-0.135","h0w8eb372ejs0ft",773,"171.csv","","209","resources/trios/L1T4A3.jpg","37","restless",0.6,0.6,0.5,0.380629779463471,"true"
"image-keyboard-response",418,387888,"0.0-4.135-1.135","h0w8eb372ejs0ft",773,"171.csv","","null","resources/maskTrios/L1BB.jpg","null","",NA,NA,NA,NA,""
"image-keyboard-response",419,389098,"0.0-4.135-2.135","h0w8eb372ejs0ft",773,"171.csv","","null","resources/images/coin2.png","null","",NA,NA,NA,NA,""
"image-keyboard-response",420,389823,"0.0-4.136-0.136","h0w8eb372ejs0ft",773,"171.csv","","714","resources/trios/L1T4A3.jpg","37","restless",0.6,0.6,0.5,0.171081444174321,"true"
"image-keyboard-response",421,390230,"0.0-4.136-1.136","h0w8eb372ejs0ft",773,"171.csv","","null","resources/maskTrios/L1BB.jpg","null","",NA,NA,NA,NA,""
"image-keyboard-response",422,391439,"0.0-4.136-2.136","h0w8eb372ejs0ft",773,"171.csv","","null","resources/images/coin2.png","null","",NA,NA,NA,NA,""
"image-keyboard-response",423,391587,"0.0-4.137-0.137","h0w8eb372ejs0ft",773,"171.csv","","136","resources/trios/L1T4A3.jpg","37","restless",0.6,0.6,0.5,0.155751958781283,"true"
"image-keyboard-response",424,391998,"0.0-4.137-1.137","h0w8eb372ejs0ft",773,"171.csv","","null","resources/maskTrios/L1BB.jpg","null","",NA,NA,NA,NA,""
"image-keyboard-response",425,393210,"0.0-4.137-2.137","h0w8eb372ejs0ft",773,"171.csv","","null","resources/images/coin2.png","null","",NA,NA,NA,NA,""
"image-keyboard-response",426,393517,"0.0-4.138-0.138","h0w8eb372ejs0ft",773,"171.csv","","298","resources/trios/L1T4A3.jpg","37","restless",0.6,0.6,0.4,0.895563978207013,"false"
"image-keyboard-response",427,393928,"0.0-4.138-1.138","h0w8eb372ejs0ft",773,"171.csv","","null","resources/maskTrios/L1BB.jpg","null","",NA,NA,NA,NA,""
"image-keyboard-response",428,395137,"0.0-4.138-2.138","h0w8eb372ejs0ft",773,"171.csv","","null","resources/images/fishbone.png","null","",NA,NA,NA,NA,""
"image-keyboard-response",429,395407,"0.0-4.139-0.139","h0w8eb372ejs0ft",773,"171.csv","","258.9999999999418","resources/trios/L1T4A3.jpg","39","restless",0.6,0.6,0.4,0.84985357797101,"false"
"image-keyboard-response",430,395816,"0.0-4.139-1.139","h0w8eb372ejs0ft",773,"171.csv","","null","resources/maskTrios/BBA3.jpg","null","",NA,NA,NA,NA,""
"image-keyboard-response",431,397026,"0.0-4.139-2.139","h0w8eb372ejs0ft",773,"171.csv","","null","resources/images/fishbone.png","null","",NA,NA,NA,NA,""
"image-keyboard-response",432,398030,"0.0-4.140-0.140","h0w8eb372ejs0ft",773,"171.csv","","993","resources/trios/L1T4A3.jpg","38","restless",0.6,0.6,0.4,0.218337242042185,"true"
"image-keyboard-response",433,398438,"0.0-4.140-1.140","h0w8eb372ejs0ft",773,"171.csv","","null","resources/maskTrios/BT4B.jpg","null","",NA,NA,NA,NA,""
"image-keyboard-response",434,399650,"0.0-4.140-2.140","h0w8eb372ejs0ft",773,"171.csv","","null","resources/images/coin2.png","null","",NA,NA,NA,NA,""
"image-keyboard-response",435,399956,"0.0-4.141-0.141","h0w8eb372ejs0ft",773,"171.csv","","298","resources/trios/L1T4A3.jpg","38","restless",0.6,0.6,0.4,0.644791665210222,"false"
"image-keyboard-response",436,400366,"0.0-4.141-1.141","h0w8eb372ejs0ft",773,"171.csv","","null","resources/maskTrios/BT4B.jpg","null","",NA,NA,NA,NA,""
"image-keyboard-response",437,401577,"0.0-4.141-2.141","h0w8eb372ejs0ft",773,"171.csv","","null","resources/images/fishbone.png","null","",NA,NA,NA,NA,""
"image-keyboard-response",438,402304,"0.0-4.142-0.142","h0w8eb372ejs0ft",773,"171.csv","","718","resources/trios/L1T4A3.jpg","39","restless",0.6,0.6,0.4,0.517035574567118,"false"
"image-keyboard-response",439,402712,"0.0-4.142-1.142","h0w8eb372ejs0ft",773,"171.csv","","null","resources/maskTrios/BBA3.jpg","null","",NA,NA,NA,NA,""
"image-keyboard-response",440,403921,"0.0-4.142-2.142","h0w8eb372ejs0ft",773,"171.csv","","null","resources/images/fishbone.png","null","",NA,NA,NA,NA,""
"image-keyboard-response",441,404174,"0.0-4.143-0.143","h0w8eb372ejs0ft",773,"171.csv","","245","resources/trios/L1T4A3.jpg","37","restless",0.6,0.6,0.4,0.368994073094057,"true"
"image-keyboard-response",442,404583,"0.0-4.143-1.143","h0w8eb372ejs0ft",773,"171.csv","","null","resources/maskTrios/L1BB.jpg","null","",NA,NA,NA,NA,""
"image-keyboard-response",443,405792,"0.0-4.143-2.143","h0w8eb372ejs0ft",773,"171.csv","","null","resources/images/coin2.png","null","",NA,NA,NA,NA,""
"image-keyboard-response",444,406077,"0.0-4.144-0.144","h0w8eb372ejs0ft",773,"171.csv","","275.0000000000582","resources/trios/L1T4A3.jpg","37","restless",0.6,0.6,0.4,0.479395631638273,"true"
"image-keyboard-response",445,406486,"0.0-4.144-1.144","h0w8eb372ejs0ft",773,"171.csv","","null","resources/maskTrios/L1BB.jpg","null","",NA,NA,NA,NA,""
"image-keyboard-response",446,407696,"0.0-4.144-2.144","h0w8eb372ejs0ft",773,"171.csv","","null","resources/images/coin2.png","null","",NA,NA,NA,NA,""
"image-keyboard-response",447,410153,"0.0-4.145-0.145","h0w8eb372ejs0ft",773,"171.csv","","2445.999999999942","resources/trios/L1T4A3.jpg","37","restless",0.6,0.6,0.4,0.171112093790334,"true"
"image-keyboard-response",448,410562,"0.0-4.145-1.145","h0w8eb372ejs0ft",773,"171.csv","","null","resources/maskTrios/L1BB.jpg","null","",NA,NA,NA,NA,""
"image-keyboard-response",449,411772,"0.0-4.145-2.145","h0w8eb372ejs0ft",773,"171.csv","","null","resources/images/coin2.png","null","",NA,NA,NA,NA,""
"image-keyboard-response",450,412428,"0.0-4.146-0.146","h0w8eb372ejs0ft",773,"171.csv","","645.0000000000582","resources/trios/L1T4A3.jpg","37","restless",0.6,0.6,0.4,0.265272757251873,"true"
"image-keyboard-response",451,412837,"0.0-4.146-1.146","h0w8eb372ejs0ft",773,"171.csv","","null","resources/maskTrios/L1BB.jpg","null","",NA,NA,NA,NA,""
"image-keyboard-response",452,414047,"0.0-4.146-2.146","h0w8eb372ejs0ft",773,"171.csv","","null","resources/images/coin2.png","null","",NA,NA,NA,NA,""
"image-keyboard-response",453,414469,"0.0-4.147-0.147","h0w8eb372ejs0ft",773,"171.csv","","413.0000000000582","resources/trios/L1T4A3.jpg","37","restless",0.6,0.6,0.4,0.460449329277754,"true"
"image-keyboard-response",454,414879,"0.0-4.147-1.147","h0w8eb372ejs0ft",773,"171.csv","","null","resources/maskTrios/L1BB.jpg","null","",NA,NA,NA,NA,""
"image-keyboard-response",455,416092,"0.0-4.147-2.147","h0w8eb372ejs0ft",773,"171.csv","","null","resources/images/coin2.png","null","",NA,NA,NA,NA,""
"image-keyboard-response",456,416479,"0.0-4.148-0.148","h0w8eb372ejs0ft",773,"171.csv","","378","resources/trios/L1T4A3.jpg","37","restless",0.6,0.6,0.4,0.577759964162776,"true"
"image-keyboard-response",457,416888,"0.0-4.148-1.148","h0w8eb372ejs0ft",773,"171.csv","","null","resources/maskTrios/L1BB.jpg","null","",NA,NA,NA,NA,""
"image-keyboard-response",458,418098,"0.0-4.148-2.148","h0w8eb372ejs0ft",773,"171.csv","","null","resources/images/coin2.png","null","",NA,NA,NA,NA,""
"image-keyboard-response",459,418482,"0.0-4.149-0.149","h0w8eb372ejs0ft",773,"171.csv","","375","resources/trios/L1T4A3.jpg","37","restless",0.6,0.7,0.5,0.102617026980277,"true"
"image-keyboard-response",460,418891,"0.0-4.149-1.149","h0w8eb372ejs0ft",773,"171.csv","","null","resources/maskTrios/L1BB.jpg","null","",NA,NA,NA,NA,""
"image-keyboard-response",461,420102,"0.0-4.149-2.149","h0w8eb372ejs0ft",773,"171.csv","","null","resources/images/coin2.png","null","",NA,NA,NA,NA,""
"image-keyboard-response",462,420529,"0.0-4.150-0.150","h0w8eb372ejs0ft",773,"171.csv","","419","resources/trios/L1T4A3.jpg","38","restless",0.6,0.7,0.5,0.889163539994039,"false"
"image-keyboard-response",463,420939,"0.0-4.150-1.150","h0w8eb372ejs0ft",773,"171.csv","","null","resources/maskTrios/BT4B.jpg","null","",NA,NA,NA,NA,""
"image-keyboard-response",464,422149,"0.0-4.150-2.150","h0w8eb372ejs0ft",773,"171.csv","","null","resources/images/fishbone.png","null","",NA,NA,NA,NA,""
"image-keyboard-response",465,422834,"0.0-4.151-0.151","h0w8eb372ejs0ft",773,"171.csv","","674","resources/trios/L1T4A3.jpg","39","restless",0.6,0.7,0.5,0.489756478341497,"true"
"image-keyboard-response",466,423242,"0.0-4.151-1.151","h0w8eb372ejs0ft",773,"171.csv","","null","resources/maskTrios/BBA3.jpg","null","",NA,NA,NA,NA,""
"image-keyboard-response",467,424451,"0.0-4.151-2.151","h0w8eb372ejs0ft",773,"171.csv","","null","resources/images/coin2.png","null","",NA,NA,NA,NA,""
"image-keyboard-response",468,424858,"0.0-4.152-0.152","h0w8eb372ejs0ft",773,"171.csv","","398","resources/trios/L1T4A3.jpg","39","restless",0.6,0.7,0.5,0.318988038121496,"true"
"image-keyboard-response",469,425267,"0.0-4.152-1.152","h0w8eb372ejs0ft",773,"171.csv","","null","resources/maskTrios/BBA3.jpg","null","",NA,NA,NA,NA,""
"image-keyboard-response",470,426477,"0.0-4.152-2.152","h0w8eb372ejs0ft",773,"171.csv","","null","resources/images/coin2.png","null","",NA,NA,NA,NA,""
"image-keyboard-response",471,426717,"0.0-4.153-0.153","h0w8eb372ejs0ft",773,"171.csv","","231","resources/trios/L1T4A3.jpg","39","restless",0.6,0.7,0.5,0.311934258769569,"true"
"image-keyboard-response",472,427126,"0.0-4.153-1.153","h0w8eb372ejs0ft",773,"171.csv","","null","resources/maskTrios/BBA3.jpg","null","",NA,NA,NA,NA,""
"image-keyboard-response",473,428336,"0.0-4.153-2.153","h0w8eb372ejs0ft",773,"171.csv","","null","resources/images/coin2.png","null","",NA,NA,NA,NA,""
"image-keyboard-response",474,428616,"0.0-4.154-0.154","h0w8eb372ejs0ft",773,"171.csv","","270","resources/trios/L1T4A3.jpg","39","restless",0.6,0.7,0.5,0.0453957948171303,"true"
"image-keyboard-response",475,429025,"0.0-4.154-1.154","h0w8eb372ejs0ft",773,"171.csv","","null","resources/maskTrios/BBA3.jpg","null","",NA,NA,NA,NA,""
"image-keyboard-response",476,430235,"0.0-4.154-2.154","h0w8eb372ejs0ft",773,"171.csv","","null","resources/images/coin2.png","null","",NA,NA,NA,NA,""
"image-keyboard-response",477,430606,"0.0-4.155-0.155","h0w8eb372ejs0ft",773,"171.csv","","361.0000000000582","resources/trios/L1T4A3.jpg","39","restless",0.6,0.7,0.4,0.659981689504504,"false"
"image-keyboard-response",478,431015,"0.0-4.155-1.155","h0w8eb372ejs0ft",773,"171.csv","","null","resources/maskTrios/BBA3.jpg","null","",NA,NA,NA,NA,""
"image-keyboard-response",479,432224,"0.0-4.155-2.155","h0w8eb372ejs0ft",773,"171.csv","","null","resources/images/fishbone.png","null","",NA,NA,NA,NA,""
"image-keyboard-response",480,432587,"0.0-4.156-0.156","h0w8eb372ejs0ft",773,"171.csv","","354","resources/trios/L1T4A3.jpg","37","restless",0.5,0.7,0.4,0.560971403624372,"false"
"image-keyboard-response",481,432997,"0.0-4.156-1.156","h0w8eb372ejs0ft",773,"171.csv","","null","resources/maskTrios/L1BB.jpg","null","",NA,NA,NA,NA,""
"image-keyboard-response",482,434207,"0.0-4.156-2.156","h0w8eb372ejs0ft",773,"171.csv","","null","resources/images/fishbone.png","null","",NA,NA,NA,NA,""
"image-keyboard-response",483,434555,"0.0-4.157-0.157","h0w8eb372ejs0ft",773,"171.csv","","339","resources/trios/L1T4A3.jpg","38","restless",0.5,0.7,0.4,0.899635157894913,"false"
"image-keyboard-response",484,434963,"0.0-4.157-1.157","h0w8eb372ejs0ft",773,"171.csv","","null","resources/maskTrios/BT4B.jpg","null","",NA,NA,NA,NA,""
"image-keyboard-response",485,436171,"0.0-4.157-2.157","h0w8eb372ejs0ft",773,"171.csv","","null","resources/images/fishbone.png","null","",NA,NA,NA,NA,""
"image-keyboard-response",486,436237,"0.0-4.158-0.158","h0w8eb372ejs0ft",773,"171.csv","","58","resources/trios/L1T4A3.jpg","39","restless",0.6,0.7,0.3,0.151959653234658,"true"
"image-keyboard-response",487,436646,"0.0-4.158-1.158","h0w8eb372ejs0ft",773,"171.csv","","null","resources/maskTrios/BBA3.jpg","null","",NA,NA,NA,NA,""
"image-keyboard-response",488,437856,"0.0-4.158-2.158","h0w8eb372ejs0ft",773,"171.csv","","null","resources/images/coin2.png","null","",NA,NA,NA,NA,""
"image-keyboard-response",489,438165,"0.0-4.159-0.159","h0w8eb372ejs0ft",773,"171.csv","","299.0000000000582","resources/trios/L1T4A3.jpg","39","restless",0.6,0.6,0.3,0.956199480096479,"false"
"image-keyboard-response",490,438575,"0.0-4.159-1.159","h0w8eb372ejs0ft",773,"171.csv","","null","resources/maskTrios/BBA3.jpg","null","",NA,NA,NA,NA,""
"image-keyboard-response",491,439785,"0.0-4.159-2.159","h0w8eb372ejs0ft",773,"171.csv","","null","resources/images/fishbone.png","null","",NA,NA,NA,NA,""
"image-keyboard-response",492,440067,"0.0-4.160-0.160","h0w8eb372ejs0ft",773,"171.csv","","271","resources/trios/L1T4A3.jpg","38","restless",0.6,0.6,0.3,0.528779297232765,"true"
"image-keyboard-response",493,440477,"0.0-4.160-1.160","h0w8eb372ejs0ft",773,"171.csv","","null","resources/maskTrios/BT4B.jpg","null","",NA,NA,NA,NA,""
"image-keyboard-response",494,441686,"0.0-4.160-2.160","h0w8eb372ejs0ft",773,"171.csv","","null","resources/images/coin2.png","null","",NA,NA,NA,NA,""
"image-keyboard-response",495,441906,"0.0-4.161-0.161","h0w8eb372ejs0ft",773,"171.csv","","210","resources/trios/L1T4A3.jpg","38","restless",0.6,0.6,0.3,0.727705133713839,"false"
"image-keyboard-response",496,442314,"0.0-4.161-1.161","h0w8eb372ejs0ft",773,"171.csv","","null","resources/maskTrios/BT4B.jpg","null","",NA,NA,NA,NA,""
"image-keyboard-response",497,443524,"0.0-4.161-2.161","h0w8eb372ejs0ft",773,"171.csv","","null","resources/images/fishbone.png","null","",NA,NA,NA,NA,""
"image-keyboard-response",498,443800,"0.0-4.162-0.162","h0w8eb372ejs0ft",773,"171.csv","","265","resources/trios/L1T4A3.jpg","39","restless",0.6,0.7,0.3,0.510184611483064,"false"
"image-keyboard-response",499,444211,"0.0-4.162-1.162","h0w8eb372ejs0ft",773,"171.csv","","null","resources/maskTrios/BBA3.jpg","null","",NA,NA,NA,NA,""
"image-keyboard-response",500,445422,"0.0-4.162-2.162","h0w8eb372ejs0ft",773,"171.csv","","null","resources/images/fishbone.png","null","",NA,NA,NA,NA,""
"image-keyboard-response",501,445721,"0.0-4.163-0.163","h0w8eb372ejs0ft",773,"171.csv","","289.9999999999418","resources/trios/L1T4A3.jpg","38","restless",0.6,0.7,0.3,0.820848195588373,"false"
"image-keyboard-response",502,446130,"0.0-4.163-1.163","h0w8eb372ejs0ft",773,"171.csv","","null","resources/maskTrios/BT4B.jpg","null","",NA,NA,NA,NA,""
"image-keyboard-response",503,447341,"0.0-4.163-2.163","h0w8eb372ejs0ft",773,"171.csv","","null","resources/images/fishbone.png","null","",NA,NA,NA,NA,""
"image-keyboard-response",504,448162,"0.0-4.164-0.164","h0w8eb372ejs0ft",773,"171.csv","","813","resources/trios/L1T4A3.jpg","37","restless",0.6,0.7,0.3,0.726920283645016,"false"
"image-keyboard-response",505,448572,"0.0-4.164-1.164","h0w8eb372ejs0ft",773,"171.csv","","null","resources/maskTrios/L1BB.jpg","null","",NA,NA,NA,NA,""
"image-keyboard-response",506,449781,"0.0-4.164-2.164","h0w8eb372ejs0ft",773,"171.csv","","null","resources/images/fishbone.png","null","",NA,NA,NA,NA,""
"image-keyboard-response",507,450042,"0.0-4.165-0.165","h0w8eb372ejs0ft",773,"171.csv","","253","resources/trios/L1T4A3.jpg","38","restless",0.6,0.7,0.4,0.79329230196969,"false"
"image-keyboard-response",508,450451,"0.0-4.165-1.165","h0w8eb372ejs0ft",773,"171.csv","","null","resources/maskTrios/BT4B.jpg","null","",NA,NA,NA,NA,""
"image-keyboard-response",509,451662,"0.0-4.165-2.165","h0w8eb372ejs0ft",773,"171.csv","","null","resources/images/fishbone.png","null","",NA,NA,NA,NA,""
"image-keyboard-response",510,451968,"0.0-4.166-0.166","h0w8eb372ejs0ft",773,"171.csv","","298","resources/trios/L1T4A3.jpg","37","restless",0.6,0.7,0.4,0.719509894865164,"false"
"image-keyboard-response",511,452376,"0.0-4.166-1.166","h0w8eb372ejs0ft",773,"171.csv","","null","resources/maskTrios/L1BB.jpg","null","",NA,NA,NA,NA,""
"image-keyboard-response",512,453581,"0.0-4.166-2.166","h0w8eb372ejs0ft",773,"171.csv","","null","resources/images/fishbone.png","null","",NA,NA,NA,NA,""
"image-keyboard-response",513,453917,"0.0-4.167-0.167","h0w8eb372ejs0ft",773,"171.csv","","328","resources/trios/L1T4A3.jpg","39","restless",0.5,0.7,0.4,0.955595687088933,"false"
"image-keyboard-response",514,454327,"0.0-4.167-1.167","h0w8eb372ejs0ft",773,"171.csv","","null","resources/maskTrios/BBA3.jpg","null","",NA,NA,NA,NA,""
"image-keyboard-response",515,455536,"0.0-4.167-2.167","h0w8eb372ejs0ft",773,"171.csv","","null","resources/images/fishbone.png","null","",NA,NA,NA,NA,""
"image-keyboard-response",516,456052,"0.0-4.168-0.168","h0w8eb372ejs0ft",773,"171.csv","","506","resources/trios/L1T4A3.jpg","38","restless",0.5,0.7,0.4,0.249877851290045,"true"
"image-keyboard-response",517,456462,"0.0-4.168-1.168","h0w8eb372ejs0ft",773,"171.csv","","null","resources/maskTrios/BT4B.jpg","null","",NA,NA,NA,NA,""
"image-keyboard-response",518,457674,"0.0-4.168-2.168","h0w8eb372ejs0ft",773,"171.csv","","null","resources/images/coin2.png","null","",NA,NA,NA,NA,""
"image-keyboard-response",519,457911,"0.0-4.169-0.169","h0w8eb372ejs0ft",773,"171.csv","","227","resources/trios/L1T4A3.jpg","38","restless",0.5,0.7,0.4,0.875003201003951,"false"
"image-keyboard-response",520,458319,"0.0-4.169-1.169","h0w8eb372ejs0ft",773,"171.csv","","null","resources/maskTrios/BT4B.jpg","null","",NA,NA,NA,NA,""
"image-keyboard-response",521,459530,"0.0-4.169-2.169","h0w8eb372ejs0ft",773,"171.csv","","null","resources/images/fishbone.png","null","",NA,NA,NA,NA,""
"image-keyboard-response",522,459545,"0.0-4.170-0.170","h0w8eb372ejs0ft",773,"171.csv","","5.999999999941792","resources/trios/L1T4A3.jpg","39","restless",0.5,0.7,0.4,0.830753637206239,"false"
"image-keyboard-response",523,459950,"0.0-4.170-1.170","h0w8eb372ejs0ft",773,"171.csv","","null","resources/maskTrios/BBA3.jpg","null","",NA,NA,NA,NA,""
"image-keyboard-response",524,461160,"0.0-4.170-2.170","h0w8eb372ejs0ft",773,"171.csv","","null","resources/images/fishbone.png","null","",NA,NA,NA,NA,""
"image-keyboard-response",525,461622,"0.0-4.171-0.171","h0w8eb372ejs0ft",773,"171.csv","","451","resources/trios/L1T4A3.jpg","37","restless",0.6,0.7,0.4,0.325707768494872,"true"
"image-keyboard-response",526,462032,"0.0-4.171-1.171","h0w8eb372ejs0ft",773,"171.csv","","null","resources/maskTrios/L1BB.jpg","null","",NA,NA,NA,NA,""
"image-keyboard-response",527,463241,"0.0-4.171-2.171","h0w8eb372ejs0ft",773,"171.csv","","null","resources/images/coin2.png","null","",NA,NA,NA,NA,""
"image-keyboard-response",528,464094,"0.0-4.172-0.172","h0w8eb372ejs0ft",773,"171.csv","","843","resources/trios/L1T4A3.jpg","37","restless",0.6,0.7,0.4,0.137977235261757,"true"
"image-keyboard-response",529,464503,"0.0-4.172-1.172","h0w8eb372ejs0ft",773,"171.csv","","null","resources/maskTrios/L1BB.jpg","null","",NA,NA,NA,NA,""
"image-keyboard-response",530,465713,"0.0-4.172-2.172","h0w8eb372ejs0ft",773,"171.csv","","null","resources/images/coin2.png","null","",NA,NA,NA,NA,""
"image-keyboard-response",531,465750,"0.0-4.173-0.173","h0w8eb372ejs0ft",773,"171.csv","","29","resources/trios/L1T4A3.jpg","37","restless",0.6,0.7,0.4,0.419415417818061,"true"
"image-keyboard-response",532,466155,"0.0-4.173-1.173","h0w8eb372ejs0ft",773,"171.csv","","null","resources/maskTrios/L1BB.jpg","null","",NA,NA,NA,NA,""
"image-keyboard-response",533,467366,"0.0-4.173-2.173","h0w8eb372ejs0ft",773,"171.csv","","null","resources/images/coin2.png","null","",NA,NA,NA,NA,""
"image-keyboard-response",534,467884,"0.0-4.174-0.174","h0w8eb372ejs0ft",773,"171.csv","","513","resources/trios/L1T4A3.jpg","37","restless",0.6,0.7,0.4,0.584803369736973,"true"
"image-keyboard-response",535,468295,"0.0-4.174-1.174","h0w8eb372ejs0ft",773,"171.csv","","null","resources/maskTrios/L1BB.jpg","null","",NA,NA,NA,NA,""
"image-keyboard-response",536,469507,"0.0-4.174-2.174","h0w8eb372ejs0ft",773,"171.csv","","null","resources/images/coin2.png","null","",NA,NA,NA,NA,""
"image-keyboard-response",537,469612,"0.0-4.175-0.175","h0w8eb372ejs0ft",773,"171.csv","","96","resources/trios/L1T4A3.jpg","37","restless",0.7,0.7,0.4,0.145548640721299,"true"
"image-keyboard-response",538,470021,"0.0-4.175-1.175","h0w8eb372ejs0ft",773,"171.csv","","null","resources/maskTrios/L1BB.jpg","null","",NA,NA,NA,NA,""
"image-keyboard-response",539,471232,"0.0-4.175-2.175","h0w8eb372ejs0ft",773,"171.csv","","null","resources/images/coin2.png","null","",NA,NA,NA,NA,""
"image-keyboard-response",540,471323,"0.0-4.176-0.176","h0w8eb372ejs0ft",773,"171.csv","","80","resources/trios/L1T4A3.jpg","37","restless",0.7,0.7,0.4,0.348108276900434,"true"
"image-keyboard-response",541,471732,"0.0-4.176-1.176","h0w8eb372ejs0ft",773,"171.csv","","null","resources/maskTrios/L1BB.jpg","null","",NA,NA,NA,NA,""
"image-keyboard-response",542,472941,"0.0-4.176-2.176","h0w8eb372ejs0ft",773,"171.csv","","null","resources/images/coin2.png","null","",NA,NA,NA,NA,""
"image-keyboard-response",543,473814,"0.0-4.177-0.177","h0w8eb372ejs0ft",773,"171.csv","","862.0000000000582","resources/trios/L1T4A3.jpg","37","restless",0.7,0.8,0.4,0.307698377146715,"true"
"image-keyboard-response",544,474222,"0.0-4.177-1.177","h0w8eb372ejs0ft",773,"171.csv","","null","resources/maskTrios/L1BB.jpg","null","",NA,NA,NA,NA,""
"image-keyboard-response",545,475434,"0.0-4.177-2.177","h0w8eb372ejs0ft",773,"171.csv","","null","resources/images/coin2.png","null","",NA,NA,NA,NA,""
"image-keyboard-response",546,475635,"0.0-4.178-0.178","h0w8eb372ejs0ft",773,"171.csv","","191.9999999999418","resources/trios/L1T4A3.jpg","37","restless",0.7,0.8,0.4,0.983598890263084,"false"
"image-keyboard-response",547,476043,"0.0-4.178-1.178","h0w8eb372ejs0ft",773,"171.csv","","null","resources/maskTrios/L1BB.jpg","null","",NA,NA,NA,NA,""
"image-keyboard-response",548,477255,"0.0-4.178-2.178","h0w8eb372ejs0ft",773,"171.csv","","null","resources/images/fishbone.png","null","",NA,NA,NA,NA,""
"image-keyboard-response",549,477648,"0.0-4.179-0.179","h0w8eb372ejs0ft",773,"171.csv","","384","resources/trios/L1T4A3.jpg","38","restless",0.7,0.8,0.4,0.61741060948132,"true"
"image-keyboard-response",550,478055,"0.0-4.179-1.179","h0w8eb372ejs0ft",773,"171.csv","","null","resources/maskTrios/BT4B.jpg","null","",NA,NA,NA,NA,""
"image-keyboard-response",551,479267,"0.0-4.179-2.179","h0w8eb372ejs0ft",773,"171.csv","","null","resources/images/coin2.png","null","",NA,NA,NA,NA,""
"image-keyboard-response",552,480223,"0.0-4.180-0.180","h0w8eb372ejs0ft",773,"171.csv","","950","resources/trios/L1T4A3.jpg","38","restless",0.7,0.8,0.4,0.20338994282696,"true"
"image-keyboard-response",553,480630,"0.0-4.180-1.180","h0w8eb372ejs0ft",773,"171.csv","","null","resources/maskTrios/BT4B.jpg","null","",NA,NA,NA,NA,""
"image-keyboard-response",554,481839,"0.0-4.180-2.180","h0w8eb372ejs0ft",773,"171.csv","","null","resources/images/coin2.png","null","",NA,NA,NA,NA,""
"image-keyboard-response",555,482733,"0.0-4.181-0.181","h0w8eb372ejs0ft",773,"171.csv","","885","resources/trios/L1T4A3.jpg","39","restless",0.7,0.8,0.4,0.08082323500449,"true"
"image-keyboard-response",556,483143,"0.0-4.181-1.181","h0w8eb372ejs0ft",773,"171.csv","","null","resources/maskTrios/BBA3.jpg","null","",NA,NA,NA,NA,""
"image-keyboard-response",557,484355,"0.0-4.181-2.181","h0w8eb372ejs0ft",773,"171.csv","","null","resources/images/coin2.png","null","",NA,NA,NA,NA,""
"image-keyboard-response",558,484692,"0.0-4.182-0.182","h0w8eb372ejs0ft",773,"171.csv","","325.9999999999418","resources/trios/L1T4A3.jpg","39","restless",0.7,0.8,0.4,0.94050468683576,"false"
"image-keyboard-response",559,485102,"0.0-4.182-1.182","h0w8eb372ejs0ft",773,"171.csv","","null","resources/maskTrios/BBA3.jpg","null","",NA,NA,NA,NA,""
"image-keyboard-response",560,486311,"0.0-4.182-2.182","h0w8eb372ejs0ft",773,"171.csv","","null","resources/images/fishbone.png","null","",NA,NA,NA,NA,""
"image-keyboard-response",561,486609,"0.0-4.183-0.183","h0w8eb372ejs0ft",773,"171.csv","","288","resources/trios/L1T4A3.jpg","38","restless",0.7,0.8,0.4,0.339702409740315,"true"
"image-keyboard-response",562,487017,"0.0-4.183-1.183","h0w8eb372ejs0ft",773,"171.csv","","null","resources/maskTrios/BT4B.jpg","null","",NA,NA,NA,NA,""
"image-keyboard-response",563,488225,"0.0-4.183-2.183","h0w8eb372ejs0ft",773,"171.csv","","null","resources/images/coin2.png","null","",NA,NA,NA,NA,""
"image-keyboard-response",564,488385,"0.0-4.184-0.184","h0w8eb372ejs0ft",773,"171.csv","","150.0000000000582","resources/trios/L1T4A3.jpg","38","restless",0.7,0.8,0.4,0.518154309885477,"true"
"image-keyboard-response",565,488795,"0.0-4.184-1.184","h0w8eb372ejs0ft",773,"171.csv","","null","resources/maskTrios/BT4B.jpg","null","",NA,NA,NA,NA,""
"image-keyboard-response",566,490005,"0.0-4.184-2.184","h0w8eb372ejs0ft",773,"171.csv","","null","resources/images/coin2.png","null","",NA,NA,NA,NA,""
"image-keyboard-response",567,490868,"0.0-4.185-0.185","h0w8eb372ejs0ft",773,"171.csv","","852.9999999999418","resources/trios/L1T4A3.jpg","38","restless",0.7,0.8,0.4,0.193823866932125,"true"
"image-keyboard-response",568,491276,"0.0-4.185-1.185","h0w8eb372ejs0ft",773,"171.csv","","null","resources/maskTrios/BT4B.jpg","null","",NA,NA,NA,NA,""
"image-keyboard-response",569,492486,"0.0-4.185-2.185","h0w8eb372ejs0ft",773,"171.csv","","null","resources/images/coin2.png","null","",NA,NA,NA,NA,""
"image-keyboard-response",570,492518,"0.0-4.186-0.186","h0w8eb372ejs0ft",773,"171.csv","","24","resources/trios/L1T4A3.jpg","38","restless",0.7,0.8,0.4,0.455309603606538,"true"
"image-keyboard-response",571,492924,"0.0-4.186-1.186","h0w8eb372ejs0ft",773,"171.csv","","null","resources/maskTrios/BT4B.jpg","null","",NA,NA,NA,NA,""
"image-keyboard-response",572,494134,"0.0-4.186-2.186","h0w8eb372ejs0ft",773,"171.csv","","null","resources/images/coin2.png","null","",NA,NA,NA,NA,""
"image-keyboard-response",573,495351,"0.0-4.187-0.187","h0w8eb372ejs0ft",773,"171.csv","","1207","resources/trios/L1T4A3.jpg","38","restless",0.7,0.8,0.4,0.194840774886068,"true"
"image-keyboard-response",574,495759,"0.0-4.187-1.187","h0w8eb372ejs0ft",773,"171.csv","","null","resources/maskTrios/BT4B.jpg","null","",NA,NA,NA,NA,""
"image-keyboard-response",575,496969,"0.0-4.187-2.187","h0w8eb372ejs0ft",773,"171.csv","","null","resources/images/coin2.png","null","",NA,NA,NA,NA,""
"image-keyboard-response",576,498310,"0.0-4.188-0.188","h0w8eb372ejs0ft",773,"171.csv","","1330.9999999999418","resources/trios/L1T4A3.jpg","38","restless",0.7,0.8,0.4,0.387683690407915,"true"
"image-keyboard-response",577,498721,"0.0-4.188-1.188","h0w8eb372ejs0ft",773,"171.csv","","null","resources/maskTrios/BT4B.jpg","null","",NA,NA,NA,NA,""
"image-keyboard-response",578,499930,"0.0-4.188-2.188","h0w8eb372ejs0ft",773,"171.csv","","null","resources/images/coin2.png","null","",NA,NA,NA,NA,""
"image-keyboard-response",579,500530,"0.0-4.189-0.189","h0w8eb372ejs0ft",773,"171.csv","","590","resources/trios/L1T4A3.jpg","37","restless",0.7,0.8,0.4,0.368021897105178,"true"
"image-keyboard-response",580,500942,"0.0-4.189-1.189","h0w8eb372ejs0ft",773,"171.csv","","null","resources/maskTrios/L1BB.jpg","null","",NA,NA,NA,NA,""
"image-keyboard-response",581,502153,"0.0-4.189-2.189","h0w8eb372ejs0ft",773,"171.csv","","null","resources/images/coin2.png","null","",NA,NA,NA,NA,""
"image-keyboard-response",582,502706,"0.0-4.190-0.190","h0w8eb372ejs0ft",773,"171.csv","","542","resources/trios/L1T4A3.jpg","38","restless",0.7,0.8,0.4,0.0729798323014997,"true"
"image-keyboard-response",583,503115,"0.0-4.190-1.190","h0w8eb372ejs0ft",773,"171.csv","","null","resources/maskTrios/BT4B.jpg","null","",NA,NA,NA,NA,""
"image-keyboard-response",584,504328,"0.0-4.190-2.190","h0w8eb372ejs0ft",773,"171.csv","","null","resources/images/coin2.png","null","",NA,NA,NA,NA,""
"image-keyboard-response",585,504708,"0.0-4.191-0.191","h0w8eb372ejs0ft",773,"171.csv","","370","resources/trios/L1T4A3.jpg","38","restless",0.7,0.8,0.4,0.0990732008311105,"true"
"image-keyboard-response",586,505119,"0.0-4.191-1.191","h0w8eb372ejs0ft",773,"171.csv","","null","resources/maskTrios/BT4B.jpg","null","",NA,NA,NA,NA,""
"image-keyboard-response",587,506329,"0.0-4.191-2.191","h0w8eb372ejs0ft",773,"171.csv","","null","resources/images/coin2.png","null","",NA,NA,NA,NA,""
"image-keyboard-response",588,507400,"0.0-4.192-0.192","h0w8eb372ejs0ft",773,"171.csv","","1060","resources/trios/L1T4A3.jpg","37","restless",0.7,0.7,0.4,0.184306344475903,"true"
"image-keyboard-response",589,507805,"0.0-4.192-1.192","h0w8eb372ejs0ft",773,"171.csv","","null","resources/maskTrios/L1BB.jpg","null","",NA,NA,NA,NA,""
"image-keyboard-response",590,509031,"0.0-4.192-2.192","h0w8eb372ejs0ft",773,"171.csv","","null","resources/images/coin2.png","null","",NA,NA,NA,NA,""
"image-keyboard-response",591,509607,"0.0-4.193-0.193","h0w8eb372ejs0ft",773,"171.csv","","572","resources/trios/L1T4A3.jpg","38","restless",0.8,0.7,0.4,0.0428606075433514,"true"
"image-keyboard-response",592,510016,"0.0-4.193-1.193","h0w8eb372ejs0ft",773,"171.csv","","null","resources/maskTrios/BT4B.jpg","null","",NA,NA,NA,NA,""
"image-keyboard-response",593,511226,"0.0-4.193-2.193","h0w8eb372ejs0ft",773,"171.csv","","null","resources/images/coin2.png","null","",NA,NA,NA,NA,""
"image-keyboard-response",594,511579,"0.0-4.194-0.194","h0w8eb372ejs0ft",773,"171.csv","","344.0000000000582","resources/trios/L1T4A3.jpg","37","restless",0.8,0.7,0.4,0.872281214613861,"false"
"image-keyboard-response",595,511989,"0.0-4.194-1.194","h0w8eb372ejs0ft",773,"171.csv","","null","resources/maskTrios/L1BB.jpg","null","",NA,NA,NA,NA,""
"image-keyboard-response",596,513198,"0.0-4.194-2.194","h0w8eb372ejs0ft",773,"171.csv","","null","resources/images/fishbone.png","null","",NA,NA,NA,NA,""
"image-keyboard-response",597,513565,"0.0-4.195-0.195","h0w8eb372ejs0ft",773,"171.csv","","356.9999999999418","resources/trios/L1T4A3.jpg","38","restless",0.9,0.7,0.4,0.617396233786611,"true"
"image-keyboard-response",598,513974,"0.0-4.195-1.195","h0w8eb372ejs0ft",773,"171.csv","","null","resources/maskTrios/BT4B.jpg","null","",NA,NA,NA,NA,""
"image-keyboard-response",599,515186,"0.0-4.195-2.195","h0w8eb372ejs0ft",773,"171.csv","","null","resources/images/coin2.png","null","",NA,NA,NA,NA,""
"image-keyboard-response",600,515759,"0.0-4.196-0.196","h0w8eb372ejs0ft",773,"171.csv","","560.9999999999418","resources/trios/L1T4A3.jpg","38","restless",0.9,0.7,0.4,0.571908992827207,"true"
"image-keyboard-response",601,516169,"0.0-4.196-1.196","h0w8eb372ejs0ft",773,"171.csv","","null","resources/maskTrios/BT4B.jpg","null","",NA,NA,NA,NA,""
"image-keyboard-response",602,517378,"0.0-4.196-2.196","h0w8eb372ejs0ft",773,"171.csv","","null","resources/images/coin2.png","null","",NA,NA,NA,NA,""
"image-keyboard-response",603,518639,"0.0-4.197-0.197","h0w8eb372ejs0ft",773,"171.csv","","1257","resources/trios/L1T4A3.jpg","38","restless",0.8,0.7,0.4,0.90649265043651,"false"
"image-keyboard-response",604,519045,"0.0-4.197-1.197","h0w8eb372ejs0ft",773,"171.csv","","null","resources/maskTrios/BT4B.jpg","null","",NA,NA,NA,NA,""
"image-keyboard-response",605,520255,"0.0-4.197-2.197","h0w8eb372ejs0ft",773,"171.csv","","null","resources/images/fishbone.png","null","",NA,NA,NA,NA,""
"image-keyboard-response",606,520554,"0.0-4.198-0.198","h0w8eb372ejs0ft",773,"171.csv","","289","resources/trios/L1T4A3.jpg","39","restless",0.8,0.7,0.4,0.501098500508679,"false"
"image-keyboard-response",607,520964,"0.0-4.198-1.198","h0w8eb372ejs0ft",773,"171.csv","","null","resources/maskTrios/BBA3.jpg","null","",NA,NA,NA,NA,""
"image-keyboard-response",608,522174,"0.0-4.198-2.198","h0w8eb372ejs0ft",773,"171.csv","","null","resources/images/fishbone.png","null","",NA,NA,NA,NA,""
"image-keyboard-response",609,522238,"0.0-4.199-0.199","h0w8eb372ejs0ft",773,"171.csv","","54","resources/trios/L1T4A3.jpg","37","restless",0.8,0.7,0.4,0.31176439352211,"true"
"image-keyboard-response",610,522647,"0.0-4.199-1.199","h0w8eb372ejs0ft",773,"171.csv","","null","resources/maskTrios/L1BB.jpg","null","",NA,NA,NA,NA,""
"image-keyboard-response",611,523857,"0.0-4.199-2.199","h0w8eb372ejs0ft",773,"171.csv","","null","resources/images/coin2.png","null","",NA,NA,NA,NA,""
"survey-text",612,715889,"0.0-5.0","h0w8eb372ejs0ft",773,"171.csv","","192031","","","",NA,NA,NA,NA,""
