"trial_type","trial_index","time_elapsed","internal_node_id","subject","participantCode","walkNumber","success","rt","stimulus","key_press","test_part","leftProb","midProb","rightProb","generatedNum","correct"
"pavlovia",0,1298,"0.0-0.0","4yjc7hw8kl5hhnl",482,"1.csv","","","","","",NA,NA,NA,NA,""
"fullscreen",1,4638,"0.0-1.0","4yjc7hw8kl5hhnl",482,"1.csv","true","","","","",NA,NA,NA,NA,""
"survey-html-form",2,19367,"0.0-2.0","4yjc7hw8kl5hhnl",482,"1.csv","","14725.199999988079","","","",NA,NA,NA,NA,""
"image-keyboard-response",3,684749,"0.0-3.0-0.0","4yjc7hw8kl5hhnl",482,"1.csv","","665377.6999999881","resources/images/parrot_nobg.png","13","",NA,NA,NA,NA,""
"image-keyboard-response",4,687759,"0.0-3.0-1.0","4yjc7hw8kl5hhnl",482,"1.csv","","null","resources/image_sets/111.png","null","",NA,NA,NA,NA,""
"image-keyboard-response",5,696491,"0.0-3.0-2.0","4yjc7hw8kl5hhnl",482,"1.csv","","8730.400000035763","resources/image_sets/left_highlight.png","37","",NA,NA,NA,NA,""
"image-keyboard-response",6,705923,"0.0-3.0-3.0","4yjc7hw8kl5hhnl",482,"1.csv","","9430.699999988079","resources/image_sets/mid_highlight.png","38","",NA,NA,NA,NA,""
"image-keyboard-response",7,708882,"0.0-3.0-4.0","4yjc7hw8kl5hhnl",482,"1.csv","","2957.300000011921","resources/image_sets/right_highlight.png","39","",NA,NA,NA,NA,""
"image-keyboard-response",8,715471,"0.0-3.0-5.0","4yjc7hw8kl5hhnl",482,"1.csv","","6588.100000023842","resources/image_sets/111.png","13","",NA,NA,NA,NA,""
"image-keyboard-response",9,720364,"0.0-3.0-6.0","4yjc7hw8kl5hhnl",482,"1.csv","","4891.699999988079","resources/images/coin2.png","13","",NA,NA,NA,NA,""
"image-keyboard-response",10,722237,"0.0-3.0-7.0","4yjc7hw8kl5hhnl",482,"1.csv","","1872.800000011921","resources/images/fishbone.png","13","",NA,NA,NA,NA,""
"html-keyboard-response",11,731305,"0.0-3.0-8.0","4yjc7hw8kl5hhnl",482,"1.csv","","9067.199999988079","<p>You can track your coin total on the top right of your screen. </p><p>At the end of your journey you will be directed to a survey, so please click on the link before exiting the task</p><p>Press Enter to begin</p>","13","",NA,NA,NA,NA,""
"image-keyboard-response",12,736019,"0.0-4.0-0.0","4yjc7hw8kl5hhnl",482,"1.csv","","4712.399999976158","resources/trios/L4T4A3.jpg","38","restless",0.9,0.3,0.7,0.787983825436259,"false"
"image-keyboard-response",13,736439,"0.0-4.0-1.0","4yjc7hw8kl5hhnl",482,"1.csv","","null","resources/maskTrios/BT4B.jpg","null","",NA,NA,NA,NA,""
"image-keyboard-response",14,737649,"0.0-4.0-2.0","4yjc7hw8kl5hhnl",482,"1.csv","","null","resources/images/fishbone.png","null","",NA,NA,NA,NA,""
"image-keyboard-response",15,743384,"0.0-4.1-0.1","4yjc7hw8kl5hhnl",482,"1.csv","","5733.300000011921","resources/trios/L4T4A3.jpg","39","restless",0.9,0.3,0.8,0.480882175062213,"true"
"image-keyboard-response",16,743786,"0.0-4.1-1.1","4yjc7hw8kl5hhnl",482,"1.csv","","null","resources/maskTrios/BBA3.jpg","null","",NA,NA,NA,NA,""
"image-keyboard-response",17,744994,"0.0-4.1-2.1","4yjc7hw8kl5hhnl",482,"1.csv","","null","resources/images/coin2.png","null","",NA,NA,NA,NA,""
"image-keyboard-response",18,750212,"0.0-4.2-0.2","4yjc7hw8kl5hhnl",482,"1.csv","","5215.800000011921","resources/trios/L4T4A3.jpg","37","restless",0.9,0.3,0.9,0.339926103374354,"true"
"image-keyboard-response",19,750625,"0.0-4.2-1.2","4yjc7hw8kl5hhnl",482,"1.csv","","null","resources/maskTrios/L4BB.jpg","null","",NA,NA,NA,NA,""
"image-keyboard-response",20,751837,"0.0-4.2-2.2","4yjc7hw8kl5hhnl",482,"1.csv","","null","resources/images/coin2.png","null","",NA,NA,NA,NA,""
"image-keyboard-response",21,762237,"0.0-4.3-0.3","4yjc7hw8kl5hhnl",482,"1.csv","","10398.300000011921","resources/trios/L4T4A3.jpg","37","restless",0.9,0.3,0.9,0.987636062634596,"false"
"image-keyboard-response",22,762651,"0.0-4.3-1.3","4yjc7hw8kl5hhnl",482,"1.csv","","null","resources/maskTrios/L4BB.jpg","null","",NA,NA,NA,NA,""
"image-keyboard-response",23,763868,"0.0-4.3-2.3","4yjc7hw8kl5hhnl",482,"1.csv","","null","resources/images/fishbone.png","null","",NA,NA,NA,NA,""
"image-keyboard-response",24,776671,"0.0-4.4-0.4","4yjc7hw8kl5hhnl",482,"1.csv","","12800","resources/trios/L4T4A3.jpg","39","restless",0.9,0.2,0.9,0.442567687914643,"true"
"image-keyboard-response",25,777080,"0.0-4.4-1.4","4yjc7hw8kl5hhnl",482,"1.csv","","null","resources/maskTrios/BBA3.jpg","null","",NA,NA,NA,NA,""
"image-keyboard-response",26,778291,"0.0-4.4-2.4","4yjc7hw8kl5hhnl",482,"1.csv","","null","resources/images/coin2.png","null","",NA,NA,NA,NA,""
"image-keyboard-response",27,779076,"0.0-4.5-0.5","4yjc7hw8kl5hhnl",482,"1.csv","","782.4000000357628","resources/trios/L4T4A3.jpg","39","restless",0.9,0.2,0.9,0.330354445667117,"true"
"image-keyboard-response",28,779490,"0.0-4.5-1.5","4yjc7hw8kl5hhnl",482,"1.csv","","null","resources/maskTrios/BBA3.jpg","null","",NA,NA,NA,NA,""
"image-keyboard-response",29,780701,"0.0-4.5-2.5","4yjc7hw8kl5hhnl",482,"1.csv","","null","resources/images/coin2.png","null","",NA,NA,NA,NA,""
"image-keyboard-response",30,781066,"0.0-4.6-0.6","4yjc7hw8kl5hhnl",482,"1.csv","","363.60000002384186","resources/trios/L4T4A3.jpg","39","restless",0.8,0.2,0.9,0.170989854598585,"true"
"image-keyboard-response",31,781472,"0.0-4.6-1.6","4yjc7hw8kl5hhnl",482,"1.csv","","null","resources/maskTrios/BBA3.jpg","null","",NA,NA,NA,NA,""
"image-keyboard-response",32,782675,"0.0-4.6-2.6","4yjc7hw8kl5hhnl",482,"1.csv","","null","resources/images/coin2.png","null","",NA,NA,NA,NA,""
"image-keyboard-response",33,783048,"0.0-4.7-0.7","4yjc7hw8kl5hhnl",482,"1.csv","","372.4000000357628","resources/trios/L4T4A3.jpg","39","restless",0.8,0.2,0.8,0.425650622168186,"true"
"image-keyboard-response",34,783464,"0.0-4.7-1.7","4yjc7hw8kl5hhnl",482,"1.csv","","null","resources/maskTrios/BBA3.jpg","null","",NA,NA,NA,NA,""
"image-keyboard-response",35,784673,"0.0-4.7-2.7","4yjc7hw8kl5hhnl",482,"1.csv","","null","resources/images/coin2.png","null","",NA,NA,NA,NA,""
"image-keyboard-response",36,785062,"0.0-4.8-0.8","4yjc7hw8kl5hhnl",482,"1.csv","","386.80000001192093","resources/trios/L4T4A3.jpg","39","restless",0.8,0.2,0.8,0.16015605355629,"true"
"image-keyboard-response",37,785466,"0.0-4.8-1.8","4yjc7hw8kl5hhnl",482,"1.csv","","null","resources/maskTrios/BBA3.jpg","null","",NA,NA,NA,NA,""
"image-keyboard-response",38,786676,"0.0-4.8-2.8","4yjc7hw8kl5hhnl",482,"1.csv","","null","resources/images/coin2.png","null","",NA,NA,NA,NA,""
"image-keyboard-response",39,787146,"0.0-4.9-0.9","4yjc7hw8kl5hhnl",482,"1.csv","","467.80000001192093","resources/trios/L4T4A3.jpg","39","restless",0.8,0.2,0.8,0.150229222456536,"true"
"image-keyboard-response",40,787562,"0.0-4.9-1.9","4yjc7hw8kl5hhnl",482,"1.csv","","null","resources/maskTrios/BBA3.jpg","null","",NA,NA,NA,NA,""
"image-keyboard-response",41,788776,"0.0-4.9-2.9","4yjc7hw8kl5hhnl",482,"1.csv","","null","resources/images/coin2.png","null","",NA,NA,NA,NA,""
"image-keyboard-response",42,789155,"0.0-4.10-0.10","4yjc7hw8kl5hhnl",482,"1.csv","","377","resources/trios/L4T4A3.jpg","39","restless",0.7,0.2,0.8,0.148672794140241,"true"
"image-keyboard-response",43,789568,"0.0-4.10-1.10","4yjc7hw8kl5hhnl",482,"1.csv","","null","resources/maskTrios/BBA3.jpg","null","",NA,NA,NA,NA,""
"image-keyboard-response",44,790775,"0.0-4.10-2.10","4yjc7hw8kl5hhnl",482,"1.csv","","null","resources/images/coin2.png","null","",NA,NA,NA,NA,""
"image-keyboard-response",45,791268,"0.0-4.11-0.11","4yjc7hw8kl5hhnl",482,"1.csv","","490.69999998807907","resources/trios/L4T4A3.jpg","39","restless",0.6,0.2,0.8,0.0275654532831426,"true"
"image-keyboard-response",46,791677,"0.0-4.11-1.11","4yjc7hw8kl5hhnl",482,"1.csv","","null","resources/maskTrios/BBA3.jpg","null","",NA,NA,NA,NA,""
"image-keyboard-response",47,792890,"0.0-4.11-2.11","4yjc7hw8kl5hhnl",482,"1.csv","","null","resources/images/coin2.png","null","",NA,NA,NA,NA,""
"image-keyboard-response",48,793315,"0.0-4.12-0.12","4yjc7hw8kl5hhnl",482,"1.csv","","421.69999998807907","resources/trios/L4T4A3.jpg","39","restless",0.6,0.1,0.8,0.514765129241272,"true"
"image-keyboard-response",49,793729,"0.0-4.12-1.12","4yjc7hw8kl5hhnl",482,"1.csv","","null","resources/maskTrios/BBA3.jpg","null","",NA,NA,NA,NA,""
"image-keyboard-response",50,794941,"0.0-4.12-2.12","4yjc7hw8kl5hhnl",482,"1.csv","","null","resources/images/coin2.png","null","",NA,NA,NA,NA,""
"image-keyboard-response",51,795270,"0.0-4.13-0.13","4yjc7hw8kl5hhnl",482,"1.csv","","326.39999997615814","resources/trios/L4T4A3.jpg","39","restless",0.5,0.1,0.8,0.0585261455482295,"true"
"image-keyboard-response",52,795686,"0.0-4.13-1.13","4yjc7hw8kl5hhnl",482,"1.csv","","null","resources/maskTrios/BBA3.jpg","null","",NA,NA,NA,NA,""
"image-keyboard-response",53,796897,"0.0-4.13-2.13","4yjc7hw8kl5hhnl",482,"1.csv","","null","resources/images/coin2.png","null","",NA,NA,NA,NA,""
"image-keyboard-response",54,797243,"0.0-4.14-0.14","4yjc7hw8kl5hhnl",482,"1.csv","","344.30000001192093","resources/trios/L4T4A3.jpg","39","restless",0.5,0.1,0.7,0.338014428989945,"true"
"image-keyboard-response",55,797656,"0.0-4.14-1.14","4yjc7hw8kl5hhnl",482,"1.csv","","null","resources/maskTrios/BBA3.jpg","null","",NA,NA,NA,NA,""
"image-keyboard-response",56,798870,"0.0-4.14-2.14","4yjc7hw8kl5hhnl",482,"1.csv","","null","resources/images/coin2.png","null","",NA,NA,NA,NA,""
"image-keyboard-response",57,799282,"0.0-4.15-0.15","4yjc7hw8kl5hhnl",482,"1.csv","","410.2999999523163","resources/trios/L4T4A3.jpg","39","restless",0.5,0.1,0.6,0.527257333068067,"true"
"image-keyboard-response",58,799692,"0.0-4.15-1.15","4yjc7hw8kl5hhnl",482,"1.csv","","null","resources/maskTrios/BBA3.jpg","null","",NA,NA,NA,NA,""
"image-keyboard-response",59,800902,"0.0-4.15-2.15","4yjc7hw8kl5hhnl",482,"1.csv","","null","resources/images/coin2.png","null","",NA,NA,NA,NA,""
"image-keyboard-response",60,812490,"0.0-4.16-0.16","4yjc7hw8kl5hhnl",482,"1.csv","","11585.599999964237","resources/trios/L4T4A3.jpg","39","restless",0.5,0.1,0.6,0.700171175624208,"false"
"image-keyboard-response",61,812897,"0.0-4.16-1.16","4yjc7hw8kl5hhnl",482,"1.csv","","null","resources/maskTrios/BBA3.jpg","null","",NA,NA,NA,NA,""
"image-keyboard-response",62,814112,"0.0-4.16-2.16","4yjc7hw8kl5hhnl",482,"1.csv","","null","resources/images/fishbone.png","null","",NA,NA,NA,NA,""
"image-keyboard-response",63,815468,"0.0-4.17-0.17","4yjc7hw8kl5hhnl",482,"1.csv","","1354.0999999642372","resources/trios/L4T4A3.jpg","37","restless",0.5,0.1,0.6,0.251375986808727,"true"
"image-keyboard-response",64,815884,"0.0-4.17-1.17","4yjc7hw8kl5hhnl",482,"1.csv","","null","resources/maskTrios/L4BB.jpg","null","",NA,NA,NA,NA,""
"image-keyboard-response",65,817100,"0.0-4.17-2.17","4yjc7hw8kl5hhnl",482,"1.csv","","null","resources/images/coin2.png","null","",NA,NA,NA,NA,""
"image-keyboard-response",66,817544,"0.0-4.18-0.18","4yjc7hw8kl5hhnl",482,"1.csv","","441.39999997615814","resources/trios/L4T4A3.jpg","37","restless",0.5,0.1,0.6,0.476512083952455,"true"
"image-keyboard-response",67,817955,"0.0-4.18-1.18","4yjc7hw8kl5hhnl",482,"1.csv","","null","resources/maskTrios/L4BB.jpg","null","",NA,NA,NA,NA,""
"image-keyboard-response",68,819163,"0.0-4.18-2.18","4yjc7hw8kl5hhnl",482,"1.csv","","null","resources/images/coin2.png","null","",NA,NA,NA,NA,""
"image-keyboard-response",69,819632,"0.0-4.19-0.19","4yjc7hw8kl5hhnl",482,"1.csv","","466.5","resources/trios/L4T4A3.jpg","37","restless",0.4,0.1,0.6,0.244422432636212,"true"
"image-keyboard-response",70,820048,"0.0-4.19-1.19","4yjc7hw8kl5hhnl",482,"1.csv","","null","resources/maskTrios/L4BB.jpg","null","",NA,NA,NA,NA,""
"image-keyboard-response",71,821261,"0.0-4.19-2.19","4yjc7hw8kl5hhnl",482,"1.csv","","null","resources/images/coin2.png","null","",NA,NA,NA,NA,""
"image-keyboard-response",72,821577,"0.0-4.20-0.20","4yjc7hw8kl5hhnl",482,"1.csv","","314.5","resources/trios/L4T4A3.jpg","37","restless",0.4,0.1,0.6,0.216955339661677,"true"
"image-keyboard-response",73,821991,"0.0-4.20-1.20","4yjc7hw8kl5hhnl",482,"1.csv","","null","resources/maskTrios/L4BB.jpg","null","",NA,NA,NA,NA,""
"image-keyboard-response",74,823202,"0.0-4.20-2.20","4yjc7hw8kl5hhnl",482,"1.csv","","null","resources/images/coin2.png","null","",NA,NA,NA,NA,""
"image-keyboard-response",75,823560,"0.0-4.21-0.21","4yjc7hw8kl5hhnl",482,"1.csv","","355","resources/trios/L4T4A3.jpg","37","restless",0.4,0.1,0.6,0.68865590929811,"false"
"image-keyboard-response",76,823978,"0.0-4.21-1.21","4yjc7hw8kl5hhnl",482,"1.csv","","null","resources/maskTrios/L4BB.jpg","null","",NA,NA,NA,NA,""
"image-keyboard-response",77,825188,"0.0-4.21-2.21","4yjc7hw8kl5hhnl",482,"1.csv","","null","resources/images/fishbone.png","null","",NA,NA,NA,NA,""
"image-keyboard-response",78,825739,"0.0-4.22-0.22","4yjc7hw8kl5hhnl",482,"1.csv","","549.4000000357628","resources/trios/L4T4A3.jpg","38","restless",0.5,0.2,0.6,0.0428529813505074,"true"
"image-keyboard-response",79,826152,"0.0-4.22-1.22","4yjc7hw8kl5hhnl",482,"1.csv","","null","resources/maskTrios/BT4B.jpg","null","",NA,NA,NA,NA,""
"image-keyboard-response",80,827364,"0.0-4.22-2.22","4yjc7hw8kl5hhnl",482,"1.csv","","null","resources/images/coin2.png","null","",NA,NA,NA,NA,""
"image-keyboard-response",81,827716,"0.0-4.23-0.23","4yjc7hw8kl5hhnl",482,"1.csv","","350","resources/trios/L4T4A3.jpg","38","restless",0.5,0.2,0.6,0.0916423958880423,"true"
"image-keyboard-response",82,828126,"0.0-4.23-1.23","4yjc7hw8kl5hhnl",482,"1.csv","","null","resources/maskTrios/BT4B.jpg","null","",NA,NA,NA,NA,""
"image-keyboard-response",83,829336,"0.0-4.23-2.23","4yjc7hw8kl5hhnl",482,"1.csv","","null","resources/images/coin2.png","null","",NA,NA,NA,NA,""
"image-keyboard-response",84,829665,"0.0-4.24-0.24","4yjc7hw8kl5hhnl",482,"1.csv","","326.69999998807907","resources/trios/L4T4A3.jpg","38","restless",0.5,0.2,0.6,0.827450697353636,"false"
"image-keyboard-response",85,830083,"0.0-4.24-1.24","4yjc7hw8kl5hhnl",482,"1.csv","","null","resources/maskTrios/BT4B.jpg","null","",NA,NA,NA,NA,""
"image-keyboard-response",86,831296,"0.0-4.24-2.24","4yjc7hw8kl5hhnl",482,"1.csv","","null","resources/images/fishbone.png","null","",NA,NA,NA,NA,""
"image-keyboard-response",87,831666,"0.0-4.25-0.25","4yjc7hw8kl5hhnl",482,"1.csv","","368","resources/trios/L4T4A3.jpg","39","restless",0.5,0.2,0.6,0.788294543331119,"false"
"image-keyboard-response",88,832072,"0.0-4.25-1.25","4yjc7hw8kl5hhnl",482,"1.csv","","null","resources/maskTrios/BBA3.jpg","null","",NA,NA,NA,NA,""
"image-keyboard-response",89,833284,"0.0-4.25-2.25","4yjc7hw8kl5hhnl",482,"1.csv","","null","resources/images/fishbone.png","null","",NA,NA,NA,NA,""
"image-keyboard-response",90,833614,"0.0-4.26-0.26","4yjc7hw8kl5hhnl",482,"1.csv","","327.69999998807907","resources/trios/L4T4A3.jpg","37","restless",0.5,0.2,0.6,0.0738384708040998,"true"
"image-keyboard-response",91,834031,"0.0-4.26-1.26","4yjc7hw8kl5hhnl",482,"1.csv","","null","resources/maskTrios/L4BB.jpg","null","",NA,NA,NA,NA,""
"image-keyboard-response",92,835242,"0.0-4.26-2.26","4yjc7hw8kl5hhnl",482,"1.csv","","null","resources/images/coin2.png","null","",NA,NA,NA,NA,""
"image-keyboard-response",93,835603,"0.0-4.27-0.27","4yjc7hw8kl5hhnl",482,"1.csv","","359.10000002384186","resources/trios/L4T4A3.jpg","39","restless",0.5,0.1,0.6,0.309668676346959,"true"
"image-keyboard-response",94,836005,"0.0-4.27-1.27","4yjc7hw8kl5hhnl",482,"1.csv","","null","resources/maskTrios/BBA3.jpg","null","",NA,NA,NA,NA,""
"image-keyboard-response",95,837217,"0.0-4.27-2.27","4yjc7hw8kl5hhnl",482,"1.csv","","null","resources/images/coin2.png","null","",NA,NA,NA,NA,""
"image-keyboard-response",96,837546,"0.0-4.28-0.28","4yjc7hw8kl5hhnl",482,"1.csv","","327.19999998807907","resources/trios/L4T4A3.jpg","37","restless",0.5,0.1,0.5,0.226470851997459,"true"
"image-keyboard-response",97,837963,"0.0-4.28-1.28","4yjc7hw8kl5hhnl",482,"1.csv","","null","resources/maskTrios/L4BB.jpg","null","",NA,NA,NA,NA,""
"image-keyboard-response",98,839175,"0.0-4.28-2.28","4yjc7hw8kl5hhnl",482,"1.csv","","null","resources/images/coin2.png","null","",NA,NA,NA,NA,""
"image-keyboard-response",99,839524,"0.0-4.29-0.29","4yjc7hw8kl5hhnl",482,"1.csv","","345.5","resources/trios/L4T4A3.jpg","39","restless",0.5,0.2,0.5,0.519926685952877,"false"
"image-keyboard-response",100,839935,"0.0-4.29-1.29","4yjc7hw8kl5hhnl",482,"1.csv","","null","resources/maskTrios/BBA3.jpg","null","",NA,NA,NA,NA,""
"image-keyboard-response",101,841148,"0.0-4.29-2.29","4yjc7hw8kl5hhnl",482,"1.csv","","null","resources/images/fishbone.png","null","",NA,NA,NA,NA,""
"image-keyboard-response",102,841631,"0.0-4.30-0.30","4yjc7hw8kl5hhnl",482,"1.csv","","480.80000001192093","resources/trios/L4T4A3.jpg","38","restless",0.5,0.2,0.5,0.546479277839076,"false"
"image-keyboard-response",103,842048,"0.0-4.30-1.30","4yjc7hw8kl5hhnl",482,"1.csv","","null","resources/maskTrios/BT4B.jpg","null","",NA,NA,NA,NA,""
"image-keyboard-response",104,843260,"0.0-4.30-2.30","4yjc7hw8kl5hhnl",482,"1.csv","","null","resources/images/fishbone.png","null","",NA,NA,NA,NA,""
"image-keyboard-response",105,843588,"0.0-4.31-0.31","4yjc7hw8kl5hhnl",482,"1.csv","","325.89999997615814","resources/trios/L4T4A3.jpg","37","restless",0.5,0.2,0.5,0.00437321340462371,"true"
"image-keyboard-response",106,844005,"0.0-4.31-1.31","4yjc7hw8kl5hhnl",482,"1.csv","","null","resources/maskTrios/L4BB.jpg","null","",NA,NA,NA,NA,""
"image-keyboard-response",107,845220,"0.0-4.31-2.31","4yjc7hw8kl5hhnl",482,"1.csv","","null","resources/images/coin2.png","null","",NA,NA,NA,NA,""
"image-keyboard-response",108,845646,"0.0-4.32-0.32","4yjc7hw8kl5hhnl",482,"1.csv","","424","resources/trios/L4T4A3.jpg","37","restless",0.5,0.2,0.5,0.908663134114857,"false"
"image-keyboard-response",109,846055,"0.0-4.32-1.32","4yjc7hw8kl5hhnl",482,"1.csv","","null","resources/maskTrios/L4BB.jpg","null","",NA,NA,NA,NA,""
"image-keyboard-response",110,847261,"0.0-4.32-2.32","4yjc7hw8kl5hhnl",482,"1.csv","","null","resources/images/fishbone.png","null","",NA,NA,NA,NA,""
"image-keyboard-response",111,847516,"0.0-4.33-0.33","4yjc7hw8kl5hhnl",482,"1.csv","","253","resources/trios/L4T4A3.jpg","39","restless",0.5,0.2,0.5,0.821080219140649,"false"
"image-keyboard-response",112,847929,"0.0-4.33-1.33","4yjc7hw8kl5hhnl",482,"1.csv","","null","resources/maskTrios/BBA3.jpg","null","",NA,NA,NA,NA,""
"image-keyboard-response",113,849141,"0.0-4.33-2.33","4yjc7hw8kl5hhnl",482,"1.csv","","null","resources/images/fishbone.png","null","",NA,NA,NA,NA,""
"image-keyboard-response",114,849468,"0.0-4.34-0.34","4yjc7hw8kl5hhnl",482,"1.csv","","324.89999997615814","resources/trios/L4T4A3.jpg","37","restless",0.5,0.2,0.5,0.993272551999802,"false"
"image-keyboard-response",115,849883,"0.0-4.34-1.34","4yjc7hw8kl5hhnl",482,"1.csv","","null","resources/maskTrios/L4BB.jpg","null","",NA,NA,NA,NA,""
"image-keyboard-response",116,851096,"0.0-4.34-2.34","4yjc7hw8kl5hhnl",482,"1.csv","","null","resources/images/fishbone.png","null","",NA,NA,NA,NA,""
"image-keyboard-response",117,851390,"0.0-4.35-0.35","4yjc7hw8kl5hhnl",482,"1.csv","","292.10000002384186","resources/trios/L4T4A3.jpg","38","restless",0.5,0.2,0.5,0.850726141876068,"false"
"image-keyboard-response",118,851793,"0.0-4.35-1.35","4yjc7hw8kl5hhnl",482,"1.csv","","null","resources/maskTrios/BT4B.jpg","null","",NA,NA,NA,NA,""
"image-keyboard-response",119,853002,"0.0-4.35-2.35","4yjc7hw8kl5hhnl",482,"1.csv","","null","resources/images/fishbone.png","null","",NA,NA,NA,NA,""
"image-keyboard-response",120,853378,"0.0-4.36-0.36","4yjc7hw8kl5hhnl",482,"1.csv","","373.0999999642372","resources/trios/L4T4A3.jpg","38","restless",0.5,0.2,0.5,0.757177099553721,"false"
"image-keyboard-response",121,853790,"0.0-4.36-1.36","4yjc7hw8kl5hhnl",482,"1.csv","","null","resources/maskTrios/BT4B.jpg","null","",NA,NA,NA,NA,""
"image-keyboard-response",122,855007,"0.0-4.36-2.36","4yjc7hw8kl5hhnl",482,"1.csv","","null","resources/images/fishbone.png","null","",NA,NA,NA,NA,""
"image-keyboard-response",123,855311,"0.0-4.37-0.37","4yjc7hw8kl5hhnl",482,"1.csv","","301.5","resources/trios/L4T4A3.jpg","39","restless",0.5,0.2,0.5,0.371710964888311,"true"
"image-keyboard-response",124,855724,"0.0-4.37-1.37","4yjc7hw8kl5hhnl",482,"1.csv","","null","resources/maskTrios/BBA3.jpg","null","",NA,NA,NA,NA,""
"image-keyboard-response",125,856935,"0.0-4.37-2.37","4yjc7hw8kl5hhnl",482,"1.csv","","null","resources/images/coin2.png","null","",NA,NA,NA,NA,""
"image-keyboard-response",126,857579,"0.0-4.38-0.38","4yjc7hw8kl5hhnl",482,"1.csv","","642.1999999880791","resources/trios/L4T4A3.jpg","37","restless",0.6,0.2,0.5,0.797164232169963,"false"
"image-keyboard-response",127,857995,"0.0-4.38-1.38","4yjc7hw8kl5hhnl",482,"1.csv","","null","resources/maskTrios/L4BB.jpg","null","",NA,NA,NA,NA,""
"image-keyboard-response",128,859206,"0.0-4.38-2.38","4yjc7hw8kl5hhnl",482,"1.csv","","null","resources/images/fishbone.png","null","",NA,NA,NA,NA,""
"image-keyboard-response",129,859634,"0.0-4.39-0.39","4yjc7hw8kl5hhnl",482,"1.csv","","425.39999997615814","resources/trios/L4T4A3.jpg","39","restless",0.6,0.3,0.5,0.972262584992151,"false"
"image-keyboard-response",130,860044,"0.0-4.39-1.39","4yjc7hw8kl5hhnl",482,"1.csv","","null","resources/maskTrios/BBA3.jpg","null","",NA,NA,NA,NA,""
"image-keyboard-response",131,861258,"0.0-4.39-2.39","4yjc7hw8kl5hhnl",482,"1.csv","","null","resources/images/fishbone.png","null","",NA,NA,NA,NA,""
"image-keyboard-response",132,861882,"0.0-4.40-0.40","4yjc7hw8kl5hhnl",482,"1.csv","","621.1999999880791","resources/trios/L4T4A3.jpg","38","restless",0.6,0.3,0.5,0.793568945744731,"false"
"image-keyboard-response",133,862287,"0.0-4.40-1.40","4yjc7hw8kl5hhnl",482,"1.csv","","null","resources/maskTrios/BT4B.jpg","null","",NA,NA,NA,NA,""
"image-keyboard-response",134,863493,"0.0-4.40-2.40","4yjc7hw8kl5hhnl",482,"1.csv","","null","resources/images/fishbone.png","null","",NA,NA,NA,NA,""
"image-keyboard-response",135,863695,"0.0-4.41-0.41","4yjc7hw8kl5hhnl",482,"1.csv","","199.60000002384186","resources/trios/L4T4A3.jpg","39","restless",0.6,0.3,0.5,0.171081001396427,"true"
"image-keyboard-response",136,864101,"0.0-4.41-1.41","4yjc7hw8kl5hhnl",482,"1.csv","","null","resources/maskTrios/BBA3.jpg","null","",NA,NA,NA,NA,""
"image-keyboard-response",137,865310,"0.0-4.41-2.41","4yjc7hw8kl5hhnl",482,"1.csv","","null","resources/images/coin2.png","null","",NA,NA,NA,NA,""
"image-keyboard-response",138,877243,"0.0-4.42-0.42","4yjc7hw8kl5hhnl",482,"1.csv","","11930.299999952316","resources/trios/L4T4A3.jpg","37","restless",0.6,0.3,0.5,0.736042731851525,"false"
"image-keyboard-response",139,877657,"0.0-4.42-1.42","4yjc7hw8kl5hhnl",482,"1.csv","","null","resources/maskTrios/L4BB.jpg","null","",NA,NA,NA,NA,""
"image-keyboard-response",140,878868,"0.0-4.42-2.42","4yjc7hw8kl5hhnl",482,"1.csv","","null","resources/images/fishbone.png","null","",NA,NA,NA,NA,""
"image-keyboard-response",141,880133,"0.0-4.43-0.43","4yjc7hw8kl5hhnl",482,"1.csv","","1262.199999988079","resources/trios/L4T4A3.jpg","39","restless",0.6,0.3,0.5,0.538413224179803,"false"
"image-keyboard-response",142,880544,"0.0-4.43-1.43","4yjc7hw8kl5hhnl",482,"1.csv","","null","resources/maskTrios/BBA3.jpg","null","",NA,NA,NA,NA,""
"image-keyboard-response",143,881756,"0.0-4.43-2.43","4yjc7hw8kl5hhnl",482,"1.csv","","null","resources/images/fishbone.png","null","",NA,NA,NA,NA,""
"image-keyboard-response",144,882085,"0.0-4.44-0.44","4yjc7hw8kl5hhnl",482,"1.csv","","328.4000000357628","resources/trios/L4T4A3.jpg","38","restless",0.6,0.3,0.5,0.883438934692021,"false"
"image-keyboard-response",145,882502,"0.0-4.44-1.44","4yjc7hw8kl5hhnl",482,"1.csv","","null","resources/maskTrios/BT4B.jpg","null","",NA,NA,NA,NA,""
"image-keyboard-response",146,883711,"0.0-4.44-2.44","4yjc7hw8kl5hhnl",482,"1.csv","","null","resources/images/fishbone.png","null","",NA,NA,NA,NA,""
"image-keyboard-response",147,883884,"0.0-4.45-0.45","4yjc7hw8kl5hhnl",482,"1.csv","","170.9000000357628","resources/trios/L4T4A3.jpg","38","restless",0.6,0.2,0.5,0.296877208429756,"false"
"image-keyboard-response",148,884302,"0.0-4.45-1.45","4yjc7hw8kl5hhnl",482,"1.csv","","null","resources/maskTrios/BT4B.jpg","null","",NA,NA,NA,NA,""
"image-keyboard-response",149,885518,"0.0-4.45-2.45","4yjc7hw8kl5hhnl",482,"1.csv","","null","resources/images/fishbone.png","null","",NA,NA,NA,NA,""
"image-keyboard-response",150,885600,"0.0-4.46-0.46","4yjc7hw8kl5hhnl",482,"1.csv","","79.80000001192093","resources/trios/L4T4A3.jpg","39","restless",0.5,0.3,0.5,0.714847709866563,"false"
"image-keyboard-response",151,886013,"0.0-4.46-1.46","4yjc7hw8kl5hhnl",482,"1.csv","","null","resources/maskTrios/BBA3.jpg","null","",NA,NA,NA,NA,""
"image-keyboard-response",152,887220,"0.0-4.46-2.46","4yjc7hw8kl5hhnl",482,"1.csv","","null","resources/images/fishbone.png","null","",NA,NA,NA,NA,""
"image-keyboard-response",153,887764,"0.0-4.47-0.47","4yjc7hw8kl5hhnl",482,"1.csv","","541.6000000238419","resources/trios/L4T4A3.jpg","37","restless",0.5,0.3,0.5,0.580228073633128,"false"
"image-keyboard-response",154,888170,"0.0-4.47-1.47","4yjc7hw8kl5hhnl",482,"1.csv","","null","resources/maskTrios/L4BB.jpg","null","",NA,NA,NA,NA,""
"image-keyboard-response",155,889382,"0.0-4.47-2.47","4yjc7hw8kl5hhnl",482,"1.csv","","null","resources/images/fishbone.png","null","",NA,NA,NA,NA,""
"image-keyboard-response",156,889691,"0.0-4.48-0.48","4yjc7hw8kl5hhnl",482,"1.csv","","306.7999999523163","resources/trios/L4T4A3.jpg","39","restless",0.5,0.2,0.5,0.844786557850556,"false"
"image-keyboard-response",157,890096,"0.0-4.48-1.48","4yjc7hw8kl5hhnl",482,"1.csv","","null","resources/maskTrios/BBA3.jpg","null","",NA,NA,NA,NA,""
"image-keyboard-response",158,891305,"0.0-4.48-2.48","4yjc7hw8kl5hhnl",482,"1.csv","","null","resources/images/fishbone.png","null","",NA,NA,NA,NA,""
"image-keyboard-response",159,891563,"0.0-4.49-0.49","4yjc7hw8kl5hhnl",482,"1.csv","","255.29999995231628","resources/trios/L4T4A3.jpg","38","restless",0.5,0.2,0.5,0.496057466118198,"false"
"image-keyboard-response",160,891974,"0.0-4.49-1.49","4yjc7hw8kl5hhnl",482,"1.csv","","null","resources/maskTrios/BT4B.jpg","null","",NA,NA,NA,NA,""
"image-keyboard-response",161,893181,"0.0-4.49-2.49","4yjc7hw8kl5hhnl",482,"1.csv","","null","resources/images/fishbone.png","null","",NA,NA,NA,NA,""
"image-keyboard-response",162,893526,"0.0-4.50-0.50","4yjc7hw8kl5hhnl",482,"1.csv","","342.60000002384186","resources/trios/L4T4A3.jpg","37","restless",0.5,0.2,0.5,0.132696978191424,"true"
"image-keyboard-response",163,893941,"0.0-4.50-1.50","4yjc7hw8kl5hhnl",482,"1.csv","","null","resources/maskTrios/L4BB.jpg","null","",NA,NA,NA,NA,""
"image-keyboard-response",164,895157,"0.0-4.50-2.50","4yjc7hw8kl5hhnl",482,"1.csv","","null","resources/images/coin2.png","null","",NA,NA,NA,NA,""
"image-keyboard-response",165,895745,"0.0-4.51-0.51","4yjc7hw8kl5hhnl",482,"1.csv","","586.3000000119209","resources/trios/L4T4A3.jpg","37","restless",0.5,0.2,0.5,0.735747801288496,"false"
"image-keyboard-response",166,896150,"0.0-4.51-1.51","4yjc7hw8kl5hhnl",482,"1.csv","","null","resources/maskTrios/L4BB.jpg","null","",NA,NA,NA,NA,""
"image-keyboard-response",167,897362,"0.0-4.51-2.51","4yjc7hw8kl5hhnl",482,"1.csv","","null","resources/images/fishbone.png","null","",NA,NA,NA,NA,""
"image-keyboard-response",168,897679,"0.0-4.52-0.52","4yjc7hw8kl5hhnl",482,"1.csv","","315.10000002384186","resources/trios/L4T4A3.jpg","38","restless",0.5,0.2,0.5,0.38292858353271,"false"
"image-keyboard-response",169,898090,"0.0-4.52-1.52","4yjc7hw8kl5hhnl",482,"1.csv","","null","resources/maskTrios/BT4B.jpg","null","",NA,NA,NA,NA,""
"image-keyboard-response",170,899297,"0.0-4.52-2.52","4yjc7hw8kl5hhnl",482,"1.csv","","null","resources/images/fishbone.png","null","",NA,NA,NA,NA,""
"image-keyboard-response",171,899695,"0.0-4.53-0.53","4yjc7hw8kl5hhnl",482,"1.csv","","396.5999999642372","resources/trios/L4T4A3.jpg","39","restless",0.5,0.1,0.5,0.912261252453714,"false"
"image-keyboard-response",172,900103,"0.0-4.53-1.53","4yjc7hw8kl5hhnl",482,"1.csv","","null","resources/maskTrios/BBA3.jpg","null","",NA,NA,NA,NA,""
"image-keyboard-response",173,901314,"0.0-4.53-2.53","4yjc7hw8kl5hhnl",482,"1.csv","","null","resources/images/fishbone.png","null","",NA,NA,NA,NA,""
"image-keyboard-response",174,901678,"0.0-4.54-0.54","4yjc7hw8kl5hhnl",482,"1.csv","","363.2000000476837","resources/trios/L4T4A3.jpg","37","restless",0.5,0.1,0.5,0.335354605248546,"true"
"image-keyboard-response",175,902092,"0.0-4.54-1.54","4yjc7hw8kl5hhnl",482,"1.csv","","null","resources/maskTrios/L4BB.jpg","null","",NA,NA,NA,NA,""
"image-keyboard-response",176,903302,"0.0-4.54-2.54","4yjc7hw8kl5hhnl",482,"1.csv","","null","resources/images/coin2.png","null","",NA,NA,NA,NA,""
"image-keyboard-response",177,903599,"0.0-4.55-0.55","4yjc7hw8kl5hhnl",482,"1.csv","","294.89999997615814","resources/trios/L4T4A3.jpg","38","restless",0.5,0.1,0.5,0.613175189933918,"false"
"image-keyboard-response",178,904017,"0.0-4.55-1.55","4yjc7hw8kl5hhnl",482,"1.csv","","null","resources/maskTrios/BT4B.jpg","null","",NA,NA,NA,NA,""
"image-keyboard-response",179,905231,"0.0-4.55-2.55","4yjc7hw8kl5hhnl",482,"1.csv","","null","resources/images/fishbone.png","null","",NA,NA,NA,NA,""
"image-keyboard-response",180,905526,"0.0-4.56-0.56","4yjc7hw8kl5hhnl",482,"1.csv","","293.7000000476837","resources/trios/L4T4A3.jpg","39","restless",0.5,0.1,0.5,0.035576392475489,"true"
"image-keyboard-response",181,905942,"0.0-4.56-1.56","4yjc7hw8kl5hhnl",482,"1.csv","","null","resources/maskTrios/BBA3.jpg","null","",NA,NA,NA,NA,""
"image-keyboard-response",182,907157,"0.0-4.56-2.56","4yjc7hw8kl5hhnl",482,"1.csv","","null","resources/images/coin2.png","null","",NA,NA,NA,NA,""
"image-keyboard-response",183,907595,"0.0-4.57-0.57","4yjc7hw8kl5hhnl",482,"1.csv","","435.80000001192093","resources/trios/L4T4A3.jpg","37","restless",0.5,0.1,0.5,0.224412774351538,"true"
"image-keyboard-response",184,908009,"0.0-4.57-1.57","4yjc7hw8kl5hhnl",482,"1.csv","","null","resources/maskTrios/L4BB.jpg","null","",NA,NA,NA,NA,""
"image-keyboard-response",185,909221,"0.0-4.57-2.57","4yjc7hw8kl5hhnl",482,"1.csv","","null","resources/images/coin2.png","null","",NA,NA,NA,NA,""
"image-keyboard-response",186,909602,"0.0-4.58-0.58","4yjc7hw8kl5hhnl",482,"1.csv","","379","resources/trios/L4T4A3.jpg","38","restless",0.5,0.1,0.5,0.627264755084433,"false"
"image-keyboard-response",187,910010,"0.0-4.58-1.58","4yjc7hw8kl5hhnl",482,"1.csv","","null","resources/maskTrios/BT4B.jpg","null","",NA,NA,NA,NA,""
"image-keyboard-response",188,911221,"0.0-4.58-2.58","4yjc7hw8kl5hhnl",482,"1.csv","","null","resources/images/fishbone.png","null","",NA,NA,NA,NA,""
"image-keyboard-response",189,911577,"0.0-4.59-0.59","4yjc7hw8kl5hhnl",482,"1.csv","","354.7000000476837","resources/trios/L4T4A3.jpg","39","restless",0.5,0.1,0.5,0.675887433380874,"false"
"image-keyboard-response",190,911982,"0.0-4.59-1.59","4yjc7hw8kl5hhnl",482,"1.csv","","null","resources/maskTrios/BBA3.jpg","null","",NA,NA,NA,NA,""
"image-keyboard-response",191,913195,"0.0-4.59-2.59","4yjc7hw8kl5hhnl",482,"1.csv","","null","resources/images/fishbone.png","null","",NA,NA,NA,NA,""
"image-keyboard-response",192,913565,"0.0-4.60-0.60","4yjc7hw8kl5hhnl",482,"1.csv","","367.9000000357628","resources/trios/L4T4A3.jpg","37","restless",0.5,0.2,0.5,0.45460192473025,"true"
"image-keyboard-response",193,913972,"0.0-4.60-1.60","4yjc7hw8kl5hhnl",482,"1.csv","","null","resources/maskTrios/L4BB.jpg","null","",NA,NA,NA,NA,""
"image-keyboard-response",194,915186,"0.0-4.60-2.60","4yjc7hw8kl5hhnl",482,"1.csv","","null","resources/images/coin2.png","null","",NA,NA,NA,NA,""
"image-keyboard-response",195,915727,"0.0-4.61-0.61","4yjc7hw8kl5hhnl",482,"1.csv","","539.5","resources/trios/L4T4A3.jpg","38","restless",0.5,0.2,0.5,0.402029625389868,"false"
"image-keyboard-response",196,916134,"0.0-4.61-1.61","4yjc7hw8kl5hhnl",482,"1.csv","","null","resources/maskTrios/BT4B.jpg","null","",NA,NA,NA,NA,""
"image-keyboard-response",197,917345,"0.0-4.61-2.61","4yjc7hw8kl5hhnl",482,"1.csv","","null","resources/images/fishbone.png","null","",NA,NA,NA,NA,""
"image-keyboard-response",198,917714,"0.0-4.62-0.62","4yjc7hw8kl5hhnl",482,"1.csv","","365.4000000357628","resources/trios/L4T4A3.jpg","39","restless",0.5,0.2,0.6,0.838573406699905,"false"
"image-keyboard-response",199,918124,"0.0-4.62-1.62","4yjc7hw8kl5hhnl",482,"1.csv","","null","resources/maskTrios/BBA3.jpg","null","",NA,NA,NA,NA,""
"image-keyboard-response",200,919335,"0.0-4.62-2.62","4yjc7hw8kl5hhnl",482,"1.csv","","null","resources/images/fishbone.png","null","",NA,NA,NA,NA,""
"image-keyboard-response",201,919904,"0.0-4.63-0.63","4yjc7hw8kl5hhnl",482,"1.csv","","567.1000000238419","resources/trios/L4T4A3.jpg","37","restless",0.5,0.2,0.6,0.8868026784692,"false"
"image-keyboard-response",202,920312,"0.0-4.63-1.63","4yjc7hw8kl5hhnl",482,"1.csv","","null","resources/maskTrios/L4BB.jpg","null","",NA,NA,NA,NA,""
"image-keyboard-response",203,921524,"0.0-4.63-2.63","4yjc7hw8kl5hhnl",482,"1.csv","","null","resources/images/fishbone.png","null","",NA,NA,NA,NA,""
"image-keyboard-response",204,922082,"0.0-4.64-0.64","4yjc7hw8kl5hhnl",482,"1.csv","","555.9000000357628","resources/trios/L4T4A3.jpg","38","restless",0.5,0.2,0.6,0.425313567986397,"false"
"image-keyboard-response",205,922490,"0.0-4.64-1.64","4yjc7hw8kl5hhnl",482,"1.csv","","null","resources/maskTrios/BT4B.jpg","null","",NA,NA,NA,NA,""
"image-keyboard-response",206,923703,"0.0-4.64-2.64","4yjc7hw8kl5hhnl",482,"1.csv","","null","resources/images/fishbone.png","null","",NA,NA,NA,NA,""
"image-keyboard-response",207,924010,"0.0-4.65-0.65","4yjc7hw8kl5hhnl",482,"1.csv","","304.30000001192093","resources/trios/L4T4A3.jpg","39","restless",0.5,0.2,0.6,0.241762851589176,"true"
"image-keyboard-response",208,924415,"0.0-4.65-1.65","4yjc7hw8kl5hhnl",482,"1.csv","","null","resources/maskTrios/BBA3.jpg","null","",NA,NA,NA,NA,""
"image-keyboard-response",209,925623,"0.0-4.65-2.65","4yjc7hw8kl5hhnl",482,"1.csv","","null","resources/images/coin2.png","null","",NA,NA,NA,NA,""
"image-keyboard-response",210,926457,"0.0-4.66-0.66","4yjc7hw8kl5hhnl",482,"1.csv","","831.1999999880791","resources/trios/L4T4A3.jpg","37","restless",0.5,0.2,0.6,0.21963553408962,"true"
"image-keyboard-response",211,926865,"0.0-4.66-1.66","4yjc7hw8kl5hhnl",482,"1.csv","","null","resources/maskTrios/L4BB.jpg","null","",NA,NA,NA,NA,""
"image-keyboard-response",212,928079,"0.0-4.66-2.66","4yjc7hw8kl5hhnl",482,"1.csv","","null","resources/images/coin2.png","null","",NA,NA,NA,NA,""
"image-keyboard-response",213,928193,"0.0-4.67-0.67","4yjc7hw8kl5hhnl",482,"1.csv","","112.19999998807907","resources/trios/L4T4A3.jpg","38","restless",0.5,0.3,0.6,0.69872605862567,"false"
"image-keyboard-response",214,928607,"0.0-4.67-1.67","4yjc7hw8kl5hhnl",482,"1.csv","","null","resources/maskTrios/BT4B.jpg","null","",NA,NA,NA,NA,""
"image-keyboard-response",215,929815,"0.0-4.67-2.67","4yjc7hw8kl5hhnl",482,"1.csv","","null","resources/images/fishbone.png","null","",NA,NA,NA,NA,""
"image-keyboard-response",216,930098,"0.0-4.68-0.68","4yjc7hw8kl5hhnl",482,"1.csv","","281","resources/trios/L4T4A3.jpg","39","restless",0.5,0.3,0.6,0.881926702999099,"false"
"image-keyboard-response",217,930516,"0.0-4.68-1.68","4yjc7hw8kl5hhnl",482,"1.csv","","null","resources/maskTrios/BBA3.jpg","null","",NA,NA,NA,NA,""
"image-keyboard-response",218,931729,"0.0-4.68-2.68","4yjc7hw8kl5hhnl",482,"1.csv","","null","resources/images/fishbone.png","null","",NA,NA,NA,NA,""
"image-keyboard-response",219,932003,"0.0-4.69-0.69","4yjc7hw8kl5hhnl",482,"1.csv","","272.7000000476837","resources/trios/L4T4A3.jpg","37","restless",0.5,0.3,0.5,0.389744469666654,"true"
"image-keyboard-response",220,932411,"0.0-4.69-1.69","4yjc7hw8kl5hhnl",482,"1.csv","","null","resources/maskTrios/L4BB.jpg","null","",NA,NA,NA,NA,""
"image-keyboard-response",221,933623,"0.0-4.69-2.69","4yjc7hw8kl5hhnl",482,"1.csv","","null","resources/images/coin2.png","null","",NA,NA,NA,NA,""
"image-keyboard-response",222,933890,"0.0-4.70-0.70","4yjc7hw8kl5hhnl",482,"1.csv","","264.0999999642372","resources/trios/L4T4A3.jpg","39","restless",0.6,0.3,0.5,0.472266000826627,"true"
"image-keyboard-response",223,934306,"0.0-4.70-1.70","4yjc7hw8kl5hhnl",482,"1.csv","","null","resources/maskTrios/BBA3.jpg","null","",NA,NA,NA,NA,""
"image-keyboard-response",224,935515,"0.0-4.70-2.70","4yjc7hw8kl5hhnl",482,"1.csv","","null","resources/images/coin2.png","null","",NA,NA,NA,NA,""
"image-keyboard-response",225,935808,"0.0-4.71-0.71","4yjc7hw8kl5hhnl",482,"1.csv","","291.10000002384186","resources/trios/L4T4A3.jpg","37","restless",0.6,0.3,0.5,0.0875025095437612,"true"
"image-keyboard-response",226,936215,"0.0-4.71-1.71","4yjc7hw8kl5hhnl",482,"1.csv","","null","resources/maskTrios/L4BB.jpg","null","",NA,NA,NA,NA,""
"image-keyboard-response",227,937423,"0.0-4.71-2.71","4yjc7hw8kl5hhnl",482,"1.csv","","null","resources/images/coin2.png","null","",NA,NA,NA,NA,""
"image-keyboard-response",228,937732,"0.0-4.72-0.72","4yjc7hw8kl5hhnl",482,"1.csv","","307.60000002384186","resources/trios/L4T4A3.jpg","39","restless",0.6,0.3,0.6,0.170146048159932,"true"
"image-keyboard-response",229,938136,"0.0-4.72-1.72","4yjc7hw8kl5hhnl",482,"1.csv","","null","resources/maskTrios/BBA3.jpg","null","",NA,NA,NA,NA,""
"image-keyboard-response",230,939346,"0.0-4.72-2.72","4yjc7hw8kl5hhnl",482,"1.csv","","null","resources/images/coin2.png","null","",NA,NA,NA,NA,""
"image-keyboard-response",231,939653,"0.0-4.73-0.73","4yjc7hw8kl5hhnl",482,"1.csv","","304.80000001192093","resources/trios/L4T4A3.jpg","37","restless",0.6,0.3,0.7,0.9134337815549,"false"
"image-keyboard-response",232,940062,"0.0-4.73-1.73","4yjc7hw8kl5hhnl",482,"1.csv","","null","resources/maskTrios/L4BB.jpg","null","",NA,NA,NA,NA,""
"image-keyboard-response",233,941274,"0.0-4.73-2.73","4yjc7hw8kl5hhnl",482,"1.csv","","null","resources/images/fishbone.png","null","",NA,NA,NA,NA,""
"image-keyboard-response",234,941542,"0.0-4.74-0.74","4yjc7hw8kl5hhnl",482,"1.csv","","265.7000000476837","resources/trios/L4T4A3.jpg","39","restless",0.6,0.3,0.7,0.597508810593716,"true"
"image-keyboard-response",235,941956,"0.0-4.74-1.74","4yjc7hw8kl5hhnl",482,"1.csv","","null","resources/maskTrios/BBA3.jpg","null","",NA,NA,NA,NA,""
"image-keyboard-response",236,943167,"0.0-4.74-2.74","4yjc7hw8kl5hhnl",482,"1.csv","","null","resources/images/coin2.png","null","",NA,NA,NA,NA,""
"image-keyboard-response",237,943482,"0.0-4.75-0.75","4yjc7hw8kl5hhnl",482,"1.csv","","312.69999998807907","resources/trios/L4T4A3.jpg","37","restless",0.6,0.3,0.7,0.219941510117455,"true"
"image-keyboard-response",238,943895,"0.0-4.75-1.75","4yjc7hw8kl5hhnl",482,"1.csv","","null","resources/maskTrios/L4BB.jpg","null","",NA,NA,NA,NA,""
"image-keyboard-response",239,945104,"0.0-4.75-2.75","4yjc7hw8kl5hhnl",482,"1.csv","","null","resources/images/coin2.png","null","",NA,NA,NA,NA,""
"image-keyboard-response",240,945478,"0.0-4.76-0.76","4yjc7hw8kl5hhnl",482,"1.csv","","371.4000000357628","resources/trios/L4T4A3.jpg","39","restless",0.6,0.3,0.7,0.311505581089298,"true"
"image-keyboard-response",241,945894,"0.0-4.76-1.76","4yjc7hw8kl5hhnl",482,"1.csv","","null","resources/maskTrios/BBA3.jpg","null","",NA,NA,NA,NA,""
"image-keyboard-response",242,947105,"0.0-4.76-2.76","4yjc7hw8kl5hhnl",482,"1.csv","","null","resources/images/coin2.png","null","",NA,NA,NA,NA,""
"image-keyboard-response",243,947433,"0.0-4.77-0.77","4yjc7hw8kl5hhnl",482,"1.csv","","326.10000002384186","resources/trios/L4T4A3.jpg","37","restless",0.6,0.3,0.7,0.136823234876664,"true"
"image-keyboard-response",244,947850,"0.0-4.77-1.77","4yjc7hw8kl5hhnl",482,"1.csv","","null","resources/maskTrios/L4BB.jpg","null","",NA,NA,NA,NA,""
"image-keyboard-response",245,949063,"0.0-4.77-2.77","4yjc7hw8kl5hhnl",482,"1.csv","","null","resources/images/coin2.png","null","",NA,NA,NA,NA,""
"image-keyboard-response",246,949322,"0.0-4.78-0.78","4yjc7hw8kl5hhnl",482,"1.csv","","256.7999999523163","resources/trios/L4T4A3.jpg","39","restless",0.6,0.3,0.7,0.267113327883192,"true"
"image-keyboard-response",247,949730,"0.0-4.78-1.78","4yjc7hw8kl5hhnl",482,"1.csv","","null","resources/maskTrios/BBA3.jpg","null","",NA,NA,NA,NA,""
"image-keyboard-response",248,950941,"0.0-4.78-2.78","4yjc7hw8kl5hhnl",482,"1.csv","","null","resources/images/coin2.png","null","",NA,NA,NA,NA,""
"image-keyboard-response",249,951224,"0.0-4.79-0.79","4yjc7hw8kl5hhnl",482,"1.csv","","280.9000000357628","resources/trios/L4T4A3.jpg","37","restless",0.6,0.3,0.7,0.323571099669676,"true"
"image-keyboard-response",250,951637,"0.0-4.79-1.79","4yjc7hw8kl5hhnl",482,"1.csv","","null","resources/maskTrios/L4BB.jpg","null","",NA,NA,NA,NA,""
"image-keyboard-response",251,952847,"0.0-4.79-2.79","4yjc7hw8kl5hhnl",482,"1.csv","","null","resources/images/coin2.png","null","",NA,NA,NA,NA,""
"image-keyboard-response",252,953245,"0.0-4.80-0.80","4yjc7hw8kl5hhnl",482,"1.csv","","396.4000000357628","resources/trios/L4T4A3.jpg","39","restless",0.6,0.3,0.7,0.446538740797208,"true"
"image-keyboard-response",253,953655,"0.0-4.80-1.80","4yjc7hw8kl5hhnl",482,"1.csv","","null","resources/maskTrios/BBA3.jpg","null","",NA,NA,NA,NA,""
"image-keyboard-response",254,954868,"0.0-4.80-2.80","4yjc7hw8kl5hhnl",482,"1.csv","","null","resources/images/coin2.png","null","",NA,NA,NA,NA,""
"image-keyboard-response",255,955239,"0.0-4.81-0.81","4yjc7hw8kl5hhnl",482,"1.csv","","367.60000002384186","resources/trios/L4T4A3.jpg","37","restless",0.6,0.4,0.7,0.280868316653678,"true"
"image-keyboard-response",256,955642,"0.0-4.81-1.81","4yjc7hw8kl5hhnl",482,"1.csv","","null","resources/maskTrios/L4BB.jpg","null","",NA,NA,NA,NA,""
"image-keyboard-response",257,956854,"0.0-4.81-2.81","4yjc7hw8kl5hhnl",482,"1.csv","","null","resources/images/coin2.png","null","",NA,NA,NA,NA,""
"image-keyboard-response",258,957247,"0.0-4.82-0.82","4yjc7hw8kl5hhnl",482,"1.csv","","390.30000001192093","resources/trios/L4T4A3.jpg","39","restless",0.6,0.4,0.7,0.70725887331755,"false"
"image-keyboard-response",259,957661,"0.0-4.82-1.82","4yjc7hw8kl5hhnl",482,"1.csv","","null","resources/maskTrios/BBA3.jpg","null","",NA,NA,NA,NA,""
"image-keyboard-response",260,958873,"0.0-4.82-2.82","4yjc7hw8kl5hhnl",482,"1.csv","","null","resources/images/fishbone.png","null","",NA,NA,NA,NA,""
"image-keyboard-response",261,966230,"0.0-4.83-0.83","4yjc7hw8kl5hhnl",482,"1.csv","","7354.599999964237","resources/trios/L4T4A3.jpg","37","restless",0.6,0.4,0.7,0.850811539164448,"false"
"image-keyboard-response",262,966643,"0.0-4.83-1.83","4yjc7hw8kl5hhnl",482,"1.csv","","null","resources/maskTrios/L4BB.jpg","null","",NA,NA,NA,NA,""
"image-keyboard-response",263,967854,"0.0-4.83-2.83","4yjc7hw8kl5hhnl",482,"1.csv","","null","resources/images/fishbone.png","null","",NA,NA,NA,NA,""
"image-keyboard-response",264,968145,"0.0-4.84-0.84","4yjc7hw8kl5hhnl",482,"1.csv","","288.69999998807907","resources/trios/L4T4A3.jpg","38","restless",0.5,0.5,0.6,0.143208330081739,"true"
"image-keyboard-response",265,968555,"0.0-4.84-1.84","4yjc7hw8kl5hhnl",482,"1.csv","","null","resources/maskTrios/BT4B.jpg","null","",NA,NA,NA,NA,""
"image-keyboard-response",266,969765,"0.0-4.84-2.84","4yjc7hw8kl5hhnl",482,"1.csv","","null","resources/images/coin2.png","null","",NA,NA,NA,NA,""
"image-keyboard-response",267,970154,"0.0-4.85-0.85","4yjc7hw8kl5hhnl",482,"1.csv","","387.60000002384186","resources/trios/L4T4A3.jpg","38","restless",0.5,0.4,0.6,0.50312850091031,"false"
"image-keyboard-response",268,970558,"0.0-4.85-1.85","4yjc7hw8kl5hhnl",482,"1.csv","","null","resources/maskTrios/BT4B.jpg","null","",NA,NA,NA,NA,""
"image-keyboard-response",269,971770,"0.0-4.85-2.85","4yjc7hw8kl5hhnl",482,"1.csv","","null","resources/images/fishbone.png","null","",NA,NA,NA,NA,""
"image-keyboard-response",270,972105,"0.0-4.86-0.86","4yjc7hw8kl5hhnl",482,"1.csv","","333.30000001192093","resources/trios/L4T4A3.jpg","39","restless",0.5,0.5,0.7,0.608908347718316,"true"
"image-keyboard-response",271,972512,"0.0-4.86-1.86","4yjc7hw8kl5hhnl",482,"1.csv","","null","resources/maskTrios/BBA3.jpg","null","",NA,NA,NA,NA,""
"image-keyboard-response",272,973721,"0.0-4.86-2.86","4yjc7hw8kl5hhnl",482,"1.csv","","null","resources/images/coin2.png","null","",NA,NA,NA,NA,""
"image-keyboard-response",273,974115,"0.0-4.87-0.87","4yjc7hw8kl5hhnl",482,"1.csv","","391.80000001192093","resources/trios/L4T4A3.jpg","37","restless",0.5,0.5,0.7,0.233057455928916,"true"
"image-keyboard-response",274,974530,"0.0-4.87-1.87","4yjc7hw8kl5hhnl",482,"1.csv","","null","resources/maskTrios/L4BB.jpg","null","",NA,NA,NA,NA,""
"image-keyboard-response",275,975737,"0.0-4.87-2.87","4yjc7hw8kl5hhnl",482,"1.csv","","null","resources/images/coin2.png","null","",NA,NA,NA,NA,""
"image-keyboard-response",276,976174,"0.0-4.88-0.88","4yjc7hw8kl5hhnl",482,"1.csv","","434.7999999523163","resources/trios/L4T4A3.jpg","39","restless",0.5,0.5,0.7,0.102745608675499,"true"
"image-keyboard-response",277,976590,"0.0-4.88-1.88","4yjc7hw8kl5hhnl",482,"1.csv","","null","resources/maskTrios/BBA3.jpg","null","",NA,NA,NA,NA,""
"image-keyboard-response",278,977801,"0.0-4.88-2.88","4yjc7hw8kl5hhnl",482,"1.csv","","null","resources/images/coin2.png","null","",NA,NA,NA,NA,""
"image-keyboard-response",279,978102,"0.0-4.89-0.89","4yjc7hw8kl5hhnl",482,"1.csv","","299.9000000357628","resources/trios/L4T4A3.jpg","37","restless",0.5,0.6,0.7,0.92280000289287,"false"
"image-keyboard-response",280,978517,"0.0-4.89-1.89","4yjc7hw8kl5hhnl",482,"1.csv","","null","resources/maskTrios/L4BB.jpg","null","",NA,NA,NA,NA,""
"image-keyboard-response",281,979729,"0.0-4.89-2.89","4yjc7hw8kl5hhnl",482,"1.csv","","null","resources/images/fishbone.png","null","",NA,NA,NA,NA,""
"image-keyboard-response",282,980118,"0.0-4.90-0.90","4yjc7hw8kl5hhnl",482,"1.csv","","387.0999999642372","resources/trios/L4T4A3.jpg","39","restless",0.5,0.6,0.7,0.204420944643874,"true"
"image-keyboard-response",283,980521,"0.0-4.90-1.90","4yjc7hw8kl5hhnl",482,"1.csv","","null","resources/maskTrios/BBA3.jpg","null","",NA,NA,NA,NA,""
"image-keyboard-response",284,981731,"0.0-4.90-2.90","4yjc7hw8kl5hhnl",482,"1.csv","","null","resources/images/coin2.png","null","",NA,NA,NA,NA,""
"image-keyboard-response",285,982104,"0.0-4.91-0.91","4yjc7hw8kl5hhnl",482,"1.csv","","370.5","resources/trios/L4T4A3.jpg","38","restless",0.5,0.7,0.7,0.67650123802843,"true"
"image-keyboard-response",286,982520,"0.0-4.91-1.91","4yjc7hw8kl5hhnl",482,"1.csv","","null","resources/maskTrios/BT4B.jpg","null","",NA,NA,NA,NA,""
"image-keyboard-response",287,983732,"0.0-4.91-2.91","4yjc7hw8kl5hhnl",482,"1.csv","","null","resources/images/coin2.png","null","",NA,NA,NA,NA,""
"image-keyboard-response",288,984051,"0.0-4.92-0.92","4yjc7hw8kl5hhnl",482,"1.csv","","317","resources/trios/L4T4A3.jpg","39","restless",0.5,0.7,0.7,0.950610061354527,"false"
"image-keyboard-response",289,984463,"0.0-4.92-1.92","4yjc7hw8kl5hhnl",482,"1.csv","","null","resources/maskTrios/BBA3.jpg","null","",NA,NA,NA,NA,""
"image-keyboard-response",290,985675,"0.0-4.92-2.92","4yjc7hw8kl5hhnl",482,"1.csv","","null","resources/images/fishbone.png","null","",NA,NA,NA,NA,""
"image-keyboard-response",291,985976,"0.0-4.93-0.93","4yjc7hw8kl5hhnl",482,"1.csv","","297.80000001192093","resources/trios/L4T4A3.jpg","38","restless",0.5,0.7,0.7,0.0302293034254575,"true"
"image-keyboard-response",292,986386,"0.0-4.93-1.93","4yjc7hw8kl5hhnl",482,"1.csv","","null","resources/maskTrios/BT4B.jpg","null","",NA,NA,NA,NA,""
"image-keyboard-response",293,987600,"0.0-4.93-2.93","4yjc7hw8kl5hhnl",482,"1.csv","","null","resources/images/coin2.png","null","",NA,NA,NA,NA,""
"image-keyboard-response",294,987931,"0.0-4.94-0.94","4yjc7hw8kl5hhnl",482,"1.csv","","329","resources/trios/L4T4A3.jpg","37","restless",0.6,0.7,0.7,0.465756962534903,"true"
"image-keyboard-response",295,988345,"0.0-4.94-1.94","4yjc7hw8kl5hhnl",482,"1.csv","","null","resources/maskTrios/L4BB.jpg","null","",NA,NA,NA,NA,""
"image-keyboard-response",296,989551,"0.0-4.94-2.94","4yjc7hw8kl5hhnl",482,"1.csv","","null","resources/images/coin2.png","null","",NA,NA,NA,NA,""
"image-keyboard-response",297,989855,"0.0-4.95-0.95","4yjc7hw8kl5hhnl",482,"1.csv","","301.5","resources/trios/L4T4A3.jpg","38","restless",0.6,0.7,0.7,0.069315044531908,"true"
"image-keyboard-response",298,990265,"0.0-4.95-1.95","4yjc7hw8kl5hhnl",482,"1.csv","","null","resources/maskTrios/BT4B.jpg","null","",NA,NA,NA,NA,""
"image-keyboard-response",299,991477,"0.0-4.95-2.95","4yjc7hw8kl5hhnl",482,"1.csv","","null","resources/images/coin2.png","null","",NA,NA,NA,NA,""
"image-keyboard-response",300,991784,"0.0-4.96-0.96","4yjc7hw8kl5hhnl",482,"1.csv","","304.0999999642372","resources/trios/L4T4A3.jpg","37","restless",0.6,0.7,0.8,0.120541033390271,"true"
"image-keyboard-response",301,992191,"0.0-4.96-1.96","4yjc7hw8kl5hhnl",482,"1.csv","","null","resources/maskTrios/L4BB.jpg","null","",NA,NA,NA,NA,""
"image-keyboard-response",302,993402,"0.0-4.96-2.96","4yjc7hw8kl5hhnl",482,"1.csv","","null","resources/images/coin2.png","null","",NA,NA,NA,NA,""
"image-keyboard-response",303,993690,"0.0-4.97-0.97","4yjc7hw8kl5hhnl",482,"1.csv","","285.30000001192093","resources/trios/L4T4A3.jpg","38","restless",0.6,0.7,0.8,0.771687372653988,"false"
"image-keyboard-response",304,994101,"0.0-4.97-1.97","4yjc7hw8kl5hhnl",482,"1.csv","","null","resources/maskTrios/BT4B.jpg","null","",NA,NA,NA,NA,""
"image-keyboard-response",305,995309,"0.0-4.97-2.97","4yjc7hw8kl5hhnl",482,"1.csv","","null","resources/images/fishbone.png","null","",NA,NA,NA,NA,""
"image-keyboard-response",306,995780,"0.0-4.98-0.98","4yjc7hw8kl5hhnl",482,"1.csv","","469.10000002384186","resources/trios/L4T4A3.jpg","37","restless",0.5,0.7,0.8,0.815740118046479,"false"
"image-keyboard-response",307,996196,"0.0-4.98-1.98","4yjc7hw8kl5hhnl",482,"1.csv","","null","resources/maskTrios/L4BB.jpg","null","",NA,NA,NA,NA,""
"image-keyboard-response",308,997406,"0.0-4.98-2.98","4yjc7hw8kl5hhnl",482,"1.csv","","null","resources/images/fishbone.png","null","",NA,NA,NA,NA,""
"image-keyboard-response",309,997723,"0.0-4.99-0.99","4yjc7hw8kl5hhnl",482,"1.csv","","313.10000002384186","resources/trios/L4T4A3.jpg","39","restless",0.5,0.8,0.8,0.499419015361479,"true"
"image-keyboard-response",310,998136,"0.0-4.99-1.99","4yjc7hw8kl5hhnl",482,"1.csv","","null","resources/maskTrios/BBA3.jpg","null","",NA,NA,NA,NA,""
"image-keyboard-response",311,999344,"0.0-4.99-2.99","4yjc7hw8kl5hhnl",482,"1.csv","","null","resources/images/coin2.png","null","",NA,NA,NA,NA,""
"image-keyboard-response",312,999650,"0.0-4.100-0.100","4yjc7hw8kl5hhnl",482,"1.csv","","304.19999998807907","resources/trios/L4T4A3.jpg","39","restless",0.5,0.9,0.8,0.415641288967259,"true"
"image-keyboard-response",313,1000060,"0.0-4.100-1.100","4yjc7hw8kl5hhnl",482,"1.csv","","null","resources/maskTrios/BBA3.jpg","null","",NA,NA,NA,NA,""
"image-keyboard-response",314,1001270,"0.0-4.100-2.100","4yjc7hw8kl5hhnl",482,"1.csv","","null","resources/images/coin2.png","null","",NA,NA,NA,NA,""
"image-keyboard-response",315,1001546,"0.0-4.101-0.101","4yjc7hw8kl5hhnl",482,"1.csv","","273.4000000357628","resources/trios/L4T4A3.jpg","39","restless",0.5,0.9,0.8,0.778214707420883,"true"
"image-keyboard-response",316,1001952,"0.0-4.101-1.101","4yjc7hw8kl5hhnl",482,"1.csv","","null","resources/maskTrios/BBA3.jpg","null","",NA,NA,NA,NA,""
"image-keyboard-response",317,1003164,"0.0-4.101-2.101","4yjc7hw8kl5hhnl",482,"1.csv","","null","resources/images/coin2.png","null","",NA,NA,NA,NA,""
"image-keyboard-response",318,1003502,"0.0-4.102-0.102","4yjc7hw8kl5hhnl",482,"1.csv","","336.80000001192093","resources/trios/L4T4A3.jpg","39","restless",0.5,0.9,0.8,0.426280927289124,"true"
"image-keyboard-response",319,1003912,"0.0-4.102-1.102","4yjc7hw8kl5hhnl",482,"1.csv","","null","resources/maskTrios/BBA3.jpg","null","",NA,NA,NA,NA,""
"image-keyboard-response",320,1005123,"0.0-4.102-2.102","4yjc7hw8kl5hhnl",482,"1.csv","","null","resources/images/coin2.png","null","",NA,NA,NA,NA,""
"image-keyboard-response",321,1005405,"0.0-4.103-0.103","4yjc7hw8kl5hhnl",482,"1.csv","","279.80000001192093","resources/trios/L4T4A3.jpg","39","restless",0.5,0.9,0.8,0.657645489521552,"true"
"image-keyboard-response",322,1005818,"0.0-4.103-1.103","4yjc7hw8kl5hhnl",482,"1.csv","","null","resources/maskTrios/BBA3.jpg","null","",NA,NA,NA,NA,""
"image-keyboard-response",323,1007031,"0.0-4.103-2.103","4yjc7hw8kl5hhnl",482,"1.csv","","null","resources/images/coin2.png","null","",NA,NA,NA,NA,""
"image-keyboard-response",324,1007080,"0.0-4.104-0.104","4yjc7hw8kl5hhnl",482,"1.csv","","47","resources/trios/L4T4A3.jpg","39","restless",0.4,0.8,0.8,0.483103956164737,"true"
"image-keyboard-response",325,1007497,"0.0-4.104-1.104","4yjc7hw8kl5hhnl",482,"1.csv","","null","resources/maskTrios/BBA3.jpg","null","",NA,NA,NA,NA,""
"image-keyboard-response",326,1008707,"0.0-4.104-2.104","4yjc7hw8kl5hhnl",482,"1.csv","","null","resources/images/coin2.png","null","",NA,NA,NA,NA,""
"image-keyboard-response",327,1009183,"0.0-4.105-0.105","4yjc7hw8kl5hhnl",482,"1.csv","","474.4000000357628","resources/trios/L4T4A3.jpg","39","restless",0.4,0.8,0.8,0.0752636147329393,"true"
"image-keyboard-response",328,1009589,"0.0-4.105-1.105","4yjc7hw8kl5hhnl",482,"1.csv","","null","resources/maskTrios/BBA3.jpg","null","",NA,NA,NA,NA,""
"image-keyboard-response",329,1010804,"0.0-4.105-2.105","4yjc7hw8kl5hhnl",482,"1.csv","","null","resources/images/coin2.png","null","",NA,NA,NA,NA,""
"image-keyboard-response",330,1011291,"0.0-4.106-0.106","4yjc7hw8kl5hhnl",482,"1.csv","","484.60000002384186","resources/trios/L4T4A3.jpg","39","restless",0.4,0.8,0.8,0.516429027825676,"true"
"image-keyboard-response",331,1011708,"0.0-4.106-1.106","4yjc7hw8kl5hhnl",482,"1.csv","","null","resources/maskTrios/BBA3.jpg","null","",NA,NA,NA,NA,""
"image-keyboard-response",332,1012921,"0.0-4.106-2.106","4yjc7hw8kl5hhnl",482,"1.csv","","null","resources/images/coin2.png","null","",NA,NA,NA,NA,""
"image-keyboard-response",333,1012926,"0.0-4.107-0.107","4yjc7hw8kl5hhnl",482,"1.csv","","2.899999976158142","resources/trios/L4T4A3.jpg","39","restless",0.4,0.8,0.8,0.991877098271136,"false"
"image-keyboard-response",334,1013341,"0.0-4.107-1.107","4yjc7hw8kl5hhnl",482,"1.csv","","null","resources/maskTrios/BBA3.jpg","null","",NA,NA,NA,NA,""
"image-keyboard-response",335,1014550,"0.0-4.107-2.107","4yjc7hw8kl5hhnl",482,"1.csv","","null","resources/images/fishbone.png","null","",NA,NA,NA,NA,""
"image-keyboard-response",336,1015289,"0.0-4.108-0.108","4yjc7hw8kl5hhnl",482,"1.csv","","735.8000000119209","resources/trios/L4T4A3.jpg","38","restless",0.4,0.8,0.8,0.390779796651938,"true"
"image-keyboard-response",337,1015698,"0.0-4.108-1.108","4yjc7hw8kl5hhnl",482,"1.csv","","null","resources/maskTrios/BT4B.jpg","null","",NA,NA,NA,NA,""
"image-keyboard-response",338,1016909,"0.0-4.108-2.108","4yjc7hw8kl5hhnl",482,"1.csv","","null","resources/images/coin2.png","null","",NA,NA,NA,NA,""
"image-keyboard-response",339,1017375,"0.0-4.109-0.109","4yjc7hw8kl5hhnl",482,"1.csv","","463.80000001192093","resources/trios/L4T4A3.jpg","38","restless",0.4,0.8,0.8,0.416247548228165,"true"
"image-keyboard-response",340,1017791,"0.0-4.109-1.109","4yjc7hw8kl5hhnl",482,"1.csv","","null","resources/maskTrios/BT4B.jpg","null","",NA,NA,NA,NA,""
"image-keyboard-response",341,1019003,"0.0-4.109-2.109","4yjc7hw8kl5hhnl",482,"1.csv","","null","resources/images/coin2.png","null","",NA,NA,NA,NA,""
"image-keyboard-response",342,1019773,"0.0-4.110-0.110","4yjc7hw8kl5hhnl",482,"1.csv","","767.6999999880791","resources/trios/L4T4A3.jpg","38","restless",0.4,0.9,0.8,0.160913261998059,"true"
"image-keyboard-response",343,1020182,"0.0-4.110-1.110","4yjc7hw8kl5hhnl",482,"1.csv","","null","resources/maskTrios/BT4B.jpg","null","",NA,NA,NA,NA,""
"image-keyboard-response",344,1021388,"0.0-4.110-2.110","4yjc7hw8kl5hhnl",482,"1.csv","","null","resources/images/coin2.png","null","",NA,NA,NA,NA,""
"image-keyboard-response",345,1021668,"0.0-4.111-0.111","4yjc7hw8kl5hhnl",482,"1.csv","","277.89999997615814","resources/trios/L4T4A3.jpg","38","restless",0.4,0.9,0.8,0.506958585505211,"true"
"image-keyboard-response",346,1022073,"0.0-4.111-1.111","4yjc7hw8kl5hhnl",482,"1.csv","","null","resources/maskTrios/BT4B.jpg","null","",NA,NA,NA,NA,""
"image-keyboard-response",347,1023280,"0.0-4.111-2.111","4yjc7hw8kl5hhnl",482,"1.csv","","null","resources/images/coin2.png","null","",NA,NA,NA,NA,""
"image-keyboard-response",348,1023583,"0.0-4.112-0.112","4yjc7hw8kl5hhnl",482,"1.csv","","300.19999998807907","resources/trios/L4T4A3.jpg","38","restless",0.4,0.9,0.8,0.576033898214187,"true"
"image-keyboard-response",349,1023992,"0.0-4.112-1.112","4yjc7hw8kl5hhnl",482,"1.csv","","null","resources/maskTrios/BT4B.jpg","null","",NA,NA,NA,NA,""
"image-keyboard-response",350,1025203,"0.0-4.112-2.112","4yjc7hw8kl5hhnl",482,"1.csv","","null","resources/images/coin2.png","null","",NA,NA,NA,NA,""
"image-keyboard-response",351,1025497,"0.0-4.113-0.113","4yjc7hw8kl5hhnl",482,"1.csv","","291.7999999523163","resources/trios/L4T4A3.jpg","38","restless",0.4,0.9,0.8,0.0903877449068469,"true"
"image-keyboard-response",352,1025901,"0.0-4.113-1.113","4yjc7hw8kl5hhnl",482,"1.csv","","null","resources/maskTrios/BT4B.jpg","null","",NA,NA,NA,NA,""
"image-keyboard-response",353,1027108,"0.0-4.113-2.113","4yjc7hw8kl5hhnl",482,"1.csv","","null","resources/images/coin2.png","null","",NA,NA,NA,NA,""
"image-keyboard-response",354,1027393,"0.0-4.114-0.114","4yjc7hw8kl5hhnl",482,"1.csv","","283.4000000357628","resources/trios/L4T4A3.jpg","38","restless",0.4,0.9,0.7,0.412914166770644,"true"
"image-keyboard-response",355,1027808,"0.0-4.114-1.114","4yjc7hw8kl5hhnl",482,"1.csv","","null","resources/maskTrios/BT4B.jpg","null","",NA,NA,NA,NA,""
"image-keyboard-response",356,1029021,"0.0-4.114-2.114","4yjc7hw8kl5hhnl",482,"1.csv","","null","resources/images/coin2.png","null","",NA,NA,NA,NA,""
"image-keyboard-response",357,1029390,"0.0-4.115-0.115","4yjc7hw8kl5hhnl",482,"1.csv","","366.5","resources/trios/L4T4A3.jpg","38","restless",0.4,0.9,0.7,0.827232114081608,"true"
"image-keyboard-response",358,1029793,"0.0-4.115-1.115","4yjc7hw8kl5hhnl",482,"1.csv","","null","resources/maskTrios/BT4B.jpg","null","",NA,NA,NA,NA,""
"image-keyboard-response",359,1031006,"0.0-4.115-2.115","4yjc7hw8kl5hhnl",482,"1.csv","","null","resources/images/coin2.png","null","",NA,NA,NA,NA,""
"image-keyboard-response",360,1039992,"0.0-4.116-0.116","4yjc7hw8kl5hhnl",482,"1.csv","","8984.300000011921","resources/trios/L4T4A3.jpg","38","restless",0.4,0.9,0.7,0.467938115203647,"true"
"image-keyboard-response",361,1040410,"0.0-4.116-1.116","4yjc7hw8kl5hhnl",482,"1.csv","","null","resources/maskTrios/BT4B.jpg","null","",NA,NA,NA,NA,""
"image-keyboard-response",362,1041617,"0.0-4.116-2.116","4yjc7hw8kl5hhnl",482,"1.csv","","null","resources/images/coin2.png","null","",NA,NA,NA,NA,""
"image-keyboard-response",363,1042075,"0.0-4.117-0.117","4yjc7hw8kl5hhnl",482,"1.csv","","456.69999998807907","resources/trios/L4T4A3.jpg","38","restless",0.4,0.9,0.7,0.943266495820307,"false"
"image-keyboard-response",364,1042487,"0.0-4.117-1.117","4yjc7hw8kl5hhnl",482,"1.csv","","null","resources/maskTrios/BT4B.jpg","null","",NA,NA,NA,NA,""
"image-keyboard-response",365,1043698,"0.0-4.117-2.117","4yjc7hw8kl5hhnl",482,"1.csv","","null","resources/images/fishbone.png","null","",NA,NA,NA,NA,""
"image-keyboard-response",366,1044012,"0.0-4.118-0.118","4yjc7hw8kl5hhnl",482,"1.csv","","311.7000000476837","resources/trios/L4T4A3.jpg","37","restless",0.4,0.8,0.7,0.350805989766429,"true"
"image-keyboard-response",367,1044429,"0.0-4.118-1.118","4yjc7hw8kl5hhnl",482,"1.csv","","null","resources/maskTrios/L4BB.jpg","null","",NA,NA,NA,NA,""
"image-keyboard-response",368,1045640,"0.0-4.118-2.118","4yjc7hw8kl5hhnl",482,"1.csv","","null","resources/images/coin2.png","null","",NA,NA,NA,NA,""
"image-keyboard-response",369,1046072,"0.0-4.119-0.119","4yjc7hw8kl5hhnl",482,"1.csv","","431.19999998807907","resources/trios/L4T4A3.jpg","37","restless",0.4,0.8,0.7,0.896716956522261,"false"
"image-keyboard-response",370,1046480,"0.0-4.119-1.119","4yjc7hw8kl5hhnl",482,"1.csv","","null","resources/maskTrios/L4BB.jpg","null","",NA,NA,NA,NA,""
"image-keyboard-response",371,1047690,"0.0-4.119-2.119","4yjc7hw8kl5hhnl",482,"1.csv","","null","resources/images/fishbone.png","null","",NA,NA,NA,NA,""
"image-keyboard-response",372,1048068,"0.0-4.120-0.120","4yjc7hw8kl5hhnl",482,"1.csv","","376.69999998807907","resources/trios/L4T4A3.jpg","39","restless",0.4,0.8,0.7,0.552887925336448,"true"
"image-keyboard-response",373,1048482,"0.0-4.120-1.120","4yjc7hw8kl5hhnl",482,"1.csv","","null","resources/maskTrios/BBA3.jpg","null","",NA,NA,NA,NA,""
"image-keyboard-response",374,1049689,"0.0-4.120-2.120","4yjc7hw8kl5hhnl",482,"1.csv","","null","resources/images/coin2.png","null","",NA,NA,NA,NA,""
"image-keyboard-response",375,1050223,"0.0-4.121-0.121","4yjc7hw8kl5hhnl",482,"1.csv","","532.6999999880791","resources/trios/L4T4A3.jpg","39","restless",0.4,0.8,0.7,0.660894236272409,"true"
"image-keyboard-response",376,1050632,"0.0-4.121-1.121","4yjc7hw8kl5hhnl",482,"1.csv","","null","resources/maskTrios/BBA3.jpg","null","",NA,NA,NA,NA,""
"image-keyboard-response",377,1051843,"0.0-4.121-2.121","4yjc7hw8kl5hhnl",482,"1.csv","","null","resources/images/coin2.png","null","",NA,NA,NA,NA,""
"image-keyboard-response",378,1052197,"0.0-4.122-0.122","4yjc7hw8kl5hhnl",482,"1.csv","","352.30000001192093","resources/trios/L4T4A3.jpg","38","restless",0.4,0.8,0.7,0.181542027567935,"true"
"image-keyboard-response",379,1052605,"0.0-4.122-1.122","4yjc7hw8kl5hhnl",482,"1.csv","","null","resources/maskTrios/BT4B.jpg","null","",NA,NA,NA,NA,""
"image-keyboard-response",380,1053817,"0.0-4.122-2.122","4yjc7hw8kl5hhnl",482,"1.csv","","null","resources/images/coin2.png","null","",NA,NA,NA,NA,""
"image-keyboard-response",381,1054145,"0.0-4.123-0.123","4yjc7hw8kl5hhnl",482,"1.csv","","325","resources/trios/L4T4A3.jpg","39","restless",0.3,0.8,0.6,0.0321785973805431,"true"
"image-keyboard-response",382,1054549,"0.0-4.123-1.123","4yjc7hw8kl5hhnl",482,"1.csv","","null","resources/maskTrios/BBA3.jpg","null","",NA,NA,NA,NA,""
"image-keyboard-response",383,1055761,"0.0-4.123-2.123","4yjc7hw8kl5hhnl",482,"1.csv","","null","resources/images/coin2.png","null","",NA,NA,NA,NA,""
"image-keyboard-response",384,1056025,"0.0-4.124-0.124","4yjc7hw8kl5hhnl",482,"1.csv","","260.5999999642372","resources/trios/L4T4A3.jpg","38","restless",0.3,0.8,0.6,0.212077653032813,"true"
"image-keyboard-response",385,1056442,"0.0-4.124-1.124","4yjc7hw8kl5hhnl",482,"1.csv","","null","resources/maskTrios/BT4B.jpg","null","",NA,NA,NA,NA,""
"image-keyboard-response",386,1057653,"0.0-4.124-2.124","4yjc7hw8kl5hhnl",482,"1.csv","","null","resources/images/coin2.png","null","",NA,NA,NA,NA,""
"image-keyboard-response",387,1057925,"0.0-4.125-0.125","4yjc7hw8kl5hhnl",482,"1.csv","","270.80000001192093","resources/trios/L4T4A3.jpg","39","restless",0.3,0.8,0.6,0.200918124971482,"true"
"image-keyboard-response",388,1058336,"0.0-4.125-1.125","4yjc7hw8kl5hhnl",482,"1.csv","","null","resources/maskTrios/BBA3.jpg","null","",NA,NA,NA,NA,""
"image-keyboard-response",389,1059548,"0.0-4.125-2.125","4yjc7hw8kl5hhnl",482,"1.csv","","null","resources/images/coin2.png","null","",NA,NA,NA,NA,""
"image-keyboard-response",390,1059835,"0.0-4.126-0.126","4yjc7hw8kl5hhnl",482,"1.csv","","284.5999999642372","resources/trios/L4T4A3.jpg","38","restless",0.3,0.8,0.6,0.927871695775835,"false"
"image-keyboard-response",391,1060249,"0.0-4.126-1.126","4yjc7hw8kl5hhnl",482,"1.csv","","null","resources/maskTrios/BT4B.jpg","null","",NA,NA,NA,NA,""
"image-keyboard-response",392,1061459,"0.0-4.126-2.126","4yjc7hw8kl5hhnl",482,"1.csv","","null","resources/images/fishbone.png","null","",NA,NA,NA,NA,""
"image-keyboard-response",393,1061834,"0.0-4.127-0.127","4yjc7hw8kl5hhnl",482,"1.csv","","372.80000001192093","resources/trios/L4T4A3.jpg","39","restless",0.3,0.8,0.6,0.426514571984168,"true"
"image-keyboard-response",394,1062237,"0.0-4.127-1.127","4yjc7hw8kl5hhnl",482,"1.csv","","null","resources/maskTrios/BBA3.jpg","null","",NA,NA,NA,NA,""
"image-keyboard-response",395,1063451,"0.0-4.127-2.127","4yjc7hw8kl5hhnl",482,"1.csv","","null","resources/images/coin2.png","null","",NA,NA,NA,NA,""
"image-keyboard-response",396,1063791,"0.0-4.128-0.128","4yjc7hw8kl5hhnl",482,"1.csv","","337.30000001192093","resources/trios/L4T4A3.jpg","37","restless",0.3,0.8,0.6,0.16958094519384,"true"
"image-keyboard-response",397,1064197,"0.0-4.128-1.128","4yjc7hw8kl5hhnl",482,"1.csv","","null","resources/maskTrios/L4BB.jpg","null","",NA,NA,NA,NA,""
"image-keyboard-response",398,1065408,"0.0-4.128-2.128","4yjc7hw8kl5hhnl",482,"1.csv","","null","resources/images/coin2.png","null","",NA,NA,NA,NA,""
"image-keyboard-response",399,1065745,"0.0-4.129-0.129","4yjc7hw8kl5hhnl",482,"1.csv","","334.69999998807907","resources/trios/L4T4A3.jpg","39","restless",0.3,0.8,0.6,0.0944510098011846,"true"
"image-keyboard-response",400,1066152,"0.0-4.129-1.129","4yjc7hw8kl5hhnl",482,"1.csv","","null","resources/maskTrios/BBA3.jpg","null","",NA,NA,NA,NA,""
"image-keyboard-response",401,1067360,"0.0-4.129-2.129","4yjc7hw8kl5hhnl",482,"1.csv","","null","resources/images/coin2.png","null","",NA,NA,NA,NA,""
"image-keyboard-response",402,1067645,"0.0-4.130-0.130","4yjc7hw8kl5hhnl",482,"1.csv","","283.10000002384186","resources/trios/L4T4A3.jpg","37","restless",0.3,0.8,0.6,0.655956258638393,"false"
"image-keyboard-response",403,1068056,"0.0-4.130-1.130","4yjc7hw8kl5hhnl",482,"1.csv","","null","resources/maskTrios/L4BB.jpg","null","",NA,NA,NA,NA,""
"image-keyboard-response",404,1069269,"0.0-4.130-2.130","4yjc7hw8kl5hhnl",482,"1.csv","","null","resources/images/fishbone.png","null","",NA,NA,NA,NA,""
"image-keyboard-response",405,1069554,"0.0-4.131-0.131","4yjc7hw8kl5hhnl",482,"1.csv","","283","resources/trios/L4T4A3.jpg","39","restless",0.3,0.8,0.6,0.606517353949074,"false"
"image-keyboard-response",406,1069970,"0.0-4.131-1.131","4yjc7hw8kl5hhnl",482,"1.csv","","null","resources/maskTrios/BBA3.jpg","null","",NA,NA,NA,NA,""
"image-keyboard-response",407,1071185,"0.0-4.131-2.131","4yjc7hw8kl5hhnl",482,"1.csv","","null","resources/images/fishbone.png","null","",NA,NA,NA,NA,""
"image-keyboard-response",408,1071405,"0.0-4.132-0.132","4yjc7hw8kl5hhnl",482,"1.csv","","218.10000002384186","resources/trios/L4T4A3.jpg","38","restless",0.3,0.8,0.6,0.535898415839763,"true"
"image-keyboard-response",409,1071823,"0.0-4.132-1.132","4yjc7hw8kl5hhnl",482,"1.csv","","null","resources/maskTrios/BT4B.jpg","null","",NA,NA,NA,NA,""
"image-keyboard-response",410,1073032,"0.0-4.132-2.132","4yjc7hw8kl5hhnl",482,"1.csv","","null","resources/images/coin2.png","null","",NA,NA,NA,NA,""
"image-keyboard-response",411,1073466,"0.0-4.133-0.133","4yjc7hw8kl5hhnl",482,"1.csv","","432.2999999523163","resources/trios/L4T4A3.jpg","39","restless",0.3,0.8,0.6,0.376163988815375,"true"
"image-keyboard-response",412,1073883,"0.0-4.133-1.133","4yjc7hw8kl5hhnl",482,"1.csv","","null","resources/maskTrios/BBA3.jpg","null","",NA,NA,NA,NA,""
"image-keyboard-response",413,1075090,"0.0-4.133-2.133","4yjc7hw8kl5hhnl",482,"1.csv","","null","resources/images/coin2.png","null","",NA,NA,NA,NA,""
"image-keyboard-response",414,1075373,"0.0-4.134-0.134","4yjc7hw8kl5hhnl",482,"1.csv","","280.69999998807907","resources/trios/L4T4A3.jpg","38","restless",0.3,0.8,0.6,0.704537204712451,"true"
"image-keyboard-response",415,1075788,"0.0-4.134-1.134","4yjc7hw8kl5hhnl",482,"1.csv","","null","resources/maskTrios/BT4B.jpg","null","",NA,NA,NA,NA,""
"image-keyboard-response",416,1076999,"0.0-4.134-2.134","4yjc7hw8kl5hhnl",482,"1.csv","","null","resources/images/coin2.png","null","",NA,NA,NA,NA,""
"image-keyboard-response",417,1077270,"0.0-4.135-0.135","4yjc7hw8kl5hhnl",482,"1.csv","","268.60000002384186","resources/trios/L4T4A3.jpg","39","restless",0.3,0.8,0.6,0.705634729675801,"false"
"image-keyboard-response",418,1077682,"0.0-4.135-1.135","4yjc7hw8kl5hhnl",482,"1.csv","","null","resources/maskTrios/BBA3.jpg","null","",NA,NA,NA,NA,""
"image-keyboard-response",419,1078894,"0.0-4.135-2.135","4yjc7hw8kl5hhnl",482,"1.csv","","null","resources/images/fishbone.png","null","",NA,NA,NA,NA,""
"image-keyboard-response",420,1079197,"0.0-4.136-0.136","4yjc7hw8kl5hhnl",482,"1.csv","","300.0999999642372","resources/trios/L4T4A3.jpg","38","restless",0.3,0.8,0.6,0.88223399562347,"false"
"image-keyboard-response",421,1079610,"0.0-4.136-1.136","4yjc7hw8kl5hhnl",482,"1.csv","","null","resources/maskTrios/BT4B.jpg","null","",NA,NA,NA,NA,""
"image-keyboard-response",422,1080825,"0.0-4.136-2.136","4yjc7hw8kl5hhnl",482,"1.csv","","null","resources/images/fishbone.png","null","",NA,NA,NA,NA,""
"image-keyboard-response",423,1081075,"0.0-4.137-0.137","4yjc7hw8kl5hhnl",482,"1.csv","","248.10000002384186","resources/trios/L4T4A3.jpg","37","restless",0.3,0.8,0.6,0.183482917523571,"true"
"image-keyboard-response",424,1081492,"0.0-4.137-1.137","4yjc7hw8kl5hhnl",482,"1.csv","","null","resources/maskTrios/L4BB.jpg","null","",NA,NA,NA,NA,""
"image-keyboard-response",425,1082706,"0.0-4.137-2.137","4yjc7hw8kl5hhnl",482,"1.csv","","null","resources/images/coin2.png","null","",NA,NA,NA,NA,""
"image-keyboard-response",426,1082982,"0.0-4.138-0.138","4yjc7hw8kl5hhnl",482,"1.csv","","274.0999999642372","resources/trios/L4T4A3.jpg","39","restless",0.3,0.9,0.6,0.759072750385902,"false"
"image-keyboard-response",427,1083386,"0.0-4.138-1.138","4yjc7hw8kl5hhnl",482,"1.csv","","null","resources/maskTrios/BBA3.jpg","null","",NA,NA,NA,NA,""
"image-keyboard-response",428,1084596,"0.0-4.138-2.138","4yjc7hw8kl5hhnl",482,"1.csv","","null","resources/images/fishbone.png","null","",NA,NA,NA,NA,""
"image-keyboard-response",429,1085144,"0.0-4.139-0.139","4yjc7hw8kl5hhnl",482,"1.csv","","545.9000000357628","resources/trios/L4T4A3.jpg","37","restless",0.3,0.9,0.6,0.241740341971357,"true"
"image-keyboard-response",430,1085559,"0.0-4.139-1.139","4yjc7hw8kl5hhnl",482,"1.csv","","null","resources/maskTrios/L4BB.jpg","null","",NA,NA,NA,NA,""
"image-keyboard-response",431,1086771,"0.0-4.139-2.139","4yjc7hw8kl5hhnl",482,"1.csv","","null","resources/images/coin2.png","null","",NA,NA,NA,NA,""
"image-keyboard-response",432,1087121,"0.0-4.140-0.140","4yjc7hw8kl5hhnl",482,"1.csv","","348.60000002384186","resources/trios/L4T4A3.jpg","37","restless",0.3,0.9,0.6,0.374623757105147,"false"
"image-keyboard-response",433,1087533,"0.0-4.140-1.140","4yjc7hw8kl5hhnl",482,"1.csv","","null","resources/maskTrios/L4BB.jpg","null","",NA,NA,NA,NA,""
"image-keyboard-response",434,1088747,"0.0-4.140-2.140","4yjc7hw8kl5hhnl",482,"1.csv","","null","resources/images/fishbone.png","null","",NA,NA,NA,NA,""
"image-keyboard-response",435,1089032,"0.0-4.141-0.141","4yjc7hw8kl5hhnl",482,"1.csv","","282.30000001192093","resources/trios/L4T4A3.jpg","38","restless",0.3,0.9,0.6,0.558102848059168,"true"
"image-keyboard-response",436,1089445,"0.0-4.141-1.141","4yjc7hw8kl5hhnl",482,"1.csv","","null","resources/maskTrios/BT4B.jpg","null","",NA,NA,NA,NA,""
"image-keyboard-response",437,1090655,"0.0-4.141-2.141","4yjc7hw8kl5hhnl",482,"1.csv","","null","resources/images/coin2.png","null","",NA,NA,NA,NA,""
"image-keyboard-response",438,1090949,"0.0-4.142-0.142","4yjc7hw8kl5hhnl",482,"1.csv","","292.19999998807907","resources/trios/L4T4A3.jpg","39","restless",0.3,0.9,0.5,0.532083403492894,"false"
"image-keyboard-response",439,1091367,"0.0-4.142-1.142","4yjc7hw8kl5hhnl",482,"1.csv","","null","resources/maskTrios/BBA3.jpg","null","",NA,NA,NA,NA,""
"image-keyboard-response",440,1092579,"0.0-4.142-2.142","4yjc7hw8kl5hhnl",482,"1.csv","","null","resources/images/fishbone.png","null","",NA,NA,NA,NA,""
"image-keyboard-response",441,1092941,"0.0-4.143-0.143","4yjc7hw8kl5hhnl",482,"1.csv","","360.0999999642372","resources/trios/L4T4A3.jpg","37","restless",0.3,0.9,0.6,0.817334427882203,"false"
"image-keyboard-response",442,1093357,"0.0-4.143-1.143","4yjc7hw8kl5hhnl",482,"1.csv","","null","resources/maskTrios/L4BB.jpg","null","",NA,NA,NA,NA,""
"image-keyboard-response",443,1094560,"0.0-4.143-2.143","4yjc7hw8kl5hhnl",482,"1.csv","","null","resources/images/fishbone.png","null","",NA,NA,NA,NA,""
"image-keyboard-response",444,1095065,"0.0-4.144-0.144","4yjc7hw8kl5hhnl",482,"1.csv","","503.5999999642372","resources/trios/L4T4A3.jpg","38","restless",0.3,0.9,0.6,0.216509755465544,"true"
"image-keyboard-response",445,1095478,"0.0-4.144-1.144","4yjc7hw8kl5hhnl",482,"1.csv","","null","resources/maskTrios/BT4B.jpg","null","",NA,NA,NA,NA,""
"image-keyboard-response",446,1096691,"0.0-4.144-2.144","4yjc7hw8kl5hhnl",482,"1.csv","","null","resources/images/coin2.png","null","",NA,NA,NA,NA,""
"image-keyboard-response",447,1096948,"0.0-4.145-0.145","4yjc7hw8kl5hhnl",482,"1.csv","","254.80000001192093","resources/trios/L4T4A3.jpg","38","restless",0.3,0.9,0.7,0.207233195107419,"true"
"image-keyboard-response",448,1097356,"0.0-4.145-1.145","4yjc7hw8kl5hhnl",482,"1.csv","","null","resources/maskTrios/BT4B.jpg","null","",NA,NA,NA,NA,""
"image-keyboard-response",449,1098566,"0.0-4.145-2.145","4yjc7hw8kl5hhnl",482,"1.csv","","null","resources/images/coin2.png","null","",NA,NA,NA,NA,""
"image-keyboard-response",450,1098612,"0.0-4.146-0.146","4yjc7hw8kl5hhnl",482,"1.csv","","43.80000001192093","resources/trios/L4T4A3.jpg","38","restless",0.4,0.9,0.7,0.123839860121156,"true"
"image-keyboard-response",451,1099016,"0.0-4.146-1.146","4yjc7hw8kl5hhnl",482,"1.csv","","null","resources/maskTrios/BT4B.jpg","null","",NA,NA,NA,NA,""
"image-keyboard-response",452,1100227,"0.0-4.146-2.146","4yjc7hw8kl5hhnl",482,"1.csv","","null","resources/images/coin2.png","null","",NA,NA,NA,NA,""
"image-keyboard-response",453,1100400,"0.0-4.147-0.147","4yjc7hw8kl5hhnl",482,"1.csv","","169.60000002384186","resources/trios/L4T4A3.jpg","38","restless",0.4,0.9,0.7,0.551434514818183,"true"
"image-keyboard-response",454,1100816,"0.0-4.147-1.147","4yjc7hw8kl5hhnl",482,"1.csv","","null","resources/maskTrios/BT4B.jpg","null","",NA,NA,NA,NA,""
"image-keyboard-response",455,1102022,"0.0-4.147-2.147","4yjc7hw8kl5hhnl",482,"1.csv","","null","resources/images/coin2.png","null","",NA,NA,NA,NA,""
"image-keyboard-response",456,1102727,"0.0-4.148-0.148","4yjc7hw8kl5hhnl",482,"1.csv","","702.7999999523163","resources/trios/L4T4A3.jpg","38","restless",0.4,0.9,0.7,0.517078841043755,"true"
"image-keyboard-response",457,1103140,"0.0-4.148-1.148","4yjc7hw8kl5hhnl",482,"1.csv","","null","resources/maskTrios/BT4B.jpg","null","",NA,NA,NA,NA,""
"image-keyboard-response",458,1104353,"0.0-4.148-2.148","4yjc7hw8kl5hhnl",482,"1.csv","","null","resources/images/coin2.png","null","",NA,NA,NA,NA,""
"image-keyboard-response",459,1105101,"0.0-4.149-0.149","4yjc7hw8kl5hhnl",482,"1.csv","","746.8000000119209","resources/trios/L4T4A3.jpg","38","restless",0.4,0.9,0.7,0.498652325627686,"true"
"image-keyboard-response",460,1105510,"0.0-4.149-1.149","4yjc7hw8kl5hhnl",482,"1.csv","","null","resources/maskTrios/BT4B.jpg","null","",NA,NA,NA,NA,""
"image-keyboard-response",461,1106721,"0.0-4.149-2.149","4yjc7hw8kl5hhnl",482,"1.csv","","null","resources/images/coin2.png","null","",NA,NA,NA,NA,""
"image-keyboard-response",462,1115175,"0.0-4.150-0.150","4yjc7hw8kl5hhnl",482,"1.csv","","8451.300000011921","resources/trios/L4T4A3.jpg","38","restless",0.4,0.9,0.7,0.322957233725554,"true"
"image-keyboard-response",463,1115586,"0.0-4.150-1.150","4yjc7hw8kl5hhnl",482,"1.csv","","null","resources/maskTrios/BT4B.jpg","null","",NA,NA,NA,NA,""
"image-keyboard-response",464,1116799,"0.0-4.150-2.150","4yjc7hw8kl5hhnl",482,"1.csv","","null","resources/images/coin2.png","null","",NA,NA,NA,NA,""
"image-keyboard-response",465,1117178,"0.0-4.151-0.151","4yjc7hw8kl5hhnl",482,"1.csv","","377.5","resources/trios/L4T4A3.jpg","38","restless",0.4,0.9,0.7,0.920007008332144,"false"
"image-keyboard-response",466,1117589,"0.0-4.151-1.151","4yjc7hw8kl5hhnl",482,"1.csv","","null","resources/maskTrios/BT4B.jpg","null","",NA,NA,NA,NA,""
"image-keyboard-response",467,1118799,"0.0-4.151-2.151","4yjc7hw8kl5hhnl",482,"1.csv","","null","resources/images/fishbone.png","null","",NA,NA,NA,NA,""
"image-keyboard-response",468,1119921,"0.0-4.152-0.152","4yjc7hw8kl5hhnl",482,"1.csv","","1119.9000000357628","resources/trios/L4T4A3.jpg","37","restless",0.5,0.9,0.7,0.352946002009979,"true"
"image-keyboard-response",469,1120336,"0.0-4.152-1.152","4yjc7hw8kl5hhnl",482,"1.csv","","null","resources/maskTrios/L4BB.jpg","null","",NA,NA,NA,NA,""
"image-keyboard-response",470,1121549,"0.0-4.152-2.152","4yjc7hw8kl5hhnl",482,"1.csv","","null","resources/images/coin2.png","null","",NA,NA,NA,NA,""
"image-keyboard-response",471,1121991,"0.0-4.153-0.153","4yjc7hw8kl5hhnl",482,"1.csv","","439.9000000357628","resources/trios/L4T4A3.jpg","37","restless",0.5,0.9,0.7,0.772507282749436,"false"
"image-keyboard-response",472,1122401,"0.0-4.153-1.153","4yjc7hw8kl5hhnl",482,"1.csv","","null","resources/maskTrios/L4BB.jpg","null","",NA,NA,NA,NA,""
"image-keyboard-response",473,1123610,"0.0-4.153-2.153","4yjc7hw8kl5hhnl",482,"1.csv","","null","resources/images/fishbone.png","null","",NA,NA,NA,NA,""
"image-keyboard-response",474,1133225,"0.0-4.154-0.154","4yjc7hw8kl5hhnl",482,"1.csv","","9613.599999964237","resources/trios/L4T4A3.jpg","38","restless",0.5,0.9,0.7,0.196104493853076,"true"
"image-keyboard-response",475,1133636,"0.0-4.154-1.154","4yjc7hw8kl5hhnl",482,"1.csv","","null","resources/maskTrios/BT4B.jpg","null","",NA,NA,NA,NA,""
"image-keyboard-response",476,1134845,"0.0-4.154-2.154","4yjc7hw8kl5hhnl",482,"1.csv","","null","resources/images/coin2.png","null","",NA,NA,NA,NA,""
"image-keyboard-response",477,1135214,"0.0-4.155-0.155","4yjc7hw8kl5hhnl",482,"1.csv","","367.60000002384186","resources/trios/L4T4A3.jpg","38","restless",0.5,0.9,0.7,0.521281763373502,"true"
"image-keyboard-response",478,1135622,"0.0-4.155-1.155","4yjc7hw8kl5hhnl",482,"1.csv","","null","resources/maskTrios/BT4B.jpg","null","",NA,NA,NA,NA,""
"image-keyboard-response",479,1136829,"0.0-4.155-2.155","4yjc7hw8kl5hhnl",482,"1.csv","","null","resources/images/coin2.png","null","",NA,NA,NA,NA,""
"image-keyboard-response",480,1137174,"0.0-4.156-0.156","4yjc7hw8kl5hhnl",482,"1.csv","","342.4000000357628","resources/trios/L4T4A3.jpg","38","restless",0.5,0.9,0.7,0.130846094849936,"true"
"image-keyboard-response",481,1137589,"0.0-4.156-1.156","4yjc7hw8kl5hhnl",482,"1.csv","","null","resources/maskTrios/BT4B.jpg","null","",NA,NA,NA,NA,""
"image-keyboard-response",482,1138799,"0.0-4.156-2.156","4yjc7hw8kl5hhnl",482,"1.csv","","null","resources/images/coin2.png","null","",NA,NA,NA,NA,""
"image-keyboard-response",483,1139204,"0.0-4.157-0.157","4yjc7hw8kl5hhnl",482,"1.csv","","403.19999998807907","resources/trios/L4T4A3.jpg","38","restless",0.5,0.9,0.7,0.361934067767746,"true"
"image-keyboard-response",484,1139619,"0.0-4.157-1.157","4yjc7hw8kl5hhnl",482,"1.csv","","null","resources/maskTrios/BT4B.jpg","null","",NA,NA,NA,NA,""
"image-keyboard-response",485,1140831,"0.0-4.157-2.157","4yjc7hw8kl5hhnl",482,"1.csv","","null","resources/images/coin2.png","null","",NA,NA,NA,NA,""
"image-keyboard-response",486,1141104,"0.0-4.158-0.158","4yjc7hw8kl5hhnl",482,"1.csv","","270.19999998807907","resources/trios/L4T4A3.jpg","38","restless",0.5,0.8,0.7,0.507066763772733,"true"
"image-keyboard-response",487,1141517,"0.0-4.158-1.158","4yjc7hw8kl5hhnl",482,"1.csv","","null","resources/maskTrios/BT4B.jpg","null","",NA,NA,NA,NA,""
"image-keyboard-response",488,1142726,"0.0-4.158-2.158","4yjc7hw8kl5hhnl",482,"1.csv","","null","resources/images/coin2.png","null","",NA,NA,NA,NA,""
"image-keyboard-response",489,1143107,"0.0-4.159-0.159","4yjc7hw8kl5hhnl",482,"1.csv","","378.9000000357628","resources/trios/L4T4A3.jpg","38","restless",0.5,0.8,0.7,0.60225164889994,"true"
"image-keyboard-response",490,1143515,"0.0-4.159-1.159","4yjc7hw8kl5hhnl",482,"1.csv","","null","resources/maskTrios/BT4B.jpg","null","",NA,NA,NA,NA,""
"image-keyboard-response",491,1144724,"0.0-4.159-2.159","4yjc7hw8kl5hhnl",482,"1.csv","","null","resources/images/coin2.png","null","",NA,NA,NA,NA,""
"image-keyboard-response",492,1144895,"0.0-4.160-0.160","4yjc7hw8kl5hhnl",482,"1.csv","","168.70000004768372","resources/trios/L4T4A3.jpg","38","restless",0.5,0.8,0.7,0.867842584385649,"false"
"image-keyboard-response",493,1145299,"0.0-4.160-1.160","4yjc7hw8kl5hhnl",482,"1.csv","","null","resources/maskTrios/BT4B.jpg","null","",NA,NA,NA,NA,""
"image-keyboard-response",494,1146508,"0.0-4.160-2.160","4yjc7hw8kl5hhnl",482,"1.csv","","null","resources/images/fishbone.png","null","",NA,NA,NA,NA,""
"image-keyboard-response",495,1146765,"0.0-4.161-0.161","4yjc7hw8kl5hhnl",482,"1.csv","","255","resources/trios/L4T4A3.jpg","39","restless",0.5,0.8,0.7,0.99417253572632,"false"
"image-keyboard-response",496,1147178,"0.0-4.161-1.161","4yjc7hw8kl5hhnl",482,"1.csv","","null","resources/maskTrios/BBA3.jpg","null","",NA,NA,NA,NA,""
"image-keyboard-response",497,1148387,"0.0-4.161-2.161","4yjc7hw8kl5hhnl",482,"1.csv","","null","resources/images/fishbone.png","null","",NA,NA,NA,NA,""
"image-keyboard-response",498,1148658,"0.0-4.162-0.162","4yjc7hw8kl5hhnl",482,"1.csv","","268.80000001192093","resources/trios/L4T4A3.jpg","37","restless",0.5,0.8,0.7,0.797173069285397,"false"
"image-keyboard-response",499,1149070,"0.0-4.162-1.162","4yjc7hw8kl5hhnl",482,"1.csv","","null","resources/maskTrios/L4BB.jpg","null","",NA,NA,NA,NA,""
"image-keyboard-response",500,1150280,"0.0-4.162-2.162","4yjc7hw8kl5hhnl",482,"1.csv","","null","resources/images/fishbone.png","null","",NA,NA,NA,NA,""
"image-keyboard-response",501,1150543,"0.0-4.163-0.163","4yjc7hw8kl5hhnl",482,"1.csv","","260.4000000357628","resources/trios/L4T4A3.jpg","38","restless",0.5,0.8,0.6,0.475178753514115,"true"
"image-keyboard-response",502,1150948,"0.0-4.163-1.163","4yjc7hw8kl5hhnl",482,"1.csv","","null","resources/maskTrios/BT4B.jpg","null","",NA,NA,NA,NA,""
"image-keyboard-response",503,1152161,"0.0-4.163-2.163","4yjc7hw8kl5hhnl",482,"1.csv","","null","resources/images/coin2.png","null","",NA,NA,NA,NA,""
"image-keyboard-response",504,1152457,"0.0-4.164-0.164","4yjc7hw8kl5hhnl",482,"1.csv","","294.89999997615814","resources/trios/L4T4A3.jpg","38","restless",0.5,0.8,0.6,0.0844509147622783,"true"
"image-keyboard-response",505,1152860,"0.0-4.164-1.164","4yjc7hw8kl5hhnl",482,"1.csv","","null","resources/maskTrios/BT4B.jpg","null","",NA,NA,NA,NA,""
"image-keyboard-response",506,1154067,"0.0-4.164-2.164","4yjc7hw8kl5hhnl",482,"1.csv","","null","resources/images/coin2.png","null","",NA,NA,NA,NA,""
"image-keyboard-response",507,1154381,"0.0-4.165-0.165","4yjc7hw8kl5hhnl",482,"1.csv","","312.0999999642372","resources/trios/L4T4A3.jpg","38","restless",0.5,0.8,0.6,0.688934283615267,"true"
"image-keyboard-response",508,1154797,"0.0-4.165-1.165","4yjc7hw8kl5hhnl",482,"1.csv","","null","resources/maskTrios/BT4B.jpg","null","",NA,NA,NA,NA,""
"image-keyboard-response",509,1156010,"0.0-4.165-2.165","4yjc7hw8kl5hhnl",482,"1.csv","","null","resources/images/coin2.png","null","",NA,NA,NA,NA,""
"image-keyboard-response",510,1156526,"0.0-4.166-0.166","4yjc7hw8kl5hhnl",482,"1.csv","","514.6999999880791","resources/trios/L4T4A3.jpg","38","restless",0.5,0.7,0.5,0.760472548580388,"false"
"image-keyboard-response",511,1156939,"0.0-4.166-1.166","4yjc7hw8kl5hhnl",482,"1.csv","","null","resources/maskTrios/BT4B.jpg","null","",NA,NA,NA,NA,""
"image-keyboard-response",512,1158149,"0.0-4.166-2.166","4yjc7hw8kl5hhnl",482,"1.csv","","null","resources/images/fishbone.png","null","",NA,NA,NA,NA,""
"image-keyboard-response",513,1158478,"0.0-4.167-0.167","4yjc7hw8kl5hhnl",482,"1.csv","","327.2999999523163","resources/trios/L4T4A3.jpg","39","restless",0.5,0.8,0.5,0.0513746253932901,"true"
"image-keyboard-response",514,1158893,"0.0-4.167-1.167","4yjc7hw8kl5hhnl",482,"1.csv","","null","resources/maskTrios/BBA3.jpg","null","",NA,NA,NA,NA,""
"image-keyboard-response",515,1160104,"0.0-4.167-2.167","4yjc7hw8kl5hhnl",482,"1.csv","","null","resources/images/coin2.png","null","",NA,NA,NA,NA,""
"image-keyboard-response",516,1160639,"0.0-4.168-0.168","4yjc7hw8kl5hhnl",482,"1.csv","","531.6999999880791","resources/trios/L4T4A3.jpg","39","restless",0.5,0.8,0.5,0.522677671209965,"false"
"image-keyboard-response",517,1161054,"0.0-4.168-1.168","4yjc7hw8kl5hhnl",482,"1.csv","","null","resources/maskTrios/BBA3.jpg","null","",NA,NA,NA,NA,""
"image-keyboard-response",518,1162265,"0.0-4.168-2.168","4yjc7hw8kl5hhnl",482,"1.csv","","null","resources/images/fishbone.png","null","",NA,NA,NA,NA,""
"image-keyboard-response",519,1162537,"0.0-4.169-0.169","4yjc7hw8kl5hhnl",482,"1.csv","","268.9000000357628","resources/trios/L4T4A3.jpg","37","restless",0.6,0.8,0.5,0.884038426033682,"false"
"image-keyboard-response",520,1162950,"0.0-4.169-1.169","4yjc7hw8kl5hhnl",482,"1.csv","","null","resources/maskTrios/L4BB.jpg","null","",NA,NA,NA,NA,""
"image-keyboard-response",521,1164164,"0.0-4.169-2.169","4yjc7hw8kl5hhnl",482,"1.csv","","null","resources/images/fishbone.png","null","",NA,NA,NA,NA,""
"image-keyboard-response",522,1164425,"0.0-4.170-0.170","4yjc7hw8kl5hhnl",482,"1.csv","","260.19999998807907","resources/trios/L4T4A3.jpg","38","restless",0.6,0.8,0.6,0.181333025256499,"true"
"image-keyboard-response",523,1164830,"0.0-4.170-1.170","4yjc7hw8kl5hhnl",482,"1.csv","","null","resources/maskTrios/BT4B.jpg","null","",NA,NA,NA,NA,""
"image-keyboard-response",524,1166039,"0.0-4.170-2.170","4yjc7hw8kl5hhnl",482,"1.csv","","null","resources/images/coin2.png","null","",NA,NA,NA,NA,""
"image-keyboard-response",525,1166335,"0.0-4.171-0.171","4yjc7hw8kl5hhnl",482,"1.csv","","293.19999998807907","resources/trios/L4T4A3.jpg","38","restless",0.6,0.8,0.6,0.564506440043077,"true"
"image-keyboard-response",526,1166740,"0.0-4.171-1.171","4yjc7hw8kl5hhnl",482,"1.csv","","null","resources/maskTrios/BT4B.jpg","null","",NA,NA,NA,NA,""
"image-keyboard-response",527,1167948,"0.0-4.171-2.171","4yjc7hw8kl5hhnl",482,"1.csv","","null","resources/images/coin2.png","null","",NA,NA,NA,NA,""
"image-keyboard-response",528,1168296,"0.0-4.172-0.172","4yjc7hw8kl5hhnl",482,"1.csv","","345.89999997615814","resources/trios/L4T4A3.jpg","38","restless",0.6,0.8,0.6,0.729212993717884,"true"
"image-keyboard-response",529,1168705,"0.0-4.172-1.172","4yjc7hw8kl5hhnl",482,"1.csv","","null","resources/maskTrios/BT4B.jpg","null","",NA,NA,NA,NA,""
"image-keyboard-response",530,1169917,"0.0-4.172-2.172","4yjc7hw8kl5hhnl",482,"1.csv","","null","resources/images/coin2.png","null","",NA,NA,NA,NA,""
"image-keyboard-response",531,1169936,"0.0-4.173-0.173","4yjc7hw8kl5hhnl",482,"1.csv","","17.200000047683716","resources/trios/L4T4A3.jpg","38","restless",0.6,0.8,0.6,0.166129172022262,"true"
"image-keyboard-response",532,1170351,"0.0-4.173-1.173","4yjc7hw8kl5hhnl",482,"1.csv","","null","resources/maskTrios/BT4B.jpg","null","",NA,NA,NA,NA,""
"image-keyboard-response",533,1171557,"0.0-4.173-2.173","4yjc7hw8kl5hhnl",482,"1.csv","","null","resources/images/coin2.png","null","",NA,NA,NA,NA,""
"image-keyboard-response",534,1171967,"0.0-4.174-0.174","4yjc7hw8kl5hhnl",482,"1.csv","","407.5","resources/trios/L4T4A3.jpg","38","restless",0.6,0.8,0.6,0.309742044232562,"true"
"image-keyboard-response",535,1172384,"0.0-4.174-1.174","4yjc7hw8kl5hhnl",482,"1.csv","","null","resources/maskTrios/BT4B.jpg","null","",NA,NA,NA,NA,""
"image-keyboard-response",536,1173594,"0.0-4.174-2.174","4yjc7hw8kl5hhnl",482,"1.csv","","null","resources/images/coin2.png","null","",NA,NA,NA,NA,""
"image-keyboard-response",537,1173985,"0.0-4.175-0.175","4yjc7hw8kl5hhnl",482,"1.csv","","388.39999997615814","resources/trios/L4T4A3.jpg","38","restless",0.6,0.8,0.6,0.0461721616837862,"true"
"image-keyboard-response",538,1174399,"0.0-4.175-1.175","4yjc7hw8kl5hhnl",482,"1.csv","","null","resources/maskTrios/BT4B.jpg","null","",NA,NA,NA,NA,""
"image-keyboard-response",539,1175609,"0.0-4.175-2.175","4yjc7hw8kl5hhnl",482,"1.csv","","null","resources/images/coin2.png","null","",NA,NA,NA,NA,""
"image-keyboard-response",540,1175968,"0.0-4.176-0.176","4yjc7hw8kl5hhnl",482,"1.csv","","356.19999998807907","resources/trios/L4T4A3.jpg","38","restless",0.6,0.8,0.6,0.215543030359625,"true"
"image-keyboard-response",541,1176383,"0.0-4.176-1.176","4yjc7hw8kl5hhnl",482,"1.csv","","null","resources/maskTrios/BT4B.jpg","null","",NA,NA,NA,NA,""
"image-keyboard-response",542,1177598,"0.0-4.176-2.176","4yjc7hw8kl5hhnl",482,"1.csv","","null","resources/images/coin2.png","null","",NA,NA,NA,NA,""
"image-keyboard-response",543,1177893,"0.0-4.177-0.177","4yjc7hw8kl5hhnl",482,"1.csv","","292.9000000357628","resources/trios/L4T4A3.jpg","38","restless",0.6,0.8,0.5,0.46056419234645,"true"
"image-keyboard-response",544,1178298,"0.0-4.177-1.177","4yjc7hw8kl5hhnl",482,"1.csv","","null","resources/maskTrios/BT4B.jpg","null","",NA,NA,NA,NA,""
"image-keyboard-response",545,1179511,"0.0-4.177-2.177","4yjc7hw8kl5hhnl",482,"1.csv","","null","resources/images/coin2.png","null","",NA,NA,NA,NA,""
"image-keyboard-response",546,1179820,"0.0-4.178-0.178","4yjc7hw8kl5hhnl",482,"1.csv","","305.69999998807907","resources/trios/L4T4A3.jpg","38","restless",0.6,0.8,0.5,0.276948491956329,"true"
"image-keyboard-response",547,1180226,"0.0-4.178-1.178","4yjc7hw8kl5hhnl",482,"1.csv","","null","resources/maskTrios/BT4B.jpg","null","",NA,NA,NA,NA,""
"image-keyboard-response",548,1181435,"0.0-4.178-2.178","4yjc7hw8kl5hhnl",482,"1.csv","","null","resources/images/coin2.png","null","",NA,NA,NA,NA,""
"image-keyboard-response",549,1181966,"0.0-4.179-0.179","4yjc7hw8kl5hhnl",482,"1.csv","","529.0999999642372","resources/trios/L4T4A3.jpg","38","restless",0.6,0.9,0.5,0.81130022304968,"true"
"image-keyboard-response",550,1182382,"0.0-4.179-1.179","4yjc7hw8kl5hhnl",482,"1.csv","","null","resources/maskTrios/BT4B.jpg","null","",NA,NA,NA,NA,""
"image-keyboard-response",551,1183594,"0.0-4.179-2.179","4yjc7hw8kl5hhnl",482,"1.csv","","null","resources/images/coin2.png","null","",NA,NA,NA,NA,""
"image-keyboard-response",552,1184020,"0.0-4.180-0.180","4yjc7hw8kl5hhnl",482,"1.csv","","424","resources/trios/L4T4A3.jpg","38","restless",0.6,0.9,0.4,0.678497042851099,"true"
"image-keyboard-response",553,1184431,"0.0-4.180-1.180","4yjc7hw8kl5hhnl",482,"1.csv","","null","resources/maskTrios/BT4B.jpg","null","",NA,NA,NA,NA,""
"image-keyboard-response",554,1185641,"0.0-4.180-2.180","4yjc7hw8kl5hhnl",482,"1.csv","","null","resources/images/coin2.png","null","",NA,NA,NA,NA,""
"image-keyboard-response",555,1185852,"0.0-4.181-0.181","4yjc7hw8kl5hhnl",482,"1.csv","","208.30000001192093","resources/trios/L4T4A3.jpg","38","restless",0.6,0.9,0.4,0.742314635327483,"true"
"image-keyboard-response",556,1186262,"0.0-4.181-1.181","4yjc7hw8kl5hhnl",482,"1.csv","","null","resources/maskTrios/BT4B.jpg","null","",NA,NA,NA,NA,""
"image-keyboard-response",557,1187477,"0.0-4.181-2.181","4yjc7hw8kl5hhnl",482,"1.csv","","null","resources/images/coin2.png","null","",NA,NA,NA,NA,""
"image-keyboard-response",558,1187557,"0.0-4.182-0.182","4yjc7hw8kl5hhnl",482,"1.csv","","77.19999998807907","resources/trios/L4T4A3.jpg","38","restless",0.6,0.9,0.4,0.438175367419623,"true"
"image-keyboard-response",559,1187972,"0.0-4.182-1.182","4yjc7hw8kl5hhnl",482,"1.csv","","null","resources/maskTrios/BT4B.jpg","null","",NA,NA,NA,NA,""
"image-keyboard-response",560,1189183,"0.0-4.182-2.182","4yjc7hw8kl5hhnl",482,"1.csv","","null","resources/images/coin2.png","null","",NA,NA,NA,NA,""
"image-keyboard-response",561,1189611,"0.0-4.183-0.183","4yjc7hw8kl5hhnl",482,"1.csv","","425.10000002384186","resources/trios/L4T4A3.jpg","38","restless",0.6,0.9,0.4,0.673630127846699,"true"
"image-keyboard-response",562,1190023,"0.0-4.183-1.183","4yjc7hw8kl5hhnl",482,"1.csv","","null","resources/maskTrios/BT4B.jpg","null","",NA,NA,NA,NA,""
"image-keyboard-response",563,1191231,"0.0-4.183-2.183","4yjc7hw8kl5hhnl",482,"1.csv","","null","resources/images/coin2.png","null","",NA,NA,NA,NA,""
"image-keyboard-response",564,1191601,"0.0-4.184-0.184","4yjc7hw8kl5hhnl",482,"1.csv","","367.69999998807907","resources/trios/L4T4A3.jpg","38","restless",0.6,0.8,0.4,0.319531283074762,"true"
"image-keyboard-response",565,1192009,"0.0-4.184-1.184","4yjc7hw8kl5hhnl",482,"1.csv","","null","resources/maskTrios/BT4B.jpg","null","",NA,NA,NA,NA,""
"image-keyboard-response",566,1193220,"0.0-4.184-2.184","4yjc7hw8kl5hhnl",482,"1.csv","","null","resources/images/coin2.png","null","",NA,NA,NA,NA,""
"image-keyboard-response",567,1193479,"0.0-4.185-0.185","4yjc7hw8kl5hhnl",482,"1.csv","","256.89999997615814","resources/trios/L4T4A3.jpg","38","restless",0.6,0.8,0.4,0.770135058958247,"true"
"image-keyboard-response",568,1193889,"0.0-4.185-1.185","4yjc7hw8kl5hhnl",482,"1.csv","","null","resources/maskTrios/BT4B.jpg","null","",NA,NA,NA,NA,""
"image-keyboard-response",569,1195106,"0.0-4.185-2.185","4yjc7hw8kl5hhnl",482,"1.csv","","null","resources/images/coin2.png","null","",NA,NA,NA,NA,""
"image-keyboard-response",570,1195432,"0.0-4.186-0.186","4yjc7hw8kl5hhnl",482,"1.csv","","323.69999998807907","resources/trios/L4T4A3.jpg","38","restless",0.6,0.9,0.4,0.675973123669991,"true"
"image-keyboard-response",571,1195835,"0.0-4.186-1.186","4yjc7hw8kl5hhnl",482,"1.csv","","null","resources/maskTrios/BT4B.jpg","null","",NA,NA,NA,NA,""
"image-keyboard-response",572,1197047,"0.0-4.186-2.186","4yjc7hw8kl5hhnl",482,"1.csv","","null","resources/images/coin2.png","null","",NA,NA,NA,NA,""
"image-keyboard-response",573,1197289,"0.0-4.187-0.187","4yjc7hw8kl5hhnl",482,"1.csv","","241.30000001192093","resources/trios/L4T4A3.jpg","38","restless",0.6,0.9,0.4,0.458268952859383,"true"
"image-keyboard-response",574,1197701,"0.0-4.187-1.187","4yjc7hw8kl5hhnl",482,"1.csv","","null","resources/maskTrios/BT4B.jpg","null","",NA,NA,NA,NA,""
"image-keyboard-response",575,1198907,"0.0-4.187-2.187","4yjc7hw8kl5hhnl",482,"1.csv","","null","resources/images/coin2.png","null","",NA,NA,NA,NA,""
"image-keyboard-response",576,1199219,"0.0-4.188-0.188","4yjc7hw8kl5hhnl",482,"1.csv","","309","resources/trios/L4T4A3.jpg","38","restless",0.6,0.9,0.4,0.687305751923579,"true"
"image-keyboard-response",577,1199635,"0.0-4.188-1.188","4yjc7hw8kl5hhnl",482,"1.csv","","null","resources/maskTrios/BT4B.jpg","null","",NA,NA,NA,NA,""
"image-keyboard-response",578,1200844,"0.0-4.188-2.188","4yjc7hw8kl5hhnl",482,"1.csv","","null","resources/images/coin2.png","null","",NA,NA,NA,NA,""
"image-keyboard-response",579,1201524,"0.0-4.189-0.189","4yjc7hw8kl5hhnl",482,"1.csv","","678.0999999642372","resources/trios/L4T4A3.jpg","38","restless",0.6,0.9,0.4,0.238562316691801,"true"
"image-keyboard-response",580,1201932,"0.0-4.189-1.189","4yjc7hw8kl5hhnl",482,"1.csv","","null","resources/maskTrios/BT4B.jpg","null","",NA,NA,NA,NA,""
"image-keyboard-response",581,1203143,"0.0-4.189-2.189","4yjc7hw8kl5hhnl",482,"1.csv","","null","resources/images/coin2.png","null","",NA,NA,NA,NA,""
"image-keyboard-response",582,1203528,"0.0-4.190-0.190","4yjc7hw8kl5hhnl",482,"1.csv","","383.0999999642372","resources/trios/L4T4A3.jpg","38","restless",0.6,0.9,0.4,0.0117640632792899,"true"
"image-keyboard-response",583,1203936,"0.0-4.190-1.190","4yjc7hw8kl5hhnl",482,"1.csv","","null","resources/maskTrios/BT4B.jpg","null","",NA,NA,NA,NA,""
"image-keyboard-response",584,1205147,"0.0-4.190-2.190","4yjc7hw8kl5hhnl",482,"1.csv","","null","resources/images/coin2.png","null","",NA,NA,NA,NA,""
"image-keyboard-response",585,1205638,"0.0-4.191-0.191","4yjc7hw8kl5hhnl",482,"1.csv","","489","resources/trios/L4T4A3.jpg","38","restless",0.6,0.9,0.4,0.295432008835286,"true"
"image-keyboard-response",586,1206044,"0.0-4.191-1.191","4yjc7hw8kl5hhnl",482,"1.csv","","null","resources/maskTrios/BT4B.jpg","null","",NA,NA,NA,NA,""
"image-keyboard-response",587,1207253,"0.0-4.191-2.191","4yjc7hw8kl5hhnl",482,"1.csv","","null","resources/images/coin2.png","null","",NA,NA,NA,NA,""
"image-keyboard-response",588,1207810,"0.0-4.192-0.192","4yjc7hw8kl5hhnl",482,"1.csv","","553.9000000357628","resources/trios/L4T4A3.jpg","38","restless",0.6,0.9,0.4,0.728608649394975,"true"
"image-keyboard-response",589,1208218,"0.0-4.192-1.192","4yjc7hw8kl5hhnl",482,"1.csv","","null","resources/maskTrios/BT4B.jpg","null","",NA,NA,NA,NA,""
"image-keyboard-response",590,1209430,"0.0-4.192-2.192","4yjc7hw8kl5hhnl",482,"1.csv","","null","resources/images/coin2.png","null","",NA,NA,NA,NA,""
"image-keyboard-response",591,1209952,"0.0-4.193-0.193","4yjc7hw8kl5hhnl",482,"1.csv","","520.6000000238419","resources/trios/L4T4A3.jpg","38","restless",0.6,0.9,0.4,0.504646592247298,"true"
"image-keyboard-response",592,1210362,"0.0-4.193-1.193","4yjc7hw8kl5hhnl",482,"1.csv","","null","resources/maskTrios/BT4B.jpg","null","",NA,NA,NA,NA,""
"image-keyboard-response",593,1211573,"0.0-4.193-2.193","4yjc7hw8kl5hhnl",482,"1.csv","","null","resources/images/coin2.png","null","",NA,NA,NA,NA,""
"image-keyboard-response",594,1212267,"0.0-4.194-0.194","4yjc7hw8kl5hhnl",482,"1.csv","","691.3999999761581","resources/trios/L4T4A3.jpg","38","restless",0.6,0.9,0.4,0.539764598921256,"true"
"image-keyboard-response",595,1212685,"0.0-4.194-1.194","4yjc7hw8kl5hhnl",482,"1.csv","","null","resources/maskTrios/BT4B.jpg","null","",NA,NA,NA,NA,""
"image-keyboard-response",596,1213897,"0.0-4.194-2.194","4yjc7hw8kl5hhnl",482,"1.csv","","null","resources/images/coin2.png","null","",NA,NA,NA,NA,""
"image-keyboard-response",597,1214875,"0.0-4.195-0.195","4yjc7hw8kl5hhnl",482,"1.csv","","975.6999999880791","resources/trios/L4T4A3.jpg","38","restless",0.6,0.9,0.4,0.487136204349783,"true"
"image-keyboard-response",598,1215279,"0.0-4.195-1.195","4yjc7hw8kl5hhnl",482,"1.csv","","null","resources/maskTrios/BT4B.jpg","null","",NA,NA,NA,NA,""
"image-keyboard-response",599,1216490,"0.0-4.195-2.195","4yjc7hw8kl5hhnl",482,"1.csv","","null","resources/images/coin2.png","null","",NA,NA,NA,NA,""
"image-keyboard-response",600,1216528,"0.0-4.196-0.196","4yjc7hw8kl5hhnl",482,"1.csv","","34.69999998807907","resources/trios/L4T4A3.jpg","38","restless",0.6,0.9,0.3,0.687438327668946,"true"
"image-keyboard-response",601,1216941,"0.0-4.196-1.196","4yjc7hw8kl5hhnl",482,"1.csv","","null","resources/maskTrios/BT4B.jpg","null","",NA,NA,NA,NA,""
"image-keyboard-response",602,1218149,"0.0-4.196-2.196","4yjc7hw8kl5hhnl",482,"1.csv","","null","resources/images/coin2.png","null","",NA,NA,NA,NA,""
"image-keyboard-response",603,1218867,"0.0-4.197-0.197","4yjc7hw8kl5hhnl",482,"1.csv","","715.7999999523163","resources/trios/L4T4A3.jpg","38","restless",0.5,0.9,0.3,0.843257685440525,"true"
"image-keyboard-response",604,1219283,"0.0-4.197-1.197","4yjc7hw8kl5hhnl",482,"1.csv","","null","resources/maskTrios/BT4B.jpg","null","",NA,NA,NA,NA,""
"image-keyboard-response",605,1220494,"0.0-4.197-2.197","4yjc7hw8kl5hhnl",482,"1.csv","","null","resources/images/coin2.png","null","",NA,NA,NA,NA,""
"image-keyboard-response",606,1220590,"0.0-4.198-0.198","4yjc7hw8kl5hhnl",482,"1.csv","","94.10000002384186","resources/trios/L4T4A3.jpg","38","restless",0.5,0.9,0.3,0.485418405588917,"true"
"image-keyboard-response",607,1221005,"0.0-4.198-1.198","4yjc7hw8kl5hhnl",482,"1.csv","","null","resources/maskTrios/BT4B.jpg","null","",NA,NA,NA,NA,""
"image-keyboard-response",608,1222218,"0.0-4.198-2.198","4yjc7hw8kl5hhnl",482,"1.csv","","null","resources/images/coin2.png","null","",NA,NA,NA,NA,""
"image-keyboard-response",609,1222529,"0.0-4.199-0.199","4yjc7hw8kl5hhnl",482,"1.csv","","308.69999998807907","resources/trios/L4T4A3.jpg","38","restless",0.4,0.9,0.3,0.328375730841556,"true"
"image-keyboard-response",610,1222934,"0.0-4.199-1.199","4yjc7hw8kl5hhnl",482,"1.csv","","null","resources/maskTrios/BT4B.jpg","null","",NA,NA,NA,NA,""
"image-keyboard-response",611,1224151,"0.0-4.199-2.199","4yjc7hw8kl5hhnl",482,"1.csv","","null","resources/images/coin2.png","null","",NA,NA,NA,NA,""
"survey-text",612,1292401,"0.0-5.0","4yjc7hw8kl5hhnl",482,"1.csv","","68245","","","",NA,NA,NA,NA,""
