"trial_type","trial_index","time_elapsed","internal_node_id","subject","participantCode","walkNumber","success","rt","stimulus","key_press","test_part","leftProb","midProb","rightProb","generatedNum","correct"
"pavlovia",0,1004,"0.0-0.0","r0hu8u71kr5ql34",215,"92.csv","","","","","",NA,NA,NA,NA,""
"fullscreen",1,3489,"0.0-1.0","r0hu8u71kr5ql34",215,"92.csv","true","","","","",NA,NA,NA,NA,""
"survey-html-form",2,9856,"0.0-2.0","r0hu8u71kr5ql34",215,"92.csv","","6360.600000023842","","","",NA,NA,NA,NA,""
"image-keyboard-response",3,23460,"0.0-3.0-0.0","r0hu8u71kr5ql34",215,"92.csv","","13601.5","resources/images/parrot_nobg.png","13","",NA,NA,NA,NA,""
"image-keyboard-response",4,26465,"0.0-3.0-1.0","r0hu8u71kr5ql34",215,"92.csv","","null","resources/image_sets/111.png","null","",NA,NA,NA,NA,""
"image-keyboard-response",5,31400,"0.0-3.0-2.0","r0hu8u71kr5ql34",215,"92.csv","","4933.200000047684","resources/image_sets/left_highlight.png","37","",NA,NA,NA,NA,""
"image-keyboard-response",6,33416,"0.0-3.0-3.0","r0hu8u71kr5ql34",215,"92.csv","","2014.4000000953674","resources/image_sets/mid_highlight.png","38","",NA,NA,NA,NA,""
"image-keyboard-response",7,34217,"0.0-3.0-4.0","r0hu8u71kr5ql34",215,"92.csv","","799.8999999761581","resources/image_sets/right_highlight.png","39","",NA,NA,NA,NA,""
"image-keyboard-response",8,37917,"0.0-3.0-5.0","r0hu8u71kr5ql34",215,"92.csv","","3699.5","resources/image_sets/111.png","13","",NA,NA,NA,NA,""
"image-keyboard-response",9,41542,"0.0-3.0-6.0","r0hu8u71kr5ql34",215,"92.csv","","3623.600000023842","resources/images/coin2.png","13","",NA,NA,NA,NA,""
"image-keyboard-response",10,42702,"0.0-3.0-7.0","r0hu8u71kr5ql34",215,"92.csv","","1159.3000000715256","resources/images/fishbone.png","13","",NA,NA,NA,NA,""
"html-keyboard-response",11,47217,"0.0-3.0-8.0","r0hu8u71kr5ql34",215,"92.csv","","4513.700000047684","<p>You can track your coin total on the top right of your screen. </p><p>At the end of your journey you will be directed to a survey, so please click on the link before exiting the task</p><p>Press Enter to begin</p>","13","",NA,NA,NA,NA,""
"image-keyboard-response",12,48575,"0.0-4.0-0.0","r0hu8u71kr5ql34",215,"92.csv","","1355.7000000476837","resources/trios/L4T4A2.jpg","37","restless",0.9,0.7,0.3,0.371466135490836,"true"
"image-keyboard-response",13,48983,"0.0-4.0-1.0","r0hu8u71kr5ql34",215,"92.csv","","null","resources/maskTrios/L4BB.jpg","null","",NA,NA,NA,NA,""
"image-keyboard-response",14,50188,"0.0-4.0-2.0","r0hu8u71kr5ql34",215,"92.csv","","null","resources/images/coin2.png","null","",NA,NA,NA,NA,""
"image-keyboard-response",15,51438,"0.0-4.1-0.1","r0hu8u71kr5ql34",215,"92.csv","","1248.0999999046326","resources/trios/L4T4A2.jpg","39","restless",0.9,0.7,0.3,0.30479793244571,"false"
"image-keyboard-response",16,51841,"0.0-4.1-1.1","r0hu8u71kr5ql34",215,"92.csv","","null","resources/maskTrios/BBA2.jpg","null","",NA,NA,NA,NA,""
"image-keyboard-response",17,53046,"0.0-4.1-2.1","r0hu8u71kr5ql34",215,"92.csv","","null","resources/images/fishbone.png","null","",NA,NA,NA,NA,""
"image-keyboard-response",18,54627,"0.0-4.2-0.2","r0hu8u71kr5ql34",215,"92.csv","","1579.2000000476837","resources/trios/L4T4A2.jpg","38","restless",0.9,0.7,0.3,0.0592716736430208,"true"
"image-keyboard-response",19,55034,"0.0-4.2-1.2","r0hu8u71kr5ql34",215,"92.csv","","null","resources/maskTrios/BT4B.jpg","null","",NA,NA,NA,NA,""
"image-keyboard-response",20,56241,"0.0-4.2-2.2","r0hu8u71kr5ql34",215,"92.csv","","null","resources/images/coin2.png","null","",NA,NA,NA,NA,""
"image-keyboard-response",21,57511,"0.0-4.3-0.3","r0hu8u71kr5ql34",215,"92.csv","","1268.6000000238419","resources/trios/L4T4A2.jpg","37","restless",0.9,0.7,0.3,0.787154547953987,"true"
"image-keyboard-response",22,57916,"0.0-4.3-1.3","r0hu8u71kr5ql34",215,"92.csv","","null","resources/maskTrios/L4BB.jpg","null","",NA,NA,NA,NA,""
"image-keyboard-response",23,59121,"0.0-4.3-2.3","r0hu8u71kr5ql34",215,"92.csv","","null","resources/images/coin2.png","null","",NA,NA,NA,NA,""
"image-keyboard-response",24,59548,"0.0-4.4-0.4","r0hu8u71kr5ql34",215,"92.csv","","425.10000002384186","resources/trios/L4T4A2.jpg","38","restless",0.9,0.7,0.3,0.403507026435991,"true"
"image-keyboard-response",25,59953,"0.0-4.4-1.4","r0hu8u71kr5ql34",215,"92.csv","","null","resources/maskTrios/BT4B.jpg","null","",NA,NA,NA,NA,""
"image-keyboard-response",26,61158,"0.0-4.4-2.4","r0hu8u71kr5ql34",215,"92.csv","","null","resources/images/coin2.png","null","",NA,NA,NA,NA,""
"image-keyboard-response",27,63242,"0.0-4.5-0.5","r0hu8u71kr5ql34",215,"92.csv","","2082.0999999046326","resources/trios/L4T4A2.jpg","37","restless",0.8,0.7,0.3,0.50643765835984,"true"
"image-keyboard-response",28,63649,"0.0-4.5-1.5","r0hu8u71kr5ql34",215,"92.csv","","null","resources/maskTrios/L4BB.jpg","null","",NA,NA,NA,NA,""
"image-keyboard-response",29,64854,"0.0-4.5-2.5","r0hu8u71kr5ql34",215,"92.csv","","null","resources/images/coin2.png","null","",NA,NA,NA,NA,""
"image-keyboard-response",30,65125,"0.0-4.6-0.6","r0hu8u71kr5ql34",215,"92.csv","","269.40000009536743","resources/trios/L4T4A2.jpg","38","restless",0.8,0.7,0.3,0.859145548267389,"false"
"image-keyboard-response",31,65531,"0.0-4.6-1.6","r0hu8u71kr5ql34",215,"92.csv","","null","resources/maskTrios/BT4B.jpg","null","",NA,NA,NA,NA,""
"image-keyboard-response",32,66737,"0.0-4.6-2.6","r0hu8u71kr5ql34",215,"92.csv","","null","resources/images/fishbone.png","null","",NA,NA,NA,NA,""
"image-keyboard-response",33,67154,"0.0-4.7-0.7","r0hu8u71kr5ql34",215,"92.csv","","415.5","resources/trios/L4T4A2.jpg","39","restless",0.8,0.7,0.3,0.0768713365879881,"true"
"image-keyboard-response",34,67561,"0.0-4.7-1.7","r0hu8u71kr5ql34",215,"92.csv","","null","resources/maskTrios/BBA2.jpg","null","",NA,NA,NA,NA,""
"image-keyboard-response",35,68764,"0.0-4.7-2.7","r0hu8u71kr5ql34",215,"92.csv","","null","resources/images/coin2.png","null","",NA,NA,NA,NA,""
"image-keyboard-response",36,69786,"0.0-4.8-0.8","r0hu8u71kr5ql34",215,"92.csv","","1020.4000000953674","resources/trios/L4T4A2.jpg","39","restless",0.8,0.7,0.3,0.950207164899791,"false"
"image-keyboard-response",37,70188,"0.0-4.8-1.8","r0hu8u71kr5ql34",215,"92.csv","","null","resources/maskTrios/BBA2.jpg","null","",NA,NA,NA,NA,""
"image-keyboard-response",38,71393,"0.0-4.8-2.8","r0hu8u71kr5ql34",215,"92.csv","","null","resources/images/fishbone.png","null","",NA,NA,NA,NA,""
"image-keyboard-response",39,71933,"0.0-4.9-0.9","r0hu8u71kr5ql34",215,"92.csv","","538.7000000476837","resources/trios/L4T4A2.jpg","38","restless",0.7,0.7,0.3,0.23424958192937,"true"
"image-keyboard-response",40,72337,"0.0-4.9-1.9","r0hu8u71kr5ql34",215,"92.csv","","null","resources/maskTrios/BT4B.jpg","null","",NA,NA,NA,NA,""
"image-keyboard-response",41,73542,"0.0-4.9-2.9","r0hu8u71kr5ql34",215,"92.csv","","null","resources/images/coin2.png","null","",NA,NA,NA,NA,""
"image-keyboard-response",42,74136,"0.0-4.10-0.10","r0hu8u71kr5ql34",215,"92.csv","","592.2000000476837","resources/trios/L4T4A2.jpg","37","restless",0.7,0.7,0.2,0.321813183378528,"true"
"image-keyboard-response",43,74539,"0.0-4.10-1.10","r0hu8u71kr5ql34",215,"92.csv","","null","resources/maskTrios/L4BB.jpg","null","",NA,NA,NA,NA,""
"image-keyboard-response",44,75745,"0.0-4.10-2.10","r0hu8u71kr5ql34",215,"92.csv","","null","resources/images/coin2.png","null","",NA,NA,NA,NA,""
"image-keyboard-response",45,76031,"0.0-4.11-0.11","r0hu8u71kr5ql34",215,"92.csv","","284.2000000476837","resources/trios/L4T4A2.jpg","38","restless",0.6,0.7,0.2,0.147312201268676,"true"
"image-keyboard-response",46,76433,"0.0-4.11-1.11","r0hu8u71kr5ql34",215,"92.csv","","null","resources/maskTrios/BT4B.jpg","null","",NA,NA,NA,NA,""
"image-keyboard-response",47,77638,"0.0-4.11-2.11","r0hu8u71kr5ql34",215,"92.csv","","null","resources/images/coin2.png","null","",NA,NA,NA,NA,""
"image-keyboard-response",48,77955,"0.0-4.12-0.12","r0hu8u71kr5ql34",215,"92.csv","","314.7999999523163","resources/trios/L4T4A2.jpg","38","restless",0.6,0.7,0.2,0.180820159239432,"true"
"image-keyboard-response",49,78358,"0.0-4.12-1.12","r0hu8u71kr5ql34",215,"92.csv","","null","resources/maskTrios/BT4B.jpg","null","",NA,NA,NA,NA,""
"image-keyboard-response",50,79564,"0.0-4.12-2.12","r0hu8u71kr5ql34",215,"92.csv","","null","resources/images/coin2.png","null","",NA,NA,NA,NA,""
"image-keyboard-response",51,79831,"0.0-4.13-0.13","r0hu8u71kr5ql34",215,"92.csv","","265.3000000715256","resources/trios/L4T4A2.jpg","37","restless",0.6,0.7,0.2,0.393030916033213,"true"
"image-keyboard-response",52,80235,"0.0-4.13-1.13","r0hu8u71kr5ql34",215,"92.csv","","null","resources/maskTrios/L4BB.jpg","null","",NA,NA,NA,NA,""
"image-keyboard-response",53,81441,"0.0-4.13-2.13","r0hu8u71kr5ql34",215,"92.csv","","null","resources/images/coin2.png","null","",NA,NA,NA,NA,""
"image-keyboard-response",54,81731,"0.0-4.14-0.14","r0hu8u71kr5ql34",215,"92.csv","","288.60000002384186","resources/trios/L4T4A2.jpg","37","restless",0.6,0.7,0.2,0.244041699874474,"true"
"image-keyboard-response",55,82134,"0.0-4.14-1.14","r0hu8u71kr5ql34",215,"92.csv","","null","resources/maskTrios/L4BB.jpg","null","",NA,NA,NA,NA,""
"image-keyboard-response",56,83339,"0.0-4.14-2.14","r0hu8u71kr5ql34",215,"92.csv","","null","resources/images/coin2.png","null","",NA,NA,NA,NA,""
"image-keyboard-response",57,83736,"0.0-4.15-0.15","r0hu8u71kr5ql34",215,"92.csv","","394.59999990463257","resources/trios/L4T4A2.jpg","39","restless",0.6,0.7,0.2,0.0979605677762303,"true"
"image-keyboard-response",58,84142,"0.0-4.15-1.15","r0hu8u71kr5ql34",215,"92.csv","","null","resources/maskTrios/BBA2.jpg","null","",NA,NA,NA,NA,""
"image-keyboard-response",59,85345,"0.0-4.15-2.15","r0hu8u71kr5ql34",215,"92.csv","","null","resources/images/coin2.png","null","",NA,NA,NA,NA,""
"image-keyboard-response",60,85721,"0.0-4.16-0.16","r0hu8u71kr5ql34",215,"92.csv","","374.39999997615814","resources/trios/L4T4A2.jpg","38","restless",0.6,0.7,0.2,0.780621753668239,"false"
"image-keyboard-response",61,86123,"0.0-4.16-1.16","r0hu8u71kr5ql34",215,"92.csv","","null","resources/maskTrios/BT4B.jpg","null","",NA,NA,NA,NA,""
"image-keyboard-response",62,87329,"0.0-4.16-2.16","r0hu8u71kr5ql34",215,"92.csv","","null","resources/images/fishbone.png","null","",NA,NA,NA,NA,""
"image-keyboard-response",63,87593,"0.0-4.17-0.17","r0hu8u71kr5ql34",215,"92.csv","","263.10000002384186","resources/trios/L4T4A2.jpg","37","restless",0.6,0.7,0.2,0.75725338794654,"false"
"image-keyboard-response",64,88001,"0.0-4.17-1.17","r0hu8u71kr5ql34",215,"92.csv","","null","resources/maskTrios/L4BB.jpg","null","",NA,NA,NA,NA,""
"image-keyboard-response",65,89205,"0.0-4.17-2.17","r0hu8u71kr5ql34",215,"92.csv","","null","resources/images/fishbone.png","null","",NA,NA,NA,NA,""
"image-keyboard-response",66,89473,"0.0-4.18-0.18","r0hu8u71kr5ql34",215,"92.csv","","266.5","resources/trios/L4T4A2.jpg","39","restless",0.5,0.7,0.2,0.0206273708625166,"true"
"image-keyboard-response",67,89878,"0.0-4.18-1.18","r0hu8u71kr5ql34",215,"92.csv","","null","resources/maskTrios/BBA2.jpg","null","",NA,NA,NA,NA,""
"image-keyboard-response",68,91083,"0.0-4.18-2.18","r0hu8u71kr5ql34",215,"92.csv","","null","resources/images/coin2.png","null","",NA,NA,NA,NA,""
"image-keyboard-response",69,91550,"0.0-4.19-0.19","r0hu8u71kr5ql34",215,"92.csv","","464.7999999523163","resources/trios/L4T4A2.jpg","39","restless",0.5,0.7,0.2,0.24917600473745,"false"
"image-keyboard-response",70,91953,"0.0-4.19-1.19","r0hu8u71kr5ql34",215,"92.csv","","null","resources/maskTrios/BBA2.jpg","null","",NA,NA,NA,NA,""
"image-keyboard-response",71,93156,"0.0-4.19-2.19","r0hu8u71kr5ql34",215,"92.csv","","null","resources/images/fishbone.png","null","",NA,NA,NA,NA,""
"image-keyboard-response",72,93472,"0.0-4.20-0.20","r0hu8u71kr5ql34",215,"92.csv","","315.09999990463257","resources/trios/L4T4A2.jpg","37","restless",0.4,0.7,0.2,0.650072164684914,"false"
"image-keyboard-response",73,93878,"0.0-4.20-1.20","r0hu8u71kr5ql34",215,"92.csv","","null","resources/maskTrios/L4BB.jpg","null","",NA,NA,NA,NA,""
"image-keyboard-response",74,95083,"0.0-4.20-2.20","r0hu8u71kr5ql34",215,"92.csv","","null","resources/images/fishbone.png","null","",NA,NA,NA,NA,""
"image-keyboard-response",75,95347,"0.0-4.21-0.21","r0hu8u71kr5ql34",215,"92.csv","","262.5","resources/trios/L4T4A2.jpg","38","restless",0.4,0.7,0.2,0.923578075690409,"false"
"image-keyboard-response",76,95750,"0.0-4.21-1.21","r0hu8u71kr5ql34",215,"92.csv","","null","resources/maskTrios/BT4B.jpg","null","",NA,NA,NA,NA,""
"image-keyboard-response",77,96955,"0.0-4.21-2.21","r0hu8u71kr5ql34",215,"92.csv","","null","resources/images/fishbone.png","null","",NA,NA,NA,NA,""
"image-keyboard-response",78,97374,"0.0-4.22-0.22","r0hu8u71kr5ql34",215,"92.csv","","417.39999997615814","resources/trios/L4T4A2.jpg","39","restless",0.4,0.7,0.2,0.0147286397012112,"true"
"image-keyboard-response",79,97777,"0.0-4.22-1.22","r0hu8u71kr5ql34",215,"92.csv","","null","resources/maskTrios/BBA2.jpg","null","",NA,NA,NA,NA,""
"image-keyboard-response",80,98982,"0.0-4.22-2.22","r0hu8u71kr5ql34",215,"92.csv","","null","resources/images/coin2.png","null","",NA,NA,NA,NA,""
"image-keyboard-response",81,99293,"0.0-4.23-0.23","r0hu8u71kr5ql34",215,"92.csv","","309.3000000715256","resources/trios/L4T4A2.jpg","39","restless",0.4,0.7,0.2,0.859456532211545,"false"
"image-keyboard-response",82,99696,"0.0-4.23-1.23","r0hu8u71kr5ql34",215,"92.csv","","null","resources/maskTrios/BBA2.jpg","null","",NA,NA,NA,NA,""
"image-keyboard-response",83,100902,"0.0-4.23-2.23","r0hu8u71kr5ql34",215,"92.csv","","null","resources/images/fishbone.png","null","",NA,NA,NA,NA,""
"image-keyboard-response",84,101195,"0.0-4.24-0.24","r0hu8u71kr5ql34",215,"92.csv","","291.5","resources/trios/L4T4A2.jpg","37","restless",0.4,0.7,0.2,0.873895370848065,"false"
"image-keyboard-response",85,101602,"0.0-4.24-1.24","r0hu8u71kr5ql34",215,"92.csv","","null","resources/maskTrios/L4BB.jpg","null","",NA,NA,NA,NA,""
"image-keyboard-response",86,102806,"0.0-4.24-2.24","r0hu8u71kr5ql34",215,"92.csv","","null","resources/images/fishbone.png","null","",NA,NA,NA,NA,""
"image-keyboard-response",87,103059,"0.0-4.25-0.25","r0hu8u71kr5ql34",215,"92.csv","","251.10000002384186","resources/trios/L4T4A2.jpg","38","restless",0.4,0.7,0.1,0.752327490720787,"false"
"image-keyboard-response",88,103462,"0.0-4.25-1.25","r0hu8u71kr5ql34",215,"92.csv","","null","resources/maskTrios/BT4B.jpg","null","",NA,NA,NA,NA,""
"image-keyboard-response",89,104667,"0.0-4.25-2.25","r0hu8u71kr5ql34",215,"92.csv","","null","resources/images/fishbone.png","null","",NA,NA,NA,NA,""
"image-keyboard-response",90,105058,"0.0-4.26-0.26","r0hu8u71kr5ql34",215,"92.csv","","389.2999999523163","resources/trios/L4T4A2.jpg","38","restless",0.4,0.6,0.1,0.0512261268318672,"true"
"image-keyboard-response",91,105462,"0.0-4.26-1.26","r0hu8u71kr5ql34",215,"92.csv","","null","resources/maskTrios/BT4B.jpg","null","",NA,NA,NA,NA,""
"image-keyboard-response",92,106667,"0.0-4.26-2.26","r0hu8u71kr5ql34",215,"92.csv","","null","resources/images/coin2.png","null","",NA,NA,NA,NA,""
"image-keyboard-response",93,106901,"0.0-4.27-0.27","r0hu8u71kr5ql34",215,"92.csv","","232.60000002384186","resources/trios/L4T4A2.jpg","37","restless",0.4,0.6,0.1,0.362097021341068,"true"
"image-keyboard-response",94,107307,"0.0-4.27-1.27","r0hu8u71kr5ql34",215,"92.csv","","null","resources/maskTrios/L4BB.jpg","null","",NA,NA,NA,NA,""
"image-keyboard-response",95,108512,"0.0-4.27-2.27","r0hu8u71kr5ql34",215,"92.csv","","null","resources/images/coin2.png","null","",NA,NA,NA,NA,""
"image-keyboard-response",96,108580,"0.0-4.28-0.28","r0hu8u71kr5ql34",215,"92.csv","","66.39999997615814","resources/trios/L4T4A2.jpg","38","restless",0.4,0.6,0.1,0.894646804267798,"false"
"image-keyboard-response",97,108982,"0.0-4.28-1.28","r0hu8u71kr5ql34",215,"92.csv","","null","resources/maskTrios/BT4B.jpg","null","",NA,NA,NA,NA,""
"image-keyboard-response",98,110187,"0.0-4.28-2.28","r0hu8u71kr5ql34",215,"92.csv","","null","resources/images/fishbone.png","null","",NA,NA,NA,NA,""
"image-keyboard-response",99,110478,"0.0-4.29-0.29","r0hu8u71kr5ql34",215,"92.csv","","289.2000000476837","resources/trios/L4T4A2.jpg","39","restless",0.4,0.6,0.1,0.372649836155123,"false"
"image-keyboard-response",100,110880,"0.0-4.29-1.29","r0hu8u71kr5ql34",215,"92.csv","","null","resources/maskTrios/BBA2.jpg","null","",NA,NA,NA,NA,""
"image-keyboard-response",101,112085,"0.0-4.29-2.29","r0hu8u71kr5ql34",215,"92.csv","","null","resources/images/fishbone.png","null","",NA,NA,NA,NA,""
"image-keyboard-response",102,112285,"0.0-4.30-0.30","r0hu8u71kr5ql34",215,"92.csv","","198.70000004768372","resources/trios/L4T4A2.jpg","37","restless",0.4,0.6,0.1,0.638048499735521,"false"
"image-keyboard-response",103,112692,"0.0-4.30-1.30","r0hu8u71kr5ql34",215,"92.csv","","null","resources/maskTrios/L4BB.jpg","null","",NA,NA,NA,NA,""
"image-keyboard-response",104,113897,"0.0-4.30-2.30","r0hu8u71kr5ql34",215,"92.csv","","null","resources/images/fishbone.png","null","",NA,NA,NA,NA,""
"image-keyboard-response",105,114542,"0.0-4.31-0.31","r0hu8u71kr5ql34",215,"92.csv","","642.3999999761581","resources/trios/L4T4A2.jpg","38","restless",0.4,0.6,0.1,0.784857347055701,"false"
"image-keyboard-response",106,114944,"0.0-4.31-1.31","r0hu8u71kr5ql34",215,"92.csv","","null","resources/maskTrios/BT4B.jpg","null","",NA,NA,NA,NA,""
"image-keyboard-response",107,116150,"0.0-4.31-2.31","r0hu8u71kr5ql34",215,"92.csv","","null","resources/images/fishbone.png","null","",NA,NA,NA,NA,""
"image-keyboard-response",108,116216,"0.0-4.32-0.32","r0hu8u71kr5ql34",215,"92.csv","","64.69999992847443","resources/trios/L4T4A2.jpg","39","restless",0.4,0.6,0.2,0.327969528292926,"false"
"image-keyboard-response",109,116619,"0.0-4.32-1.32","r0hu8u71kr5ql34",215,"92.csv","","null","resources/maskTrios/BBA2.jpg","null","",NA,NA,NA,NA,""
"image-keyboard-response",110,117824,"0.0-4.32-2.32","r0hu8u71kr5ql34",215,"92.csv","","null","resources/images/fishbone.png","null","",NA,NA,NA,NA,""
"image-keyboard-response",111,118118,"0.0-4.33-0.33","r0hu8u71kr5ql34",215,"92.csv","","292.10000002384186","resources/trios/L4T4A2.jpg","37","restless",0.4,0.6,0.2,0.544149374910474,"false"
"image-keyboard-response",112,118523,"0.0-4.33-1.33","r0hu8u71kr5ql34",215,"92.csv","","null","resources/maskTrios/L4BB.jpg","null","",NA,NA,NA,NA,""
"image-keyboard-response",113,119728,"0.0-4.33-2.33","r0hu8u71kr5ql34",215,"92.csv","","null","resources/images/fishbone.png","null","",NA,NA,NA,NA,""
"image-keyboard-response",114,119789,"0.0-4.34-0.34","r0hu8u71kr5ql34",215,"92.csv","","59.40000009536743","resources/trios/L4T4A2.jpg","38","restless",0.4,0.6,0.2,0.883617090461705,"false"
"image-keyboard-response",115,120192,"0.0-4.34-1.34","r0hu8u71kr5ql34",215,"92.csv","","null","resources/maskTrios/BT4B.jpg","null","",NA,NA,NA,NA,""
"image-keyboard-response",116,121398,"0.0-4.34-2.34","r0hu8u71kr5ql34",215,"92.csv","","null","resources/images/fishbone.png","null","",NA,NA,NA,NA,""
"image-keyboard-response",117,121629,"0.0-4.35-0.35","r0hu8u71kr5ql34",215,"92.csv","","230.09999990463257","resources/trios/L4T4A2.jpg","37","restless",0.4,0.6,0.2,0.347851210901847,"true"
"image-keyboard-response",118,122032,"0.0-4.35-1.35","r0hu8u71kr5ql34",215,"92.csv","","null","resources/maskTrios/L4BB.jpg","null","",NA,NA,NA,NA,""
"image-keyboard-response",119,123237,"0.0-4.35-2.35","r0hu8u71kr5ql34",215,"92.csv","","null","resources/images/coin2.png","null","",NA,NA,NA,NA,""
"image-keyboard-response",120,123669,"0.0-4.36-0.36","r0hu8u71kr5ql34",215,"92.csv","","430.1999999284744","resources/trios/L4T4A2.jpg","37","restless",0.5,0.6,0.3,0.73291596235735,"false"
"image-keyboard-response",121,124075,"0.0-4.36-1.36","r0hu8u71kr5ql34",215,"92.csv","","null","resources/maskTrios/L4BB.jpg","null","",NA,NA,NA,NA,""
"image-keyboard-response",122,125280,"0.0-4.36-2.36","r0hu8u71kr5ql34",215,"92.csv","","null","resources/images/fishbone.png","null","",NA,NA,NA,NA,""
"image-keyboard-response",123,125605,"0.0-4.37-0.37","r0hu8u71kr5ql34",215,"92.csv","","323.10000002384186","resources/trios/L4T4A2.jpg","39","restless",0.5,0.6,0.3,0.56729130707689,"false"
"image-keyboard-response",124,126011,"0.0-4.37-1.37","r0hu8u71kr5ql34",215,"92.csv","","null","resources/maskTrios/BBA2.jpg","null","",NA,NA,NA,NA,""
"image-keyboard-response",125,127216,"0.0-4.37-2.37","r0hu8u71kr5ql34",215,"92.csv","","null","resources/images/fishbone.png","null","",NA,NA,NA,NA,""
"image-keyboard-response",126,127478,"0.0-4.38-0.38","r0hu8u71kr5ql34",215,"92.csv","","259.7000000476837","resources/trios/L4T4A2.jpg","38","restless",0.5,0.6,0.3,0.00824740346032704,"true"
"image-keyboard-response",127,127885,"0.0-4.38-1.38","r0hu8u71kr5ql34",215,"92.csv","","null","resources/maskTrios/BT4B.jpg","null","",NA,NA,NA,NA,""
"image-keyboard-response",128,129088,"0.0-4.38-2.38","r0hu8u71kr5ql34",215,"92.csv","","null","resources/images/coin2.png","null","",NA,NA,NA,NA,""
"image-keyboard-response",129,129375,"0.0-4.39-0.39","r0hu8u71kr5ql34",215,"92.csv","","284.7999999523163","resources/trios/L4T4A2.jpg","37","restless",0.5,0.6,0.3,0.942508834026219,"false"
"image-keyboard-response",130,129782,"0.0-4.39-1.39","r0hu8u71kr5ql34",215,"92.csv","","null","resources/maskTrios/L4BB.jpg","null","",NA,NA,NA,NA,""
"image-keyboard-response",131,130987,"0.0-4.39-2.39","r0hu8u71kr5ql34",215,"92.csv","","null","resources/images/fishbone.png","null","",NA,NA,NA,NA,""
"image-keyboard-response",132,131273,"0.0-4.40-0.40","r0hu8u71kr5ql34",215,"92.csv","","284.2000000476837","resources/trios/L4T4A2.jpg","39","restless",0.5,0.6,0.3,0.575944603368922,"false"
"image-keyboard-response",133,131675,"0.0-4.40-1.40","r0hu8u71kr5ql34",215,"92.csv","","null","resources/maskTrios/BBA2.jpg","null","",NA,NA,NA,NA,""
"image-keyboard-response",134,132880,"0.0-4.40-2.40","r0hu8u71kr5ql34",215,"92.csv","","null","resources/images/fishbone.png","null","",NA,NA,NA,NA,""
"image-keyboard-response",135,133383,"0.0-4.41-0.41","r0hu8u71kr5ql34",215,"92.csv","","501.2000000476837","resources/trios/L4T4A2.jpg","38","restless",0.5,0.6,0.3,0.362445896323577,"true"
"image-keyboard-response",136,133787,"0.0-4.41-1.41","r0hu8u71kr5ql34",215,"92.csv","","null","resources/maskTrios/BT4B.jpg","null","",NA,NA,NA,NA,""
"image-keyboard-response",137,134992,"0.0-4.41-2.41","r0hu8u71kr5ql34",215,"92.csv","","null","resources/images/coin2.png","null","",NA,NA,NA,NA,""
"image-keyboard-response",138,135364,"0.0-4.42-0.42","r0hu8u71kr5ql34",215,"92.csv","","370.60000002384186","resources/trios/L4T4A2.jpg","38","restless",0.5,0.6,0.3,0.902537655759924,"false"
"image-keyboard-response",139,135771,"0.0-4.42-1.42","r0hu8u71kr5ql34",215,"92.csv","","null","resources/maskTrios/BT4B.jpg","null","",NA,NA,NA,NA,""
"image-keyboard-response",140,136976,"0.0-4.42-2.42","r0hu8u71kr5ql34",215,"92.csv","","null","resources/images/fishbone.png","null","",NA,NA,NA,NA,""
"image-keyboard-response",141,137337,"0.0-4.43-0.43","r0hu8u71kr5ql34",215,"92.csv","","358.89999997615814","resources/trios/L4T4A2.jpg","39","restless",0.5,0.6,0.3,0.959697856414441,"false"
"image-keyboard-response",142,137739,"0.0-4.43-1.43","r0hu8u71kr5ql34",215,"92.csv","","null","resources/maskTrios/BBA2.jpg","null","",NA,NA,NA,NA,""
"image-keyboard-response",143,138944,"0.0-4.43-2.43","r0hu8u71kr5ql34",215,"92.csv","","null","resources/images/fishbone.png","null","",NA,NA,NA,NA,""
"image-keyboard-response",144,139225,"0.0-4.44-0.44","r0hu8u71kr5ql34",215,"92.csv","","279","resources/trios/L4T4A2.jpg","37","restless",0.5,0.6,0.2,0.915512789106621,"false"
"image-keyboard-response",145,139627,"0.0-4.44-1.44","r0hu8u71kr5ql34",215,"92.csv","","null","resources/maskTrios/L4BB.jpg","null","",NA,NA,NA,NA,""
"image-keyboard-response",146,140832,"0.0-4.44-2.44","r0hu8u71kr5ql34",215,"92.csv","","null","resources/images/fishbone.png","null","",NA,NA,NA,NA,""
"image-keyboard-response",147,141025,"0.0-4.45-0.45","r0hu8u71kr5ql34",215,"92.csv","","191.5","resources/trios/L4T4A2.jpg","38","restless",0.5,0.6,0.2,0.820846765765892,"false"
"image-keyboard-response",148,141429,"0.0-4.45-1.45","r0hu8u71kr5ql34",215,"92.csv","","null","resources/maskTrios/BT4B.jpg","null","",NA,NA,NA,NA,""
"image-keyboard-response",149,142635,"0.0-4.45-2.45","r0hu8u71kr5ql34",215,"92.csv","","null","resources/images/fishbone.png","null","",NA,NA,NA,NA,""
"image-keyboard-response",150,143020,"0.0-4.46-0.46","r0hu8u71kr5ql34",215,"92.csv","","383.60000002384186","resources/trios/L4T4A2.jpg","39","restless",0.5,0.6,0.2,0.27662074244396,"false"
"image-keyboard-response",151,143424,"0.0-4.46-1.46","r0hu8u71kr5ql34",215,"92.csv","","null","resources/maskTrios/BBA2.jpg","null","",NA,NA,NA,NA,""
"image-keyboard-response",152,144628,"0.0-4.46-2.46","r0hu8u71kr5ql34",215,"92.csv","","null","resources/images/fishbone.png","null","",NA,NA,NA,NA,""
"image-keyboard-response",153,144908,"0.0-4.47-0.47","r0hu8u71kr5ql34",215,"92.csv","","277.60000002384186","resources/trios/L4T4A2.jpg","39","restless",0.5,0.5,0.2,0.741593029906611,"false"
"image-keyboard-response",154,145310,"0.0-4.47-1.47","r0hu8u71kr5ql34",215,"92.csv","","null","resources/maskTrios/BBA2.jpg","null","",NA,NA,NA,NA,""
"image-keyboard-response",155,146512,"0.0-4.47-2.47","r0hu8u71kr5ql34",215,"92.csv","","null","resources/images/fishbone.png","null","",NA,NA,NA,NA,""
"image-keyboard-response",156,146770,"0.0-4.48-0.48","r0hu8u71kr5ql34",215,"92.csv","","256.1999999284744","resources/trios/L4T4A2.jpg","37","restless",0.5,0.5,0.2,0.857135723570984,"false"
"image-keyboard-response",157,147173,"0.0-4.48-1.48","r0hu8u71kr5ql34",215,"92.csv","","null","resources/maskTrios/L4BB.jpg","null","",NA,NA,NA,NA,""
"image-keyboard-response",158,148379,"0.0-4.48-2.48","r0hu8u71kr5ql34",215,"92.csv","","null","resources/images/fishbone.png","null","",NA,NA,NA,NA,""
"image-keyboard-response",159,148605,"0.0-4.49-0.49","r0hu8u71kr5ql34",215,"92.csv","","224.69999992847443","resources/trios/L4T4A2.jpg","38","restless",0.5,0.5,0.2,0.576378516152254,"false"
"image-keyboard-response",160,149012,"0.0-4.49-1.49","r0hu8u71kr5ql34",215,"92.csv","","null","resources/maskTrios/BT4B.jpg","null","",NA,NA,NA,NA,""
"image-keyboard-response",161,150219,"0.0-4.49-2.49","r0hu8u71kr5ql34",215,"92.csv","","null","resources/images/fishbone.png","null","",NA,NA,NA,NA,""
"image-keyboard-response",162,150413,"0.0-4.50-0.50","r0hu8u71kr5ql34",215,"92.csv","","192.59999990463257","resources/trios/L4T4A2.jpg","39","restless",0.5,0.5,0.3,0.277214394314726,"true"
"image-keyboard-response",163,150816,"0.0-4.50-1.50","r0hu8u71kr5ql34",215,"92.csv","","null","resources/maskTrios/BBA2.jpg","null","",NA,NA,NA,NA,""
"image-keyboard-response",164,152021,"0.0-4.50-2.50","r0hu8u71kr5ql34",215,"92.csv","","null","resources/images/coin2.png","null","",NA,NA,NA,NA,""
"image-keyboard-response",165,152497,"0.0-4.51-0.51","r0hu8u71kr5ql34",215,"92.csv","","474","resources/trios/L4T4A2.jpg","37","restless",0.5,0.5,0.4,0.857789481709115,"false"
"image-keyboard-response",166,152901,"0.0-4.51-1.51","r0hu8u71kr5ql34",215,"92.csv","","null","resources/maskTrios/L4BB.jpg","null","",NA,NA,NA,NA,""
"image-keyboard-response",167,154107,"0.0-4.51-2.51","r0hu8u71kr5ql34",215,"92.csv","","null","resources/images/fishbone.png","null","",NA,NA,NA,NA,""
"image-keyboard-response",168,154495,"0.0-4.52-0.52","r0hu8u71kr5ql34",215,"92.csv","","386.1999999284744","resources/trios/L4T4A2.jpg","38","restless",0.5,0.6,0.4,0.528687566566095,"true"
"image-keyboard-response",169,154896,"0.0-4.52-1.52","r0hu8u71kr5ql34",215,"92.csv","","null","resources/maskTrios/BT4B.jpg","null","",NA,NA,NA,NA,""
"image-keyboard-response",170,156101,"0.0-4.52-2.52","r0hu8u71kr5ql34",215,"92.csv","","null","resources/images/coin2.png","null","",NA,NA,NA,NA,""
"image-keyboard-response",171,156493,"0.0-4.53-0.53","r0hu8u71kr5ql34",215,"92.csv","","390.5","resources/trios/L4T4A2.jpg","39","restless",0.5,0.6,0.4,0.312449808202069,"true"
"image-keyboard-response",172,156896,"0.0-4.53-1.53","r0hu8u71kr5ql34",215,"92.csv","","null","resources/maskTrios/BBA2.jpg","null","",NA,NA,NA,NA,""
"image-keyboard-response",173,158101,"0.0-4.53-2.53","r0hu8u71kr5ql34",215,"92.csv","","null","resources/images/coin2.png","null","",NA,NA,NA,NA,""
"image-keyboard-response",174,158524,"0.0-4.54-0.54","r0hu8u71kr5ql34",215,"92.csv","","421.3000000715256","resources/trios/L4T4A2.jpg","37","restless",0.6,0.6,0.4,0.386934333883386,"true"
"image-keyboard-response",175,158928,"0.0-4.54-1.54","r0hu8u71kr5ql34",215,"92.csv","","null","resources/maskTrios/L4BB.jpg","null","",NA,NA,NA,NA,""
"image-keyboard-response",176,160133,"0.0-4.54-2.54","r0hu8u71kr5ql34",215,"92.csv","","null","resources/images/coin2.png","null","",NA,NA,NA,NA,""
"image-keyboard-response",177,160586,"0.0-4.55-0.55","r0hu8u71kr5ql34",215,"92.csv","","451","resources/trios/L4T4A2.jpg","39","restless",0.6,0.7,0.4,0.112200890141085,"true"
"image-keyboard-response",178,160992,"0.0-4.55-1.55","r0hu8u71kr5ql34",215,"92.csv","","null","resources/maskTrios/BBA2.jpg","null","",NA,NA,NA,NA,""
"image-keyboard-response",179,162197,"0.0-4.55-2.55","r0hu8u71kr5ql34",215,"92.csv","","null","resources/images/coin2.png","null","",NA,NA,NA,NA,""
"image-keyboard-response",180,162530,"0.0-4.56-0.56","r0hu8u71kr5ql34",215,"92.csv","","331.10000002384186","resources/trios/L4T4A2.jpg","38","restless",0.6,0.7,0.4,0.922589688645133,"false"
"image-keyboard-response",181,162933,"0.0-4.56-1.56","r0hu8u71kr5ql34",215,"92.csv","","null","resources/maskTrios/BT4B.jpg","null","",NA,NA,NA,NA,""
"image-keyboard-response",182,164138,"0.0-4.56-2.56","r0hu8u71kr5ql34",215,"92.csv","","null","resources/images/fishbone.png","null","",NA,NA,NA,NA,""
"image-keyboard-response",183,164466,"0.0-4.57-0.57","r0hu8u71kr5ql34",215,"92.csv","","326.1999999284744","resources/trios/L4T4A2.jpg","37","restless",0.6,0.7,0.4,0.497740041314539,"true"
"image-keyboard-response",184,164869,"0.0-4.57-1.57","r0hu8u71kr5ql34",215,"92.csv","","null","resources/maskTrios/L4BB.jpg","null","",NA,NA,NA,NA,""
"image-keyboard-response",185,166074,"0.0-4.57-2.57","r0hu8u71kr5ql34",215,"92.csv","","null","resources/images/coin2.png","null","",NA,NA,NA,NA,""
"image-keyboard-response",186,166456,"0.0-4.58-0.58","r0hu8u71kr5ql34",215,"92.csv","","379.7000000476837","resources/trios/L4T4A2.jpg","37","restless",0.6,0.7,0.3,0.389087817890053,"true"
"image-keyboard-response",187,166861,"0.0-4.58-1.58","r0hu8u71kr5ql34",215,"92.csv","","null","resources/maskTrios/L4BB.jpg","null","",NA,NA,NA,NA,""
"image-keyboard-response",188,168064,"0.0-4.58-2.58","r0hu8u71kr5ql34",215,"92.csv","","null","resources/images/coin2.png","null","",NA,NA,NA,NA,""
"image-keyboard-response",189,169355,"0.0-4.59-0.59","r0hu8u71kr5ql34",215,"92.csv","","1289.7999999523163","resources/trios/L4T4A2.jpg","37","restless",0.6,0.7,0.3,0.954437946455602,"false"
"image-keyboard-response",190,169760,"0.0-4.59-1.59","r0hu8u71kr5ql34",215,"92.csv","","null","resources/maskTrios/L4BB.jpg","null","",NA,NA,NA,NA,""
"image-keyboard-response",191,170965,"0.0-4.59-2.59","r0hu8u71kr5ql34",215,"92.csv","","null","resources/images/fishbone.png","null","",NA,NA,NA,NA,""
"image-keyboard-response",192,171264,"0.0-4.60-0.60","r0hu8u71kr5ql34",215,"92.csv","","297.3000000715256","resources/trios/L4T4A2.jpg","39","restless",0.6,0.7,0.3,0.7701229283781,"false"
"image-keyboard-response",193,171669,"0.0-4.60-1.60","r0hu8u71kr5ql34",215,"92.csv","","null","resources/maskTrios/BBA2.jpg","null","",NA,NA,NA,NA,""
"image-keyboard-response",194,172874,"0.0-4.60-2.60","r0hu8u71kr5ql34",215,"92.csv","","null","resources/images/fishbone.png","null","",NA,NA,NA,NA,""
"image-keyboard-response",195,173351,"0.0-4.61-0.61","r0hu8u71kr5ql34",215,"92.csv","","475.10000002384186","resources/trios/L4T4A2.jpg","38","restless",0.6,0.7,0.3,0.405148110774576,"true"
"image-keyboard-response",196,173754,"0.0-4.61-1.61","r0hu8u71kr5ql34",215,"92.csv","","null","resources/maskTrios/BT4B.jpg","null","",NA,NA,NA,NA,""
"image-keyboard-response",197,174960,"0.0-4.61-2.61","r0hu8u71kr5ql34",215,"92.csv","","null","resources/images/coin2.png","null","",NA,NA,NA,NA,""
"image-keyboard-response",198,175404,"0.0-4.62-0.62","r0hu8u71kr5ql34",215,"92.csv","","442.60000002384186","resources/trios/L4T4A2.jpg","38","restless",0.6,0.7,0.3,0.53519507566158,"true"
"image-keyboard-response",199,175809,"0.0-4.62-1.62","r0hu8u71kr5ql34",215,"92.csv","","null","resources/maskTrios/BT4B.jpg","null","",NA,NA,NA,NA,""
"image-keyboard-response",200,177013,"0.0-4.62-2.62","r0hu8u71kr5ql34",215,"92.csv","","null","resources/images/coin2.png","null","",NA,NA,NA,NA,""
"image-keyboard-response",201,177497,"0.0-4.63-0.63","r0hu8u71kr5ql34",215,"92.csv","","482.6999999284744","resources/trios/L4T4A2.jpg","37","restless",0.6,0.7,0.3,0.542481334734322,"true"
"image-keyboard-response",202,177904,"0.0-4.63-1.63","r0hu8u71kr5ql34",215,"92.csv","","null","resources/maskTrios/L4BB.jpg","null","",NA,NA,NA,NA,""
"image-keyboard-response",203,179109,"0.0-4.63-2.63","r0hu8u71kr5ql34",215,"92.csv","","null","resources/images/coin2.png","null","",NA,NA,NA,NA,""
"image-keyboard-response",204,179488,"0.0-4.64-0.64","r0hu8u71kr5ql34",215,"92.csv","","377.1999999284744","resources/trios/L4T4A2.jpg","37","restless",0.7,0.7,0.3,0.821653523277364,"false"
"image-keyboard-response",205,179893,"0.0-4.64-1.64","r0hu8u71kr5ql34",215,"92.csv","","null","resources/maskTrios/L4BB.jpg","null","",NA,NA,NA,NA,""
"image-keyboard-response",206,181098,"0.0-4.64-2.64","r0hu8u71kr5ql34",215,"92.csv","","null","resources/images/fishbone.png","null","",NA,NA,NA,NA,""
"image-keyboard-response",207,181404,"0.0-4.65-0.65","r0hu8u71kr5ql34",215,"92.csv","","304.2999999523163","resources/trios/L4T4A2.jpg","39","restless",0.7,0.7,0.3,0.318169508804318,"false"
"image-keyboard-response",208,181808,"0.0-4.65-1.65","r0hu8u71kr5ql34",215,"92.csv","","null","resources/maskTrios/BBA2.jpg","null","",NA,NA,NA,NA,""
"image-keyboard-response",209,183013,"0.0-4.65-2.65","r0hu8u71kr5ql34",215,"92.csv","","null","resources/images/fishbone.png","null","",NA,NA,NA,NA,""
"image-keyboard-response",210,183311,"0.0-4.66-0.66","r0hu8u71kr5ql34",215,"92.csv","","296.40000009536743","resources/trios/L4T4A2.jpg","38","restless",0.6,0.7,0.3,0.391651792461971,"true"
"image-keyboard-response",211,183717,"0.0-4.66-1.66","r0hu8u71kr5ql34",215,"92.csv","","null","resources/maskTrios/BT4B.jpg","null","",NA,NA,NA,NA,""
"image-keyboard-response",212,184922,"0.0-4.66-2.66","r0hu8u71kr5ql34",215,"92.csv","","null","resources/images/coin2.png","null","",NA,NA,NA,NA,""
"image-keyboard-response",213,185596,"0.0-4.67-0.67","r0hu8u71kr5ql34",215,"92.csv","","672.1000000238419","resources/trios/L4T4A2.jpg","37","restless",0.6,0.7,0.3,0.947554421688251,"false"
"image-keyboard-response",214,186000,"0.0-4.67-1.67","r0hu8u71kr5ql34",215,"92.csv","","null","resources/maskTrios/L4BB.jpg","null","",NA,NA,NA,NA,""
"image-keyboard-response",215,187205,"0.0-4.67-2.67","r0hu8u71kr5ql34",215,"92.csv","","null","resources/images/fishbone.png","null","",NA,NA,NA,NA,""
"image-keyboard-response",216,187618,"0.0-4.68-0.68","r0hu8u71kr5ql34",215,"92.csv","","411.5","resources/trios/L4T4A2.jpg","38","restless",0.6,0.7,0.4,0.686261841099669,"true"
"image-keyboard-response",217,188021,"0.0-4.68-1.68","r0hu8u71kr5ql34",215,"92.csv","","null","resources/maskTrios/BT4B.jpg","null","",NA,NA,NA,NA,""
"image-keyboard-response",218,189225,"0.0-4.68-2.68","r0hu8u71kr5ql34",215,"92.csv","","null","resources/images/coin2.png","null","",NA,NA,NA,NA,""
"image-keyboard-response",219,189557,"0.0-4.69-0.69","r0hu8u71kr5ql34",215,"92.csv","","330.10000002384186","resources/trios/L4T4A2.jpg","39","restless",0.6,0.7,0.4,0.299033925987568,"true"
"image-keyboard-response",220,189962,"0.0-4.69-1.69","r0hu8u71kr5ql34",215,"92.csv","","null","resources/maskTrios/BBA2.jpg","null","",NA,NA,NA,NA,""
"image-keyboard-response",221,191165,"0.0-4.69-2.69","r0hu8u71kr5ql34",215,"92.csv","","null","resources/images/coin2.png","null","",NA,NA,NA,NA,""
"image-keyboard-response",222,191465,"0.0-4.70-0.70","r0hu8u71kr5ql34",215,"92.csv","","298.5","resources/trios/L4T4A2.jpg","37","restless",0.6,0.7,0.4,0.286862045883606,"true"
"image-keyboard-response",223,191871,"0.0-4.70-1.70","r0hu8u71kr5ql34",215,"92.csv","","null","resources/maskTrios/L4BB.jpg","null","",NA,NA,NA,NA,""
"image-keyboard-response",224,193077,"0.0-4.70-2.70","r0hu8u71kr5ql34",215,"92.csv","","null","resources/images/coin2.png","null","",NA,NA,NA,NA,""
"image-keyboard-response",225,193379,"0.0-4.71-0.71","r0hu8u71kr5ql34",215,"92.csv","","300.6999999284744","resources/trios/L4T4A2.jpg","37","restless",0.6,0.7,0.4,0.837603868897257,"false"
"image-keyboard-response",226,193786,"0.0-4.71-1.71","r0hu8u71kr5ql34",215,"92.csv","","null","resources/maskTrios/L4BB.jpg","null","",NA,NA,NA,NA,""
"image-keyboard-response",227,194991,"0.0-4.71-2.71","r0hu8u71kr5ql34",215,"92.csv","","null","resources/images/fishbone.png","null","",NA,NA,NA,NA,""
"image-keyboard-response",228,195242,"0.0-4.72-0.72","r0hu8u71kr5ql34",215,"92.csv","","248.89999997615814","resources/trios/L4T4A2.jpg","38","restless",0.6,0.7,0.4,0.293532558283891,"true"
"image-keyboard-response",229,195648,"0.0-4.72-1.72","r0hu8u71kr5ql34",215,"92.csv","","null","resources/maskTrios/BT4B.jpg","null","",NA,NA,NA,NA,""
"image-keyboard-response",230,196853,"0.0-4.72-2.72","r0hu8u71kr5ql34",215,"92.csv","","null","resources/images/coin2.png","null","",NA,NA,NA,NA,""
"image-keyboard-response",231,197119,"0.0-4.73-0.73","r0hu8u71kr5ql34",215,"92.csv","","264.5","resources/trios/L4T4A2.jpg","39","restless",0.6,0.7,0.4,0.163697631366168,"true"
"image-keyboard-response",232,197525,"0.0-4.73-1.73","r0hu8u71kr5ql34",215,"92.csv","","null","resources/maskTrios/BBA2.jpg","null","",NA,NA,NA,NA,""
"image-keyboard-response",233,198730,"0.0-4.73-2.73","r0hu8u71kr5ql34",215,"92.csv","","null","resources/images/coin2.png","null","",NA,NA,NA,NA,""
"image-keyboard-response",234,198966,"0.0-4.74-0.74","r0hu8u71kr5ql34",215,"92.csv","","234.70000004768372","resources/trios/L4T4A2.jpg","39","restless",0.6,0.7,0.4,0.262738057624552,"true"
"image-keyboard-response",235,199370,"0.0-4.74-1.74","r0hu8u71kr5ql34",215,"92.csv","","null","resources/maskTrios/BBA2.jpg","null","",NA,NA,NA,NA,""
"image-keyboard-response",236,200575,"0.0-4.74-2.74","r0hu8u71kr5ql34",215,"92.csv","","null","resources/images/coin2.png","null","",NA,NA,NA,NA,""
"image-keyboard-response",237,201019,"0.0-4.75-0.75","r0hu8u71kr5ql34",215,"92.csv","","441.7999999523163","resources/trios/L4T4A2.jpg","39","restless",0.6,0.7,0.4,0.982195201368722,"false"
"image-keyboard-response",238,201423,"0.0-4.75-1.75","r0hu8u71kr5ql34",215,"92.csv","","null","resources/maskTrios/BBA2.jpg","null","",NA,NA,NA,NA,""
"image-keyboard-response",239,202629,"0.0-4.75-2.75","r0hu8u71kr5ql34",215,"92.csv","","null","resources/images/fishbone.png","null","",NA,NA,NA,NA,""
"image-keyboard-response",240,202927,"0.0-4.76-0.76","r0hu8u71kr5ql34",215,"92.csv","","296.6999999284744","resources/trios/L4T4A2.jpg","37","restless",0.6,0.7,0.4,0.821548521396737,"false"
"image-keyboard-response",241,203333,"0.0-4.76-1.76","r0hu8u71kr5ql34",215,"92.csv","","null","resources/maskTrios/L4BB.jpg","null","",NA,NA,NA,NA,""
"image-keyboard-response",242,204535,"0.0-4.76-2.76","r0hu8u71kr5ql34",215,"92.csv","","null","resources/images/fishbone.png","null","",NA,NA,NA,NA,""
"image-keyboard-response",243,205112,"0.0-4.77-0.77","r0hu8u71kr5ql34",215,"92.csv","","574.7000000476837","resources/trios/L4T4A2.jpg","38","restless",0.6,0.7,0.4,0.425139830724757,"true"
"image-keyboard-response",244,205514,"0.0-4.77-1.77","r0hu8u71kr5ql34",215,"92.csv","","null","resources/maskTrios/BT4B.jpg","null","",NA,NA,NA,NA,""
"image-keyboard-response",245,206719,"0.0-4.77-2.77","r0hu8u71kr5ql34",215,"92.csv","","null","resources/images/coin2.png","null","",NA,NA,NA,NA,""
"image-keyboard-response",246,206974,"0.0-4.78-0.78","r0hu8u71kr5ql34",215,"92.csv","","253.30000007152557","resources/trios/L4T4A2.jpg","38","restless",0.5,0.7,0.4,0.649786251902302,"true"
"image-keyboard-response",247,207381,"0.0-4.78-1.78","r0hu8u71kr5ql34",215,"92.csv","","null","resources/maskTrios/BT4B.jpg","null","",NA,NA,NA,NA,""
"image-keyboard-response",248,208586,"0.0-4.78-2.78","r0hu8u71kr5ql34",215,"92.csv","","null","resources/images/coin2.png","null","",NA,NA,NA,NA,""
"image-keyboard-response",249,208956,"0.0-4.79-0.79","r0hu8u71kr5ql34",215,"92.csv","","368.7999999523163","resources/trios/L4T4A2.jpg","37","restless",0.5,0.8,0.4,0.452403759927,"true"
"image-keyboard-response",250,209359,"0.0-4.79-1.79","r0hu8u71kr5ql34",215,"92.csv","","null","resources/maskTrios/L4BB.jpg","null","",NA,NA,NA,NA,""
"image-keyboard-response",251,210565,"0.0-4.79-2.79","r0hu8u71kr5ql34",215,"92.csv","","null","resources/images/coin2.png","null","",NA,NA,NA,NA,""
"image-keyboard-response",252,210859,"0.0-4.80-0.80","r0hu8u71kr5ql34",215,"92.csv","","293.09999990463257","resources/trios/L4T4A2.jpg","38","restless",0.5,0.8,0.4,0.165243063212378,"true"
"image-keyboard-response",253,211263,"0.0-4.80-1.80","r0hu8u71kr5ql34",215,"92.csv","","null","resources/maskTrios/BT4B.jpg","null","",NA,NA,NA,NA,""
"image-keyboard-response",254,212469,"0.0-4.80-2.80","r0hu8u71kr5ql34",215,"92.csv","","null","resources/images/coin2.png","null","",NA,NA,NA,NA,""
"image-keyboard-response",255,212759,"0.0-4.81-0.81","r0hu8u71kr5ql34",215,"92.csv","","288.5","resources/trios/L4T4A2.jpg","38","restless",0.5,0.8,0.4,0.762887281995554,"true"
"image-keyboard-response",256,213162,"0.0-4.81-1.81","r0hu8u71kr5ql34",215,"92.csv","","null","resources/maskTrios/BT4B.jpg","null","",NA,NA,NA,NA,""
"image-keyboard-response",257,214368,"0.0-4.81-2.81","r0hu8u71kr5ql34",215,"92.csv","","null","resources/images/coin2.png","null","",NA,NA,NA,NA,""
"image-keyboard-response",258,214686,"0.0-4.82-0.82","r0hu8u71kr5ql34",215,"92.csv","","317.2000000476837","resources/trios/L4T4A2.jpg","38","restless",0.5,0.8,0.4,0.181995780508982,"true"
"image-keyboard-response",259,215093,"0.0-4.82-1.82","r0hu8u71kr5ql34",215,"92.csv","","null","resources/maskTrios/BT4B.jpg","null","",NA,NA,NA,NA,""
"image-keyboard-response",260,216299,"0.0-4.82-2.82","r0hu8u71kr5ql34",215,"92.csv","","null","resources/images/coin2.png","null","",NA,NA,NA,NA,""
"image-keyboard-response",261,216600,"0.0-4.83-0.83","r0hu8u71kr5ql34",215,"92.csv","","299.60000002384186","resources/trios/L4T4A2.jpg","39","restless",0.5,0.8,0.4,0.0321885888810121,"true"
"image-keyboard-response",262,217002,"0.0-4.83-1.83","r0hu8u71kr5ql34",215,"92.csv","","null","resources/maskTrios/BBA2.jpg","null","",NA,NA,NA,NA,""
"image-keyboard-response",263,218207,"0.0-4.83-2.83","r0hu8u71kr5ql34",215,"92.csv","","null","resources/images/coin2.png","null","",NA,NA,NA,NA,""
"image-keyboard-response",264,218613,"0.0-4.84-0.84","r0hu8u71kr5ql34",215,"92.csv","","404.3000000715256","resources/trios/L4T4A2.jpg","39","restless",0.5,0.9,0.4,0.376202280877554,"true"
"image-keyboard-response",265,219018,"0.0-4.84-1.84","r0hu8u71kr5ql34",215,"92.csv","","null","resources/maskTrios/BBA2.jpg","null","",NA,NA,NA,NA,""
"image-keyboard-response",266,220223,"0.0-4.84-2.84","r0hu8u71kr5ql34",215,"92.csv","","null","resources/images/coin2.png","null","",NA,NA,NA,NA,""
"image-keyboard-response",267,220698,"0.0-4.85-0.85","r0hu8u71kr5ql34",215,"92.csv","","473.60000002384186","resources/trios/L4T4A2.jpg","37","restless",0.5,0.9,0.4,0.830636034687788,"false"
"image-keyboard-response",268,221103,"0.0-4.85-1.85","r0hu8u71kr5ql34",215,"92.csv","","null","resources/maskTrios/L4BB.jpg","null","",NA,NA,NA,NA,""
"image-keyboard-response",269,222309,"0.0-4.85-2.85","r0hu8u71kr5ql34",215,"92.csv","","null","resources/images/fishbone.png","null","",NA,NA,NA,NA,""
"image-keyboard-response",270,223109,"0.0-4.86-0.86","r0hu8u71kr5ql34",215,"92.csv","","798.7000000476837","resources/trios/L4T4A2.jpg","38","restless",0.5,0.8,0.4,0.100523137372245,"true"
"image-keyboard-response",271,223511,"0.0-4.86-1.86","r0hu8u71kr5ql34",215,"92.csv","","null","resources/maskTrios/BT4B.jpg","null","",NA,NA,NA,NA,""
"image-keyboard-response",272,224716,"0.0-4.86-2.86","r0hu8u71kr5ql34",215,"92.csv","","null","resources/images/coin2.png","null","",NA,NA,NA,NA,""
"image-keyboard-response",273,226034,"0.0-4.87-0.87","r0hu8u71kr5ql34",215,"92.csv","","1315.8000000715256","resources/trios/L4T4A2.jpg","39","restless",0.5,0.8,0.4,0.366745655354102,"true"
"image-keyboard-response",274,226436,"0.0-4.87-1.87","r0hu8u71kr5ql34",215,"92.csv","","null","resources/maskTrios/BBA2.jpg","null","",NA,NA,NA,NA,""
"image-keyboard-response",275,227642,"0.0-4.87-2.87","r0hu8u71kr5ql34",215,"92.csv","","null","resources/images/coin2.png","null","",NA,NA,NA,NA,""
"image-keyboard-response",276,228032,"0.0-4.88-0.88","r0hu8u71kr5ql34",215,"92.csv","","388.89999997615814","resources/trios/L4T4A2.jpg","39","restless",0.5,0.8,0.4,0.719797338365544,"false"
"image-keyboard-response",277,228437,"0.0-4.88-1.88","r0hu8u71kr5ql34",215,"92.csv","","null","resources/maskTrios/BBA2.jpg","null","",NA,NA,NA,NA,""
"image-keyboard-response",278,229642,"0.0-4.88-2.88","r0hu8u71kr5ql34",215,"92.csv","","null","resources/images/fishbone.png","null","",NA,NA,NA,NA,""
"image-keyboard-response",279,229938,"0.0-4.89-0.89","r0hu8u71kr5ql34",215,"92.csv","","294","resources/trios/L4T4A2.jpg","37","restless",0.4,0.8,0.4,0.424056675581093,"false"
"image-keyboard-response",280,230341,"0.0-4.89-1.89","r0hu8u71kr5ql34",215,"92.csv","","null","resources/maskTrios/L4BB.jpg","null","",NA,NA,NA,NA,""
"image-keyboard-response",281,231546,"0.0-4.89-2.89","r0hu8u71kr5ql34",215,"92.csv","","null","resources/images/fishbone.png","null","",NA,NA,NA,NA,""
"image-keyboard-response",282,231749,"0.0-4.90-0.90","r0hu8u71kr5ql34",215,"92.csv","","201.59999990463257","resources/trios/L4T4A2.jpg","38","restless",0.4,0.8,0.4,0.200976934378036,"true"
"image-keyboard-response",283,232154,"0.0-4.90-1.90","r0hu8u71kr5ql34",215,"92.csv","","null","resources/maskTrios/BT4B.jpg","null","",NA,NA,NA,NA,""
"image-keyboard-response",284,233359,"0.0-4.90-2.90","r0hu8u71kr5ql34",215,"92.csv","","null","resources/images/coin2.png","null","",NA,NA,NA,NA,""
"image-keyboard-response",285,233789,"0.0-4.91-0.91","r0hu8u71kr5ql34",215,"92.csv","","428.2000000476837","resources/trios/L4T4A2.jpg","38","restless",0.5,0.8,0.4,0.742588991666442,"true"
"image-keyboard-response",286,234191,"0.0-4.91-1.91","r0hu8u71kr5ql34",215,"92.csv","","null","resources/maskTrios/BT4B.jpg","null","",NA,NA,NA,NA,""
"image-keyboard-response",287,235396,"0.0-4.91-2.91","r0hu8u71kr5ql34",215,"92.csv","","null","resources/images/coin2.png","null","",NA,NA,NA,NA,""
"image-keyboard-response",288,236452,"0.0-4.92-0.92","r0hu8u71kr5ql34",215,"92.csv","","1054.3999999761581","resources/trios/L4T4A2.jpg","39","restless",0.5,0.8,0.5,0.504011932784427,"false"
"image-keyboard-response",289,236858,"0.0-4.92-1.92","r0hu8u71kr5ql34",215,"92.csv","","null","resources/maskTrios/BBA2.jpg","null","",NA,NA,NA,NA,""
"image-keyboard-response",290,238060,"0.0-4.92-2.92","r0hu8u71kr5ql34",215,"92.csv","","null","resources/images/fishbone.png","null","",NA,NA,NA,NA,""
"image-keyboard-response",291,238300,"0.0-4.93-0.93","r0hu8u71kr5ql34",215,"92.csv","","238.5","resources/trios/L4T4A2.jpg","37","restless",0.5,0.8,0.5,0.599063074403885,"false"
"image-keyboard-response",292,238703,"0.0-4.93-1.93","r0hu8u71kr5ql34",215,"92.csv","","null","resources/maskTrios/L4BB.jpg","null","",NA,NA,NA,NA,""
"image-keyboard-response",293,239908,"0.0-4.93-2.93","r0hu8u71kr5ql34",215,"92.csv","","null","resources/images/fishbone.png","null","",NA,NA,NA,NA,""
"image-keyboard-response",294,240146,"0.0-4.94-0.94","r0hu8u71kr5ql34",215,"92.csv","","236.39999997615814","resources/trios/L4T4A2.jpg","38","restless",0.5,0.8,0.5,0.447354288155287,"true"
"image-keyboard-response",295,240548,"0.0-4.94-1.94","r0hu8u71kr5ql34",215,"92.csv","","null","resources/maskTrios/BT4B.jpg","null","",NA,NA,NA,NA,""
"image-keyboard-response",296,241756,"0.0-4.94-2.94","r0hu8u71kr5ql34",215,"92.csv","","null","resources/images/coin2.png","null","",NA,NA,NA,NA,""
"image-keyboard-response",297,242069,"0.0-4.95-0.95","r0hu8u71kr5ql34",215,"92.csv","","311.7000000476837","resources/trios/L4T4A2.jpg","38","restless",0.5,0.8,0.5,0.0497823665688106,"true"
"image-keyboard-response",298,242474,"0.0-4.95-1.95","r0hu8u71kr5ql34",215,"92.csv","","null","resources/maskTrios/BT4B.jpg","null","",NA,NA,NA,NA,""
"image-keyboard-response",299,243679,"0.0-4.95-2.95","r0hu8u71kr5ql34",215,"92.csv","","null","resources/images/coin2.png","null","",NA,NA,NA,NA,""
"image-keyboard-response",300,243970,"0.0-4.96-0.96","r0hu8u71kr5ql34",215,"92.csv","","289","resources/trios/L4T4A2.jpg","38","restless",0.5,0.8,0.5,0.825318985938036,"false"
"image-keyboard-response",301,244372,"0.0-4.96-1.96","r0hu8u71kr5ql34",215,"92.csv","","null","resources/maskTrios/BT4B.jpg","null","",NA,NA,NA,NA,""
"image-keyboard-response",302,245574,"0.0-4.96-2.96","r0hu8u71kr5ql34",215,"92.csv","","null","resources/images/fishbone.png","null","",NA,NA,NA,NA,""
"image-keyboard-response",303,245887,"0.0-4.97-0.97","r0hu8u71kr5ql34",215,"92.csv","","311.2999999523163","resources/trios/L4T4A2.jpg","39","restless",0.4,0.8,0.5,0.156834163748235,"true"
"image-keyboard-response",304,246292,"0.0-4.97-1.97","r0hu8u71kr5ql34",215,"92.csv","","null","resources/maskTrios/BBA2.jpg","null","",NA,NA,NA,NA,""
"image-keyboard-response",305,247498,"0.0-4.97-2.97","r0hu8u71kr5ql34",215,"92.csv","","null","resources/images/coin2.png","null","",NA,NA,NA,NA,""
"image-keyboard-response",306,247733,"0.0-4.98-0.98","r0hu8u71kr5ql34",215,"92.csv","","233.89999997615814","resources/trios/L4T4A2.jpg","39","restless",0.4,0.8,0.5,0.33434402781279,"true"
"image-keyboard-response",307,248138,"0.0-4.98-1.98","r0hu8u71kr5ql34",215,"92.csv","","null","resources/maskTrios/BBA2.jpg","null","",NA,NA,NA,NA,""
"image-keyboard-response",308,249343,"0.0-4.98-2.98","r0hu8u71kr5ql34",215,"92.csv","","null","resources/images/coin2.png","null","",NA,NA,NA,NA,""
"image-keyboard-response",309,249436,"0.0-4.99-0.99","r0hu8u71kr5ql34",215,"92.csv","","91.60000002384186","resources/trios/L4T4A2.jpg","37","restless",0.4,0.8,0.5,0.451978610243391,"false"
"image-keyboard-response",310,249838,"0.0-4.99-1.99","r0hu8u71kr5ql34",215,"92.csv","","null","resources/maskTrios/L4BB.jpg","null","",NA,NA,NA,NA,""
"image-keyboard-response",311,251044,"0.0-4.99-2.99","r0hu8u71kr5ql34",215,"92.csv","","null","resources/images/fishbone.png","null","",NA,NA,NA,NA,""
"image-keyboard-response",312,251232,"0.0-4.100-0.100","r0hu8u71kr5ql34",215,"92.csv","","186.09999990463257","resources/trios/L4T4A2.jpg","39","restless",0.4,0.8,0.5,0.431070965822078,"true"
"image-keyboard-response",313,251634,"0.0-4.100-1.100","r0hu8u71kr5ql34",215,"92.csv","","null","resources/maskTrios/BBA2.jpg","null","",NA,NA,NA,NA,""
"image-keyboard-response",314,252836,"0.0-4.100-2.100","r0hu8u71kr5ql34",215,"92.csv","","null","resources/images/coin2.png","null","",NA,NA,NA,NA,""
"image-keyboard-response",315,253163,"0.0-4.101-0.101","r0hu8u71kr5ql34",215,"92.csv","","324.7999999523163","resources/trios/L4T4A2.jpg","39","restless",0.4,0.8,0.5,0.171407775552483,"true"
"image-keyboard-response",316,253567,"0.0-4.101-1.101","r0hu8u71kr5ql34",215,"92.csv","","null","resources/maskTrios/BBA2.jpg","null","",NA,NA,NA,NA,""
"image-keyboard-response",317,254772,"0.0-4.101-2.101","r0hu8u71kr5ql34",215,"92.csv","","null","resources/images/coin2.png","null","",NA,NA,NA,NA,""
"image-keyboard-response",318,255165,"0.0-4.102-0.102","r0hu8u71kr5ql34",215,"92.csv","","390.7999999523163","resources/trios/L4T4A2.jpg","37","restless",0.4,0.8,0.5,0.611213093622456,"false"
"image-keyboard-response",319,255567,"0.0-4.102-1.102","r0hu8u71kr5ql34",215,"92.csv","","null","resources/maskTrios/L4BB.jpg","null","",NA,NA,NA,NA,""
"image-keyboard-response",320,256769,"0.0-4.102-2.102","r0hu8u71kr5ql34",215,"92.csv","","null","resources/images/fishbone.png","null","",NA,NA,NA,NA,""
"image-keyboard-response",321,256948,"0.0-4.103-0.103","r0hu8u71kr5ql34",215,"92.csv","","177.30000007152557","resources/trios/L4T4A2.jpg","38","restless",0.4,0.8,0.5,0.876694741098154,"false"
"image-keyboard-response",322,257353,"0.0-4.103-1.103","r0hu8u71kr5ql34",215,"92.csv","","null","resources/maskTrios/BT4B.jpg","null","",NA,NA,NA,NA,""
"image-keyboard-response",323,258556,"0.0-4.103-2.103","r0hu8u71kr5ql34",215,"92.csv","","null","resources/images/fishbone.png","null","",NA,NA,NA,NA,""
"image-keyboard-response",324,258823,"0.0-4.104-0.104","r0hu8u71kr5ql34",215,"92.csv","","264.7000000476837","resources/trios/L4T4A2.jpg","39","restless",0.4,0.8,0.5,0.616783254290122,"false"
"image-keyboard-response",325,259225,"0.0-4.104-1.104","r0hu8u71kr5ql34",215,"92.csv","","null","resources/maskTrios/BBA2.jpg","null","",NA,NA,NA,NA,""
"image-keyboard-response",326,260431,"0.0-4.104-2.104","r0hu8u71kr5ql34",215,"92.csv","","null","resources/images/fishbone.png","null","",NA,NA,NA,NA,""
"image-keyboard-response",327,260671,"0.0-4.105-0.105","r0hu8u71kr5ql34",215,"92.csv","","238.20000004768372","resources/trios/L4T4A2.jpg","39","restless",0.4,0.8,0.5,0.839492577764557,"false"
"image-keyboard-response",328,261076,"0.0-4.105-1.105","r0hu8u71kr5ql34",215,"92.csv","","null","resources/maskTrios/BBA2.jpg","null","",NA,NA,NA,NA,""
"image-keyboard-response",329,262281,"0.0-4.105-2.105","r0hu8u71kr5ql34",215,"92.csv","","null","resources/images/fishbone.png","null","",NA,NA,NA,NA,""
"image-keyboard-response",330,262560,"0.0-4.106-0.106","r0hu8u71kr5ql34",215,"92.csv","","277.10000002384186","resources/trios/L4T4A2.jpg","39","restless",0.4,0.8,0.5,0.318119544090302,"true"
"image-keyboard-response",331,262964,"0.0-4.106-1.106","r0hu8u71kr5ql34",215,"92.csv","","null","resources/maskTrios/BBA2.jpg","null","",NA,NA,NA,NA,""
"image-keyboard-response",332,264170,"0.0-4.106-2.106","r0hu8u71kr5ql34",215,"92.csv","","null","resources/images/coin2.png","null","",NA,NA,NA,NA,""
"image-keyboard-response",333,264568,"0.0-4.107-0.107","r0hu8u71kr5ql34",215,"92.csv","","396.89999997615814","resources/trios/L4T4A2.jpg","37","restless",0.4,0.8,0.6,0.900267608854973,"false"
"image-keyboard-response",334,264975,"0.0-4.107-1.107","r0hu8u71kr5ql34",215,"92.csv","","null","resources/maskTrios/L4BB.jpg","null","",NA,NA,NA,NA,""
"image-keyboard-response",335,266180,"0.0-4.107-2.107","r0hu8u71kr5ql34",215,"92.csv","","null","resources/images/fishbone.png","null","",NA,NA,NA,NA,""
"image-keyboard-response",336,266941,"0.0-4.108-0.108","r0hu8u71kr5ql34",215,"92.csv","","758.7000000476837","resources/trios/L4T4A2.jpg","38","restless",0.4,0.8,0.6,0.318397399903091,"true"
"image-keyboard-response",337,267343,"0.0-4.108-1.108","r0hu8u71kr5ql34",215,"92.csv","","null","resources/maskTrios/BT4B.jpg","null","",NA,NA,NA,NA,""
"image-keyboard-response",338,268548,"0.0-4.108-2.108","r0hu8u71kr5ql34",215,"92.csv","","null","resources/images/coin2.png","null","",NA,NA,NA,NA,""
"image-keyboard-response",339,268789,"0.0-4.109-0.109","r0hu8u71kr5ql34",215,"92.csv","","239.19999992847443","resources/trios/L4T4A2.jpg","38","restless",0.4,0.8,0.6,0.735663312404774,"true"
"image-keyboard-response",340,269193,"0.0-4.109-1.109","r0hu8u71kr5ql34",215,"92.csv","","null","resources/maskTrios/BT4B.jpg","null","",NA,NA,NA,NA,""
"image-keyboard-response",341,270400,"0.0-4.109-2.109","r0hu8u71kr5ql34",215,"92.csv","","null","resources/images/coin2.png","null","",NA,NA,NA,NA,""
"image-keyboard-response",342,271498,"0.0-4.110-0.110","r0hu8u71kr5ql34",215,"92.csv","","1095.6000000238419","resources/trios/L4T4A2.jpg","38","restless",0.4,0.8,0.6,0.558929632942643,"true"
"image-keyboard-response",343,271900,"0.0-4.110-1.110","r0hu8u71kr5ql34",215,"92.csv","","null","resources/maskTrios/BT4B.jpg","null","",NA,NA,NA,NA,""
"image-keyboard-response",344,273103,"0.0-4.110-2.110","r0hu8u71kr5ql34",215,"92.csv","","null","resources/images/coin2.png","null","",NA,NA,NA,NA,""
"image-keyboard-response",345,273925,"0.0-4.111-0.111","r0hu8u71kr5ql34",215,"92.csv","","820.5999999046326","resources/trios/L4T4A2.jpg","39","restless",0.4,0.8,0.6,0.615641017281684,"false"
"image-keyboard-response",346,274329,"0.0-4.111-1.111","r0hu8u71kr5ql34",215,"92.csv","","null","resources/maskTrios/BBA2.jpg","null","",NA,NA,NA,NA,""
"image-keyboard-response",347,275535,"0.0-4.111-2.111","r0hu8u71kr5ql34",215,"92.csv","","null","resources/images/fishbone.png","null","",NA,NA,NA,NA,""
"image-keyboard-response",348,275905,"0.0-4.112-0.112","r0hu8u71kr5ql34",215,"92.csv","","368.3000000715256","resources/trios/L4T4A2.jpg","37","restless",0.4,0.8,0.6,0.542971367176283,"false"
"image-keyboard-response",349,276308,"0.0-4.112-1.112","r0hu8u71kr5ql34",215,"92.csv","","null","resources/maskTrios/L4BB.jpg","null","",NA,NA,NA,NA,""
"image-keyboard-response",350,277513,"0.0-4.112-2.112","r0hu8u71kr5ql34",215,"92.csv","","null","resources/images/fishbone.png","null","",NA,NA,NA,NA,""
"image-keyboard-response",351,277842,"0.0-4.113-0.113","r0hu8u71kr5ql34",215,"92.csv","","327.10000002384186","resources/trios/L4T4A2.jpg","38","restless",0.4,0.8,0.6,0.662514233792424,"true"
"image-keyboard-response",352,278249,"0.0-4.113-1.113","r0hu8u71kr5ql34",215,"92.csv","","null","resources/maskTrios/BT4B.jpg","null","",NA,NA,NA,NA,""
"image-keyboard-response",353,279454,"0.0-4.113-2.113","r0hu8u71kr5ql34",215,"92.csv","","null","resources/images/coin2.png","null","",NA,NA,NA,NA,""
"image-keyboard-response",354,279874,"0.0-4.114-0.114","r0hu8u71kr5ql34",215,"92.csv","","418.10000002384186","resources/trios/L4T4A2.jpg","38","restless",0.4,0.9,0.6,0.854936968069602,"true"
"image-keyboard-response",355,280281,"0.0-4.114-1.114","r0hu8u71kr5ql34",215,"92.csv","","null","resources/maskTrios/BT4B.jpg","null","",NA,NA,NA,NA,""
"image-keyboard-response",356,281487,"0.0-4.114-2.114","r0hu8u71kr5ql34",215,"92.csv","","null","resources/images/coin2.png","null","",NA,NA,NA,NA,""
"image-keyboard-response",357,281878,"0.0-4.115-0.115","r0hu8u71kr5ql34",215,"92.csv","","389.89999997615814","resources/trios/L4T4A2.jpg","38","restless",0.4,0.8,0.6,0.865540623933596,"false"
"image-keyboard-response",358,282285,"0.0-4.115-1.115","r0hu8u71kr5ql34",215,"92.csv","","null","resources/maskTrios/BT4B.jpg","null","",NA,NA,NA,NA,""
"image-keyboard-response",359,283492,"0.0-4.115-2.115","r0hu8u71kr5ql34",215,"92.csv","","null","resources/images/fishbone.png","null","",NA,NA,NA,NA,""
"image-keyboard-response",360,283784,"0.0-4.116-0.116","r0hu8u71kr5ql34",215,"92.csv","","290.7999999523163","resources/trios/L4T4A2.jpg","39","restless",0.4,0.8,0.6,0.789433446127522,"false"
"image-keyboard-response",361,284190,"0.0-4.116-1.116","r0hu8u71kr5ql34",215,"92.csv","","null","resources/maskTrios/BBA2.jpg","null","",NA,NA,NA,NA,""
"image-keyboard-response",362,285396,"0.0-4.116-2.116","r0hu8u71kr5ql34",215,"92.csv","","null","resources/images/fishbone.png","null","",NA,NA,NA,NA,""
"image-keyboard-response",363,285921,"0.0-4.117-0.117","r0hu8u71kr5ql34",215,"92.csv","","523.5","resources/trios/L4T4A2.jpg","37","restless",0.4,0.8,0.6,0.674562000291941,"false"
"image-keyboard-response",364,286324,"0.0-4.117-1.117","r0hu8u71kr5ql34",215,"92.csv","","null","resources/maskTrios/L4BB.jpg","null","",NA,NA,NA,NA,""
"image-keyboard-response",365,287529,"0.0-4.117-2.117","r0hu8u71kr5ql34",215,"92.csv","","null","resources/images/fishbone.png","null","",NA,NA,NA,NA,""
"image-keyboard-response",366,288398,"0.0-4.118-0.118","r0hu8u71kr5ql34",215,"92.csv","","867","resources/trios/L4T4A2.jpg","39","restless",0.4,0.7,0.7,0.926960784279862,"false"
"image-keyboard-response",367,288804,"0.0-4.118-1.118","r0hu8u71kr5ql34",215,"92.csv","","null","resources/maskTrios/BBA2.jpg","null","",NA,NA,NA,NA,""
"image-keyboard-response",368,290009,"0.0-4.118-2.118","r0hu8u71kr5ql34",215,"92.csv","","null","resources/images/fishbone.png","null","",NA,NA,NA,NA,""
"image-keyboard-response",369,290406,"0.0-4.119-0.119","r0hu8u71kr5ql34",215,"92.csv","","395.10000002384186","resources/trios/L4T4A2.jpg","37","restless",0.4,0.6,0.6,0.922986143729703,"false"
"image-keyboard-response",370,290809,"0.0-4.119-1.119","r0hu8u71kr5ql34",215,"92.csv","","null","resources/maskTrios/L4BB.jpg","null","",NA,NA,NA,NA,""
"image-keyboard-response",371,292015,"0.0-4.119-2.119","r0hu8u71kr5ql34",215,"92.csv","","null","resources/images/fishbone.png","null","",NA,NA,NA,NA,""
"image-keyboard-response",372,292445,"0.0-4.120-0.120","r0hu8u71kr5ql34",215,"92.csv","","429.3000000715256","resources/trios/L4T4A2.jpg","38","restless",0.4,0.6,0.6,0.0588691795371084,"true"
"image-keyboard-response",373,292852,"0.0-4.120-1.120","r0hu8u71kr5ql34",215,"92.csv","","null","resources/maskTrios/BT4B.jpg","null","",NA,NA,NA,NA,""
"image-keyboard-response",374,294057,"0.0-4.120-2.120","r0hu8u71kr5ql34",215,"92.csv","","null","resources/images/coin2.png","null","",NA,NA,NA,NA,""
"image-keyboard-response",375,294444,"0.0-4.121-0.121","r0hu8u71kr5ql34",215,"92.csv","","384.40000009536743","resources/trios/L4T4A2.jpg","39","restless",0.4,0.6,0.6,0.0709068866965989,"true"
"image-keyboard-response",376,294846,"0.0-4.121-1.121","r0hu8u71kr5ql34",215,"92.csv","","null","resources/maskTrios/BBA2.jpg","null","",NA,NA,NA,NA,""
"image-keyboard-response",377,296052,"0.0-4.121-2.121","r0hu8u71kr5ql34",215,"92.csv","","null","resources/images/coin2.png","null","",NA,NA,NA,NA,""
"image-keyboard-response",378,296330,"0.0-4.122-0.122","r0hu8u71kr5ql34",215,"92.csv","","276.1999999284744","resources/trios/L4T4A2.jpg","39","restless",0.4,0.5,0.6,0.00832873670792345,"true"
"image-keyboard-response",379,296734,"0.0-4.122-1.122","r0hu8u71kr5ql34",215,"92.csv","","null","resources/maskTrios/BBA2.jpg","null","",NA,NA,NA,NA,""
"image-keyboard-response",380,297940,"0.0-4.122-2.122","r0hu8u71kr5ql34",215,"92.csv","","null","resources/images/coin2.png","null","",NA,NA,NA,NA,""
"image-keyboard-response",381,298393,"0.0-4.123-0.123","r0hu8u71kr5ql34",215,"92.csv","","451.7000000476837","resources/trios/L4T4A2.jpg","39","restless",0.4,0.4,0.6,0.504364372053567,"true"
"image-keyboard-response",382,298798,"0.0-4.123-1.123","r0hu8u71kr5ql34",215,"92.csv","","null","resources/maskTrios/BBA2.jpg","null","",NA,NA,NA,NA,""
"image-keyboard-response",383,300004,"0.0-4.123-2.123","r0hu8u71kr5ql34",215,"92.csv","","null","resources/images/coin2.png","null","",NA,NA,NA,NA,""
"image-keyboard-response",384,300332,"0.0-4.124-0.124","r0hu8u71kr5ql34",215,"92.csv","","326.2999999523163","resources/trios/L4T4A2.jpg","38","restless",0.5,0.4,0.6,0.919321463823096,"false"
"image-keyboard-response",385,300734,"0.0-4.124-1.124","r0hu8u71kr5ql34",215,"92.csv","","null","resources/maskTrios/BT4B.jpg","null","",NA,NA,NA,NA,""
"image-keyboard-response",386,301940,"0.0-4.124-2.124","r0hu8u71kr5ql34",215,"92.csv","","null","resources/images/fishbone.png","null","",NA,NA,NA,NA,""
"image-keyboard-response",387,302350,"0.0-4.125-0.125","r0hu8u71kr5ql34",215,"92.csv","","408.2999999523163","resources/trios/L4T4A2.jpg","37","restless",0.6,0.4,0.6,0.420330962530355,"true"
"image-keyboard-response",388,302756,"0.0-4.125-1.125","r0hu8u71kr5ql34",215,"92.csv","","null","resources/maskTrios/L4BB.jpg","null","",NA,NA,NA,NA,""
"image-keyboard-response",389,303961,"0.0-4.125-2.125","r0hu8u71kr5ql34",215,"92.csv","","null","resources/images/coin2.png","null","",NA,NA,NA,NA,""
"image-keyboard-response",390,304402,"0.0-4.126-0.126","r0hu8u71kr5ql34",215,"92.csv","","439","resources/trios/L4T4A2.jpg","37","restless",0.6,0.4,0.6,0.928619468968154,"false"
"image-keyboard-response",391,304807,"0.0-4.126-1.126","r0hu8u71kr5ql34",215,"92.csv","","null","resources/maskTrios/L4BB.jpg","null","",NA,NA,NA,NA,""
"image-keyboard-response",392,306009,"0.0-4.126-2.126","r0hu8u71kr5ql34",215,"92.csv","","null","resources/images/fishbone.png","null","",NA,NA,NA,NA,""
"image-keyboard-response",393,306337,"0.0-4.127-0.127","r0hu8u71kr5ql34",215,"92.csv","","326.39999997615814","resources/trios/L4T4A2.jpg","39","restless",0.6,0.4,0.6,0.440273769511931,"true"
"image-keyboard-response",394,306739,"0.0-4.127-1.127","r0hu8u71kr5ql34",215,"92.csv","","null","resources/maskTrios/BBA2.jpg","null","",NA,NA,NA,NA,""
"image-keyboard-response",395,307943,"0.0-4.127-2.127","r0hu8u71kr5ql34",215,"92.csv","","null","resources/images/coin2.png","null","",NA,NA,NA,NA,""
"image-keyboard-response",396,308261,"0.0-4.128-0.128","r0hu8u71kr5ql34",215,"92.csv","","316.7999999523163","resources/trios/L4T4A2.jpg","39","restless",0.6,0.4,0.6,0.52097239677847,"true"
"image-keyboard-response",397,308665,"0.0-4.128-1.128","r0hu8u71kr5ql34",215,"92.csv","","null","resources/maskTrios/BBA2.jpg","null","",NA,NA,NA,NA,""
"image-keyboard-response",398,309870,"0.0-4.128-2.128","r0hu8u71kr5ql34",215,"92.csv","","null","resources/images/coin2.png","null","",NA,NA,NA,NA,""
"image-keyboard-response",399,310173,"0.0-4.129-0.129","r0hu8u71kr5ql34",215,"92.csv","","302","resources/trios/L4T4A2.jpg","39","restless",0.6,0.4,0.5,0.155083967159781,"true"
"image-keyboard-response",400,310580,"0.0-4.129-1.129","r0hu8u71kr5ql34",215,"92.csv","","null","resources/maskTrios/BBA2.jpg","null","",NA,NA,NA,NA,""
"image-keyboard-response",401,311786,"0.0-4.129-2.129","r0hu8u71kr5ql34",215,"92.csv","","null","resources/images/coin2.png","null","",NA,NA,NA,NA,""
"image-keyboard-response",402,312068,"0.0-4.130-0.130","r0hu8u71kr5ql34",215,"92.csv","","280.89999997615814","resources/trios/L4T4A2.jpg","39","restless",0.6,0.4,0.5,0.312533152101275,"true"
"image-keyboard-response",403,312472,"0.0-4.130-1.130","r0hu8u71kr5ql34",215,"92.csv","","null","resources/maskTrios/BBA2.jpg","null","",NA,NA,NA,NA,""
"image-keyboard-response",404,313678,"0.0-4.130-2.130","r0hu8u71kr5ql34",215,"92.csv","","null","resources/images/coin2.png","null","",NA,NA,NA,NA,""
"image-keyboard-response",405,314222,"0.0-4.131-0.131","r0hu8u71kr5ql34",215,"92.csv","","541.8000000715256","resources/trios/L4T4A2.jpg","37","restless",0.6,0.4,0.5,0.131966440766083,"true"
"image-keyboard-response",406,314628,"0.0-4.131-1.131","r0hu8u71kr5ql34",215,"92.csv","","null","resources/maskTrios/L4BB.jpg","null","",NA,NA,NA,NA,""
"image-keyboard-response",407,315833,"0.0-4.131-2.131","r0hu8u71kr5ql34",215,"92.csv","","null","resources/images/coin2.png","null","",NA,NA,NA,NA,""
"image-keyboard-response",408,316241,"0.0-4.132-0.132","r0hu8u71kr5ql34",215,"92.csv","","406.60000002384186","resources/trios/L4T4A2.jpg","37","restless",0.6,0.4,0.5,0.775095158969249,"false"
"image-keyboard-response",409,316644,"0.0-4.132-1.132","r0hu8u71kr5ql34",215,"92.csv","","null","resources/maskTrios/L4BB.jpg","null","",NA,NA,NA,NA,""
"image-keyboard-response",410,317849,"0.0-4.132-2.132","r0hu8u71kr5ql34",215,"92.csv","","null","resources/images/fishbone.png","null","",NA,NA,NA,NA,""
"image-keyboard-response",411,318155,"0.0-4.133-0.133","r0hu8u71kr5ql34",215,"92.csv","","304.60000002384186","resources/trios/L4T4A2.jpg","38","restless",0.6,0.4,0.5,0.236805649189295,"true"
"image-keyboard-response",412,318558,"0.0-4.133-1.133","r0hu8u71kr5ql34",215,"92.csv","","null","resources/maskTrios/BT4B.jpg","null","",NA,NA,NA,NA,""
"image-keyboard-response",413,319763,"0.0-4.133-2.133","r0hu8u71kr5ql34",215,"92.csv","","null","resources/images/coin2.png","null","",NA,NA,NA,NA,""
"image-keyboard-response",414,320053,"0.0-4.134-0.134","r0hu8u71kr5ql34",215,"92.csv","","288.10000002384186","resources/trios/L4T4A2.jpg","38","restless",0.6,0.4,0.5,0.568655493777663,"false"
"image-keyboard-response",415,320457,"0.0-4.134-1.134","r0hu8u71kr5ql34",215,"92.csv","","null","resources/maskTrios/BT4B.jpg","null","",NA,NA,NA,NA,""
"image-keyboard-response",416,321662,"0.0-4.134-2.134","r0hu8u71kr5ql34",215,"92.csv","","null","resources/images/fishbone.png","null","",NA,NA,NA,NA,""
"image-keyboard-response",417,322019,"0.0-4.135-0.135","r0hu8u71kr5ql34",215,"92.csv","","355","resources/trios/L4T4A2.jpg","39","restless",0.6,0.4,0.5,0.701062035322985,"false"
"image-keyboard-response",418,322425,"0.0-4.135-1.135","r0hu8u71kr5ql34",215,"92.csv","","null","resources/maskTrios/BBA2.jpg","null","",NA,NA,NA,NA,""
"image-keyboard-response",419,323630,"0.0-4.135-2.135","r0hu8u71kr5ql34",215,"92.csv","","null","resources/images/fishbone.png","null","",NA,NA,NA,NA,""
"image-keyboard-response",420,323941,"0.0-4.136-0.136","r0hu8u71kr5ql34",215,"92.csv","","309.60000002384186","resources/trios/L4T4A2.jpg","39","restless",0.6,0.4,0.5,0.929684099861236,"false"
"image-keyboard-response",421,324344,"0.0-4.136-1.136","r0hu8u71kr5ql34",215,"92.csv","","null","resources/maskTrios/BBA2.jpg","null","",NA,NA,NA,NA,""
"image-keyboard-response",422,325550,"0.0-4.136-2.136","r0hu8u71kr5ql34",215,"92.csv","","null","resources/images/fishbone.png","null","",NA,NA,NA,NA,""
"image-keyboard-response",423,325894,"0.0-4.137-0.137","r0hu8u71kr5ql34",215,"92.csv","","342.1999999284744","resources/trios/L4T4A2.jpg","37","restless",0.6,0.4,0.5,0.847144104492647,"false"
"image-keyboard-response",424,326297,"0.0-4.137-1.137","r0hu8u71kr5ql34",215,"92.csv","","null","resources/maskTrios/L4BB.jpg","null","",NA,NA,NA,NA,""
"image-keyboard-response",425,327502,"0.0-4.137-2.137","r0hu8u71kr5ql34",215,"92.csv","","null","resources/images/fishbone.png","null","",NA,NA,NA,NA,""
"image-keyboard-response",426,327879,"0.0-4.138-0.138","r0hu8u71kr5ql34",215,"92.csv","","375.10000002384186","resources/trios/L4T4A2.jpg","38","restless",0.6,0.4,0.5,0.315594458450107,"true"
"image-keyboard-response",427,328281,"0.0-4.138-1.138","r0hu8u71kr5ql34",215,"92.csv","","null","resources/maskTrios/BT4B.jpg","null","",NA,NA,NA,NA,""
"image-keyboard-response",428,329485,"0.0-4.138-2.138","r0hu8u71kr5ql34",215,"92.csv","","null","resources/images/coin2.png","null","",NA,NA,NA,NA,""
"image-keyboard-response",429,329984,"0.0-4.139-0.139","r0hu8u71kr5ql34",215,"92.csv","","497.89999997615814","resources/trios/L4T4A2.jpg","38","restless",0.6,0.5,0.5,0.0128158378325174,"true"
"image-keyboard-response",430,330387,"0.0-4.139-1.139","r0hu8u71kr5ql34",215,"92.csv","","null","resources/maskTrios/BT4B.jpg","null","",NA,NA,NA,NA,""
"image-keyboard-response",431,331593,"0.0-4.139-2.139","r0hu8u71kr5ql34",215,"92.csv","","null","resources/images/coin2.png","null","",NA,NA,NA,NA,""
"image-keyboard-response",432,332001,"0.0-4.140-0.140","r0hu8u71kr5ql34",215,"92.csv","","407.3000000715256","resources/trios/L4T4A2.jpg","39","restless",0.6,0.5,0.5,0.854092668860236,"false"
"image-keyboard-response",433,332403,"0.0-4.140-1.140","r0hu8u71kr5ql34",215,"92.csv","","null","resources/maskTrios/BBA2.jpg","null","",NA,NA,NA,NA,""
"image-keyboard-response",434,333609,"0.0-4.140-2.140","r0hu8u71kr5ql34",215,"92.csv","","null","resources/images/fishbone.png","null","",NA,NA,NA,NA,""
"image-keyboard-response",435,333964,"0.0-4.141-0.141","r0hu8u71kr5ql34",215,"92.csv","","353.5","resources/trios/L4T4A2.jpg","37","restless",0.6,0.5,0.5,0.850019401867528,"false"
"image-keyboard-response",436,334366,"0.0-4.141-1.141","r0hu8u71kr5ql34",215,"92.csv","","null","resources/maskTrios/L4BB.jpg","null","",NA,NA,NA,NA,""
"image-keyboard-response",437,335571,"0.0-4.141-2.141","r0hu8u71kr5ql34",215,"92.csv","","null","resources/images/fishbone.png","null","",NA,NA,NA,NA,""
"image-keyboard-response",438,335958,"0.0-4.142-0.142","r0hu8u71kr5ql34",215,"92.csv","","384.6999999284744","resources/trios/L4T4A2.jpg","38","restless",0.6,0.5,0.5,0.103242166153912,"true"
"image-keyboard-response",439,336362,"0.0-4.142-1.142","r0hu8u71kr5ql34",215,"92.csv","","null","resources/maskTrios/BT4B.jpg","null","",NA,NA,NA,NA,""
"image-keyboard-response",440,337566,"0.0-4.142-2.142","r0hu8u71kr5ql34",215,"92.csv","","null","resources/images/coin2.png","null","",NA,NA,NA,NA,""
"image-keyboard-response",441,337854,"0.0-4.143-0.143","r0hu8u71kr5ql34",215,"92.csv","","286.60000002384186","resources/trios/L4T4A2.jpg","38","restless",0.6,0.5,0.5,0.937211162399474,"false"
"image-keyboard-response",442,338259,"0.0-4.143-1.143","r0hu8u71kr5ql34",215,"92.csv","","null","resources/maskTrios/BT4B.jpg","null","",NA,NA,NA,NA,""
"image-keyboard-response",443,339465,"0.0-4.143-2.143","r0hu8u71kr5ql34",215,"92.csv","","null","resources/images/fishbone.png","null","",NA,NA,NA,NA,""
"image-keyboard-response",444,339615,"0.0-4.144-0.144","r0hu8u71kr5ql34",215,"92.csv","","148.39999997615814","resources/trios/L4T4A2.jpg","39","restless",0.6,0.5,0.5,0.966702058323909,"false"
"image-keyboard-response",445,340019,"0.0-4.144-1.144","r0hu8u71kr5ql34",215,"92.csv","","null","resources/maskTrios/BBA2.jpg","null","",NA,NA,NA,NA,""
"image-keyboard-response",446,341225,"0.0-4.144-2.144","r0hu8u71kr5ql34",215,"92.csv","","null","resources/images/fishbone.png","null","",NA,NA,NA,NA,""
"image-keyboard-response",447,341532,"0.0-4.145-0.145","r0hu8u71kr5ql34",215,"92.csv","","306","resources/trios/L4T4A2.jpg","39","restless",0.6,0.4,0.5,0.440626912768775,"true"
"image-keyboard-response",448,341934,"0.0-4.145-1.145","r0hu8u71kr5ql34",215,"92.csv","","null","resources/maskTrios/BBA2.jpg","null","",NA,NA,NA,NA,""
"image-keyboard-response",449,343139,"0.0-4.145-2.145","r0hu8u71kr5ql34",215,"92.csv","","null","resources/images/coin2.png","null","",NA,NA,NA,NA,""
"image-keyboard-response",450,343547,"0.0-4.146-0.146","r0hu8u71kr5ql34",215,"92.csv","","406.3000000715256","resources/trios/L4T4A2.jpg","39","restless",0.6,0.4,0.5,0.274525863137524,"true"
"image-keyboard-response",451,343955,"0.0-4.146-1.146","r0hu8u71kr5ql34",215,"92.csv","","null","resources/maskTrios/BBA2.jpg","null","",NA,NA,NA,NA,""
"image-keyboard-response",452,345161,"0.0-4.146-2.146","r0hu8u71kr5ql34",215,"92.csv","","null","resources/images/coin2.png","null","",NA,NA,NA,NA,""
"image-keyboard-response",453,345523,"0.0-4.147-0.147","r0hu8u71kr5ql34",215,"92.csv","","361","resources/trios/L4T4A2.jpg","39","restless",0.6,0.4,0.5,0.870230751849039,"false"
"image-keyboard-response",454,345929,"0.0-4.147-1.147","r0hu8u71kr5ql34",215,"92.csv","","null","resources/maskTrios/BBA2.jpg","null","",NA,NA,NA,NA,""
"image-keyboard-response",455,347134,"0.0-4.147-2.147","r0hu8u71kr5ql34",215,"92.csv","","null","resources/images/fishbone.png","null","",NA,NA,NA,NA,""
"image-keyboard-response",456,347589,"0.0-4.148-0.148","r0hu8u71kr5ql34",215,"92.csv","","453.7000000476837","resources/trios/L4T4A2.jpg","39","restless",0.6,0.4,0.5,0.113933807192626,"true"
"image-keyboard-response",457,347993,"0.0-4.148-1.148","r0hu8u71kr5ql34",215,"92.csv","","null","resources/maskTrios/BBA2.jpg","null","",NA,NA,NA,NA,""
"image-keyboard-response",458,349198,"0.0-4.148-2.148","r0hu8u71kr5ql34",215,"92.csv","","null","resources/images/coin2.png","null","",NA,NA,NA,NA,""
"image-keyboard-response",459,349595,"0.0-4.149-0.149","r0hu8u71kr5ql34",215,"92.csv","","395.60000002384186","resources/trios/L4T4A2.jpg","39","restless",0.6,0.4,0.6,0.351877505909034,"true"
"image-keyboard-response",460,349998,"0.0-4.149-1.149","r0hu8u71kr5ql34",215,"92.csv","","null","resources/maskTrios/BBA2.jpg","null","",NA,NA,NA,NA,""
"image-keyboard-response",461,351203,"0.0-4.149-2.149","r0hu8u71kr5ql34",215,"92.csv","","null","resources/images/coin2.png","null","",NA,NA,NA,NA,""
"image-keyboard-response",462,351581,"0.0-4.150-0.150","r0hu8u71kr5ql34",215,"92.csv","","375.8000000715256","resources/trios/L4T4A2.jpg","39","restless",0.5,0.4,0.6,0.315633936798259,"true"
"image-keyboard-response",463,351987,"0.0-4.150-1.150","r0hu8u71kr5ql34",215,"92.csv","","null","resources/maskTrios/BBA2.jpg","null","",NA,NA,NA,NA,""
"image-keyboard-response",464,353191,"0.0-4.150-2.150","r0hu8u71kr5ql34",215,"92.csv","","null","resources/images/coin2.png","null","",NA,NA,NA,NA,""
"image-keyboard-response",465,353477,"0.0-4.151-0.151","r0hu8u71kr5ql34",215,"92.csv","","284.7999999523163","resources/trios/L4T4A2.jpg","39","restless",0.5,0.4,0.6,0.390537099973621,"true"
"image-keyboard-response",466,353879,"0.0-4.151-1.151","r0hu8u71kr5ql34",215,"92.csv","","null","resources/maskTrios/BBA2.jpg","null","",NA,NA,NA,NA,""
"image-keyboard-response",467,355083,"0.0-4.151-2.151","r0hu8u71kr5ql34",215,"92.csv","","null","resources/images/coin2.png","null","",NA,NA,NA,NA,""
"image-keyboard-response",468,355332,"0.0-4.152-0.152","r0hu8u71kr5ql34",215,"92.csv","","248.10000002384186","resources/trios/L4T4A2.jpg","39","restless",0.5,0.4,0.6,0.577109303085587,"true"
"image-keyboard-response",469,355737,"0.0-4.152-1.152","r0hu8u71kr5ql34",215,"92.csv","","null","resources/maskTrios/BBA2.jpg","null","",NA,NA,NA,NA,""
"image-keyboard-response",470,356941,"0.0-4.152-2.152","r0hu8u71kr5ql34",215,"92.csv","","null","resources/images/coin2.png","null","",NA,NA,NA,NA,""
"image-keyboard-response",471,357255,"0.0-4.153-0.153","r0hu8u71kr5ql34",215,"92.csv","","312.39999997615814","resources/trios/L4T4A2.jpg","39","restless",0.4,0.4,0.6,0.358419436961266,"true"
"image-keyboard-response",472,357660,"0.0-4.153-1.153","r0hu8u71kr5ql34",215,"92.csv","","null","resources/maskTrios/BBA2.jpg","null","",NA,NA,NA,NA,""
"image-keyboard-response",473,358864,"0.0-4.153-2.153","r0hu8u71kr5ql34",215,"92.csv","","null","resources/images/coin2.png","null","",NA,NA,NA,NA,""
"image-keyboard-response",474,359148,"0.0-4.154-0.154","r0hu8u71kr5ql34",215,"92.csv","","283.2000000476837","resources/trios/L4T4A2.jpg","39","restless",0.4,0.4,0.6,0.393631094851051,"true"
"image-keyboard-response",475,359551,"0.0-4.154-1.154","r0hu8u71kr5ql34",215,"92.csv","","null","resources/maskTrios/BBA2.jpg","null","",NA,NA,NA,NA,""
"image-keyboard-response",476,360755,"0.0-4.154-2.154","r0hu8u71kr5ql34",215,"92.csv","","null","resources/images/coin2.png","null","",NA,NA,NA,NA,""
"image-keyboard-response",477,361097,"0.0-4.155-0.155","r0hu8u71kr5ql34",215,"92.csv","","340.3000000715256","resources/trios/L4T4A2.jpg","39","restless",0.4,0.4,0.6,0.621992911594714,"false"
"image-keyboard-response",478,361501,"0.0-4.155-1.155","r0hu8u71kr5ql34",215,"92.csv","","null","resources/maskTrios/BBA2.jpg","null","",NA,NA,NA,NA,""
"image-keyboard-response",479,362702,"0.0-4.155-2.155","r0hu8u71kr5ql34",215,"92.csv","","null","resources/images/fishbone.png","null","",NA,NA,NA,NA,""
"image-keyboard-response",480,363119,"0.0-4.156-0.156","r0hu8u71kr5ql34",215,"92.csv","","416.5","resources/trios/L4T4A2.jpg","38","restless",0.4,0.4,0.6,0.983151123040058,"false"
"image-keyboard-response",481,363520,"0.0-4.156-1.156","r0hu8u71kr5ql34",215,"92.csv","","null","resources/maskTrios/BT4B.jpg","null","",NA,NA,NA,NA,""
"image-keyboard-response",482,364721,"0.0-4.156-2.156","r0hu8u71kr5ql34",215,"92.csv","","null","resources/images/fishbone.png","null","",NA,NA,NA,NA,""
"image-keyboard-response",483,365077,"0.0-4.157-0.157","r0hu8u71kr5ql34",215,"92.csv","","354.39999997615814","resources/trios/L4T4A2.jpg","37","restless",0.4,0.3,0.6,0.811179632712515,"false"
"image-keyboard-response",484,365477,"0.0-4.157-1.157","r0hu8u71kr5ql34",215,"92.csv","","null","resources/maskTrios/L4BB.jpg","null","",NA,NA,NA,NA,""
"image-keyboard-response",485,366681,"0.0-4.157-2.157","r0hu8u71kr5ql34",215,"92.csv","","null","resources/images/fishbone.png","null","",NA,NA,NA,NA,""
"image-keyboard-response",486,366904,"0.0-4.158-0.158","r0hu8u71kr5ql34",215,"92.csv","","221.70000004768372","resources/trios/L4T4A2.jpg","39","restless",0.4,0.3,0.6,0.576640744543754,"true"
"image-keyboard-response",487,367309,"0.0-4.158-1.158","r0hu8u71kr5ql34",215,"92.csv","","null","resources/maskTrios/BBA2.jpg","null","",NA,NA,NA,NA,""
"image-keyboard-response",488,368514,"0.0-4.158-2.158","r0hu8u71kr5ql34",215,"92.csv","","null","resources/images/coin2.png","null","",NA,NA,NA,NA,""
"image-keyboard-response",489,368607,"0.0-4.159-0.159","r0hu8u71kr5ql34",215,"92.csv","","91.40000009536743","resources/trios/L4T4A2.jpg","39","restless",0.4,0.3,0.6,0.934555610991329,"false"
"image-keyboard-response",490,369011,"0.0-4.159-1.159","r0hu8u71kr5ql34",215,"92.csv","","null","resources/maskTrios/BBA2.jpg","null","",NA,NA,NA,NA,""
"image-keyboard-response",491,370215,"0.0-4.159-2.159","r0hu8u71kr5ql34",215,"92.csv","","null","resources/images/fishbone.png","null","",NA,NA,NA,NA,""
"image-keyboard-response",492,370580,"0.0-4.160-0.160","r0hu8u71kr5ql34",215,"92.csv","","364.10000002384186","resources/trios/L4T4A2.jpg","38","restless",0.4,0.3,0.6,0.331783992987794,"false"
"image-keyboard-response",493,370982,"0.0-4.160-1.160","r0hu8u71kr5ql34",215,"92.csv","","null","resources/maskTrios/BT4B.jpg","null","",NA,NA,NA,NA,""
"image-keyboard-response",494,372187,"0.0-4.160-2.160","r0hu8u71kr5ql34",215,"92.csv","","null","resources/images/fishbone.png","null","",NA,NA,NA,NA,""
"image-keyboard-response",495,372442,"0.0-4.161-0.161","r0hu8u71kr5ql34",215,"92.csv","","253.20000004768372","resources/trios/L4T4A2.jpg","37","restless",0.4,0.3,0.6,0.680242607871447,"false"
"image-keyboard-response",496,372844,"0.0-4.161-1.161","r0hu8u71kr5ql34",215,"92.csv","","null","resources/maskTrios/L4BB.jpg","null","",NA,NA,NA,NA,""
"image-keyboard-response",497,374047,"0.0-4.161-2.161","r0hu8u71kr5ql34",215,"92.csv","","null","resources/images/fishbone.png","null","",NA,NA,NA,NA,""
"image-keyboard-response",498,374427,"0.0-4.162-0.162","r0hu8u71kr5ql34",215,"92.csv","","377.60000002384186","resources/trios/L4T4A2.jpg","38","restless",0.4,0.3,0.6,0.819871788200458,"false"
"image-keyboard-response",499,374831,"0.0-4.162-1.162","r0hu8u71kr5ql34",215,"92.csv","","null","resources/maskTrios/BT4B.jpg","null","",NA,NA,NA,NA,""
"image-keyboard-response",500,376036,"0.0-4.162-2.162","r0hu8u71kr5ql34",215,"92.csv","","null","resources/images/fishbone.png","null","",NA,NA,NA,NA,""
"image-keyboard-response",501,376118,"0.0-4.163-0.163","r0hu8u71kr5ql34",215,"92.csv","","79.89999997615814","resources/trios/L4T4A2.jpg","39","restless",0.4,0.3,0.6,0.780940968866282,"false"
"image-keyboard-response",502,376521,"0.0-4.163-1.163","r0hu8u71kr5ql34",215,"92.csv","","null","resources/maskTrios/BBA2.jpg","null","",NA,NA,NA,NA,""
"image-keyboard-response",503,377726,"0.0-4.163-2.163","r0hu8u71kr5ql34",215,"92.csv","","null","resources/images/fishbone.png","null","",NA,NA,NA,NA,""
"image-keyboard-response",504,377806,"0.0-4.164-0.164","r0hu8u71kr5ql34",215,"92.csv","","78.60000002384186","resources/trios/L4T4A2.jpg","39","restless",0.4,0.3,0.6,0.0050544619316899,"true"
"image-keyboard-response",505,378211,"0.0-4.164-1.164","r0hu8u71kr5ql34",215,"92.csv","","null","resources/maskTrios/BBA2.jpg","null","",NA,NA,NA,NA,""
"image-keyboard-response",506,379416,"0.0-4.164-2.164","r0hu8u71kr5ql34",215,"92.csv","","null","resources/images/coin2.png","null","",NA,NA,NA,NA,""
"image-keyboard-response",507,379525,"0.0-4.165-0.165","r0hu8u71kr5ql34",215,"92.csv","","107.30000007152557","resources/trios/L4T4A2.jpg","39","restless",0.4,0.3,0.6,0.595070628804484,"true"
"image-keyboard-response",508,379928,"0.0-4.165-1.165","r0hu8u71kr5ql34",215,"92.csv","","null","resources/maskTrios/BBA2.jpg","null","",NA,NA,NA,NA,""
"image-keyboard-response",509,381133,"0.0-4.165-2.165","r0hu8u71kr5ql34",215,"92.csv","","null","resources/images/coin2.png","null","",NA,NA,NA,NA,""
"image-keyboard-response",510,381158,"0.0-4.166-0.166","r0hu8u71kr5ql34",215,"92.csv","","23","resources/trios/L4T4A2.jpg","39","restless",0.3,0.3,0.6,0.991588117692502,"false"
"image-keyboard-response",511,381565,"0.0-4.166-1.166","r0hu8u71kr5ql34",215,"92.csv","","null","resources/maskTrios/BBA2.jpg","null","",NA,NA,NA,NA,""
"image-keyboard-response",512,382770,"0.0-4.166-2.166","r0hu8u71kr5ql34",215,"92.csv","","null","resources/images/fishbone.png","null","",NA,NA,NA,NA,""
"image-keyboard-response",513,383060,"0.0-4.167-0.167","r0hu8u71kr5ql34",215,"92.csv","","288.5","resources/trios/L4T4A2.jpg","37","restless",0.3,0.3,0.6,0.0462353287374186,"true"
"image-keyboard-response",514,383463,"0.0-4.167-1.167","r0hu8u71kr5ql34",215,"92.csv","","null","resources/maskTrios/L4BB.jpg","null","",NA,NA,NA,NA,""
"image-keyboard-response",515,384668,"0.0-4.167-2.167","r0hu8u71kr5ql34",215,"92.csv","","null","resources/images/coin2.png","null","",NA,NA,NA,NA,""
"image-keyboard-response",516,384875,"0.0-4.168-0.168","r0hu8u71kr5ql34",215,"92.csv","","205.5","resources/trios/L4T4A2.jpg","37","restless",0.3,0.3,0.6,0.406256912506955,"false"
"image-keyboard-response",517,385281,"0.0-4.168-1.168","r0hu8u71kr5ql34",215,"92.csv","","null","resources/maskTrios/L4BB.jpg","null","",NA,NA,NA,NA,""
"image-keyboard-response",518,386486,"0.0-4.168-2.168","r0hu8u71kr5ql34",215,"92.csv","","null","resources/images/fishbone.png","null","",NA,NA,NA,NA,""
"image-keyboard-response",519,386751,"0.0-4.169-0.169","r0hu8u71kr5ql34",215,"92.csv","","262.7000000476837","resources/trios/L4T4A2.jpg","38","restless",0.2,0.3,0.6,0.976532400714851,"false"
"image-keyboard-response",520,387153,"0.0-4.169-1.169","r0hu8u71kr5ql34",215,"92.csv","","null","resources/maskTrios/BT4B.jpg","null","",NA,NA,NA,NA,""
"image-keyboard-response",521,388358,"0.0-4.169-2.169","r0hu8u71kr5ql34",215,"92.csv","","null","resources/images/fishbone.png","null","",NA,NA,NA,NA,""
"image-keyboard-response",522,388604,"0.0-4.170-0.170","r0hu8u71kr5ql34",215,"92.csv","","244.39999997615814","resources/trios/L4T4A2.jpg","38","restless",0.2,0.3,0.6,0.572905157076982,"false"
"image-keyboard-response",523,389009,"0.0-4.170-1.170","r0hu8u71kr5ql34",215,"92.csv","","null","resources/maskTrios/BT4B.jpg","null","",NA,NA,NA,NA,""
"image-keyboard-response",524,390214,"0.0-4.170-2.170","r0hu8u71kr5ql34",215,"92.csv","","null","resources/images/fishbone.png","null","",NA,NA,NA,NA,""
"image-keyboard-response",525,390869,"0.0-4.171-0.171","r0hu8u71kr5ql34",215,"92.csv","","653.6000000238419","resources/trios/L4T4A2.jpg","37","restless",0.2,0.3,0.6,0.616859638157011,"false"
"image-keyboard-response",526,391275,"0.0-4.171-1.171","r0hu8u71kr5ql34",215,"92.csv","","null","resources/maskTrios/L4BB.jpg","null","",NA,NA,NA,NA,""
"image-keyboard-response",527,392480,"0.0-4.171-2.171","r0hu8u71kr5ql34",215,"92.csv","","null","resources/images/fishbone.png","null","",NA,NA,NA,NA,""
"image-keyboard-response",528,392752,"0.0-4.172-0.172","r0hu8u71kr5ql34",215,"92.csv","","269.89999997615814","resources/trios/L4T4A2.jpg","39","restless",0.2,0.3,0.6,0.265773262811148,"true"
"image-keyboard-response",529,393157,"0.0-4.172-1.172","r0hu8u71kr5ql34",215,"92.csv","","null","resources/maskTrios/BBA2.jpg","null","",NA,NA,NA,NA,""
"image-keyboard-response",530,394362,"0.0-4.172-2.172","r0hu8u71kr5ql34",215,"92.csv","","null","resources/images/coin2.png","null","",NA,NA,NA,NA,""
"image-keyboard-response",531,394525,"0.0-4.173-0.173","r0hu8u71kr5ql34",215,"92.csv","","161.5","resources/trios/L4T4A2.jpg","39","restless",0.2,0.3,0.6,0.983038529389078,"false"
"image-keyboard-response",532,394927,"0.0-4.173-1.173","r0hu8u71kr5ql34",215,"92.csv","","null","resources/maskTrios/BBA2.jpg","null","",NA,NA,NA,NA,""
"image-keyboard-response",533,396133,"0.0-4.173-2.173","r0hu8u71kr5ql34",215,"92.csv","","null","resources/images/fishbone.png","null","",NA,NA,NA,NA,""
"image-keyboard-response",534,396193,"0.0-4.174-0.174","r0hu8u71kr5ql34",215,"92.csv","","58.10000002384186","resources/trios/L4T4A2.jpg","39","restless",0.1,0.3,0.6,0.886555104225433,"false"
"image-keyboard-response",535,396597,"0.0-4.174-1.174","r0hu8u71kr5ql34",215,"92.csv","","null","resources/maskTrios/BBA2.jpg","null","",NA,NA,NA,NA,""
"image-keyboard-response",536,397802,"0.0-4.174-2.174","r0hu8u71kr5ql34",215,"92.csv","","null","resources/images/fishbone.png","null","",NA,NA,NA,NA,""
"image-keyboard-response",537,398212,"0.0-4.175-0.175","r0hu8u71kr5ql34",215,"92.csv","","408.5","resources/trios/L4T4A2.jpg","37","restless",0.1,0.4,0.6,0.0468893257845491,"true"
"image-keyboard-response",538,398618,"0.0-4.175-1.175","r0hu8u71kr5ql34",215,"92.csv","","null","resources/maskTrios/L4BB.jpg","null","",NA,NA,NA,NA,""
"image-keyboard-response",539,399823,"0.0-4.175-2.175","r0hu8u71kr5ql34",215,"92.csv","","null","resources/images/coin2.png","null","",NA,NA,NA,NA,""
"image-keyboard-response",540,400110,"0.0-4.176-0.176","r0hu8u71kr5ql34",215,"92.csv","","285.7999999523163","resources/trios/L4T4A2.jpg","38","restless",0.1,0.4,0.6,0.732423754767077,"false"
"image-keyboard-response",541,400517,"0.0-4.176-1.176","r0hu8u71kr5ql34",215,"92.csv","","null","resources/maskTrios/BT4B.jpg","null","",NA,NA,NA,NA,""
"image-keyboard-response",542,401722,"0.0-4.176-2.176","r0hu8u71kr5ql34",215,"92.csv","","null","resources/images/fishbone.png","null","",NA,NA,NA,NA,""
"image-keyboard-response",543,402018,"0.0-4.177-0.177","r0hu8u71kr5ql34",215,"92.csv","","294.6999999284744","resources/trios/L4T4A2.jpg","39","restless",0.1,0.4,0.6,0.345896949508492,"true"
"image-keyboard-response",544,402420,"0.0-4.177-1.177","r0hu8u71kr5ql34",215,"92.csv","","null","resources/maskTrios/BBA2.jpg","null","",NA,NA,NA,NA,""
"image-keyboard-response",545,403626,"0.0-4.177-2.177","r0hu8u71kr5ql34",215,"92.csv","","null","resources/images/coin2.png","null","",NA,NA,NA,NA,""
"image-keyboard-response",546,403829,"0.0-4.178-0.178","r0hu8u71kr5ql34",215,"92.csv","","201.60000002384186","resources/trios/L4T4A2.jpg","39","restless",0.1,0.4,0.6,0.84092821480825,"false"
"image-keyboard-response",547,404234,"0.0-4.178-1.178","r0hu8u71kr5ql34",215,"92.csv","","null","resources/maskTrios/BBA2.jpg","null","",NA,NA,NA,NA,""
"image-keyboard-response",548,405439,"0.0-4.178-2.178","r0hu8u71kr5ql34",215,"92.csv","","null","resources/images/fishbone.png","null","",NA,NA,NA,NA,""
"image-keyboard-response",549,405722,"0.0-4.179-0.179","r0hu8u71kr5ql34",215,"92.csv","","281.60000002384186","resources/trios/L4T4A2.jpg","37","restless",0.1,0.4,0.7,0.889971518084466,"false"
"image-keyboard-response",550,406127,"0.0-4.179-1.179","r0hu8u71kr5ql34",215,"92.csv","","null","resources/maskTrios/L4BB.jpg","null","",NA,NA,NA,NA,""
"image-keyboard-response",551,407332,"0.0-4.179-2.179","r0hu8u71kr5ql34",215,"92.csv","","null","resources/images/fishbone.png","null","",NA,NA,NA,NA,""
"image-keyboard-response",552,407541,"0.0-4.180-0.180","r0hu8u71kr5ql34",215,"92.csv","","207","resources/trios/L4T4A2.jpg","38","restless",0.1,0.4,0.7,0.266956550201142,"true"
"image-keyboard-response",553,407946,"0.0-4.180-1.180","r0hu8u71kr5ql34",215,"92.csv","","null","resources/maskTrios/BT4B.jpg","null","",NA,NA,NA,NA,""
"image-keyboard-response",554,409151,"0.0-4.180-2.180","r0hu8u71kr5ql34",215,"92.csv","","null","resources/images/coin2.png","null","",NA,NA,NA,NA,""
"image-keyboard-response",555,409552,"0.0-4.181-0.181","r0hu8u71kr5ql34",215,"92.csv","","399.59999990463257","resources/trios/L4T4A2.jpg","38","restless",0.1,0.4,0.7,0.0165267749766871,"true"
"image-keyboard-response",556,409956,"0.0-4.181-1.181","r0hu8u71kr5ql34",215,"92.csv","","null","resources/maskTrios/BT4B.jpg","null","",NA,NA,NA,NA,""
"image-keyboard-response",557,411161,"0.0-4.181-2.181","r0hu8u71kr5ql34",215,"92.csv","","null","resources/images/coin2.png","null","",NA,NA,NA,NA,""
"image-keyboard-response",558,411412,"0.0-4.182-0.182","r0hu8u71kr5ql34",215,"92.csv","","249.5","resources/trios/L4T4A2.jpg","38","restless",0.1,0.4,0.7,0.0685224547894019,"true"
"image-keyboard-response",559,411817,"0.0-4.182-1.182","r0hu8u71kr5ql34",215,"92.csv","","null","resources/maskTrios/BT4B.jpg","null","",NA,NA,NA,NA,""
"image-keyboard-response",560,413022,"0.0-4.182-2.182","r0hu8u71kr5ql34",215,"92.csv","","null","resources/images/coin2.png","null","",NA,NA,NA,NA,""
"image-keyboard-response",561,413228,"0.0-4.183-0.183","r0hu8u71kr5ql34",215,"92.csv","","204.10000002384186","resources/trios/L4T4A2.jpg","38","restless",0.1,0.4,0.7,0.0829164771168236,"true"
"image-keyboard-response",562,413636,"0.0-4.183-1.183","r0hu8u71kr5ql34",215,"92.csv","","null","resources/maskTrios/BT4B.jpg","null","",NA,NA,NA,NA,""
"image-keyboard-response",563,414843,"0.0-4.183-2.183","r0hu8u71kr5ql34",215,"92.csv","","null","resources/images/coin2.png","null","",NA,NA,NA,NA,""
"image-keyboard-response",564,415216,"0.0-4.184-0.184","r0hu8u71kr5ql34",215,"92.csv","","371.7000000476837","resources/trios/L4T4A2.jpg","38","restless",0.2,0.4,0.8,0.862322469086445,"false"
"image-keyboard-response",565,415620,"0.0-4.184-1.184","r0hu8u71kr5ql34",215,"92.csv","","null","resources/maskTrios/BT4B.jpg","null","",NA,NA,NA,NA,""
"image-keyboard-response",566,416825,"0.0-4.184-2.184","r0hu8u71kr5ql34",215,"92.csv","","null","resources/images/fishbone.png","null","",NA,NA,NA,NA,""
"image-keyboard-response",567,417113,"0.0-4.185-0.185","r0hu8u71kr5ql34",215,"92.csv","","286.5","resources/trios/L4T4A2.jpg","39","restless",0.2,0.4,0.9,0.252787125562038,"true"
"image-keyboard-response",568,417518,"0.0-4.185-1.185","r0hu8u71kr5ql34",215,"92.csv","","null","resources/maskTrios/BBA2.jpg","null","",NA,NA,NA,NA,""
"image-keyboard-response",569,418724,"0.0-4.185-2.185","r0hu8u71kr5ql34",215,"92.csv","","null","resources/images/coin2.png","null","",NA,NA,NA,NA,""
"image-keyboard-response",570,419104,"0.0-4.186-0.186","r0hu8u71kr5ql34",215,"92.csv","","379.10000002384186","resources/trios/L4T4A2.jpg","39","restless",0.2,0.5,0.9,0.374544598048741,"true"
"image-keyboard-response",571,419507,"0.0-4.186-1.186","r0hu8u71kr5ql34",215,"92.csv","","null","resources/maskTrios/BBA2.jpg","null","",NA,NA,NA,NA,""
"image-keyboard-response",572,420713,"0.0-4.186-2.186","r0hu8u71kr5ql34",215,"92.csv","","null","resources/images/coin2.png","null","",NA,NA,NA,NA,""
"image-keyboard-response",573,421148,"0.0-4.187-0.187","r0hu8u71kr5ql34",215,"92.csv","","433.2000000476837","resources/trios/L4T4A2.jpg","39","restless",0.2,0.5,0.9,0.32384511898372,"true"
"image-keyboard-response",574,421550,"0.0-4.187-1.187","r0hu8u71kr5ql34",215,"92.csv","","null","resources/maskTrios/BBA2.jpg","null","",NA,NA,NA,NA,""
"image-keyboard-response",575,422755,"0.0-4.187-2.187","r0hu8u71kr5ql34",215,"92.csv","","null","resources/images/coin2.png","null","",NA,NA,NA,NA,""
"image-keyboard-response",576,423140,"0.0-4.188-0.188","r0hu8u71kr5ql34",215,"92.csv","","382.89999997615814","resources/trios/L4T4A2.jpg","39","restless",0.2,0.5,0.9,0.531672781458448,"true"
"image-keyboard-response",577,423545,"0.0-4.188-1.188","r0hu8u71kr5ql34",215,"92.csv","","null","resources/maskTrios/BBA2.jpg","null","",NA,NA,NA,NA,""
"image-keyboard-response",578,424750,"0.0-4.188-2.188","r0hu8u71kr5ql34",215,"92.csv","","null","resources/images/coin2.png","null","",NA,NA,NA,NA,""
"image-keyboard-response",579,425061,"0.0-4.189-0.189","r0hu8u71kr5ql34",215,"92.csv","","308.7999999523163","resources/trios/L4T4A2.jpg","39","restless",0.3,0.5,0.9,0.407124224614555,"true"
"image-keyboard-response",580,425465,"0.0-4.189-1.189","r0hu8u71kr5ql34",215,"92.csv","","null","resources/maskTrios/BBA2.jpg","null","",NA,NA,NA,NA,""
"image-keyboard-response",581,426670,"0.0-4.189-2.189","r0hu8u71kr5ql34",215,"92.csv","","null","resources/images/coin2.png","null","",NA,NA,NA,NA,""
"image-keyboard-response",582,426781,"0.0-4.190-0.190","r0hu8u71kr5ql34",215,"92.csv","","109","resources/trios/L4T4A2.jpg","39","restless",0.3,0.5,0.9,0.90784533526383,"false"
"image-keyboard-response",583,427183,"0.0-4.190-1.190","r0hu8u71kr5ql34",215,"92.csv","","null","resources/maskTrios/BBA2.jpg","null","",NA,NA,NA,NA,""
"image-keyboard-response",584,428388,"0.0-4.190-2.190","r0hu8u71kr5ql34",215,"92.csv","","null","resources/images/fishbone.png","null","",NA,NA,NA,NA,""
"image-keyboard-response",585,428809,"0.0-4.191-0.191","r0hu8u71kr5ql34",215,"92.csv","","419.39999997615814","resources/trios/L4T4A2.jpg","37","restless",0.3,0.5,0.9,0.54329853138648,"false"
"image-keyboard-response",586,429214,"0.0-4.191-1.191","r0hu8u71kr5ql34",215,"92.csv","","null","resources/maskTrios/L4BB.jpg","null","",NA,NA,NA,NA,""
"image-keyboard-response",587,430419,"0.0-4.191-2.191","r0hu8u71kr5ql34",215,"92.csv","","null","resources/images/fishbone.png","null","",NA,NA,NA,NA,""
"image-keyboard-response",588,430730,"0.0-4.192-0.192","r0hu8u71kr5ql34",215,"92.csv","","309.2999999523163","resources/trios/L4T4A2.jpg","38","restless",0.3,0.5,0.9,0.0390035908603816,"true"
"image-keyboard-response",589,431134,"0.0-4.192-1.192","r0hu8u71kr5ql34",215,"92.csv","","null","resources/maskTrios/BT4B.jpg","null","",NA,NA,NA,NA,""
"image-keyboard-response",590,432339,"0.0-4.192-2.192","r0hu8u71kr5ql34",215,"92.csv","","null","resources/images/coin2.png","null","",NA,NA,NA,NA,""
"image-keyboard-response",591,432769,"0.0-4.193-0.193","r0hu8u71kr5ql34",215,"92.csv","","427.60000002384186","resources/trios/L4T4A2.jpg","38","restless",0.3,0.4,0.8,0.0474865554681374,"true"
"image-keyboard-response",592,433171,"0.0-4.193-1.193","r0hu8u71kr5ql34",215,"92.csv","","null","resources/maskTrios/BT4B.jpg","null","",NA,NA,NA,NA,""
"image-keyboard-response",593,434374,"0.0-4.193-2.193","r0hu8u71kr5ql34",215,"92.csv","","null","resources/images/coin2.png","null","",NA,NA,NA,NA,""
"image-keyboard-response",594,434766,"0.0-4.194-0.194","r0hu8u71kr5ql34",215,"92.csv","","391.10000002384186","resources/trios/L4T4A2.jpg","38","restless",0.3,0.4,0.8,0.582515730532496,"false"
"image-keyboard-response",595,435171,"0.0-4.194-1.194","r0hu8u71kr5ql34",215,"92.csv","","null","resources/maskTrios/BT4B.jpg","null","",NA,NA,NA,NA,""
"image-keyboard-response",596,436376,"0.0-4.194-2.194","r0hu8u71kr5ql34",215,"92.csv","","null","resources/images/fishbone.png","null","",NA,NA,NA,NA,""
"image-keyboard-response",597,436660,"0.0-4.195-0.195","r0hu8u71kr5ql34",215,"92.csv","","281.40000009536743","resources/trios/L4T4A2.jpg","39","restless",0.4,0.4,0.8,0.726196476021216,"true"
"image-keyboard-response",598,437064,"0.0-4.195-1.195","r0hu8u71kr5ql34",215,"92.csv","","null","resources/maskTrios/BBA2.jpg","null","",NA,NA,NA,NA,""
"image-keyboard-response",599,438270,"0.0-4.195-2.195","r0hu8u71kr5ql34",215,"92.csv","","null","resources/images/coin2.png","null","",NA,NA,NA,NA,""
"image-keyboard-response",600,438581,"0.0-4.196-0.196","r0hu8u71kr5ql34",215,"92.csv","","309.39999997615814","resources/trios/L4T4A2.jpg","39","restless",0.4,0.4,0.8,0.829858613045709,"false"
"image-keyboard-response",601,438984,"0.0-4.196-1.196","r0hu8u71kr5ql34",215,"92.csv","","null","resources/maskTrios/BBA2.jpg","null","",NA,NA,NA,NA,""
"image-keyboard-response",602,440190,"0.0-4.196-2.196","r0hu8u71kr5ql34",215,"92.csv","","null","resources/images/fishbone.png","null","",NA,NA,NA,NA,""
"image-keyboard-response",603,440514,"0.0-4.197-0.197","r0hu8u71kr5ql34",215,"92.csv","","322.2999999523163","resources/trios/L4T4A2.jpg","39","restless",0.4,0.4,0.8,0.240103703440727,"true"
"image-keyboard-response",604,440916,"0.0-4.197-1.197","r0hu8u71kr5ql34",215,"92.csv","","null","resources/maskTrios/BBA2.jpg","null","",NA,NA,NA,NA,""
"image-keyboard-response",605,442120,"0.0-4.197-2.197","r0hu8u71kr5ql34",215,"92.csv","","null","resources/images/coin2.png","null","",NA,NA,NA,NA,""
"image-keyboard-response",606,442302,"0.0-4.198-0.198","r0hu8u71kr5ql34",215,"92.csv","","179.40000009536743","resources/trios/L4T4A2.jpg","37","restless",0.4,0.4,0.8,0.550930157997306,"false"
"image-keyboard-response",607,442708,"0.0-4.198-1.198","r0hu8u71kr5ql34",215,"92.csv","","null","resources/maskTrios/L4BB.jpg","null","",NA,NA,NA,NA,""
"image-keyboard-response",608,443912,"0.0-4.198-2.198","r0hu8u71kr5ql34",215,"92.csv","","null","resources/images/fishbone.png","null","",NA,NA,NA,NA,""
"image-keyboard-response",609,444174,"0.0-4.199-0.199","r0hu8u71kr5ql34",215,"92.csv","","260.10000002384186","resources/trios/L4T4A2.jpg","38","restless",0.4,0.4,0.9,0.788591889629159,"false"
"image-keyboard-response",610,444579,"0.0-4.199-1.199","r0hu8u71kr5ql34",215,"92.csv","","null","resources/maskTrios/BT4B.jpg","null","",NA,NA,NA,NA,""
"image-keyboard-response",611,445784,"0.0-4.199-2.199","r0hu8u71kr5ql34",215,"92.csv","","null","resources/images/fishbone.png","null","",NA,NA,NA,NA,""
