"trial_type","trial_index","time_elapsed","internal_node_id","subject","participantCode","walkNumber","success","rt","stimulus","key_press","test_part","leftProb","midProb","rightProb","generatedNum","correct"
"pavlovia",0,597,"0.0-0.0","3p94hy7tyajmgd9",264,"147.csv","","","","","",NA,NA,NA,NA,""
"fullscreen",1,4313,"0.0-1.0","3p94hy7tyajmgd9",264,"147.csv","true","","","","",NA,NA,NA,NA,""
"survey-html-form",2,4598,"0.0-2.0","3p94hy7tyajmgd9",264,"147.csv","","283.19999999995343","","","",NA,NA,NA,NA,""
"image-keyboard-response",3,11221,"0.0-3.0-0.0","3p94hy7tyajmgd9",264,"147.csv","","6622.09999999986","resources/images/parrot_nobg.png","13","",NA,NA,NA,NA,""
"image-keyboard-response",4,14228,"0.0-3.0-1.0","3p94hy7tyajmgd9",264,"147.csv","","null","resources/image_sets/111.png","null","",NA,NA,NA,NA,""
"image-keyboard-response",5,17130,"0.0-3.0-2.0","3p94hy7tyajmgd9",264,"147.csv","","2901","resources/image_sets/left_highlight.png","37","",NA,NA,NA,NA,""
"image-keyboard-response",6,20201,"0.0-3.0-3.0","3p94hy7tyajmgd9",264,"147.csv","","3070.5999999998603","resources/image_sets/mid_highlight.png","38","",NA,NA,NA,NA,""
"image-keyboard-response",7,20446,"0.0-3.0-4.0","3p94hy7tyajmgd9",264,"147.csv","","244.69999999995343","resources/image_sets/right_highlight.png","39","",NA,NA,NA,NA,""
"image-keyboard-response",8,23992,"0.0-3.0-5.0","3p94hy7tyajmgd9",264,"147.csv","","3545.1999999999534","resources/image_sets/111.png","13","",NA,NA,NA,NA,""
"image-keyboard-response",9,26538,"0.0-3.0-6.0","3p94hy7tyajmgd9",264,"147.csv","","2545.600000000093","resources/images/coin2.png","13","",NA,NA,NA,NA,""
"image-keyboard-response",10,27050,"0.0-3.0-7.0","3p94hy7tyajmgd9",264,"147.csv","","511.29999999981374","resources/images/fishbone.png","13","",NA,NA,NA,NA,""
"html-keyboard-response",11,27448,"0.0-3.0-8.0","3p94hy7tyajmgd9",264,"147.csv","","396.60000000009313","<p>You can track your coin total on the top right of your screen. </p><p>At the end of your journey you will be directed to a survey, so please click on the link before exiting the task</p><p>Press Enter to begin</p>","13","",NA,NA,NA,NA,""
"image-keyboard-response",12,28474,"0.0-4.0-0.0","3p94hy7tyajmgd9",264,"147.csv","","1025.6000000000931","resources/trios/L1T4A3.jpg","39","restless",0.9,0.3,0.7,0.369573439418921,"true"
"image-keyboard-response",13,28876,"0.0-4.0-1.0","3p94hy7tyajmgd9",264,"147.csv","","null","resources/maskTrios/BBA3.jpg","null","",NA,NA,NA,NA,""
"image-keyboard-response",14,30079,"0.0-4.0-2.0","3p94hy7tyajmgd9",264,"147.csv","","null","resources/images/coin2.png","null","",NA,NA,NA,NA,""
"image-keyboard-response",15,30670,"0.0-4.1-0.1","3p94hy7tyajmgd9",264,"147.csv","","589.6999999999534","resources/trios/L1T4A3.jpg","39","restless",0.8,0.3,0.7,0.712615010342522,"false"
"image-keyboard-response",16,31072,"0.0-4.1-1.1","3p94hy7tyajmgd9",264,"147.csv","","null","resources/maskTrios/BBA3.jpg","null","",NA,NA,NA,NA,""
"image-keyboard-response",17,32273,"0.0-4.1-2.1","3p94hy7tyajmgd9",264,"147.csv","","null","resources/images/fishbone.png","null","",NA,NA,NA,NA,""
"image-keyboard-response",18,33231,"0.0-4.2-0.2","3p94hy7tyajmgd9",264,"147.csv","","956.6000000000931","resources/trios/L1T4A3.jpg","37","restless",0.8,0.3,0.7,0.72490560490276,"true"
"image-keyboard-response",19,33632,"0.0-4.2-1.2","3p94hy7tyajmgd9",264,"147.csv","","null","resources/maskTrios/L1BB.jpg","null","",NA,NA,NA,NA,""
"image-keyboard-response",20,34834,"0.0-4.2-2.2","3p94hy7tyajmgd9",264,"147.csv","","null","resources/images/coin2.png","null","",NA,NA,NA,NA,""
"image-keyboard-response",21,34876,"0.0-4.3-0.3","3p94hy7tyajmgd9",264,"147.csv","","40.5","resources/trios/L1T4A3.jpg","39","restless",0.8,0.3,0.7,0.653903063977057,"true"
"image-keyboard-response",22,35277,"0.0-4.3-1.3","3p94hy7tyajmgd9",264,"147.csv","","null","resources/maskTrios/BBA3.jpg","null","",NA,NA,NA,NA,""
"image-keyboard-response",23,36490,"0.0-4.3-2.3","3p94hy7tyajmgd9",264,"147.csv","","null","resources/images/coin2.png","null","",NA,NA,NA,NA,""
"image-keyboard-response",24,36654,"0.0-4.4-0.4","3p94hy7tyajmgd9",264,"147.csv","","163","resources/trios/L1T4A3.jpg","37","restless",0.8,0.3,0.7,0.429625297295235,"true"
"image-keyboard-response",25,37056,"0.0-4.4-1.4","3p94hy7tyajmgd9",264,"147.csv","","null","resources/maskTrios/L1BB.jpg","null","",NA,NA,NA,NA,""
"image-keyboard-response",26,38258,"0.0-4.4-2.4","3p94hy7tyajmgd9",264,"147.csv","","null","resources/images/coin2.png","null","",NA,NA,NA,NA,""
"image-keyboard-response",27,38338,"0.0-4.5-0.5","3p94hy7tyajmgd9",264,"147.csv","","78.70000000018626","resources/trios/L1T4A3.jpg","37","restless",0.8,0.3,0.8,0.164579788117487,"true"
"image-keyboard-response",28,38739,"0.0-4.5-1.5","3p94hy7tyajmgd9",264,"147.csv","","null","resources/maskTrios/L1BB.jpg","null","",NA,NA,NA,NA,""
"image-keyboard-response",29,39941,"0.0-4.5-2.5","3p94hy7tyajmgd9",264,"147.csv","","null","resources/images/coin2.png","null","",NA,NA,NA,NA,""
"image-keyboard-response",30,40197,"0.0-4.6-0.6","3p94hy7tyajmgd9",264,"147.csv","","255.5","resources/trios/L1T4A3.jpg","39","restless",0.8,0.3,0.9,0.37846101846215,"true"
"image-keyboard-response",31,40605,"0.0-4.6-1.6","3p94hy7tyajmgd9",264,"147.csv","","null","resources/maskTrios/BBA3.jpg","null","",NA,NA,NA,NA,""
"image-keyboard-response",32,41808,"0.0-4.6-2.6","3p94hy7tyajmgd9",264,"147.csv","","null","resources/images/coin2.png","null","",NA,NA,NA,NA,""
"image-keyboard-response",33,41817,"0.0-4.7-0.7","3p94hy7tyajmgd9",264,"147.csv","","8.699999999953434","resources/trios/L1T4A3.jpg","38","restless",0.8,0.3,0.9,0.658261173864225,"false"
"image-keyboard-response",34,42219,"0.0-4.7-1.7","3p94hy7tyajmgd9",264,"147.csv","","null","resources/maskTrios/BT4B.jpg","null","",NA,NA,NA,NA,""
"image-keyboard-response",35,43420,"0.0-4.7-2.7","3p94hy7tyajmgd9",264,"147.csv","","null","resources/images/fishbone.png","null","",NA,NA,NA,NA,""
"image-keyboard-response",36,43442,"0.0-4.8-0.8","3p94hy7tyajmgd9",264,"147.csv","","21.5","resources/trios/L1T4A3.jpg","38","restless",0.8,0.3,0.9,0.729595245327039,"false"
"image-keyboard-response",37,43844,"0.0-4.8-1.8","3p94hy7tyajmgd9",264,"147.csv","","null","resources/maskTrios/BT4B.jpg","null","",NA,NA,NA,NA,""
"image-keyboard-response",38,45046,"0.0-4.8-2.8","3p94hy7tyajmgd9",264,"147.csv","","null","resources/images/fishbone.png","null","",NA,NA,NA,NA,""
"image-keyboard-response",39,45113,"0.0-4.9-0.9","3p94hy7tyajmgd9",264,"147.csv","","65.4000000001397","resources/trios/L1T4A3.jpg","38","restless",0.8,0.3,0.9,0.380611516742948,"false"
"image-keyboard-response",40,45514,"0.0-4.9-1.9","3p94hy7tyajmgd9",264,"147.csv","","null","resources/maskTrios/BT4B.jpg","null","",NA,NA,NA,NA,""
"image-keyboard-response",41,46716,"0.0-4.9-2.9","3p94hy7tyajmgd9",264,"147.csv","","null","resources/images/fishbone.png","null","",NA,NA,NA,NA,""
"image-keyboard-response",42,46754,"0.0-4.10-0.10","3p94hy7tyajmgd9",264,"147.csv","","37.5","resources/trios/L1T4A3.jpg","37","restless",0.7,0.3,0.9,0.588313339907653,"true"
"image-keyboard-response",43,47155,"0.0-4.10-1.10","3p94hy7tyajmgd9",264,"147.csv","","null","resources/maskTrios/L1BB.jpg","null","",NA,NA,NA,NA,""
"image-keyboard-response",44,48357,"0.0-4.10-2.10","3p94hy7tyajmgd9",264,"147.csv","","null","resources/images/coin2.png","null","",NA,NA,NA,NA,""
"image-keyboard-response",45,48621,"0.0-4.11-0.11","3p94hy7tyajmgd9",264,"147.csv","","263.30000000004657","resources/trios/L1T4A3.jpg","39","restless",0.7,0.3,0.9,0.676338930049328,"true"
"image-keyboard-response",46,49022,"0.0-4.11-1.11","3p94hy7tyajmgd9",264,"147.csv","","null","resources/maskTrios/BBA3.jpg","null","",NA,NA,NA,NA,""
"image-keyboard-response",47,50223,"0.0-4.11-2.11","3p94hy7tyajmgd9",264,"147.csv","","null","resources/images/coin2.png","null","",NA,NA,NA,NA,""
"image-keyboard-response",48,50409,"0.0-4.12-0.12","3p94hy7tyajmgd9",264,"147.csv","","184.19999999995343","resources/trios/L1T4A3.jpg","38","restless",0.6,0.3,0.9,0.15872231957187,"true"
"image-keyboard-response",49,50810,"0.0-4.12-1.12","3p94hy7tyajmgd9",264,"147.csv","","null","resources/maskTrios/BT4B.jpg","null","",NA,NA,NA,NA,""
"image-keyboard-response",50,52012,"0.0-4.12-2.12","3p94hy7tyajmgd9",264,"147.csv","","null","resources/images/coin2.png","null","",NA,NA,NA,NA,""
"image-keyboard-response",51,52074,"0.0-4.13-0.13","3p94hy7tyajmgd9",264,"147.csv","","60.89999999990687","resources/trios/L1T4A3.jpg","38","restless",0.6,0.3,0.9,0.989918829563478,"false"
"image-keyboard-response",52,52475,"0.0-4.13-1.13","3p94hy7tyajmgd9",264,"147.csv","","null","resources/maskTrios/BT4B.jpg","null","",NA,NA,NA,NA,""
"image-keyboard-response",53,53676,"0.0-4.13-2.13","3p94hy7tyajmgd9",264,"147.csv","","null","resources/images/fishbone.png","null","",NA,NA,NA,NA,""
"image-keyboard-response",54,53871,"0.0-4.14-0.14","3p94hy7tyajmgd9",264,"147.csv","","194","resources/trios/L1T4A3.jpg","37","restless",0.5,0.4,0.9,0.873247980829975,"false"
"image-keyboard-response",55,54272,"0.0-4.14-1.14","3p94hy7tyajmgd9",264,"147.csv","","null","resources/maskTrios/L1BB.jpg","null","",NA,NA,NA,NA,""
"image-keyboard-response",56,55474,"0.0-4.14-2.14","3p94hy7tyajmgd9",264,"147.csv","","null","resources/images/fishbone.png","null","",NA,NA,NA,NA,""
"image-keyboard-response",57,55828,"0.0-4.15-0.15","3p94hy7tyajmgd9",264,"147.csv","","353.19999999995343","resources/trios/L1T4A3.jpg","38","restless",0.5,0.5,0.9,0.670140572591309,"false"
"image-keyboard-response",58,56229,"0.0-4.15-1.15","3p94hy7tyajmgd9",264,"147.csv","","null","resources/maskTrios/BT4B.jpg","null","",NA,NA,NA,NA,""
"image-keyboard-response",59,57443,"0.0-4.15-2.15","3p94hy7tyajmgd9",264,"147.csv","","null","resources/images/fishbone.png","null","",NA,NA,NA,NA,""
"image-keyboard-response",60,57490,"0.0-4.16-0.16","3p94hy7tyajmgd9",264,"147.csv","","46.60000000009313","resources/trios/L1T4A3.jpg","38","restless",0.5,0.4,0.9,0.722064795562911,"false"
"image-keyboard-response",61,57892,"0.0-4.16-1.16","3p94hy7tyajmgd9",264,"147.csv","","null","resources/maskTrios/BT4B.jpg","null","",NA,NA,NA,NA,""
"image-keyboard-response",62,59094,"0.0-4.16-2.16","3p94hy7tyajmgd9",264,"147.csv","","null","resources/images/fishbone.png","null","",NA,NA,NA,NA,""
"image-keyboard-response",63,59160,"0.0-4.17-0.17","3p94hy7tyajmgd9",264,"147.csv","","65","resources/trios/L1T4A3.jpg","38","restless",0.6,0.4,0.9,0.44816844949345,"false"
"image-keyboard-response",64,59562,"0.0-4.17-1.17","3p94hy7tyajmgd9",264,"147.csv","","null","resources/maskTrios/BT4B.jpg","null","",NA,NA,NA,NA,""
"image-keyboard-response",65,60763,"0.0-4.17-2.17","3p94hy7tyajmgd9",264,"147.csv","","null","resources/images/fishbone.png","null","",NA,NA,NA,NA,""
"image-keyboard-response",66,60858,"0.0-4.18-0.18","3p94hy7tyajmgd9",264,"147.csv","","94.19999999995343","resources/trios/L1T4A3.jpg","39","restless",0.6,0.4,0.9,0.677187752366763,"true"
"image-keyboard-response",67,61259,"0.0-4.18-1.18","3p94hy7tyajmgd9",264,"147.csv","","null","resources/maskTrios/BBA3.jpg","null","",NA,NA,NA,NA,""
"image-keyboard-response",68,62460,"0.0-4.18-2.18","3p94hy7tyajmgd9",264,"147.csv","","null","resources/images/coin2.png","null","",NA,NA,NA,NA,""
"image-keyboard-response",69,62490,"0.0-4.19-0.19","3p94hy7tyajmgd9",264,"147.csv","","28.399999999906868","resources/trios/L1T4A3.jpg","39","restless",0.6,0.4,0.9,0.371895587032578,"true"
"image-keyboard-response",70,62892,"0.0-4.19-1.19","3p94hy7tyajmgd9",264,"147.csv","","null","resources/maskTrios/BBA3.jpg","null","",NA,NA,NA,NA,""
"image-keyboard-response",71,64094,"0.0-4.19-2.19","3p94hy7tyajmgd9",264,"147.csv","","null","resources/images/coin2.png","null","",NA,NA,NA,NA,""
"image-keyboard-response",72,64421,"0.0-4.20-0.20","3p94hy7tyajmgd9",264,"147.csv","","326.19999999995343","resources/trios/L1T4A3.jpg","37","restless",0.6,0.4,0.9,0.748762228811877,"false"
"image-keyboard-response",73,64822,"0.0-4.20-1.20","3p94hy7tyajmgd9",264,"147.csv","","null","resources/maskTrios/L1BB.jpg","null","",NA,NA,NA,NA,""
"image-keyboard-response",74,66025,"0.0-4.20-2.20","3p94hy7tyajmgd9",264,"147.csv","","null","resources/images/fishbone.png","null","",NA,NA,NA,NA,""
"image-keyboard-response",75,67529,"0.0-4.21-0.21","3p94hy7tyajmgd9",264,"147.csv","","1502.8999999999069","resources/trios/L1T4A3.jpg","38","restless",0.6,0.4,0.9,0.43039637697588,"false"
"image-keyboard-response",76,67943,"0.0-4.21-1.21","3p94hy7tyajmgd9",264,"147.csv","","null","resources/maskTrios/BT4B.jpg","null","",NA,NA,NA,NA,""
"image-keyboard-response",77,69145,"0.0-4.21-2.21","3p94hy7tyajmgd9",264,"147.csv","","null","resources/images/fishbone.png","null","",NA,NA,NA,NA,""
"image-keyboard-response",78,69287,"0.0-4.22-0.22","3p94hy7tyajmgd9",264,"147.csv","","141.19999999995343","resources/trios/L1T4A3.jpg","39","restless",0.6,0.4,0.9,0.159422250082131,"true"
"image-keyboard-response",79,69688,"0.0-4.22-1.22","3p94hy7tyajmgd9",264,"147.csv","","null","resources/maskTrios/BBA3.jpg","null","",NA,NA,NA,NA,""
"image-keyboard-response",80,70890,"0.0-4.22-2.22","3p94hy7tyajmgd9",264,"147.csv","","null","resources/images/coin2.png","null","",NA,NA,NA,NA,""
"image-keyboard-response",81,70921,"0.0-4.23-0.23","3p94hy7tyajmgd9",264,"147.csv","","30.0999999998603","resources/trios/L1T4A3.jpg","38","restless",0.6,0.4,0.9,0.817339709342617,"false"
"image-keyboard-response",82,71323,"0.0-4.23-1.23","3p94hy7tyajmgd9",264,"147.csv","","null","resources/maskTrios/BT4B.jpg","null","",NA,NA,NA,NA,""
"image-keyboard-response",83,72524,"0.0-4.23-2.23","3p94hy7tyajmgd9",264,"147.csv","","null","resources/images/fishbone.png","null","",NA,NA,NA,NA,""
"image-keyboard-response",84,72668,"0.0-4.24-0.24","3p94hy7tyajmgd9",264,"147.csv","","143.69999999995343","resources/trios/L1T4A3.jpg","38","restless",0.6,0.4,0.9,0.727197905342484,"false"
"image-keyboard-response",85,73070,"0.0-4.24-1.24","3p94hy7tyajmgd9",264,"147.csv","","null","resources/maskTrios/BT4B.jpg","null","",NA,NA,NA,NA,""
"image-keyboard-response",86,74271,"0.0-4.24-2.24","3p94hy7tyajmgd9",264,"147.csv","","null","resources/images/fishbone.png","null","",NA,NA,NA,NA,""
"image-keyboard-response",87,74485,"0.0-4.25-0.25","3p94hy7tyajmgd9",264,"147.csv","","212.79999999981374","resources/trios/L1T4A3.jpg","39","restless",0.6,0.4,0.9,0.409280422813495,"true"
"image-keyboard-response",88,74887,"0.0-4.25-1.25","3p94hy7tyajmgd9",264,"147.csv","","null","resources/maskTrios/BBA3.jpg","null","",NA,NA,NA,NA,""
"image-keyboard-response",89,76088,"0.0-4.25-2.25","3p94hy7tyajmgd9",264,"147.csv","","null","resources/images/coin2.png","null","",NA,NA,NA,NA,""
"image-keyboard-response",90,76419,"0.0-4.26-0.26","3p94hy7tyajmgd9",264,"147.csv","","330.4000000001397","resources/trios/L1T4A3.jpg","38","restless",0.6,0.4,0.8,0.702488207930604,"false"
"image-keyboard-response",91,76820,"0.0-4.26-1.26","3p94hy7tyajmgd9",264,"147.csv","","null","resources/maskTrios/BT4B.jpg","null","",NA,NA,NA,NA,""
"image-keyboard-response",92,78022,"0.0-4.26-2.26","3p94hy7tyajmgd9",264,"147.csv","","null","resources/images/fishbone.png","null","",NA,NA,NA,NA,""
"image-keyboard-response",93,78127,"0.0-4.27-0.27","3p94hy7tyajmgd9",264,"147.csv","","104","resources/trios/L1T4A3.jpg","37","restless",0.5,0.4,0.8,0.908515313611729,"false"
"image-keyboard-response",94,78528,"0.0-4.27-1.27","3p94hy7tyajmgd9",264,"147.csv","","null","resources/maskTrios/L1BB.jpg","null","",NA,NA,NA,NA,""
"image-keyboard-response",95,79730,"0.0-4.27-2.27","3p94hy7tyajmgd9",264,"147.csv","","null","resources/images/fishbone.png","null","",NA,NA,NA,NA,""
"image-keyboard-response",96,80002,"0.0-4.28-0.28","3p94hy7tyajmgd9",264,"147.csv","","271.30000000004657","resources/trios/L1T4A3.jpg","39","restless",0.5,0.4,0.8,0.1804751491607,"true"
"image-keyboard-response",97,80404,"0.0-4.28-1.28","3p94hy7tyajmgd9",264,"147.csv","","null","resources/maskTrios/BBA3.jpg","null","",NA,NA,NA,NA,""
"image-keyboard-response",98,81605,"0.0-4.28-2.28","3p94hy7tyajmgd9",264,"147.csv","","null","resources/images/coin2.png","null","",NA,NA,NA,NA,""
"image-keyboard-response",99,81739,"0.0-4.29-0.29","3p94hy7tyajmgd9",264,"147.csv","","133.20000000018626","resources/trios/L1T4A3.jpg","39","restless",0.5,0.4,0.8,0.430511964283593,"true"
"image-keyboard-response",100,82140,"0.0-4.29-1.29","3p94hy7tyajmgd9",264,"147.csv","","null","resources/maskTrios/BBA3.jpg","null","",NA,NA,NA,NA,""
"image-keyboard-response",101,83341,"0.0-4.29-2.29","3p94hy7tyajmgd9",264,"147.csv","","null","resources/images/coin2.png","null","",NA,NA,NA,NA,""
"image-keyboard-response",102,83581,"0.0-4.30-0.30","3p94hy7tyajmgd9",264,"147.csv","","239.10000000009313","resources/trios/L1T4A3.jpg","39","restless",0.5,0.4,0.7,0.648542665740011,"true"
"image-keyboard-response",103,83982,"0.0-4.30-1.30","3p94hy7tyajmgd9",264,"147.csv","","null","resources/maskTrios/BBA3.jpg","null","",NA,NA,NA,NA,""
"image-keyboard-response",104,85183,"0.0-4.30-2.30","3p94hy7tyajmgd9",264,"147.csv","","null","resources/images/coin2.png","null","",NA,NA,NA,NA,""
"image-keyboard-response",105,85382,"0.0-4.31-0.31","3p94hy7tyajmgd9",264,"147.csv","","197.19999999995343","resources/trios/L1T4A3.jpg","39","restless",0.5,0.4,0.7,0.430448765981334,"true"
"image-keyboard-response",106,85783,"0.0-4.31-1.31","3p94hy7tyajmgd9",264,"147.csv","","null","resources/maskTrios/BBA3.jpg","null","",NA,NA,NA,NA,""
"image-keyboard-response",107,86985,"0.0-4.31-2.31","3p94hy7tyajmgd9",264,"147.csv","","null","resources/images/coin2.png","null","",NA,NA,NA,NA,""
"image-keyboard-response",108,87064,"0.0-4.32-0.32","3p94hy7tyajmgd9",264,"147.csv","","78.10000000009313","resources/trios/L1T4A3.jpg","39","restless",0.4,0.4,0.7,0.565232251248351,"true"
"image-keyboard-response",109,87465,"0.0-4.32-1.32","3p94hy7tyajmgd9",264,"147.csv","","null","resources/maskTrios/BBA3.jpg","null","",NA,NA,NA,NA,""
"image-keyboard-response",110,88666,"0.0-4.32-2.32","3p94hy7tyajmgd9",264,"147.csv","","null","resources/images/coin2.png","null","",NA,NA,NA,NA,""
"image-keyboard-response",111,88791,"0.0-4.33-0.33","3p94hy7tyajmgd9",264,"147.csv","","123.70000000018626","resources/trios/L1T4A3.jpg","39","restless",0.4,0.4,0.6,0.477947024228381,"true"
"image-keyboard-response",112,89192,"0.0-4.33-1.33","3p94hy7tyajmgd9",264,"147.csv","","null","resources/maskTrios/BBA3.jpg","null","",NA,NA,NA,NA,""
"image-keyboard-response",113,90394,"0.0-4.33-2.33","3p94hy7tyajmgd9",264,"147.csv","","null","resources/images/coin2.png","null","",NA,NA,NA,NA,""
"image-keyboard-response",114,90511,"0.0-4.34-0.34","3p94hy7tyajmgd9",264,"147.csv","","115.39999999990687","resources/trios/L1T4A3.jpg","39","restless",0.4,0.4,0.6,0.501621621582361,"true"
"image-keyboard-response",115,90914,"0.0-4.34-1.34","3p94hy7tyajmgd9",264,"147.csv","","null","resources/maskTrios/BBA3.jpg","null","",NA,NA,NA,NA,""
"image-keyboard-response",116,92115,"0.0-4.34-2.34","3p94hy7tyajmgd9",264,"147.csv","","null","resources/images/coin2.png","null","",NA,NA,NA,NA,""
"image-keyboard-response",117,92300,"0.0-4.35-0.35","3p94hy7tyajmgd9",264,"147.csv","","184","resources/trios/L1T4A3.jpg","39","restless",0.4,0.4,0.6,0.454043169844442,"true"
"image-keyboard-response",118,92701,"0.0-4.35-1.35","3p94hy7tyajmgd9",264,"147.csv","","null","resources/maskTrios/BBA3.jpg","null","",NA,NA,NA,NA,""
"image-keyboard-response",119,93903,"0.0-4.35-2.35","3p94hy7tyajmgd9",264,"147.csv","","null","resources/images/coin2.png","null","",NA,NA,NA,NA,""
"image-keyboard-response",120,94221,"0.0-4.36-0.36","3p94hy7tyajmgd9",264,"147.csv","","316.5999999998603","resources/trios/L1T4A3.jpg","39","restless",0.4,0.4,0.6,0.939472403686893,"false"
"image-keyboard-response",121,94622,"0.0-4.36-1.36","3p94hy7tyajmgd9",264,"147.csv","","null","resources/maskTrios/BBA3.jpg","null","",NA,NA,NA,NA,""
"image-keyboard-response",122,95823,"0.0-4.36-2.36","3p94hy7tyajmgd9",264,"147.csv","","null","resources/images/fishbone.png","null","",NA,NA,NA,NA,""
"image-keyboard-response",123,96046,"0.0-4.37-0.37","3p94hy7tyajmgd9",264,"147.csv","","222.19999999995343","resources/trios/L1T4A3.jpg","39","restless",0.4,0.4,0.6,0.603044800639077,"false"
"image-keyboard-response",124,96447,"0.0-4.37-1.37","3p94hy7tyajmgd9",264,"147.csv","","null","resources/maskTrios/BBA3.jpg","null","",NA,NA,NA,NA,""
"image-keyboard-response",125,97649,"0.0-4.37-2.37","3p94hy7tyajmgd9",264,"147.csv","","null","resources/images/fishbone.png","null","",NA,NA,NA,NA,""
"image-keyboard-response",126,97676,"0.0-4.38-0.38","3p94hy7tyajmgd9",264,"147.csv","","26","resources/trios/L1T4A3.jpg","37","restless",0.4,0.4,0.6,0.286792361851889,"true"
"image-keyboard-response",127,98077,"0.0-4.38-1.38","3p94hy7tyajmgd9",264,"147.csv","","null","resources/maskTrios/L1BB.jpg","null","",NA,NA,NA,NA,""
"image-keyboard-response",128,99279,"0.0-4.38-2.38","3p94hy7tyajmgd9",264,"147.csv","","null","resources/images/coin2.png","null","",NA,NA,NA,NA,""
"image-keyboard-response",129,99485,"0.0-4.39-0.39","3p94hy7tyajmgd9",264,"147.csv","","205.10000000009313","resources/trios/L1T4A3.jpg","37","restless",0.4,0.4,0.6,0.347372290862072,"true"
"image-keyboard-response",130,99886,"0.0-4.39-1.39","3p94hy7tyajmgd9",264,"147.csv","","null","resources/maskTrios/L1BB.jpg","null","",NA,NA,NA,NA,""
"image-keyboard-response",131,101088,"0.0-4.39-2.39","3p94hy7tyajmgd9",264,"147.csv","","null","resources/images/coin2.png","null","",NA,NA,NA,NA,""
"image-keyboard-response",132,101637,"0.0-4.40-0.40","3p94hy7tyajmgd9",264,"147.csv","","548.1999999999534","resources/trios/L1T4A3.jpg","37","restless",0.4,0.4,0.6,0.106493811545881,"true"
"image-keyboard-response",133,102039,"0.0-4.40-1.40","3p94hy7tyajmgd9",264,"147.csv","","null","resources/maskTrios/L1BB.jpg","null","",NA,NA,NA,NA,""
"image-keyboard-response",134,103240,"0.0-4.40-2.40","3p94hy7tyajmgd9",264,"147.csv","","null","resources/images/coin2.png","null","",NA,NA,NA,NA,""
"image-keyboard-response",135,103298,"0.0-4.41-0.41","3p94hy7tyajmgd9",264,"147.csv","","56.699999999953434","resources/trios/L1T4A3.jpg","37","restless",0.4,0.4,0.6,0.674327442642576,"false"
"image-keyboard-response",136,103699,"0.0-4.41-1.41","3p94hy7tyajmgd9",264,"147.csv","","null","resources/maskTrios/L1BB.jpg","null","",NA,NA,NA,NA,""
"image-keyboard-response",137,104900,"0.0-4.41-2.41","3p94hy7tyajmgd9",264,"147.csv","","null","resources/images/fishbone.png","null","",NA,NA,NA,NA,""
"image-keyboard-response",138,105013,"0.0-4.42-0.42","3p94hy7tyajmgd9",264,"147.csv","","112.39999999990687","resources/trios/L1T4A3.jpg","38","restless",0.4,0.4,0.5,0.183603030872361,"true"
"image-keyboard-response",139,105415,"0.0-4.42-1.42","3p94hy7tyajmgd9",264,"147.csv","","null","resources/maskTrios/BT4B.jpg","null","",NA,NA,NA,NA,""
"image-keyboard-response",140,106616,"0.0-4.42-2.42","3p94hy7tyajmgd9",264,"147.csv","","null","resources/images/coin2.png","null","",NA,NA,NA,NA,""
"image-keyboard-response",141,106674,"0.0-4.43-0.43","3p94hy7tyajmgd9",264,"147.csv","","56.300000000046566","resources/trios/L1T4A3.jpg","38","restless",0.4,0.4,0.5,0.42588731680241,"false"
"image-keyboard-response",142,107075,"0.0-4.43-1.43","3p94hy7tyajmgd9",264,"147.csv","","null","resources/maskTrios/BT4B.jpg","null","",NA,NA,NA,NA,""
"image-keyboard-response",143,108276,"0.0-4.43-2.43","3p94hy7tyajmgd9",264,"147.csv","","null","resources/images/fishbone.png","null","",NA,NA,NA,NA,""
"image-keyboard-response",144,108284,"0.0-4.44-0.44","3p94hy7tyajmgd9",264,"147.csv","","7.199999999953434","resources/trios/L1T4A3.jpg","38","restless",0.4,0.4,0.5,0.501681204546771,"false"
"image-keyboard-response",145,108686,"0.0-4.44-1.44","3p94hy7tyajmgd9",264,"147.csv","","null","resources/maskTrios/BT4B.jpg","null","",NA,NA,NA,NA,""
"image-keyboard-response",146,109887,"0.0-4.44-2.44","3p94hy7tyajmgd9",264,"147.csv","","null","resources/images/fishbone.png","null","",NA,NA,NA,NA,""
"image-keyboard-response",147,109985,"0.0-4.45-0.45","3p94hy7tyajmgd9",264,"147.csv","","97.60000000009313","resources/trios/L1T4A3.jpg","39","restless",0.4,0.5,0.5,0.0892409049153891,"true"
"image-keyboard-response",148,110387,"0.0-4.45-1.45","3p94hy7tyajmgd9",264,"147.csv","","null","resources/maskTrios/BBA3.jpg","null","",NA,NA,NA,NA,""
"image-keyboard-response",149,111589,"0.0-4.45-2.45","3p94hy7tyajmgd9",264,"147.csv","","null","resources/images/coin2.png","null","",NA,NA,NA,NA,""
"image-keyboard-response",150,111884,"0.0-4.46-0.46","3p94hy7tyajmgd9",264,"147.csv","","294.5","resources/trios/L1T4A3.jpg","39","restless",0.4,0.5,0.5,0.332961942777294,"true"
"image-keyboard-response",151,112286,"0.0-4.46-1.46","3p94hy7tyajmgd9",264,"147.csv","","null","resources/maskTrios/BBA3.jpg","null","",NA,NA,NA,NA,""
"image-keyboard-response",152,113487,"0.0-4.46-2.46","3p94hy7tyajmgd9",264,"147.csv","","null","resources/images/coin2.png","null","",NA,NA,NA,NA,""
"image-keyboard-response",153,113531,"0.0-4.47-0.47","3p94hy7tyajmgd9",264,"147.csv","","42.10000000009313","resources/trios/L1T4A3.jpg","37","restless",0.4,0.5,0.5,0.213661805796652,"true"
"image-keyboard-response",154,113932,"0.0-4.47-1.47","3p94hy7tyajmgd9",264,"147.csv","","null","resources/maskTrios/L1BB.jpg","null","",NA,NA,NA,NA,""
"image-keyboard-response",155,115134,"0.0-4.47-2.47","3p94hy7tyajmgd9",264,"147.csv","","null","resources/images/coin2.png","null","",NA,NA,NA,NA,""
"image-keyboard-response",156,115159,"0.0-4.48-0.48","3p94hy7tyajmgd9",264,"147.csv","","24.199999999953434","resources/trios/L1T4A3.jpg","38","restless",0.4,0.5,0.5,0.375588892186727,"true"
"image-keyboard-response",157,115573,"0.0-4.48-1.48","3p94hy7tyajmgd9",264,"147.csv","","null","resources/maskTrios/BT4B.jpg","null","",NA,NA,NA,NA,""
"image-keyboard-response",158,116775,"0.0-4.48-2.48","3p94hy7tyajmgd9",264,"147.csv","","null","resources/images/coin2.png","null","",NA,NA,NA,NA,""
"image-keyboard-response",159,117071,"0.0-4.49-0.49","3p94hy7tyajmgd9",264,"147.csv","","295.9000000001397","resources/trios/L1T4A3.jpg","37","restless",0.4,0.5,0.5,0.184208991691504,"true"
"image-keyboard-response",160,117473,"0.0-4.49-1.49","3p94hy7tyajmgd9",264,"147.csv","","null","resources/maskTrios/L1BB.jpg","null","",NA,NA,NA,NA,""
"image-keyboard-response",161,118675,"0.0-4.49-2.49","3p94hy7tyajmgd9",264,"147.csv","","null","resources/images/coin2.png","null","",NA,NA,NA,NA,""
"image-keyboard-response",162,118919,"0.0-4.50-0.50","3p94hy7tyajmgd9",264,"147.csv","","242.5","resources/trios/L1T4A3.jpg","38","restless",0.4,0.5,0.5,0.932305487926933,"false"
"image-keyboard-response",163,119319,"0.0-4.50-1.50","3p94hy7tyajmgd9",264,"147.csv","","null","resources/maskTrios/BT4B.jpg","null","",NA,NA,NA,NA,""
"image-keyboard-response",164,120520,"0.0-4.50-2.50","3p94hy7tyajmgd9",264,"147.csv","","null","resources/images/fishbone.png","null","",NA,NA,NA,NA,""
"image-keyboard-response",165,120623,"0.0-4.51-0.51","3p94hy7tyajmgd9",264,"147.csv","","102","resources/trios/L1T4A3.jpg","38","restless",0.4,0.6,0.5,0.903836002809083,"false"
"image-keyboard-response",166,121025,"0.0-4.51-1.51","3p94hy7tyajmgd9",264,"147.csv","","null","resources/maskTrios/BT4B.jpg","null","",NA,NA,NA,NA,""
"image-keyboard-response",167,122226,"0.0-4.51-2.51","3p94hy7tyajmgd9",264,"147.csv","","null","resources/images/fishbone.png","null","",NA,NA,NA,NA,""
"image-keyboard-response",168,122292,"0.0-4.52-0.52","3p94hy7tyajmgd9",264,"147.csv","","65.4000000001397","resources/trios/L1T4A3.jpg","37","restless",0.4,0.6,0.5,0.17662540753889,"true"
"image-keyboard-response",169,122693,"0.0-4.52-1.52","3p94hy7tyajmgd9",264,"147.csv","","null","resources/maskTrios/L1BB.jpg","null","",NA,NA,NA,NA,""
"image-keyboard-response",170,123895,"0.0-4.52-2.52","3p94hy7tyajmgd9",264,"147.csv","","null","resources/images/coin2.png","null","",NA,NA,NA,NA,""
"image-keyboard-response",171,123976,"0.0-4.53-0.53","3p94hy7tyajmgd9",264,"147.csv","","80.30000000004657","resources/trios/L1T4A3.jpg","38","restless",0.4,0.6,0.5,0.219615983649263,"true"
"image-keyboard-response",172,124378,"0.0-4.53-1.53","3p94hy7tyajmgd9",264,"147.csv","","null","resources/maskTrios/BT4B.jpg","null","",NA,NA,NA,NA,""
"image-keyboard-response",173,125581,"0.0-4.53-2.53","3p94hy7tyajmgd9",264,"147.csv","","null","resources/images/coin2.png","null","",NA,NA,NA,NA,""
"image-keyboard-response",174,125626,"0.0-4.54-0.54","3p94hy7tyajmgd9",264,"147.csv","","44.799999999813735","resources/trios/L1T4A3.jpg","37","restless",0.4,0.6,0.5,0.176659888602926,"true"
"image-keyboard-response",175,126028,"0.0-4.54-1.54","3p94hy7tyajmgd9",264,"147.csv","","null","resources/maskTrios/L1BB.jpg","null","",NA,NA,NA,NA,""
"image-keyboard-response",176,127230,"0.0-4.54-2.54","3p94hy7tyajmgd9",264,"147.csv","","null","resources/images/coin2.png","null","",NA,NA,NA,NA,""
"image-keyboard-response",177,127373,"0.0-4.55-0.55","3p94hy7tyajmgd9",264,"147.csv","","142.69999999995343","resources/trios/L1T4A3.jpg","37","restless",0.4,0.6,0.5,0.712259714228898,"false"
"image-keyboard-response",178,127775,"0.0-4.55-1.55","3p94hy7tyajmgd9",264,"147.csv","","null","resources/maskTrios/L1BB.jpg","null","",NA,NA,NA,NA,""
"image-keyboard-response",179,128976,"0.0-4.55-2.55","3p94hy7tyajmgd9",264,"147.csv","","null","resources/images/fishbone.png","null","",NA,NA,NA,NA,""
"image-keyboard-response",180,129190,"0.0-4.56-0.56","3p94hy7tyajmgd9",264,"147.csv","","213.19999999995343","resources/trios/L1T4A3.jpg","37","restless",0.4,0.6,0.4,0.522827904633624,"false"
"image-keyboard-response",181,129591,"0.0-4.56-1.56","3p94hy7tyajmgd9",264,"147.csv","","null","resources/maskTrios/L1BB.jpg","null","",NA,NA,NA,NA,""
"image-keyboard-response",182,130793,"0.0-4.56-2.56","3p94hy7tyajmgd9",264,"147.csv","","null","resources/images/fishbone.png","null","",NA,NA,NA,NA,""
"image-keyboard-response",183,130983,"0.0-4.57-0.57","3p94hy7tyajmgd9",264,"147.csv","","189","resources/trios/L1T4A3.jpg","37","restless",0.4,0.6,0.3,0.753616924765899,"false"
"image-keyboard-response",184,131385,"0.0-4.57-1.57","3p94hy7tyajmgd9",264,"147.csv","","null","resources/maskTrios/L1BB.jpg","null","",NA,NA,NA,NA,""
"image-keyboard-response",185,132587,"0.0-4.57-2.57","3p94hy7tyajmgd9",264,"147.csv","","null","resources/images/fishbone.png","null","",NA,NA,NA,NA,""
"image-keyboard-response",186,132748,"0.0-4.58-0.58","3p94hy7tyajmgd9",264,"147.csv","","160.80000000004657","resources/trios/L1T4A3.jpg","37","restless",0.4,0.5,0.3,0.162691553358807,"true"
"image-keyboard-response",187,133150,"0.0-4.58-1.58","3p94hy7tyajmgd9",264,"147.csv","","null","resources/maskTrios/L1BB.jpg","null","",NA,NA,NA,NA,""
"image-keyboard-response",188,134352,"0.0-4.58-2.58","3p94hy7tyajmgd9",264,"147.csv","","null","resources/images/coin2.png","null","",NA,NA,NA,NA,""
"image-keyboard-response",189,134386,"0.0-4.59-0.59","3p94hy7tyajmgd9",264,"147.csv","","32.4000000001397","resources/trios/L1T4A3.jpg","38","restless",0.4,0.5,0.3,0.496756279388784,"true"
"image-keyboard-response",190,134787,"0.0-4.59-1.59","3p94hy7tyajmgd9",264,"147.csv","","null","resources/maskTrios/BT4B.jpg","null","",NA,NA,NA,NA,""
"image-keyboard-response",191,135988,"0.0-4.59-2.59","3p94hy7tyajmgd9",264,"147.csv","","null","resources/images/coin2.png","null","",NA,NA,NA,NA,""
"image-keyboard-response",192,136257,"0.0-4.60-0.60","3p94hy7tyajmgd9",264,"147.csv","","268.9000000001397","resources/trios/L1T4A3.jpg","39","restless",0.4,0.6,0.3,0.209817425918811,"true"
"image-keyboard-response",193,136659,"0.0-4.60-1.60","3p94hy7tyajmgd9",264,"147.csv","","null","resources/maskTrios/BBA3.jpg","null","",NA,NA,NA,NA,""
"image-keyboard-response",194,137860,"0.0-4.60-2.60","3p94hy7tyajmgd9",264,"147.csv","","null","resources/images/coin2.png","null","",NA,NA,NA,NA,""
"image-keyboard-response",195,138420,"0.0-4.61-0.61","3p94hy7tyajmgd9",264,"147.csv","","558.9000000001397","resources/trios/L1T4A3.jpg","38","restless",0.4,0.6,0.3,0.238779447569967,"true"
"image-keyboard-response",196,138822,"0.0-4.61-1.61","3p94hy7tyajmgd9",264,"147.csv","","null","resources/maskTrios/BT4B.jpg","null","",NA,NA,NA,NA,""
"image-keyboard-response",197,140023,"0.0-4.61-2.61","3p94hy7tyajmgd9",264,"147.csv","","null","resources/images/coin2.png","null","",NA,NA,NA,NA,""
"image-keyboard-response",198,140091,"0.0-4.62-0.62","3p94hy7tyajmgd9",264,"147.csv","","66.89999999990687","resources/trios/L1T4A3.jpg","38","restless",0.4,0.6,0.3,0.177050029095581,"true"
"image-keyboard-response",199,140493,"0.0-4.62-1.62","3p94hy7tyajmgd9",264,"147.csv","","null","resources/maskTrios/BT4B.jpg","null","",NA,NA,NA,NA,""
"image-keyboard-response",200,141694,"0.0-4.62-2.62","3p94hy7tyajmgd9",264,"147.csv","","null","resources/images/coin2.png","null","",NA,NA,NA,NA,""
"image-keyboard-response",201,141790,"0.0-4.63-0.63","3p94hy7tyajmgd9",264,"147.csv","","95","resources/trios/L1T4A3.jpg","37","restless",0.4,0.5,0.3,0.191514084626195,"true"
"image-keyboard-response",202,142191,"0.0-4.63-1.63","3p94hy7tyajmgd9",264,"147.csv","","null","resources/maskTrios/L1BB.jpg","null","",NA,NA,NA,NA,""
"image-keyboard-response",203,143392,"0.0-4.63-2.63","3p94hy7tyajmgd9",264,"147.csv","","null","resources/images/coin2.png","null","",NA,NA,NA,NA,""
"image-keyboard-response",204,143462,"0.0-4.64-0.64","3p94hy7tyajmgd9",264,"147.csv","","68.70000000018626","resources/trios/L1T4A3.jpg","39","restless",0.4,0.5,0.3,0.69805117921432,"false"
"image-keyboard-response",205,143864,"0.0-4.64-1.64","3p94hy7tyajmgd9",264,"147.csv","","null","resources/maskTrios/BBA3.jpg","null","",NA,NA,NA,NA,""
"image-keyboard-response",206,145065,"0.0-4.64-2.64","3p94hy7tyajmgd9",264,"147.csv","","null","resources/images/fishbone.png","null","",NA,NA,NA,NA,""
"image-keyboard-response",207,145147,"0.0-4.65-0.65","3p94hy7tyajmgd9",264,"147.csv","","80.5","resources/trios/L1T4A3.jpg","38","restless",0.4,0.5,0.3,0.265327693063336,"true"
"image-keyboard-response",208,145548,"0.0-4.65-1.65","3p94hy7tyajmgd9",264,"147.csv","","null","resources/maskTrios/BT4B.jpg","null","",NA,NA,NA,NA,""
"image-keyboard-response",209,146750,"0.0-4.65-2.65","3p94hy7tyajmgd9",264,"147.csv","","null","resources/images/coin2.png","null","",NA,NA,NA,NA,""
"image-keyboard-response",210,146922,"0.0-4.66-0.66","3p94hy7tyajmgd9",264,"147.csv","","171","resources/trios/L1T4A3.jpg","38","restless",0.4,0.5,0.3,0.886126275917225,"false"
"image-keyboard-response",211,147324,"0.0-4.66-1.66","3p94hy7tyajmgd9",264,"147.csv","","null","resources/maskTrios/BT4B.jpg","null","",NA,NA,NA,NA,""
"image-keyboard-response",212,148525,"0.0-4.66-2.66","3p94hy7tyajmgd9",264,"147.csv","","null","resources/images/fishbone.png","null","",NA,NA,NA,NA,""
"image-keyboard-response",213,148705,"0.0-4.67-0.67","3p94hy7tyajmgd9",264,"147.csv","","179.0999999998603","resources/trios/L1T4A3.jpg","38","restless",0.4,0.5,0.3,0.518458217258526,"false"
"image-keyboard-response",214,149107,"0.0-4.67-1.67","3p94hy7tyajmgd9",264,"147.csv","","null","resources/maskTrios/BT4B.jpg","null","",NA,NA,NA,NA,""
"image-keyboard-response",215,150308,"0.0-4.67-2.67","3p94hy7tyajmgd9",264,"147.csv","","null","resources/images/fishbone.png","null","",NA,NA,NA,NA,""
"image-keyboard-response",216,150629,"0.0-4.68-0.68","3p94hy7tyajmgd9",264,"147.csv","","320.30000000004657","resources/trios/L1T4A3.jpg","37","restless",0.4,0.5,0.3,0.991896319152937,"false"
"image-keyboard-response",217,151031,"0.0-4.68-1.68","3p94hy7tyajmgd9",264,"147.csv","","null","resources/maskTrios/L1BB.jpg","null","",NA,NA,NA,NA,""
"image-keyboard-response",218,152233,"0.0-4.68-2.68","3p94hy7tyajmgd9",264,"147.csv","","null","resources/images/fishbone.png","null","",NA,NA,NA,NA,""
"image-keyboard-response",219,152417,"0.0-4.69-0.69","3p94hy7tyajmgd9",264,"147.csv","","183","resources/trios/L1T4A3.jpg","39","restless",0.5,0.5,0.3,0.290830959639097,"true"
"image-keyboard-response",220,152818,"0.0-4.69-1.69","3p94hy7tyajmgd9",264,"147.csv","","null","resources/maskTrios/BBA3.jpg","null","",NA,NA,NA,NA,""
"image-keyboard-response",221,154020,"0.0-4.69-2.69","3p94hy7tyajmgd9",264,"147.csv","","null","resources/images/coin2.png","null","",NA,NA,NA,NA,""
"image-keyboard-response",222,154041,"0.0-4.70-0.70","3p94hy7tyajmgd9",264,"147.csv","","19.699999999953434","resources/trios/L1T4A3.jpg","39","restless",0.5,0.5,0.3,0.727756769295183,"false"
"image-keyboard-response",223,154442,"0.0-4.70-1.70","3p94hy7tyajmgd9",264,"147.csv","","null","resources/maskTrios/BBA3.jpg","null","",NA,NA,NA,NA,""
"image-keyboard-response",224,155643,"0.0-4.70-2.70","3p94hy7tyajmgd9",264,"147.csv","","null","resources/images/fishbone.png","null","",NA,NA,NA,NA,""
"image-keyboard-response",225,155719,"0.0-4.71-0.71","3p94hy7tyajmgd9",264,"147.csv","","75.10000000009313","resources/trios/L1T4A3.jpg","38","restless",0.5,0.5,0.3,0.228227108287236,"true"
"image-keyboard-response",226,156121,"0.0-4.71-1.71","3p94hy7tyajmgd9",264,"147.csv","","null","resources/maskTrios/BT4B.jpg","null","",NA,NA,NA,NA,""
"image-keyboard-response",227,157322,"0.0-4.71-2.71","3p94hy7tyajmgd9",264,"147.csv","","null","resources/images/coin2.png","null","",NA,NA,NA,NA,""
"image-keyboard-response",228,157428,"0.0-4.72-0.72","3p94hy7tyajmgd9",264,"147.csv","","104.5","resources/trios/L1T4A3.jpg","38","restless",0.5,0.5,0.3,0.89112235913029,"false"
"image-keyboard-response",229,157829,"0.0-4.72-1.72","3p94hy7tyajmgd9",264,"147.csv","","null","resources/maskTrios/BT4B.jpg","null","",NA,NA,NA,NA,""
"image-keyboard-response",230,159031,"0.0-4.72-2.72","3p94hy7tyajmgd9",264,"147.csv","","null","resources/images/fishbone.png","null","",NA,NA,NA,NA,""
"image-keyboard-response",231,159549,"0.0-4.73-0.73","3p94hy7tyajmgd9",264,"147.csv","","517.1000000000931","resources/trios/L1T4A3.jpg","37","restless",0.5,0.4,0.2,0.634460502425518,"false"
"image-keyboard-response",232,159951,"0.0-4.73-1.73","3p94hy7tyajmgd9",264,"147.csv","","null","resources/maskTrios/L1BB.jpg","null","",NA,NA,NA,NA,""
"image-keyboard-response",233,161152,"0.0-4.73-2.73","3p94hy7tyajmgd9",264,"147.csv","","null","resources/images/fishbone.png","null","",NA,NA,NA,NA,""
"image-keyboard-response",234,161346,"0.0-4.74-0.74","3p94hy7tyajmgd9",264,"147.csv","","192.60000000009313","resources/trios/L1T4A3.jpg","37","restless",0.5,0.4,0.2,0.0737266246192385,"true"
"image-keyboard-response",235,161747,"0.0-4.74-1.74","3p94hy7tyajmgd9",264,"147.csv","","null","resources/maskTrios/L1BB.jpg","null","",NA,NA,NA,NA,""
"image-keyboard-response",236,162949,"0.0-4.74-2.74","3p94hy7tyajmgd9",264,"147.csv","","null","resources/images/coin2.png","null","",NA,NA,NA,NA,""
"image-keyboard-response",237,163280,"0.0-4.75-0.75","3p94hy7tyajmgd9",264,"147.csv","","330.10000000009313","resources/trios/L1T4A3.jpg","39","restless",0.5,0.4,0.2,0.790370037571181,"false"
"image-keyboard-response",238,163681,"0.0-4.75-1.75","3p94hy7tyajmgd9",264,"147.csv","","null","resources/maskTrios/BBA3.jpg","null","",NA,NA,NA,NA,""
"image-keyboard-response",239,164884,"0.0-4.75-2.75","3p94hy7tyajmgd9",264,"147.csv","","null","resources/images/fishbone.png","null","",NA,NA,NA,NA,""
"image-keyboard-response",240,165336,"0.0-4.76-0.76","3p94hy7tyajmgd9",264,"147.csv","","451.19999999995343","resources/trios/L1T4A3.jpg","38","restless",0.5,0.4,0.2,0.109235992173716,"true"
"image-keyboard-response",241,165737,"0.0-4.76-1.76","3p94hy7tyajmgd9",264,"147.csv","","null","resources/maskTrios/BT4B.jpg","null","",NA,NA,NA,NA,""
"image-keyboard-response",242,166939,"0.0-4.76-2.76","3p94hy7tyajmgd9",264,"147.csv","","null","resources/images/coin2.png","null","",NA,NA,NA,NA,""
"image-keyboard-response",243,167037,"0.0-4.77-0.77","3p94hy7tyajmgd9",264,"147.csv","","97.30000000004657","resources/trios/L1T4A3.jpg","39","restless",0.6,0.4,0.2,0.108321832628764,"true"
"image-keyboard-response",244,167438,"0.0-4.77-1.77","3p94hy7tyajmgd9",264,"147.csv","","null","resources/maskTrios/BBA3.jpg","null","",NA,NA,NA,NA,""
"image-keyboard-response",245,168640,"0.0-4.77-2.77","3p94hy7tyajmgd9",264,"147.csv","","null","resources/images/coin2.png","null","",NA,NA,NA,NA,""
"image-keyboard-response",246,168789,"0.0-4.78-0.78","3p94hy7tyajmgd9",264,"147.csv","","147.5","resources/trios/L1T4A3.jpg","37","restless",0.6,0.4,0.2,0.762120377736382,"false"
"image-keyboard-response",247,169189,"0.0-4.78-1.78","3p94hy7tyajmgd9",264,"147.csv","","null","resources/maskTrios/L1BB.jpg","null","",NA,NA,NA,NA,""
"image-keyboard-response",248,170390,"0.0-4.78-2.78","3p94hy7tyajmgd9",264,"147.csv","","null","resources/images/fishbone.png","null","",NA,NA,NA,NA,""
"image-keyboard-response",249,170564,"0.0-4.79-0.79","3p94hy7tyajmgd9",264,"147.csv","","173.19999999995343","resources/trios/L1T4A3.jpg","37","restless",0.6,0.4,0.2,0.447195191569583,"true"
"image-keyboard-response",250,170967,"0.0-4.79-1.79","3p94hy7tyajmgd9",264,"147.csv","","null","resources/maskTrios/L1BB.jpg","null","",NA,NA,NA,NA,""
"image-keyboard-response",251,172171,"0.0-4.79-2.79","3p94hy7tyajmgd9",264,"147.csv","","null","resources/images/coin2.png","null","",NA,NA,NA,NA,""
"image-keyboard-response",252,172539,"0.0-4.80-0.80","3p94hy7tyajmgd9",264,"147.csv","","366.19999999995343","resources/trios/L1T4A3.jpg","37","restless",0.6,0.4,0.3,0.976224252976411,"false"
"image-keyboard-response",253,172940,"0.0-4.80-1.80","3p94hy7tyajmgd9",264,"147.csv","","null","resources/maskTrios/L1BB.jpg","null","",NA,NA,NA,NA,""
"image-keyboard-response",254,174142,"0.0-4.80-2.80","3p94hy7tyajmgd9",264,"147.csv","","null","resources/images/fishbone.png","null","",NA,NA,NA,NA,""
"image-keyboard-response",255,174284,"0.0-4.81-0.81","3p94hy7tyajmgd9",264,"147.csv","","140.69999999995343","resources/trios/L1T4A3.jpg","38","restless",0.6,0.3,0.3,0.952527223053543,"false"
"image-keyboard-response",256,174685,"0.0-4.81-1.81","3p94hy7tyajmgd9",264,"147.csv","","null","resources/maskTrios/BT4B.jpg","null","",NA,NA,NA,NA,""
"image-keyboard-response",257,175887,"0.0-4.81-2.81","3p94hy7tyajmgd9",264,"147.csv","","null","resources/images/fishbone.png","null","",NA,NA,NA,NA,""
"image-keyboard-response",258,175930,"0.0-4.82-0.82","3p94hy7tyajmgd9",264,"147.csv","","42.199999999953434","resources/trios/L1T4A3.jpg","37","restless",0.6,0.3,0.3,0.26718639602824,"true"
"image-keyboard-response",259,176332,"0.0-4.82-1.82","3p94hy7tyajmgd9",264,"147.csv","","null","resources/maskTrios/L1BB.jpg","null","",NA,NA,NA,NA,""
"image-keyboard-response",260,177533,"0.0-4.82-2.82","3p94hy7tyajmgd9",264,"147.csv","","null","resources/images/coin2.png","null","",NA,NA,NA,NA,""
"image-keyboard-response",261,177734,"0.0-4.83-0.83","3p94hy7tyajmgd9",264,"147.csv","","199.9000000001397","resources/trios/L1T4A3.jpg","39","restless",0.6,0.3,0.3,0.242437677908699,"true"
"image-keyboard-response",262,178135,"0.0-4.83-1.83","3p94hy7tyajmgd9",264,"147.csv","","null","resources/maskTrios/BBA3.jpg","null","",NA,NA,NA,NA,""
"image-keyboard-response",263,179337,"0.0-4.83-2.83","3p94hy7tyajmgd9",264,"147.csv","","null","resources/images/coin2.png","null","",NA,NA,NA,NA,""
"image-keyboard-response",264,180080,"0.0-4.84-0.84","3p94hy7tyajmgd9",264,"147.csv","","742.2999999998137","resources/trios/L1T4A3.jpg","38","restless",0.6,0.2,0.3,0.375329586857758,"false"
"image-keyboard-response",265,180481,"0.0-4.84-1.84","3p94hy7tyajmgd9",264,"147.csv","","null","resources/maskTrios/BT4B.jpg","null","",NA,NA,NA,NA,""
"image-keyboard-response",266,181683,"0.0-4.84-2.84","3p94hy7tyajmgd9",264,"147.csv","","null","resources/images/fishbone.png","null","",NA,NA,NA,NA,""
"image-keyboard-response",267,181717,"0.0-4.85-0.85","3p94hy7tyajmgd9",264,"147.csv","","33.39999999990687","resources/trios/L1T4A3.jpg","37","restless",0.6,0.3,0.3,0.663197956159047,"false"
"image-keyboard-response",268,182119,"0.0-4.85-1.85","3p94hy7tyajmgd9",264,"147.csv","","null","resources/maskTrios/L1BB.jpg","null","",NA,NA,NA,NA,""
"image-keyboard-response",269,183320,"0.0-4.85-2.85","3p94hy7tyajmgd9",264,"147.csv","","null","resources/images/fishbone.png","null","",NA,NA,NA,NA,""
"image-keyboard-response",270,183620,"0.0-4.86-0.86","3p94hy7tyajmgd9",264,"147.csv","","298.9000000001397","resources/trios/L1T4A3.jpg","39","restless",0.6,0.3,0.3,0.598541851575529,"false"
"image-keyboard-response",271,184022,"0.0-4.86-1.86","3p94hy7tyajmgd9",264,"147.csv","","null","resources/maskTrios/BBA3.jpg","null","",NA,NA,NA,NA,""
"image-keyboard-response",272,185223,"0.0-4.86-2.86","3p94hy7tyajmgd9",264,"147.csv","","null","resources/images/fishbone.png","null","",NA,NA,NA,NA,""
"image-keyboard-response",273,185393,"0.0-4.87-0.87","3p94hy7tyajmgd9",264,"147.csv","","168.60000000009313","resources/trios/L1T4A3.jpg","37","restless",0.6,0.3,0.3,0.30369125264225,"true"
"image-keyboard-response",274,185795,"0.0-4.87-1.87","3p94hy7tyajmgd9",264,"147.csv","","null","resources/maskTrios/L1BB.jpg","null","",NA,NA,NA,NA,""
"image-keyboard-response",275,186996,"0.0-4.87-2.87","3p94hy7tyajmgd9",264,"147.csv","","null","resources/images/coin2.png","null","",NA,NA,NA,NA,""
"image-keyboard-response",276,187018,"0.0-4.88-0.88","3p94hy7tyajmgd9",264,"147.csv","","21.300000000046566","resources/trios/L1T4A3.jpg","38","restless",0.6,0.3,0.3,0.135764068952381,"true"
"image-keyboard-response",277,187419,"0.0-4.88-1.88","3p94hy7tyajmgd9",264,"147.csv","","null","resources/maskTrios/BT4B.jpg","null","",NA,NA,NA,NA,""
"image-keyboard-response",278,188621,"0.0-4.88-2.88","3p94hy7tyajmgd9",264,"147.csv","","null","resources/images/coin2.png","null","",NA,NA,NA,NA,""
"image-keyboard-response",279,188951,"0.0-4.89-0.89","3p94hy7tyajmgd9",264,"147.csv","","329.5","resources/trios/L1T4A3.jpg","37","restless",0.6,0.3,0.4,0.755309130734392,"false"
"image-keyboard-response",280,189352,"0.0-4.89-1.89","3p94hy7tyajmgd9",264,"147.csv","","null","resources/maskTrios/L1BB.jpg","null","",NA,NA,NA,NA,""
"image-keyboard-response",281,190553,"0.0-4.89-2.89","3p94hy7tyajmgd9",264,"147.csv","","null","resources/images/fishbone.png","null","",NA,NA,NA,NA,""
"image-keyboard-response",282,190779,"0.0-4.90-0.90","3p94hy7tyajmgd9",264,"147.csv","","224.9000000001397","resources/trios/L1T4A3.jpg","38","restless",0.6,0.3,0.4,0.18667443786898,"true"
"image-keyboard-response",283,191180,"0.0-4.90-1.90","3p94hy7tyajmgd9",264,"147.csv","","null","resources/maskTrios/BT4B.jpg","null","",NA,NA,NA,NA,""
"image-keyboard-response",284,192382,"0.0-4.90-2.90","3p94hy7tyajmgd9",264,"147.csv","","null","resources/images/coin2.png","null","",NA,NA,NA,NA,""
"image-keyboard-response",285,192584,"0.0-4.91-0.91","3p94hy7tyajmgd9",264,"147.csv","","200.79999999981374","resources/trios/L1T4A3.jpg","37","restless",0.6,0.3,0.4,0.298392640093275,"true"
"image-keyboard-response",286,192985,"0.0-4.91-1.91","3p94hy7tyajmgd9",264,"147.csv","","null","resources/maskTrios/L1BB.jpg","null","",NA,NA,NA,NA,""
"image-keyboard-response",287,194187,"0.0-4.91-2.91","3p94hy7tyajmgd9",264,"147.csv","","null","resources/images/coin2.png","null","",NA,NA,NA,NA,""
"image-keyboard-response",288,194194,"0.0-4.92-0.92","3p94hy7tyajmgd9",264,"147.csv","","6.2000000001862645","resources/trios/L1T4A3.jpg","38","restless",0.6,0.4,0.4,0.535023871093674,"false"
"image-keyboard-response",289,194595,"0.0-4.92-1.92","3p94hy7tyajmgd9",264,"147.csv","","null","resources/maskTrios/BT4B.jpg","null","",NA,NA,NA,NA,""
"image-keyboard-response",290,195796,"0.0-4.92-2.92","3p94hy7tyajmgd9",264,"147.csv","","null","resources/images/fishbone.png","null","",NA,NA,NA,NA,""
"image-keyboard-response",291,196043,"0.0-4.93-0.93","3p94hy7tyajmgd9",264,"147.csv","","245.69999999995343","resources/trios/L1T4A3.jpg","39","restless",0.6,0.4,0.4,0.482217717698767,"false"
"image-keyboard-response",292,196445,"0.0-4.93-1.93","3p94hy7tyajmgd9",264,"147.csv","","null","resources/maskTrios/BBA3.jpg","null","",NA,NA,NA,NA,""
"image-keyboard-response",293,197647,"0.0-4.93-2.93","3p94hy7tyajmgd9",264,"147.csv","","null","resources/images/fishbone.png","null","",NA,NA,NA,NA,""
"image-keyboard-response",294,197898,"0.0-4.94-0.94","3p94hy7tyajmgd9",264,"147.csv","","249.9000000001397","resources/trios/L1T4A3.jpg","38","restless",0.6,0.4,0.4,0.78795389078223,"false"
"image-keyboard-response",295,198300,"0.0-4.94-1.94","3p94hy7tyajmgd9",264,"147.csv","","null","resources/maskTrios/BT4B.jpg","null","",NA,NA,NA,NA,""
"image-keyboard-response",296,199501,"0.0-4.94-2.94","3p94hy7tyajmgd9",264,"147.csv","","null","resources/images/fishbone.png","null","",NA,NA,NA,NA,""
"image-keyboard-response",297,199734,"0.0-4.95-0.95","3p94hy7tyajmgd9",264,"147.csv","","232.10000000009313","resources/trios/L1T4A3.jpg","38","restless",0.6,0.4,0.4,0.312702575516441,"true"
"image-keyboard-response",298,200135,"0.0-4.95-1.95","3p94hy7tyajmgd9",264,"147.csv","","null","resources/maskTrios/BT4B.jpg","null","",NA,NA,NA,NA,""
"image-keyboard-response",299,201337,"0.0-4.95-2.95","3p94hy7tyajmgd9",264,"147.csv","","null","resources/images/coin2.png","null","",NA,NA,NA,NA,""
"image-keyboard-response",300,201479,"0.0-4.96-0.96","3p94hy7tyajmgd9",264,"147.csv","","141.5","resources/trios/L1T4A3.jpg","38","restless",0.6,0.4,0.4,0.223801873681609,"true"
"image-keyboard-response",301,201884,"0.0-4.96-1.96","3p94hy7tyajmgd9",264,"147.csv","","null","resources/maskTrios/BT4B.jpg","null","",NA,NA,NA,NA,""
"image-keyboard-response",302,203086,"0.0-4.96-2.96","3p94hy7tyajmgd9",264,"147.csv","","null","resources/images/coin2.png","null","",NA,NA,NA,NA,""
"image-keyboard-response",303,203243,"0.0-4.97-0.97","3p94hy7tyajmgd9",264,"147.csv","","155.89999999990687","resources/trios/L1T4A3.jpg","38","restless",0.6,0.4,0.4,0.840357911368729,"false"
"image-keyboard-response",304,203644,"0.0-4.97-1.97","3p94hy7tyajmgd9",264,"147.csv","","null","resources/maskTrios/BT4B.jpg","null","",NA,NA,NA,NA,""
"image-keyboard-response",305,204846,"0.0-4.97-2.97","3p94hy7tyajmgd9",264,"147.csv","","null","resources/images/fishbone.png","null","",NA,NA,NA,NA,""
"image-keyboard-response",306,205210,"0.0-4.98-0.98","3p94hy7tyajmgd9",264,"147.csv","","363.69999999995343","resources/trios/L1T4A3.jpg","39","restless",0.6,0.4,0.4,0.276612617686258,"true"
"image-keyboard-response",307,205612,"0.0-4.98-1.98","3p94hy7tyajmgd9",264,"147.csv","","null","resources/maskTrios/BBA3.jpg","null","",NA,NA,NA,NA,""
"image-keyboard-response",308,206814,"0.0-4.98-2.98","3p94hy7tyajmgd9",264,"147.csv","","null","resources/images/coin2.png","null","",NA,NA,NA,NA,""
"image-keyboard-response",309,206840,"0.0-4.99-0.99","3p94hy7tyajmgd9",264,"147.csv","","25.5999999998603","resources/trios/L1T4A3.jpg","39","restless",0.6,0.4,0.5,0.826664560226817,"false"
"image-keyboard-response",310,207241,"0.0-4.99-1.99","3p94hy7tyajmgd9",264,"147.csv","","null","resources/maskTrios/BBA3.jpg","null","",NA,NA,NA,NA,""
"image-keyboard-response",311,208442,"0.0-4.99-2.99","3p94hy7tyajmgd9",264,"147.csv","","null","resources/images/fishbone.png","null","",NA,NA,NA,NA,""
"image-keyboard-response",312,208508,"0.0-4.100-0.100","3p94hy7tyajmgd9",264,"147.csv","","64.79999999981374","resources/trios/L1T4A3.jpg","39","restless",0.6,0.4,0.5,0.879499779441028,"false"
"image-keyboard-response",313,208909,"0.0-4.100-1.100","3p94hy7tyajmgd9",264,"147.csv","","null","resources/maskTrios/BBA3.jpg","null","",NA,NA,NA,NA,""
"image-keyboard-response",314,210110,"0.0-4.100-2.100","3p94hy7tyajmgd9",264,"147.csv","","null","resources/images/fishbone.png","null","",NA,NA,NA,NA,""
"image-keyboard-response",315,210116,"0.0-4.101-0.101","3p94hy7tyajmgd9",264,"147.csv","","5.099999999860302","resources/trios/L1T4A3.jpg","38","restless",0.6,0.4,0.5,0.882442142175663,"false"
"image-keyboard-response",316,210517,"0.0-4.101-1.101","3p94hy7tyajmgd9",264,"147.csv","","null","resources/maskTrios/BT4B.jpg","null","",NA,NA,NA,NA,""
"image-keyboard-response",317,211718,"0.0-4.101-2.101","3p94hy7tyajmgd9",264,"147.csv","","null","resources/images/fishbone.png","null","",NA,NA,NA,NA,""
"image-keyboard-response",318,212020,"0.0-4.102-0.102","3p94hy7tyajmgd9",264,"147.csv","","300.39999999990687","resources/trios/L1T4A3.jpg","38","restless",0.7,0.4,0.4,0.431790823506176,"false"
"image-keyboard-response",319,212420,"0.0-4.102-1.102","3p94hy7tyajmgd9",264,"147.csv","","null","resources/maskTrios/BT4B.jpg","null","",NA,NA,NA,NA,""
"image-keyboard-response",320,213621,"0.0-4.102-2.102","3p94hy7tyajmgd9",264,"147.csv","","null","resources/images/fishbone.png","null","",NA,NA,NA,NA,""
"image-keyboard-response",321,213870,"0.0-4.103-0.103","3p94hy7tyajmgd9",264,"147.csv","","247.69999999995343","resources/trios/L1T4A3.jpg","38","restless",0.7,0.4,0.4,0.217730870792556,"true"
"image-keyboard-response",322,214271,"0.0-4.103-1.103","3p94hy7tyajmgd9",264,"147.csv","","null","resources/maskTrios/BT4B.jpg","null","",NA,NA,NA,NA,""
"image-keyboard-response",323,215473,"0.0-4.103-2.103","3p94hy7tyajmgd9",264,"147.csv","","null","resources/images/coin2.png","null","",NA,NA,NA,NA,""
"image-keyboard-response",324,215661,"0.0-4.104-0.104","3p94hy7tyajmgd9",264,"147.csv","","187.79999999981374","resources/trios/L1T4A3.jpg","38","restless",0.7,0.4,0.4,0.68909519655799,"false"
"image-keyboard-response",325,216063,"0.0-4.104-1.104","3p94hy7tyajmgd9",264,"147.csv","","null","resources/maskTrios/BT4B.jpg","null","",NA,NA,NA,NA,""
"image-keyboard-response",326,217264,"0.0-4.104-2.104","3p94hy7tyajmgd9",264,"147.csv","","null","resources/images/fishbone.png","null","",NA,NA,NA,NA,""
"image-keyboard-response",327,217371,"0.0-4.105-0.105","3p94hy7tyajmgd9",264,"147.csv","","106","resources/trios/L1T4A3.jpg","39","restless",0.7,0.4,0.4,0.354217401136925,"true"
"image-keyboard-response",328,217772,"0.0-4.105-1.105","3p94hy7tyajmgd9",264,"147.csv","","null","resources/maskTrios/BBA3.jpg","null","",NA,NA,NA,NA,""
"image-keyboard-response",329,218974,"0.0-4.105-2.105","3p94hy7tyajmgd9",264,"147.csv","","null","resources/images/coin2.png","null","",NA,NA,NA,NA,""
"image-keyboard-response",330,219000,"0.0-4.106-0.106","3p94hy7tyajmgd9",264,"147.csv","","24.800000000046566","resources/trios/L1T4A3.jpg","37","restless",0.7,0.4,0.4,0.346643629180503,"true"
"image-keyboard-response",331,219401,"0.0-4.106-1.106","3p94hy7tyajmgd9",264,"147.csv","","null","resources/maskTrios/L1BB.jpg","null","",NA,NA,NA,NA,""
"image-keyboard-response",332,220603,"0.0-4.106-2.106","3p94hy7tyajmgd9",264,"147.csv","","null","resources/images/coin2.png","null","",NA,NA,NA,NA,""
"image-keyboard-response",333,220666,"0.0-4.107-0.107","3p94hy7tyajmgd9",264,"147.csv","","62.39999999990687","resources/trios/L1T4A3.jpg","39","restless",0.7,0.4,0.4,0.815366558000441,"false"
"image-keyboard-response",334,221069,"0.0-4.107-1.107","3p94hy7tyajmgd9",264,"147.csv","","null","resources/maskTrios/BBA3.jpg","null","",NA,NA,NA,NA,""
"image-keyboard-response",335,222270,"0.0-4.107-2.107","3p94hy7tyajmgd9",264,"147.csv","","null","resources/images/fishbone.png","null","",NA,NA,NA,NA,""
"image-keyboard-response",336,222376,"0.0-4.108-0.108","3p94hy7tyajmgd9",264,"147.csv","","105.4000000001397","resources/trios/L1T4A3.jpg","38","restless",0.8,0.4,0.4,0.223438061726982,"true"
"image-keyboard-response",337,222778,"0.0-4.108-1.108","3p94hy7tyajmgd9",264,"147.csv","","null","resources/maskTrios/BT4B.jpg","null","",NA,NA,NA,NA,""
"image-keyboard-response",338,223979,"0.0-4.108-2.108","3p94hy7tyajmgd9",264,"147.csv","","null","resources/images/coin2.png","null","",NA,NA,NA,NA,""
"image-keyboard-response",339,224008,"0.0-4.109-0.109","3p94hy7tyajmgd9",264,"147.csv","","28.5","resources/trios/L1T4A3.jpg","37","restless",0.7,0.4,0.4,0.993387120969444,"false"
"image-keyboard-response",340,224410,"0.0-4.109-1.109","3p94hy7tyajmgd9",264,"147.csv","","null","resources/maskTrios/L1BB.jpg","null","",NA,NA,NA,NA,""
"image-keyboard-response",341,225611,"0.0-4.109-2.109","3p94hy7tyajmgd9",264,"147.csv","","null","resources/images/fishbone.png","null","",NA,NA,NA,NA,""
"image-keyboard-response",342,225850,"0.0-4.110-0.110","3p94hy7tyajmgd9",264,"147.csv","","237.69999999995343","resources/trios/L1T4A3.jpg","37","restless",0.7,0.4,0.4,0.837799828847632,"false"
"image-keyboard-response",343,226252,"0.0-4.110-1.110","3p94hy7tyajmgd9",264,"147.csv","","null","resources/maskTrios/L1BB.jpg","null","",NA,NA,NA,NA,""
"image-keyboard-response",344,227453,"0.0-4.110-2.110","3p94hy7tyajmgd9",264,"147.csv","","null","resources/images/fishbone.png","null","",NA,NA,NA,NA,""
"image-keyboard-response",345,227634,"0.0-4.111-0.111","3p94hy7tyajmgd9",264,"147.csv","","180","resources/trios/L1T4A3.jpg","39","restless",0.7,0.4,0.4,0.405594874203667,"false"
"image-keyboard-response",346,228036,"0.0-4.111-1.111","3p94hy7tyajmgd9",264,"147.csv","","null","resources/maskTrios/BBA3.jpg","null","",NA,NA,NA,NA,""
"image-keyboard-response",347,229237,"0.0-4.111-2.111","3p94hy7tyajmgd9",264,"147.csv","","null","resources/images/fishbone.png","null","",NA,NA,NA,NA,""
"image-keyboard-response",348,229493,"0.0-4.112-0.112","3p94hy7tyajmgd9",264,"147.csv","","254.69999999995343","resources/trios/L1T4A3.jpg","37","restless",0.7,0.4,0.4,0.717665306911914,"false"
"image-keyboard-response",349,229894,"0.0-4.112-1.112","3p94hy7tyajmgd9",264,"147.csv","","null","resources/maskTrios/L1BB.jpg","null","",NA,NA,NA,NA,""
"image-keyboard-response",350,231096,"0.0-4.112-2.112","3p94hy7tyajmgd9",264,"147.csv","","null","resources/images/fishbone.png","null","",NA,NA,NA,NA,""
"image-keyboard-response",351,231192,"0.0-4.113-0.113","3p94hy7tyajmgd9",264,"147.csv","","94.69999999995343","resources/trios/L1T4A3.jpg","38","restless",0.7,0.4,0.4,0.344046322531674,"true"
"image-keyboard-response",352,231594,"0.0-4.113-1.113","3p94hy7tyajmgd9",264,"147.csv","","null","resources/maskTrios/BT4B.jpg","null","",NA,NA,NA,NA,""
"image-keyboard-response",353,232795,"0.0-4.113-2.113","3p94hy7tyajmgd9",264,"147.csv","","null","resources/images/coin2.png","null","",NA,NA,NA,NA,""
"image-keyboard-response",354,232817,"0.0-4.114-0.114","3p94hy7tyajmgd9",264,"147.csv","","20.199999999953434","resources/trios/L1T4A3.jpg","37","restless",0.7,0.5,0.4,0.471798442888711,"true"
"image-keyboard-response",355,233218,"0.0-4.114-1.114","3p94hy7tyajmgd9",264,"147.csv","","null","resources/maskTrios/L1BB.jpg","null","",NA,NA,NA,NA,""
"image-keyboard-response",356,234419,"0.0-4.114-2.114","3p94hy7tyajmgd9",264,"147.csv","","null","resources/images/coin2.png","null","",NA,NA,NA,NA,""
"image-keyboard-response",357,234422,"0.0-4.115-0.115","3p94hy7tyajmgd9",264,"147.csv","","2.300000000046566","resources/trios/L1T4A3.jpg","39","restless",0.7,0.5,0.4,0.409235937602381,"false"
"image-keyboard-response",358,234824,"0.0-4.115-1.115","3p94hy7tyajmgd9",264,"147.csv","","null","resources/maskTrios/BBA3.jpg","null","",NA,NA,NA,NA,""
"image-keyboard-response",359,236025,"0.0-4.115-2.115","3p94hy7tyajmgd9",264,"147.csv","","null","resources/images/fishbone.png","null","",NA,NA,NA,NA,""
"image-keyboard-response",360,236060,"0.0-4.116-0.116","3p94hy7tyajmgd9",264,"147.csv","","34","resources/trios/L1T4A3.jpg","39","restless",0.7,0.5,0.4,0.65491348925643,"false"
"image-keyboard-response",361,236461,"0.0-4.116-1.116","3p94hy7tyajmgd9",264,"147.csv","","null","resources/maskTrios/BBA3.jpg","null","",NA,NA,NA,NA,""
"image-keyboard-response",362,237662,"0.0-4.116-2.116","3p94hy7tyajmgd9",264,"147.csv","","null","resources/images/fishbone.png","null","",NA,NA,NA,NA,""
"image-keyboard-response",363,237807,"0.0-4.117-0.117","3p94hy7tyajmgd9",264,"147.csv","","144","resources/trios/L1T4A3.jpg","38","restless",0.7,0.5,0.4,0.149835222095926,"true"
"image-keyboard-response",364,238209,"0.0-4.117-1.117","3p94hy7tyajmgd9",264,"147.csv","","null","resources/maskTrios/BT4B.jpg","null","",NA,NA,NA,NA,""
"image-keyboard-response",365,239411,"0.0-4.117-2.117","3p94hy7tyajmgd9",264,"147.csv","","null","resources/images/coin2.png","null","",NA,NA,NA,NA,""
"image-keyboard-response",366,239593,"0.0-4.118-0.118","3p94hy7tyajmgd9",264,"147.csv","","181.20000000018626","resources/trios/L1T4A3.jpg","38","restless",0.7,0.6,0.5,0.0192033625145176,"true"
"image-keyboard-response",367,239995,"0.0-4.118-1.118","3p94hy7tyajmgd9",264,"147.csv","","null","resources/maskTrios/BT4B.jpg","null","",NA,NA,NA,NA,""
"image-keyboard-response",368,241197,"0.0-4.118-2.118","3p94hy7tyajmgd9",264,"147.csv","","null","resources/images/coin2.png","null","",NA,NA,NA,NA,""
"image-keyboard-response",369,241436,"0.0-4.119-0.119","3p94hy7tyajmgd9",264,"147.csv","","238.39999999990687","resources/trios/L1T4A3.jpg","39","restless",0.7,0.6,0.5,0.980567198266231,"false"
"image-keyboard-response",370,241837,"0.0-4.119-1.119","3p94hy7tyajmgd9",264,"147.csv","","null","resources/maskTrios/BBA3.jpg","null","",NA,NA,NA,NA,""
"image-keyboard-response",371,243039,"0.0-4.119-2.119","3p94hy7tyajmgd9",264,"147.csv","","null","resources/images/fishbone.png","null","",NA,NA,NA,NA,""
"image-keyboard-response",372,243078,"0.0-4.120-0.120","3p94hy7tyajmgd9",264,"147.csv","","38.799999999813735","resources/trios/L1T4A3.jpg","38","restless",0.7,0.6,0.5,0.258235087781886,"true"
"image-keyboard-response",373,243479,"0.0-4.120-1.120","3p94hy7tyajmgd9",264,"147.csv","","null","resources/maskTrios/BT4B.jpg","null","",NA,NA,NA,NA,""
"image-keyboard-response",374,244680,"0.0-4.120-2.120","3p94hy7tyajmgd9",264,"147.csv","","null","resources/images/coin2.png","null","",NA,NA,NA,NA,""
"image-keyboard-response",375,244891,"0.0-4.121-0.121","3p94hy7tyajmgd9",264,"147.csv","","210.5","resources/trios/L1T4A3.jpg","37","restless",0.7,0.6,0.5,0.302373293498795,"true"
"image-keyboard-response",376,245293,"0.0-4.121-1.121","3p94hy7tyajmgd9",264,"147.csv","","null","resources/maskTrios/L1BB.jpg","null","",NA,NA,NA,NA,""
"image-keyboard-response",377,246494,"0.0-4.121-2.121","3p94hy7tyajmgd9",264,"147.csv","","null","resources/images/coin2.png","null","",NA,NA,NA,NA,""
"image-keyboard-response",378,246590,"0.0-4.122-0.122","3p94hy7tyajmgd9",264,"147.csv","","95.10000000009313","resources/trios/L1T4A3.jpg","38","restless",0.7,0.6,0.5,0.852103219475394,"false"
"image-keyboard-response",379,246992,"0.0-4.122-1.122","3p94hy7tyajmgd9",264,"147.csv","","null","resources/maskTrios/BT4B.jpg","null","",NA,NA,NA,NA,""
"image-keyboard-response",380,248193,"0.0-4.122-2.122","3p94hy7tyajmgd9",264,"147.csv","","null","resources/images/fishbone.png","null","",NA,NA,NA,NA,""
"image-keyboard-response",381,248658,"0.0-4.123-0.123","3p94hy7tyajmgd9",264,"147.csv","","463.89999999990687","resources/trios/L1T4A3.jpg","37","restless",0.7,0.6,0.5,0.321911937066182,"true"
"image-keyboard-response",382,249059,"0.0-4.123-1.123","3p94hy7tyajmgd9",264,"147.csv","","null","resources/maskTrios/L1BB.jpg","null","",NA,NA,NA,NA,""
"image-keyboard-response",383,250261,"0.0-4.123-2.123","3p94hy7tyajmgd9",264,"147.csv","","null","resources/images/coin2.png","null","",NA,NA,NA,NA,""
"image-keyboard-response",384,252571,"0.0-4.124-0.124","3p94hy7tyajmgd9",264,"147.csv","","2309.899999999907","resources/trios/L1T4A3.jpg","37","restless",0.7,0.6,0.5,0.824241748529725,"false"
"image-keyboard-response",385,252973,"0.0-4.124-1.124","3p94hy7tyajmgd9",264,"147.csv","","null","resources/maskTrios/L1BB.jpg","null","",NA,NA,NA,NA,""
"image-keyboard-response",386,254175,"0.0-4.124-2.124","3p94hy7tyajmgd9",264,"147.csv","","null","resources/images/fishbone.png","null","",NA,NA,NA,NA,""
"image-keyboard-response",387,255376,"0.0-4.125-0.125","3p94hy7tyajmgd9",264,"147.csv","","1200.2000000001863","resources/trios/L1T4A3.jpg","38","restless",0.7,0.6,0.5,0.376886246098086,"true"
"image-keyboard-response",388,255777,"0.0-4.125-1.125","3p94hy7tyajmgd9",264,"147.csv","","null","resources/maskTrios/BT4B.jpg","null","",NA,NA,NA,NA,""
"image-keyboard-response",389,256979,"0.0-4.125-2.125","3p94hy7tyajmgd9",264,"147.csv","","null","resources/images/coin2.png","null","",NA,NA,NA,NA,""
"image-keyboard-response",390,258352,"0.0-4.126-0.126","3p94hy7tyajmgd9",264,"147.csv","","1372.2000000001863","resources/trios/L1T4A3.jpg","37","restless",0.7,0.6,0.5,0.833215998154259,"false"
"image-keyboard-response",391,258754,"0.0-4.126-1.126","3p94hy7tyajmgd9",264,"147.csv","","null","resources/maskTrios/L1BB.jpg","null","",NA,NA,NA,NA,""
"image-keyboard-response",392,259956,"0.0-4.126-2.126","3p94hy7tyajmgd9",264,"147.csv","","null","resources/images/fishbone.png","null","",NA,NA,NA,NA,""
"image-keyboard-response",393,262349,"0.0-4.127-0.127","3p94hy7tyajmgd9",264,"147.csv","","2392.399999999907","resources/trios/L1T4A3.jpg","38","restless",0.6,0.6,0.5,0.378280813149699,"true"
"image-keyboard-response",394,262750,"0.0-4.127-1.127","3p94hy7tyajmgd9",264,"147.csv","","null","resources/maskTrios/BT4B.jpg","null","",NA,NA,NA,NA,""
"image-keyboard-response",395,263951,"0.0-4.127-2.127","3p94hy7tyajmgd9",264,"147.csv","","null","resources/images/coin2.png","null","",NA,NA,NA,NA,""
"image-keyboard-response",396,267442,"0.0-4.128-0.128","3p94hy7tyajmgd9",264,"147.csv","","3490.3000000000466","resources/trios/L1T4A3.jpg","38","restless",0.6,0.6,0.6,0.695583195685318,"false"
"image-keyboard-response",397,267844,"0.0-4.128-1.128","3p94hy7tyajmgd9",264,"147.csv","","null","resources/maskTrios/BT4B.jpg","null","",NA,NA,NA,NA,""
"image-keyboard-response",398,269045,"0.0-4.128-2.128","3p94hy7tyajmgd9",264,"147.csv","","null","resources/images/fishbone.png","null","",NA,NA,NA,NA,""
"image-keyboard-response",399,269295,"0.0-4.129-0.129","3p94hy7tyajmgd9",264,"147.csv","","248.5","resources/trios/L1T4A3.jpg","38","restless",0.6,0.6,0.7,0.801562713549378,"false"
"image-keyboard-response",400,269697,"0.0-4.129-1.129","3p94hy7tyajmgd9",264,"147.csv","","null","resources/maskTrios/BT4B.jpg","null","",NA,NA,NA,NA,""
"image-keyboard-response",401,270898,"0.0-4.129-2.129","3p94hy7tyajmgd9",264,"147.csv","","null","resources/images/fishbone.png","null","",NA,NA,NA,NA,""
"image-keyboard-response",402,271083,"0.0-4.130-0.130","3p94hy7tyajmgd9",264,"147.csv","","184.5","resources/trios/L1T4A3.jpg","39","restless",0.6,0.6,0.7,0.454470567394224,"true"
"image-keyboard-response",403,271485,"0.0-4.130-1.130","3p94hy7tyajmgd9",264,"147.csv","","null","resources/maskTrios/BBA3.jpg","null","",NA,NA,NA,NA,""
"image-keyboard-response",404,272697,"0.0-4.130-2.130","3p94hy7tyajmgd9",264,"147.csv","","null","resources/images/coin2.png","null","",NA,NA,NA,NA,""
"image-keyboard-response",405,272763,"0.0-4.131-0.131","3p94hy7tyajmgd9",264,"147.csv","","65.5","resources/trios/L1T4A3.jpg","37","restless",0.6,0.6,0.7,0.707884572945646,"false"
"image-keyboard-response",406,273165,"0.0-4.131-1.131","3p94hy7tyajmgd9",264,"147.csv","","null","resources/maskTrios/L1BB.jpg","null","",NA,NA,NA,NA,""
"image-keyboard-response",407,274367,"0.0-4.131-2.131","3p94hy7tyajmgd9",264,"147.csv","","null","resources/images/fishbone.png","null","",NA,NA,NA,NA,""
"image-keyboard-response",408,274462,"0.0-4.132-0.132","3p94hy7tyajmgd9",264,"147.csv","","94.69999999995343","resources/trios/L1T4A3.jpg","37","restless",0.6,0.6,0.7,0.0477565997036449,"true"
"image-keyboard-response",409,274863,"0.0-4.132-1.132","3p94hy7tyajmgd9",264,"147.csv","","null","resources/maskTrios/L1BB.jpg","null","",NA,NA,NA,NA,""
"image-keyboard-response",410,276065,"0.0-4.132-2.132","3p94hy7tyajmgd9",264,"147.csv","","null","resources/images/coin2.png","null","",NA,NA,NA,NA,""
"image-keyboard-response",411,276149,"0.0-4.133-0.133","3p94hy7tyajmgd9",264,"147.csv","","83.5","resources/trios/L1T4A3.jpg","39","restless",0.6,0.6,0.7,0.361333262278631,"true"
"image-keyboard-response",412,276551,"0.0-4.133-1.133","3p94hy7tyajmgd9",264,"147.csv","","null","resources/maskTrios/BBA3.jpg","null","",NA,NA,NA,NA,""
"image-keyboard-response",413,277753,"0.0-4.133-2.133","3p94hy7tyajmgd9",264,"147.csv","","null","resources/images/coin2.png","null","",NA,NA,NA,NA,""
"image-keyboard-response",414,278098,"0.0-4.134-0.134","3p94hy7tyajmgd9",264,"147.csv","","344.5","resources/trios/L1T4A3.jpg","37","restless",0.6,0.6,0.7,0.587591801447859,"true"
"image-keyboard-response",415,278500,"0.0-4.134-1.134","3p94hy7tyajmgd9",264,"147.csv","","null","resources/maskTrios/L1BB.jpg","null","",NA,NA,NA,NA,""
"image-keyboard-response",416,279702,"0.0-4.134-2.134","3p94hy7tyajmgd9",264,"147.csv","","null","resources/images/coin2.png","null","",NA,NA,NA,NA,""
"image-keyboard-response",417,279816,"0.0-4.135-0.135","3p94hy7tyajmgd9",264,"147.csv","","113.5","resources/trios/L1T4A3.jpg","37","restless",0.6,0.6,0.7,0.495600826072098,"true"
"image-keyboard-response",418,280217,"0.0-4.135-1.135","3p94hy7tyajmgd9",264,"147.csv","","null","resources/maskTrios/L1BB.jpg","null","",NA,NA,NA,NA,""
"image-keyboard-response",419,281419,"0.0-4.135-2.135","3p94hy7tyajmgd9",264,"147.csv","","null","resources/images/coin2.png","null","",NA,NA,NA,NA,""
"image-keyboard-response",420,281543,"0.0-4.136-0.136","3p94hy7tyajmgd9",264,"147.csv","","123.30000000004657","resources/trios/L1T4A3.jpg","39","restless",0.6,0.6,0.7,0.44847287746692,"true"
"image-keyboard-response",421,281944,"0.0-4.136-1.136","3p94hy7tyajmgd9",264,"147.csv","","null","resources/maskTrios/BBA3.jpg","null","",NA,NA,NA,NA,""
"image-keyboard-response",422,283145,"0.0-4.136-2.136","3p94hy7tyajmgd9",264,"147.csv","","null","resources/images/coin2.png","null","",NA,NA,NA,NA,""
"image-keyboard-response",423,283186,"0.0-4.137-0.137","3p94hy7tyajmgd9",264,"147.csv","","40.10000000009313","resources/trios/L1T4A3.jpg","39","restless",0.5,0.6,0.6,0.938339232596639,"false"
"image-keyboard-response",424,283587,"0.0-4.137-1.137","3p94hy7tyajmgd9",264,"147.csv","","null","resources/maskTrios/BBA3.jpg","null","",NA,NA,NA,NA,""
"image-keyboard-response",425,284789,"0.0-4.137-2.137","3p94hy7tyajmgd9",264,"147.csv","","null","resources/images/fishbone.png","null","",NA,NA,NA,NA,""
"image-keyboard-response",426,284822,"0.0-4.138-0.138","3p94hy7tyajmgd9",264,"147.csv","","31.300000000046566","resources/trios/L1T4A3.jpg","38","restless",0.5,0.6,0.6,0.0119427504723721,"true"
"image-keyboard-response",427,285223,"0.0-4.138-1.138","3p94hy7tyajmgd9",264,"147.csv","","null","resources/maskTrios/BT4B.jpg","null","",NA,NA,NA,NA,""
"image-keyboard-response",428,286424,"0.0-4.138-2.138","3p94hy7tyajmgd9",264,"147.csv","","null","resources/images/coin2.png","null","",NA,NA,NA,NA,""
"image-keyboard-response",429,286493,"0.0-4.139-0.139","3p94hy7tyajmgd9",264,"147.csv","","68.70000000018626","resources/trios/L1T4A3.jpg","37","restless",0.5,0.6,0.6,0.510520826429731,"false"
"image-keyboard-response",430,286894,"0.0-4.139-1.139","3p94hy7tyajmgd9",264,"147.csv","","null","resources/maskTrios/L1BB.jpg","null","",NA,NA,NA,NA,""
"image-keyboard-response",431,288096,"0.0-4.139-2.139","3p94hy7tyajmgd9",264,"147.csv","","null","resources/images/fishbone.png","null","",NA,NA,NA,NA,""
"image-keyboard-response",432,288138,"0.0-4.140-0.140","3p94hy7tyajmgd9",264,"147.csv","","40.60000000009313","resources/trios/L1T4A3.jpg","37","restless",0.5,0.6,0.6,0.719705540078089,"false"
"image-keyboard-response",433,288539,"0.0-4.140-1.140","3p94hy7tyajmgd9",264,"147.csv","","null","resources/maskTrios/L1BB.jpg","null","",NA,NA,NA,NA,""
"image-keyboard-response",434,289742,"0.0-4.140-2.140","3p94hy7tyajmgd9",264,"147.csv","","null","resources/images/fishbone.png","null","",NA,NA,NA,NA,""
"image-keyboard-response",435,289947,"0.0-4.141-0.141","3p94hy7tyajmgd9",264,"147.csv","","204.5","resources/trios/L1T4A3.jpg","37","restless",0.5,0.6,0.6,0.547073700129971,"false"
"image-keyboard-response",436,290349,"0.0-4.141-1.141","3p94hy7tyajmgd9",264,"147.csv","","null","resources/maskTrios/L1BB.jpg","null","",NA,NA,NA,NA,""
"image-keyboard-response",437,291550,"0.0-4.141-2.141","3p94hy7tyajmgd9",264,"147.csv","","null","resources/images/fishbone.png","null","",NA,NA,NA,NA,""
"image-keyboard-response",438,291705,"0.0-4.142-0.142","3p94hy7tyajmgd9",264,"147.csv","","153.79999999981374","resources/trios/L1T4A3.jpg","38","restless",0.5,0.6,0.6,0.696122607775114,"false"
"image-keyboard-response",439,292106,"0.0-4.142-1.142","3p94hy7tyajmgd9",264,"147.csv","","null","resources/maskTrios/BT4B.jpg","null","",NA,NA,NA,NA,""
"image-keyboard-response",440,293308,"0.0-4.142-2.142","3p94hy7tyajmgd9",264,"147.csv","","null","resources/images/fishbone.png","null","",NA,NA,NA,NA,""
"image-keyboard-response",441,293453,"0.0-4.143-0.143","3p94hy7tyajmgd9",264,"147.csv","","144","resources/trios/L1T4A3.jpg","37","restless",0.5,0.7,0.6,0.666622169912393,"false"
"image-keyboard-response",442,293854,"0.0-4.143-1.143","3p94hy7tyajmgd9",264,"147.csv","","null","resources/maskTrios/L1BB.jpg","null","",NA,NA,NA,NA,""
"image-keyboard-response",443,295055,"0.0-4.143-2.143","3p94hy7tyajmgd9",264,"147.csv","","null","resources/images/fishbone.png","null","",NA,NA,NA,NA,""
"image-keyboard-response",444,295215,"0.0-4.144-0.144","3p94hy7tyajmgd9",264,"147.csv","","159.10000000009313","resources/trios/L1T4A3.jpg","37","restless",0.5,0.8,0.6,0.0549796439217403,"true"
"image-keyboard-response",445,295617,"0.0-4.144-1.144","3p94hy7tyajmgd9",264,"147.csv","","null","resources/maskTrios/L1BB.jpg","null","",NA,NA,NA,NA,""
"image-keyboard-response",446,296825,"0.0-4.144-2.144","3p94hy7tyajmgd9",264,"147.csv","","null","resources/images/coin2.png","null","",NA,NA,NA,NA,""
"image-keyboard-response",447,296867,"0.0-4.145-0.145","3p94hy7tyajmgd9",264,"147.csv","","41.5","resources/trios/L1T4A3.jpg","37","restless",0.5,0.8,0.6,0.0569958068388103,"true"
"image-keyboard-response",448,297268,"0.0-4.145-1.145","3p94hy7tyajmgd9",264,"147.csv","","null","resources/maskTrios/L1BB.jpg","null","",NA,NA,NA,NA,""
"image-keyboard-response",449,298470,"0.0-4.145-2.145","3p94hy7tyajmgd9",264,"147.csv","","null","resources/images/coin2.png","null","",NA,NA,NA,NA,""
"image-keyboard-response",450,298577,"0.0-4.146-0.146","3p94hy7tyajmgd9",264,"147.csv","","106.4000000001397","resources/trios/L1T4A3.jpg","38","restless",0.5,0.8,0.6,0.736005094874304,"true"
"image-keyboard-response",451,298991,"0.0-4.146-1.146","3p94hy7tyajmgd9",264,"147.csv","","null","resources/maskTrios/BT4B.jpg","null","",NA,NA,NA,NA,""
"image-keyboard-response",452,300193,"0.0-4.146-2.146","3p94hy7tyajmgd9",264,"147.csv","","null","resources/images/coin2.png","null","",NA,NA,NA,NA,""
"image-keyboard-response",453,300299,"0.0-4.147-0.147","3p94hy7tyajmgd9",264,"147.csv","","105.29999999981374","resources/trios/L1T4A3.jpg","37","restless",0.5,0.8,0.6,0.682900199388818,"false"
"image-keyboard-response",454,300701,"0.0-4.147-1.147","3p94hy7tyajmgd9",264,"147.csv","","null","resources/maskTrios/L1BB.jpg","null","",NA,NA,NA,NA,""
"image-keyboard-response",455,301902,"0.0-4.147-2.147","3p94hy7tyajmgd9",264,"147.csv","","null","resources/images/fishbone.png","null","",NA,NA,NA,NA,""
"image-keyboard-response",456,302004,"0.0-4.148-0.148","3p94hy7tyajmgd9",264,"147.csv","","101.0999999998603","resources/trios/L1T4A3.jpg","37","restless",0.5,0.8,0.6,0.399536150054095,"true"
"image-keyboard-response",457,302406,"0.0-4.148-1.148","3p94hy7tyajmgd9",264,"147.csv","","null","resources/maskTrios/L1BB.jpg","null","",NA,NA,NA,NA,""
"image-keyboard-response",458,303608,"0.0-4.148-2.148","3p94hy7tyajmgd9",264,"147.csv","","null","resources/images/coin2.png","null","",NA,NA,NA,NA,""
"image-keyboard-response",459,303660,"0.0-4.149-0.149","3p94hy7tyajmgd9",264,"147.csv","","51.200000000186265","resources/trios/L1T4A3.jpg","39","restless",0.4,0.8,0.5,0.742629082595122,"false"
"image-keyboard-response",460,304061,"0.0-4.149-1.149","3p94hy7tyajmgd9",264,"147.csv","","null","resources/maskTrios/BBA3.jpg","null","",NA,NA,NA,NA,""
"image-keyboard-response",461,305263,"0.0-4.149-2.149","3p94hy7tyajmgd9",264,"147.csv","","null","resources/images/fishbone.png","null","",NA,NA,NA,NA,""
"image-keyboard-response",462,305300,"0.0-4.150-0.150","3p94hy7tyajmgd9",264,"147.csv","","36.5","resources/trios/L1T4A3.jpg","39","restless",0.4,0.8,0.5,0.993211852530375,"false"
"image-keyboard-response",463,305702,"0.0-4.150-1.150","3p94hy7tyajmgd9",264,"147.csv","","null","resources/maskTrios/BBA3.jpg","null","",NA,NA,NA,NA,""
"image-keyboard-response",464,306904,"0.0-4.150-2.150","3p94hy7tyajmgd9",264,"147.csv","","null","resources/images/fishbone.png","null","",NA,NA,NA,NA,""
"image-keyboard-response",465,307212,"0.0-4.151-0.151","3p94hy7tyajmgd9",264,"147.csv","","307.79999999981374","resources/trios/L1T4A3.jpg","39","restless",0.4,0.8,0.5,0.629211432048961,"false"
"image-keyboard-response",466,307613,"0.0-4.151-1.151","3p94hy7tyajmgd9",264,"147.csv","","null","resources/maskTrios/BBA3.jpg","null","",NA,NA,NA,NA,""
"image-keyboard-response",467,308815,"0.0-4.151-2.151","3p94hy7tyajmgd9",264,"147.csv","","null","resources/images/fishbone.png","null","",NA,NA,NA,NA,""
"image-keyboard-response",468,308901,"0.0-4.152-0.152","3p94hy7tyajmgd9",264,"147.csv","","85.19999999995343","resources/trios/L1T4A3.jpg","37","restless",0.4,0.7,0.5,0.613218920573784,"false"
"image-keyboard-response",469,309304,"0.0-4.152-1.152","3p94hy7tyajmgd9",264,"147.csv","","null","resources/maskTrios/L1BB.jpg","null","",NA,NA,NA,NA,""
"image-keyboard-response",470,310505,"0.0-4.152-2.152","3p94hy7tyajmgd9",264,"147.csv","","null","resources/images/fishbone.png","null","",NA,NA,NA,NA,""
"image-keyboard-response",471,310517,"0.0-4.153-0.153","3p94hy7tyajmgd9",264,"147.csv","","11.600000000093132","resources/trios/L1T4A3.jpg","38","restless",0.4,0.7,0.5,0.219483612890861,"true"
"image-keyboard-response",472,310919,"0.0-4.153-1.153","3p94hy7tyajmgd9",264,"147.csv","","null","resources/maskTrios/BT4B.jpg","null","",NA,NA,NA,NA,""
"image-keyboard-response",473,312120,"0.0-4.153-2.153","3p94hy7tyajmgd9",264,"147.csv","","null","resources/images/coin2.png","null","",NA,NA,NA,NA,""
"image-keyboard-response",474,312254,"0.0-4.154-0.154","3p94hy7tyajmgd9",264,"147.csv","","132.30000000004657","resources/trios/L1T4A3.jpg","38","restless",0.4,0.8,0.5,0.714473425134442,"true"
"image-keyboard-response",475,312655,"0.0-4.154-1.154","3p94hy7tyajmgd9",264,"147.csv","","null","resources/maskTrios/BT4B.jpg","null","",NA,NA,NA,NA,""
"image-keyboard-response",476,313857,"0.0-4.154-2.154","3p94hy7tyajmgd9",264,"147.csv","","null","resources/images/coin2.png","null","",NA,NA,NA,NA,""
"image-keyboard-response",477,313909,"0.0-4.155-0.155","3p94hy7tyajmgd9",264,"147.csv","","51.60000000009313","resources/trios/L1T4A3.jpg","39","restless",0.5,0.8,0.6,0.273586919470996,"true"
"image-keyboard-response",478,314310,"0.0-4.155-1.155","3p94hy7tyajmgd9",264,"147.csv","","null","resources/maskTrios/BBA3.jpg","null","",NA,NA,NA,NA,""
"image-keyboard-response",479,315511,"0.0-4.155-2.155","3p94hy7tyajmgd9",264,"147.csv","","null","resources/images/coin2.png","null","",NA,NA,NA,NA,""
"image-keyboard-response",480,315642,"0.0-4.156-0.156","3p94hy7tyajmgd9",264,"147.csv","","129.9000000001397","resources/trios/L1T4A3.jpg","38","restless",0.5,0.8,0.6,0.976359864716718,"false"
"image-keyboard-response",481,316043,"0.0-4.156-1.156","3p94hy7tyajmgd9",264,"147.csv","","null","resources/maskTrios/BT4B.jpg","null","",NA,NA,NA,NA,""
"image-keyboard-response",482,317245,"0.0-4.156-2.156","3p94hy7tyajmgd9",264,"147.csv","","null","resources/images/fishbone.png","null","",NA,NA,NA,NA,""
"image-keyboard-response",483,317262,"0.0-4.157-0.157","3p94hy7tyajmgd9",264,"147.csv","","16.300000000046566","resources/trios/L1T4A3.jpg","39","restless",0.5,0.8,0.6,0.642300709782344,"false"
"image-keyboard-response",484,317663,"0.0-4.157-1.157","3p94hy7tyajmgd9",264,"147.csv","","null","resources/maskTrios/BBA3.jpg","null","",NA,NA,NA,NA,""
"image-keyboard-response",485,318864,"0.0-4.157-2.157","3p94hy7tyajmgd9",264,"147.csv","","null","resources/images/fishbone.png","null","",NA,NA,NA,NA,""
"image-keyboard-response",486,319014,"0.0-4.158-0.158","3p94hy7tyajmgd9",264,"147.csv","","148.60000000009313","resources/trios/L1T4A3.jpg","37","restless",0.5,0.7,0.6,0.174444400634032,"true"
"image-keyboard-response",487,319416,"0.0-4.158-1.158","3p94hy7tyajmgd9",264,"147.csv","","null","resources/maskTrios/L1BB.jpg","null","",NA,NA,NA,NA,""
"image-keyboard-response",488,320618,"0.0-4.158-2.158","3p94hy7tyajmgd9",264,"147.csv","","null","resources/images/coin2.png","null","",NA,NA,NA,NA,""
"image-keyboard-response",489,320624,"0.0-4.159-0.159","3p94hy7tyajmgd9",264,"147.csv","","4.800000000046566","resources/trios/L1T4A3.jpg","38","restless",0.5,0.7,0.6,0.743809625677253,"false"
"image-keyboard-response",490,321026,"0.0-4.159-1.159","3p94hy7tyajmgd9",264,"147.csv","","null","resources/maskTrios/BT4B.jpg","null","",NA,NA,NA,NA,""
"image-keyboard-response",491,322227,"0.0-4.159-2.159","3p94hy7tyajmgd9",264,"147.csv","","null","resources/images/fishbone.png","null","",NA,NA,NA,NA,""
"image-keyboard-response",492,322284,"0.0-4.160-0.160","3p94hy7tyajmgd9",264,"147.csv","","56.199999999953434","resources/trios/L1T4A3.jpg","37","restless",0.5,0.7,0.6,0.0819739484351887,"true"
"image-keyboard-response",493,322685,"0.0-4.160-1.160","3p94hy7tyajmgd9",264,"147.csv","","null","resources/maskTrios/L1BB.jpg","null","",NA,NA,NA,NA,""
"image-keyboard-response",494,323887,"0.0-4.160-2.160","3p94hy7tyajmgd9",264,"147.csv","","null","resources/images/coin2.png","null","",NA,NA,NA,NA,""
"image-keyboard-response",495,324186,"0.0-4.161-0.161","3p94hy7tyajmgd9",264,"147.csv","","298","resources/trios/L1T4A3.jpg","37","restless",0.5,0.8,0.6,0.138308804209636,"true"
"image-keyboard-response",496,324587,"0.0-4.161-1.161","3p94hy7tyajmgd9",264,"147.csv","","null","resources/maskTrios/L1BB.jpg","null","",NA,NA,NA,NA,""
"image-keyboard-response",497,325789,"0.0-4.161-2.161","3p94hy7tyajmgd9",264,"147.csv","","null","resources/images/coin2.png","null","",NA,NA,NA,NA,""
"image-keyboard-response",498,325922,"0.0-4.162-0.162","3p94hy7tyajmgd9",264,"147.csv","","132.10000000009313","resources/trios/L1T4A3.jpg","38","restless",0.5,0.8,0.6,0.571659796462249,"true"
"image-keyboard-response",499,326323,"0.0-4.162-1.162","3p94hy7tyajmgd9",264,"147.csv","","null","resources/maskTrios/BT4B.jpg","null","",NA,NA,NA,NA,""
"image-keyboard-response",500,327525,"0.0-4.162-2.162","3p94hy7tyajmgd9",264,"147.csv","","null","resources/images/coin2.png","null","",NA,NA,NA,NA,""
"image-keyboard-response",501,327581,"0.0-4.163-0.163","3p94hy7tyajmgd9",264,"147.csv","","55","resources/trios/L1T4A3.jpg","39","restless",0.5,0.8,0.6,0.659697310198349,"false"
"image-keyboard-response",502,327982,"0.0-4.163-1.163","3p94hy7tyajmgd9",264,"147.csv","","null","resources/maskTrios/BBA3.jpg","null","",NA,NA,NA,NA,""
"image-keyboard-response",503,329183,"0.0-4.163-2.163","3p94hy7tyajmgd9",264,"147.csv","","null","resources/images/fishbone.png","null","",NA,NA,NA,NA,""
"image-keyboard-response",504,329259,"0.0-4.164-0.164","3p94hy7tyajmgd9",264,"147.csv","","74.5999999998603","resources/trios/L1T4A3.jpg","39","restless",0.5,0.8,0.6,0.183342397343178,"true"
"image-keyboard-response",505,329661,"0.0-4.164-1.164","3p94hy7tyajmgd9",264,"147.csv","","null","resources/maskTrios/BBA3.jpg","null","",NA,NA,NA,NA,""
"image-keyboard-response",506,330863,"0.0-4.164-2.164","3p94hy7tyajmgd9",264,"147.csv","","null","resources/images/coin2.png","null","",NA,NA,NA,NA,""
"image-keyboard-response",507,331077,"0.0-4.165-0.165","3p94hy7tyajmgd9",264,"147.csv","","213.60000000009313","resources/trios/L1T4A3.jpg","37","restless",0.5,0.8,0.5,0.75616524355554,"false"
"image-keyboard-response",508,331479,"0.0-4.165-1.165","3p94hy7tyajmgd9",264,"147.csv","","null","resources/maskTrios/L1BB.jpg","null","",NA,NA,NA,NA,""
"image-keyboard-response",509,332696,"0.0-4.165-2.165","3p94hy7tyajmgd9",264,"147.csv","","null","resources/images/fishbone.png","null","",NA,NA,NA,NA,""
"image-keyboard-response",510,332880,"0.0-4.166-0.166","3p94hy7tyajmgd9",264,"147.csv","","182.39999999990687","resources/trios/L1T4A3.jpg","37","restless",0.5,0.8,0.5,0.758863510610775,"false"
"image-keyboard-response",511,333281,"0.0-4.166-1.166","3p94hy7tyajmgd9",264,"147.csv","","null","resources/maskTrios/L1BB.jpg","null","",NA,NA,NA,NA,""
"image-keyboard-response",512,334483,"0.0-4.166-2.166","3p94hy7tyajmgd9",264,"147.csv","","null","resources/images/fishbone.png","null","",NA,NA,NA,NA,""
"image-keyboard-response",513,334583,"0.0-4.167-0.167","3p94hy7tyajmgd9",264,"147.csv","","99.80000000004657","resources/trios/L1T4A3.jpg","37","restless",0.5,0.8,0.5,0.0800342804067786,"true"
"image-keyboard-response",514,334984,"0.0-4.167-1.167","3p94hy7tyajmgd9",264,"147.csv","","null","resources/maskTrios/L1BB.jpg","null","",NA,NA,NA,NA,""
"image-keyboard-response",515,336186,"0.0-4.167-2.167","3p94hy7tyajmgd9",264,"147.csv","","null","resources/images/coin2.png","null","",NA,NA,NA,NA,""
"image-keyboard-response",516,336356,"0.0-4.168-0.168","3p94hy7tyajmgd9",264,"147.csv","","169.30000000004657","resources/trios/L1T4A3.jpg","37","restless",0.5,0.8,0.5,0.642076531237331,"false"
"image-keyboard-response",517,336759,"0.0-4.168-1.168","3p94hy7tyajmgd9",264,"147.csv","","null","resources/maskTrios/L1BB.jpg","null","",NA,NA,NA,NA,""
"image-keyboard-response",518,337960,"0.0-4.168-2.168","3p94hy7tyajmgd9",264,"147.csv","","null","resources/images/fishbone.png","null","",NA,NA,NA,NA,""
"image-keyboard-response",519,338026,"0.0-4.169-0.169","3p94hy7tyajmgd9",264,"147.csv","","64.60000000009313","resources/trios/L1T4A3.jpg","37","restless",0.5,0.8,0.5,0.310378480587143,"true"
"image-keyboard-response",520,338428,"0.0-4.169-1.169","3p94hy7tyajmgd9",264,"147.csv","","null","resources/maskTrios/L1BB.jpg","null","",NA,NA,NA,NA,""
"image-keyboard-response",521,339630,"0.0-4.169-2.169","3p94hy7tyajmgd9",264,"147.csv","","null","resources/images/coin2.png","null","",NA,NA,NA,NA,""
"image-keyboard-response",522,339815,"0.0-4.170-0.170","3p94hy7tyajmgd9",264,"147.csv","","185.10000000009313","resources/trios/L1T4A3.jpg","38","restless",0.5,0.9,0.5,0.501577401985959,"true"
"image-keyboard-response",523,340217,"0.0-4.170-1.170","3p94hy7tyajmgd9",264,"147.csv","","null","resources/maskTrios/BT4B.jpg","null","",NA,NA,NA,NA,""
"image-keyboard-response",524,341419,"0.0-4.170-2.170","3p94hy7tyajmgd9",264,"147.csv","","null","resources/images/coin2.png","null","",NA,NA,NA,NA,""
"image-keyboard-response",525,341631,"0.0-4.171-0.171","3p94hy7tyajmgd9",264,"147.csv","","211.39999999990687","resources/trios/L1T4A3.jpg","38","restless",0.5,0.9,0.5,0.177959549626397,"true"
"image-keyboard-response",526,342032,"0.0-4.171-1.171","3p94hy7tyajmgd9",264,"147.csv","","null","resources/maskTrios/BT4B.jpg","null","",NA,NA,NA,NA,""
"image-keyboard-response",527,343233,"0.0-4.171-2.171","3p94hy7tyajmgd9",264,"147.csv","","null","resources/images/coin2.png","null","",NA,NA,NA,NA,""
"image-keyboard-response",528,343377,"0.0-4.172-0.172","3p94hy7tyajmgd9",264,"147.csv","","143.10000000009313","resources/trios/L1T4A3.jpg","38","restless",0.5,0.9,0.5,0.236478105369779,"true"
"image-keyboard-response",529,343780,"0.0-4.172-1.172","3p94hy7tyajmgd9",264,"147.csv","","null","resources/maskTrios/BT4B.jpg","null","",NA,NA,NA,NA,""
"image-keyboard-response",530,344982,"0.0-4.172-2.172","3p94hy7tyajmgd9",264,"147.csv","","null","resources/images/coin2.png","null","",NA,NA,NA,NA,""
"image-keyboard-response",531,345448,"0.0-4.173-0.173","3p94hy7tyajmgd9",264,"147.csv","","465.19999999995343","resources/trios/L1T4A3.jpg","37","restless",0.5,0.9,0.5,0.767149045450898,"false"
"image-keyboard-response",532,345849,"0.0-4.173-1.173","3p94hy7tyajmgd9",264,"147.csv","","null","resources/maskTrios/L1BB.jpg","null","",NA,NA,NA,NA,""
"image-keyboard-response",533,347050,"0.0-4.173-2.173","3p94hy7tyajmgd9",264,"147.csv","","null","resources/images/fishbone.png","null","",NA,NA,NA,NA,""
"image-keyboard-response",534,347078,"0.0-4.174-0.174","3p94hy7tyajmgd9",264,"147.csv","","27.0999999998603","resources/trios/L1T4A3.jpg","37","restless",0.6,0.9,0.5,0.637746656717378,"false"
"image-keyboard-response",535,347481,"0.0-4.174-1.174","3p94hy7tyajmgd9",264,"147.csv","","null","resources/maskTrios/L1BB.jpg","null","",NA,NA,NA,NA,""
"image-keyboard-response",536,348683,"0.0-4.174-2.174","3p94hy7tyajmgd9",264,"147.csv","","null","resources/images/fishbone.png","null","",NA,NA,NA,NA,""
"image-keyboard-response",537,348738,"0.0-4.175-0.175","3p94hy7tyajmgd9",264,"147.csv","","54.5","resources/trios/L1T4A3.jpg","37","restless",0.6,0.9,0.5,0.174812422255654,"true"
"image-keyboard-response",538,349139,"0.0-4.175-1.175","3p94hy7tyajmgd9",264,"147.csv","","null","resources/maskTrios/L1BB.jpg","null","",NA,NA,NA,NA,""
"image-keyboard-response",539,350341,"0.0-4.175-2.175","3p94hy7tyajmgd9",264,"147.csv","","null","resources/images/coin2.png","null","",NA,NA,NA,NA,""
"image-keyboard-response",540,350448,"0.0-4.176-0.176","3p94hy7tyajmgd9",264,"147.csv","","106.0999999998603","resources/trios/L1T4A3.jpg","38","restless",0.6,0.9,0.5,0.506462928536041,"true"
"image-keyboard-response",541,350850,"0.0-4.176-1.176","3p94hy7tyajmgd9",264,"147.csv","","null","resources/maskTrios/BT4B.jpg","null","",NA,NA,NA,NA,""
"image-keyboard-response",542,352052,"0.0-4.176-2.176","3p94hy7tyajmgd9",264,"147.csv","","null","resources/images/coin2.png","null","",NA,NA,NA,NA,""
"image-keyboard-response",543,352137,"0.0-4.177-0.177","3p94hy7tyajmgd9",264,"147.csv","","84.20000000018626","resources/trios/L1T4A3.jpg","38","restless",0.6,0.9,0.5,0.0113942661013773,"true"
"image-keyboard-response",544,352539,"0.0-4.177-1.177","3p94hy7tyajmgd9",264,"147.csv","","null","resources/maskTrios/BT4B.jpg","null","",NA,NA,NA,NA,""
"image-keyboard-response",545,353740,"0.0-4.177-2.177","3p94hy7tyajmgd9",264,"147.csv","","null","resources/images/coin2.png","null","",NA,NA,NA,NA,""
"image-keyboard-response",546,353983,"0.0-4.178-0.178","3p94hy7tyajmgd9",264,"147.csv","","242.10000000009313","resources/trios/L1T4A3.jpg","39","restless",0.6,0.8,0.5,0.927688556651579,"false"
"image-keyboard-response",547,354392,"0.0-4.178-1.178","3p94hy7tyajmgd9",264,"147.csv","","null","resources/maskTrios/BBA3.jpg","null","",NA,NA,NA,NA,""
"image-keyboard-response",548,355594,"0.0-4.178-2.178","3p94hy7tyajmgd9",264,"147.csv","","null","resources/images/fishbone.png","null","",NA,NA,NA,NA,""
"image-keyboard-response",549,355760,"0.0-4.179-0.179","3p94hy7tyajmgd9",264,"147.csv","","165.10000000009313","resources/trios/L1T4A3.jpg","38","restless",0.6,0.7,0.5,0.982103885380443,"false"
"image-keyboard-response",550,356161,"0.0-4.179-1.179","3p94hy7tyajmgd9",264,"147.csv","","null","resources/maskTrios/BT4B.jpg","null","",NA,NA,NA,NA,""
"image-keyboard-response",551,357362,"0.0-4.179-2.179","3p94hy7tyajmgd9",264,"147.csv","","null","resources/images/fishbone.png","null","",NA,NA,NA,NA,""
"image-keyboard-response",552,357365,"0.0-4.180-0.180","3p94hy7tyajmgd9",264,"147.csv","","1.6999999999534339","resources/trios/L1T4A3.jpg","37","restless",0.6,0.7,0.5,0.535563540451352,"true"
"image-keyboard-response",553,357767,"0.0-4.180-1.180","3p94hy7tyajmgd9",264,"147.csv","","null","resources/maskTrios/L1BB.jpg","null","",NA,NA,NA,NA,""
"image-keyboard-response",554,358969,"0.0-4.180-2.180","3p94hy7tyajmgd9",264,"147.csv","","null","resources/images/coin2.png","null","",NA,NA,NA,NA,""
"image-keyboard-response",555,358971,"0.0-4.181-0.181","3p94hy7tyajmgd9",264,"147.csv","","1.6999999999534339","resources/trios/L1T4A3.jpg","37","restless",0.6,0.8,0.5,0.539653149509292,"true"
"image-keyboard-response",556,359372,"0.0-4.181-1.181","3p94hy7tyajmgd9",264,"147.csv","","null","resources/maskTrios/L1BB.jpg","null","",NA,NA,NA,NA,""
"image-keyboard-response",557,360578,"0.0-4.181-2.181","3p94hy7tyajmgd9",264,"147.csv","","null","resources/images/coin2.png","null","",NA,NA,NA,NA,""
"image-keyboard-response",558,360590,"0.0-4.182-0.182","3p94hy7tyajmgd9",264,"147.csv","","10.799999999813735","resources/trios/L1T4A3.jpg","37","restless",0.6,0.8,0.5,0.810977869817787,"false"
"image-keyboard-response",559,360991,"0.0-4.182-1.182","3p94hy7tyajmgd9",264,"147.csv","","null","resources/maskTrios/L1BB.jpg","null","",NA,NA,NA,NA,""
"image-keyboard-response",560,362193,"0.0-4.182-2.182","3p94hy7tyajmgd9",264,"147.csv","","null","resources/images/fishbone.png","null","",NA,NA,NA,NA,""
"image-keyboard-response",561,362531,"0.0-4.183-0.183","3p94hy7tyajmgd9",264,"147.csv","","336.69999999995343","resources/trios/L1T4A3.jpg","38","restless",0.6,0.8,0.5,0.4086454761241,"true"
"image-keyboard-response",562,362932,"0.0-4.183-1.183","3p94hy7tyajmgd9",264,"147.csv","","null","resources/maskTrios/BT4B.jpg","null","",NA,NA,NA,NA,""
"image-keyboard-response",563,364135,"0.0-4.183-2.183","3p94hy7tyajmgd9",264,"147.csv","","null","resources/images/coin2.png","null","",NA,NA,NA,NA,""
"image-keyboard-response",564,364190,"0.0-4.184-0.184","3p94hy7tyajmgd9",264,"147.csv","","54","resources/trios/L1T4A3.jpg","39","restless",0.6,0.8,0.5,0.124949249154285,"true"
"image-keyboard-response",565,364592,"0.0-4.184-1.184","3p94hy7tyajmgd9",264,"147.csv","","null","resources/maskTrios/BBA3.jpg","null","",NA,NA,NA,NA,""
"image-keyboard-response",566,365793,"0.0-4.184-2.184","3p94hy7tyajmgd9",264,"147.csv","","null","resources/images/coin2.png","null","",NA,NA,NA,NA,""
"image-keyboard-response",567,365840,"0.0-4.185-0.185","3p94hy7tyajmgd9",264,"147.csv","","45.89999999990687","resources/trios/L1T4A3.jpg","37","restless",0.6,0.8,0.5,0.412744665023379,"true"
"image-keyboard-response",568,366241,"0.0-4.185-1.185","3p94hy7tyajmgd9",264,"147.csv","","null","resources/maskTrios/L1BB.jpg","null","",NA,NA,NA,NA,""
"image-keyboard-response",569,367443,"0.0-4.185-2.185","3p94hy7tyajmgd9",264,"147.csv","","null","resources/images/coin2.png","null","",NA,NA,NA,NA,""
"image-keyboard-response",570,367566,"0.0-4.186-0.186","3p94hy7tyajmgd9",264,"147.csv","","122","resources/trios/L1T4A3.jpg","38","restless",0.6,0.8,0.5,0.755496381455255,"true"
"image-keyboard-response",571,367967,"0.0-4.186-1.186","3p94hy7tyajmgd9",264,"147.csv","","null","resources/maskTrios/BT4B.jpg","null","",NA,NA,NA,NA,""
"image-keyboard-response",572,369168,"0.0-4.186-2.186","3p94hy7tyajmgd9",264,"147.csv","","null","resources/images/coin2.png","null","",NA,NA,NA,NA,""
"image-keyboard-response",573,369393,"0.0-4.187-0.187","3p94hy7tyajmgd9",264,"147.csv","","224","resources/trios/L1T4A3.jpg","38","restless",0.6,0.8,0.5,0.685555216888452,"true"
"image-keyboard-response",574,369794,"0.0-4.187-1.187","3p94hy7tyajmgd9",264,"147.csv","","null","resources/maskTrios/BT4B.jpg","null","",NA,NA,NA,NA,""
"image-keyboard-response",575,370995,"0.0-4.187-2.187","3p94hy7tyajmgd9",264,"147.csv","","null","resources/images/coin2.png","null","",NA,NA,NA,NA,""
"image-keyboard-response",576,371124,"0.0-4.188-0.188","3p94hy7tyajmgd9",264,"147.csv","","128.10000000009313","resources/trios/L1T4A3.jpg","37","restless",0.6,0.8,0.5,0.755592277244844,"false"
"image-keyboard-response",577,371526,"0.0-4.188-1.188","3p94hy7tyajmgd9",264,"147.csv","","null","resources/maskTrios/L1BB.jpg","null","",NA,NA,NA,NA,""
"image-keyboard-response",578,372727,"0.0-4.188-2.188","3p94hy7tyajmgd9",264,"147.csv","","null","resources/images/fishbone.png","null","",NA,NA,NA,NA,""
"image-keyboard-response",579,372870,"0.0-4.189-0.189","3p94hy7tyajmgd9",264,"147.csv","","142.19999999995343","resources/trios/L1T4A3.jpg","39","restless",0.5,0.8,0.5,0.148806928883066,"true"
"image-keyboard-response",580,373272,"0.0-4.189-1.189","3p94hy7tyajmgd9",264,"147.csv","","null","resources/maskTrios/BBA3.jpg","null","",NA,NA,NA,NA,""
"image-keyboard-response",581,374473,"0.0-4.189-2.189","3p94hy7tyajmgd9",264,"147.csv","","null","resources/images/coin2.png","null","",NA,NA,NA,NA,""
"image-keyboard-response",582,374501,"0.0-4.190-0.190","3p94hy7tyajmgd9",264,"147.csv","","27.0999999998603","resources/trios/L1T4A3.jpg","38","restless",0.5,0.9,0.5,0.502557776013999,"true"
"image-keyboard-response",583,374903,"0.0-4.190-1.190","3p94hy7tyajmgd9",264,"147.csv","","null","resources/maskTrios/BT4B.jpg","null","",NA,NA,NA,NA,""
"image-keyboard-response",584,376105,"0.0-4.190-2.190","3p94hy7tyajmgd9",264,"147.csv","","null","resources/images/coin2.png","null","",NA,NA,NA,NA,""
"image-keyboard-response",585,376184,"0.0-4.191-0.191","3p94hy7tyajmgd9",264,"147.csv","","78","resources/trios/L1T4A3.jpg","38","restless",0.5,0.9,0.5,0.079019881841087,"true"
"image-keyboard-response",586,376585,"0.0-4.191-1.191","3p94hy7tyajmgd9",264,"147.csv","","null","resources/maskTrios/BT4B.jpg","null","",NA,NA,NA,NA,""
"image-keyboard-response",587,377787,"0.0-4.191-2.191","3p94hy7tyajmgd9",264,"147.csv","","null","resources/images/coin2.png","null","",NA,NA,NA,NA,""
"image-keyboard-response",588,377811,"0.0-4.192-0.192","3p94hy7tyajmgd9",264,"147.csv","","22.800000000046566","resources/trios/L1T4A3.jpg","38","restless",0.5,0.9,0.5,0.307092249511789,"true"
"image-keyboard-response",589,378213,"0.0-4.192-1.192","3p94hy7tyajmgd9",264,"147.csv","","null","resources/maskTrios/BT4B.jpg","null","",NA,NA,NA,NA,""
"image-keyboard-response",590,379415,"0.0-4.192-2.192","3p94hy7tyajmgd9",264,"147.csv","","null","resources/images/coin2.png","null","",NA,NA,NA,NA,""
"image-keyboard-response",591,379514,"0.0-4.193-0.193","3p94hy7tyajmgd9",264,"147.csv","","98.30000000004657","resources/trios/L1T4A3.jpg","38","restless",0.5,0.9,0.5,0.125507287950588,"true"
"image-keyboard-response",592,379915,"0.0-4.193-1.193","3p94hy7tyajmgd9",264,"147.csv","","null","resources/maskTrios/BT4B.jpg","null","",NA,NA,NA,NA,""
"image-keyboard-response",593,381116,"0.0-4.193-2.193","3p94hy7tyajmgd9",264,"147.csv","","null","resources/images/coin2.png","null","",NA,NA,NA,NA,""
"image-keyboard-response",594,381178,"0.0-4.194-0.194","3p94hy7tyajmgd9",264,"147.csv","","61.5","resources/trios/L1T4A3.jpg","38","restless",0.5,0.9,0.5,0.367727068031027,"true"
"image-keyboard-response",595,381581,"0.0-4.194-1.194","3p94hy7tyajmgd9",264,"147.csv","","null","resources/maskTrios/BT4B.jpg","null","",NA,NA,NA,NA,""
"image-keyboard-response",596,382783,"0.0-4.194-2.194","3p94hy7tyajmgd9",264,"147.csv","","null","resources/images/coin2.png","null","",NA,NA,NA,NA,""
"image-keyboard-response",597,382911,"0.0-4.195-0.195","3p94hy7tyajmgd9",264,"147.csv","","127.5","resources/trios/L1T4A3.jpg","38","restless",0.5,0.9,0.5,0.0867363083290658,"true"
"image-keyboard-response",598,383312,"0.0-4.195-1.195","3p94hy7tyajmgd9",264,"147.csv","","null","resources/maskTrios/BT4B.jpg","null","",NA,NA,NA,NA,""
"image-keyboard-response",599,384514,"0.0-4.195-2.195","3p94hy7tyajmgd9",264,"147.csv","","null","resources/images/coin2.png","null","",NA,NA,NA,NA,""
"image-keyboard-response",600,384762,"0.0-4.196-0.196","3p94hy7tyajmgd9",264,"147.csv","","247.0999999998603","resources/trios/L1T4A3.jpg","37","restless",0.5,0.9,0.5,0.265852341175245,"true"
"image-keyboard-response",601,385165,"0.0-4.196-1.196","3p94hy7tyajmgd9",264,"147.csv","","null","resources/maskTrios/L1BB.jpg","null","",NA,NA,NA,NA,""
"image-keyboard-response",602,386367,"0.0-4.196-2.196","3p94hy7tyajmgd9",264,"147.csv","","null","resources/images/coin2.png","null","",NA,NA,NA,NA,""
"image-keyboard-response",603,386428,"0.0-4.197-0.197","3p94hy7tyajmgd9",264,"147.csv","","60.10000000009313","resources/trios/L1T4A3.jpg","37","restless",0.5,0.9,0.5,0.493005184412686,"true"
"image-keyboard-response",604,386830,"0.0-4.197-1.197","3p94hy7tyajmgd9",264,"147.csv","","null","resources/maskTrios/L1BB.jpg","null","",NA,NA,NA,NA,""
"image-keyboard-response",605,388031,"0.0-4.197-2.197","3p94hy7tyajmgd9",264,"147.csv","","null","resources/images/coin2.png","null","",NA,NA,NA,NA,""
"image-keyboard-response",606,388052,"0.0-4.198-0.198","3p94hy7tyajmgd9",264,"147.csv","","20.399999999906868","resources/trios/L1T4A3.jpg","37","restless",0.5,0.9,0.5,0.705127633947574,"false"
"image-keyboard-response",607,388454,"0.0-4.198-1.198","3p94hy7tyajmgd9",264,"147.csv","","null","resources/maskTrios/L1BB.jpg","null","",NA,NA,NA,NA,""
"image-keyboard-response",608,389655,"0.0-4.198-2.198","3p94hy7tyajmgd9",264,"147.csv","","null","resources/images/fishbone.png","null","",NA,NA,NA,NA,""
"image-keyboard-response",609,389703,"0.0-4.199-0.199","3p94hy7tyajmgd9",264,"147.csv","","46.699999999953434","resources/trios/L1T4A3.jpg","39","restless",0.5,0.8,0.6,0.0576440183574765,"true"
