"trial_type","trial_index","time_elapsed","internal_node_id","subject","participantCode","walkNumber","success","rt","stimulus","key_press","test_part","leftProb","midProb","rightProb","generatedNum","correct"
"pavlovia",0,1018,"0.0-0.0","gqts1gcms0mscyc",166,"159.csv","","","","","",NA,NA,NA,NA,""
"fullscreen",1,4353,"0.0-1.0","gqts1gcms0mscyc",166,"159.csv","true","","","","",NA,NA,NA,NA,""
"survey-html-form",2,23998,"0.0-2.0","gqts1gcms0mscyc",166,"159.csv","","19639.699999928474","","","",NA,NA,NA,NA,""
"image-keyboard-response",3,35676,"0.0-3.0-0.0","gqts1gcms0mscyc",166,"159.csv","","11674.399999976158","resources/images/parrot_nobg.png","13","",NA,NA,NA,NA,""
"image-keyboard-response",4,38678,"0.0-3.0-1.0","gqts1gcms0mscyc",166,"159.csv","","null","resources/image_sets/111.png","null","",NA,NA,NA,NA,""
"image-keyboard-response",5,43909,"0.0-3.0-2.0","gqts1gcms0mscyc",166,"159.csv","","5228.599999904633","resources/image_sets/left_highlight.png","37","",NA,NA,NA,NA,""
"image-keyboard-response",6,45328,"0.0-3.0-3.0","gqts1gcms0mscyc",166,"159.csv","","1417.8999999761581","resources/image_sets/mid_highlight.png","38","",NA,NA,NA,NA,""
"image-keyboard-response",7,46114,"0.0-3.0-4.0","gqts1gcms0mscyc",166,"159.csv","","784.6999999284744","resources/image_sets/right_highlight.png","39","",NA,NA,NA,NA,""
"image-keyboard-response",8,49548,"0.0-3.0-5.0","gqts1gcms0mscyc",166,"159.csv","","3432.5","resources/image_sets/111.png","13","",NA,NA,NA,NA,""
"image-keyboard-response",9,52272,"0.0-3.0-6.0","gqts1gcms0mscyc",166,"159.csv","","2723.600000023842","resources/images/coin2.png","13","",NA,NA,NA,NA,""
"image-keyboard-response",10,53343,"0.0-3.0-7.0","gqts1gcms0mscyc",166,"159.csv","","1069.8000000715256","resources/images/fishbone.png","13","",NA,NA,NA,NA,""
"html-keyboard-response",11,58002,"0.0-3.0-8.0","gqts1gcms0mscyc",166,"159.csv","","4658.200000047684","<p>You can track your coin total on the top right of your screen. </p><p>At the end of your journey you will be directed to a survey, so please click on the link before exiting the task</p><p>Press Enter to begin</p>","13","",NA,NA,NA,NA,""
"image-keyboard-response",12,59608,"0.0-4.0-0.0","gqts1gcms0mscyc",166,"159.csv","","1605","resources/trios/L4T2A3.jpg","39","restless",0.7,0.9,0.3,0.524694433381063,"false"
"image-keyboard-response",13,60017,"0.0-4.0-1.0","gqts1gcms0mscyc",166,"159.csv","","null","resources/maskTrios/BBA3.jpg","null","",NA,NA,NA,NA,""
"image-keyboard-response",14,61220,"0.0-4.0-2.0","gqts1gcms0mscyc",166,"159.csv","","null","resources/images/fishbone.png","null","",NA,NA,NA,NA,""
"image-keyboard-response",15,61662,"0.0-4.1-0.1","gqts1gcms0mscyc",166,"159.csv","","440.2000000476837","resources/trios/L4T2A3.jpg","37","restless",0.7,0.9,0.3,0.99543448164698,"false"
"image-keyboard-response",16,62075,"0.0-4.1-1.1","gqts1gcms0mscyc",166,"159.csv","","null","resources/maskTrios/L4BB.jpg","null","",NA,NA,NA,NA,""
"image-keyboard-response",17,63278,"0.0-4.1-2.1","gqts1gcms0mscyc",166,"159.csv","","null","resources/images/fishbone.png","null","",NA,NA,NA,NA,""
"image-keyboard-response",18,63563,"0.0-4.2-0.2","gqts1gcms0mscyc",166,"159.csv","","283.89999997615814","resources/trios/L4T2A3.jpg","38","restless",0.7,0.9,0.3,0.834485428175556,"true"
"image-keyboard-response",19,63975,"0.0-4.2-1.2","gqts1gcms0mscyc",166,"159.csv","","null","resources/maskTrios/BT2B.jpg","null","",NA,NA,NA,NA,""
"image-keyboard-response",20,65187,"0.0-4.2-2.2","gqts1gcms0mscyc",166,"159.csv","","null","resources/images/coin2.png","null","",NA,NA,NA,NA,""
"image-keyboard-response",21,65433,"0.0-4.3-0.3","gqts1gcms0mscyc",166,"159.csv","","242.89999997615814","resources/trios/L4T2A3.jpg","38","restless",0.7,0.9,0.3,0.100245030346565,"true"
"image-keyboard-response",22,65846,"0.0-4.3-1.3","gqts1gcms0mscyc",166,"159.csv","","null","resources/maskTrios/BT2B.jpg","null","",NA,NA,NA,NA,""
"image-keyboard-response",23,67052,"0.0-4.3-2.3","gqts1gcms0mscyc",166,"159.csv","","null","resources/images/coin2.png","null","",NA,NA,NA,NA,""
"image-keyboard-response",24,67273,"0.0-4.4-0.4","gqts1gcms0mscyc",166,"159.csv","","219.70000004768372","resources/trios/L4T2A3.jpg","38","restless",0.7,0.9,0.3,0.133201356160171,"true"
"image-keyboard-response",25,67687,"0.0-4.4-1.4","gqts1gcms0mscyc",166,"159.csv","","null","resources/maskTrios/BT2B.jpg","null","",NA,NA,NA,NA,""
"image-keyboard-response",26,68890,"0.0-4.4-2.4","gqts1gcms0mscyc",166,"159.csv","","null","resources/images/coin2.png","null","",NA,NA,NA,NA,""
"image-keyboard-response",27,69138,"0.0-4.5-0.5","gqts1gcms0mscyc",166,"159.csv","","246.20000004768372","resources/trios/L4T2A3.jpg","38","restless",0.7,0.9,0.3,0.747572271623285,"true"
"image-keyboard-response",28,69541,"0.0-4.5-1.5","gqts1gcms0mscyc",166,"159.csv","","null","resources/maskTrios/BT2B.jpg","null","",NA,NA,NA,NA,""
"image-keyboard-response",29,70753,"0.0-4.5-2.5","gqts1gcms0mscyc",166,"159.csv","","null","resources/images/coin2.png","null","",NA,NA,NA,NA,""
"image-keyboard-response",30,70929,"0.0-4.6-0.6","gqts1gcms0mscyc",166,"159.csv","","174.40000009536743","resources/trios/L4T2A3.jpg","38","restless",0.8,0.8,0.3,0.833813479278733,"false"
"image-keyboard-response",31,71344,"0.0-4.6-1.6","gqts1gcms0mscyc",166,"159.csv","","null","resources/maskTrios/BT2B.jpg","null","",NA,NA,NA,NA,""
"image-keyboard-response",32,72546,"0.0-4.6-2.6","gqts1gcms0mscyc",166,"159.csv","","null","resources/images/fishbone.png","null","",NA,NA,NA,NA,""
"image-keyboard-response",33,72904,"0.0-4.7-0.7","gqts1gcms0mscyc",166,"159.csv","","356","resources/trios/L4T2A3.jpg","37","restless",0.8,0.7,0.3,0.498496884221057,"true"
"image-keyboard-response",34,73313,"0.0-4.7-1.7","gqts1gcms0mscyc",166,"159.csv","","null","resources/maskTrios/L4BB.jpg","null","",NA,NA,NA,NA,""
"image-keyboard-response",35,74516,"0.0-4.7-2.7","gqts1gcms0mscyc",166,"159.csv","","null","resources/images/coin2.png","null","",NA,NA,NA,NA,""
"image-keyboard-response",36,74748,"0.0-4.8-0.8","gqts1gcms0mscyc",166,"159.csv","","229.60000002384186","resources/trios/L4T2A3.jpg","37","restless",0.8,0.7,0.3,0.830693596490958,"false"
"image-keyboard-response",37,75162,"0.0-4.8-1.8","gqts1gcms0mscyc",166,"159.csv","","null","resources/maskTrios/L4BB.jpg","null","",NA,NA,NA,NA,""
"image-keyboard-response",38,76373,"0.0-4.8-2.8","gqts1gcms0mscyc",166,"159.csv","","null","resources/images/fishbone.png","null","",NA,NA,NA,NA,""
"image-keyboard-response",39,76681,"0.0-4.9-0.9","gqts1gcms0mscyc",166,"159.csv","","307.2000000476837","resources/trios/L4T2A3.jpg","39","restless",0.8,0.7,0.3,0.739090234437205,"false"
"image-keyboard-response",40,77092,"0.0-4.9-1.9","gqts1gcms0mscyc",166,"159.csv","","null","resources/maskTrios/BBA3.jpg","null","",NA,NA,NA,NA,""
"image-keyboard-response",41,78301,"0.0-4.9-2.9","gqts1gcms0mscyc",166,"159.csv","","null","resources/images/fishbone.png","null","",NA,NA,NA,NA,""
"image-keyboard-response",42,78525,"0.0-4.10-0.10","gqts1gcms0mscyc",166,"159.csv","","222.39999997615814","resources/trios/L4T2A3.jpg","38","restless",0.8,0.7,0.3,0.29790103920315,"true"
"image-keyboard-response",43,78936,"0.0-4.10-1.10","gqts1gcms0mscyc",166,"159.csv","","null","resources/maskTrios/BT2B.jpg","null","",NA,NA,NA,NA,""
"image-keyboard-response",44,80142,"0.0-4.10-2.10","gqts1gcms0mscyc",166,"159.csv","","null","resources/images/coin2.png","null","",NA,NA,NA,NA,""
"image-keyboard-response",45,80235,"0.0-4.11-0.11","gqts1gcms0mscyc",166,"159.csv","","91.70000004768372","resources/trios/L4T2A3.jpg","37","restless",0.8,0.6,0.3,0.0452808725271623,"true"
"image-keyboard-response",46,80649,"0.0-4.11-1.11","gqts1gcms0mscyc",166,"159.csv","","null","resources/maskTrios/L4BB.jpg","null","",NA,NA,NA,NA,""
"image-keyboard-response",47,81863,"0.0-4.11-2.11","gqts1gcms0mscyc",166,"159.csv","","null","resources/images/coin2.png","null","",NA,NA,NA,NA,""
"image-keyboard-response",48,82040,"0.0-4.12-0.12","gqts1gcms0mscyc",166,"159.csv","","175.40000009536743","resources/trios/L4T2A3.jpg","38","restless",0.8,0.5,0.3,0.0818917574519979,"true"
"image-keyboard-response",49,82453,"0.0-4.12-1.12","gqts1gcms0mscyc",166,"159.csv","","null","resources/maskTrios/BT2B.jpg","null","",NA,NA,NA,NA,""
"image-keyboard-response",50,83669,"0.0-4.12-2.12","gqts1gcms0mscyc",166,"159.csv","","null","resources/images/coin2.png","null","",NA,NA,NA,NA,""
"image-keyboard-response",51,83865,"0.0-4.13-0.13","gqts1gcms0mscyc",166,"159.csv","","194.29999995231628","resources/trios/L4T2A3.jpg","38","restless",0.9,0.5,0.3,0.543735952633932,"false"
"image-keyboard-response",52,84270,"0.0-4.13-1.13","gqts1gcms0mscyc",166,"159.csv","","null","resources/maskTrios/BT2B.jpg","null","",NA,NA,NA,NA,""
"image-keyboard-response",53,85479,"0.0-4.13-2.13","gqts1gcms0mscyc",166,"159.csv","","null","resources/images/fishbone.png","null","",NA,NA,NA,NA,""
"image-keyboard-response",54,85872,"0.0-4.14-0.14","gqts1gcms0mscyc",166,"159.csv","","391.09999990463257","resources/trios/L4T2A3.jpg","39","restless",0.9,0.5,0.2,0.166781020078549,"true"
"image-keyboard-response",55,86286,"0.0-4.14-1.14","gqts1gcms0mscyc",166,"159.csv","","null","resources/maskTrios/BBA3.jpg","null","",NA,NA,NA,NA,""
"image-keyboard-response",56,87491,"0.0-4.14-2.14","gqts1gcms0mscyc",166,"159.csv","","null","resources/images/coin2.png","null","",NA,NA,NA,NA,""
"image-keyboard-response",57,87795,"0.0-4.15-0.15","gqts1gcms0mscyc",166,"159.csv","","301.5","resources/trios/L4T2A3.jpg","37","restless",0.9,0.5,0.3,0.0731586335898313,"true"
"image-keyboard-response",58,88206,"0.0-4.15-1.15","gqts1gcms0mscyc",166,"159.csv","","null","resources/maskTrios/L4BB.jpg","null","",NA,NA,NA,NA,""
"image-keyboard-response",59,89414,"0.0-4.15-2.15","gqts1gcms0mscyc",166,"159.csv","","null","resources/images/coin2.png","null","",NA,NA,NA,NA,""
"image-keyboard-response",60,89645,"0.0-4.16-0.16","gqts1gcms0mscyc",166,"159.csv","","229.10000002384186","resources/trios/L4T2A3.jpg","38","restless",0.8,0.5,0.3,0.520082972573706,"false"
"image-keyboard-response",61,90059,"0.0-4.16-1.16","gqts1gcms0mscyc",166,"159.csv","","null","resources/maskTrios/BT2B.jpg","null","",NA,NA,NA,NA,""
"image-keyboard-response",62,91269,"0.0-4.16-2.16","gqts1gcms0mscyc",166,"159.csv","","null","resources/images/fishbone.png","null","",NA,NA,NA,NA,""
"image-keyboard-response",63,91316,"0.0-4.17-0.17","gqts1gcms0mscyc",166,"159.csv","","44.800000071525574","resources/trios/L4T2A3.jpg","39","restless",0.8,0.5,0.3,0.0756000720511296,"true"
"image-keyboard-response",64,91729,"0.0-4.17-1.17","gqts1gcms0mscyc",166,"159.csv","","null","resources/maskTrios/BBA3.jpg","null","",NA,NA,NA,NA,""
"image-keyboard-response",65,92945,"0.0-4.17-2.17","gqts1gcms0mscyc",166,"159.csv","","null","resources/images/coin2.png","null","",NA,NA,NA,NA,""
"image-keyboard-response",66,93171,"0.0-4.18-0.18","gqts1gcms0mscyc",166,"159.csv","","224.39999997615814","resources/trios/L4T2A3.jpg","37","restless",0.8,0.5,0.3,0.741156809420296,"true"
"image-keyboard-response",67,93586,"0.0-4.18-1.18","gqts1gcms0mscyc",166,"159.csv","","null","resources/maskTrios/L4BB.jpg","null","",NA,NA,NA,NA,""
"image-keyboard-response",68,94803,"0.0-4.18-2.18","gqts1gcms0mscyc",166,"159.csv","","null","resources/images/coin2.png","null","",NA,NA,NA,NA,""
"image-keyboard-response",69,95063,"0.0-4.19-0.19","gqts1gcms0mscyc",166,"159.csv","","258.7000000476837","resources/trios/L4T2A3.jpg","38","restless",0.8,0.5,0.3,0.265772624848445,"true"
"image-keyboard-response",70,95465,"0.0-4.19-1.19","gqts1gcms0mscyc",166,"159.csv","","null","resources/maskTrios/BT2B.jpg","null","",NA,NA,NA,NA,""
"image-keyboard-response",71,96669,"0.0-4.19-2.19","gqts1gcms0mscyc",166,"159.csv","","null","resources/images/coin2.png","null","",NA,NA,NA,NA,""
"image-keyboard-response",72,96887,"0.0-4.20-0.20","gqts1gcms0mscyc",166,"159.csv","","215.59999990463257","resources/trios/L4T2A3.jpg","39","restless",0.8,0.5,0.3,0.59899995699845,"false"
"image-keyboard-response",73,97292,"0.0-4.20-1.20","gqts1gcms0mscyc",166,"159.csv","","null","resources/maskTrios/BBA3.jpg","null","",NA,NA,NA,NA,""
"image-keyboard-response",74,98496,"0.0-4.20-2.20","gqts1gcms0mscyc",166,"159.csv","","null","resources/images/fishbone.png","null","",NA,NA,NA,NA,""
"image-keyboard-response",75,98754,"0.0-4.21-0.21","gqts1gcms0mscyc",166,"159.csv","","256","resources/trios/L4T2A3.jpg","37","restless",0.8,0.5,0.3,0.437539364666381,"true"
"image-keyboard-response",76,99169,"0.0-4.21-1.21","gqts1gcms0mscyc",166,"159.csv","","null","resources/maskTrios/L4BB.jpg","null","",NA,NA,NA,NA,""
"image-keyboard-response",77,100377,"0.0-4.21-2.21","gqts1gcms0mscyc",166,"159.csv","","null","resources/images/coin2.png","null","",NA,NA,NA,NA,""
"image-keyboard-response",78,100595,"0.0-4.22-0.22","gqts1gcms0mscyc",166,"159.csv","","216.39999997615814","resources/trios/L4T2A3.jpg","38","restless",0.8,0.5,0.3,0.93971013375734,"false"
"image-keyboard-response",79,101001,"0.0-4.22-1.22","gqts1gcms0mscyc",166,"159.csv","","null","resources/maskTrios/BT2B.jpg","null","",NA,NA,NA,NA,""
"image-keyboard-response",80,102209,"0.0-4.22-2.22","gqts1gcms0mscyc",166,"159.csv","","null","resources/images/fishbone.png","null","",NA,NA,NA,NA,""
"image-keyboard-response",81,102392,"0.0-4.23-0.23","gqts1gcms0mscyc",166,"159.csv","","181.60000002384186","resources/trios/L4T2A3.jpg","37","restless",0.7,0.5,0.3,0.216551014936492,"true"
"image-keyboard-response",82,102797,"0.0-4.23-1.23","gqts1gcms0mscyc",166,"159.csv","","null","resources/maskTrios/L4BB.jpg","null","",NA,NA,NA,NA,""
"image-keyboard-response",83,104012,"0.0-4.23-2.23","gqts1gcms0mscyc",166,"159.csv","","null","resources/images/coin2.png","null","",NA,NA,NA,NA,""
"image-keyboard-response",84,104108,"0.0-4.24-0.24","gqts1gcms0mscyc",166,"159.csv","","94.60000002384186","resources/trios/L4T2A3.jpg","39","restless",0.7,0.5,0.3,0.753472628571351,"false"
"image-keyboard-response",85,104512,"0.0-4.24-1.24","gqts1gcms0mscyc",166,"159.csv","","null","resources/maskTrios/BBA3.jpg","null","",NA,NA,NA,NA,""
"image-keyboard-response",86,105715,"0.0-4.24-2.24","gqts1gcms0mscyc",166,"159.csv","","null","resources/images/fishbone.png","null","",NA,NA,NA,NA,""
"image-keyboard-response",87,105922,"0.0-4.25-0.25","gqts1gcms0mscyc",166,"159.csv","","205.19999992847443","resources/trios/L4T2A3.jpg","38","restless",0.7,0.5,0.3,0.195453413220597,"true"
"image-keyboard-response",88,106328,"0.0-4.25-1.25","gqts1gcms0mscyc",166,"159.csv","","null","resources/maskTrios/BT2B.jpg","null","",NA,NA,NA,NA,""
"image-keyboard-response",89,107534,"0.0-4.25-2.25","gqts1gcms0mscyc",166,"159.csv","","null","resources/images/coin2.png","null","",NA,NA,NA,NA,""
"image-keyboard-response",90,107696,"0.0-4.26-0.26","gqts1gcms0mscyc",166,"159.csv","","159.60000002384186","resources/trios/L4T2A3.jpg","37","restless",0.7,0.5,0.3,0.326923606306436,"true"
"image-keyboard-response",91,108112,"0.0-4.26-1.26","gqts1gcms0mscyc",166,"159.csv","","null","resources/maskTrios/L4BB.jpg","null","",NA,NA,NA,NA,""
"image-keyboard-response",92,109324,"0.0-4.26-2.26","gqts1gcms0mscyc",166,"159.csv","","null","resources/images/coin2.png","null","",NA,NA,NA,NA,""
"image-keyboard-response",93,109537,"0.0-4.27-0.27","gqts1gcms0mscyc",166,"159.csv","","211.60000002384186","resources/trios/L4T2A3.jpg","38","restless",0.7,0.5,0.3,0.0812252438607273,"true"
"image-keyboard-response",94,109944,"0.0-4.27-1.27","gqts1gcms0mscyc",166,"159.csv","","null","resources/maskTrios/BT2B.jpg","null","",NA,NA,NA,NA,""
"image-keyboard-response",95,111153,"0.0-4.27-2.27","gqts1gcms0mscyc",166,"159.csv","","null","resources/images/coin2.png","null","",NA,NA,NA,NA,""
"image-keyboard-response",96,111362,"0.0-4.28-0.28","gqts1gcms0mscyc",166,"159.csv","","207.39999997615814","resources/trios/L4T2A3.jpg","39","restless",0.7,0.5,0.3,0.128216772066893,"true"
"image-keyboard-response",97,111774,"0.0-4.28-1.28","gqts1gcms0mscyc",166,"159.csv","","null","resources/maskTrios/BBA3.jpg","null","",NA,NA,NA,NA,""
"image-keyboard-response",98,112993,"0.0-4.28-2.28","gqts1gcms0mscyc",166,"159.csv","","null","resources/images/coin2.png","null","",NA,NA,NA,NA,""
"image-keyboard-response",99,113160,"0.0-4.29-0.29","gqts1gcms0mscyc",166,"159.csv","","166.40000009536743","resources/trios/L4T2A3.jpg","38","restless",0.7,0.6,0.3,0.233357523354721,"true"
"image-keyboard-response",100,113577,"0.0-4.29-1.29","gqts1gcms0mscyc",166,"159.csv","","null","resources/maskTrios/BT2B.jpg","null","",NA,NA,NA,NA,""
"image-keyboard-response",101,114785,"0.0-4.29-2.29","gqts1gcms0mscyc",166,"159.csv","","null","resources/images/coin2.png","null","",NA,NA,NA,NA,""
"image-keyboard-response",102,114983,"0.0-4.30-0.30","gqts1gcms0mscyc",166,"159.csv","","197.20000004768372","resources/trios/L4T2A3.jpg","37","restless",0.7,0.6,0.3,0.476891390781291,"true"
"image-keyboard-response",103,115401,"0.0-4.30-1.30","gqts1gcms0mscyc",166,"159.csv","","null","resources/maskTrios/L4BB.jpg","null","",NA,NA,NA,NA,""
"image-keyboard-response",104,116614,"0.0-4.30-2.30","gqts1gcms0mscyc",166,"159.csv","","null","resources/images/coin2.png","null","",NA,NA,NA,NA,""
"image-keyboard-response",105,116718,"0.0-4.31-0.31","gqts1gcms0mscyc",166,"159.csv","","103.09999990463257","resources/trios/L4T2A3.jpg","38","restless",0.7,0.6,0.3,0.390507282755717,"true"
"image-keyboard-response",106,117132,"0.0-4.31-1.31","gqts1gcms0mscyc",166,"159.csv","","null","resources/maskTrios/BT2B.jpg","null","",NA,NA,NA,NA,""
"image-keyboard-response",107,118339,"0.0-4.31-2.31","gqts1gcms0mscyc",166,"159.csv","","null","resources/images/coin2.png","null","",NA,NA,NA,NA,""
"image-keyboard-response",108,118605,"0.0-4.32-0.32","gqts1gcms0mscyc",166,"159.csv","","264.60000002384186","resources/trios/L4T2A3.jpg","39","restless",0.7,0.6,0.3,0.0766785218596779,"true"
"image-keyboard-response",109,119013,"0.0-4.32-1.32","gqts1gcms0mscyc",166,"159.csv","","null","resources/maskTrios/BBA3.jpg","null","",NA,NA,NA,NA,""
"image-keyboard-response",110,120215,"0.0-4.32-2.32","gqts1gcms0mscyc",166,"159.csv","","null","resources/images/coin2.png","null","",NA,NA,NA,NA,""
"image-keyboard-response",111,120383,"0.0-4.33-0.33","gqts1gcms0mscyc",166,"159.csv","","167.20000004768372","resources/trios/L4T2A3.jpg","38","restless",0.7,0.6,0.3,0.792371591658594,"false"
"image-keyboard-response",112,120795,"0.0-4.33-1.33","gqts1gcms0mscyc",166,"159.csv","","null","resources/maskTrios/BT2B.jpg","null","",NA,NA,NA,NA,""
"image-keyboard-response",113,122002,"0.0-4.33-2.33","gqts1gcms0mscyc",166,"159.csv","","null","resources/images/fishbone.png","null","",NA,NA,NA,NA,""
"image-keyboard-response",114,122047,"0.0-4.34-0.34","gqts1gcms0mscyc",166,"159.csv","","44.700000047683716","resources/trios/L4T2A3.jpg","37","restless",0.7,0.6,0.3,0.163580882901744,"true"
"image-keyboard-response",115,122464,"0.0-4.34-1.34","gqts1gcms0mscyc",166,"159.csv","","null","resources/maskTrios/L4BB.jpg","null","",NA,NA,NA,NA,""
"image-keyboard-response",116,123671,"0.0-4.34-2.34","gqts1gcms0mscyc",166,"159.csv","","null","resources/images/coin2.png","null","",NA,NA,NA,NA,""
"image-keyboard-response",117,123771,"0.0-4.35-0.35","gqts1gcms0mscyc",166,"159.csv","","96.69999992847443","resources/trios/L4T2A3.jpg","38","restless",0.7,0.5,0.3,0.917641272507714,"false"
"image-keyboard-response",118,124185,"0.0-4.35-1.35","gqts1gcms0mscyc",166,"159.csv","","null","resources/maskTrios/BT2B.jpg","null","",NA,NA,NA,NA,""
"image-keyboard-response",119,125393,"0.0-4.35-2.35","gqts1gcms0mscyc",166,"159.csv","","null","resources/images/fishbone.png","null","",NA,NA,NA,NA,""
"image-keyboard-response",120,125855,"0.0-4.36-0.36","gqts1gcms0mscyc",166,"159.csv","","460.10000002384186","resources/trios/L4T2A3.jpg","39","restless",0.7,0.5,0.3,0.994889700924639,"false"
"image-keyboard-response",121,126267,"0.0-4.36-1.36","gqts1gcms0mscyc",166,"159.csv","","null","resources/maskTrios/BBA3.jpg","null","",NA,NA,NA,NA,""
"image-keyboard-response",122,127479,"0.0-4.36-2.36","gqts1gcms0mscyc",166,"159.csv","","null","resources/images/fishbone.png","null","",NA,NA,NA,NA,""
"image-keyboard-response",123,127661,"0.0-4.37-0.37","gqts1gcms0mscyc",166,"159.csv","","180.39999997615814","resources/trios/L4T2A3.jpg","37","restless",0.6,0.4,0.3,0.946098179218952,"false"
"image-keyboard-response",124,128070,"0.0-4.37-1.37","gqts1gcms0mscyc",166,"159.csv","","null","resources/maskTrios/L4BB.jpg","null","",NA,NA,NA,NA,""
"image-keyboard-response",125,129277,"0.0-4.37-2.37","gqts1gcms0mscyc",166,"159.csv","","null","resources/images/fishbone.png","null","",NA,NA,NA,NA,""
"image-keyboard-response",126,129387,"0.0-4.38-0.38","gqts1gcms0mscyc",166,"159.csv","","109.5","resources/trios/L4T2A3.jpg","38","restless",0.5,0.4,0.3,0.745569187198475,"false"
"image-keyboard-response",127,129799,"0.0-4.38-1.38","gqts1gcms0mscyc",166,"159.csv","","null","resources/maskTrios/BT2B.jpg","null","",NA,NA,NA,NA,""
"image-keyboard-response",128,131002,"0.0-4.38-2.38","gqts1gcms0mscyc",166,"159.csv","","null","resources/images/fishbone.png","null","",NA,NA,NA,NA,""
"image-keyboard-response",129,131220,"0.0-4.39-0.39","gqts1gcms0mscyc",166,"159.csv","","216.40000009536743","resources/trios/L4T2A3.jpg","39","restless",0.5,0.4,0.3,0.583174286081833,"false"
"image-keyboard-response",130,131634,"0.0-4.39-1.39","gqts1gcms0mscyc",166,"159.csv","","null","resources/maskTrios/BBA3.jpg","null","",NA,NA,NA,NA,""
"image-keyboard-response",131,132843,"0.0-4.39-2.39","gqts1gcms0mscyc",166,"159.csv","","null","resources/images/fishbone.png","null","",NA,NA,NA,NA,""
"image-keyboard-response",132,133527,"0.0-4.40-0.40","gqts1gcms0mscyc",166,"159.csv","","682.8999999761581","resources/trios/L4T2A3.jpg","38","restless",0.5,0.4,0.3,0.081671215906683,"true"
"image-keyboard-response",133,133949,"0.0-4.40-1.40","gqts1gcms0mscyc",166,"159.csv","","null","resources/maskTrios/BT2B.jpg","null","",NA,NA,NA,NA,""
"image-keyboard-response",134,135158,"0.0-4.40-2.40","gqts1gcms0mscyc",166,"159.csv","","null","resources/images/coin2.png","null","",NA,NA,NA,NA,""
"image-keyboard-response",135,135258,"0.0-4.41-0.41","gqts1gcms0mscyc",166,"159.csv","","98.60000002384186","resources/trios/L4T2A3.jpg","37","restless",0.4,0.4,0.3,0.385499722301862,"true"
"image-keyboard-response",136,135673,"0.0-4.41-1.41","gqts1gcms0mscyc",166,"159.csv","","null","resources/maskTrios/L4BB.jpg","null","",NA,NA,NA,NA,""
"image-keyboard-response",137,136877,"0.0-4.41-2.41","gqts1gcms0mscyc",166,"159.csv","","null","resources/images/coin2.png","null","",NA,NA,NA,NA,""
"image-keyboard-response",138,137042,"0.0-4.42-0.42","gqts1gcms0mscyc",166,"159.csv","","163.5","resources/trios/L4T2A3.jpg","38","restless",0.5,0.4,0.3,0.422100882855175,"false"
"image-keyboard-response",139,137455,"0.0-4.42-1.42","gqts1gcms0mscyc",166,"159.csv","","null","resources/maskTrios/BT2B.jpg","null","",NA,NA,NA,NA,""
"image-keyboard-response",140,138662,"0.0-4.42-2.42","gqts1gcms0mscyc",166,"159.csv","","null","resources/images/fishbone.png","null","",NA,NA,NA,NA,""
"image-keyboard-response",141,138869,"0.0-4.43-0.43","gqts1gcms0mscyc",166,"159.csv","","205.89999997615814","resources/trios/L4T2A3.jpg","39","restless",0.5,0.4,0.3,0.151023558378071,"true"
"image-keyboard-response",142,139277,"0.0-4.43-1.43","gqts1gcms0mscyc",166,"159.csv","","null","resources/maskTrios/BBA3.jpg","null","",NA,NA,NA,NA,""
"image-keyboard-response",143,140484,"0.0-4.43-2.43","gqts1gcms0mscyc",166,"159.csv","","null","resources/images/coin2.png","null","",NA,NA,NA,NA,""
"image-keyboard-response",144,140738,"0.0-4.44-0.44","gqts1gcms0mscyc",166,"159.csv","","252.80000007152557","resources/trios/L4T2A3.jpg","38","restless",0.5,0.4,0.3,0.841631010066148,"false"
"image-keyboard-response",145,141148,"0.0-4.44-1.44","gqts1gcms0mscyc",166,"159.csv","","null","resources/maskTrios/BT2B.jpg","null","",NA,NA,NA,NA,""
"image-keyboard-response",146,142364,"0.0-4.44-2.44","gqts1gcms0mscyc",166,"159.csv","","null","resources/images/fishbone.png","null","",NA,NA,NA,NA,""
"image-keyboard-response",147,142457,"0.0-4.45-0.45","gqts1gcms0mscyc",166,"159.csv","","91.60000002384186","resources/trios/L4T2A3.jpg","37","restless",0.5,0.4,0.3,0.809129262195272,"false"
"image-keyboard-response",148,142871,"0.0-4.45-1.45","gqts1gcms0mscyc",166,"159.csv","","null","resources/maskTrios/L4BB.jpg","null","",NA,NA,NA,NA,""
"image-keyboard-response",149,144081,"0.0-4.45-2.45","gqts1gcms0mscyc",166,"159.csv","","null","resources/images/fishbone.png","null","",NA,NA,NA,NA,""
"image-keyboard-response",150,144415,"0.0-4.46-0.46","gqts1gcms0mscyc",166,"159.csv","","333.1999999284744","resources/trios/L4T2A3.jpg","39","restless",0.5,0.4,0.4,0.212620692771644,"true"
"image-keyboard-response",151,144826,"0.0-4.46-1.46","gqts1gcms0mscyc",166,"159.csv","","null","resources/maskTrios/BBA3.jpg","null","",NA,NA,NA,NA,""
"image-keyboard-response",152,146030,"0.0-4.46-2.46","gqts1gcms0mscyc",166,"159.csv","","null","resources/images/coin2.png","null","",NA,NA,NA,NA,""
"image-keyboard-response",153,146629,"0.0-4.47-0.47","gqts1gcms0mscyc",166,"159.csv","","597","resources/trios/L4T2A3.jpg","37","restless",0.5,0.4,0.4,0.179372727477193,"true"
"image-keyboard-response",154,147034,"0.0-4.47-1.47","gqts1gcms0mscyc",166,"159.csv","","null","resources/maskTrios/L4BB.jpg","null","",NA,NA,NA,NA,""
"image-keyboard-response",155,148241,"0.0-4.47-2.47","gqts1gcms0mscyc",166,"159.csv","","null","resources/images/coin2.png","null","",NA,NA,NA,NA,""
"image-keyboard-response",156,148486,"0.0-4.48-0.48","gqts1gcms0mscyc",166,"159.csv","","243.10000002384186","resources/trios/L4T2A3.jpg","38","restless",0.5,0.4,0.4,0.0759893442568862,"true"
"image-keyboard-response",157,148895,"0.0-4.48-1.48","gqts1gcms0mscyc",166,"159.csv","","null","resources/maskTrios/BT2B.jpg","null","",NA,NA,NA,NA,""
"image-keyboard-response",158,150103,"0.0-4.48-2.48","gqts1gcms0mscyc",166,"159.csv","","null","resources/images/coin2.png","null","",NA,NA,NA,NA,""
"image-keyboard-response",159,150345,"0.0-4.49-0.49","gqts1gcms0mscyc",166,"159.csv","","240.70000004768372","resources/trios/L4T2A3.jpg","39","restless",0.5,0.4,0.4,0.257192583937766,"true"
"image-keyboard-response",160,150754,"0.0-4.49-1.49","gqts1gcms0mscyc",166,"159.csv","","null","resources/maskTrios/BBA3.jpg","null","",NA,NA,NA,NA,""
"image-keyboard-response",161,151963,"0.0-4.49-2.49","gqts1gcms0mscyc",166,"159.csv","","null","resources/images/coin2.png","null","",NA,NA,NA,NA,""
"image-keyboard-response",162,151966,"0.0-4.50-0.50","gqts1gcms0mscyc",166,"159.csv","","0.10000002384185791","resources/trios/L4T2A3.jpg","37","restless",0.5,0.4,0.4,0.239254892364052,"true"
"image-keyboard-response",163,152381,"0.0-4.50-1.50","gqts1gcms0mscyc",166,"159.csv","","null","resources/maskTrios/L4BB.jpg","null","",NA,NA,NA,NA,""
"image-keyboard-response",164,153583,"0.0-4.50-2.50","gqts1gcms0mscyc",166,"159.csv","","null","resources/images/coin2.png","null","",NA,NA,NA,NA,""
"image-keyboard-response",165,153786,"0.0-4.51-0.51","gqts1gcms0mscyc",166,"159.csv","","201.60000002384186","resources/trios/L4T2A3.jpg","38","restless",0.6,0.4,0.3,0.868438599249614,"false"
"image-keyboard-response",166,154196,"0.0-4.51-1.51","gqts1gcms0mscyc",166,"159.csv","","null","resources/maskTrios/BT2B.jpg","null","",NA,NA,NA,NA,""
"image-keyboard-response",167,155401,"0.0-4.51-2.51","gqts1gcms0mscyc",166,"159.csv","","null","resources/images/fishbone.png","null","",NA,NA,NA,NA,""
"image-keyboard-response",168,155744,"0.0-4.52-0.52","gqts1gcms0mscyc",166,"159.csv","","341.1999999284744","resources/trios/L4T2A3.jpg","39","restless",0.6,0.4,0.3,0.692017594525048,"false"
"image-keyboard-response",169,156149,"0.0-4.52-1.52","gqts1gcms0mscyc",166,"159.csv","","null","resources/maskTrios/BBA3.jpg","null","",NA,NA,NA,NA,""
"image-keyboard-response",170,157360,"0.0-4.52-2.52","gqts1gcms0mscyc",166,"159.csv","","null","resources/images/fishbone.png","null","",NA,NA,NA,NA,""
"image-keyboard-response",171,157611,"0.0-4.53-0.53","gqts1gcms0mscyc",166,"159.csv","","249.79999995231628","resources/trios/L4T2A3.jpg","39","restless",0.6,0.4,0.3,0.800313288922502,"false"
"image-keyboard-response",172,158015,"0.0-4.53-1.53","gqts1gcms0mscyc",166,"159.csv","","null","resources/maskTrios/BBA3.jpg","null","",NA,NA,NA,NA,""
"image-keyboard-response",173,159221,"0.0-4.53-2.53","gqts1gcms0mscyc",166,"159.csv","","null","resources/images/fishbone.png","null","",NA,NA,NA,NA,""
"image-keyboard-response",174,159510,"0.0-4.54-0.54","gqts1gcms0mscyc",166,"159.csv","","287","resources/trios/L4T2A3.jpg","39","restless",0.6,0.4,0.3,0.529709329300086,"false"
"image-keyboard-response",175,159921,"0.0-4.54-1.54","gqts1gcms0mscyc",166,"159.csv","","null","resources/maskTrios/BBA3.jpg","null","",NA,NA,NA,NA,""
"image-keyboard-response",176,161136,"0.0-4.54-2.54","gqts1gcms0mscyc",166,"159.csv","","null","resources/images/fishbone.png","null","",NA,NA,NA,NA,""
"image-keyboard-response",177,161386,"0.0-4.55-0.55","gqts1gcms0mscyc",166,"159.csv","","249.09999990463257","resources/trios/L4T2A3.jpg","37","restless",0.6,0.4,0.3,0.286545067380287,"true"
"image-keyboard-response",178,161803,"0.0-4.55-1.55","gqts1gcms0mscyc",166,"159.csv","","null","resources/maskTrios/L4BB.jpg","null","",NA,NA,NA,NA,""
"image-keyboard-response",179,163017,"0.0-4.55-2.55","gqts1gcms0mscyc",166,"159.csv","","null","resources/images/coin2.png","null","",NA,NA,NA,NA,""
"image-keyboard-response",180,163244,"0.0-4.56-0.56","gqts1gcms0mscyc",166,"159.csv","","225.10000002384186","resources/trios/L4T2A3.jpg","39","restless",0.7,0.4,0.3,0.246893295845437,"true"
"image-keyboard-response",181,163660,"0.0-4.56-1.56","gqts1gcms0mscyc",166,"159.csv","","null","resources/maskTrios/BBA3.jpg","null","",NA,NA,NA,NA,""
"image-keyboard-response",182,164863,"0.0-4.56-2.56","gqts1gcms0mscyc",166,"159.csv","","null","resources/images/coin2.png","null","",NA,NA,NA,NA,""
"image-keyboard-response",183,165101,"0.0-4.57-0.57","gqts1gcms0mscyc",166,"159.csv","","237.10000002384186","resources/trios/L4T2A3.jpg","38","restless",0.7,0.4,0.3,0.209134041928479,"true"
"image-keyboard-response",184,165505,"0.0-4.57-1.57","gqts1gcms0mscyc",166,"159.csv","","null","resources/maskTrios/BT2B.jpg","null","",NA,NA,NA,NA,""
"image-keyboard-response",185,166722,"0.0-4.57-2.57","gqts1gcms0mscyc",166,"159.csv","","null","resources/images/coin2.png","null","",NA,NA,NA,NA,""
"image-keyboard-response",186,166970,"0.0-4.58-0.58","gqts1gcms0mscyc",166,"159.csv","","246.20000004768372","resources/trios/L4T2A3.jpg","37","restless",0.8,0.4,0.3,0.440350591102687,"true"
"image-keyboard-response",187,167372,"0.0-4.58-1.58","gqts1gcms0mscyc",166,"159.csv","","null","resources/maskTrios/L4BB.jpg","null","",NA,NA,NA,NA,""
"image-keyboard-response",188,168577,"0.0-4.58-2.58","gqts1gcms0mscyc",166,"159.csv","","null","resources/images/coin2.png","null","",NA,NA,NA,NA,""
"image-keyboard-response",189,168749,"0.0-4.59-0.59","gqts1gcms0mscyc",166,"159.csv","","170.5","resources/trios/L4T2A3.jpg","39","restless",0.8,0.4,0.3,0.734686458473931,"false"
"image-keyboard-response",190,169164,"0.0-4.59-1.59","gqts1gcms0mscyc",166,"159.csv","","null","resources/maskTrios/BBA3.jpg","null","",NA,NA,NA,NA,""
"image-keyboard-response",191,170377,"0.0-4.59-2.59","gqts1gcms0mscyc",166,"159.csv","","null","resources/images/fishbone.png","null","",NA,NA,NA,NA,""
"image-keyboard-response",192,170876,"0.0-4.60-0.60","gqts1gcms0mscyc",166,"159.csv","","497.2999999523163","resources/trios/L4T2A3.jpg","38","restless",0.8,0.4,0.3,0.812732759097167,"false"
"image-keyboard-response",193,171285,"0.0-4.60-1.60","gqts1gcms0mscyc",166,"159.csv","","null","resources/maskTrios/BT2B.jpg","null","",NA,NA,NA,NA,""
"image-keyboard-response",194,172493,"0.0-4.60-2.60","gqts1gcms0mscyc",166,"159.csv","","null","resources/images/fishbone.png","null","",NA,NA,NA,NA,""
"image-keyboard-response",195,172795,"0.0-4.61-0.61","gqts1gcms0mscyc",166,"159.csv","","301.1999999284744","resources/trios/L4T2A3.jpg","39","restless",0.8,0.4,0.3,0.803574361875921,"false"
"image-keyboard-response",196,173208,"0.0-4.61-1.61","gqts1gcms0mscyc",166,"159.csv","","null","resources/maskTrios/BBA3.jpg","null","",NA,NA,NA,NA,""
"image-keyboard-response",197,174416,"0.0-4.61-2.61","gqts1gcms0mscyc",166,"159.csv","","null","resources/images/fishbone.png","null","",NA,NA,NA,NA,""
"image-keyboard-response",198,174766,"0.0-4.62-0.62","gqts1gcms0mscyc",166,"159.csv","","348.89999997615814","resources/trios/L4T2A3.jpg","37","restless",0.8,0.4,0.3,0.24666491113938,"true"
"image-keyboard-response",199,175179,"0.0-4.62-1.62","gqts1gcms0mscyc",166,"159.csv","","null","resources/maskTrios/L4BB.jpg","null","",NA,NA,NA,NA,""
"image-keyboard-response",200,176393,"0.0-4.62-2.62","gqts1gcms0mscyc",166,"159.csv","","null","resources/images/coin2.png","null","",NA,NA,NA,NA,""
"image-keyboard-response",201,176622,"0.0-4.63-0.63","gqts1gcms0mscyc",166,"159.csv","","226.69999992847443","resources/trios/L4T2A3.jpg","38","restless",0.8,0.4,0.3,0.216708063286341,"true"
"image-keyboard-response",202,177025,"0.0-4.63-1.63","gqts1gcms0mscyc",166,"159.csv","","null","resources/maskTrios/BT2B.jpg","null","",NA,NA,NA,NA,""
"image-keyboard-response",203,178235,"0.0-4.63-2.63","gqts1gcms0mscyc",166,"159.csv","","null","resources/images/coin2.png","null","",NA,NA,NA,NA,""
"image-keyboard-response",204,178483,"0.0-4.64-0.64","gqts1gcms0mscyc",166,"159.csv","","246.39999997615814","resources/trios/L4T2A3.jpg","39","restless",0.8,0.4,0.3,0.953003839872035,"false"
"image-keyboard-response",205,178900,"0.0-4.64-1.64","gqts1gcms0mscyc",166,"159.csv","","null","resources/maskTrios/BBA3.jpg","null","",NA,NA,NA,NA,""
"image-keyboard-response",206,180102,"0.0-4.64-2.64","gqts1gcms0mscyc",166,"159.csv","","null","resources/images/fishbone.png","null","",NA,NA,NA,NA,""
"image-keyboard-response",207,180416,"0.0-4.65-0.65","gqts1gcms0mscyc",166,"159.csv","","311","resources/trios/L4T2A3.jpg","38","restless",0.8,0.3,0.3,0.424680323197107,"false"
"image-keyboard-response",208,180822,"0.0-4.65-1.65","gqts1gcms0mscyc",166,"159.csv","","null","resources/maskTrios/BT2B.jpg","null","",NA,NA,NA,NA,""
"image-keyboard-response",209,182038,"0.0-4.65-2.65","gqts1gcms0mscyc",166,"159.csv","","null","resources/images/fishbone.png","null","",NA,NA,NA,NA,""
"image-keyboard-response",210,182325,"0.0-4.66-0.66","gqts1gcms0mscyc",166,"159.csv","","284.7999999523163","resources/trios/L4T2A3.jpg","37","restless",0.8,0.3,0.3,0.952702369481392,"false"
"image-keyboard-response",211,182733,"0.0-4.66-1.66","gqts1gcms0mscyc",166,"159.csv","","null","resources/maskTrios/L4BB.jpg","null","",NA,NA,NA,NA,""
"image-keyboard-response",212,183938,"0.0-4.66-2.66","gqts1gcms0mscyc",166,"159.csv","","null","resources/images/fishbone.png","null","",NA,NA,NA,NA,""
"image-keyboard-response",213,184313,"0.0-4.67-0.67","gqts1gcms0mscyc",166,"159.csv","","372.90000009536743","resources/trios/L4T2A3.jpg","39","restless",0.8,0.3,0.4,0.215135825946765,"true"
"image-keyboard-response",214,184731,"0.0-4.67-1.67","gqts1gcms0mscyc",166,"159.csv","","null","resources/maskTrios/BBA3.jpg","null","",NA,NA,NA,NA,""
"image-keyboard-response",215,185947,"0.0-4.67-2.67","gqts1gcms0mscyc",166,"159.csv","","null","resources/images/coin2.png","null","",NA,NA,NA,NA,""
"image-keyboard-response",216,186168,"0.0-4.68-0.68","gqts1gcms0mscyc",166,"159.csv","","218.69999992847443","resources/trios/L4T2A3.jpg","38","restless",0.8,0.3,0.4,0.566234584147679,"false"
"image-keyboard-response",217,186574,"0.0-4.68-1.68","gqts1gcms0mscyc",166,"159.csv","","null","resources/maskTrios/BT2B.jpg","null","",NA,NA,NA,NA,""
"image-keyboard-response",218,187778,"0.0-4.68-2.68","gqts1gcms0mscyc",166,"159.csv","","null","resources/images/fishbone.png","null","",NA,NA,NA,NA,""
"image-keyboard-response",219,188000,"0.0-4.69-0.69","gqts1gcms0mscyc",166,"159.csv","","220.29999995231628","resources/trios/L4T2A3.jpg","39","restless",0.8,0.3,0.4,0.585063943290941,"false"
"image-keyboard-response",220,188408,"0.0-4.69-1.69","gqts1gcms0mscyc",166,"159.csv","","null","resources/maskTrios/BBA3.jpg","null","",NA,NA,NA,NA,""
"image-keyboard-response",221,189613,"0.0-4.69-2.69","gqts1gcms0mscyc",166,"159.csv","","null","resources/images/fishbone.png","null","",NA,NA,NA,NA,""
"image-keyboard-response",222,189841,"0.0-4.70-0.70","gqts1gcms0mscyc",166,"159.csv","","226.29999995231628","resources/trios/L4T2A3.jpg","37","restless",0.8,0.3,0.4,0.837228809520763,"false"
"image-keyboard-response",223,190243,"0.0-4.70-1.70","gqts1gcms0mscyc",166,"159.csv","","null","resources/maskTrios/L4BB.jpg","null","",NA,NA,NA,NA,""
"image-keyboard-response",224,191452,"0.0-4.70-2.70","gqts1gcms0mscyc",166,"159.csv","","null","resources/images/fishbone.png","null","",NA,NA,NA,NA,""
"image-keyboard-response",225,191719,"0.0-4.71-0.71","gqts1gcms0mscyc",166,"159.csv","","265.3000000715256","resources/trios/L4T2A3.jpg","38","restless",0.8,0.3,0.4,0.0877333690750544,"true"
"image-keyboard-response",226,192124,"0.0-4.71-1.71","gqts1gcms0mscyc",166,"159.csv","","null","resources/maskTrios/BT2B.jpg","null","",NA,NA,NA,NA,""
"image-keyboard-response",227,193329,"0.0-4.71-2.71","gqts1gcms0mscyc",166,"159.csv","","null","resources/images/coin2.png","null","",NA,NA,NA,NA,""
"image-keyboard-response",228,193614,"0.0-4.72-0.72","gqts1gcms0mscyc",166,"159.csv","","283.7000000476837","resources/trios/L4T2A3.jpg","38","restless",0.8,0.3,0.4,0.446441333709542,"false"
"image-keyboard-response",229,194021,"0.0-4.72-1.72","gqts1gcms0mscyc",166,"159.csv","","null","resources/maskTrios/BT2B.jpg","null","",NA,NA,NA,NA,""
"image-keyboard-response",230,195235,"0.0-4.72-2.72","gqts1gcms0mscyc",166,"159.csv","","null","resources/images/fishbone.png","null","",NA,NA,NA,NA,""
"image-keyboard-response",231,195570,"0.0-4.73-0.73","gqts1gcms0mscyc",166,"159.csv","","333.1999999284744","resources/trios/L4T2A3.jpg","39","restless",0.8,0.2,0.4,0.383720894508202,"true"
"image-keyboard-response",232,195981,"0.0-4.73-1.73","gqts1gcms0mscyc",166,"159.csv","","null","resources/maskTrios/BBA3.jpg","null","",NA,NA,NA,NA,""
"image-keyboard-response",233,197185,"0.0-4.73-2.73","gqts1gcms0mscyc",166,"159.csv","","null","resources/images/coin2.png","null","",NA,NA,NA,NA,""
"image-keyboard-response",234,197567,"0.0-4.74-0.74","gqts1gcms0mscyc",166,"159.csv","","379.5","resources/trios/L4T2A3.jpg","39","restless",0.8,0.2,0.4,0.856581452217561,"false"
"image-keyboard-response",235,197979,"0.0-4.74-1.74","gqts1gcms0mscyc",166,"159.csv","","null","resources/maskTrios/BBA3.jpg","null","",NA,NA,NA,NA,""
"image-keyboard-response",236,199195,"0.0-4.74-2.74","gqts1gcms0mscyc",166,"159.csv","","null","resources/images/fishbone.png","null","",NA,NA,NA,NA,""
"image-keyboard-response",237,199494,"0.0-4.75-0.75","gqts1gcms0mscyc",166,"159.csv","","297.60000002384186","resources/trios/L4T2A3.jpg","37","restless",0.8,0.2,0.4,0.809844892636899,"false"
"image-keyboard-response",238,199910,"0.0-4.75-1.75","gqts1gcms0mscyc",166,"159.csv","","null","resources/maskTrios/L4BB.jpg","null","",NA,NA,NA,NA,""
"image-keyboard-response",239,201113,"0.0-4.75-2.75","gqts1gcms0mscyc",166,"159.csv","","null","resources/images/fishbone.png","null","",NA,NA,NA,NA,""
"image-keyboard-response",240,201240,"0.0-4.76-0.76","gqts1gcms0mscyc",166,"159.csv","","126","resources/trios/L4T2A3.jpg","38","restless",0.8,0.2,0.4,0.272242840438695,"false"
"image-keyboard-response",241,201645,"0.0-4.76-1.76","gqts1gcms0mscyc",166,"159.csv","","null","resources/maskTrios/BT2B.jpg","null","",NA,NA,NA,NA,""
"image-keyboard-response",242,202856,"0.0-4.76-2.76","gqts1gcms0mscyc",166,"159.csv","","null","resources/images/fishbone.png","null","",NA,NA,NA,NA,""
"image-keyboard-response",243,203171,"0.0-4.77-0.77","gqts1gcms0mscyc",166,"159.csv","","313.7000000476837","resources/trios/L4T2A3.jpg","39","restless",0.8,0.2,0.4,0.0720598418431575,"true"
"image-keyboard-response",244,203583,"0.0-4.77-1.77","gqts1gcms0mscyc",166,"159.csv","","null","resources/maskTrios/BBA3.jpg","null","",NA,NA,NA,NA,""
"image-keyboard-response",245,204794,"0.0-4.77-2.77","gqts1gcms0mscyc",166,"159.csv","","null","resources/images/coin2.png","null","",NA,NA,NA,NA,""
"image-keyboard-response",246,205264,"0.0-4.78-0.78","gqts1gcms0mscyc",166,"159.csv","","468.60000002384186","resources/trios/L4T2A3.jpg","39","restless",0.8,0.3,0.4,0.265723911492894,"true"
"image-keyboard-response",247,205670,"0.0-4.78-1.78","gqts1gcms0mscyc",166,"159.csv","","null","resources/maskTrios/BBA3.jpg","null","",NA,NA,NA,NA,""
"image-keyboard-response",248,206874,"0.0-4.78-2.78","gqts1gcms0mscyc",166,"159.csv","","null","resources/images/coin2.png","null","",NA,NA,NA,NA,""
"image-keyboard-response",249,207163,"0.0-4.79-0.79","gqts1gcms0mscyc",166,"159.csv","","287.5","resources/trios/L4T2A3.jpg","39","restless",0.8,0.3,0.4,0.571181965008509,"false"
"image-keyboard-response",250,207577,"0.0-4.79-1.79","gqts1gcms0mscyc",166,"159.csv","","null","resources/maskTrios/BBA3.jpg","null","",NA,NA,NA,NA,""
"image-keyboard-response",251,208787,"0.0-4.79-2.79","gqts1gcms0mscyc",166,"159.csv","","null","resources/images/fishbone.png","null","",NA,NA,NA,NA,""
"image-keyboard-response",252,209335,"0.0-4.80-0.80","gqts1gcms0mscyc",166,"159.csv","","545.8999999761581","resources/trios/L4T2A3.jpg","37","restless",0.7,0.4,0.4,0.561877867598648,"true"
"image-keyboard-response",253,209738,"0.0-4.80-1.80","gqts1gcms0mscyc",166,"159.csv","","null","resources/maskTrios/L4BB.jpg","null","",NA,NA,NA,NA,""
"image-keyboard-response",254,210951,"0.0-4.80-2.80","gqts1gcms0mscyc",166,"159.csv","","null","resources/images/coin2.png","null","",NA,NA,NA,NA,""
"image-keyboard-response",255,211343,"0.0-4.81-0.81","gqts1gcms0mscyc",166,"159.csv","","390.60000002384186","resources/trios/L4T2A3.jpg","38","restless",0.7,0.5,0.4,0.204736490997569,"true"
"image-keyboard-response",256,211759,"0.0-4.81-1.81","gqts1gcms0mscyc",166,"159.csv","","null","resources/maskTrios/BT2B.jpg","null","",NA,NA,NA,NA,""
"image-keyboard-response",257,212974,"0.0-4.81-2.81","gqts1gcms0mscyc",166,"159.csv","","null","resources/images/coin2.png","null","",NA,NA,NA,NA,""
"image-keyboard-response",258,213242,"0.0-4.82-0.82","gqts1gcms0mscyc",166,"159.csv","","265.8000000715256","resources/trios/L4T2A3.jpg","39","restless",0.7,0.5,0.4,0.164536998664355,"true"
"image-keyboard-response",259,213648,"0.0-4.82-1.82","gqts1gcms0mscyc",166,"159.csv","","null","resources/maskTrios/BBA3.jpg","null","",NA,NA,NA,NA,""
"image-keyboard-response",260,214863,"0.0-4.82-2.82","gqts1gcms0mscyc",166,"159.csv","","null","resources/images/coin2.png","null","",NA,NA,NA,NA,""
"image-keyboard-response",261,215084,"0.0-4.83-0.83","gqts1gcms0mscyc",166,"159.csv","","220.39999997615814","resources/trios/L4T2A3.jpg","37","restless",0.7,0.5,0.4,0.378591100327669,"true"
"image-keyboard-response",262,215500,"0.0-4.83-1.83","gqts1gcms0mscyc",166,"159.csv","","null","resources/maskTrios/L4BB.jpg","null","",NA,NA,NA,NA,""
"image-keyboard-response",263,216714,"0.0-4.83-2.83","gqts1gcms0mscyc",166,"159.csv","","null","resources/images/coin2.png","null","",NA,NA,NA,NA,""
"image-keyboard-response",264,216886,"0.0-4.84-0.84","gqts1gcms0mscyc",166,"159.csv","","171.30000007152557","resources/trios/L4T2A3.jpg","38","restless",0.7,0.5,0.4,0.104813775120894,"true"
"image-keyboard-response",265,217302,"0.0-4.84-1.84","gqts1gcms0mscyc",166,"159.csv","","null","resources/maskTrios/BT2B.jpg","null","",NA,NA,NA,NA,""
"image-keyboard-response",266,218518,"0.0-4.84-2.84","gqts1gcms0mscyc",166,"159.csv","","null","resources/images/coin2.png","null","",NA,NA,NA,NA,""
"image-keyboard-response",267,218851,"0.0-4.85-0.85","gqts1gcms0mscyc",166,"159.csv","","330.7000000476837","resources/trios/L4T2A3.jpg","39","restless",0.7,0.5,0.5,0.119755382507752,"true"
"image-keyboard-response",268,219260,"0.0-4.85-1.85","gqts1gcms0mscyc",166,"159.csv","","null","resources/maskTrios/BBA3.jpg","null","",NA,NA,NA,NA,""
"image-keyboard-response",269,220470,"0.0-4.85-2.85","gqts1gcms0mscyc",166,"159.csv","","null","resources/images/coin2.png","null","",NA,NA,NA,NA,""
"image-keyboard-response",270,220594,"0.0-4.86-0.86","gqts1gcms0mscyc",166,"159.csv","","121.69999992847443","resources/trios/L4T2A3.jpg","37","restless",0.7,0.5,0.6,0.999249150567037,"false"
"image-keyboard-response",271,221005,"0.0-4.86-1.86","gqts1gcms0mscyc",166,"159.csv","","null","resources/maskTrios/L4BB.jpg","null","",NA,NA,NA,NA,""
"image-keyboard-response",272,222218,"0.0-4.86-2.86","gqts1gcms0mscyc",166,"159.csv","","null","resources/images/fishbone.png","null","",NA,NA,NA,NA,""
"image-keyboard-response",273,222363,"0.0-4.87-0.87","gqts1gcms0mscyc",166,"159.csv","","142.20000004768372","resources/trios/L4T2A3.jpg","38","restless",0.7,0.5,0.6,0.701235966023748,"false"
"image-keyboard-response",274,222766,"0.0-4.87-1.87","gqts1gcms0mscyc",166,"159.csv","","null","resources/maskTrios/BT2B.jpg","null","",NA,NA,NA,NA,""
"image-keyboard-response",275,223978,"0.0-4.87-2.87","gqts1gcms0mscyc",166,"159.csv","","null","resources/images/fishbone.png","null","",NA,NA,NA,NA,""
"image-keyboard-response",276,224227,"0.0-4.88-0.88","gqts1gcms0mscyc",166,"159.csv","","247.19999992847443","resources/trios/L4T2A3.jpg","39","restless",0.7,0.5,0.6,0.16378481937598,"true"
"image-keyboard-response",277,224630,"0.0-4.88-1.88","gqts1gcms0mscyc",166,"159.csv","","null","resources/maskTrios/BBA3.jpg","null","",NA,NA,NA,NA,""
"image-keyboard-response",278,225840,"0.0-4.88-2.88","gqts1gcms0mscyc",166,"159.csv","","null","resources/images/coin2.png","null","",NA,NA,NA,NA,""
"image-keyboard-response",279,225954,"0.0-4.89-0.89","gqts1gcms0mscyc",166,"159.csv","","113.29999995231628","resources/trios/L4T2A3.jpg","37","restless",0.7,0.5,0.6,0.553220858591595,"true"
"image-keyboard-response",280,226357,"0.0-4.89-1.89","gqts1gcms0mscyc",166,"159.csv","","null","resources/maskTrios/L4BB.jpg","null","",NA,NA,NA,NA,""
"image-keyboard-response",281,227560,"0.0-4.89-2.89","gqts1gcms0mscyc",166,"159.csv","","null","resources/images/coin2.png","null","",NA,NA,NA,NA,""
"image-keyboard-response",282,227795,"0.0-4.90-0.90","gqts1gcms0mscyc",166,"159.csv","","234","resources/trios/L4T2A3.jpg","39","restless",0.7,0.5,0.6,0.703409861884425,"false"
"image-keyboard-response",283,228197,"0.0-4.90-1.90","gqts1gcms0mscyc",166,"159.csv","","null","resources/maskTrios/BBA3.jpg","null","",NA,NA,NA,NA,""
"image-keyboard-response",284,229409,"0.0-4.90-2.90","gqts1gcms0mscyc",166,"159.csv","","null","resources/images/fishbone.png","null","",NA,NA,NA,NA,""
"image-keyboard-response",285,229660,"0.0-4.91-0.91","gqts1gcms0mscyc",166,"159.csv","","249.5","resources/trios/L4T2A3.jpg","37","restless",0.7,0.5,0.6,0.426351886706842,"true"
"image-keyboard-response",286,230069,"0.0-4.91-1.91","gqts1gcms0mscyc",166,"159.csv","","null","resources/maskTrios/L4BB.jpg","null","",NA,NA,NA,NA,""
"image-keyboard-response",287,231276,"0.0-4.91-2.91","gqts1gcms0mscyc",166,"159.csv","","null","resources/images/coin2.png","null","",NA,NA,NA,NA,""
"image-keyboard-response",288,231536,"0.0-4.92-0.92","gqts1gcms0mscyc",166,"159.csv","","257.59999990463257","resources/trios/L4T2A3.jpg","38","restless",0.8,0.5,0.6,0.429125300469134,"true"
"image-keyboard-response",289,231940,"0.0-4.92-1.92","gqts1gcms0mscyc",166,"159.csv","","null","resources/maskTrios/BT2B.jpg","null","",NA,NA,NA,NA,""
"image-keyboard-response",290,233143,"0.0-4.92-2.92","gqts1gcms0mscyc",166,"159.csv","","null","resources/images/coin2.png","null","",NA,NA,NA,NA,""
"image-keyboard-response",291,233239,"0.0-4.93-0.93","gqts1gcms0mscyc",166,"159.csv","","94.39999997615814","resources/trios/L4T2A3.jpg","39","restless",0.8,0.5,0.6,0.762859444215175,"false"
"image-keyboard-response",292,233655,"0.0-4.93-1.93","gqts1gcms0mscyc",166,"159.csv","","null","resources/maskTrios/BBA3.jpg","null","",NA,NA,NA,NA,""
"image-keyboard-response",293,234867,"0.0-4.93-2.93","gqts1gcms0mscyc",166,"159.csv","","null","resources/images/fishbone.png","null","",NA,NA,NA,NA,""
"image-keyboard-response",294,235354,"0.0-4.94-0.94","gqts1gcms0mscyc",166,"159.csv","","485.6999999284744","resources/trios/L4T2A3.jpg","37","restless",0.8,0.5,0.6,0.237563532890352,"true"
"image-keyboard-response",295,235777,"0.0-4.94-1.94","gqts1gcms0mscyc",166,"159.csv","","null","resources/maskTrios/L4BB.jpg","null","",NA,NA,NA,NA,""
"image-keyboard-response",296,236990,"0.0-4.94-2.94","gqts1gcms0mscyc",166,"159.csv","","null","resources/images/coin2.png","null","",NA,NA,NA,NA,""
"image-keyboard-response",297,237244,"0.0-4.95-0.95","gqts1gcms0mscyc",166,"159.csv","","253.10000002384186","resources/trios/L4T2A3.jpg","38","restless",0.8,0.5,0.6,0.946601688453488,"false"
"image-keyboard-response",298,237660,"0.0-4.95-1.95","gqts1gcms0mscyc",166,"159.csv","","null","resources/maskTrios/BT2B.jpg","null","",NA,NA,NA,NA,""
"image-keyboard-response",299,238874,"0.0-4.95-2.95","gqts1gcms0mscyc",166,"159.csv","","null","resources/images/fishbone.png","null","",NA,NA,NA,NA,""
"image-keyboard-response",300,239341,"0.0-4.96-0.96","gqts1gcms0mscyc",166,"159.csv","","465.60000002384186","resources/trios/L4T2A3.jpg","39","restless",0.8,0.5,0.6,0.929110382337144,"false"
"image-keyboard-response",301,239757,"0.0-4.96-1.96","gqts1gcms0mscyc",166,"159.csv","","null","resources/maskTrios/BBA3.jpg","null","",NA,NA,NA,NA,""
"image-keyboard-response",302,240963,"0.0-4.96-2.96","gqts1gcms0mscyc",166,"159.csv","","null","resources/images/fishbone.png","null","",NA,NA,NA,NA,""
"image-keyboard-response",303,241338,"0.0-4.97-0.97","gqts1gcms0mscyc",166,"159.csv","","372.8000000715256","resources/trios/L4T2A3.jpg","37","restless",0.8,0.5,0.6,0.320455286679714,"true"
"image-keyboard-response",304,241751,"0.0-4.97-1.97","gqts1gcms0mscyc",166,"159.csv","","null","resources/maskTrios/L4BB.jpg","null","",NA,NA,NA,NA,""
"image-keyboard-response",305,242960,"0.0-4.97-2.97","gqts1gcms0mscyc",166,"159.csv","","null","resources/images/coin2.png","null","",NA,NA,NA,NA,""
"image-keyboard-response",306,243242,"0.0-4.98-0.98","gqts1gcms0mscyc",166,"159.csv","","281.2000000476837","resources/trios/L4T2A3.jpg","38","restless",0.9,0.5,0.6,0.47887596066688,"true"
"image-keyboard-response",307,243655,"0.0-4.98-1.98","gqts1gcms0mscyc",166,"159.csv","","null","resources/maskTrios/BT2B.jpg","null","",NA,NA,NA,NA,""
"image-keyboard-response",308,244867,"0.0-4.98-2.98","gqts1gcms0mscyc",166,"159.csv","","null","resources/images/coin2.png","null","",NA,NA,NA,NA,""
"image-keyboard-response",309,245041,"0.0-4.99-0.99","gqts1gcms0mscyc",166,"159.csv","","172.79999995231628","resources/trios/L4T2A3.jpg","37","restless",0.9,0.5,0.6,0.408799259451076,"true"
"image-keyboard-response",310,245446,"0.0-4.99-1.99","gqts1gcms0mscyc",166,"159.csv","","null","resources/maskTrios/L4BB.jpg","null","",NA,NA,NA,NA,""
"image-keyboard-response",311,246658,"0.0-4.99-2.99","gqts1gcms0mscyc",166,"159.csv","","null","resources/images/coin2.png","null","",NA,NA,NA,NA,""
"image-keyboard-response",312,246880,"0.0-4.100-0.100","gqts1gcms0mscyc",166,"159.csv","","220.5","resources/trios/L4T2A3.jpg","38","restless",0.9,0.5,0.6,0.69429708642541,"false"
"image-keyboard-response",313,247288,"0.0-4.100-1.100","gqts1gcms0mscyc",166,"159.csv","","null","resources/maskTrios/BT2B.jpg","null","",NA,NA,NA,NA,""
"image-keyboard-response",314,248499,"0.0-4.100-2.100","gqts1gcms0mscyc",166,"159.csv","","null","resources/images/fishbone.png","null","",NA,NA,NA,NA,""
"image-keyboard-response",315,248723,"0.0-4.101-0.101","gqts1gcms0mscyc",166,"159.csv","","221.79999995231628","resources/trios/L4T2A3.jpg","39","restless",0.8,0.5,0.6,0.19950797807691,"true"
"image-keyboard-response",316,249131,"0.0-4.101-1.101","gqts1gcms0mscyc",166,"159.csv","","null","resources/maskTrios/BBA3.jpg","null","",NA,NA,NA,NA,""
"image-keyboard-response",317,250337,"0.0-4.101-2.101","gqts1gcms0mscyc",166,"159.csv","","null","resources/images/coin2.png","null","",NA,NA,NA,NA,""
"image-keyboard-response",318,250553,"0.0-4.102-0.102","gqts1gcms0mscyc",166,"159.csv","","214.79999995231628","resources/trios/L4T2A3.jpg","38","restless",0.8,0.5,0.6,0.294329670489752,"true"
"image-keyboard-response",319,250966,"0.0-4.102-1.102","gqts1gcms0mscyc",166,"159.csv","","null","resources/maskTrios/BT2B.jpg","null","",NA,NA,NA,NA,""
"image-keyboard-response",320,252177,"0.0-4.102-2.102","gqts1gcms0mscyc",166,"159.csv","","null","resources/images/coin2.png","null","",NA,NA,NA,NA,""
"image-keyboard-response",321,252435,"0.0-4.103-0.103","gqts1gcms0mscyc",166,"159.csv","","257","resources/trios/L4T2A3.jpg","39","restless",0.8,0.5,0.6,0.690597592593871,"false"
"image-keyboard-response",322,252842,"0.0-4.103-1.103","gqts1gcms0mscyc",166,"159.csv","","null","resources/maskTrios/BBA3.jpg","null","",NA,NA,NA,NA,""
"image-keyboard-response",323,254045,"0.0-4.103-2.103","gqts1gcms0mscyc",166,"159.csv","","null","resources/images/fishbone.png","null","",NA,NA,NA,NA,""
"image-keyboard-response",324,254118,"0.0-4.104-0.104","gqts1gcms0mscyc",166,"159.csv","","71.89999997615814","resources/trios/L4T2A3.jpg","37","restless",0.8,0.5,0.6,0.325002981038718,"true"
"image-keyboard-response",325,254530,"0.0-4.104-1.104","gqts1gcms0mscyc",166,"159.csv","","null","resources/maskTrios/L4BB.jpg","null","",NA,NA,NA,NA,""
"image-keyboard-response",326,255743,"0.0-4.104-2.104","gqts1gcms0mscyc",166,"159.csv","","null","resources/images/coin2.png","null","",NA,NA,NA,NA,""
"image-keyboard-response",327,255968,"0.0-4.105-0.105","gqts1gcms0mscyc",166,"159.csv","","223.70000004768372","resources/trios/L4T2A3.jpg","38","restless",0.8,0.5,0.6,0.986861514388566,"false"
"image-keyboard-response",328,256382,"0.0-4.105-1.105","gqts1gcms0mscyc",166,"159.csv","","null","resources/maskTrios/BT2B.jpg","null","",NA,NA,NA,NA,""
"image-keyboard-response",329,257593,"0.0-4.105-2.105","gqts1gcms0mscyc",166,"159.csv","","null","resources/images/fishbone.png","null","",NA,NA,NA,NA,""
"image-keyboard-response",330,257800,"0.0-4.106-0.106","gqts1gcms0mscyc",166,"159.csv","","205.10000002384186","resources/trios/L4T2A3.jpg","39","restless",0.8,0.5,0.6,0.679679934037799,"false"
"image-keyboard-response",331,258217,"0.0-4.106-1.106","gqts1gcms0mscyc",166,"159.csv","","null","resources/maskTrios/BBA3.jpg","null","",NA,NA,NA,NA,""
"image-keyboard-response",332,259435,"0.0-4.106-2.106","gqts1gcms0mscyc",166,"159.csv","","null","resources/images/fishbone.png","null","",NA,NA,NA,NA,""
"image-keyboard-response",333,259658,"0.0-4.107-0.107","gqts1gcms0mscyc",166,"159.csv","","221.20000004768372","resources/trios/L4T2A3.jpg","37","restless",0.8,0.5,0.6,0.157502439788758,"true"
"image-keyboard-response",334,260073,"0.0-4.107-1.107","gqts1gcms0mscyc",166,"159.csv","","null","resources/maskTrios/L4BB.jpg","null","",NA,NA,NA,NA,""
"image-keyboard-response",335,261290,"0.0-4.107-2.107","gqts1gcms0mscyc",166,"159.csv","","null","resources/images/coin2.png","null","",NA,NA,NA,NA,""
"image-keyboard-response",336,261511,"0.0-4.108-0.108","gqts1gcms0mscyc",166,"159.csv","","220","resources/trios/L4T2A3.jpg","38","restless",0.8,0.4,0.6,0.01748229113035,"true"
"image-keyboard-response",337,261921,"0.0-4.108-1.108","gqts1gcms0mscyc",166,"159.csv","","null","resources/maskTrios/BT2B.jpg","null","",NA,NA,NA,NA,""
"image-keyboard-response",338,263129,"0.0-4.108-2.108","gqts1gcms0mscyc",166,"159.csv","","null","resources/images/coin2.png","null","",NA,NA,NA,NA,""
"image-keyboard-response",339,263448,"0.0-4.109-0.109","gqts1gcms0mscyc",166,"159.csv","","317","resources/trios/L4T2A3.jpg","39","restless",0.8,0.4,0.6,0.87556784640877,"false"
"image-keyboard-response",340,263856,"0.0-4.109-1.109","gqts1gcms0mscyc",166,"159.csv","","null","resources/maskTrios/BBA3.jpg","null","",NA,NA,NA,NA,""
"image-keyboard-response",341,265062,"0.0-4.109-2.109","gqts1gcms0mscyc",166,"159.csv","","null","resources/images/fishbone.png","null","",NA,NA,NA,NA,""
"image-keyboard-response",342,265291,"0.0-4.110-0.110","gqts1gcms0mscyc",166,"159.csv","","227.10000002384186","resources/trios/L4T2A3.jpg","37","restless",0.8,0.4,0.6,0.129278453624208,"true"
"image-keyboard-response",343,265693,"0.0-4.110-1.110","gqts1gcms0mscyc",166,"159.csv","","null","resources/maskTrios/L4BB.jpg","null","",NA,NA,NA,NA,""
"image-keyboard-response",344,266904,"0.0-4.110-2.110","gqts1gcms0mscyc",166,"159.csv","","null","resources/images/coin2.png","null","",NA,NA,NA,NA,""
"image-keyboard-response",345,267015,"0.0-4.111-0.111","gqts1gcms0mscyc",166,"159.csv","","107.60000002384186","resources/trios/L4T2A3.jpg","38","restless",0.8,0.4,0.6,0.53033463746915,"false"
"image-keyboard-response",346,267431,"0.0-4.111-1.111","gqts1gcms0mscyc",166,"159.csv","","null","resources/maskTrios/BT2B.jpg","null","",NA,NA,NA,NA,""
"image-keyboard-response",347,268649,"0.0-4.111-2.111","gqts1gcms0mscyc",166,"159.csv","","null","resources/images/fishbone.png","null","",NA,NA,NA,NA,""
"image-keyboard-response",348,268902,"0.0-4.112-0.112","gqts1gcms0mscyc",166,"159.csv","","251.5","resources/trios/L4T2A3.jpg","37","restless",0.8,0.4,0.6,0.870255587399928,"false"
"image-keyboard-response",349,269304,"0.0-4.112-1.112","gqts1gcms0mscyc",166,"159.csv","","null","resources/maskTrios/L4BB.jpg","null","",NA,NA,NA,NA,""
"image-keyboard-response",350,270516,"0.0-4.112-2.112","gqts1gcms0mscyc",166,"159.csv","","null","resources/images/fishbone.png","null","",NA,NA,NA,NA,""
"image-keyboard-response",351,270762,"0.0-4.113-0.113","gqts1gcms0mscyc",166,"159.csv","","244.79999995231628","resources/trios/L4T2A3.jpg","39","restless",0.8,0.3,0.6,0.000731801777480223,"true"
"image-keyboard-response",352,271180,"0.0-4.113-1.113","gqts1gcms0mscyc",166,"159.csv","","null","resources/maskTrios/BBA3.jpg","null","",NA,NA,NA,NA,""
"image-keyboard-response",353,272396,"0.0-4.113-2.113","gqts1gcms0mscyc",166,"159.csv","","null","resources/images/coin2.png","null","",NA,NA,NA,NA,""
"image-keyboard-response",354,272610,"0.0-4.114-0.114","gqts1gcms0mscyc",166,"159.csv","","213.10000002384186","resources/trios/L4T2A3.jpg","38","restless",0.8,0.3,0.6,0.039296015249118,"true"
"image-keyboard-response",355,273026,"0.0-4.114-1.114","gqts1gcms0mscyc",166,"159.csv","","null","resources/maskTrios/BT2B.jpg","null","",NA,NA,NA,NA,""
"image-keyboard-response",356,274237,"0.0-4.114-2.114","gqts1gcms0mscyc",166,"159.csv","","null","resources/images/coin2.png","null","",NA,NA,NA,NA,""
"image-keyboard-response",357,274498,"0.0-4.115-0.115","gqts1gcms0mscyc",166,"159.csv","","259.7999999523163","resources/trios/L4T2A3.jpg","39","restless",0.9,0.3,0.6,0.446399895524436,"true"
"image-keyboard-response",358,274903,"0.0-4.115-1.115","gqts1gcms0mscyc",166,"159.csv","","null","resources/maskTrios/BBA3.jpg","null","",NA,NA,NA,NA,""
"image-keyboard-response",359,276118,"0.0-4.115-2.115","gqts1gcms0mscyc",166,"159.csv","","null","resources/images/coin2.png","null","",NA,NA,NA,NA,""
"image-keyboard-response",360,276423,"0.0-4.116-0.116","gqts1gcms0mscyc",166,"159.csv","","302.60000002384186","resources/trios/L4T2A3.jpg","38","restless",0.9,0.3,0.6,0.657922224865142,"false"
"image-keyboard-response",361,276833,"0.0-4.116-1.116","gqts1gcms0mscyc",166,"159.csv","","null","resources/maskTrios/BT2B.jpg","null","",NA,NA,NA,NA,""
"image-keyboard-response",362,278046,"0.0-4.116-2.116","gqts1gcms0mscyc",166,"159.csv","","null","resources/images/fishbone.png","null","",NA,NA,NA,NA,""
"image-keyboard-response",363,278273,"0.0-4.117-0.117","gqts1gcms0mscyc",166,"159.csv","","225.70000004768372","resources/trios/L4T2A3.jpg","37","restless",0.9,0.2,0.6,0.0505649351965125,"true"
"image-keyboard-response",364,278690,"0.0-4.117-1.117","gqts1gcms0mscyc",166,"159.csv","","null","resources/maskTrios/L4BB.jpg","null","",NA,NA,NA,NA,""
"image-keyboard-response",365,279905,"0.0-4.117-2.117","gqts1gcms0mscyc",166,"159.csv","","null","resources/images/coin2.png","null","",NA,NA,NA,NA,""
"image-keyboard-response",366,280118,"0.0-4.118-0.118","gqts1gcms0mscyc",166,"159.csv","","211.60000002384186","resources/trios/L4T2A3.jpg","38","restless",0.9,0.2,0.6,0.992818984435592,"false"
"image-keyboard-response",367,280531,"0.0-4.118-1.118","gqts1gcms0mscyc",166,"159.csv","","null","resources/maskTrios/BT2B.jpg","null","",NA,NA,NA,NA,""
"image-keyboard-response",368,281740,"0.0-4.118-2.118","gqts1gcms0mscyc",166,"159.csv","","null","resources/images/fishbone.png","null","",NA,NA,NA,NA,""
"image-keyboard-response",369,281960,"0.0-4.119-0.119","gqts1gcms0mscyc",166,"159.csv","","219.20000004768372","resources/trios/L4T2A3.jpg","39","restless",0.9,0.3,0.6,0.799088779123431,"false"
"image-keyboard-response",370,282363,"0.0-4.119-1.119","gqts1gcms0mscyc",166,"159.csv","","null","resources/maskTrios/BBA3.jpg","null","",NA,NA,NA,NA,""
"image-keyboard-response",371,283577,"0.0-4.119-2.119","gqts1gcms0mscyc",166,"159.csv","","null","resources/images/fishbone.png","null","",NA,NA,NA,NA,""
"image-keyboard-response",372,283991,"0.0-4.120-0.120","gqts1gcms0mscyc",166,"159.csv","","411.89999997615814","resources/trios/L4T2A3.jpg","37","restless",0.9,0.3,0.6,0.558357654434391,"true"
"image-keyboard-response",373,284404,"0.0-4.120-1.120","gqts1gcms0mscyc",166,"159.csv","","null","resources/maskTrios/L4BB.jpg","null","",NA,NA,NA,NA,""
"image-keyboard-response",374,285612,"0.0-4.120-2.120","gqts1gcms0mscyc",166,"159.csv","","null","resources/images/coin2.png","null","",NA,NA,NA,NA,""
"image-keyboard-response",375,286291,"0.0-4.121-0.121","gqts1gcms0mscyc",166,"159.csv","","676.8000000715256","resources/trios/L4T2A3.jpg","37","restless",0.8,0.3,0.6,0.330546969822763,"true"
"image-keyboard-response",376,286706,"0.0-4.121-1.121","gqts1gcms0mscyc",166,"159.csv","","null","resources/maskTrios/L4BB.jpg","null","",NA,NA,NA,NA,""
"image-keyboard-response",377,287913,"0.0-4.121-2.121","gqts1gcms0mscyc",166,"159.csv","","null","resources/images/coin2.png","null","",NA,NA,NA,NA,""
"image-keyboard-response",378,288193,"0.0-4.122-0.122","gqts1gcms0mscyc",166,"159.csv","","278","resources/trios/L4T2A3.jpg","37","restless",0.8,0.4,0.6,0.183529317409001,"true"
"image-keyboard-response",379,288610,"0.0-4.122-1.122","gqts1gcms0mscyc",166,"159.csv","","null","resources/maskTrios/L4BB.jpg","null","",NA,NA,NA,NA,""
"image-keyboard-response",380,289818,"0.0-4.122-2.122","gqts1gcms0mscyc",166,"159.csv","","null","resources/images/coin2.png","null","",NA,NA,NA,NA,""
"image-keyboard-response",381,290144,"0.0-4.123-0.123","gqts1gcms0mscyc",166,"159.csv","","324.7000000476837","resources/trios/L4T2A3.jpg","37","restless",0.8,0.4,0.6,0.00904335017014968,"true"
"image-keyboard-response",382,290561,"0.0-4.123-1.123","gqts1gcms0mscyc",166,"159.csv","","null","resources/maskTrios/L4BB.jpg","null","",NA,NA,NA,NA,""
"image-keyboard-response",383,291775,"0.0-4.123-2.123","gqts1gcms0mscyc",166,"159.csv","","null","resources/images/coin2.png","null","",NA,NA,NA,NA,""
"image-keyboard-response",384,292043,"0.0-4.124-0.124","gqts1gcms0mscyc",166,"159.csv","","266.10000002384186","resources/trios/L4T2A3.jpg","37","restless",0.8,0.4,0.6,0.637272973150177,"true"
"image-keyboard-response",385,292455,"0.0-4.124-1.124","gqts1gcms0mscyc",166,"159.csv","","null","resources/maskTrios/L4BB.jpg","null","",NA,NA,NA,NA,""
"image-keyboard-response",386,293668,"0.0-4.124-2.124","gqts1gcms0mscyc",166,"159.csv","","null","resources/images/coin2.png","null","",NA,NA,NA,NA,""
"image-keyboard-response",387,293913,"0.0-4.125-0.125","gqts1gcms0mscyc",166,"159.csv","","243","resources/trios/L4T2A3.jpg","37","restless",0.8,0.4,0.6,0.0777843611928635,"true"
"image-keyboard-response",388,294318,"0.0-4.125-1.125","gqts1gcms0mscyc",166,"159.csv","","null","resources/maskTrios/L4BB.jpg","null","",NA,NA,NA,NA,""
"image-keyboard-response",389,295526,"0.0-4.125-2.125","gqts1gcms0mscyc",166,"159.csv","","null","resources/images/coin2.png","null","",NA,NA,NA,NA,""
"image-keyboard-response",390,295860,"0.0-4.126-0.126","gqts1gcms0mscyc",166,"159.csv","","331.5","resources/trios/L4T2A3.jpg","37","restless",0.8,0.4,0.6,0.634123874613541,"true"
"image-keyboard-response",391,296272,"0.0-4.126-1.126","gqts1gcms0mscyc",166,"159.csv","","null","resources/maskTrios/L4BB.jpg","null","",NA,NA,NA,NA,""
"image-keyboard-response",392,297485,"0.0-4.126-2.126","gqts1gcms0mscyc",166,"159.csv","","null","resources/images/coin2.png","null","",NA,NA,NA,NA,""
"image-keyboard-response",393,298643,"0.0-4.127-0.127","gqts1gcms0mscyc",166,"159.csv","","1156.1000000238419","resources/trios/L4T2A3.jpg","37","restless",0.8,0.4,0.6,0.401185190492618,"true"
"image-keyboard-response",394,299051,"0.0-4.127-1.127","gqts1gcms0mscyc",166,"159.csv","","null","resources/maskTrios/L4BB.jpg","null","",NA,NA,NA,NA,""
"image-keyboard-response",395,300259,"0.0-4.127-2.127","gqts1gcms0mscyc",166,"159.csv","","null","resources/images/coin2.png","null","",NA,NA,NA,NA,""
"image-keyboard-response",396,300600,"0.0-4.128-0.128","gqts1gcms0mscyc",166,"159.csv","","339.5","resources/trios/L4T2A3.jpg","37","restless",0.8,0.4,0.6,0.891868872276205,"false"
"image-keyboard-response",397,301008,"0.0-4.128-1.128","gqts1gcms0mscyc",166,"159.csv","","null","resources/maskTrios/L4BB.jpg","null","",NA,NA,NA,NA,""
"image-keyboard-response",398,302215,"0.0-4.128-2.128","gqts1gcms0mscyc",166,"159.csv","","null","resources/images/fishbone.png","null","",NA,NA,NA,NA,""
"image-keyboard-response",399,302501,"0.0-4.129-0.129","gqts1gcms0mscyc",166,"159.csv","","284.2999999523163","resources/trios/L4T2A3.jpg","38","restless",0.8,0.4,0.6,0.802463053348337,"false"
"image-keyboard-response",400,302905,"0.0-4.129-1.129","gqts1gcms0mscyc",166,"159.csv","","null","resources/maskTrios/BT2B.jpg","null","",NA,NA,NA,NA,""
"image-keyboard-response",401,304115,"0.0-4.129-2.129","gqts1gcms0mscyc",166,"159.csv","","null","resources/images/fishbone.png","null","",NA,NA,NA,NA,""
"image-keyboard-response",402,304337,"0.0-4.130-0.130","gqts1gcms0mscyc",166,"159.csv","","220.59999990463257","resources/trios/L4T2A3.jpg","39","restless",0.8,0.4,0.5,0.528606246359273,"false"
"image-keyboard-response",403,304746,"0.0-4.130-1.130","gqts1gcms0mscyc",166,"159.csv","","null","resources/maskTrios/BBA3.jpg","null","",NA,NA,NA,NA,""
"image-keyboard-response",404,305963,"0.0-4.130-2.130","gqts1gcms0mscyc",166,"159.csv","","null","resources/images/fishbone.png","null","",NA,NA,NA,NA,""
"image-keyboard-response",405,306328,"0.0-4.131-0.131","gqts1gcms0mscyc",166,"159.csv","","363.7000000476837","resources/trios/L4T2A3.jpg","37","restless",0.8,0.4,0.5,0.476180558349341,"true"
"image-keyboard-response",406,306734,"0.0-4.131-1.131","gqts1gcms0mscyc",166,"159.csv","","null","resources/maskTrios/L4BB.jpg","null","",NA,NA,NA,NA,""
"image-keyboard-response",407,307949,"0.0-4.131-2.131","gqts1gcms0mscyc",166,"159.csv","","null","resources/images/coin2.png","null","",NA,NA,NA,NA,""
"image-keyboard-response",408,308469,"0.0-4.132-0.132","gqts1gcms0mscyc",166,"159.csv","","518.8000000715256","resources/trios/L4T2A3.jpg","37","restless",0.8,0.4,0.5,0.207623246898597,"true"
"image-keyboard-response",409,308871,"0.0-4.132-1.132","gqts1gcms0mscyc",166,"159.csv","","null","resources/maskTrios/L4BB.jpg","null","",NA,NA,NA,NA,""
"image-keyboard-response",410,310079,"0.0-4.132-2.132","gqts1gcms0mscyc",166,"159.csv","","null","resources/images/coin2.png","null","",NA,NA,NA,NA,""
"image-keyboard-response",411,310548,"0.0-4.133-0.133","gqts1gcms0mscyc",166,"159.csv","","467.89999997615814","resources/trios/L4T2A3.jpg","37","restless",0.8,0.4,0.5,0.123256529448241,"true"
"image-keyboard-response",412,310954,"0.0-4.133-1.133","gqts1gcms0mscyc",166,"159.csv","","null","resources/maskTrios/L4BB.jpg","null","",NA,NA,NA,NA,""
"image-keyboard-response",413,312165,"0.0-4.133-2.133","gqts1gcms0mscyc",166,"159.csv","","null","resources/images/coin2.png","null","",NA,NA,NA,NA,""
"image-keyboard-response",414,312449,"0.0-4.134-0.134","gqts1gcms0mscyc",166,"159.csv","","281.60000002384186","resources/trios/L4T2A3.jpg","37","restless",0.7,0.4,0.5,0.680071440620787,"true"
"image-keyboard-response",415,312857,"0.0-4.134-1.134","gqts1gcms0mscyc",166,"159.csv","","null","resources/maskTrios/L4BB.jpg","null","",NA,NA,NA,NA,""
"image-keyboard-response",416,314075,"0.0-4.134-2.134","gqts1gcms0mscyc",166,"159.csv","","null","resources/images/coin2.png","null","",NA,NA,NA,NA,""
"image-keyboard-response",417,314299,"0.0-4.135-0.135","gqts1gcms0mscyc",166,"159.csv","","222.79999995231628","resources/trios/L4T2A3.jpg","37","restless",0.7,0.4,0.5,0.143456956631234,"true"
"image-keyboard-response",418,314703,"0.0-4.135-1.135","gqts1gcms0mscyc",166,"159.csv","","null","resources/maskTrios/L4BB.jpg","null","",NA,NA,NA,NA,""
"image-keyboard-response",419,315920,"0.0-4.135-2.135","gqts1gcms0mscyc",166,"159.csv","","null","resources/images/coin2.png","null","",NA,NA,NA,NA,""
"image-keyboard-response",420,316219,"0.0-4.136-0.136","gqts1gcms0mscyc",166,"159.csv","","297.5","resources/trios/L4T2A3.jpg","37","restless",0.7,0.4,0.5,0.892836102746115,"false"
"image-keyboard-response",421,316632,"0.0-4.136-1.136","gqts1gcms0mscyc",166,"159.csv","","null","resources/maskTrios/L4BB.jpg","null","",NA,NA,NA,NA,""
"image-keyboard-response",422,317834,"0.0-4.136-2.136","gqts1gcms0mscyc",166,"159.csv","","null","resources/images/fishbone.png","null","",NA,NA,NA,NA,""
"image-keyboard-response",423,318123,"0.0-4.137-0.137","gqts1gcms0mscyc",166,"159.csv","","287.60000002384186","resources/trios/L4T2A3.jpg","38","restless",0.7,0.4,0.5,0.812075455491417,"false"
"image-keyboard-response",424,318539,"0.0-4.137-1.137","gqts1gcms0mscyc",166,"159.csv","","null","resources/maskTrios/BT2B.jpg","null","",NA,NA,NA,NA,""
"image-keyboard-response",425,319746,"0.0-4.137-2.137","gqts1gcms0mscyc",166,"159.csv","","null","resources/images/fishbone.png","null","",NA,NA,NA,NA,""
"image-keyboard-response",426,320009,"0.0-4.138-0.138","gqts1gcms0mscyc",166,"159.csv","","261.39999997615814","resources/trios/L4T2A3.jpg","39","restless",0.7,0.4,0.5,0.2729109904511,"true"
"image-keyboard-response",427,320424,"0.0-4.138-1.138","gqts1gcms0mscyc",166,"159.csv","","null","resources/maskTrios/BBA3.jpg","null","",NA,NA,NA,NA,""
"image-keyboard-response",428,321634,"0.0-4.138-2.138","gqts1gcms0mscyc",166,"159.csv","","null","resources/images/coin2.png","null","",NA,NA,NA,NA,""
"image-keyboard-response",429,321928,"0.0-4.139-0.139","gqts1gcms0mscyc",166,"159.csv","","291.7000000476837","resources/trios/L4T2A3.jpg","39","restless",0.7,0.4,0.5,0.473893842785559,"true"
"image-keyboard-response",430,322337,"0.0-4.139-1.139","gqts1gcms0mscyc",166,"159.csv","","null","resources/maskTrios/BBA3.jpg","null","",NA,NA,NA,NA,""
"image-keyboard-response",431,323539,"0.0-4.139-2.139","gqts1gcms0mscyc",166,"159.csv","","null","resources/images/coin2.png","null","",NA,NA,NA,NA,""
"image-keyboard-response",432,323883,"0.0-4.140-0.140","gqts1gcms0mscyc",166,"159.csv","","342.3000000715256","resources/trios/L4T2A3.jpg","39","restless",0.6,0.4,0.5,0.535110882396266,"false"
"image-keyboard-response",433,324288,"0.0-4.140-1.140","gqts1gcms0mscyc",166,"159.csv","","null","resources/maskTrios/BBA3.jpg","null","",NA,NA,NA,NA,""
"image-keyboard-response",434,325493,"0.0-4.140-2.140","gqts1gcms0mscyc",166,"159.csv","","null","resources/images/fishbone.png","null","",NA,NA,NA,NA,""
"image-keyboard-response",435,325796,"0.0-4.141-0.141","gqts1gcms0mscyc",166,"159.csv","","300.3000000715256","resources/trios/L4T2A3.jpg","37","restless",0.5,0.4,0.5,0.279255338067179,"true"
"image-keyboard-response",436,326210,"0.0-4.141-1.141","gqts1gcms0mscyc",166,"159.csv","","null","resources/maskTrios/L4BB.jpg","null","",NA,NA,NA,NA,""
"image-keyboard-response",437,327427,"0.0-4.141-2.141","gqts1gcms0mscyc",166,"159.csv","","null","resources/images/coin2.png","null","",NA,NA,NA,NA,""
"image-keyboard-response",438,327723,"0.0-4.142-0.142","gqts1gcms0mscyc",166,"159.csv","","293.39999997615814","resources/trios/L4T2A3.jpg","37","restless",0.5,0.4,0.5,0.312175688558823,"true"
"image-keyboard-response",439,328129,"0.0-4.142-1.142","gqts1gcms0mscyc",166,"159.csv","","null","resources/maskTrios/L4BB.jpg","null","",NA,NA,NA,NA,""
"image-keyboard-response",440,329339,"0.0-4.142-2.142","gqts1gcms0mscyc",166,"159.csv","","null","resources/images/coin2.png","null","",NA,NA,NA,NA,""
"image-keyboard-response",441,329714,"0.0-4.143-0.143","gqts1gcms0mscyc",166,"159.csv","","373.89999997615814","resources/trios/L4T2A3.jpg","37","restless",0.5,0.3,0.5,0.979545396473285,"false"
"image-keyboard-response",442,330119,"0.0-4.143-1.143","gqts1gcms0mscyc",166,"159.csv","","null","resources/maskTrios/L4BB.jpg","null","",NA,NA,NA,NA,""
"image-keyboard-response",443,331335,"0.0-4.143-2.143","gqts1gcms0mscyc",166,"159.csv","","null","resources/images/fishbone.png","null","",NA,NA,NA,NA,""
"image-keyboard-response",444,331770,"0.0-4.144-0.144","gqts1gcms0mscyc",166,"159.csv","","433.5","resources/trios/L4T2A3.jpg","38","restless",0.5,0.3,0.5,0.911200091566175,"false"
"image-keyboard-response",445,332173,"0.0-4.144-1.144","gqts1gcms0mscyc",166,"159.csv","","null","resources/maskTrios/BT2B.jpg","null","",NA,NA,NA,NA,""
"image-keyboard-response",446,333380,"0.0-4.144-2.144","gqts1gcms0mscyc",166,"159.csv","","null","resources/images/fishbone.png","null","",NA,NA,NA,NA,""
"image-keyboard-response",447,333611,"0.0-4.145-0.145","gqts1gcms0mscyc",166,"159.csv","","229.39999997615814","resources/trios/L4T2A3.jpg","39","restless",0.6,0.3,0.5,0.943542104066515,"false"
"image-keyboard-response",448,334023,"0.0-4.145-1.145","gqts1gcms0mscyc",166,"159.csv","","null","resources/maskTrios/BBA3.jpg","null","",NA,NA,NA,NA,""
"image-keyboard-response",449,335236,"0.0-4.145-2.145","gqts1gcms0mscyc",166,"159.csv","","null","resources/images/fishbone.png","null","",NA,NA,NA,NA,""
"image-keyboard-response",450,335456,"0.0-4.146-0.146","gqts1gcms0mscyc",166,"159.csv","","218.59999990463257","resources/trios/L4T2A3.jpg","37","restless",0.5,0.3,0.5,0.34838569448676,"true"
"image-keyboard-response",451,335863,"0.0-4.146-1.146","gqts1gcms0mscyc",166,"159.csv","","null","resources/maskTrios/L4BB.jpg","null","",NA,NA,NA,NA,""
"image-keyboard-response",452,337079,"0.0-4.146-2.146","gqts1gcms0mscyc",166,"159.csv","","null","resources/images/coin2.png","null","",NA,NA,NA,NA,""
"image-keyboard-response",453,337363,"0.0-4.147-0.147","gqts1gcms0mscyc",166,"159.csv","","282.7000000476837","resources/trios/L4T2A3.jpg","37","restless",0.4,0.3,0.5,0.57616541681823,"false"
"image-keyboard-response",454,337777,"0.0-4.147-1.147","gqts1gcms0mscyc",166,"159.csv","","null","resources/maskTrios/L4BB.jpg","null","",NA,NA,NA,NA,""
"image-keyboard-response",455,338988,"0.0-4.147-2.147","gqts1gcms0mscyc",166,"159.csv","","null","resources/images/fishbone.png","null","",NA,NA,NA,NA,""
"image-keyboard-response",456,339255,"0.0-4.148-0.148","gqts1gcms0mscyc",166,"159.csv","","265.10000002384186","resources/trios/L4T2A3.jpg","38","restless",0.4,0.3,0.5,0.4045143891818,"false"
"image-keyboard-response",457,339668,"0.0-4.148-1.148","gqts1gcms0mscyc",166,"159.csv","","null","resources/maskTrios/BT2B.jpg","null","",NA,NA,NA,NA,""
"image-keyboard-response",458,340874,"0.0-4.148-2.148","gqts1gcms0mscyc",166,"159.csv","","null","resources/images/fishbone.png","null","",NA,NA,NA,NA,""
"image-keyboard-response",459,341097,"0.0-4.149-0.149","gqts1gcms0mscyc",166,"159.csv","","221.79999995231628","resources/trios/L4T2A3.jpg","39","restless",0.4,0.3,0.5,0.994596732827393,"false"
"image-keyboard-response",460,341513,"0.0-4.149-1.149","gqts1gcms0mscyc",166,"159.csv","","null","resources/maskTrios/BBA3.jpg","null","",NA,NA,NA,NA,""
"image-keyboard-response",461,342718,"0.0-4.149-2.149","gqts1gcms0mscyc",166,"159.csv","","null","resources/images/fishbone.png","null","",NA,NA,NA,NA,""
"image-keyboard-response",462,342976,"0.0-4.150-0.150","gqts1gcms0mscyc",166,"159.csv","","256","resources/trios/L4T2A3.jpg","37","restless",0.4,0.2,0.5,0.25082483653032,"true"
"image-keyboard-response",463,343389,"0.0-4.150-1.150","gqts1gcms0mscyc",166,"159.csv","","null","resources/maskTrios/L4BB.jpg","null","",NA,NA,NA,NA,""
"image-keyboard-response",464,344596,"0.0-4.150-2.150","gqts1gcms0mscyc",166,"159.csv","","null","resources/images/coin2.png","null","",NA,NA,NA,NA,""
"image-keyboard-response",465,344889,"0.0-4.151-0.151","gqts1gcms0mscyc",166,"159.csv","","292","resources/trios/L4T2A3.jpg","37","restless",0.4,0.3,0.6,0.261126913157856,"true"
"image-keyboard-response",466,345301,"0.0-4.151-1.151","gqts1gcms0mscyc",166,"159.csv","","null","resources/maskTrios/L4BB.jpg","null","",NA,NA,NA,NA,""
"image-keyboard-response",467,346507,"0.0-4.151-2.151","gqts1gcms0mscyc",166,"159.csv","","null","resources/images/coin2.png","null","",NA,NA,NA,NA,""
"image-keyboard-response",468,346877,"0.0-4.152-0.152","gqts1gcms0mscyc",166,"159.csv","","368.1999999284744","resources/trios/L4T2A3.jpg","38","restless",0.4,0.3,0.6,0.110488386523752,"true"
"image-keyboard-response",469,347291,"0.0-4.152-1.152","gqts1gcms0mscyc",166,"159.csv","","null","resources/maskTrios/BT2B.jpg","null","",NA,NA,NA,NA,""
"image-keyboard-response",470,348495,"0.0-4.152-2.152","gqts1gcms0mscyc",166,"159.csv","","null","resources/images/coin2.png","null","",NA,NA,NA,NA,""
"image-keyboard-response",471,348821,"0.0-4.153-0.153","gqts1gcms0mscyc",166,"159.csv","","324.1999999284744","resources/trios/L4T2A3.jpg","39","restless",0.4,0.3,0.6,0.673610516622411,"false"
"image-keyboard-response",472,349228,"0.0-4.153-1.153","gqts1gcms0mscyc",166,"159.csv","","null","resources/maskTrios/BBA3.jpg","null","",NA,NA,NA,NA,""
"image-keyboard-response",473,350438,"0.0-4.153-2.153","gqts1gcms0mscyc",166,"159.csv","","null","resources/images/fishbone.png","null","",NA,NA,NA,NA,""
"image-keyboard-response",474,350623,"0.0-4.154-0.154","gqts1gcms0mscyc",166,"159.csv","","183.10000002384186","resources/trios/L4T2A3.jpg","37","restless",0.4,0.3,0.6,0.966337534668469,"false"
"image-keyboard-response",475,351034,"0.0-4.154-1.154","gqts1gcms0mscyc",166,"159.csv","","null","resources/maskTrios/L4BB.jpg","null","",NA,NA,NA,NA,""
"image-keyboard-response",476,352249,"0.0-4.154-2.154","gqts1gcms0mscyc",166,"159.csv","","null","resources/images/fishbone.png","null","",NA,NA,NA,NA,""
"image-keyboard-response",477,352537,"0.0-4.155-0.155","gqts1gcms0mscyc",166,"159.csv","","286.2999999523163","resources/trios/L4T2A3.jpg","38","restless",0.3,0.3,0.6,0.0984426391230706,"true"
"image-keyboard-response",478,352945,"0.0-4.155-1.155","gqts1gcms0mscyc",166,"159.csv","","null","resources/maskTrios/BT2B.jpg","null","",NA,NA,NA,NA,""
"image-keyboard-response",479,354160,"0.0-4.155-2.155","gqts1gcms0mscyc",166,"159.csv","","null","resources/images/coin2.png","null","",NA,NA,NA,NA,""
"image-keyboard-response",480,354443,"0.0-4.156-0.156","gqts1gcms0mscyc",166,"159.csv","","281.39999997615814","resources/trios/L4T2A3.jpg","38","restless",0.3,0.3,0.6,0.164697828703436,"true"
"image-keyboard-response",481,354851,"0.0-4.156-1.156","gqts1gcms0mscyc",166,"159.csv","","null","resources/maskTrios/BT2B.jpg","null","",NA,NA,NA,NA,""
"image-keyboard-response",482,356059,"0.0-4.156-2.156","gqts1gcms0mscyc",166,"159.csv","","null","resources/images/coin2.png","null","",NA,NA,NA,NA,""
"image-keyboard-response",483,356509,"0.0-4.157-0.157","gqts1gcms0mscyc",166,"159.csv","","449.2000000476837","resources/trios/L4T2A3.jpg","39","restless",0.3,0.3,0.7,0.141646277361973,"true"
"image-keyboard-response",484,356918,"0.0-4.157-1.157","gqts1gcms0mscyc",166,"159.csv","","null","resources/maskTrios/BBA3.jpg","null","",NA,NA,NA,NA,""
"image-keyboard-response",485,358125,"0.0-4.157-2.157","gqts1gcms0mscyc",166,"159.csv","","null","resources/images/coin2.png","null","",NA,NA,NA,NA,""
"image-keyboard-response",486,358383,"0.0-4.158-0.158","gqts1gcms0mscyc",166,"159.csv","","255.60000002384186","resources/trios/L4T2A3.jpg","37","restless",0.3,0.4,0.7,0.661802223348883,"false"
"image-keyboard-response",487,358798,"0.0-4.158-1.158","gqts1gcms0mscyc",166,"159.csv","","null","resources/maskTrios/L4BB.jpg","null","",NA,NA,NA,NA,""
"image-keyboard-response",488,360008,"0.0-4.158-2.158","gqts1gcms0mscyc",166,"159.csv","","null","resources/images/fishbone.png","null","",NA,NA,NA,NA,""
"image-keyboard-response",489,360240,"0.0-4.159-0.159","gqts1gcms0mscyc",166,"159.csv","","229.69999992847443","resources/trios/L4T2A3.jpg","38","restless",0.3,0.4,0.7,0.517660751448155,"false"
"image-keyboard-response",490,360650,"0.0-4.159-1.159","gqts1gcms0mscyc",166,"159.csv","","null","resources/maskTrios/BT2B.jpg","null","",NA,NA,NA,NA,""
"image-keyboard-response",491,361863,"0.0-4.159-2.159","gqts1gcms0mscyc",166,"159.csv","","null","resources/images/fishbone.png","null","",NA,NA,NA,NA,""
"image-keyboard-response",492,362145,"0.0-4.160-0.160","gqts1gcms0mscyc",166,"159.csv","","280","resources/trios/L4T2A3.jpg","39","restless",0.3,0.4,0.7,0.750194225253623,"false"
"image-keyboard-response",493,362559,"0.0-4.160-1.160","gqts1gcms0mscyc",166,"159.csv","","null","resources/maskTrios/BBA3.jpg","null","",NA,NA,NA,NA,""
"image-keyboard-response",494,363763,"0.0-4.160-2.160","gqts1gcms0mscyc",166,"159.csv","","null","resources/images/fishbone.png","null","",NA,NA,NA,NA,""
"image-keyboard-response",495,363986,"0.0-4.161-0.161","gqts1gcms0mscyc",166,"159.csv","","222.30000007152557","resources/trios/L4T2A3.jpg","37","restless",0.3,0.4,0.7,0.0138010817123722,"true"
"image-keyboard-response",496,364397,"0.0-4.161-1.161","gqts1gcms0mscyc",166,"159.csv","","null","resources/maskTrios/L4BB.jpg","null","",NA,NA,NA,NA,""
"image-keyboard-response",497,365605,"0.0-4.161-2.161","gqts1gcms0mscyc",166,"159.csv","","null","resources/images/coin2.png","null","",NA,NA,NA,NA,""
"image-keyboard-response",498,365918,"0.0-4.162-0.162","gqts1gcms0mscyc",166,"159.csv","","310.7999999523163","resources/trios/L4T2A3.jpg","38","restless",0.3,0.4,0.7,0.733009774634164,"false"
"image-keyboard-response",499,366329,"0.0-4.162-1.162","gqts1gcms0mscyc",166,"159.csv","","null","resources/maskTrios/BT2B.jpg","null","",NA,NA,NA,NA,""
"image-keyboard-response",500,367543,"0.0-4.162-2.162","gqts1gcms0mscyc",166,"159.csv","","null","resources/images/fishbone.png","null","",NA,NA,NA,NA,""
"image-keyboard-response",501,367791,"0.0-4.163-0.163","gqts1gcms0mscyc",166,"159.csv","","246.5","resources/trios/L4T2A3.jpg","39","restless",0.3,0.4,0.7,0.332414653078903,"true"
"image-keyboard-response",502,368197,"0.0-4.163-1.163","gqts1gcms0mscyc",166,"159.csv","","null","resources/maskTrios/BBA3.jpg","null","",NA,NA,NA,NA,""
"image-keyboard-response",503,369411,"0.0-4.163-2.163","gqts1gcms0mscyc",166,"159.csv","","null","resources/images/coin2.png","null","",NA,NA,NA,NA,""
"image-keyboard-response",504,369723,"0.0-4.164-0.164","gqts1gcms0mscyc",166,"159.csv","","310.8000000715256","resources/trios/L4T2A3.jpg","37","restless",0.3,0.5,0.7,0.37624698616213,"false"
"image-keyboard-response",505,370132,"0.0-4.164-1.164","gqts1gcms0mscyc",166,"159.csv","","null","resources/maskTrios/L4BB.jpg","null","",NA,NA,NA,NA,""
"image-keyboard-response",506,371336,"0.0-4.164-2.164","gqts1gcms0mscyc",166,"159.csv","","null","resources/images/fishbone.png","null","",NA,NA,NA,NA,""
"image-keyboard-response",507,371694,"0.0-4.165-0.165","gqts1gcms0mscyc",166,"159.csv","","356.60000002384186","resources/trios/L4T2A3.jpg","38","restless",0.4,0.5,0.7,0.231414982968505,"true"
"image-keyboard-response",508,372107,"0.0-4.165-1.165","gqts1gcms0mscyc",166,"159.csv","","null","resources/maskTrios/BT2B.jpg","null","",NA,NA,NA,NA,""
"image-keyboard-response",509,373320,"0.0-4.165-2.165","gqts1gcms0mscyc",166,"159.csv","","null","resources/images/coin2.png","null","",NA,NA,NA,NA,""
"image-keyboard-response",510,373661,"0.0-4.166-0.166","gqts1gcms0mscyc",166,"159.csv","","339.10000002384186","resources/trios/L4T2A3.jpg","39","restless",0.4,0.5,0.7,0.84249196973018,"false"
"image-keyboard-response",511,374076,"0.0-4.166-1.166","gqts1gcms0mscyc",166,"159.csv","","null","resources/maskTrios/BBA3.jpg","null","",NA,NA,NA,NA,""
"image-keyboard-response",512,375285,"0.0-4.166-2.166","gqts1gcms0mscyc",166,"159.csv","","null","resources/images/fishbone.png","null","",NA,NA,NA,NA,""
"image-keyboard-response",513,375554,"0.0-4.167-0.167","gqts1gcms0mscyc",166,"159.csv","","267.89999997615814","resources/trios/L4T2A3.jpg","37","restless",0.4,0.5,0.7,0.315112687245209,"true"
"image-keyboard-response",514,375962,"0.0-4.167-1.167","gqts1gcms0mscyc",166,"159.csv","","null","resources/maskTrios/L4BB.jpg","null","",NA,NA,NA,NA,""
"image-keyboard-response",515,377179,"0.0-4.167-2.167","gqts1gcms0mscyc",166,"159.csv","","null","resources/images/coin2.png","null","",NA,NA,NA,NA,""
"image-keyboard-response",516,377497,"0.0-4.168-0.168","gqts1gcms0mscyc",166,"159.csv","","316.10000002384186","resources/trios/L4T2A3.jpg","38","restless",0.4,0.5,0.7,0.736408404945436,"false"
"image-keyboard-response",517,377909,"0.0-4.168-1.168","gqts1gcms0mscyc",166,"159.csv","","null","resources/maskTrios/BT2B.jpg","null","",NA,NA,NA,NA,""
"image-keyboard-response",518,379116,"0.0-4.168-2.168","gqts1gcms0mscyc",166,"159.csv","","null","resources/images/fishbone.png","null","",NA,NA,NA,NA,""
"image-keyboard-response",519,379401,"0.0-4.169-0.169","gqts1gcms0mscyc",166,"159.csv","","282.89999997615814","resources/trios/L4T2A3.jpg","39","restless",0.4,0.5,0.7,0.45051328994061,"true"
"image-keyboard-response",520,379811,"0.0-4.169-1.169","gqts1gcms0mscyc",166,"159.csv","","null","resources/maskTrios/BBA3.jpg","null","",NA,NA,NA,NA,""
"image-keyboard-response",521,381021,"0.0-4.169-2.169","gqts1gcms0mscyc",166,"159.csv","","null","resources/images/coin2.png","null","",NA,NA,NA,NA,""
"image-keyboard-response",522,381377,"0.0-4.170-0.170","gqts1gcms0mscyc",166,"159.csv","","355.10000002384186","resources/trios/L4T2A3.jpg","37","restless",0.4,0.5,0.7,0.62668991372807,"false"
"image-keyboard-response",523,381784,"0.0-4.170-1.170","gqts1gcms0mscyc",166,"159.csv","","null","resources/maskTrios/L4BB.jpg","null","",NA,NA,NA,NA,""
"image-keyboard-response",524,382987,"0.0-4.170-2.170","gqts1gcms0mscyc",166,"159.csv","","null","resources/images/fishbone.png","null","",NA,NA,NA,NA,""
"image-keyboard-response",525,383273,"0.0-4.171-0.171","gqts1gcms0mscyc",166,"159.csv","","283.89999997615814","resources/trios/L4T2A3.jpg","38","restless",0.4,0.5,0.7,0.608924635137633,"false"
"image-keyboard-response",526,383686,"0.0-4.171-1.171","gqts1gcms0mscyc",166,"159.csv","","null","resources/maskTrios/BT2B.jpg","null","",NA,NA,NA,NA,""
"image-keyboard-response",527,384899,"0.0-4.171-2.171","gqts1gcms0mscyc",166,"159.csv","","null","resources/images/fishbone.png","null","",NA,NA,NA,NA,""
"image-keyboard-response",528,384921,"0.0-4.172-0.172","gqts1gcms0mscyc",166,"159.csv","","20.300000071525574","resources/trios/L4T2A3.jpg","39","restless",0.4,0.5,0.7,0.0541858263421668,"true"
"image-keyboard-response",529,385336,"0.0-4.172-1.172","gqts1gcms0mscyc",166,"159.csv","","null","resources/maskTrios/BBA3.jpg","null","",NA,NA,NA,NA,""
"image-keyboard-response",530,386553,"0.0-4.172-2.172","gqts1gcms0mscyc",166,"159.csv","","null","resources/images/coin2.png","null","",NA,NA,NA,NA,""
"image-keyboard-response",531,386794,"0.0-4.173-0.173","gqts1gcms0mscyc",166,"159.csv","","240","resources/trios/L4T2A3.jpg","37","restless",0.4,0.5,0.8,0.716813882016585,"false"
"image-keyboard-response",532,387199,"0.0-4.173-1.173","gqts1gcms0mscyc",166,"159.csv","","null","resources/maskTrios/L4BB.jpg","null","",NA,NA,NA,NA,""
"image-keyboard-response",533,388401,"0.0-4.173-2.173","gqts1gcms0mscyc",166,"159.csv","","null","resources/images/fishbone.png","null","",NA,NA,NA,NA,""
"image-keyboard-response",534,388682,"0.0-4.174-0.174","gqts1gcms0mscyc",166,"159.csv","","279.90000009536743","resources/trios/L4T2A3.jpg","39","restless",0.4,0.5,0.8,0.997897674224261,"false"
"image-keyboard-response",535,389084,"0.0-4.174-1.174","gqts1gcms0mscyc",166,"159.csv","","null","resources/maskTrios/BBA3.jpg","null","",NA,NA,NA,NA,""
"image-keyboard-response",536,390296,"0.0-4.174-2.174","gqts1gcms0mscyc",166,"159.csv","","null","resources/images/fishbone.png","null","",NA,NA,NA,NA,""
"image-keyboard-response",537,390597,"0.0-4.175-0.175","gqts1gcms0mscyc",166,"159.csv","","299.2999999523163","resources/trios/L4T2A3.jpg","38","restless",0.4,0.5,0.9,0.563907756290016,"false"
"image-keyboard-response",538,391008,"0.0-4.175-1.175","gqts1gcms0mscyc",166,"159.csv","","null","resources/maskTrios/BT2B.jpg","null","",NA,NA,NA,NA,""
"image-keyboard-response",539,392223,"0.0-4.175-2.175","gqts1gcms0mscyc",166,"159.csv","","null","resources/images/fishbone.png","null","",NA,NA,NA,NA,""
"image-keyboard-response",540,392479,"0.0-4.176-0.176","gqts1gcms0mscyc",166,"159.csv","","254.60000002384186","resources/trios/L4T2A3.jpg","37","restless",0.4,0.5,0.9,0.0325100855781262,"true"
"image-keyboard-response",541,392890,"0.0-4.176-1.176","gqts1gcms0mscyc",166,"159.csv","","null","resources/maskTrios/L4BB.jpg","null","",NA,NA,NA,NA,""
"image-keyboard-response",542,394092,"0.0-4.176-2.176","gqts1gcms0mscyc",166,"159.csv","","null","resources/images/coin2.png","null","",NA,NA,NA,NA,""
"image-keyboard-response",543,394374,"0.0-4.177-0.177","gqts1gcms0mscyc",166,"159.csv","","280.7000000476837","resources/trios/L4T2A3.jpg","39","restless",0.4,0.5,0.9,0.156173394367867,"true"
"image-keyboard-response",544,394783,"0.0-4.177-1.177","gqts1gcms0mscyc",166,"159.csv","","null","resources/maskTrios/BBA3.jpg","null","",NA,NA,NA,NA,""
"image-keyboard-response",545,395990,"0.0-4.177-2.177","gqts1gcms0mscyc",166,"159.csv","","null","resources/images/coin2.png","null","",NA,NA,NA,NA,""
"image-keyboard-response",546,396272,"0.0-4.178-0.178","gqts1gcms0mscyc",166,"159.csv","","280.2000000476837","resources/trios/L4T2A3.jpg","37","restless",0.4,0.5,0.9,0.129754302030948,"true"
"image-keyboard-response",547,396687,"0.0-4.178-1.178","gqts1gcms0mscyc",166,"159.csv","","null","resources/maskTrios/L4BB.jpg","null","",NA,NA,NA,NA,""
"image-keyboard-response",548,397895,"0.0-4.178-2.178","gqts1gcms0mscyc",166,"159.csv","","null","resources/images/coin2.png","null","",NA,NA,NA,NA,""
"image-keyboard-response",549,398170,"0.0-4.179-0.179","gqts1gcms0mscyc",166,"159.csv","","273.39999997615814","resources/trios/L4T2A3.jpg","39","restless",0.4,0.5,0.9,0.827775162048256,"true"
"image-keyboard-response",550,398575,"0.0-4.179-1.179","gqts1gcms0mscyc",166,"159.csv","","null","resources/maskTrios/BBA3.jpg","null","",NA,NA,NA,NA,""
"image-keyboard-response",551,399788,"0.0-4.179-2.179","gqts1gcms0mscyc",166,"159.csv","","null","resources/images/coin2.png","null","",NA,NA,NA,NA,""
"image-keyboard-response",552,400002,"0.0-4.180-0.180","gqts1gcms0mscyc",166,"159.csv","","212.09999990463257","resources/trios/L4T2A3.jpg","37","restless",0.4,0.5,0.8,0.617931480449643,"false"
"image-keyboard-response",553,400406,"0.0-4.180-1.180","gqts1gcms0mscyc",166,"159.csv","","null","resources/maskTrios/L4BB.jpg","null","",NA,NA,NA,NA,""
"image-keyboard-response",554,401620,"0.0-4.180-2.180","gqts1gcms0mscyc",166,"159.csv","","null","resources/images/fishbone.png","null","",NA,NA,NA,NA,""
"image-keyboard-response",555,401868,"0.0-4.181-0.181","gqts1gcms0mscyc",166,"159.csv","","246.29999995231628","resources/trios/L4T2A3.jpg","38","restless",0.4,0.5,0.8,0.0183614118998385,"true"
"image-keyboard-response",556,402283,"0.0-4.181-1.181","gqts1gcms0mscyc",166,"159.csv","","null","resources/maskTrios/BT2B.jpg","null","",NA,NA,NA,NA,""
"image-keyboard-response",557,403497,"0.0-4.181-2.181","gqts1gcms0mscyc",166,"159.csv","","null","resources/images/coin2.png","null","",NA,NA,NA,NA,""
"image-keyboard-response",558,403760,"0.0-4.182-0.182","gqts1gcms0mscyc",166,"159.csv","","262.1999999284744","resources/trios/L4T2A3.jpg","39","restless",0.4,0.5,0.8,0.832482175238704,"false"
"image-keyboard-response",559,404164,"0.0-4.182-1.182","gqts1gcms0mscyc",166,"159.csv","","null","resources/maskTrios/BBA3.jpg","null","",NA,NA,NA,NA,""
"image-keyboard-response",560,405371,"0.0-4.182-2.182","gqts1gcms0mscyc",166,"159.csv","","null","resources/images/fishbone.png","null","",NA,NA,NA,NA,""
"image-keyboard-response",561,405596,"0.0-4.183-0.183","gqts1gcms0mscyc",166,"159.csv","","222","resources/trios/L4T2A3.jpg","37","restless",0.4,0.5,0.8,0.467216470044606,"false"
"image-keyboard-response",562,406008,"0.0-4.183-1.183","gqts1gcms0mscyc",166,"159.csv","","null","resources/maskTrios/L4BB.jpg","null","",NA,NA,NA,NA,""
"image-keyboard-response",563,407221,"0.0-4.183-2.183","gqts1gcms0mscyc",166,"159.csv","","null","resources/images/fishbone.png","null","",NA,NA,NA,NA,""
"image-keyboard-response",564,407534,"0.0-4.184-0.184","gqts1gcms0mscyc",166,"159.csv","","311.39999997615814","resources/trios/L4T2A3.jpg","38","restless",0.4,0.5,0.8,0.631561540221915,"false"
"image-keyboard-response",565,407947,"0.0-4.184-1.184","gqts1gcms0mscyc",166,"159.csv","","null","resources/maskTrios/BT2B.jpg","null","",NA,NA,NA,NA,""
"image-keyboard-response",566,409154,"0.0-4.184-2.184","gqts1gcms0mscyc",166,"159.csv","","null","resources/images/fishbone.png","null","",NA,NA,NA,NA,""
"image-keyboard-response",567,409451,"0.0-4.185-0.185","gqts1gcms0mscyc",166,"159.csv","","294.5","resources/trios/L4T2A3.jpg","39","restless",0.3,0.5,0.8,0.762698142857933,"true"
"image-keyboard-response",568,409860,"0.0-4.185-1.185","gqts1gcms0mscyc",166,"159.csv","","null","resources/maskTrios/BBA3.jpg","null","",NA,NA,NA,NA,""
"image-keyboard-response",569,411072,"0.0-4.185-2.185","gqts1gcms0mscyc",166,"159.csv","","null","resources/images/coin2.png","null","",NA,NA,NA,NA,""
"image-keyboard-response",570,411328,"0.0-4.186-0.186","gqts1gcms0mscyc",166,"159.csv","","254.59999990463257","resources/trios/L4T2A3.jpg","37","restless",0.3,0.5,0.8,0.693835418050214,"false"
"image-keyboard-response",571,411740,"0.0-4.186-1.186","gqts1gcms0mscyc",166,"159.csv","","null","resources/maskTrios/L4BB.jpg","null","",NA,NA,NA,NA,""
"image-keyboard-response",572,412948,"0.0-4.186-2.186","gqts1gcms0mscyc",166,"159.csv","","null","resources/images/fishbone.png","null","",NA,NA,NA,NA,""
"image-keyboard-response",573,413277,"0.0-4.187-0.187","gqts1gcms0mscyc",166,"159.csv","","327.7000000476837","resources/trios/L4T2A3.jpg","39","restless",0.4,0.6,0.8,0.990176973968315,"false"
"image-keyboard-response",574,413693,"0.0-4.187-1.187","gqts1gcms0mscyc",166,"159.csv","","null","resources/maskTrios/BBA3.jpg","null","",NA,NA,NA,NA,""
"image-keyboard-response",575,414908,"0.0-4.187-2.187","gqts1gcms0mscyc",166,"159.csv","","null","resources/images/fishbone.png","null","",NA,NA,NA,NA,""
"image-keyboard-response",576,415165,"0.0-4.188-0.188","gqts1gcms0mscyc",166,"159.csv","","254.79999995231628","resources/trios/L4T2A3.jpg","37","restless",0.4,0.6,0.7,0.720272822994057,"false"
"image-keyboard-response",577,415574,"0.0-4.188-1.188","gqts1gcms0mscyc",166,"159.csv","","null","resources/maskTrios/L4BB.jpg","null","",NA,NA,NA,NA,""
"image-keyboard-response",578,416789,"0.0-4.188-2.188","gqts1gcms0mscyc",166,"159.csv","","null","resources/images/fishbone.png","null","",NA,NA,NA,NA,""
"image-keyboard-response",579,417066,"0.0-4.189-0.189","gqts1gcms0mscyc",166,"159.csv","","275.3000000715256","resources/trios/L4T2A3.jpg","39","restless",0.4,0.6,0.7,0.257120760036763,"true"
"image-keyboard-response",580,417479,"0.0-4.189-1.189","gqts1gcms0mscyc",166,"159.csv","","null","resources/maskTrios/BBA3.jpg","null","",NA,NA,NA,NA,""
"image-keyboard-response",581,418690,"0.0-4.189-2.189","gqts1gcms0mscyc",166,"159.csv","","null","resources/images/coin2.png","null","",NA,NA,NA,NA,""
"image-keyboard-response",582,418899,"0.0-4.190-0.190","gqts1gcms0mscyc",166,"159.csv","","206.89999997615814","resources/trios/L4T2A3.jpg","38","restless",0.4,0.6,0.7,0.59493060419917,"true"
"image-keyboard-response",583,419313,"0.0-4.190-1.190","gqts1gcms0mscyc",166,"159.csv","","null","resources/maskTrios/BT2B.jpg","null","",NA,NA,NA,NA,""
"image-keyboard-response",584,420527,"0.0-4.190-2.190","gqts1gcms0mscyc",166,"159.csv","","null","resources/images/coin2.png","null","",NA,NA,NA,NA,""
"image-keyboard-response",585,420783,"0.0-4.191-0.191","gqts1gcms0mscyc",166,"159.csv","","254","resources/trios/L4T2A3.jpg","37","restless",0.4,0.6,0.6,0.24564858871144,"true"
"image-keyboard-response",586,421186,"0.0-4.191-1.191","gqts1gcms0mscyc",166,"159.csv","","null","resources/maskTrios/L4BB.jpg","null","",NA,NA,NA,NA,""
"image-keyboard-response",587,422398,"0.0-4.191-2.191","gqts1gcms0mscyc",166,"159.csv","","null","resources/images/coin2.png","null","",NA,NA,NA,NA,""
"image-keyboard-response",588,422680,"0.0-4.192-0.192","gqts1gcms0mscyc",166,"159.csv","","280.2999999523163","resources/trios/L4T2A3.jpg","39","restless",0.4,0.5,0.6,0.987186796514687,"false"
"image-keyboard-response",589,423089,"0.0-4.192-1.192","gqts1gcms0mscyc",166,"159.csv","","null","resources/maskTrios/BBA3.jpg","null","",NA,NA,NA,NA,""
"image-keyboard-response",590,424295,"0.0-4.192-2.192","gqts1gcms0mscyc",166,"159.csv","","null","resources/images/fishbone.png","null","",NA,NA,NA,NA,""
"image-keyboard-response",591,424539,"0.0-4.193-0.193","gqts1gcms0mscyc",166,"159.csv","","243.20000004768372","resources/trios/L4T2A3.jpg","37","restless",0.4,0.5,0.6,0.0763225503521883,"true"
"image-keyboard-response",592,424953,"0.0-4.193-1.193","gqts1gcms0mscyc",166,"159.csv","","null","resources/maskTrios/L4BB.jpg","null","",NA,NA,NA,NA,""
"image-keyboard-response",593,426159,"0.0-4.193-2.193","gqts1gcms0mscyc",166,"159.csv","","null","resources/images/coin2.png","null","",NA,NA,NA,NA,""
"image-keyboard-response",594,426231,"0.0-4.194-0.194","gqts1gcms0mscyc",166,"159.csv","","70.10000002384186","resources/trios/L4T2A3.jpg","38","restless",0.4,0.5,0.6,0.879953311552039,"false"
"image-keyboard-response",595,426643,"0.0-4.194-1.194","gqts1gcms0mscyc",166,"159.csv","","null","resources/maskTrios/BT2B.jpg","null","",NA,NA,NA,NA,""
"image-keyboard-response",596,427847,"0.0-4.194-2.194","gqts1gcms0mscyc",166,"159.csv","","null","resources/images/fishbone.png","null","",NA,NA,NA,NA,""
"image-keyboard-response",597,428171,"0.0-4.195-0.195","gqts1gcms0mscyc",166,"159.csv","","321.6999999284744","resources/trios/L4T2A3.jpg","39","restless",0.4,0.5,0.6,0.993036430161316,"false"
"image-keyboard-response",598,428587,"0.0-4.195-1.195","gqts1gcms0mscyc",166,"159.csv","","null","resources/maskTrios/BBA3.jpg","null","",NA,NA,NA,NA,""
"image-keyboard-response",599,429793,"0.0-4.195-2.195","gqts1gcms0mscyc",166,"159.csv","","null","resources/images/fishbone.png","null","",NA,NA,NA,NA,""
"image-keyboard-response",600,430067,"0.0-4.196-0.196","gqts1gcms0mscyc",166,"159.csv","","272.10000002384186","resources/trios/L4T2A3.jpg","37","restless",0.4,0.5,0.6,0.662790524060879,"false"
"image-keyboard-response",601,430482,"0.0-4.196-1.196","gqts1gcms0mscyc",166,"159.csv","","null","resources/maskTrios/L4BB.jpg","null","",NA,NA,NA,NA,""
"image-keyboard-response",602,431695,"0.0-4.196-2.196","gqts1gcms0mscyc",166,"159.csv","","null","resources/images/fishbone.png","null","",NA,NA,NA,NA,""
"image-keyboard-response",603,431984,"0.0-4.197-0.197","gqts1gcms0mscyc",166,"159.csv","","285.39999997615814","resources/trios/L4T2A3.jpg","39","restless",0.4,0.5,0.5,0.0142119066295254,"true"
"image-keyboard-response",604,432393,"0.0-4.197-1.197","gqts1gcms0mscyc",166,"159.csv","","null","resources/maskTrios/BBA3.jpg","null","",NA,NA,NA,NA,""
"image-keyboard-response",605,433611,"0.0-4.197-2.197","gqts1gcms0mscyc",166,"159.csv","","null","resources/images/coin2.png","null","",NA,NA,NA,NA,""
"image-keyboard-response",606,433899,"0.0-4.198-0.198","gqts1gcms0mscyc",166,"159.csv","","286.10000002384186","resources/trios/L4T2A3.jpg","38","restless",0.3,0.5,0.5,0.859348158780665,"false"
"image-keyboard-response",607,434311,"0.0-4.198-1.198","gqts1gcms0mscyc",166,"159.csv","","null","resources/maskTrios/BT2B.jpg","null","",NA,NA,NA,NA,""
