"trial_type","trial_index","time_elapsed","internal_node_id","subject","participantCode","walkNumber","success","rt","stimulus","key_press","test_part","leftProb","midProb","rightProb","generatedNum","correct"
"pavlovia",0,885,"0.0-0.0","nj3plvqcjfltacj",463,"84.csv","","","","","",NA,NA,NA,NA,""
"fullscreen",1,3983,"0.0-1.0","nj3plvqcjfltacj",463,"84.csv","true","","","","",NA,NA,NA,NA,""
"survey-html-form",2,9760,"0.0-2.0","nj3plvqcjfltacj",463,"84.csv","","5772.099999904633","","","",NA,NA,NA,NA,""
"image-keyboard-response",3,13906,"0.0-3.0-0.0","nj3plvqcjfltacj",463,"84.csv","","4144.300000190735","resources/images/parrot_nobg.png","13","",NA,NA,NA,NA,""
"image-keyboard-response",4,16908,"0.0-3.0-1.0","nj3plvqcjfltacj",463,"84.csv","","null","resources/image_sets/111.png","null","",NA,NA,NA,NA,""
"image-keyboard-response",5,19487,"0.0-3.0-2.0","nj3plvqcjfltacj",463,"84.csv","","2577.899999856949","resources/image_sets/left_highlight.png","37","",NA,NA,NA,NA,""
"image-keyboard-response",6,20513,"0.0-3.0-3.0","nj3plvqcjfltacj",463,"84.csv","","1025.2999999523163","resources/image_sets/mid_highlight.png","38","",NA,NA,NA,NA,""
"image-keyboard-response",7,21094,"0.0-3.0-4.0","nj3plvqcjfltacj",463,"84.csv","","579.7999999523163","resources/image_sets/right_highlight.png","39","",NA,NA,NA,NA,""
"image-keyboard-response",8,25365,"0.0-3.0-5.0","nj3plvqcjfltacj",463,"84.csv","","4268.700000047684","resources/image_sets/111.png","13","",NA,NA,NA,NA,""
"image-keyboard-response",9,27169,"0.0-3.0-6.0","nj3plvqcjfltacj",463,"84.csv","","1803.8999998569489","resources/images/coin2.png","13","",NA,NA,NA,NA,""
"image-keyboard-response",10,28471,"0.0-3.0-7.0","nj3plvqcjfltacj",463,"84.csv","","1301.5999999046326","resources/images/fishbone.png","13","",NA,NA,NA,NA,""
"html-keyboard-response",11,31424,"0.0-3.0-8.0","nj3plvqcjfltacj",463,"84.csv","","2952.2999999523163","<p>You can track your coin total on the top right of your screen. </p><p>At the end of your journey you will be directed to a survey, so please click on the link before exiting the task</p><p>Press Enter to begin</p>","13","",NA,NA,NA,NA,""
"image-keyboard-response",12,33818,"0.0-4.0-0.0","nj3plvqcjfltacj",463,"84.csv","","2392.600000143051","resources/trios/L1T2A2.jpg","39","restless",0.9,0.3,0.7,0.508614666873142,"true"
"image-keyboard-response",13,34222,"0.0-4.0-1.0","nj3plvqcjfltacj",463,"84.csv","","null","resources/maskTrios/BBA2.jpg","null","",NA,NA,NA,NA,""
"image-keyboard-response",14,35427,"0.0-4.0-2.0","nj3plvqcjfltacj",463,"84.csv","","null","resources/images/coin2.png","null","",NA,NA,NA,NA,""
"image-keyboard-response",15,35864,"0.0-4.1-0.1","nj3plvqcjfltacj",463,"84.csv","","436.30000019073486","resources/trios/L1T2A2.jpg","39","restless",0.9,0.3,0.8,0.513332691775869,"true"
"image-keyboard-response",16,36266,"0.0-4.1-1.1","nj3plvqcjfltacj",463,"84.csv","","null","resources/maskTrios/BBA2.jpg","null","",NA,NA,NA,NA,""
"image-keyboard-response",17,37468,"0.0-4.1-2.1","nj3plvqcjfltacj",463,"84.csv","","null","resources/images/coin2.png","null","",NA,NA,NA,NA,""
"image-keyboard-response",18,37759,"0.0-4.2-0.2","nj3plvqcjfltacj",463,"84.csv","","290.40000009536743","resources/trios/L1T2A2.jpg","39","restless",0.9,0.3,0.8,0.918944753104306,"false"
"image-keyboard-response",19,38162,"0.0-4.2-1.2","nj3plvqcjfltacj",463,"84.csv","","null","resources/maskTrios/BBA2.jpg","null","",NA,NA,NA,NA,""
"image-keyboard-response",20,39365,"0.0-4.2-2.2","nj3plvqcjfltacj",463,"84.csv","","null","resources/images/fishbone.png","null","",NA,NA,NA,NA,""
"image-keyboard-response",21,39834,"0.0-4.3-0.3","nj3plvqcjfltacj",463,"84.csv","","468.2000000476837","resources/trios/L1T2A2.jpg","38","restless",0.8,0.3,0.8,0.504414983389219,"false"
"image-keyboard-response",22,40236,"0.0-4.3-1.3","nj3plvqcjfltacj",463,"84.csv","","null","resources/maskTrios/BT2B.jpg","null","",NA,NA,NA,NA,""
"image-keyboard-response",23,41439,"0.0-4.3-2.3","nj3plvqcjfltacj",463,"84.csv","","null","resources/images/fishbone.png","null","",NA,NA,NA,NA,""
"image-keyboard-response",24,41729,"0.0-4.4-0.4","nj3plvqcjfltacj",463,"84.csv","","288.90000009536743","resources/trios/L1T2A2.jpg","39","restless",0.8,0.3,0.8,0.154348048012508,"true"
"image-keyboard-response",25,42131,"0.0-4.4-1.4","nj3plvqcjfltacj",463,"84.csv","","null","resources/maskTrios/BBA2.jpg","null","",NA,NA,NA,NA,""
"image-keyboard-response",26,43334,"0.0-4.4-2.4","nj3plvqcjfltacj",463,"84.csv","","null","resources/images/coin2.png","null","",NA,NA,NA,NA,""
"image-keyboard-response",27,43651,"0.0-4.5-0.5","nj3plvqcjfltacj",463,"84.csv","","316","resources/trios/L1T2A2.jpg","39","restless",0.8,0.3,0.9,0.456138837268077,"true"
"image-keyboard-response",28,44054,"0.0-4.5-1.5","nj3plvqcjfltacj",463,"84.csv","","null","resources/maskTrios/BBA2.jpg","null","",NA,NA,NA,NA,""
"image-keyboard-response",29,45258,"0.0-4.5-2.5","nj3plvqcjfltacj",463,"84.csv","","null","resources/images/coin2.png","null","",NA,NA,NA,NA,""
"image-keyboard-response",30,45531,"0.0-4.6-0.6","nj3plvqcjfltacj",463,"84.csv","","272.5","resources/trios/L1T2A2.jpg","39","restless",0.7,0.3,0.9,0.147213315344385,"true"
"image-keyboard-response",31,45933,"0.0-4.6-1.6","nj3plvqcjfltacj",463,"84.csv","","null","resources/maskTrios/BBA2.jpg","null","",NA,NA,NA,NA,""
"image-keyboard-response",32,47135,"0.0-4.6-2.6","nj3plvqcjfltacj",463,"84.csv","","null","resources/images/coin2.png","null","",NA,NA,NA,NA,""
"image-keyboard-response",33,47430,"0.0-4.7-0.7","nj3plvqcjfltacj",463,"84.csv","","293.10000014305115","resources/trios/L1T2A2.jpg","39","restless",0.7,0.3,0.9,0.67476876797943,"true"
"image-keyboard-response",34,47831,"0.0-4.7-1.7","nj3plvqcjfltacj",463,"84.csv","","null","resources/maskTrios/BBA2.jpg","null","",NA,NA,NA,NA,""
"image-keyboard-response",35,49034,"0.0-4.7-2.7","nj3plvqcjfltacj",463,"84.csv","","null","resources/images/coin2.png","null","",NA,NA,NA,NA,""
"image-keyboard-response",36,49382,"0.0-4.8-0.8","nj3plvqcjfltacj",463,"84.csv","","347.7999999523163","resources/trios/L1T2A2.jpg","39","restless",0.6,0.3,0.9,0.308773739862095,"true"
"image-keyboard-response",37,49784,"0.0-4.8-1.8","nj3plvqcjfltacj",463,"84.csv","","null","resources/maskTrios/BBA2.jpg","null","",NA,NA,NA,NA,""
"image-keyboard-response",38,50987,"0.0-4.8-2.8","nj3plvqcjfltacj",463,"84.csv","","null","resources/images/coin2.png","null","",NA,NA,NA,NA,""
"image-keyboard-response",39,51256,"0.0-4.9-0.9","nj3plvqcjfltacj",463,"84.csv","","267.2000000476837","resources/trios/L1T2A2.jpg","39","restless",0.5,0.3,0.9,0.0934926960557321,"true"
"image-keyboard-response",40,51658,"0.0-4.9-1.9","nj3plvqcjfltacj",463,"84.csv","","null","resources/maskTrios/BBA2.jpg","null","",NA,NA,NA,NA,""
"image-keyboard-response",41,52860,"0.0-4.9-2.9","nj3plvqcjfltacj",463,"84.csv","","null","resources/images/coin2.png","null","",NA,NA,NA,NA,""
"image-keyboard-response",42,53157,"0.0-4.10-0.10","nj3plvqcjfltacj",463,"84.csv","","295.7999999523163","resources/trios/L1T2A2.jpg","39","restless",0.5,0.2,0.9,0.0478655266019481,"true"
"image-keyboard-response",43,53558,"0.0-4.10-1.10","nj3plvqcjfltacj",463,"84.csv","","null","resources/maskTrios/BBA2.jpg","null","",NA,NA,NA,NA,""
"image-keyboard-response",44,54761,"0.0-4.10-2.10","nj3plvqcjfltacj",463,"84.csv","","null","resources/images/coin2.png","null","",NA,NA,NA,NA,""
"image-keyboard-response",45,55031,"0.0-4.11-0.11","nj3plvqcjfltacj",463,"84.csv","","268.7000000476837","resources/trios/L1T2A2.jpg","39","restless",0.5,0.2,0.9,0.25235986237111,"true"
"image-keyboard-response",46,55434,"0.0-4.11-1.11","nj3plvqcjfltacj",463,"84.csv","","null","resources/maskTrios/BBA2.jpg","null","",NA,NA,NA,NA,""
"image-keyboard-response",47,56636,"0.0-4.11-2.11","nj3plvqcjfltacj",463,"84.csv","","null","resources/images/coin2.png","null","",NA,NA,NA,NA,""
"image-keyboard-response",48,56859,"0.0-4.12-0.12","nj3plvqcjfltacj",463,"84.csv","","221.29999995231628","resources/trios/L1T2A2.jpg","39","restless",0.5,0.2,0.9,0.154115106988807,"true"
"image-keyboard-response",49,57261,"0.0-4.12-1.12","nj3plvqcjfltacj",463,"84.csv","","null","resources/maskTrios/BBA2.jpg","null","",NA,NA,NA,NA,""
"image-keyboard-response",50,58464,"0.0-4.12-2.12","nj3plvqcjfltacj",463,"84.csv","","null","resources/images/coin2.png","null","",NA,NA,NA,NA,""
"image-keyboard-response",51,58739,"0.0-4.13-0.13","nj3plvqcjfltacj",463,"84.csv","","273.7999999523163","resources/trios/L1T2A2.jpg","39","restless",0.5,0.2,0.9,0.31913416393283,"true"
"image-keyboard-response",52,59142,"0.0-4.13-1.13","nj3plvqcjfltacj",463,"84.csv","","null","resources/maskTrios/BBA2.jpg","null","",NA,NA,NA,NA,""
"image-keyboard-response",53,60344,"0.0-4.13-2.13","nj3plvqcjfltacj",463,"84.csv","","null","resources/images/coin2.png","null","",NA,NA,NA,NA,""
"image-keyboard-response",54,60614,"0.0-4.14-0.14","nj3plvqcjfltacj",463,"84.csv","","268.7999999523163","resources/trios/L1T2A2.jpg","39","restless",0.5,0.3,0.9,0.0855128029271039,"true"
"image-keyboard-response",55,61017,"0.0-4.14-1.14","nj3plvqcjfltacj",463,"84.csv","","null","resources/maskTrios/BBA2.jpg","null","",NA,NA,NA,NA,""
"image-keyboard-response",56,62219,"0.0-4.14-2.14","nj3plvqcjfltacj",463,"84.csv","","null","resources/images/coin2.png","null","",NA,NA,NA,NA,""
"image-keyboard-response",57,62475,"0.0-4.15-0.15","nj3plvqcjfltacj",463,"84.csv","","254.39999985694885","resources/trios/L1T2A2.jpg","39","restless",0.5,0.3,0.9,0.596995011063654,"true"
"image-keyboard-response",58,62875,"0.0-4.15-1.15","nj3plvqcjfltacj",463,"84.csv","","null","resources/maskTrios/BBA2.jpg","null","",NA,NA,NA,NA,""
"image-keyboard-response",59,64078,"0.0-4.15-2.15","nj3plvqcjfltacj",463,"84.csv","","null","resources/images/coin2.png","null","",NA,NA,NA,NA,""
"image-keyboard-response",60,64305,"0.0-4.16-0.16","nj3plvqcjfltacj",463,"84.csv","","226.5","resources/trios/L1T2A2.jpg","39","restless",0.5,0.3,0.9,0.459658639601521,"true"
"image-keyboard-response",61,64707,"0.0-4.16-1.16","nj3plvqcjfltacj",463,"84.csv","","null","resources/maskTrios/BBA2.jpg","null","",NA,NA,NA,NA,""
"image-keyboard-response",62,65910,"0.0-4.16-2.16","nj3plvqcjfltacj",463,"84.csv","","null","resources/images/coin2.png","null","",NA,NA,NA,NA,""
"image-keyboard-response",63,66185,"0.0-4.17-0.17","nj3plvqcjfltacj",463,"84.csv","","273.5","resources/trios/L1T2A2.jpg","39","restless",0.5,0.3,0.9,0.644998029646109,"true"
"image-keyboard-response",64,66588,"0.0-4.17-1.17","nj3plvqcjfltacj",463,"84.csv","","null","resources/maskTrios/BBA2.jpg","null","",NA,NA,NA,NA,""
"image-keyboard-response",65,67789,"0.0-4.17-2.17","nj3plvqcjfltacj",463,"84.csv","","null","resources/images/coin2.png","null","",NA,NA,NA,NA,""
"image-keyboard-response",66,68071,"0.0-4.18-0.18","nj3plvqcjfltacj",463,"84.csv","","280.89999985694885","resources/trios/L1T2A2.jpg","39","restless",0.5,0.3,0.9,0.499923373983278,"true"
"image-keyboard-response",67,68473,"0.0-4.18-1.18","nj3plvqcjfltacj",463,"84.csv","","null","resources/maskTrios/BBA2.jpg","null","",NA,NA,NA,NA,""
"image-keyboard-response",68,69675,"0.0-4.18-2.18","nj3plvqcjfltacj",463,"84.csv","","null","resources/images/coin2.png","null","",NA,NA,NA,NA,""
"image-keyboard-response",69,69980,"0.0-4.19-0.19","nj3plvqcjfltacj",463,"84.csv","","303.80000019073486","resources/trios/L1T2A2.jpg","39","restless",0.5,0.4,0.9,0.486546372025101,"true"
"image-keyboard-response",70,70382,"0.0-4.19-1.19","nj3plvqcjfltacj",463,"84.csv","","null","resources/maskTrios/BBA2.jpg","null","",NA,NA,NA,NA,""
"image-keyboard-response",71,71584,"0.0-4.19-2.19","nj3plvqcjfltacj",463,"84.csv","","null","resources/images/coin2.png","null","",NA,NA,NA,NA,""
"image-keyboard-response",72,71852,"0.0-4.20-0.20","nj3plvqcjfltacj",463,"84.csv","","266.5","resources/trios/L1T2A2.jpg","39","restless",0.5,0.4,0.9,0.673565071999633,"true"
"image-keyboard-response",73,72255,"0.0-4.20-1.20","nj3plvqcjfltacj",463,"84.csv","","null","resources/maskTrios/BBA2.jpg","null","",NA,NA,NA,NA,""
"image-keyboard-response",74,73459,"0.0-4.20-2.20","nj3plvqcjfltacj",463,"84.csv","","null","resources/images/coin2.png","null","",NA,NA,NA,NA,""
"image-keyboard-response",75,73750,"0.0-4.21-0.21","nj3plvqcjfltacj",463,"84.csv","","291.10000014305115","resources/trios/L1T2A2.jpg","39","restless",0.5,0.4,0.9,0.0836248359645779,"true"
"image-keyboard-response",76,74152,"0.0-4.21-1.21","nj3plvqcjfltacj",463,"84.csv","","null","resources/maskTrios/BBA2.jpg","null","",NA,NA,NA,NA,""
"image-keyboard-response",77,75355,"0.0-4.21-2.21","nj3plvqcjfltacj",463,"84.csv","","null","resources/images/coin2.png","null","",NA,NA,NA,NA,""
"image-keyboard-response",78,75605,"0.0-4.22-0.22","nj3plvqcjfltacj",463,"84.csv","","249","resources/trios/L1T2A2.jpg","39","restless",0.5,0.4,0.9,0.210057108969114,"true"
"image-keyboard-response",79,76007,"0.0-4.22-1.22","nj3plvqcjfltacj",463,"84.csv","","null","resources/maskTrios/BBA2.jpg","null","",NA,NA,NA,NA,""
"image-keyboard-response",80,77210,"0.0-4.22-2.22","nj3plvqcjfltacj",463,"84.csv","","null","resources/images/coin2.png","null","",NA,NA,NA,NA,""
"image-keyboard-response",81,77498,"0.0-4.23-0.23","nj3plvqcjfltacj",463,"84.csv","","286.7000000476837","resources/trios/L1T2A2.jpg","39","restless",0.5,0.4,0.9,0.338423840127426,"true"
"image-keyboard-response",82,77900,"0.0-4.23-1.23","nj3plvqcjfltacj",463,"84.csv","","null","resources/maskTrios/BBA2.jpg","null","",NA,NA,NA,NA,""
"image-keyboard-response",83,79102,"0.0-4.23-2.23","nj3plvqcjfltacj",463,"84.csv","","null","resources/images/coin2.png","null","",NA,NA,NA,NA,""
"image-keyboard-response",84,79407,"0.0-4.24-0.24","nj3plvqcjfltacj",463,"84.csv","","303.7000000476837","resources/trios/L1T2A2.jpg","39","restless",0.5,0.4,0.9,0.35524530893911,"true"
"image-keyboard-response",85,79809,"0.0-4.24-1.24","nj3plvqcjfltacj",463,"84.csv","","null","resources/maskTrios/BBA2.jpg","null","",NA,NA,NA,NA,""
"image-keyboard-response",86,81012,"0.0-4.24-2.24","nj3plvqcjfltacj",463,"84.csv","","null","resources/images/coin2.png","null","",NA,NA,NA,NA,""
"image-keyboard-response",87,81294,"0.0-4.25-0.25","nj3plvqcjfltacj",463,"84.csv","","281.7000000476837","resources/trios/L1T2A2.jpg","39","restless",0.5,0.4,0.9,0.808012239748172,"true"
"image-keyboard-response",88,81697,"0.0-4.25-1.25","nj3plvqcjfltacj",463,"84.csv","","null","resources/maskTrios/BBA2.jpg","null","",NA,NA,NA,NA,""
"image-keyboard-response",89,82899,"0.0-4.25-2.25","nj3plvqcjfltacj",463,"84.csv","","null","resources/images/coin2.png","null","",NA,NA,NA,NA,""
"image-keyboard-response",90,83258,"0.0-4.26-0.26","nj3plvqcjfltacj",463,"84.csv","","358.59999990463257","resources/trios/L1T2A2.jpg","39","restless",0.5,0.4,0.9,0.294066600020566,"true"
"image-keyboard-response",91,83661,"0.0-4.26-1.26","nj3plvqcjfltacj",463,"84.csv","","null","resources/maskTrios/BBA2.jpg","null","",NA,NA,NA,NA,""
"image-keyboard-response",92,84863,"0.0-4.26-2.26","nj3plvqcjfltacj",463,"84.csv","","null","resources/images/coin2.png","null","",NA,NA,NA,NA,""
"image-keyboard-response",93,85131,"0.0-4.27-0.27","nj3plvqcjfltacj",463,"84.csv","","266.30000019073486","resources/trios/L1T2A2.jpg","39","restless",0.5,0.5,0.9,0.860270320827979,"true"
"image-keyboard-response",94,85532,"0.0-4.27-1.27","nj3plvqcjfltacj",463,"84.csv","","null","resources/maskTrios/BBA2.jpg","null","",NA,NA,NA,NA,""
"image-keyboard-response",95,86737,"0.0-4.27-2.27","nj3plvqcjfltacj",463,"84.csv","","null","resources/images/coin2.png","null","",NA,NA,NA,NA,""
"image-keyboard-response",96,86982,"0.0-4.28-0.28","nj3plvqcjfltacj",463,"84.csv","","244.20000004768372","resources/trios/L1T2A2.jpg","39","restless",0.5,0.5,0.9,0.31112367844575,"true"
"image-keyboard-response",97,87384,"0.0-4.28-1.28","nj3plvqcjfltacj",463,"84.csv","","null","resources/maskTrios/BBA2.jpg","null","",NA,NA,NA,NA,""
"image-keyboard-response",98,88589,"0.0-4.28-2.28","nj3plvqcjfltacj",463,"84.csv","","null","resources/images/coin2.png","null","",NA,NA,NA,NA,""
"image-keyboard-response",99,88826,"0.0-4.29-0.29","nj3plvqcjfltacj",463,"84.csv","","234","resources/trios/L1T2A2.jpg","39","restless",0.5,0.5,0.8,0.0672633657242196,"true"
"image-keyboard-response",100,89228,"0.0-4.29-1.29","nj3plvqcjfltacj",463,"84.csv","","null","resources/maskTrios/BBA2.jpg","null","",NA,NA,NA,NA,""
"image-keyboard-response",101,90431,"0.0-4.29-2.29","nj3plvqcjfltacj",463,"84.csv","","null","resources/images/coin2.png","null","",NA,NA,NA,NA,""
"image-keyboard-response",102,90689,"0.0-4.30-0.30","nj3plvqcjfltacj",463,"84.csv","","256.59999990463257","resources/trios/L1T2A2.jpg","39","restless",0.5,0.5,0.9,0.264469880333879,"true"
"image-keyboard-response",103,91091,"0.0-4.30-1.30","nj3plvqcjfltacj",463,"84.csv","","null","resources/maskTrios/BBA2.jpg","null","",NA,NA,NA,NA,""
"image-keyboard-response",104,92295,"0.0-4.30-2.30","nj3plvqcjfltacj",463,"84.csv","","null","resources/images/coin2.png","null","",NA,NA,NA,NA,""
"image-keyboard-response",105,92561,"0.0-4.31-0.31","nj3plvqcjfltacj",463,"84.csv","","263.59999990463257","resources/trios/L1T2A2.jpg","39","restless",0.5,0.5,0.9,0.430475004108441,"true"
"image-keyboard-response",106,92965,"0.0-4.31-1.31","nj3plvqcjfltacj",463,"84.csv","","null","resources/maskTrios/BBA2.jpg","null","",NA,NA,NA,NA,""
"image-keyboard-response",107,94167,"0.0-4.31-2.31","nj3plvqcjfltacj",463,"84.csv","","null","resources/images/coin2.png","null","",NA,NA,NA,NA,""
"image-keyboard-response",108,94463,"0.0-4.32-0.32","nj3plvqcjfltacj",463,"84.csv","","294.90000009536743","resources/trios/L1T2A2.jpg","39","restless",0.5,0.5,0.9,0.459543667147365,"true"
"image-keyboard-response",109,94866,"0.0-4.32-1.32","nj3plvqcjfltacj",463,"84.csv","","null","resources/maskTrios/BBA2.jpg","null","",NA,NA,NA,NA,""
"image-keyboard-response",110,96069,"0.0-4.32-2.32","nj3plvqcjfltacj",463,"84.csv","","null","resources/images/coin2.png","null","",NA,NA,NA,NA,""
"image-keyboard-response",111,96246,"0.0-4.33-0.33","nj3plvqcjfltacj",463,"84.csv","","176","resources/trios/L1T2A2.jpg","39","restless",0.5,0.5,0.9,0.282433062238979,"true"
"image-keyboard-response",112,96648,"0.0-4.33-1.33","nj3plvqcjfltacj",463,"84.csv","","null","resources/maskTrios/BBA2.jpg","null","",NA,NA,NA,NA,""
"image-keyboard-response",113,97851,"0.0-4.33-2.33","nj3plvqcjfltacj",463,"84.csv","","null","resources/images/coin2.png","null","",NA,NA,NA,NA,""
"image-keyboard-response",114,98131,"0.0-4.34-0.34","nj3plvqcjfltacj",463,"84.csv","","278.30000019073486","resources/trios/L1T2A2.jpg","39","restless",0.5,0.5,0.9,0.396062707365956,"true"
"image-keyboard-response",115,98533,"0.0-4.34-1.34","nj3plvqcjfltacj",463,"84.csv","","null","resources/maskTrios/BBA2.jpg","null","",NA,NA,NA,NA,""
"image-keyboard-response",116,99736,"0.0-4.34-2.34","nj3plvqcjfltacj",463,"84.csv","","null","resources/images/coin2.png","null","",NA,NA,NA,NA,""
"image-keyboard-response",117,100003,"0.0-4.35-0.35","nj3plvqcjfltacj",463,"84.csv","","266.59999990463257","resources/trios/L1T2A2.jpg","39","restless",0.5,0.5,0.9,0.747702650278976,"true"
"image-keyboard-response",118,100406,"0.0-4.35-1.35","nj3plvqcjfltacj",463,"84.csv","","null","resources/maskTrios/BBA2.jpg","null","",NA,NA,NA,NA,""
"image-keyboard-response",119,101609,"0.0-4.35-2.35","nj3plvqcjfltacj",463,"84.csv","","null","resources/images/coin2.png","null","",NA,NA,NA,NA,""
"image-keyboard-response",120,101865,"0.0-4.36-0.36","nj3plvqcjfltacj",463,"84.csv","","255.59999990463257","resources/trios/L1T2A2.jpg","39","restless",0.5,0.5,0.9,0.232936267103031,"true"
"image-keyboard-response",121,102268,"0.0-4.36-1.36","nj3plvqcjfltacj",463,"84.csv","","null","resources/maskTrios/BBA2.jpg","null","",NA,NA,NA,NA,""
"image-keyboard-response",122,103470,"0.0-4.36-2.36","nj3plvqcjfltacj",463,"84.csv","","null","resources/images/coin2.png","null","",NA,NA,NA,NA,""
"image-keyboard-response",123,103789,"0.0-4.37-0.37","nj3plvqcjfltacj",463,"84.csv","","317.2999999523163","resources/trios/L1T2A2.jpg","39","restless",0.5,0.5,0.9,0.920988551027816,"false"
"image-keyboard-response",124,104191,"0.0-4.37-1.37","nj3plvqcjfltacj",463,"84.csv","","null","resources/maskTrios/BBA2.jpg","null","",NA,NA,NA,NA,""
"image-keyboard-response",125,105394,"0.0-4.37-2.37","nj3plvqcjfltacj",463,"84.csv","","null","resources/images/fishbone.png","null","",NA,NA,NA,NA,""
"image-keyboard-response",126,105725,"0.0-4.38-0.38","nj3plvqcjfltacj",463,"84.csv","","330","resources/trios/L1T2A2.jpg","37","restless",0.5,0.5,0.9,0.757474891279568,"false"
"image-keyboard-response",127,106126,"0.0-4.38-1.38","nj3plvqcjfltacj",463,"84.csv","","null","resources/maskTrios/L1BB.jpg","null","",NA,NA,NA,NA,""
"image-keyboard-response",128,107329,"0.0-4.38-2.38","nj3plvqcjfltacj",463,"84.csv","","null","resources/images/fishbone.png","null","",NA,NA,NA,NA,""
"image-keyboard-response",129,107606,"0.0-4.39-0.39","nj3plvqcjfltacj",463,"84.csv","","276","resources/trios/L1T2A2.jpg","39","restless",0.5,0.5,0.9,0.658463949814645,"true"
"image-keyboard-response",130,108008,"0.0-4.39-1.39","nj3plvqcjfltacj",463,"84.csv","","null","resources/maskTrios/BBA2.jpg","null","",NA,NA,NA,NA,""
"image-keyboard-response",131,109211,"0.0-4.39-2.39","nj3plvqcjfltacj",463,"84.csv","","null","resources/images/coin2.png","null","",NA,NA,NA,NA,""
"image-keyboard-response",132,109508,"0.0-4.40-0.40","nj3plvqcjfltacj",463,"84.csv","","295.5","resources/trios/L1T2A2.jpg","39","restless",0.5,0.5,0.9,0.135024895740884,"true"
"image-keyboard-response",133,109909,"0.0-4.40-1.40","nj3plvqcjfltacj",463,"84.csv","","null","resources/maskTrios/BBA2.jpg","null","",NA,NA,NA,NA,""
"image-keyboard-response",134,111111,"0.0-4.40-2.40","nj3plvqcjfltacj",463,"84.csv","","null","resources/images/coin2.png","null","",NA,NA,NA,NA,""
"image-keyboard-response",135,111619,"0.0-4.41-0.41","nj3plvqcjfltacj",463,"84.csv","","507.10000014305115","resources/trios/L1T2A2.jpg","39","restless",0.5,0.5,0.9,0.292495483587848,"true"
"image-keyboard-response",136,112022,"0.0-4.41-1.41","nj3plvqcjfltacj",463,"84.csv","","null","resources/maskTrios/BBA2.jpg","null","",NA,NA,NA,NA,""
"image-keyboard-response",137,113223,"0.0-4.41-2.41","nj3plvqcjfltacj",463,"84.csv","","null","resources/images/coin2.png","null","",NA,NA,NA,NA,""
"image-keyboard-response",138,113519,"0.0-4.42-0.42","nj3plvqcjfltacj",463,"84.csv","","294.7999999523163","resources/trios/L1T2A2.jpg","39","restless",0.5,0.4,0.9,0.363882701242372,"true"
"image-keyboard-response",139,113921,"0.0-4.42-1.42","nj3plvqcjfltacj",463,"84.csv","","null","resources/maskTrios/BBA2.jpg","null","",NA,NA,NA,NA,""
"image-keyboard-response",140,115124,"0.0-4.42-2.42","nj3plvqcjfltacj",463,"84.csv","","null","resources/images/coin2.png","null","",NA,NA,NA,NA,""
"image-keyboard-response",141,115420,"0.0-4.43-0.43","nj3plvqcjfltacj",463,"84.csv","","294.90000009536743","resources/trios/L1T2A2.jpg","39","restless",0.5,0.4,0.9,0.814174627743927,"true"
"image-keyboard-response",142,115823,"0.0-4.43-1.43","nj3plvqcjfltacj",463,"84.csv","","null","resources/maskTrios/BBA2.jpg","null","",NA,NA,NA,NA,""
"image-keyboard-response",143,117025,"0.0-4.43-2.43","nj3plvqcjfltacj",463,"84.csv","","null","resources/images/coin2.png","null","",NA,NA,NA,NA,""
"image-keyboard-response",144,117358,"0.0-4.44-0.44","nj3plvqcjfltacj",463,"84.csv","","331.7999999523163","resources/trios/L1T2A2.jpg","39","restless",0.5,0.4,0.9,0.162264536471858,"true"
"image-keyboard-response",145,117759,"0.0-4.44-1.44","nj3plvqcjfltacj",463,"84.csv","","null","resources/maskTrios/BBA2.jpg","null","",NA,NA,NA,NA,""
"image-keyboard-response",146,118962,"0.0-4.44-2.44","nj3plvqcjfltacj",463,"84.csv","","null","resources/images/coin2.png","null","",NA,NA,NA,NA,""
"image-keyboard-response",147,119259,"0.0-4.45-0.45","nj3plvqcjfltacj",463,"84.csv","","296.5","resources/trios/L1T2A2.jpg","39","restless",0.6,0.4,0.8,0.5032293719298,"true"
"image-keyboard-response",148,119661,"0.0-4.45-1.45","nj3plvqcjfltacj",463,"84.csv","","null","resources/maskTrios/BBA2.jpg","null","",NA,NA,NA,NA,""
"image-keyboard-response",149,120863,"0.0-4.45-2.45","nj3plvqcjfltacj",463,"84.csv","","null","resources/images/coin2.png","null","",NA,NA,NA,NA,""
"image-keyboard-response",150,121140,"0.0-4.46-0.46","nj3plvqcjfltacj",463,"84.csv","","275.89999985694885","resources/trios/L1T2A2.jpg","39","restless",0.6,0.4,0.8,0.629017475390453,"true"
"image-keyboard-response",151,121541,"0.0-4.46-1.46","nj3plvqcjfltacj",463,"84.csv","","null","resources/maskTrios/BBA2.jpg","null","",NA,NA,NA,NA,""
"image-keyboard-response",152,122744,"0.0-4.46-2.46","nj3plvqcjfltacj",463,"84.csv","","null","resources/images/coin2.png","null","",NA,NA,NA,NA,""
"image-keyboard-response",153,123047,"0.0-4.47-0.47","nj3plvqcjfltacj",463,"84.csv","","303","resources/trios/L1T2A2.jpg","39","restless",0.6,0.4,0.8,0.379080104081071,"true"
"image-keyboard-response",154,123449,"0.0-4.47-1.47","nj3plvqcjfltacj",463,"84.csv","","null","resources/maskTrios/BBA2.jpg","null","",NA,NA,NA,NA,""
"image-keyboard-response",155,124653,"0.0-4.47-2.47","nj3plvqcjfltacj",463,"84.csv","","null","resources/images/coin2.png","null","",NA,NA,NA,NA,""
"image-keyboard-response",156,124916,"0.0-4.48-0.48","nj3plvqcjfltacj",463,"84.csv","","262.09999990463257","resources/trios/L1T2A2.jpg","39","restless",0.6,0.4,0.8,0.429645604273981,"true"
"image-keyboard-response",157,125318,"0.0-4.48-1.48","nj3plvqcjfltacj",463,"84.csv","","null","resources/maskTrios/BBA2.jpg","null","",NA,NA,NA,NA,""
"image-keyboard-response",158,126521,"0.0-4.48-2.48","nj3plvqcjfltacj",463,"84.csv","","null","resources/images/coin2.png","null","",NA,NA,NA,NA,""
"image-keyboard-response",159,126799,"0.0-4.49-0.49","nj3plvqcjfltacj",463,"84.csv","","277","resources/trios/L1T2A2.jpg","39","restless",0.6,0.4,0.8,0.978447804455987,"false"
"image-keyboard-response",160,127202,"0.0-4.49-1.49","nj3plvqcjfltacj",463,"84.csv","","null","resources/maskTrios/BBA2.jpg","null","",NA,NA,NA,NA,""
"image-keyboard-response",161,128404,"0.0-4.49-2.49","nj3plvqcjfltacj",463,"84.csv","","null","resources/images/fishbone.png","null","",NA,NA,NA,NA,""
"image-keyboard-response",162,128743,"0.0-4.50-0.50","nj3plvqcjfltacj",463,"84.csv","","337.7999999523163","resources/trios/L1T2A2.jpg","38","restless",0.6,0.4,0.9,0.95934777186925,"false"
"image-keyboard-response",163,129146,"0.0-4.50-1.50","nj3plvqcjfltacj",463,"84.csv","","null","resources/maskTrios/BT2B.jpg","null","",NA,NA,NA,NA,""
"image-keyboard-response",164,130349,"0.0-4.50-2.50","nj3plvqcjfltacj",463,"84.csv","","null","resources/images/fishbone.png","null","",NA,NA,NA,NA,""
"image-keyboard-response",165,130657,"0.0-4.51-0.51","nj3plvqcjfltacj",463,"84.csv","","307.09999990463257","resources/trios/L1T2A2.jpg","39","restless",0.6,0.4,0.9,0.836694544663374,"true"
"image-keyboard-response",166,131059,"0.0-4.51-1.51","nj3plvqcjfltacj",463,"84.csv","","null","resources/maskTrios/BBA2.jpg","null","",NA,NA,NA,NA,""
"image-keyboard-response",167,132262,"0.0-4.51-2.51","nj3plvqcjfltacj",463,"84.csv","","null","resources/images/coin2.png","null","",NA,NA,NA,NA,""
"image-keyboard-response",168,132600,"0.0-4.52-0.52","nj3plvqcjfltacj",463,"84.csv","","336.5","resources/trios/L1T2A2.jpg","39","restless",0.6,0.4,0.9,0.738282089667288,"true"
"image-keyboard-response",169,133002,"0.0-4.52-1.52","nj3plvqcjfltacj",463,"84.csv","","null","resources/maskTrios/BBA2.jpg","null","",NA,NA,NA,NA,""
"image-keyboard-response",170,134205,"0.0-4.52-2.52","nj3plvqcjfltacj",463,"84.csv","","null","resources/images/coin2.png","null","",NA,NA,NA,NA,""
"image-keyboard-response",171,134646,"0.0-4.53-0.53","nj3plvqcjfltacj",463,"84.csv","","439.90000009536743","resources/trios/L1T2A2.jpg","39","restless",0.6,0.4,0.9,0.256185357693319,"true"
"image-keyboard-response",172,135049,"0.0-4.53-1.53","nj3plvqcjfltacj",463,"84.csv","","null","resources/maskTrios/BBA2.jpg","null","",NA,NA,NA,NA,""
"image-keyboard-response",173,136251,"0.0-4.53-2.53","nj3plvqcjfltacj",463,"84.csv","","null","resources/images/coin2.png","null","",NA,NA,NA,NA,""
"image-keyboard-response",174,136572,"0.0-4.54-0.54","nj3plvqcjfltacj",463,"84.csv","","320.2000000476837","resources/trios/L1T2A2.jpg","39","restless",0.6,0.4,0.9,0.759446701162427,"true"
"image-keyboard-response",175,136973,"0.0-4.54-1.54","nj3plvqcjfltacj",463,"84.csv","","null","resources/maskTrios/BBA2.jpg","null","",NA,NA,NA,NA,""
"image-keyboard-response",176,138175,"0.0-4.54-2.54","nj3plvqcjfltacj",463,"84.csv","","null","resources/images/coin2.png","null","",NA,NA,NA,NA,""
"image-keyboard-response",177,138467,"0.0-4.55-0.55","nj3plvqcjfltacj",463,"84.csv","","291.39999985694885","resources/trios/L1T2A2.jpg","39","restless",0.7,0.4,0.9,0.872897685610754,"true"
"image-keyboard-response",178,138869,"0.0-4.55-1.55","nj3plvqcjfltacj",463,"84.csv","","null","resources/maskTrios/BBA2.jpg","null","",NA,NA,NA,NA,""
"image-keyboard-response",179,140071,"0.0-4.55-2.55","nj3plvqcjfltacj",463,"84.csv","","null","resources/images/coin2.png","null","",NA,NA,NA,NA,""
"image-keyboard-response",180,140317,"0.0-4.56-0.56","nj3plvqcjfltacj",463,"84.csv","","244.39999985694885","resources/trios/L1T2A2.jpg","39","restless",0.7,0.4,0.9,0.521079199404721,"true"
"image-keyboard-response",181,140719,"0.0-4.56-1.56","nj3plvqcjfltacj",463,"84.csv","","null","resources/maskTrios/BBA2.jpg","null","",NA,NA,NA,NA,""
"image-keyboard-response",182,141920,"0.0-4.56-2.56","nj3plvqcjfltacj",463,"84.csv","","null","resources/images/coin2.png","null","",NA,NA,NA,NA,""
"image-keyboard-response",183,142225,"0.0-4.57-0.57","nj3plvqcjfltacj",463,"84.csv","","304.09999990463257","resources/trios/L1T2A2.jpg","39","restless",0.8,0.4,0.9,0.271624274905339,"true"
"image-keyboard-response",184,142627,"0.0-4.57-1.57","nj3plvqcjfltacj",463,"84.csv","","null","resources/maskTrios/BBA2.jpg","null","",NA,NA,NA,NA,""
"image-keyboard-response",185,143829,"0.0-4.57-2.57","nj3plvqcjfltacj",463,"84.csv","","null","resources/images/coin2.png","null","",NA,NA,NA,NA,""
"image-keyboard-response",186,144079,"0.0-4.58-0.58","nj3plvqcjfltacj",463,"84.csv","","249.29999995231628","resources/trios/L1T2A2.jpg","39","restless",0.8,0.4,0.9,0.35345833331574,"true"
"image-keyboard-response",187,144481,"0.0-4.58-1.58","nj3plvqcjfltacj",463,"84.csv","","null","resources/maskTrios/BBA2.jpg","null","",NA,NA,NA,NA,""
"image-keyboard-response",188,145683,"0.0-4.58-2.58","nj3plvqcjfltacj",463,"84.csv","","null","resources/images/coin2.png","null","",NA,NA,NA,NA,""
"image-keyboard-response",189,145949,"0.0-4.59-0.59","nj3plvqcjfltacj",463,"84.csv","","265.40000009536743","resources/trios/L1T2A2.jpg","39","restless",0.8,0.4,0.9,0.915908963883663,"false"
"image-keyboard-response",190,146352,"0.0-4.59-1.59","nj3plvqcjfltacj",463,"84.csv","","null","resources/maskTrios/BBA2.jpg","null","",NA,NA,NA,NA,""
"image-keyboard-response",191,147553,"0.0-4.59-2.59","nj3plvqcjfltacj",463,"84.csv","","null","resources/images/fishbone.png","null","",NA,NA,NA,NA,""
"image-keyboard-response",192,148495,"0.0-4.60-0.60","nj3plvqcjfltacj",463,"84.csv","","940.8999998569489","resources/trios/L1T2A2.jpg","39","restless",0.8,0.4,0.9,0.636798342516587,"true"
"image-keyboard-response",193,148896,"0.0-4.60-1.60","nj3plvqcjfltacj",463,"84.csv","","null","resources/maskTrios/BBA2.jpg","null","",NA,NA,NA,NA,""
"image-keyboard-response",194,150098,"0.0-4.60-2.60","nj3plvqcjfltacj",463,"84.csv","","null","resources/images/coin2.png","null","",NA,NA,NA,NA,""
"image-keyboard-response",195,150430,"0.0-4.61-0.61","nj3plvqcjfltacj",463,"84.csv","","331.2000000476837","resources/trios/L1T2A2.jpg","39","restless",0.8,0.4,0.9,0.719469138107552,"true"
"image-keyboard-response",196,150833,"0.0-4.61-1.61","nj3plvqcjfltacj",463,"84.csv","","null","resources/maskTrios/BBA2.jpg","null","",NA,NA,NA,NA,""
"image-keyboard-response",197,152035,"0.0-4.61-2.61","nj3plvqcjfltacj",463,"84.csv","","null","resources/images/coin2.png","null","",NA,NA,NA,NA,""
"image-keyboard-response",198,152350,"0.0-4.62-0.62","nj3plvqcjfltacj",463,"84.csv","","314.40000009536743","resources/trios/L1T2A2.jpg","39","restless",0.8,0.4,0.9,0.183554320827994,"true"
"image-keyboard-response",199,152753,"0.0-4.62-1.62","nj3plvqcjfltacj",463,"84.csv","","null","resources/maskTrios/BBA2.jpg","null","",NA,NA,NA,NA,""
"image-keyboard-response",200,153954,"0.0-4.62-2.62","nj3plvqcjfltacj",463,"84.csv","","null","resources/images/coin2.png","null","",NA,NA,NA,NA,""
"image-keyboard-response",201,154239,"0.0-4.63-0.63","nj3plvqcjfltacj",463,"84.csv","","284.2000000476837","resources/trios/L1T2A2.jpg","39","restless",0.8,0.4,0.9,0.966780167344206,"false"
"image-keyboard-response",202,154641,"0.0-4.63-1.63","nj3plvqcjfltacj",463,"84.csv","","null","resources/maskTrios/BBA2.jpg","null","",NA,NA,NA,NA,""
"image-keyboard-response",203,155843,"0.0-4.63-2.63","nj3plvqcjfltacj",463,"84.csv","","null","resources/images/fishbone.png","null","",NA,NA,NA,NA,""
"image-keyboard-response",204,156252,"0.0-4.64-0.64","nj3plvqcjfltacj",463,"84.csv","","407.59999990463257","resources/trios/L1T2A2.jpg","39","restless",0.8,0.4,0.9,0.99812659335357,"false"
"image-keyboard-response",205,156654,"0.0-4.64-1.64","nj3plvqcjfltacj",463,"84.csv","","null","resources/maskTrios/BBA2.jpg","null","",NA,NA,NA,NA,""
"image-keyboard-response",206,157856,"0.0-4.64-2.64","nj3plvqcjfltacj",463,"84.csv","","null","resources/images/fishbone.png","null","",NA,NA,NA,NA,""
"image-keyboard-response",207,158155,"0.0-4.65-0.65","nj3plvqcjfltacj",463,"84.csv","","298.10000014305115","resources/trios/L1T2A2.jpg","38","restless",0.8,0.4,0.9,0.707230875113354,"false"
"image-keyboard-response",208,158558,"0.0-4.65-1.65","nj3plvqcjfltacj",463,"84.csv","","null","resources/maskTrios/BT2B.jpg","null","",NA,NA,NA,NA,""
"image-keyboard-response",209,159760,"0.0-4.65-2.65","nj3plvqcjfltacj",463,"84.csv","","null","resources/images/fishbone.png","null","",NA,NA,NA,NA,""
"image-keyboard-response",210,160030,"0.0-4.66-0.66","nj3plvqcjfltacj",463,"84.csv","","268.90000009536743","resources/trios/L1T2A2.jpg","39","restless",0.8,0.4,0.9,0.24978210269681,"true"
"image-keyboard-response",211,160432,"0.0-4.66-1.66","nj3plvqcjfltacj",463,"84.csv","","null","resources/maskTrios/BBA2.jpg","null","",NA,NA,NA,NA,""
"image-keyboard-response",212,161635,"0.0-4.66-2.66","nj3plvqcjfltacj",463,"84.csv","","null","resources/images/coin2.png","null","",NA,NA,NA,NA,""
"image-keyboard-response",213,161911,"0.0-4.67-0.67","nj3plvqcjfltacj",463,"84.csv","","274.90000009536743","resources/trios/L1T2A2.jpg","39","restless",0.8,0.5,0.9,0.293214523227794,"true"
"image-keyboard-response",214,162313,"0.0-4.67-1.67","nj3plvqcjfltacj",463,"84.csv","","null","resources/maskTrios/BBA2.jpg","null","",NA,NA,NA,NA,""
"image-keyboard-response",215,163516,"0.0-4.67-2.67","nj3plvqcjfltacj",463,"84.csv","","null","resources/images/coin2.png","null","",NA,NA,NA,NA,""
"image-keyboard-response",216,163776,"0.0-4.68-0.68","nj3plvqcjfltacj",463,"84.csv","","258.59999990463257","resources/trios/L1T2A2.jpg","39","restless",0.7,0.5,0.9,0.211285626261203,"true"
"image-keyboard-response",217,164178,"0.0-4.68-1.68","nj3plvqcjfltacj",463,"84.csv","","null","resources/maskTrios/BBA2.jpg","null","",NA,NA,NA,NA,""
"image-keyboard-response",218,165380,"0.0-4.68-2.68","nj3plvqcjfltacj",463,"84.csv","","null","resources/images/coin2.png","null","",NA,NA,NA,NA,""
"image-keyboard-response",219,165666,"0.0-4.69-0.69","nj3plvqcjfltacj",463,"84.csv","","284.7000000476837","resources/trios/L1T2A2.jpg","39","restless",0.7,0.5,0.9,0.0512484488755587,"true"
"image-keyboard-response",220,166067,"0.0-4.69-1.69","nj3plvqcjfltacj",463,"84.csv","","null","resources/maskTrios/BBA2.jpg","null","",NA,NA,NA,NA,""
"image-keyboard-response",221,167270,"0.0-4.69-2.69","nj3plvqcjfltacj",463,"84.csv","","null","resources/images/coin2.png","null","",NA,NA,NA,NA,""
"image-keyboard-response",222,167607,"0.0-4.70-0.70","nj3plvqcjfltacj",463,"84.csv","","335.89999985694885","resources/trios/L1T2A2.jpg","39","restless",0.7,0.5,0.9,0.526861188739047,"true"
"image-keyboard-response",223,168010,"0.0-4.70-1.70","nj3plvqcjfltacj",463,"84.csv","","null","resources/maskTrios/BBA2.jpg","null","",NA,NA,NA,NA,""
"image-keyboard-response",224,169213,"0.0-4.70-2.70","nj3plvqcjfltacj",463,"84.csv","","null","resources/images/coin2.png","null","",NA,NA,NA,NA,""
"image-keyboard-response",225,169520,"0.0-4.71-0.71","nj3plvqcjfltacj",463,"84.csv","","306.5","resources/trios/L1T2A2.jpg","39","restless",0.6,0.5,0.9,0.0831866791269049,"true"
"image-keyboard-response",226,169922,"0.0-4.71-1.71","nj3plvqcjfltacj",463,"84.csv","","null","resources/maskTrios/BBA2.jpg","null","",NA,NA,NA,NA,""
"image-keyboard-response",227,171125,"0.0-4.71-2.71","nj3plvqcjfltacj",463,"84.csv","","null","resources/images/coin2.png","null","",NA,NA,NA,NA,""
"image-keyboard-response",228,171441,"0.0-4.72-0.72","nj3plvqcjfltacj",463,"84.csv","","314.90000009536743","resources/trios/L1T2A2.jpg","39","restless",0.6,0.5,0.8,0.605375843146002,"true"
"image-keyboard-response",229,171843,"0.0-4.72-1.72","nj3plvqcjfltacj",463,"84.csv","","null","resources/maskTrios/BBA2.jpg","null","",NA,NA,NA,NA,""
"image-keyboard-response",230,173045,"0.0-4.72-2.72","nj3plvqcjfltacj",463,"84.csv","","null","resources/images/coin2.png","null","",NA,NA,NA,NA,""
"image-keyboard-response",231,173289,"0.0-4.73-0.73","nj3plvqcjfltacj",463,"84.csv","","242.59999990463257","resources/trios/L1T2A2.jpg","39","restless",0.7,0.5,0.8,0.456651770904933,"true"
"image-keyboard-response",232,173691,"0.0-4.73-1.73","nj3plvqcjfltacj",463,"84.csv","","null","resources/maskTrios/BBA2.jpg","null","",NA,NA,NA,NA,""
"image-keyboard-response",233,174894,"0.0-4.73-2.73","nj3plvqcjfltacj",463,"84.csv","","null","resources/images/coin2.png","null","",NA,NA,NA,NA,""
"image-keyboard-response",234,175317,"0.0-4.74-0.74","nj3plvqcjfltacj",463,"84.csv","","422.60000014305115","resources/trios/L1T2A2.jpg","39","restless",0.6,0.5,0.8,0.245120286430063,"true"
"image-keyboard-response",235,175719,"0.0-4.74-1.74","nj3plvqcjfltacj",463,"84.csv","","null","resources/maskTrios/BBA2.jpg","null","",NA,NA,NA,NA,""
"image-keyboard-response",236,176922,"0.0-4.74-2.74","nj3plvqcjfltacj",463,"84.csv","","null","resources/images/coin2.png","null","",NA,NA,NA,NA,""
"image-keyboard-response",237,176942,"0.0-4.75-0.75","nj3plvqcjfltacj",463,"84.csv","","18.600000143051147","resources/trios/L1T2A2.jpg","39","restless",0.6,0.5,0.8,0.0153280557143483,"true"
"image-keyboard-response",238,177344,"0.0-4.75-1.75","nj3plvqcjfltacj",463,"84.csv","","null","resources/maskTrios/BBA2.jpg","null","",NA,NA,NA,NA,""
"image-keyboard-response",239,178547,"0.0-4.75-2.75","nj3plvqcjfltacj",463,"84.csv","","null","resources/images/coin2.png","null","",NA,NA,NA,NA,""
"image-keyboard-response",240,178852,"0.0-4.76-0.76","nj3plvqcjfltacj",463,"84.csv","","303.80000019073486","resources/trios/L1T2A2.jpg","39","restless",0.6,0.5,0.8,0.329613800997216,"true"
"image-keyboard-response",241,179254,"0.0-4.76-1.76","nj3plvqcjfltacj",463,"84.csv","","null","resources/maskTrios/BBA2.jpg","null","",NA,NA,NA,NA,""
"image-keyboard-response",242,180457,"0.0-4.76-2.76","nj3plvqcjfltacj",463,"84.csv","","null","resources/images/coin2.png","null","",NA,NA,NA,NA,""
"image-keyboard-response",243,180799,"0.0-4.77-0.77","nj3plvqcjfltacj",463,"84.csv","","340.7999999523163","resources/trios/L1T2A2.jpg","39","restless",0.6,0.5,0.8,0.272921216757694,"true"
"image-keyboard-response",244,181201,"0.0-4.77-1.77","nj3plvqcjfltacj",463,"84.csv","","null","resources/maskTrios/BBA2.jpg","null","",NA,NA,NA,NA,""
"image-keyboard-response",245,182403,"0.0-4.77-2.77","nj3plvqcjfltacj",463,"84.csv","","null","resources/images/coin2.png","null","",NA,NA,NA,NA,""
"image-keyboard-response",246,182691,"0.0-4.78-0.78","nj3plvqcjfltacj",463,"84.csv","","287.09999990463257","resources/trios/L1T2A2.jpg","39","restless",0.6,0.5,0.9,0.370170526594461,"true"
"image-keyboard-response",247,183092,"0.0-4.78-1.78","nj3plvqcjfltacj",463,"84.csv","","null","resources/maskTrios/BBA2.jpg","null","",NA,NA,NA,NA,""
"image-keyboard-response",248,184296,"0.0-4.78-2.78","nj3plvqcjfltacj",463,"84.csv","","null","resources/images/coin2.png","null","",NA,NA,NA,NA,""
"image-keyboard-response",249,184574,"0.0-4.79-0.79","nj3plvqcjfltacj",463,"84.csv","","277.5","resources/trios/L1T2A2.jpg","39","restless",0.6,0.5,0.9,0.989054670654023,"false"
"image-keyboard-response",250,184976,"0.0-4.79-1.79","nj3plvqcjfltacj",463,"84.csv","","null","resources/maskTrios/BBA2.jpg","null","",NA,NA,NA,NA,""
"image-keyboard-response",251,186178,"0.0-4.79-2.79","nj3plvqcjfltacj",463,"84.csv","","null","resources/images/fishbone.png","null","",NA,NA,NA,NA,""
"image-keyboard-response",252,186605,"0.0-4.80-0.80","nj3plvqcjfltacj",463,"84.csv","","425.89999985694885","resources/trios/L1T2A2.jpg","39","restless",0.6,0.5,0.9,0.0529810732601812,"true"
"image-keyboard-response",253,187007,"0.0-4.80-1.80","nj3plvqcjfltacj",463,"84.csv","","null","resources/maskTrios/BBA2.jpg","null","",NA,NA,NA,NA,""
"image-keyboard-response",254,188209,"0.0-4.80-2.80","nj3plvqcjfltacj",463,"84.csv","","null","resources/images/coin2.png","null","",NA,NA,NA,NA,""
"image-keyboard-response",255,188478,"0.0-4.81-0.81","nj3plvqcjfltacj",463,"84.csv","","267.69999980926514","resources/trios/L1T2A2.jpg","39","restless",0.6,0.6,0.9,0.765813619436065,"true"
"image-keyboard-response",256,188880,"0.0-4.81-1.81","nj3plvqcjfltacj",463,"84.csv","","null","resources/maskTrios/BBA2.jpg","null","",NA,NA,NA,NA,""
"image-keyboard-response",257,190082,"0.0-4.81-2.81","nj3plvqcjfltacj",463,"84.csv","","null","resources/images/coin2.png","null","",NA,NA,NA,NA,""
"image-keyboard-response",258,190431,"0.0-4.82-0.82","nj3plvqcjfltacj",463,"84.csv","","347.2999999523163","resources/trios/L1T2A2.jpg","39","restless",0.6,0.6,0.9,0.356175479329695,"true"
"image-keyboard-response",259,190833,"0.0-4.82-1.82","nj3plvqcjfltacj",463,"84.csv","","null","resources/maskTrios/BBA2.jpg","null","",NA,NA,NA,NA,""
"image-keyboard-response",260,192035,"0.0-4.82-2.82","nj3plvqcjfltacj",463,"84.csv","","null","resources/images/coin2.png","null","",NA,NA,NA,NA,""
"image-keyboard-response",261,192373,"0.0-4.83-0.83","nj3plvqcjfltacj",463,"84.csv","","337.30000019073486","resources/trios/L1T2A2.jpg","39","restless",0.6,0.6,0.9,0.598693379122213,"true"
"image-keyboard-response",262,192776,"0.0-4.83-1.83","nj3plvqcjfltacj",463,"84.csv","","null","resources/maskTrios/BBA2.jpg","null","",NA,NA,NA,NA,""
"image-keyboard-response",263,193978,"0.0-4.83-2.83","nj3plvqcjfltacj",463,"84.csv","","null","resources/images/coin2.png","null","",NA,NA,NA,NA,""
"image-keyboard-response",264,194230,"0.0-4.84-0.84","nj3plvqcjfltacj",463,"84.csv","","251","resources/trios/L1T2A2.jpg","39","restless",0.6,0.6,0.9,0.414909378818435,"true"
"image-keyboard-response",265,194633,"0.0-4.84-1.84","nj3plvqcjfltacj",463,"84.csv","","null","resources/maskTrios/BBA2.jpg","null","",NA,NA,NA,NA,""
"image-keyboard-response",266,195836,"0.0-4.84-2.84","nj3plvqcjfltacj",463,"84.csv","","null","resources/images/coin2.png","null","",NA,NA,NA,NA,""
"image-keyboard-response",267,196089,"0.0-4.85-0.85","nj3plvqcjfltacj",463,"84.csv","","252.90000009536743","resources/trios/L1T2A2.jpg","39","restless",0.6,0.7,0.9,0.79032459134738,"true"
"image-keyboard-response",268,196492,"0.0-4.85-1.85","nj3plvqcjfltacj",463,"84.csv","","null","resources/maskTrios/BBA2.jpg","null","",NA,NA,NA,NA,""
"image-keyboard-response",269,197695,"0.0-4.85-2.85","nj3plvqcjfltacj",463,"84.csv","","null","resources/images/coin2.png","null","",NA,NA,NA,NA,""
"image-keyboard-response",270,198007,"0.0-4.86-0.86","nj3plvqcjfltacj",463,"84.csv","","311","resources/trios/L1T2A2.jpg","39","restless",0.6,0.7,0.9,0.954105256989652,"false"
"image-keyboard-response",271,198409,"0.0-4.86-1.86","nj3plvqcjfltacj",463,"84.csv","","null","resources/maskTrios/BBA2.jpg","null","",NA,NA,NA,NA,""
"image-keyboard-response",272,199611,"0.0-4.86-2.86","nj3plvqcjfltacj",463,"84.csv","","null","resources/images/fishbone.png","null","",NA,NA,NA,NA,""
"image-keyboard-response",273,199908,"0.0-4.87-0.87","nj3plvqcjfltacj",463,"84.csv","","296.09999990463257","resources/trios/L1T2A2.jpg","38","restless",0.6,0.7,0.8,0.47137174588989,"true"
"image-keyboard-response",274,200310,"0.0-4.87-1.87","nj3plvqcjfltacj",463,"84.csv","","null","resources/maskTrios/BT2B.jpg","null","",NA,NA,NA,NA,""
"image-keyboard-response",275,201513,"0.0-4.87-2.87","nj3plvqcjfltacj",463,"84.csv","","null","resources/images/coin2.png","null","",NA,NA,NA,NA,""
"image-keyboard-response",276,201833,"0.0-4.88-0.88","nj3plvqcjfltacj",463,"84.csv","","318.7999999523163","resources/trios/L1T2A2.jpg","38","restless",0.6,0.7,0.8,0.633172403107369,"true"
"image-keyboard-response",277,202235,"0.0-4.88-1.88","nj3plvqcjfltacj",463,"84.csv","","null","resources/maskTrios/BT2B.jpg","null","",NA,NA,NA,NA,""
"image-keyboard-response",278,203438,"0.0-4.88-2.88","nj3plvqcjfltacj",463,"84.csv","","null","resources/images/coin2.png","null","",NA,NA,NA,NA,""
"image-keyboard-response",279,203747,"0.0-4.89-0.89","nj3plvqcjfltacj",463,"84.csv","","308.09999990463257","resources/trios/L1T2A2.jpg","38","restless",0.6,0.7,0.8,0.635361044492905,"true"
"image-keyboard-response",280,204150,"0.0-4.89-1.89","nj3plvqcjfltacj",463,"84.csv","","null","resources/maskTrios/BT2B.jpg","null","",NA,NA,NA,NA,""
"image-keyboard-response",281,205352,"0.0-4.89-2.89","nj3plvqcjfltacj",463,"84.csv","","null","resources/images/coin2.png","null","",NA,NA,NA,NA,""
"image-keyboard-response",282,205632,"0.0-4.90-0.90","nj3plvqcjfltacj",463,"84.csv","","279.2999999523163","resources/trios/L1T2A2.jpg","38","restless",0.7,0.7,0.7,0.599837996641066,"true"
"image-keyboard-response",283,206035,"0.0-4.90-1.90","nj3plvqcjfltacj",463,"84.csv","","null","resources/maskTrios/BT2B.jpg","null","",NA,NA,NA,NA,""
"image-keyboard-response",284,207238,"0.0-4.90-2.90","nj3plvqcjfltacj",463,"84.csv","","null","resources/images/coin2.png","null","",NA,NA,NA,NA,""
"image-keyboard-response",285,207559,"0.0-4.91-0.91","nj3plvqcjfltacj",463,"84.csv","","319.90000009536743","resources/trios/L1T2A2.jpg","38","restless",0.7,0.7,0.7,0.237807531212298,"true"
"image-keyboard-response",286,207960,"0.0-4.91-1.91","nj3plvqcjfltacj",463,"84.csv","","null","resources/maskTrios/BT2B.jpg","null","",NA,NA,NA,NA,""
"image-keyboard-response",287,209162,"0.0-4.91-2.91","nj3plvqcjfltacj",463,"84.csv","","null","resources/images/coin2.png","null","",NA,NA,NA,NA,""
"image-keyboard-response",288,209454,"0.0-4.92-0.92","nj3plvqcjfltacj",463,"84.csv","","291","resources/trios/L1T2A2.jpg","38","restless",0.7,0.7,0.6,0.253353825944065,"true"
"image-keyboard-response",289,209856,"0.0-4.92-1.92","nj3plvqcjfltacj",463,"84.csv","","null","resources/maskTrios/BT2B.jpg","null","",NA,NA,NA,NA,""
"image-keyboard-response",290,211059,"0.0-4.92-2.92","nj3plvqcjfltacj",463,"84.csv","","null","resources/images/coin2.png","null","",NA,NA,NA,NA,""
"image-keyboard-response",291,211299,"0.0-4.93-0.93","nj3plvqcjfltacj",463,"84.csv","","238.89999985694885","resources/trios/L1T2A2.jpg","38","restless",0.7,0.7,0.6,0.228636879395965,"true"
"image-keyboard-response",292,211701,"0.0-4.93-1.93","nj3plvqcjfltacj",463,"84.csv","","null","resources/maskTrios/BT2B.jpg","null","",NA,NA,NA,NA,""
"image-keyboard-response",293,212903,"0.0-4.93-2.93","nj3plvqcjfltacj",463,"84.csv","","null","resources/images/coin2.png","null","",NA,NA,NA,NA,""
"image-keyboard-response",294,213146,"0.0-4.94-0.94","nj3plvqcjfltacj",463,"84.csv","","242.10000014305115","resources/trios/L1T2A2.jpg","38","restless",0.7,0.7,0.6,0.298815088613538,"true"
"image-keyboard-response",295,213548,"0.0-4.94-1.94","nj3plvqcjfltacj",463,"84.csv","","null","resources/maskTrios/BT2B.jpg","null","",NA,NA,NA,NA,""
"image-keyboard-response",296,214750,"0.0-4.94-2.94","nj3plvqcjfltacj",463,"84.csv","","null","resources/images/coin2.png","null","",NA,NA,NA,NA,""
"image-keyboard-response",297,214986,"0.0-4.95-0.95","nj3plvqcjfltacj",463,"84.csv","","234.89999985694885","resources/trios/L1T2A2.jpg","38","restless",0.7,0.7,0.6,0.618242266131078,"true"
"image-keyboard-response",298,215388,"0.0-4.95-1.95","nj3plvqcjfltacj",463,"84.csv","","null","resources/maskTrios/BT2B.jpg","null","",NA,NA,NA,NA,""
"image-keyboard-response",299,216591,"0.0-4.95-2.95","nj3plvqcjfltacj",463,"84.csv","","null","resources/images/coin2.png","null","",NA,NA,NA,NA,""
"image-keyboard-response",300,216845,"0.0-4.96-0.96","nj3plvqcjfltacj",463,"84.csv","","253.09999990463257","resources/trios/L1T2A2.jpg","38","restless",0.7,0.7,0.6,0.0321366079364904,"true"
"image-keyboard-response",301,217247,"0.0-4.96-1.96","nj3plvqcjfltacj",463,"84.csv","","null","resources/maskTrios/BT2B.jpg","null","",NA,NA,NA,NA,""
"image-keyboard-response",302,218450,"0.0-4.96-2.96","nj3plvqcjfltacj",463,"84.csv","","null","resources/images/coin2.png","null","",NA,NA,NA,NA,""
"image-keyboard-response",303,218619,"0.0-4.97-0.97","nj3plvqcjfltacj",463,"84.csv","","167.70000004768372","resources/trios/L1T2A2.jpg","38","restless",0.7,0.7,0.6,0.604012559210604,"true"
"image-keyboard-response",304,219021,"0.0-4.97-1.97","nj3plvqcjfltacj",463,"84.csv","","null","resources/maskTrios/BT2B.jpg","null","",NA,NA,NA,NA,""
"image-keyboard-response",305,220223,"0.0-4.97-2.97","nj3plvqcjfltacj",463,"84.csv","","null","resources/images/coin2.png","null","",NA,NA,NA,NA,""
"image-keyboard-response",306,220363,"0.0-4.98-0.98","nj3plvqcjfltacj",463,"84.csv","","138.29999995231628","resources/trios/L1T2A2.jpg","38","restless",0.6,0.7,0.6,0.637006746655372,"true"
"image-keyboard-response",307,220765,"0.0-4.98-1.98","nj3plvqcjfltacj",463,"84.csv","","null","resources/maskTrios/BT2B.jpg","null","",NA,NA,NA,NA,""
"image-keyboard-response",308,221967,"0.0-4.98-2.98","nj3plvqcjfltacj",463,"84.csv","","null","resources/images/coin2.png","null","",NA,NA,NA,NA,""
"image-keyboard-response",309,222279,"0.0-4.99-0.99","nj3plvqcjfltacj",463,"84.csv","","311","resources/trios/L1T2A2.jpg","38","restless",0.6,0.7,0.6,0.587380014494886,"true"
"image-keyboard-response",310,222681,"0.0-4.99-1.99","nj3plvqcjfltacj",463,"84.csv","","null","resources/maskTrios/BT2B.jpg","null","",NA,NA,NA,NA,""
"image-keyboard-response",311,223883,"0.0-4.99-2.99","nj3plvqcjfltacj",463,"84.csv","","null","resources/images/coin2.png","null","",NA,NA,NA,NA,""
"image-keyboard-response",312,224183,"0.0-4.100-0.100","nj3plvqcjfltacj",463,"84.csv","","298.7000000476837","resources/trios/L1T2A2.jpg","38","restless",0.5,0.6,0.6,0.036867801115454,"true"
"image-keyboard-response",313,224585,"0.0-4.100-1.100","nj3plvqcjfltacj",463,"84.csv","","null","resources/maskTrios/BT2B.jpg","null","",NA,NA,NA,NA,""
"image-keyboard-response",314,225787,"0.0-4.100-2.100","nj3plvqcjfltacj",463,"84.csv","","null","resources/images/coin2.png","null","",NA,NA,NA,NA,""
"image-keyboard-response",315,226058,"0.0-4.101-0.101","nj3plvqcjfltacj",463,"84.csv","","270.59999990463257","resources/trios/L1T2A2.jpg","38","restless",0.4,0.6,0.6,0.747863512355012,"false"
"image-keyboard-response",316,226460,"0.0-4.101-1.101","nj3plvqcjfltacj",463,"84.csv","","null","resources/maskTrios/BT2B.jpg","null","",NA,NA,NA,NA,""
"image-keyboard-response",317,227662,"0.0-4.101-2.101","nj3plvqcjfltacj",463,"84.csv","","null","resources/images/fishbone.png","null","",NA,NA,NA,NA,""
"image-keyboard-response",318,227994,"0.0-4.102-0.102","nj3plvqcjfltacj",463,"84.csv","","331","resources/trios/L1T2A2.jpg","37","restless",0.4,0.6,0.6,0.0777607153382773,"true"
"image-keyboard-response",319,228396,"0.0-4.102-1.102","nj3plvqcjfltacj",463,"84.csv","","null","resources/maskTrios/L1BB.jpg","null","",NA,NA,NA,NA,""
"image-keyboard-response",320,229598,"0.0-4.102-2.102","nj3plvqcjfltacj",463,"84.csv","","null","resources/images/coin2.png","null","",NA,NA,NA,NA,""
"image-keyboard-response",321,229976,"0.0-4.103-0.103","nj3plvqcjfltacj",463,"84.csv","","376.90000009536743","resources/trios/L1T2A2.jpg","37","restless",0.4,0.6,0.6,0.0720571587813998,"true"
"image-keyboard-response",322,230379,"0.0-4.103-1.103","nj3plvqcjfltacj",463,"84.csv","","null","resources/maskTrios/L1BB.jpg","null","",NA,NA,NA,NA,""
"image-keyboard-response",323,231582,"0.0-4.103-2.103","nj3plvqcjfltacj",463,"84.csv","","null","resources/images/coin2.png","null","",NA,NA,NA,NA,""
"image-keyboard-response",324,231865,"0.0-4.104-0.104","nj3plvqcjfltacj",463,"84.csv","","282.59999990463257","resources/trios/L1T2A2.jpg","37","restless",0.4,0.6,0.6,0.223604649635437,"true"
"image-keyboard-response",325,232267,"0.0-4.104-1.104","nj3plvqcjfltacj",463,"84.csv","","null","resources/maskTrios/L1BB.jpg","null","",NA,NA,NA,NA,""
"image-keyboard-response",326,233470,"0.0-4.104-2.104","nj3plvqcjfltacj",463,"84.csv","","null","resources/images/coin2.png","null","",NA,NA,NA,NA,""
"image-keyboard-response",327,233858,"0.0-4.105-0.105","nj3plvqcjfltacj",463,"84.csv","","386.80000019073486","resources/trios/L1T2A2.jpg","37","restless",0.4,0.6,0.6,0.913288916569189,"false"
"image-keyboard-response",328,234261,"0.0-4.105-1.105","nj3plvqcjfltacj",463,"84.csv","","null","resources/maskTrios/L1BB.jpg","null","",NA,NA,NA,NA,""
"image-keyboard-response",329,235463,"0.0-4.105-2.105","nj3plvqcjfltacj",463,"84.csv","","null","resources/images/fishbone.png","null","",NA,NA,NA,NA,""
"image-keyboard-response",330,235780,"0.0-4.106-0.106","nj3plvqcjfltacj",463,"84.csv","","316.2000000476837","resources/trios/L1T2A2.jpg","39","restless",0.4,0.6,0.5,0.291252970138537,"true"
"image-keyboard-response",331,236182,"0.0-4.106-1.106","nj3plvqcjfltacj",463,"84.csv","","null","resources/maskTrios/BBA2.jpg","null","",NA,NA,NA,NA,""
"image-keyboard-response",332,237385,"0.0-4.106-2.106","nj3plvqcjfltacj",463,"84.csv","","null","resources/images/coin2.png","null","",NA,NA,NA,NA,""
"image-keyboard-response",333,237701,"0.0-4.107-0.107","nj3plvqcjfltacj",463,"84.csv","","315.10000014305115","resources/trios/L1T2A2.jpg","39","restless",0.4,0.6,0.5,0.293555487613111,"true"
"image-keyboard-response",334,238103,"0.0-4.107-1.107","nj3plvqcjfltacj",463,"84.csv","","null","resources/maskTrios/BBA2.jpg","null","",NA,NA,NA,NA,""
"image-keyboard-response",335,239306,"0.0-4.107-2.107","nj3plvqcjfltacj",463,"84.csv","","null","resources/images/coin2.png","null","",NA,NA,NA,NA,""
"image-keyboard-response",336,239597,"0.0-4.108-0.108","nj3plvqcjfltacj",463,"84.csv","","289.7999999523163","resources/trios/L1T2A2.jpg","39","restless",0.5,0.7,0.5,0.592443370893274,"false"
"image-keyboard-response",337,239999,"0.0-4.108-1.108","nj3plvqcjfltacj",463,"84.csv","","null","resources/maskTrios/BBA2.jpg","null","",NA,NA,NA,NA,""
"image-keyboard-response",338,241201,"0.0-4.108-2.108","nj3plvqcjfltacj",463,"84.csv","","null","resources/images/fishbone.png","null","",NA,NA,NA,NA,""
"image-keyboard-response",339,241422,"0.0-4.109-0.109","nj3plvqcjfltacj",463,"84.csv","","219.79999995231628","resources/trios/L1T2A2.jpg","38","restless",0.5,0.7,0.5,0.942316911268234,"false"
"image-keyboard-response",340,241824,"0.0-4.109-1.109","nj3plvqcjfltacj",463,"84.csv","","null","resources/maskTrios/BT2B.jpg","null","",NA,NA,NA,NA,""
"image-keyboard-response",341,243026,"0.0-4.109-2.109","nj3plvqcjfltacj",463,"84.csv","","null","resources/images/fishbone.png","null","",NA,NA,NA,NA,""
"image-keyboard-response",342,243259,"0.0-4.110-0.110","nj3plvqcjfltacj",463,"84.csv","","232.40000009536743","resources/trios/L1T2A2.jpg","39","restless",0.5,0.7,0.5,0.855083202323821,"false"
"image-keyboard-response",343,243661,"0.0-4.110-1.110","nj3plvqcjfltacj",463,"84.csv","","null","resources/maskTrios/BBA2.jpg","null","",NA,NA,NA,NA,""
"image-keyboard-response",344,244864,"0.0-4.110-2.110","nj3plvqcjfltacj",463,"84.csv","","null","resources/images/fishbone.png","null","",NA,NA,NA,NA,""
"image-keyboard-response",345,245199,"0.0-4.111-0.111","nj3plvqcjfltacj",463,"84.csv","","334.10000014305115","resources/trios/L1T2A2.jpg","37","restless",0.5,0.7,0.5,0.653146783438871,"false"
"image-keyboard-response",346,245602,"0.0-4.111-1.111","nj3plvqcjfltacj",463,"84.csv","","null","resources/maskTrios/L1BB.jpg","null","",NA,NA,NA,NA,""
"image-keyboard-response",347,246804,"0.0-4.111-2.111","nj3plvqcjfltacj",463,"84.csv","","null","resources/images/fishbone.png","null","",NA,NA,NA,NA,""
"image-keyboard-response",348,247066,"0.0-4.112-0.112","nj3plvqcjfltacj",463,"84.csv","","261.19999980926514","resources/trios/L1T2A2.jpg","38","restless",0.5,0.7,0.5,0.0842215992983997,"true"
"image-keyboard-response",349,247468,"0.0-4.112-1.112","nj3plvqcjfltacj",463,"84.csv","","null","resources/maskTrios/BT2B.jpg","null","",NA,NA,NA,NA,""
"image-keyboard-response",350,248671,"0.0-4.112-2.112","nj3plvqcjfltacj",463,"84.csv","","null","resources/images/coin2.png","null","",NA,NA,NA,NA,""
"image-keyboard-response",351,248950,"0.0-4.113-0.113","nj3plvqcjfltacj",463,"84.csv","","277.59999990463257","resources/trios/L1T2A2.jpg","38","restless",0.5,0.7,0.6,0.583594751517936,"true"
"image-keyboard-response",352,249352,"0.0-4.113-1.113","nj3plvqcjfltacj",463,"84.csv","","null","resources/maskTrios/BT2B.jpg","null","",NA,NA,NA,NA,""
"image-keyboard-response",353,250555,"0.0-4.113-2.113","nj3plvqcjfltacj",463,"84.csv","","null","resources/images/coin2.png","null","",NA,NA,NA,NA,""
"image-keyboard-response",354,250934,"0.0-4.114-0.114","nj3plvqcjfltacj",463,"84.csv","","378.39999985694885","resources/trios/L1T2A2.jpg","38","restless",0.5,0.7,0.6,0.11049814974359,"true"
"image-keyboard-response",355,251336,"0.0-4.114-1.114","nj3plvqcjfltacj",463,"84.csv","","null","resources/maskTrios/BT2B.jpg","null","",NA,NA,NA,NA,""
"image-keyboard-response",356,252539,"0.0-4.114-2.114","nj3plvqcjfltacj",463,"84.csv","","null","resources/images/coin2.png","null","",NA,NA,NA,NA,""
"image-keyboard-response",357,252855,"0.0-4.115-0.115","nj3plvqcjfltacj",463,"84.csv","","314.2999999523163","resources/trios/L1T2A2.jpg","38","restless",0.5,0.7,0.5,0.706288104348981,"false"
"image-keyboard-response",358,253256,"0.0-4.115-1.115","nj3plvqcjfltacj",463,"84.csv","","null","resources/maskTrios/BT2B.jpg","null","",NA,NA,NA,NA,""
"image-keyboard-response",359,254458,"0.0-4.115-2.115","nj3plvqcjfltacj",463,"84.csv","","null","resources/images/fishbone.png","null","",NA,NA,NA,NA,""
"image-keyboard-response",360,254762,"0.0-4.116-0.116","nj3plvqcjfltacj",463,"84.csv","","303.39999985694885","resources/trios/L1T2A2.jpg","39","restless",0.5,0.7,0.5,0.22032893789106,"true"
"image-keyboard-response",361,255165,"0.0-4.116-1.116","nj3plvqcjfltacj",463,"84.csv","","null","resources/maskTrios/BBA2.jpg","null","",NA,NA,NA,NA,""
"image-keyboard-response",362,256368,"0.0-4.116-2.116","nj3plvqcjfltacj",463,"84.csv","","null","resources/images/coin2.png","null","",NA,NA,NA,NA,""
"image-keyboard-response",363,256707,"0.0-4.117-0.117","nj3plvqcjfltacj",463,"84.csv","","337.89999985694885","resources/trios/L1T2A2.jpg","39","restless",0.5,0.6,0.5,0.894987479637622,"false"
"image-keyboard-response",364,257109,"0.0-4.117-1.117","nj3plvqcjfltacj",463,"84.csv","","null","resources/maskTrios/BBA2.jpg","null","",NA,NA,NA,NA,""
"image-keyboard-response",365,258311,"0.0-4.117-2.117","nj3plvqcjfltacj",463,"84.csv","","null","resources/images/fishbone.png","null","",NA,NA,NA,NA,""
"image-keyboard-response",366,258665,"0.0-4.118-0.118","nj3plvqcjfltacj",463,"84.csv","","353.7000000476837","resources/trios/L1T2A2.jpg","37","restless",0.5,0.6,0.5,0.688907998118684,"false"
"image-keyboard-response",367,259068,"0.0-4.118-1.118","nj3plvqcjfltacj",463,"84.csv","","null","resources/maskTrios/L1BB.jpg","null","",NA,NA,NA,NA,""
"image-keyboard-response",368,260270,"0.0-4.118-2.118","nj3plvqcjfltacj",463,"84.csv","","null","resources/images/fishbone.png","null","",NA,NA,NA,NA,""
"image-keyboard-response",369,260620,"0.0-4.119-0.119","nj3plvqcjfltacj",463,"84.csv","","348.59999990463257","resources/trios/L1T2A2.jpg","39","restless",0.5,0.5,0.4,0.731394109541465,"false"
"image-keyboard-response",370,261023,"0.0-4.119-1.119","nj3plvqcjfltacj",463,"84.csv","","null","resources/maskTrios/BBA2.jpg","null","",NA,NA,NA,NA,""
"image-keyboard-response",371,262225,"0.0-4.119-2.119","nj3plvqcjfltacj",463,"84.csv","","null","resources/images/fishbone.png","null","",NA,NA,NA,NA,""
"image-keyboard-response",372,262535,"0.0-4.120-0.120","nj3plvqcjfltacj",463,"84.csv","","308.7999999523163","resources/trios/L1T2A2.jpg","38","restless",0.6,0.5,0.4,0.140827826193477,"true"
"image-keyboard-response",373,262937,"0.0-4.120-1.120","nj3plvqcjfltacj",463,"84.csv","","null","resources/maskTrios/BT2B.jpg","null","",NA,NA,NA,NA,""
"image-keyboard-response",374,264140,"0.0-4.120-2.120","nj3plvqcjfltacj",463,"84.csv","","null","resources/images/coin2.png","null","",NA,NA,NA,NA,""
"image-keyboard-response",375,264436,"0.0-4.121-0.121","nj3plvqcjfltacj",463,"84.csv","","294.2000000476837","resources/trios/L1T2A2.jpg","38","restless",0.6,0.5,0.4,0.946574356145294,"false"
"image-keyboard-response",376,264838,"0.0-4.121-1.121","nj3plvqcjfltacj",463,"84.csv","","null","resources/maskTrios/BT2B.jpg","null","",NA,NA,NA,NA,""
"image-keyboard-response",377,266040,"0.0-4.121-2.121","nj3plvqcjfltacj",463,"84.csv","","null","resources/images/fishbone.png","null","",NA,NA,NA,NA,""
"image-keyboard-response",378,266350,"0.0-4.122-0.122","nj3plvqcjfltacj",463,"84.csv","","308.89999985694885","resources/trios/L1T2A2.jpg","39","restless",0.6,0.5,0.4,0.588375342360327,"false"
"image-keyboard-response",379,266752,"0.0-4.122-1.122","nj3plvqcjfltacj",463,"84.csv","","null","resources/maskTrios/BBA2.jpg","null","",NA,NA,NA,NA,""
"image-keyboard-response",380,267955,"0.0-4.122-2.122","nj3plvqcjfltacj",463,"84.csv","","null","resources/images/fishbone.png","null","",NA,NA,NA,NA,""
"image-keyboard-response",381,268254,"0.0-4.123-0.123","nj3plvqcjfltacj",463,"84.csv","","298.2000000476837","resources/trios/L1T2A2.jpg","37","restless",0.6,0.5,0.4,0.583035202597121,"true"
"image-keyboard-response",382,268656,"0.0-4.123-1.123","nj3plvqcjfltacj",463,"84.csv","","null","resources/maskTrios/L1BB.jpg","null","",NA,NA,NA,NA,""
"image-keyboard-response",383,269858,"0.0-4.123-2.123","nj3plvqcjfltacj",463,"84.csv","","null","resources/images/coin2.png","null","",NA,NA,NA,NA,""
"image-keyboard-response",384,270307,"0.0-4.124-0.124","nj3plvqcjfltacj",463,"84.csv","","448.7000000476837","resources/trios/L1T2A2.jpg","37","restless",0.7,0.5,0.4,0.522910760858877,"true"
"image-keyboard-response",385,270708,"0.0-4.124-1.124","nj3plvqcjfltacj",463,"84.csv","","null","resources/maskTrios/L1BB.jpg","null","",NA,NA,NA,NA,""
"image-keyboard-response",386,271910,"0.0-4.124-2.124","nj3plvqcjfltacj",463,"84.csv","","null","resources/images/coin2.png","null","",NA,NA,NA,NA,""
"image-keyboard-response",387,272216,"0.0-4.125-0.125","nj3plvqcjfltacj",463,"84.csv","","305.40000009536743","resources/trios/L1T2A2.jpg","37","restless",0.7,0.5,0.4,0.369123859796893,"true"
"image-keyboard-response",388,272618,"0.0-4.125-1.125","nj3plvqcjfltacj",463,"84.csv","","null","resources/maskTrios/L1BB.jpg","null","",NA,NA,NA,NA,""
"image-keyboard-response",389,273820,"0.0-4.125-2.125","nj3plvqcjfltacj",463,"84.csv","","null","resources/images/coin2.png","null","",NA,NA,NA,NA,""
"image-keyboard-response",390,274093,"0.0-4.126-0.126","nj3plvqcjfltacj",463,"84.csv","","272.19999980926514","resources/trios/L1T2A2.jpg","37","restless",0.7,0.5,0.4,0.705819863516248,"false"
"image-keyboard-response",391,274496,"0.0-4.126-1.126","nj3plvqcjfltacj",463,"84.csv","","null","resources/maskTrios/L1BB.jpg","null","",NA,NA,NA,NA,""
"image-keyboard-response",392,275698,"0.0-4.126-2.126","nj3plvqcjfltacj",463,"84.csv","","null","resources/images/fishbone.png","null","",NA,NA,NA,NA,""
"image-keyboard-response",393,275985,"0.0-4.127-0.127","nj3plvqcjfltacj",463,"84.csv","","287.2000000476837","resources/trios/L1T2A2.jpg","38","restless",0.7,0.5,0.4,0.845261290997927,"false"
"image-keyboard-response",394,276388,"0.0-4.127-1.127","nj3plvqcjfltacj",463,"84.csv","","null","resources/maskTrios/BT2B.jpg","null","",NA,NA,NA,NA,""
"image-keyboard-response",395,277590,"0.0-4.127-2.127","nj3plvqcjfltacj",463,"84.csv","","null","resources/images/fishbone.png","null","",NA,NA,NA,NA,""
"image-keyboard-response",396,277739,"0.0-4.128-0.128","nj3plvqcjfltacj",463,"84.csv","","147.20000004768372","resources/trios/L1T2A2.jpg","37","restless",0.7,0.5,0.4,0.148704220845992,"true"
"image-keyboard-response",397,278140,"0.0-4.128-1.128","nj3plvqcjfltacj",463,"84.csv","","null","resources/maskTrios/L1BB.jpg","null","",NA,NA,NA,NA,""
"image-keyboard-response",398,279343,"0.0-4.128-2.128","nj3plvqcjfltacj",463,"84.csv","","null","resources/images/coin2.png","null","",NA,NA,NA,NA,""
"image-keyboard-response",399,279632,"0.0-4.129-0.129","nj3plvqcjfltacj",463,"84.csv","","287.7000000476837","resources/trios/L1T2A2.jpg","37","restless",0.8,0.5,0.4,0.0917933497727905,"true"
"image-keyboard-response",400,280034,"0.0-4.129-1.129","nj3plvqcjfltacj",463,"84.csv","","null","resources/maskTrios/L1BB.jpg","null","",NA,NA,NA,NA,""
"image-keyboard-response",401,281237,"0.0-4.129-2.129","nj3plvqcjfltacj",463,"84.csv","","null","resources/images/coin2.png","null","",NA,NA,NA,NA,""
"image-keyboard-response",402,281621,"0.0-4.130-0.130","nj3plvqcjfltacj",463,"84.csv","","382.5","resources/trios/L1T2A2.jpg","37","restless",0.8,0.5,0.4,0.964824343422326,"false"
"image-keyboard-response",403,282024,"0.0-4.130-1.130","nj3plvqcjfltacj",463,"84.csv","","null","resources/maskTrios/L1BB.jpg","null","",NA,NA,NA,NA,""
"image-keyboard-response",404,283226,"0.0-4.130-2.130","nj3plvqcjfltacj",463,"84.csv","","null","resources/images/fishbone.png","null","",NA,NA,NA,NA,""
"image-keyboard-response",405,283507,"0.0-4.131-0.131","nj3plvqcjfltacj",463,"84.csv","","280.30000019073486","resources/trios/L1T2A2.jpg","39","restless",0.8,0.5,0.4,0.565638754661624,"false"
"image-keyboard-response",406,283909,"0.0-4.131-1.131","nj3plvqcjfltacj",463,"84.csv","","null","resources/maskTrios/BBA2.jpg","null","",NA,NA,NA,NA,""
"image-keyboard-response",407,285111,"0.0-4.131-2.131","nj3plvqcjfltacj",463,"84.csv","","null","resources/images/fishbone.png","null","",NA,NA,NA,NA,""
"image-keyboard-response",408,285381,"0.0-4.132-0.132","nj3plvqcjfltacj",463,"84.csv","","269.10000014305115","resources/trios/L1T2A2.jpg","38","restless",0.8,0.5,0.4,0.699925747273373,"false"
"image-keyboard-response",409,285783,"0.0-4.132-1.132","nj3plvqcjfltacj",463,"84.csv","","null","resources/maskTrios/BT2B.jpg","null","",NA,NA,NA,NA,""
"image-keyboard-response",410,286985,"0.0-4.132-2.132","nj3plvqcjfltacj",463,"84.csv","","null","resources/images/fishbone.png","null","",NA,NA,NA,NA,""
"image-keyboard-response",411,287239,"0.0-4.133-0.133","nj3plvqcjfltacj",463,"84.csv","","252.70000004768372","resources/trios/L1T2A2.jpg","39","restless",0.8,0.5,0.4,0.760084289037994,"false"
"image-keyboard-response",412,287641,"0.0-4.133-1.133","nj3plvqcjfltacj",463,"84.csv","","null","resources/maskTrios/BBA2.jpg","null","",NA,NA,NA,NA,""
"image-keyboard-response",413,288843,"0.0-4.133-2.133","nj3plvqcjfltacj",463,"84.csv","","null","resources/images/fishbone.png","null","",NA,NA,NA,NA,""
"image-keyboard-response",414,289204,"0.0-4.134-0.134","nj3plvqcjfltacj",463,"84.csv","","360.09999990463257","resources/trios/L1T2A2.jpg","37","restless",0.8,0.5,0.4,0.885239513785026,"false"
"image-keyboard-response",415,289605,"0.0-4.134-1.134","nj3plvqcjfltacj",463,"84.csv","","null","resources/maskTrios/L1BB.jpg","null","",NA,NA,NA,NA,""
"image-keyboard-response",416,290807,"0.0-4.134-2.134","nj3plvqcjfltacj",463,"84.csv","","null","resources/images/fishbone.png","null","",NA,NA,NA,NA,""
"image-keyboard-response",417,291182,"0.0-4.135-0.135","nj3plvqcjfltacj",463,"84.csv","","373.90000009536743","resources/trios/L1T2A2.jpg","37","restless",0.7,0.5,0.4,0.833746931847003,"false"
"image-keyboard-response",418,291584,"0.0-4.135-1.135","nj3plvqcjfltacj",463,"84.csv","","null","resources/maskTrios/L1BB.jpg","null","",NA,NA,NA,NA,""
"image-keyboard-response",419,292787,"0.0-4.135-2.135","nj3plvqcjfltacj",463,"84.csv","","null","resources/images/fishbone.png","null","",NA,NA,NA,NA,""
"image-keyboard-response",420,293083,"0.0-4.136-0.136","nj3plvqcjfltacj",463,"84.csv","","295.7999999523163","resources/trios/L1T2A2.jpg","38","restless",0.7,0.5,0.4,0.757544345045246,"false"
"image-keyboard-response",421,293486,"0.0-4.136-1.136","nj3plvqcjfltacj",463,"84.csv","","null","resources/maskTrios/BT2B.jpg","null","",NA,NA,NA,NA,""
"image-keyboard-response",422,294689,"0.0-4.136-2.136","nj3plvqcjfltacj",463,"84.csv","","null","resources/images/fishbone.png","null","",NA,NA,NA,NA,""
"image-keyboard-response",423,294985,"0.0-4.137-0.137","nj3plvqcjfltacj",463,"84.csv","","294.60000014305115","resources/trios/L1T2A2.jpg","37","restless",0.7,0.5,0.4,0.861563525290257,"false"
"image-keyboard-response",424,295387,"0.0-4.137-1.137","nj3plvqcjfltacj",463,"84.csv","","null","resources/maskTrios/L1BB.jpg","null","",NA,NA,NA,NA,""
"image-keyboard-response",425,296589,"0.0-4.137-2.137","nj3plvqcjfltacj",463,"84.csv","","null","resources/images/fishbone.png","null","",NA,NA,NA,NA,""
"image-keyboard-response",426,296882,"0.0-4.138-0.138","nj3plvqcjfltacj",463,"84.csv","","292.7999999523163","resources/trios/L1T2A2.jpg","38","restless",0.7,0.5,0.4,0.0755140475593983,"true"
"image-keyboard-response",427,297285,"0.0-4.138-1.138","nj3plvqcjfltacj",463,"84.csv","","null","resources/maskTrios/BT2B.jpg","null","",NA,NA,NA,NA,""
"image-keyboard-response",428,298487,"0.0-4.138-2.138","nj3plvqcjfltacj",463,"84.csv","","null","resources/images/coin2.png","null","",NA,NA,NA,NA,""
"image-keyboard-response",429,298816,"0.0-4.139-0.139","nj3plvqcjfltacj",463,"84.csv","","328","resources/trios/L1T2A2.jpg","38","restless",0.7,0.5,0.3,0.460180701815812,"true"
"image-keyboard-response",430,299218,"0.0-4.139-1.139","nj3plvqcjfltacj",463,"84.csv","","null","resources/maskTrios/BT2B.jpg","null","",NA,NA,NA,NA,""
"image-keyboard-response",431,300421,"0.0-4.139-2.139","nj3plvqcjfltacj",463,"84.csv","","null","resources/images/coin2.png","null","",NA,NA,NA,NA,""
"image-keyboard-response",432,300758,"0.0-4.140-0.140","nj3plvqcjfltacj",463,"84.csv","","336.5","resources/trios/L1T2A2.jpg","38","restless",0.7,0.5,0.3,0.485621798356317,"true"
"image-keyboard-response",433,301160,"0.0-4.140-1.140","nj3plvqcjfltacj",463,"84.csv","","null","resources/maskTrios/BT2B.jpg","null","",NA,NA,NA,NA,""
"image-keyboard-response",434,302363,"0.0-4.140-2.140","nj3plvqcjfltacj",463,"84.csv","","null","resources/images/coin2.png","null","",NA,NA,NA,NA,""
"image-keyboard-response",435,302660,"0.0-4.141-0.141","nj3plvqcjfltacj",463,"84.csv","","295.80000019073486","resources/trios/L1T2A2.jpg","38","restless",0.7,0.5,0.3,0.328954974946018,"true"
"image-keyboard-response",436,303062,"0.0-4.141-1.141","nj3plvqcjfltacj",463,"84.csv","","null","resources/maskTrios/BT2B.jpg","null","",NA,NA,NA,NA,""
"image-keyboard-response",437,304265,"0.0-4.141-2.141","nj3plvqcjfltacj",463,"84.csv","","null","resources/images/coin2.png","null","",NA,NA,NA,NA,""
"image-keyboard-response",438,304602,"0.0-4.142-0.142","nj3plvqcjfltacj",463,"84.csv","","335.2999999523163","resources/trios/L1T2A2.jpg","38","restless",0.6,0.5,0.3,0.962497842402131,"false"
"image-keyboard-response",439,305004,"0.0-4.142-1.142","nj3plvqcjfltacj",463,"84.csv","","null","resources/maskTrios/BT2B.jpg","null","",NA,NA,NA,NA,""
"image-keyboard-response",440,306207,"0.0-4.142-2.142","nj3plvqcjfltacj",463,"84.csv","","null","resources/images/fishbone.png","null","",NA,NA,NA,NA,""
"image-keyboard-response",441,306571,"0.0-4.143-0.143","nj3plvqcjfltacj",463,"84.csv","","363.09999990463257","resources/trios/L1T2A2.jpg","39","restless",0.6,0.5,0.3,0.532931453209165,"false"
"image-keyboard-response",442,306974,"0.0-4.143-1.143","nj3plvqcjfltacj",463,"84.csv","","null","resources/maskTrios/BBA2.jpg","null","",NA,NA,NA,NA,""
"image-keyboard-response",443,308175,"0.0-4.143-2.143","nj3plvqcjfltacj",463,"84.csv","","null","resources/images/fishbone.png","null","",NA,NA,NA,NA,""
"image-keyboard-response",444,308825,"0.0-4.144-0.144","nj3plvqcjfltacj",463,"84.csv","","649","resources/trios/L1T2A2.jpg","39","restless",0.6,0.5,0.3,0.0866645078424531,"true"
"image-keyboard-response",445,309228,"0.0-4.144-1.144","nj3plvqcjfltacj",463,"84.csv","","null","resources/maskTrios/BBA2.jpg","null","",NA,NA,NA,NA,""
"image-keyboard-response",446,310430,"0.0-4.144-2.144","nj3plvqcjfltacj",463,"84.csv","","null","resources/images/coin2.png","null","",NA,NA,NA,NA,""
"image-keyboard-response",447,310709,"0.0-4.145-0.145","nj3plvqcjfltacj",463,"84.csv","","277.39999985694885","resources/trios/L1T2A2.jpg","39","restless",0.6,0.5,0.3,0.791293186942384,"false"
"image-keyboard-response",448,311111,"0.0-4.145-1.145","nj3plvqcjfltacj",463,"84.csv","","null","resources/maskTrios/BBA2.jpg","null","",NA,NA,NA,NA,""
"image-keyboard-response",449,312314,"0.0-4.145-2.145","nj3plvqcjfltacj",463,"84.csv","","null","resources/images/fishbone.png","null","",NA,NA,NA,NA,""
"image-keyboard-response",450,312626,"0.0-4.146-0.146","nj3plvqcjfltacj",463,"84.csv","","311.09999990463257","resources/trios/L1T2A2.jpg","37","restless",0.6,0.5,0.3,0.198083735635088,"true"
"image-keyboard-response",451,313029,"0.0-4.146-1.146","nj3plvqcjfltacj",463,"84.csv","","null","resources/maskTrios/L1BB.jpg","null","",NA,NA,NA,NA,""
"image-keyboard-response",452,314231,"0.0-4.146-2.146","nj3plvqcjfltacj",463,"84.csv","","null","resources/images/coin2.png","null","",NA,NA,NA,NA,""
"image-keyboard-response",453,314529,"0.0-4.147-0.147","nj3plvqcjfltacj",463,"84.csv","","296.39999985694885","resources/trios/L1T2A2.jpg","37","restless",0.6,0.5,0.3,0.651534125481289,"false"
"image-keyboard-response",454,314931,"0.0-4.147-1.147","nj3plvqcjfltacj",463,"84.csv","","null","resources/maskTrios/L1BB.jpg","null","",NA,NA,NA,NA,""
"image-keyboard-response",455,316134,"0.0-4.147-2.147","nj3plvqcjfltacj",463,"84.csv","","null","resources/images/fishbone.png","null","",NA,NA,NA,NA,""
"image-keyboard-response",456,316391,"0.0-4.148-0.148","nj3plvqcjfltacj",463,"84.csv","","256.40000009536743","resources/trios/L1T2A2.jpg","38","restless",0.6,0.5,0.3,0.212267918232609,"true"
"image-keyboard-response",457,316793,"0.0-4.148-1.148","nj3plvqcjfltacj",463,"84.csv","","null","resources/maskTrios/BT2B.jpg","null","",NA,NA,NA,NA,""
"image-keyboard-response",458,317995,"0.0-4.148-2.148","nj3plvqcjfltacj",463,"84.csv","","null","resources/images/coin2.png","null","",NA,NA,NA,NA,""
"image-keyboard-response",459,318270,"0.0-4.149-0.149","nj3plvqcjfltacj",463,"84.csv","","273.7999999523163","resources/trios/L1T2A2.jpg","38","restless",0.6,0.5,0.3,0.255933702812209,"true"
"image-keyboard-response",460,318673,"0.0-4.149-1.149","nj3plvqcjfltacj",463,"84.csv","","null","resources/maskTrios/BT2B.jpg","null","",NA,NA,NA,NA,""
"image-keyboard-response",461,319875,"0.0-4.149-2.149","nj3plvqcjfltacj",463,"84.csv","","null","resources/images/coin2.png","null","",NA,NA,NA,NA,""
"image-keyboard-response",462,320197,"0.0-4.150-0.150","nj3plvqcjfltacj",463,"84.csv","","320.5","resources/trios/L1T2A2.jpg","38","restless",0.6,0.5,0.3,0.00264672538562394,"true"
"image-keyboard-response",463,320599,"0.0-4.150-1.150","nj3plvqcjfltacj",463,"84.csv","","null","resources/maskTrios/BT2B.jpg","null","",NA,NA,NA,NA,""
"image-keyboard-response",464,321801,"0.0-4.150-2.150","nj3plvqcjfltacj",463,"84.csv","","null","resources/images/coin2.png","null","",NA,NA,NA,NA,""
"image-keyboard-response",465,322116,"0.0-4.151-0.151","nj3plvqcjfltacj",463,"84.csv","","314.19999980926514","resources/trios/L1T2A2.jpg","38","restless",0.6,0.5,0.3,0.718013369134203,"false"
"image-keyboard-response",466,322518,"0.0-4.151-1.151","nj3plvqcjfltacj",463,"84.csv","","null","resources/maskTrios/BT2B.jpg","null","",NA,NA,NA,NA,""
"image-keyboard-response",467,323720,"0.0-4.151-2.151","nj3plvqcjfltacj",463,"84.csv","","null","resources/images/fishbone.png","null","",NA,NA,NA,NA,""
"image-keyboard-response",468,324108,"0.0-4.152-0.152","nj3plvqcjfltacj",463,"84.csv","","387.10000014305115","resources/trios/L1T2A2.jpg","37","restless",0.6,0.5,0.3,0.567867029263902,"true"
"image-keyboard-response",469,324510,"0.0-4.152-1.152","nj3plvqcjfltacj",463,"84.csv","","null","resources/maskTrios/L1BB.jpg","null","",NA,NA,NA,NA,""
"image-keyboard-response",470,325712,"0.0-4.152-2.152","nj3plvqcjfltacj",463,"84.csv","","null","resources/images/coin2.png","null","",NA,NA,NA,NA,""
"image-keyboard-response",471,326025,"0.0-4.153-0.153","nj3plvqcjfltacj",463,"84.csv","","311.7000000476837","resources/trios/L1T2A2.jpg","37","restless",0.5,0.5,0.3,0.641431156267178,"false"
"image-keyboard-response",472,326428,"0.0-4.153-1.153","nj3plvqcjfltacj",463,"84.csv","","null","resources/maskTrios/L1BB.jpg","null","",NA,NA,NA,NA,""
"image-keyboard-response",473,327631,"0.0-4.153-2.153","nj3plvqcjfltacj",463,"84.csv","","null","resources/images/fishbone.png","null","",NA,NA,NA,NA,""
"image-keyboard-response",474,327945,"0.0-4.154-0.154","nj3plvqcjfltacj",463,"84.csv","","313.59999990463257","resources/trios/L1T2A2.jpg","38","restless",0.5,0.6,0.3,0.19865034768233,"true"
"image-keyboard-response",475,328348,"0.0-4.154-1.154","nj3plvqcjfltacj",463,"84.csv","","null","resources/maskTrios/BT2B.jpg","null","",NA,NA,NA,NA,""
"image-keyboard-response",476,329550,"0.0-4.154-2.154","nj3plvqcjfltacj",463,"84.csv","","null","resources/images/coin2.png","null","",NA,NA,NA,NA,""
"image-keyboard-response",477,329816,"0.0-4.155-0.155","nj3plvqcjfltacj",463,"84.csv","","264.90000009536743","resources/trios/L1T2A2.jpg","38","restless",0.5,0.6,0.3,0.161108487209739,"true"
"image-keyboard-response",478,330218,"0.0-4.155-1.155","nj3plvqcjfltacj",463,"84.csv","","null","resources/maskTrios/BT2B.jpg","null","",NA,NA,NA,NA,""
"image-keyboard-response",479,331421,"0.0-4.155-2.155","nj3plvqcjfltacj",463,"84.csv","","null","resources/images/coin2.png","null","",NA,NA,NA,NA,""
"image-keyboard-response",480,331709,"0.0-4.156-0.156","nj3plvqcjfltacj",463,"84.csv","","286.90000009536743","resources/trios/L1T2A2.jpg","38","restless",0.5,0.6,0.3,0.237861036729238,"true"
"image-keyboard-response",481,332112,"0.0-4.156-1.156","nj3plvqcjfltacj",463,"84.csv","","null","resources/maskTrios/BT2B.jpg","null","",NA,NA,NA,NA,""
"image-keyboard-response",482,333314,"0.0-4.156-2.156","nj3plvqcjfltacj",463,"84.csv","","null","resources/images/coin2.png","null","",NA,NA,NA,NA,""
"image-keyboard-response",483,333597,"0.0-4.157-0.157","nj3plvqcjfltacj",463,"84.csv","","281.7999999523163","resources/trios/L1T2A2.jpg","38","restless",0.5,0.6,0.3,0.935378098836847,"false"
"image-keyboard-response",484,333999,"0.0-4.157-1.157","nj3plvqcjfltacj",463,"84.csv","","null","resources/maskTrios/BT2B.jpg","null","",NA,NA,NA,NA,""
"image-keyboard-response",485,335200,"0.0-4.157-2.157","nj3plvqcjfltacj",463,"84.csv","","null","resources/images/fishbone.png","null","",NA,NA,NA,NA,""
"image-keyboard-response",486,335517,"0.0-4.158-0.158","nj3plvqcjfltacj",463,"84.csv","","316.69999980926514","resources/trios/L1T2A2.jpg","39","restless",0.4,0.6,0.3,0.873154898615046,"false"
"image-keyboard-response",487,335920,"0.0-4.158-1.158","nj3plvqcjfltacj",463,"84.csv","","null","resources/maskTrios/BBA2.jpg","null","",NA,NA,NA,NA,""
"image-keyboard-response",488,337121,"0.0-4.158-2.158","nj3plvqcjfltacj",463,"84.csv","","null","resources/images/fishbone.png","null","",NA,NA,NA,NA,""
"image-keyboard-response",489,337191,"0.0-4.159-0.159","nj3plvqcjfltacj",463,"84.csv","","69","resources/trios/L1T2A2.jpg","39","restless",0.4,0.6,0.3,0.478751252496513,"false"
"image-keyboard-response",490,337593,"0.0-4.159-1.159","nj3plvqcjfltacj",463,"84.csv","","null","resources/maskTrios/BBA2.jpg","null","",NA,NA,NA,NA,""
"image-keyboard-response",491,338795,"0.0-4.159-2.159","nj3plvqcjfltacj",463,"84.csv","","null","resources/images/fishbone.png","null","",NA,NA,NA,NA,""
"image-keyboard-response",492,339150,"0.0-4.160-0.160","nj3plvqcjfltacj",463,"84.csv","","353.90000009536743","resources/trios/L1T2A2.jpg","37","restless",0.4,0.6,0.3,0.847945634479929,"false"
"image-keyboard-response",493,339553,"0.0-4.160-1.160","nj3plvqcjfltacj",463,"84.csv","","null","resources/maskTrios/L1BB.jpg","null","",NA,NA,NA,NA,""
"image-keyboard-response",494,340756,"0.0-4.160-2.160","nj3plvqcjfltacj",463,"84.csv","","null","resources/images/fishbone.png","null","",NA,NA,NA,NA,""
"image-keyboard-response",495,341042,"0.0-4.161-0.161","nj3plvqcjfltacj",463,"84.csv","","284.59999990463257","resources/trios/L1T2A2.jpg","38","restless",0.4,0.6,0.3,0.877156019976028,"false"
"image-keyboard-response",496,341443,"0.0-4.161-1.161","nj3plvqcjfltacj",463,"84.csv","","null","resources/maskTrios/BT2B.jpg","null","",NA,NA,NA,NA,""
"image-keyboard-response",497,342646,"0.0-4.161-2.161","nj3plvqcjfltacj",463,"84.csv","","null","resources/images/fishbone.png","null","",NA,NA,NA,NA,""
"image-keyboard-response",498,342964,"0.0-4.162-0.162","nj3plvqcjfltacj",463,"84.csv","","317.09999990463257","resources/trios/L1T2A2.jpg","37","restless",0.4,0.6,0.3,0.637618610496,"false"
"image-keyboard-response",499,343366,"0.0-4.162-1.162","nj3plvqcjfltacj",463,"84.csv","","null","resources/maskTrios/L1BB.jpg","null","",NA,NA,NA,NA,""
"image-keyboard-response",500,344569,"0.0-4.162-2.162","nj3plvqcjfltacj",463,"84.csv","","null","resources/images/fishbone.png","null","",NA,NA,NA,NA,""
"image-keyboard-response",501,345030,"0.0-4.163-0.163","nj3plvqcjfltacj",463,"84.csv","","459.59999990463257","resources/trios/L1T2A2.jpg","39","restless",0.5,0.6,0.3,0.971973963286722,"false"
"image-keyboard-response",502,345432,"0.0-4.163-1.163","nj3plvqcjfltacj",463,"84.csv","","null","resources/maskTrios/BBA2.jpg","null","",NA,NA,NA,NA,""
"image-keyboard-response",503,346634,"0.0-4.163-2.163","nj3plvqcjfltacj",463,"84.csv","","null","resources/images/fishbone.png","null","",NA,NA,NA,NA,""
"image-keyboard-response",504,347023,"0.0-4.164-0.164","nj3plvqcjfltacj",463,"84.csv","","388.69999980926514","resources/trios/L1T2A2.jpg","37","restless",0.5,0.6,0.3,0.787304917293199,"false"
"image-keyboard-response",505,347425,"0.0-4.164-1.164","nj3plvqcjfltacj",463,"84.csv","","null","resources/maskTrios/L1BB.jpg","null","",NA,NA,NA,NA,""
"image-keyboard-response",506,348627,"0.0-4.164-2.164","nj3plvqcjfltacj",463,"84.csv","","null","resources/images/fishbone.png","null","",NA,NA,NA,NA,""
"image-keyboard-response",507,349042,"0.0-4.165-0.165","nj3plvqcjfltacj",463,"84.csv","","412.2000000476837","resources/trios/L1T2A2.jpg","38","restless",0.5,0.7,0.3,0.00645136641589716,"true"
"image-keyboard-response",508,349444,"0.0-4.165-1.165","nj3plvqcjfltacj",463,"84.csv","","null","resources/maskTrios/BT2B.jpg","null","",NA,NA,NA,NA,""
"image-keyboard-response",509,350646,"0.0-4.165-2.165","nj3plvqcjfltacj",463,"84.csv","","null","resources/images/coin2.png","null","",NA,NA,NA,NA,""
"image-keyboard-response",510,350987,"0.0-4.166-0.166","nj3plvqcjfltacj",463,"84.csv","","339.60000014305115","resources/trios/L1T2A2.jpg","38","restless",0.5,0.7,0.3,0.107318243624196,"true"
"image-keyboard-response",511,351390,"0.0-4.166-1.166","nj3plvqcjfltacj",463,"84.csv","","null","resources/maskTrios/BT2B.jpg","null","",NA,NA,NA,NA,""
"image-keyboard-response",512,352592,"0.0-4.166-2.166","nj3plvqcjfltacj",463,"84.csv","","null","resources/images/coin2.png","null","",NA,NA,NA,NA,""
"image-keyboard-response",513,352899,"0.0-4.167-0.167","nj3plvqcjfltacj",463,"84.csv","","305.2000000476837","resources/trios/L1T2A2.jpg","38","restless",0.5,0.7,0.2,0.604797697450854,"true"
"image-keyboard-response",514,353301,"0.0-4.167-1.167","nj3plvqcjfltacj",463,"84.csv","","null","resources/maskTrios/BT2B.jpg","null","",NA,NA,NA,NA,""
"image-keyboard-response",515,354504,"0.0-4.167-2.167","nj3plvqcjfltacj",463,"84.csv","","null","resources/images/coin2.png","null","",NA,NA,NA,NA,""
"image-keyboard-response",516,354814,"0.0-4.168-0.168","nj3plvqcjfltacj",463,"84.csv","","309.2999999523163","resources/trios/L1T2A2.jpg","38","restless",0.5,0.7,0.2,0.00187037252155231,"true"
"image-keyboard-response",517,355217,"0.0-4.168-1.168","nj3plvqcjfltacj",463,"84.csv","","null","resources/maskTrios/BT2B.jpg","null","",NA,NA,NA,NA,""
"image-keyboard-response",518,356420,"0.0-4.168-2.168","nj3plvqcjfltacj",463,"84.csv","","null","resources/images/coin2.png","null","",NA,NA,NA,NA,""
"image-keyboard-response",519,356734,"0.0-4.169-0.169","nj3plvqcjfltacj",463,"84.csv","","313.59999990463257","resources/trios/L1T2A2.jpg","38","restless",0.5,0.7,0.2,0.298662230733896,"true"
"image-keyboard-response",520,357137,"0.0-4.169-1.169","nj3plvqcjfltacj",463,"84.csv","","null","resources/maskTrios/BT2B.jpg","null","",NA,NA,NA,NA,""
"image-keyboard-response",521,358339,"0.0-4.169-2.169","nj3plvqcjfltacj",463,"84.csv","","null","resources/images/coin2.png","null","",NA,NA,NA,NA,""
"image-keyboard-response",522,358721,"0.0-4.170-0.170","nj3plvqcjfltacj",463,"84.csv","","380.2999999523163","resources/trios/L1T2A2.jpg","38","restless",0.5,0.7,0.2,0.739224646300154,"false"
"image-keyboard-response",523,359123,"0.0-4.170-1.170","nj3plvqcjfltacj",463,"84.csv","","null","resources/maskTrios/BT2B.jpg","null","",NA,NA,NA,NA,""
"image-keyboard-response",524,360326,"0.0-4.170-2.170","nj3plvqcjfltacj",463,"84.csv","","null","resources/images/fishbone.png","null","",NA,NA,NA,NA,""
"image-keyboard-response",525,360621,"0.0-4.171-0.171","nj3plvqcjfltacj",463,"84.csv","","294.09999990463257","resources/trios/L1T2A2.jpg","39","restless",0.5,0.7,0.2,0.220383962677969,"false"
"image-keyboard-response",526,361023,"0.0-4.171-1.171","nj3plvqcjfltacj",463,"84.csv","","null","resources/maskTrios/BBA2.jpg","null","",NA,NA,NA,NA,""
"image-keyboard-response",527,362226,"0.0-4.171-2.171","nj3plvqcjfltacj",463,"84.csv","","null","resources/images/fishbone.png","null","",NA,NA,NA,NA,""
"image-keyboard-response",528,362534,"0.0-4.172-0.172","nj3plvqcjfltacj",463,"84.csv","","307","resources/trios/L1T2A2.jpg","38","restless",0.5,0.7,0.2,0.398662090297457,"true"
"image-keyboard-response",529,362937,"0.0-4.172-1.172","nj3plvqcjfltacj",463,"84.csv","","null","resources/maskTrios/BT2B.jpg","null","",NA,NA,NA,NA,""
"image-keyboard-response",530,364140,"0.0-4.172-2.172","nj3plvqcjfltacj",463,"84.csv","","null","resources/images/coin2.png","null","",NA,NA,NA,NA,""
"image-keyboard-response",531,364549,"0.0-4.173-0.173","nj3plvqcjfltacj",463,"84.csv","","408.2999999523163","resources/trios/L1T2A2.jpg","38","restless",0.5,0.7,0.2,0.922384552436516,"false"
"image-keyboard-response",532,364950,"0.0-4.173-1.173","nj3plvqcjfltacj",463,"84.csv","","null","resources/maskTrios/BT2B.jpg","null","",NA,NA,NA,NA,""
"image-keyboard-response",533,366152,"0.0-4.173-2.173","nj3plvqcjfltacj",463,"84.csv","","null","resources/images/fishbone.png","null","",NA,NA,NA,NA,""
"image-keyboard-response",534,366501,"0.0-4.174-0.174","nj3plvqcjfltacj",463,"84.csv","","347","resources/trios/L1T2A2.jpg","37","restless",0.5,0.7,0.2,0.834894901034613,"false"
"image-keyboard-response",535,366903,"0.0-4.174-1.174","nj3plvqcjfltacj",463,"84.csv","","null","resources/maskTrios/L1BB.jpg","null","",NA,NA,NA,NA,""
"image-keyboard-response",536,368106,"0.0-4.174-2.174","nj3plvqcjfltacj",463,"84.csv","","null","resources/images/fishbone.png","null","",NA,NA,NA,NA,""
"image-keyboard-response",537,368452,"0.0-4.175-0.175","nj3plvqcjfltacj",463,"84.csv","","344.5","resources/trios/L1T2A2.jpg","37","restless",0.5,0.8,0.2,0.849697096232708,"false"
"image-keyboard-response",538,368854,"0.0-4.175-1.175","nj3plvqcjfltacj",463,"84.csv","","null","resources/maskTrios/L1BB.jpg","null","",NA,NA,NA,NA,""
"image-keyboard-response",539,370056,"0.0-4.175-2.175","nj3plvqcjfltacj",463,"84.csv","","null","resources/images/fishbone.png","null","",NA,NA,NA,NA,""
"image-keyboard-response",540,370409,"0.0-4.176-0.176","nj3plvqcjfltacj",463,"84.csv","","351.90000009536743","resources/trios/L1T2A2.jpg","39","restless",0.5,0.8,0.2,0.338113013125782,"false"
"image-keyboard-response",541,370810,"0.0-4.176-1.176","nj3plvqcjfltacj",463,"84.csv","","null","resources/maskTrios/BBA2.jpg","null","",NA,NA,NA,NA,""
"image-keyboard-response",542,372012,"0.0-4.176-2.176","nj3plvqcjfltacj",463,"84.csv","","null","resources/images/fishbone.png","null","",NA,NA,NA,NA,""
"image-keyboard-response",543,372313,"0.0-4.177-0.177","nj3plvqcjfltacj",463,"84.csv","","299.5","resources/trios/L1T2A2.jpg","37","restless",0.5,0.9,0.2,0.606117695511019,"false"
"image-keyboard-response",544,372715,"0.0-4.177-1.177","nj3plvqcjfltacj",463,"84.csv","","null","resources/maskTrios/L1BB.jpg","null","",NA,NA,NA,NA,""
"image-keyboard-response",545,373918,"0.0-4.177-2.177","nj3plvqcjfltacj",463,"84.csv","","null","resources/images/fishbone.png","null","",NA,NA,NA,NA,""
"image-keyboard-response",546,374250,"0.0-4.178-0.178","nj3plvqcjfltacj",463,"84.csv","","331.2999999523163","resources/trios/L1T2A2.jpg","38","restless",0.5,0.9,0.2,0.481542414420479,"true"
"image-keyboard-response",547,374653,"0.0-4.178-1.178","nj3plvqcjfltacj",463,"84.csv","","null","resources/maskTrios/BT2B.jpg","null","",NA,NA,NA,NA,""
"image-keyboard-response",548,375855,"0.0-4.178-2.178","nj3plvqcjfltacj",463,"84.csv","","null","resources/images/coin2.png","null","",NA,NA,NA,NA,""
"image-keyboard-response",549,376123,"0.0-4.179-0.179","nj3plvqcjfltacj",463,"84.csv","","267.5","resources/trios/L1T2A2.jpg","38","restless",0.5,0.8,0.2,0.961568960084804,"false"
"image-keyboard-response",550,376526,"0.0-4.179-1.179","nj3plvqcjfltacj",463,"84.csv","","null","resources/maskTrios/BT2B.jpg","null","",NA,NA,NA,NA,""
"image-keyboard-response",551,377728,"0.0-4.179-2.179","nj3plvqcjfltacj",463,"84.csv","","null","resources/images/fishbone.png","null","",NA,NA,NA,NA,""
"image-keyboard-response",552,378227,"0.0-4.180-0.180","nj3plvqcjfltacj",463,"84.csv","","497.7000000476837","resources/trios/L1T2A2.jpg","39","restless",0.5,0.7,0.3,0.378695742171167,"false"
"image-keyboard-response",553,378630,"0.0-4.180-1.180","nj3plvqcjfltacj",463,"84.csv","","null","resources/maskTrios/BBA2.jpg","null","",NA,NA,NA,NA,""
"image-keyboard-response",554,379832,"0.0-4.180-2.180","nj3plvqcjfltacj",463,"84.csv","","null","resources/images/fishbone.png","null","",NA,NA,NA,NA,""
"image-keyboard-response",555,380146,"0.0-4.181-0.181","nj3plvqcjfltacj",463,"84.csv","","312.09999990463257","resources/trios/L1T2A2.jpg","38","restless",0.5,0.7,0.4,0.920297018955542,"false"
"image-keyboard-response",556,380548,"0.0-4.181-1.181","nj3plvqcjfltacj",463,"84.csv","","null","resources/maskTrios/BT2B.jpg","null","",NA,NA,NA,NA,""
"image-keyboard-response",557,381750,"0.0-4.181-2.181","nj3plvqcjfltacj",463,"84.csv","","null","resources/images/fishbone.png","null","",NA,NA,NA,NA,""
"image-keyboard-response",558,382008,"0.0-4.182-0.182","nj3plvqcjfltacj",463,"84.csv","","256.5","resources/trios/L1T2A2.jpg","37","restless",0.5,0.7,0.4,0.615864120852626,"false"
"image-keyboard-response",559,382410,"0.0-4.182-1.182","nj3plvqcjfltacj",463,"84.csv","","null","resources/maskTrios/L1BB.jpg","null","",NA,NA,NA,NA,""
"image-keyboard-response",560,383612,"0.0-4.182-2.182","nj3plvqcjfltacj",463,"84.csv","","null","resources/images/fishbone.png","null","",NA,NA,NA,NA,""
"image-keyboard-response",561,383721,"0.0-4.183-0.183","nj3plvqcjfltacj",463,"84.csv","","108.19999980926514","resources/trios/L1T2A2.jpg","39","restless",0.5,0.7,0.4,0.632557651931617,"false"
"image-keyboard-response",562,384123,"0.0-4.183-1.183","nj3plvqcjfltacj",463,"84.csv","","null","resources/maskTrios/BBA2.jpg","null","",NA,NA,NA,NA,""
"image-keyboard-response",563,385326,"0.0-4.183-2.183","nj3plvqcjfltacj",463,"84.csv","","null","resources/images/fishbone.png","null","",NA,NA,NA,NA,""
"image-keyboard-response",564,385618,"0.0-4.184-0.184","nj3plvqcjfltacj",463,"84.csv","","290.90000009536743","resources/trios/L1T2A2.jpg","37","restless",0.5,0.7,0.4,0.739920853903191,"false"
"image-keyboard-response",565,386020,"0.0-4.184-1.184","nj3plvqcjfltacj",463,"84.csv","","null","resources/maskTrios/L1BB.jpg","null","",NA,NA,NA,NA,""
"image-keyboard-response",566,387222,"0.0-4.184-2.184","nj3plvqcjfltacj",463,"84.csv","","null","resources/images/fishbone.png","null","",NA,NA,NA,NA,""
"image-keyboard-response",567,387290,"0.0-4.185-0.185","nj3plvqcjfltacj",463,"84.csv","","66.29999995231628","resources/trios/L1T2A2.jpg","38","restless",0.5,0.7,0.4,0.596450504526941,"true"
"image-keyboard-response",568,387692,"0.0-4.185-1.185","nj3plvqcjfltacj",463,"84.csv","","null","resources/maskTrios/BT2B.jpg","null","",NA,NA,NA,NA,""
"image-keyboard-response",569,388894,"0.0-4.185-2.185","nj3plvqcjfltacj",463,"84.csv","","null","resources/images/coin2.png","null","",NA,NA,NA,NA,""
"image-keyboard-response",570,389397,"0.0-4.186-0.186","nj3plvqcjfltacj",463,"84.csv","","502.5","resources/trios/L1T2A2.jpg","38","restless",0.5,0.7,0.3,0.83521390459221,"false"
"image-keyboard-response",571,389799,"0.0-4.186-1.186","nj3plvqcjfltacj",463,"84.csv","","null","resources/maskTrios/BT2B.jpg","null","",NA,NA,NA,NA,""
"image-keyboard-response",572,391000,"0.0-4.186-2.186","nj3plvqcjfltacj",463,"84.csv","","null","resources/images/fishbone.png","null","",NA,NA,NA,NA,""
"image-keyboard-response",573,391261,"0.0-4.187-0.187","nj3plvqcjfltacj",463,"84.csv","","259.7999999523163","resources/trios/L1T2A2.jpg","37","restless",0.5,0.7,0.4,0.528039780017527,"false"
"image-keyboard-response",574,391663,"0.0-4.187-1.187","nj3plvqcjfltacj",463,"84.csv","","null","resources/maskTrios/L1BB.jpg","null","",NA,NA,NA,NA,""
"image-keyboard-response",575,392865,"0.0-4.187-2.187","nj3plvqcjfltacj",463,"84.csv","","null","resources/images/fishbone.png","null","",NA,NA,NA,NA,""
"image-keyboard-response",576,393159,"0.0-4.188-0.188","nj3plvqcjfltacj",463,"84.csv","","293.2000000476837","resources/trios/L1T2A2.jpg","37","restless",0.5,0.6,0.4,0.708897006837705,"false"
"image-keyboard-response",577,393561,"0.0-4.188-1.188","nj3plvqcjfltacj",463,"84.csv","","null","resources/maskTrios/L1BB.jpg","null","",NA,NA,NA,NA,""
"image-keyboard-response",578,394763,"0.0-4.188-2.188","nj3plvqcjfltacj",463,"84.csv","","null","resources/images/fishbone.png","null","",NA,NA,NA,NA,""
"image-keyboard-response",579,395043,"0.0-4.189-0.189","nj3plvqcjfltacj",463,"84.csv","","278.89999985694885","resources/trios/L1T2A2.jpg","39","restless",0.5,0.6,0.4,0.0322960334229492,"true"
"image-keyboard-response",580,395444,"0.0-4.189-1.189","nj3plvqcjfltacj",463,"84.csv","","null","resources/maskTrios/BBA2.jpg","null","",NA,NA,NA,NA,""
"image-keyboard-response",581,396646,"0.0-4.189-2.189","nj3plvqcjfltacj",463,"84.csv","","null","resources/images/coin2.png","null","",NA,NA,NA,NA,""
"image-keyboard-response",582,396935,"0.0-4.190-0.190","nj3plvqcjfltacj",463,"84.csv","","287.89999985694885","resources/trios/L1T2A2.jpg","39","restless",0.5,0.6,0.3,0.800113742389127,"false"
"image-keyboard-response",583,397338,"0.0-4.190-1.190","nj3plvqcjfltacj",463,"84.csv","","null","resources/maskTrios/BBA2.jpg","null","",NA,NA,NA,NA,""
"image-keyboard-response",584,398541,"0.0-4.190-2.190","nj3plvqcjfltacj",463,"84.csv","","null","resources/images/fishbone.png","null","",NA,NA,NA,NA,""
"image-keyboard-response",585,399193,"0.0-4.191-0.191","nj3plvqcjfltacj",463,"84.csv","","651.2000000476837","resources/trios/L1T2A2.jpg","38","restless",0.5,0.6,0.3,0.190038284497885,"true"
"image-keyboard-response",586,399594,"0.0-4.191-1.191","nj3plvqcjfltacj",463,"84.csv","","null","resources/maskTrios/BT2B.jpg","null","",NA,NA,NA,NA,""
"image-keyboard-response",587,400797,"0.0-4.191-2.191","nj3plvqcjfltacj",463,"84.csv","","null","resources/images/coin2.png","null","",NA,NA,NA,NA,""
"image-keyboard-response",588,401091,"0.0-4.192-0.192","nj3plvqcjfltacj",463,"84.csv","","292.89999985694885","resources/trios/L1T2A2.jpg","38","restless",0.4,0.6,0.3,0.186868736127252,"true"
"image-keyboard-response",589,401492,"0.0-4.192-1.192","nj3plvqcjfltacj",463,"84.csv","","null","resources/maskTrios/BT2B.jpg","null","",NA,NA,NA,NA,""
"image-keyboard-response",590,402694,"0.0-4.192-2.192","nj3plvqcjfltacj",463,"84.csv","","null","resources/images/coin2.png","null","",NA,NA,NA,NA,""
"image-keyboard-response",591,402977,"0.0-4.193-0.193","nj3plvqcjfltacj",463,"84.csv","","282.2000000476837","resources/trios/L1T2A2.jpg","38","restless",0.4,0.6,0.2,0.982256315516932,"false"
"image-keyboard-response",592,403379,"0.0-4.193-1.193","nj3plvqcjfltacj",463,"84.csv","","null","resources/maskTrios/BT2B.jpg","null","",NA,NA,NA,NA,""
"image-keyboard-response",593,404581,"0.0-4.193-2.193","nj3plvqcjfltacj",463,"84.csv","","null","resources/images/fishbone.png","null","",NA,NA,NA,NA,""
"image-keyboard-response",594,404869,"0.0-4.194-0.194","nj3plvqcjfltacj",463,"84.csv","","286.90000009536743","resources/trios/L1T2A2.jpg","37","restless",0.4,0.6,0.2,0.81175365188134,"false"
"image-keyboard-response",595,405272,"0.0-4.194-1.194","nj3plvqcjfltacj",463,"84.csv","","null","resources/maskTrios/L1BB.jpg","null","",NA,NA,NA,NA,""
"image-keyboard-response",596,406474,"0.0-4.194-2.194","nj3plvqcjfltacj",463,"84.csv","","null","resources/images/fishbone.png","null","",NA,NA,NA,NA,""
"image-keyboard-response",597,406805,"0.0-4.195-0.195","nj3plvqcjfltacj",463,"84.csv","","329.2999999523163","resources/trios/L1T2A2.jpg","39","restless",0.4,0.6,0.2,0.626710815566406,"false"
"image-keyboard-response",598,407207,"0.0-4.195-1.195","nj3plvqcjfltacj",463,"84.csv","","null","resources/maskTrios/BBA2.jpg","null","",NA,NA,NA,NA,""
"image-keyboard-response",599,408409,"0.0-4.195-2.195","nj3plvqcjfltacj",463,"84.csv","","null","resources/images/fishbone.png","null","",NA,NA,NA,NA,""
"image-keyboard-response",600,408645,"0.0-4.196-0.196","nj3plvqcjfltacj",463,"84.csv","","235.20000004768372","resources/trios/L1T2A2.jpg","39","restless",0.4,0.6,0.2,0.492826567026354,"false"
"image-keyboard-response",601,409048,"0.0-4.196-1.196","nj3plvqcjfltacj",463,"84.csv","","null","resources/maskTrios/BBA2.jpg","null","",NA,NA,NA,NA,""
"image-keyboard-response",602,410250,"0.0-4.196-2.196","nj3plvqcjfltacj",463,"84.csv","","null","resources/images/fishbone.png","null","",NA,NA,NA,NA,""
"image-keyboard-response",603,410550,"0.0-4.197-0.197","nj3plvqcjfltacj",463,"84.csv","","298.89999985694885","resources/trios/L1T2A2.jpg","38","restless",0.4,0.6,0.2,0.0565857130651346,"true"
"image-keyboard-response",604,410953,"0.0-4.197-1.197","nj3plvqcjfltacj",463,"84.csv","","null","resources/maskTrios/BT2B.jpg","null","",NA,NA,NA,NA,""
"image-keyboard-response",605,412155,"0.0-4.197-2.197","nj3plvqcjfltacj",463,"84.csv","","null","resources/images/coin2.png","null","",NA,NA,NA,NA,""
"image-keyboard-response",606,412785,"0.0-4.198-0.198","nj3plvqcjfltacj",463,"84.csv","","628.9000000953674","resources/trios/L1T2A2.jpg","38","restless",0.4,0.6,0.2,0.947104912941757,"false"
"image-keyboard-response",607,413187,"0.0-4.198-1.198","nj3plvqcjfltacj",463,"84.csv","","null","resources/maskTrios/BT2B.jpg","null","",NA,NA,NA,NA,""
"image-keyboard-response",608,414390,"0.0-4.198-2.198","nj3plvqcjfltacj",463,"84.csv","","null","resources/images/fishbone.png","null","",NA,NA,NA,NA,""
"image-keyboard-response",609,414798,"0.0-4.199-0.199","nj3plvqcjfltacj",463,"84.csv","","406.40000009536743","resources/trios/L1T2A2.jpg","37","restless",0.3,0.6,0.3,0.330245562208058,"false"
"image-keyboard-response",610,415200,"0.0-4.199-1.199","nj3plvqcjfltacj",463,"84.csv","","null","resources/maskTrios/L1BB.jpg","null","",NA,NA,NA,NA,""
"image-keyboard-response",611,416402,"0.0-4.199-2.199","nj3plvqcjfltacj",463,"84.csv","","null","resources/images/fishbone.png","null","",NA,NA,NA,NA,""
"survey-text",612,478869,"0.0-5.0","nj3plvqcjfltacj",463,"84.csv","","62457.40000009537","","","",NA,NA,NA,NA,""
