"trial_type","trial_index","time_elapsed","internal_node_id","subject","participantCode","walkNumber","success","rt","stimulus","key_press","test_part","leftProb","midProb","rightProb","generatedNum","correct"
"pavlovia",0,1131,"0.0-0.0","4suuw8p8jectvdv",580,"175.csv","","","","","",NA,NA,NA,NA,""
"fullscreen",1,5258,"0.0-1.0","4suuw8p8jectvdv",580,"175.csv","true","","","","",NA,NA,NA,NA,""
"survey-html-form",2,12866,"0.0-2.0","4suuw8p8jectvdv",580,"175.csv","","7604.599999904633","","","",NA,NA,NA,NA,""
"image-keyboard-response",3,27348,"0.0-3.0-0.0","4suuw8p8jectvdv",580,"175.csv","","14479.900000095367","resources/images/parrot_nobg.png","13","",NA,NA,NA,NA,""
"image-keyboard-response",4,30355,"0.0-3.0-1.0","4suuw8p8jectvdv",580,"175.csv","","null","resources/image_sets/111.png","null","",NA,NA,NA,NA,""
"image-keyboard-response",5,33183,"0.0-3.0-2.0","4suuw8p8jectvdv",580,"175.csv","","2826.5999999046326","resources/image_sets/left_highlight.png","37","",NA,NA,NA,NA,""
"image-keyboard-response",6,34905,"0.0-3.0-3.0","4suuw8p8jectvdv",580,"175.csv","","1719.7000000476837","resources/image_sets/mid_highlight.png","38","",NA,NA,NA,NA,""
"image-keyboard-response",7,36922,"0.0-3.0-4.0","4suuw8p8jectvdv",580,"175.csv","","2015.6999998092651","resources/image_sets/right_highlight.png","39","",NA,NA,NA,NA,""
"image-keyboard-response",8,39278,"0.0-3.0-5.0","4suuw8p8jectvdv",580,"175.csv","","2354.9000000953674","resources/image_sets/111.png","13","",NA,NA,NA,NA,""
"image-keyboard-response",9,42620,"0.0-3.0-6.0","4suuw8p8jectvdv",580,"175.csv","","3341.2000000476837","resources/images/coin2.png","13","",NA,NA,NA,NA,""
"image-keyboard-response",10,45102,"0.0-3.0-7.0","4suuw8p8jectvdv",580,"175.csv","","2481.2000000476837","resources/images/fishbone.png","13","",NA,NA,NA,NA,""
"html-keyboard-response",11,50116,"0.0-3.0-8.0","4suuw8p8jectvdv",580,"175.csv","","5012.900000095367","<p>You can track your coin total on the top right of your screen. </p><p>At the end of your journey you will be directed to a survey, so please click on the link before exiting the task</p><p>Press Enter to begin</p>","13","",NA,NA,NA,NA,""
"image-keyboard-response",12,52524,"0.0-4.0-0.0","4suuw8p8jectvdv",580,"175.csv","","2406.600000143051","resources/trios/L1T2A3.jpg","37","restless",0.7,0.9,0.3,0.156587497809749,"true"
"image-keyboard-response",13,52941,"0.0-4.0-1.0","4suuw8p8jectvdv",580,"175.csv","","null","resources/maskTrios/L1BB.jpg","null","",NA,NA,NA,NA,""
"image-keyboard-response",14,54148,"0.0-4.0-2.0","4suuw8p8jectvdv",580,"175.csv","","null","resources/images/coin2.png","null","",NA,NA,NA,NA,""
"image-keyboard-response",15,55123,"0.0-4.1-0.1","4suuw8p8jectvdv",580,"175.csv","","973.9000000953674","resources/trios/L1T2A3.jpg","37","restless",0.7,0.8,0.3,0.925619066106918,"false"
"image-keyboard-response",16,55531,"0.0-4.1-1.1","4suuw8p8jectvdv",580,"175.csv","","null","resources/maskTrios/L1BB.jpg","null","",NA,NA,NA,NA,""
"image-keyboard-response",17,56733,"0.0-4.1-2.1","4suuw8p8jectvdv",580,"175.csv","","null","resources/images/fishbone.png","null","",NA,NA,NA,NA,""
"image-keyboard-response",18,58691,"0.0-4.2-0.2","4suuw8p8jectvdv",580,"175.csv","","1957.1999998092651","resources/trios/L1T2A3.jpg","38","restless",0.7,0.8,0.3,0.699308029063828,"true"
"image-keyboard-response",19,59104,"0.0-4.2-1.2","4suuw8p8jectvdv",580,"175.csv","","null","resources/maskTrios/BT2B.jpg","null","",NA,NA,NA,NA,""
"image-keyboard-response",20,60322,"0.0-4.2-2.2","4suuw8p8jectvdv",580,"175.csv","","null","resources/images/coin2.png","null","",NA,NA,NA,NA,""
"image-keyboard-response",21,61120,"0.0-4.3-0.3","4suuw8p8jectvdv",580,"175.csv","","796.2999999523163","resources/trios/L1T2A3.jpg","39","restless",0.7,0.7,0.3,0.233309285121993,"true"
"image-keyboard-response",22,61536,"0.0-4.3-1.3","4suuw8p8jectvdv",580,"175.csv","","null","resources/maskTrios/BBA3.jpg","null","",NA,NA,NA,NA,""
"image-keyboard-response",23,62755,"0.0-4.3-2.3","4suuw8p8jectvdv",580,"175.csv","","null","resources/images/coin2.png","null","",NA,NA,NA,NA,""
"image-keyboard-response",24,63276,"0.0-4.4-0.4","4suuw8p8jectvdv",580,"175.csv","","519","resources/trios/L1T2A3.jpg","37","restless",0.7,0.7,0.3,0.443467849789478,"true"
"image-keyboard-response",25,63687,"0.0-4.4-1.4","4suuw8p8jectvdv",580,"175.csv","","null","resources/maskTrios/L1BB.jpg","null","",NA,NA,NA,NA,""
"image-keyboard-response",26,64906,"0.0-4.4-2.4","4suuw8p8jectvdv",580,"175.csv","","null","resources/images/coin2.png","null","",NA,NA,NA,NA,""
"image-keyboard-response",27,65302,"0.0-4.5-0.5","4suuw8p8jectvdv",580,"175.csv","","394.39999985694885","resources/trios/L1T2A3.jpg","38","restless",0.7,0.8,0.3,0.367782537835595,"true"
"image-keyboard-response",28,65715,"0.0-4.5-1.5","4suuw8p8jectvdv",580,"175.csv","","null","resources/maskTrios/BT2B.jpg","null","",NA,NA,NA,NA,""
"image-keyboard-response",29,66927,"0.0-4.5-2.5","4suuw8p8jectvdv",580,"175.csv","","null","resources/images/coin2.png","null","",NA,NA,NA,NA,""
"image-keyboard-response",30,67251,"0.0-4.6-0.6","4suuw8p8jectvdv",580,"175.csv","","321.89999985694885","resources/trios/L1T2A3.jpg","39","restless",0.8,0.8,0.3,0.688002992571946,"false"
"image-keyboard-response",31,67664,"0.0-4.6-1.6","4suuw8p8jectvdv",580,"175.csv","","null","resources/maskTrios/BBA3.jpg","null","",NA,NA,NA,NA,""
"image-keyboard-response",32,68879,"0.0-4.6-2.6","4suuw8p8jectvdv",580,"175.csv","","null","resources/images/fishbone.png","null","",NA,NA,NA,NA,""
"image-keyboard-response",33,69694,"0.0-4.7-0.7","4suuw8p8jectvdv",580,"175.csv","","813.5","resources/trios/L1T2A3.jpg","37","restless",0.8,0.8,0.3,0.67204566280122,"true"
"image-keyboard-response",34,70105,"0.0-4.7-1.7","4suuw8p8jectvdv",580,"175.csv","","null","resources/maskTrios/L1BB.jpg","null","",NA,NA,NA,NA,""
"image-keyboard-response",35,71334,"0.0-4.7-2.7","4suuw8p8jectvdv",580,"175.csv","","null","resources/images/coin2.png","null","",NA,NA,NA,NA,""
"image-keyboard-response",36,71713,"0.0-4.8-0.8","4suuw8p8jectvdv",580,"175.csv","","375.7000000476837","resources/trios/L1T2A3.jpg","38","restless",0.7,0.8,0.3,0.972892649260278,"false"
"image-keyboard-response",37,72116,"0.0-4.8-1.8","4suuw8p8jectvdv",580,"175.csv","","null","resources/maskTrios/BT2B.jpg","null","",NA,NA,NA,NA,""
"image-keyboard-response",38,73320,"0.0-4.8-2.8","4suuw8p8jectvdv",580,"175.csv","","null","resources/images/fishbone.png","null","",NA,NA,NA,NA,""
"image-keyboard-response",39,74005,"0.0-4.9-0.9","4suuw8p8jectvdv",580,"175.csv","","683.7999999523163","resources/trios/L1T2A3.jpg","39","restless",0.7,0.8,0.4,0.661194332300988,"false"
"image-keyboard-response",40,74412,"0.0-4.9-1.9","4suuw8p8jectvdv",580,"175.csv","","null","resources/maskTrios/BBA3.jpg","null","",NA,NA,NA,NA,""
"image-keyboard-response",41,75629,"0.0-4.9-2.9","4suuw8p8jectvdv",580,"175.csv","","null","resources/images/fishbone.png","null","",NA,NA,NA,NA,""
"image-keyboard-response",42,76028,"0.0-4.10-0.10","4suuw8p8jectvdv",580,"175.csv","","395.90000009536743","resources/trios/L1T2A3.jpg","37","restless",0.7,0.8,0.5,0.402376507789473,"true"
"image-keyboard-response",43,76440,"0.0-4.10-1.10","4suuw8p8jectvdv",580,"175.csv","","null","resources/maskTrios/L1BB.jpg","null","",NA,NA,NA,NA,""
"image-keyboard-response",44,77663,"0.0-4.10-2.10","4suuw8p8jectvdv",580,"175.csv","","null","resources/images/coin2.png","null","",NA,NA,NA,NA,""
"image-keyboard-response",45,78037,"0.0-4.11-0.11","4suuw8p8jectvdv",580,"175.csv","","372","resources/trios/L1T2A3.jpg","37","restless",0.7,0.7,0.5,0.724201872081106,"false"
"image-keyboard-response",46,78448,"0.0-4.11-1.11","4suuw8p8jectvdv",580,"175.csv","","null","resources/maskTrios/L1BB.jpg","null","",NA,NA,NA,NA,""
"image-keyboard-response",47,79664,"0.0-4.11-2.11","4suuw8p8jectvdv",580,"175.csv","","null","resources/images/fishbone.png","null","",NA,NA,NA,NA,""
"image-keyboard-response",48,79997,"0.0-4.12-0.12","4suuw8p8jectvdv",580,"175.csv","","329.89999985694885","resources/trios/L1T2A3.jpg","38","restless",0.7,0.7,0.5,0.452540859626728,"true"
"image-keyboard-response",49,80411,"0.0-4.12-1.12","4suuw8p8jectvdv",580,"175.csv","","null","resources/maskTrios/BT2B.jpg","null","",NA,NA,NA,NA,""
"image-keyboard-response",50,81624,"0.0-4.12-2.12","4suuw8p8jectvdv",580,"175.csv","","null","resources/images/coin2.png","null","",NA,NA,NA,NA,""
"image-keyboard-response",51,82518,"0.0-4.13-0.13","4suuw8p8jectvdv",580,"175.csv","","892.9000000953674","resources/trios/L1T2A3.jpg","38","restless",0.6,0.7,0.5,0.507905534695599,"true"
"image-keyboard-response",52,82930,"0.0-4.13-1.13","4suuw8p8jectvdv",580,"175.csv","","null","resources/maskTrios/BT2B.jpg","null","",NA,NA,NA,NA,""
"image-keyboard-response",53,84133,"0.0-4.13-2.13","4suuw8p8jectvdv",580,"175.csv","","null","resources/images/coin2.png","null","",NA,NA,NA,NA,""
"image-keyboard-response",54,84477,"0.0-4.14-0.14","4suuw8p8jectvdv",580,"175.csv","","342.7000000476837","resources/trios/L1T2A3.jpg","39","restless",0.6,0.7,0.5,0.73275446211167,"false"
"image-keyboard-response",55,84881,"0.0-4.14-1.14","4suuw8p8jectvdv",580,"175.csv","","null","resources/maskTrios/BBA3.jpg","null","",NA,NA,NA,NA,""
"image-keyboard-response",56,86094,"0.0-4.14-2.14","4suuw8p8jectvdv",580,"175.csv","","null","resources/images/fishbone.png","null","",NA,NA,NA,NA,""
"image-keyboard-response",57,86423,"0.0-4.15-0.15","4suuw8p8jectvdv",580,"175.csv","","325.5","resources/trios/L1T2A3.jpg","38","restless",0.6,0.7,0.5,0.146295878490733,"true"
"image-keyboard-response",58,86841,"0.0-4.15-1.15","4suuw8p8jectvdv",580,"175.csv","","null","resources/maskTrios/BT2B.jpg","null","",NA,NA,NA,NA,""
"image-keyboard-response",59,88055,"0.0-4.15-2.15","4suuw8p8jectvdv",580,"175.csv","","null","resources/images/coin2.png","null","",NA,NA,NA,NA,""
"image-keyboard-response",60,88722,"0.0-4.16-0.16","4suuw8p8jectvdv",580,"175.csv","","665.6999998092651","resources/trios/L1T2A3.jpg","38","restless",0.5,0.7,0.5,0.397861802105341,"true"
"image-keyboard-response",61,89125,"0.0-4.16-1.16","4suuw8p8jectvdv",580,"175.csv","","null","resources/maskTrios/BT2B.jpg","null","",NA,NA,NA,NA,""
"image-keyboard-response",62,90328,"0.0-4.16-2.16","4suuw8p8jectvdv",580,"175.csv","","null","resources/images/coin2.png","null","",NA,NA,NA,NA,""
"image-keyboard-response",63,90676,"0.0-4.17-0.17","4suuw8p8jectvdv",580,"175.csv","","345.7000000476837","resources/trios/L1T2A3.jpg","39","restless",0.5,0.7,0.5,0.355956874067577,"true"
"image-keyboard-response",64,91100,"0.0-4.17-1.17","4suuw8p8jectvdv",580,"175.csv","","null","resources/maskTrios/BBA3.jpg","null","",NA,NA,NA,NA,""
"image-keyboard-response",65,92310,"0.0-4.17-2.17","4suuw8p8jectvdv",580,"175.csv","","null","resources/images/coin2.png","null","",NA,NA,NA,NA,""
"image-keyboard-response",66,92635,"0.0-4.18-0.18","4suuw8p8jectvdv",580,"175.csv","","321.10000014305115","resources/trios/L1T2A3.jpg","39","restless",0.5,0.7,0.5,0.0341551218488745,"true"
"image-keyboard-response",67,93041,"0.0-4.18-1.18","4suuw8p8jectvdv",580,"175.csv","","null","resources/maskTrios/BBA3.jpg","null","",NA,NA,NA,NA,""
"image-keyboard-response",68,94256,"0.0-4.18-2.18","4suuw8p8jectvdv",580,"175.csv","","null","resources/images/coin2.png","null","",NA,NA,NA,NA,""
"image-keyboard-response",69,94640,"0.0-4.19-0.19","4suuw8p8jectvdv",580,"175.csv","","381.90000009536743","resources/trios/L1T2A3.jpg","39","restless",0.5,0.7,0.5,0.437454058142805,"true"
"image-keyboard-response",70,95053,"0.0-4.19-1.19","4suuw8p8jectvdv",580,"175.csv","","null","resources/maskTrios/BBA3.jpg","null","",NA,NA,NA,NA,""
"image-keyboard-response",71,96258,"0.0-4.19-2.19","4suuw8p8jectvdv",580,"175.csv","","null","resources/images/coin2.png","null","",NA,NA,NA,NA,""
"image-keyboard-response",72,96723,"0.0-4.20-0.20","4suuw8p8jectvdv",580,"175.csv","","463.09999990463257","resources/trios/L1T2A3.jpg","37","restless",0.5,0.7,0.5,0.293415603928633,"true"
"image-keyboard-response",73,97125,"0.0-4.20-1.20","4suuw8p8jectvdv",580,"175.csv","","null","resources/maskTrios/L1BB.jpg","null","",NA,NA,NA,NA,""
"image-keyboard-response",74,98329,"0.0-4.20-2.20","4suuw8p8jectvdv",580,"175.csv","","null","resources/images/coin2.png","null","",NA,NA,NA,NA,""
"image-keyboard-response",75,98646,"0.0-4.21-0.21","4suuw8p8jectvdv",580,"175.csv","","315.2999999523163","resources/trios/L1T2A3.jpg","37","restless",0.5,0.7,0.5,0.477120258718157,"true"
"image-keyboard-response",76,99050,"0.0-4.21-1.21","4suuw8p8jectvdv",580,"175.csv","","null","resources/maskTrios/L1BB.jpg","null","",NA,NA,NA,NA,""
"image-keyboard-response",77,100269,"0.0-4.21-2.21","4suuw8p8jectvdv",580,"175.csv","","null","resources/images/coin2.png","null","",NA,NA,NA,NA,""
"image-keyboard-response",78,100613,"0.0-4.22-0.22","4suuw8p8jectvdv",580,"175.csv","","342.7000000476837","resources/trios/L1T2A3.jpg","37","restless",0.5,0.6,0.6,0.616887210737456,"false"
"image-keyboard-response",79,101027,"0.0-4.22-1.22","4suuw8p8jectvdv",580,"175.csv","","null","resources/maskTrios/L1BB.jpg","null","",NA,NA,NA,NA,""
"image-keyboard-response",80,102231,"0.0-4.22-2.22","4suuw8p8jectvdv",580,"175.csv","","null","resources/images/fishbone.png","null","",NA,NA,NA,NA,""
"image-keyboard-response",81,102664,"0.0-4.23-0.23","4suuw8p8jectvdv",580,"175.csv","","431","resources/trios/L1T2A3.jpg","38","restless",0.5,0.6,0.6,0.438105023554215,"true"
"image-keyboard-response",82,103070,"0.0-4.23-1.23","4suuw8p8jectvdv",580,"175.csv","","null","resources/maskTrios/BT2B.jpg","null","",NA,NA,NA,NA,""
"image-keyboard-response",83,104289,"0.0-4.23-2.23","4suuw8p8jectvdv",580,"175.csv","","null","resources/images/coin2.png","null","",NA,NA,NA,NA,""
"image-keyboard-response",84,104586,"0.0-4.24-0.24","4suuw8p8jectvdv",580,"175.csv","","295.60000014305115","resources/trios/L1T2A3.jpg","38","restless",0.5,0.6,0.6,0.675711936967498,"false"
"image-keyboard-response",85,104997,"0.0-4.24-1.24","4suuw8p8jectvdv",580,"175.csv","","null","resources/maskTrios/BT2B.jpg","null","",NA,NA,NA,NA,""
"image-keyboard-response",86,106204,"0.0-4.24-2.24","4suuw8p8jectvdv",580,"175.csv","","null","resources/images/fishbone.png","null","",NA,NA,NA,NA,""
"image-keyboard-response",87,106799,"0.0-4.25-0.25","4suuw8p8jectvdv",580,"175.csv","","593.2000000476837","resources/trios/L1T2A3.jpg","39","restless",0.5,0.6,0.6,0.418764182224665,"true"
"image-keyboard-response",88,107217,"0.0-4.25-1.25","4suuw8p8jectvdv",580,"175.csv","","null","resources/maskTrios/BBA3.jpg","null","",NA,NA,NA,NA,""
"image-keyboard-response",89,108420,"0.0-4.25-2.25","4suuw8p8jectvdv",580,"175.csv","","null","resources/images/coin2.png","null","",NA,NA,NA,NA,""
"image-keyboard-response",90,109144,"0.0-4.26-0.26","4suuw8p8jectvdv",580,"175.csv","","721.5","resources/trios/L1T2A3.jpg","37","restless",0.5,0.6,0.6,0.946279677013416,"false"
"image-keyboard-response",91,109557,"0.0-4.26-1.26","4suuw8p8jectvdv",580,"175.csv","","null","resources/maskTrios/L1BB.jpg","null","",NA,NA,NA,NA,""
"image-keyboard-response",92,110773,"0.0-4.26-2.26","4suuw8p8jectvdv",580,"175.csv","","null","resources/images/fishbone.png","null","",NA,NA,NA,NA,""
"image-keyboard-response",93,111062,"0.0-4.27-0.27","4suuw8p8jectvdv",580,"175.csv","","286.5","resources/trios/L1T2A3.jpg","38","restless",0.4,0.6,0.6,0.0352529625638869,"true"
"image-keyboard-response",94,111477,"0.0-4.27-1.27","4suuw8p8jectvdv",580,"175.csv","","null","resources/maskTrios/BT2B.jpg","null","",NA,NA,NA,NA,""
"image-keyboard-response",95,112695,"0.0-4.27-2.27","4suuw8p8jectvdv",580,"175.csv","","null","resources/images/coin2.png","null","",NA,NA,NA,NA,""
"image-keyboard-response",96,112939,"0.0-4.28-0.28","4suuw8p8jectvdv",580,"175.csv","","242.29999995231628","resources/trios/L1T2A3.jpg","38","restless",0.4,0.5,0.6,0.595204581802617,"false"
"image-keyboard-response",97,113348,"0.0-4.28-1.28","4suuw8p8jectvdv",580,"175.csv","","null","resources/maskTrios/BT2B.jpg","null","",NA,NA,NA,NA,""
"image-keyboard-response",98,114564,"0.0-4.28-2.28","4suuw8p8jectvdv",580,"175.csv","","null","resources/images/fishbone.png","null","",NA,NA,NA,NA,""
"image-keyboard-response",99,115008,"0.0-4.29-0.29","4suuw8p8jectvdv",580,"175.csv","","442.80000019073486","resources/trios/L1T2A3.jpg","39","restless",0.4,0.5,0.6,0.926655339495298,"false"
"image-keyboard-response",100,115418,"0.0-4.29-1.29","4suuw8p8jectvdv",580,"175.csv","","null","resources/maskTrios/BBA3.jpg","null","",NA,NA,NA,NA,""
"image-keyboard-response",101,116622,"0.0-4.29-2.29","4suuw8p8jectvdv",580,"175.csv","","null","resources/images/fishbone.png","null","",NA,NA,NA,NA,""
"image-keyboard-response",102,116974,"0.0-4.30-0.30","4suuw8p8jectvdv",580,"175.csv","","350.09999990463257","resources/trios/L1T2A3.jpg","37","restless",0.4,0.5,0.7,0.561071982733027,"false"
"image-keyboard-response",103,117383,"0.0-4.30-1.30","4suuw8p8jectvdv",580,"175.csv","","null","resources/maskTrios/L1BB.jpg","null","",NA,NA,NA,NA,""
"image-keyboard-response",104,118585,"0.0-4.30-2.30","4suuw8p8jectvdv",580,"175.csv","","null","resources/images/fishbone.png","null","",NA,NA,NA,NA,""
"image-keyboard-response",105,118986,"0.0-4.31-0.31","4suuw8p8jectvdv",580,"175.csv","","398.7999999523163","resources/trios/L1T2A3.jpg","38","restless",0.4,0.4,0.8,0.473121203211002,"false"
"image-keyboard-response",106,119399,"0.0-4.31-1.31","4suuw8p8jectvdv",580,"175.csv","","null","resources/maskTrios/BT2B.jpg","null","",NA,NA,NA,NA,""
"image-keyboard-response",107,120607,"0.0-4.31-2.31","4suuw8p8jectvdv",580,"175.csv","","null","resources/images/fishbone.png","null","",NA,NA,NA,NA,""
"image-keyboard-response",108,121026,"0.0-4.32-0.32","4suuw8p8jectvdv",580,"175.csv","","417.2000000476837","resources/trios/L1T2A3.jpg","39","restless",0.4,0.4,0.9,0.971604382883813,"false"
"image-keyboard-response",109,121433,"0.0-4.32-1.32","4suuw8p8jectvdv",580,"175.csv","","null","resources/maskTrios/BBA3.jpg","null","",NA,NA,NA,NA,""
"image-keyboard-response",110,122637,"0.0-4.32-2.32","4suuw8p8jectvdv",580,"175.csv","","null","resources/images/fishbone.png","null","",NA,NA,NA,NA,""
"image-keyboard-response",111,123056,"0.0-4.33-0.33","4suuw8p8jectvdv",580,"175.csv","","418.5","resources/trios/L1T2A3.jpg","39","restless",0.4,0.3,0.9,0.852487274924584,"true"
"image-keyboard-response",112,123465,"0.0-4.33-1.33","4suuw8p8jectvdv",580,"175.csv","","null","resources/maskTrios/BBA3.jpg","null","",NA,NA,NA,NA,""
"image-keyboard-response",113,124671,"0.0-4.33-2.33","4suuw8p8jectvdv",580,"175.csv","","null","resources/images/coin2.png","null","",NA,NA,NA,NA,""
"image-keyboard-response",114,125412,"0.0-4.34-0.34","4suuw8p8jectvdv",580,"175.csv","","738.0999999046326","resources/trios/L1T2A3.jpg","39","restless",0.4,0.3,0.9,0.501095062357373,"true"
"image-keyboard-response",115,125826,"0.0-4.34-1.34","4suuw8p8jectvdv",580,"175.csv","","null","resources/maskTrios/BBA3.jpg","null","",NA,NA,NA,NA,""
"image-keyboard-response",116,127030,"0.0-4.34-2.34","4suuw8p8jectvdv",580,"175.csv","","null","resources/images/coin2.png","null","",NA,NA,NA,NA,""
"image-keyboard-response",117,127542,"0.0-4.35-0.35","4suuw8p8jectvdv",580,"175.csv","","510.10000014305115","resources/trios/L1T2A3.jpg","39","restless",0.4,0.3,0.9,0.732692095434706,"true"
"image-keyboard-response",118,127961,"0.0-4.35-1.35","4suuw8p8jectvdv",580,"175.csv","","null","resources/maskTrios/BBA3.jpg","null","",NA,NA,NA,NA,""
"image-keyboard-response",119,129166,"0.0-4.35-2.35","4suuw8p8jectvdv",580,"175.csv","","null","resources/images/coin2.png","null","",NA,NA,NA,NA,""
"image-keyboard-response",120,130161,"0.0-4.36-0.36","4suuw8p8jectvdv",580,"175.csv","","993.4000000953674","resources/trios/L1T2A3.jpg","38","restless",0.5,0.3,0.9,0.0962537985324805,"true"
"image-keyboard-response",121,130565,"0.0-4.36-1.36","4suuw8p8jectvdv",580,"175.csv","","null","resources/maskTrios/BT2B.jpg","null","",NA,NA,NA,NA,""
"image-keyboard-response",122,131770,"0.0-4.36-2.36","4suuw8p8jectvdv",580,"175.csv","","null","resources/images/coin2.png","null","",NA,NA,NA,NA,""
"image-keyboard-response",123,132319,"0.0-4.37-0.37","4suuw8p8jectvdv",580,"175.csv","","546.7000000476837","resources/trios/L1T2A3.jpg","38","restless",0.5,0.3,0.9,0.640525574441891,"false"
"image-keyboard-response",124,132738,"0.0-4.37-1.37","4suuw8p8jectvdv",580,"175.csv","","null","resources/maskTrios/BT2B.jpg","null","",NA,NA,NA,NA,""
"image-keyboard-response",125,133956,"0.0-4.37-2.37","4suuw8p8jectvdv",580,"175.csv","","null","resources/images/fishbone.png","null","",NA,NA,NA,NA,""
"image-keyboard-response",126,134337,"0.0-4.38-0.38","4suuw8p8jectvdv",580,"175.csv","","379.60000014305115","resources/trios/L1T2A3.jpg","37","restless",0.5,0.3,0.9,0.069058463816797,"true"
"image-keyboard-response",127,134743,"0.0-4.38-1.38","4suuw8p8jectvdv",580,"175.csv","","null","resources/maskTrios/L1BB.jpg","null","",NA,NA,NA,NA,""
"image-keyboard-response",128,135962,"0.0-4.38-2.38","4suuw8p8jectvdv",580,"175.csv","","null","resources/images/coin2.png","null","",NA,NA,NA,NA,""
"image-keyboard-response",129,136319,"0.0-4.39-0.39","4suuw8p8jectvdv",580,"175.csv","","355.40000009536743","resources/trios/L1T2A3.jpg","37","restless",0.5,0.3,0.9,0.221517031418232,"true"
"image-keyboard-response",130,136729,"0.0-4.39-1.39","4suuw8p8jectvdv",580,"175.csv","","null","resources/maskTrios/L1BB.jpg","null","",NA,NA,NA,NA,""
"image-keyboard-response",131,137942,"0.0-4.39-2.39","4suuw8p8jectvdv",580,"175.csv","","null","resources/images/coin2.png","null","",NA,NA,NA,NA,""
"image-keyboard-response",132,138387,"0.0-4.40-0.40","4suuw8p8jectvdv",580,"175.csv","","443.40000009536743","resources/trios/L1T2A3.jpg","37","restless",0.5,0.3,0.9,0.134953641049591,"true"
"image-keyboard-response",133,138801,"0.0-4.40-1.40","4suuw8p8jectvdv",580,"175.csv","","null","resources/maskTrios/L1BB.jpg","null","",NA,NA,NA,NA,""
"image-keyboard-response",134,140006,"0.0-4.40-2.40","4suuw8p8jectvdv",580,"175.csv","","null","resources/images/coin2.png","null","",NA,NA,NA,NA,""
"image-keyboard-response",135,140298,"0.0-4.41-0.41","4suuw8p8jectvdv",580,"175.csv","","290.7999999523163","resources/trios/L1T2A3.jpg","37","restless",0.5,0.3,0.8,0.6872717670297,"false"
"image-keyboard-response",136,140707,"0.0-4.41-1.41","4suuw8p8jectvdv",580,"175.csv","","null","resources/maskTrios/L1BB.jpg","null","",NA,NA,NA,NA,""
"image-keyboard-response",137,141912,"0.0-4.41-2.41","4suuw8p8jectvdv",580,"175.csv","","null","resources/images/fishbone.png","null","",NA,NA,NA,NA,""
"image-keyboard-response",138,142390,"0.0-4.42-0.42","4suuw8p8jectvdv",580,"175.csv","","476.5","resources/trios/L1T2A3.jpg","39","restless",0.5,0.3,0.8,0.321116708166936,"true"
"image-keyboard-response",139,142826,"0.0-4.42-1.42","4suuw8p8jectvdv",580,"175.csv","","null","resources/maskTrios/BBA3.jpg","null","",NA,NA,NA,NA,""
"image-keyboard-response",140,144038,"0.0-4.42-2.42","4suuw8p8jectvdv",580,"175.csv","","null","resources/images/coin2.png","null","",NA,NA,NA,NA,""
"image-keyboard-response",141,144450,"0.0-4.43-0.43","4suuw8p8jectvdv",580,"175.csv","","410.5","resources/trios/L1T2A3.jpg","39","restless",0.5,0.3,0.8,0.300540697618926,"true"
"image-keyboard-response",142,144857,"0.0-4.43-1.43","4suuw8p8jectvdv",580,"175.csv","","null","resources/maskTrios/BBA3.jpg","null","",NA,NA,NA,NA,""
"image-keyboard-response",143,146061,"0.0-4.43-2.43","4suuw8p8jectvdv",580,"175.csv","","null","resources/images/coin2.png","null","",NA,NA,NA,NA,""
"image-keyboard-response",144,146472,"0.0-4.44-0.44","4suuw8p8jectvdv",580,"175.csv","","408.40000009536743","resources/trios/L1T2A3.jpg","39","restless",0.5,0.2,0.7,0.755564833001321,"false"
"image-keyboard-response",145,146889,"0.0-4.44-1.44","4suuw8p8jectvdv",580,"175.csv","","null","resources/maskTrios/BBA3.jpg","null","",NA,NA,NA,NA,""
"image-keyboard-response",146,148097,"0.0-4.44-2.44","4suuw8p8jectvdv",580,"175.csv","","null","resources/images/fishbone.png","null","",NA,NA,NA,NA,""
"image-keyboard-response",147,148567,"0.0-4.45-0.45","4suuw8p8jectvdv",580,"175.csv","","466.7000000476837","resources/trios/L1T2A3.jpg","38","restless",0.5,0.2,0.7,0.215833207494491,"false"
"image-keyboard-response",148,148987,"0.0-4.45-1.45","4suuw8p8jectvdv",580,"175.csv","","null","resources/maskTrios/BT2B.jpg","null","",NA,NA,NA,NA,""
"image-keyboard-response",149,150203,"0.0-4.45-2.45","4suuw8p8jectvdv",580,"175.csv","","null","resources/images/fishbone.png","null","",NA,NA,NA,NA,""
"image-keyboard-response",150,150504,"0.0-4.46-0.46","4suuw8p8jectvdv",580,"175.csv","","299.89999985694885","resources/trios/L1T2A3.jpg","37","restless",0.5,0.3,0.7,0.687325410781548,"false"
"image-keyboard-response",151,150907,"0.0-4.46-1.46","4suuw8p8jectvdv",580,"175.csv","","null","resources/maskTrios/L1BB.jpg","null","",NA,NA,NA,NA,""
"image-keyboard-response",152,152123,"0.0-4.46-2.46","4suuw8p8jectvdv",580,"175.csv","","null","resources/images/fishbone.png","null","",NA,NA,NA,NA,""
"image-keyboard-response",153,152395,"0.0-4.47-0.47","4suuw8p8jectvdv",580,"175.csv","","270.40000009536743","resources/trios/L1T2A3.jpg","39","restless",0.5,0.3,0.7,0.0746958164061244,"true"
"image-keyboard-response",154,152802,"0.0-4.47-1.47","4suuw8p8jectvdv",580,"175.csv","","null","resources/maskTrios/BBA3.jpg","null","",NA,NA,NA,NA,""
"image-keyboard-response",155,154015,"0.0-4.47-2.47","4suuw8p8jectvdv",580,"175.csv","","null","resources/images/coin2.png","null","",NA,NA,NA,NA,""
"image-keyboard-response",156,154330,"0.0-4.48-0.48","4suuw8p8jectvdv",580,"175.csv","","313.2000000476837","resources/trios/L1T2A3.jpg","39","restless",0.5,0.3,0.7,0.294928087450278,"true"
"image-keyboard-response",157,154734,"0.0-4.48-1.48","4suuw8p8jectvdv",580,"175.csv","","null","resources/maskTrios/BBA3.jpg","null","",NA,NA,NA,NA,""
"image-keyboard-response",158,155951,"0.0-4.48-2.48","4suuw8p8jectvdv",580,"175.csv","","null","resources/images/coin2.png","null","",NA,NA,NA,NA,""
"image-keyboard-response",159,156447,"0.0-4.49-0.49","4suuw8p8jectvdv",580,"175.csv","","494.59999990463257","resources/trios/L1T2A3.jpg","39","restless",0.5,0.3,0.6,0.827326360812316,"false"
"image-keyboard-response",160,156859,"0.0-4.49-1.49","4suuw8p8jectvdv",580,"175.csv","","null","resources/maskTrios/BBA3.jpg","null","",NA,NA,NA,NA,""
"image-keyboard-response",161,158082,"0.0-4.49-2.49","4suuw8p8jectvdv",580,"175.csv","","null","resources/images/fishbone.png","null","",NA,NA,NA,NA,""
"image-keyboard-response",162,158567,"0.0-4.50-0.50","4suuw8p8jectvdv",580,"175.csv","","484.59999990463257","resources/trios/L1T2A3.jpg","38","restless",0.5,0.3,0.6,0.396627189711106,"false"
"image-keyboard-response",163,158982,"0.0-4.50-1.50","4suuw8p8jectvdv",580,"175.csv","","null","resources/maskTrios/BT2B.jpg","null","",NA,NA,NA,NA,""
"image-keyboard-response",164,160197,"0.0-4.50-2.50","4suuw8p8jectvdv",580,"175.csv","","null","resources/images/fishbone.png","null","",NA,NA,NA,NA,""
"image-keyboard-response",165,160487,"0.0-4.51-0.51","4suuw8p8jectvdv",580,"175.csv","","289","resources/trios/L1T2A3.jpg","37","restless",0.5,0.4,0.6,0.847189104981029,"false"
"image-keyboard-response",166,160894,"0.0-4.51-1.51","4suuw8p8jectvdv",580,"175.csv","","null","resources/maskTrios/L1BB.jpg","null","",NA,NA,NA,NA,""
"image-keyboard-response",167,162097,"0.0-4.51-2.51","4suuw8p8jectvdv",580,"175.csv","","null","resources/images/fishbone.png","null","",NA,NA,NA,NA,""
"image-keyboard-response",168,162391,"0.0-4.52-0.52","4suuw8p8jectvdv",580,"175.csv","","292.10000014305115","resources/trios/L1T2A3.jpg","37","restless",0.5,0.4,0.6,0.580310644270023,"false"
"image-keyboard-response",169,162809,"0.0-4.52-1.52","4suuw8p8jectvdv",580,"175.csv","","null","resources/maskTrios/L1BB.jpg","null","",NA,NA,NA,NA,""
"image-keyboard-response",170,164015,"0.0-4.52-2.52","4suuw8p8jectvdv",580,"175.csv","","null","resources/images/fishbone.png","null","",NA,NA,NA,NA,""
"image-keyboard-response",171,164452,"0.0-4.53-0.53","4suuw8p8jectvdv",580,"175.csv","","435.5","resources/trios/L1T2A3.jpg","39","restless",0.5,0.4,0.6,0.0947576157806265,"true"
"image-keyboard-response",172,164856,"0.0-4.53-1.53","4suuw8p8jectvdv",580,"175.csv","","null","resources/maskTrios/BBA3.jpg","null","",NA,NA,NA,NA,""
"image-keyboard-response",173,166063,"0.0-4.53-2.53","4suuw8p8jectvdv",580,"175.csv","","null","resources/images/coin2.png","null","",NA,NA,NA,NA,""
"image-keyboard-response",174,166631,"0.0-4.54-0.54","4suuw8p8jectvdv",580,"175.csv","","564.4000000953674","resources/trios/L1T2A3.jpg","39","restless",0.5,0.4,0.6,0.0604679088956908,"true"
"image-keyboard-response",175,167045,"0.0-4.54-1.54","4suuw8p8jectvdv",580,"175.csv","","null","resources/maskTrios/BBA3.jpg","null","",NA,NA,NA,NA,""
"image-keyboard-response",176,168259,"0.0-4.54-2.54","4suuw8p8jectvdv",580,"175.csv","","null","resources/images/coin2.png","null","",NA,NA,NA,NA,""
"image-keyboard-response",177,168733,"0.0-4.55-0.55","4suuw8p8jectvdv",580,"175.csv","","472.40000009536743","resources/trios/L1T2A3.jpg","39","restless",0.5,0.4,0.7,0.44064194826005,"true"
"image-keyboard-response",178,169148,"0.0-4.55-1.55","4suuw8p8jectvdv",580,"175.csv","","null","resources/maskTrios/BBA3.jpg","null","",NA,NA,NA,NA,""
"image-keyboard-response",179,170366,"0.0-4.55-2.55","4suuw8p8jectvdv",580,"175.csv","","null","resources/images/coin2.png","null","",NA,NA,NA,NA,""
"image-keyboard-response",180,170782,"0.0-4.56-0.56","4suuw8p8jectvdv",580,"175.csv","","413.69999980926514","resources/trios/L1T2A3.jpg","39","restless",0.5,0.4,0.7,0.825088225436622,"false"
"image-keyboard-response",181,171191,"0.0-4.56-1.56","4suuw8p8jectvdv",580,"175.csv","","null","resources/maskTrios/BBA3.jpg","null","",NA,NA,NA,NA,""
"image-keyboard-response",182,172397,"0.0-4.56-2.56","4suuw8p8jectvdv",580,"175.csv","","null","resources/images/fishbone.png","null","",NA,NA,NA,NA,""
"image-keyboard-response",183,172740,"0.0-4.57-0.57","4suuw8p8jectvdv",580,"175.csv","","340.89999985694885","resources/trios/L1T2A3.jpg","39","restless",0.5,0.4,0.7,0.304244380282604,"true"
"image-keyboard-response",184,173143,"0.0-4.57-1.57","4suuw8p8jectvdv",580,"175.csv","","null","resources/maskTrios/BBA3.jpg","null","",NA,NA,NA,NA,""
"image-keyboard-response",185,174348,"0.0-4.57-2.57","4suuw8p8jectvdv",580,"175.csv","","null","resources/images/coin2.png","null","",NA,NA,NA,NA,""
"image-keyboard-response",186,174810,"0.0-4.58-0.58","4suuw8p8jectvdv",580,"175.csv","","459.39999985694885","resources/trios/L1T2A3.jpg","39","restless",0.5,0.4,0.8,0.580684907730938,"true"
"image-keyboard-response",187,175226,"0.0-4.58-1.58","4suuw8p8jectvdv",580,"175.csv","","null","resources/maskTrios/BBA3.jpg","null","",NA,NA,NA,NA,""
"image-keyboard-response",188,176430,"0.0-4.58-2.58","4suuw8p8jectvdv",580,"175.csv","","null","resources/images/coin2.png","null","",NA,NA,NA,NA,""
"image-keyboard-response",189,176935,"0.0-4.59-0.59","4suuw8p8jectvdv",580,"175.csv","","501.39999985694885","resources/trios/L1T2A3.jpg","39","restless",0.5,0.4,0.8,0.867741166840149,"false"
"image-keyboard-response",190,177351,"0.0-4.59-1.59","4suuw8p8jectvdv",580,"175.csv","","null","resources/maskTrios/BBA3.jpg","null","",NA,NA,NA,NA,""
"image-keyboard-response",191,178558,"0.0-4.59-2.59","4suuw8p8jectvdv",580,"175.csv","","null","resources/images/fishbone.png","null","",NA,NA,NA,NA,""
"image-keyboard-response",192,179005,"0.0-4.60-0.60","4suuw8p8jectvdv",580,"175.csv","","446.40000009536743","resources/trios/L1T2A3.jpg","38","restless",0.5,0.4,0.8,0.066767727614488,"true"
"image-keyboard-response",193,179416,"0.0-4.60-1.60","4suuw8p8jectvdv",580,"175.csv","","null","resources/maskTrios/BT2B.jpg","null","",NA,NA,NA,NA,""
"image-keyboard-response",194,180632,"0.0-4.60-2.60","4suuw8p8jectvdv",580,"175.csv","","null","resources/images/coin2.png","null","",NA,NA,NA,NA,""
"image-keyboard-response",195,180933,"0.0-4.61-0.61","4suuw8p8jectvdv",580,"175.csv","","299.59999990463257","resources/trios/L1T2A3.jpg","38","restless",0.5,0.4,0.8,0.534733726170689,"false"
"image-keyboard-response",196,181347,"0.0-4.61-1.61","4suuw8p8jectvdv",580,"175.csv","","null","resources/maskTrios/BT2B.jpg","null","",NA,NA,NA,NA,""
"image-keyboard-response",197,182564,"0.0-4.61-2.61","4suuw8p8jectvdv",580,"175.csv","","null","resources/images/fishbone.png","null","",NA,NA,NA,NA,""
"image-keyboard-response",198,183052,"0.0-4.62-0.62","4suuw8p8jectvdv",580,"175.csv","","485.09999990463257","resources/trios/L1T2A3.jpg","39","restless",0.5,0.4,0.8,0.563741381342035,"true"
"image-keyboard-response",199,183458,"0.0-4.62-1.62","4suuw8p8jectvdv",580,"175.csv","","null","resources/maskTrios/BBA3.jpg","null","",NA,NA,NA,NA,""
"image-keyboard-response",200,184673,"0.0-4.62-2.62","4suuw8p8jectvdv",580,"175.csv","","null","resources/images/coin2.png","null","",NA,NA,NA,NA,""
"image-keyboard-response",201,185050,"0.0-4.63-0.63","4suuw8p8jectvdv",580,"175.csv","","374.5","resources/trios/L1T2A3.jpg","39","restless",0.5,0.4,0.8,0.837462491276614,"false"
"image-keyboard-response",202,185467,"0.0-4.63-1.63","4suuw8p8jectvdv",580,"175.csv","","null","resources/maskTrios/BBA3.jpg","null","",NA,NA,NA,NA,""
"image-keyboard-response",203,186679,"0.0-4.63-2.63","4suuw8p8jectvdv",580,"175.csv","","null","resources/images/fishbone.png","null","",NA,NA,NA,NA,""
"image-keyboard-response",204,187037,"0.0-4.64-0.64","4suuw8p8jectvdv",580,"175.csv","","357.2000000476837","resources/trios/L1T2A3.jpg","39","restless",0.6,0.4,0.8,0.185433008428161,"true"
"image-keyboard-response",205,187450,"0.0-4.64-1.64","4suuw8p8jectvdv",580,"175.csv","","null","resources/maskTrios/BBA3.jpg","null","",NA,NA,NA,NA,""
"image-keyboard-response",206,188659,"0.0-4.64-2.64","4suuw8p8jectvdv",580,"175.csv","","null","resources/images/coin2.png","null","",NA,NA,NA,NA,""
"image-keyboard-response",207,189062,"0.0-4.65-0.65","4suuw8p8jectvdv",580,"175.csv","","401.40000009536743","resources/trios/L1T2A3.jpg","39","restless",0.6,0.4,0.7,0.289860338178374,"true"
"image-keyboard-response",208,189466,"0.0-4.65-1.65","4suuw8p8jectvdv",580,"175.csv","","null","resources/maskTrios/BBA3.jpg","null","",NA,NA,NA,NA,""
"image-keyboard-response",209,190681,"0.0-4.65-2.65","4suuw8p8jectvdv",580,"175.csv","","null","resources/images/coin2.png","null","",NA,NA,NA,NA,""
"image-keyboard-response",210,191134,"0.0-4.66-0.66","4suuw8p8jectvdv",580,"175.csv","","450.90000009536743","resources/trios/L1T2A3.jpg","39","restless",0.6,0.4,0.7,0.151364132719338,"true"
"image-keyboard-response",211,191539,"0.0-4.66-1.66","4suuw8p8jectvdv",580,"175.csv","","null","resources/maskTrios/BBA3.jpg","null","",NA,NA,NA,NA,""
"image-keyboard-response",212,192744,"0.0-4.66-2.66","4suuw8p8jectvdv",580,"175.csv","","null","resources/images/coin2.png","null","",NA,NA,NA,NA,""
"image-keyboard-response",213,193114,"0.0-4.67-0.67","4suuw8p8jectvdv",580,"175.csv","","367.7999999523163","resources/trios/L1T2A3.jpg","37","restless",0.6,0.4,0.7,0.0969708481576954,"true"
"image-keyboard-response",214,193523,"0.0-4.67-1.67","4suuw8p8jectvdv",580,"175.csv","","null","resources/maskTrios/L1BB.jpg","null","",NA,NA,NA,NA,""
"image-keyboard-response",215,194736,"0.0-4.67-2.67","4suuw8p8jectvdv",580,"175.csv","","null","resources/images/coin2.png","null","",NA,NA,NA,NA,""
"image-keyboard-response",216,195130,"0.0-4.68-0.68","4suuw8p8jectvdv",580,"175.csv","","391.7000000476837","resources/trios/L1T2A3.jpg","38","restless",0.6,0.4,0.7,0.796973762755474,"false"
"image-keyboard-response",217,195532,"0.0-4.68-1.68","4suuw8p8jectvdv",580,"175.csv","","null","resources/maskTrios/BT2B.jpg","null","",NA,NA,NA,NA,""
"image-keyboard-response",218,196747,"0.0-4.68-2.68","4suuw8p8jectvdv",580,"175.csv","","null","resources/images/fishbone.png","null","",NA,NA,NA,NA,""
"image-keyboard-response",219,197157,"0.0-4.69-0.69","4suuw8p8jectvdv",580,"175.csv","","408.39999985694885","resources/trios/L1T2A3.jpg","39","restless",0.5,0.4,0.7,0.476747490729395,"true"
"image-keyboard-response",220,197575,"0.0-4.69-1.69","4suuw8p8jectvdv",580,"175.csv","","null","resources/maskTrios/BBA3.jpg","null","",NA,NA,NA,NA,""
"image-keyboard-response",221,198796,"0.0-4.69-2.69","4suuw8p8jectvdv",580,"175.csv","","null","resources/images/coin2.png","null","",NA,NA,NA,NA,""
"image-keyboard-response",222,199134,"0.0-4.70-0.70","4suuw8p8jectvdv",580,"175.csv","","337.40000009536743","resources/trios/L1T2A3.jpg","37","restless",0.5,0.4,0.7,0.743110831873602,"false"
"image-keyboard-response",223,199538,"0.0-4.70-1.70","4suuw8p8jectvdv",580,"175.csv","","null","resources/maskTrios/L1BB.jpg","null","",NA,NA,NA,NA,""
"image-keyboard-response",224,200755,"0.0-4.70-2.70","4suuw8p8jectvdv",580,"175.csv","","null","resources/images/fishbone.png","null","",NA,NA,NA,NA,""
"image-keyboard-response",225,201043,"0.0-4.71-0.71","4suuw8p8jectvdv",580,"175.csv","","286.2999999523163","resources/trios/L1T2A3.jpg","39","restless",0.5,0.4,0.7,0.966839001790439,"false"
"image-keyboard-response",226,201456,"0.0-4.71-1.71","4suuw8p8jectvdv",580,"175.csv","","null","resources/maskTrios/BBA3.jpg","null","",NA,NA,NA,NA,""
"image-keyboard-response",227,202672,"0.0-4.71-2.71","4suuw8p8jectvdv",580,"175.csv","","null","resources/images/fishbone.png","null","",NA,NA,NA,NA,""
"image-keyboard-response",228,203026,"0.0-4.72-0.72","4suuw8p8jectvdv",580,"175.csv","","351.90000009536743","resources/trios/L1T2A3.jpg","38","restless",0.5,0.4,0.7,0.431783663634075,"false"
"image-keyboard-response",229,203432,"0.0-4.72-1.72","4suuw8p8jectvdv",580,"175.csv","","null","resources/maskTrios/BT2B.jpg","null","",NA,NA,NA,NA,""
"image-keyboard-response",230,204647,"0.0-4.72-2.72","4suuw8p8jectvdv",580,"175.csv","","null","resources/images/fishbone.png","null","",NA,NA,NA,NA,""
"image-keyboard-response",231,205076,"0.0-4.73-0.73","4suuw8p8jectvdv",580,"175.csv","","425.5","resources/trios/L1T2A3.jpg","39","restless",0.6,0.4,0.7,0.366749659065338,"true"
"image-keyboard-response",232,205490,"0.0-4.73-1.73","4suuw8p8jectvdv",580,"175.csv","","null","resources/maskTrios/BBA3.jpg","null","",NA,NA,NA,NA,""
"image-keyboard-response",233,206693,"0.0-4.73-2.73","4suuw8p8jectvdv",580,"175.csv","","null","resources/images/coin2.png","null","",NA,NA,NA,NA,""
"image-keyboard-response",234,207006,"0.0-4.74-0.74","4suuw8p8jectvdv",580,"175.csv","","312","resources/trios/L1T2A3.jpg","39","restless",0.6,0.4,0.7,0.641754450660951,"true"
"image-keyboard-response",235,207413,"0.0-4.74-1.74","4suuw8p8jectvdv",580,"175.csv","","null","resources/maskTrios/BBA3.jpg","null","",NA,NA,NA,NA,""
"image-keyboard-response",236,208616,"0.0-4.74-2.74","4suuw8p8jectvdv",580,"175.csv","","null","resources/images/coin2.png","null","",NA,NA,NA,NA,""
"image-keyboard-response",237,208979,"0.0-4.75-0.75","4suuw8p8jectvdv",580,"175.csv","","362.2000000476837","resources/trios/L1T2A3.jpg","39","restless",0.6,0.4,0.7,0.80985175294769,"false"
"image-keyboard-response",238,209399,"0.0-4.75-1.75","4suuw8p8jectvdv",580,"175.csv","","null","resources/maskTrios/BBA3.jpg","null","",NA,NA,NA,NA,""
"image-keyboard-response",239,210601,"0.0-4.75-2.75","4suuw8p8jectvdv",580,"175.csv","","null","resources/images/fishbone.png","null","",NA,NA,NA,NA,""
"image-keyboard-response",240,210990,"0.0-4.76-0.76","4suuw8p8jectvdv",580,"175.csv","","387.09999990463257","resources/trios/L1T2A3.jpg","37","restless",0.6,0.4,0.7,0.840698360322151,"false"
"image-keyboard-response",241,211397,"0.0-4.76-1.76","4suuw8p8jectvdv",580,"175.csv","","null","resources/maskTrios/L1BB.jpg","null","",NA,NA,NA,NA,""
"image-keyboard-response",242,212613,"0.0-4.76-2.76","4suuw8p8jectvdv",580,"175.csv","","null","resources/images/fishbone.png","null","",NA,NA,NA,NA,""
"image-keyboard-response",243,213033,"0.0-4.77-0.77","4suuw8p8jectvdv",580,"175.csv","","417.7999999523163","resources/trios/L1T2A3.jpg","37","restless",0.6,0.4,0.8,0.466964235794373,"true"
"image-keyboard-response",244,213440,"0.0-4.77-1.77","4suuw8p8jectvdv",580,"175.csv","","null","resources/maskTrios/L1BB.jpg","null","",NA,NA,NA,NA,""
"image-keyboard-response",245,214655,"0.0-4.77-2.77","4suuw8p8jectvdv",580,"175.csv","","null","resources/images/coin2.png","null","",NA,NA,NA,NA,""
"image-keyboard-response",246,215186,"0.0-4.78-0.78","4suuw8p8jectvdv",580,"175.csv","","530.2000000476837","resources/trios/L1T2A3.jpg","38","restless",0.6,0.4,0.8,0.943214790940418,"false"
"image-keyboard-response",247,215593,"0.0-4.78-1.78","4suuw8p8jectvdv",580,"175.csv","","null","resources/maskTrios/BT2B.jpg","null","",NA,NA,NA,NA,""
"image-keyboard-response",248,216807,"0.0-4.78-2.78","4suuw8p8jectvdv",580,"175.csv","","null","resources/images/fishbone.png","null","",NA,NA,NA,NA,""
"image-keyboard-response",249,217189,"0.0-4.79-0.79","4suuw8p8jectvdv",580,"175.csv","","379.90000009536743","resources/trios/L1T2A3.jpg","39","restless",0.5,0.5,0.8,0.398746241777929,"true"
"image-keyboard-response",250,217602,"0.0-4.79-1.79","4suuw8p8jectvdv",580,"175.csv","","null","resources/maskTrios/BBA3.jpg","null","",NA,NA,NA,NA,""
"image-keyboard-response",251,218819,"0.0-4.79-2.79","4suuw8p8jectvdv",580,"175.csv","","null","resources/images/coin2.png","null","",NA,NA,NA,NA,""
"image-keyboard-response",252,219141,"0.0-4.80-0.80","4suuw8p8jectvdv",580,"175.csv","","321","resources/trios/L1T2A3.jpg","39","restless",0.5,0.6,0.8,0.734382180556157,"true"
"image-keyboard-response",253,219551,"0.0-4.80-1.80","4suuw8p8jectvdv",580,"175.csv","","null","resources/maskTrios/BBA3.jpg","null","",NA,NA,NA,NA,""
"image-keyboard-response",254,220778,"0.0-4.80-2.80","4suuw8p8jectvdv",580,"175.csv","","null","resources/images/coin2.png","null","",NA,NA,NA,NA,""
"image-keyboard-response",255,221285,"0.0-4.81-0.81","4suuw8p8jectvdv",580,"175.csv","","506","resources/trios/L1T2A3.jpg","39","restless",0.5,0.6,0.8,0.0117199514161974,"true"
"image-keyboard-response",256,221706,"0.0-4.81-1.81","4suuw8p8jectvdv",580,"175.csv","","null","resources/maskTrios/BBA3.jpg","null","",NA,NA,NA,NA,""
"image-keyboard-response",257,222917,"0.0-4.81-2.81","4suuw8p8jectvdv",580,"175.csv","","null","resources/images/coin2.png","null","",NA,NA,NA,NA,""
"image-keyboard-response",258,223278,"0.0-4.82-0.82","4suuw8p8jectvdv",580,"175.csv","","359.2999999523163","resources/trios/L1T2A3.jpg","39","restless",0.5,0.7,0.8,0.787391595438151,"true"
"image-keyboard-response",259,223701,"0.0-4.82-1.82","4suuw8p8jectvdv",580,"175.csv","","null","resources/maskTrios/BBA3.jpg","null","",NA,NA,NA,NA,""
"image-keyboard-response",260,224915,"0.0-4.82-2.82","4suuw8p8jectvdv",580,"175.csv","","null","resources/images/coin2.png","null","",NA,NA,NA,NA,""
"image-keyboard-response",261,225355,"0.0-4.83-0.83","4suuw8p8jectvdv",580,"175.csv","","438.09999990463257","resources/trios/L1T2A3.jpg","39","restless",0.5,0.7,0.8,0.117935839200283,"true"
"image-keyboard-response",262,225772,"0.0-4.83-1.83","4suuw8p8jectvdv",580,"175.csv","","null","resources/maskTrios/BBA3.jpg","null","",NA,NA,NA,NA,""
"image-keyboard-response",263,226987,"0.0-4.83-2.83","4suuw8p8jectvdv",580,"175.csv","","null","resources/images/coin2.png","null","",NA,NA,NA,NA,""
"image-keyboard-response",264,227411,"0.0-4.84-0.84","4suuw8p8jectvdv",580,"175.csv","","422.10000014305115","resources/trios/L1T2A3.jpg","39","restless",0.5,0.7,0.8,0.663309988950081,"true"
"image-keyboard-response",265,227829,"0.0-4.84-1.84","4suuw8p8jectvdv",580,"175.csv","","null","resources/maskTrios/BBA3.jpg","null","",NA,NA,NA,NA,""
"image-keyboard-response",266,229035,"0.0-4.84-2.84","4suuw8p8jectvdv",580,"175.csv","","null","resources/images/coin2.png","null","",NA,NA,NA,NA,""
"image-keyboard-response",267,229357,"0.0-4.85-0.85","4suuw8p8jectvdv",580,"175.csv","","320.39999985694885","resources/trios/L1T2A3.jpg","39","restless",0.5,0.7,0.8,0.423207543562543,"true"
"image-keyboard-response",268,229769,"0.0-4.85-1.85","4suuw8p8jectvdv",580,"175.csv","","null","resources/maskTrios/BBA3.jpg","null","",NA,NA,NA,NA,""
"image-keyboard-response",269,230986,"0.0-4.85-2.85","4suuw8p8jectvdv",580,"175.csv","","null","resources/images/coin2.png","null","",NA,NA,NA,NA,""
"image-keyboard-response",270,231306,"0.0-4.86-0.86","4suuw8p8jectvdv",580,"175.csv","","317.60000014305115","resources/trios/L1T2A3.jpg","39","restless",0.5,0.7,0.8,0.915113116500348,"false"
"image-keyboard-response",271,231722,"0.0-4.86-1.86","4suuw8p8jectvdv",580,"175.csv","","null","resources/maskTrios/BBA3.jpg","null","",NA,NA,NA,NA,""
"image-keyboard-response",272,232936,"0.0-4.86-2.86","4suuw8p8jectvdv",580,"175.csv","","null","resources/images/fishbone.png","null","",NA,NA,NA,NA,""
"image-keyboard-response",273,233398,"0.0-4.87-0.87","4suuw8p8jectvdv",580,"175.csv","","460.09999990463257","resources/trios/L1T2A3.jpg","37","restless",0.5,0.7,0.8,0.72637680171044,"false"
"image-keyboard-response",274,233808,"0.0-4.87-1.87","4suuw8p8jectvdv",580,"175.csv","","null","resources/maskTrios/L1BB.jpg","null","",NA,NA,NA,NA,""
"image-keyboard-response",275,235026,"0.0-4.87-2.87","4suuw8p8jectvdv",580,"175.csv","","null","resources/images/fishbone.png","null","",NA,NA,NA,NA,""
"image-keyboard-response",276,235413,"0.0-4.88-0.88","4suuw8p8jectvdv",580,"175.csv","","385.30000019073486","resources/trios/L1T2A3.jpg","39","restless",0.5,0.7,0.8,0.300368157517802,"true"
"image-keyboard-response",277,235822,"0.0-4.88-1.88","4suuw8p8jectvdv",580,"175.csv","","null","resources/maskTrios/BBA3.jpg","null","",NA,NA,NA,NA,""
"image-keyboard-response",278,237039,"0.0-4.88-2.88","4suuw8p8jectvdv",580,"175.csv","","null","resources/images/coin2.png","null","",NA,NA,NA,NA,""
"image-keyboard-response",279,237400,"0.0-4.89-0.89","4suuw8p8jectvdv",580,"175.csv","","358.59999990463257","resources/trios/L1T2A3.jpg","39","restless",0.5,0.7,0.8,0.246792689578361,"true"
"image-keyboard-response",280,237803,"0.0-4.89-1.89","4suuw8p8jectvdv",580,"175.csv","","null","resources/maskTrios/BBA3.jpg","null","",NA,NA,NA,NA,""
"image-keyboard-response",281,239022,"0.0-4.89-2.89","4suuw8p8jectvdv",580,"175.csv","","null","resources/images/coin2.png","null","",NA,NA,NA,NA,""
"image-keyboard-response",282,239329,"0.0-4.90-0.90","4suuw8p8jectvdv",580,"175.csv","","306.09999990463257","resources/trios/L1T2A3.jpg","39","restless",0.5,0.7,0.8,0.243200182491236,"true"
"image-keyboard-response",283,239735,"0.0-4.90-1.90","4suuw8p8jectvdv",580,"175.csv","","null","resources/maskTrios/BBA3.jpg","null","",NA,NA,NA,NA,""
"image-keyboard-response",284,240939,"0.0-4.90-2.90","4suuw8p8jectvdv",580,"175.csv","","null","resources/images/coin2.png","null","",NA,NA,NA,NA,""
"image-keyboard-response",285,241303,"0.0-4.91-0.91","4suuw8p8jectvdv",580,"175.csv","","362.5","resources/trios/L1T2A3.jpg","39","restless",0.4,0.7,0.7,0.675194865397566,"true"
"image-keyboard-response",286,241714,"0.0-4.91-1.91","4suuw8p8jectvdv",580,"175.csv","","null","resources/maskTrios/BBA3.jpg","null","",NA,NA,NA,NA,""
"image-keyboard-response",287,242924,"0.0-4.91-2.91","4suuw8p8jectvdv",580,"175.csv","","null","resources/images/coin2.png","null","",NA,NA,NA,NA,""
"image-keyboard-response",288,243297,"0.0-4.92-0.92","4suuw8p8jectvdv",580,"175.csv","","370.89999985694885","resources/trios/L1T2A3.jpg","39","restless",0.4,0.7,0.7,0.852117130720967,"false"
"image-keyboard-response",289,243715,"0.0-4.92-1.92","4suuw8p8jectvdv",580,"175.csv","","null","resources/maskTrios/BBA3.jpg","null","",NA,NA,NA,NA,""
"image-keyboard-response",290,244925,"0.0-4.92-2.92","4suuw8p8jectvdv",580,"175.csv","","null","resources/images/fishbone.png","null","",NA,NA,NA,NA,""
"image-keyboard-response",291,245218,"0.0-4.93-0.93","4suuw8p8jectvdv",580,"175.csv","","291","resources/trios/L1T2A3.jpg","38","restless",0.4,0.7,0.7,0.1091298806263,"true"
"image-keyboard-response",292,245625,"0.0-4.93-1.93","4suuw8p8jectvdv",580,"175.csv","","null","resources/maskTrios/BT2B.jpg","null","",NA,NA,NA,NA,""
"image-keyboard-response",293,246843,"0.0-4.93-2.93","4suuw8p8jectvdv",580,"175.csv","","null","resources/images/coin2.png","null","",NA,NA,NA,NA,""
"image-keyboard-response",294,247190,"0.0-4.94-0.94","4suuw8p8jectvdv",580,"175.csv","","345.7999999523163","resources/trios/L1T2A3.jpg","38","restless",0.3,0.7,0.7,0.393105687517382,"true"
"image-keyboard-response",295,247599,"0.0-4.94-1.94","4suuw8p8jectvdv",580,"175.csv","","null","resources/maskTrios/BT2B.jpg","null","",NA,NA,NA,NA,""
"image-keyboard-response",296,248815,"0.0-4.94-2.94","4suuw8p8jectvdv",580,"175.csv","","null","resources/images/coin2.png","null","",NA,NA,NA,NA,""
"image-keyboard-response",297,249272,"0.0-4.95-0.95","4suuw8p8jectvdv",580,"175.csv","","455.89999985694885","resources/trios/L1T2A3.jpg","38","restless",0.3,0.7,0.7,0.601675786423518,"true"
"image-keyboard-response",298,249687,"0.0-4.95-1.95","4suuw8p8jectvdv",580,"175.csv","","null","resources/maskTrios/BT2B.jpg","null","",NA,NA,NA,NA,""
"image-keyboard-response",299,250901,"0.0-4.95-2.95","4suuw8p8jectvdv",580,"175.csv","","null","resources/images/coin2.png","null","",NA,NA,NA,NA,""
"image-keyboard-response",300,251237,"0.0-4.96-0.96","4suuw8p8jectvdv",580,"175.csv","","334.89999985694885","resources/trios/L1T2A3.jpg","38","restless",0.3,0.7,0.7,0.734626431546119,"false"
"image-keyboard-response",301,251640,"0.0-4.96-1.96","4suuw8p8jectvdv",580,"175.csv","","null","resources/maskTrios/BT2B.jpg","null","",NA,NA,NA,NA,""
"image-keyboard-response",302,252849,"0.0-4.96-2.96","4suuw8p8jectvdv",580,"175.csv","","null","resources/images/fishbone.png","null","",NA,NA,NA,NA,""
"image-keyboard-response",303,253224,"0.0-4.97-0.97","4suuw8p8jectvdv",580,"175.csv","","373.7000000476837","resources/trios/L1T2A3.jpg","39","restless",0.3,0.7,0.7,0.24402704066127,"true"
"image-keyboard-response",304,253645,"0.0-4.97-1.97","4suuw8p8jectvdv",580,"175.csv","","null","resources/maskTrios/BBA3.jpg","null","",NA,NA,NA,NA,""
"image-keyboard-response",305,254859,"0.0-4.97-2.97","4suuw8p8jectvdv",580,"175.csv","","null","resources/images/coin2.png","null","",NA,NA,NA,NA,""
"image-keyboard-response",306,255614,"0.0-4.98-0.98","4suuw8p8jectvdv",580,"175.csv","","754.1000001430511","resources/trios/L1T2A3.jpg","39","restless",0.3,0.7,0.7,0.628416410696895,"true"
"image-keyboard-response",307,256029,"0.0-4.98-1.98","4suuw8p8jectvdv",580,"175.csv","","null","resources/maskTrios/BBA3.jpg","null","",NA,NA,NA,NA,""
"image-keyboard-response",308,257234,"0.0-4.98-2.98","4suuw8p8jectvdv",580,"175.csv","","null","resources/images/coin2.png","null","",NA,NA,NA,NA,""
"image-keyboard-response",309,257617,"0.0-4.99-0.99","4suuw8p8jectvdv",580,"175.csv","","381.39999985694885","resources/trios/L1T2A3.jpg","39","restless",0.3,0.7,0.7,0.988587264576942,"false"
"image-keyboard-response",310,258027,"0.0-4.99-1.99","4suuw8p8jectvdv",580,"175.csv","","null","resources/maskTrios/BBA3.jpg","null","",NA,NA,NA,NA,""
"image-keyboard-response",311,259236,"0.0-4.99-2.99","4suuw8p8jectvdv",580,"175.csv","","null","resources/images/fishbone.png","null","",NA,NA,NA,NA,""
"image-keyboard-response",312,259672,"0.0-4.100-0.100","4suuw8p8jectvdv",580,"175.csv","","434.60000014305115","resources/trios/L1T2A3.jpg","38","restless",0.3,0.7,0.7,0.81184277150526,"false"
"image-keyboard-response",313,260079,"0.0-4.100-1.100","4suuw8p8jectvdv",580,"175.csv","","null","resources/maskTrios/BT2B.jpg","null","",NA,NA,NA,NA,""
"image-keyboard-response",314,261294,"0.0-4.100-2.100","4suuw8p8jectvdv",580,"175.csv","","null","resources/images/fishbone.png","null","",NA,NA,NA,NA,""
"image-keyboard-response",315,261647,"0.0-4.101-0.101","4suuw8p8jectvdv",580,"175.csv","","351.60000014305115","resources/trios/L1T2A3.jpg","37","restless",0.3,0.6,0.7,0.643007476507407,"false"
"image-keyboard-response",316,262077,"0.0-4.101-1.101","4suuw8p8jectvdv",580,"175.csv","","null","resources/maskTrios/L1BB.jpg","null","",NA,NA,NA,NA,""
"image-keyboard-response",317,263285,"0.0-4.101-2.101","4suuw8p8jectvdv",580,"175.csv","","null","resources/images/fishbone.png","null","",NA,NA,NA,NA,""
"image-keyboard-response",318,263699,"0.0-4.102-0.102","4suuw8p8jectvdv",580,"175.csv","","412.5","resources/trios/L1T2A3.jpg","39","restless",0.3,0.6,0.7,0.582984184978382,"true"
"image-keyboard-response",319,264111,"0.0-4.102-1.102","4suuw8p8jectvdv",580,"175.csv","","null","resources/maskTrios/BBA3.jpg","null","",NA,NA,NA,NA,""
"image-keyboard-response",320,265327,"0.0-4.102-2.102","4suuw8p8jectvdv",580,"175.csv","","null","resources/images/coin2.png","null","",NA,NA,NA,NA,""
"image-keyboard-response",321,265774,"0.0-4.103-0.103","4suuw8p8jectvdv",580,"175.csv","","445.5","resources/trios/L1T2A3.jpg","39","restless",0.3,0.6,0.7,0.0742593173488839,"true"
"image-keyboard-response",322,266184,"0.0-4.103-1.103","4suuw8p8jectvdv",580,"175.csv","","null","resources/maskTrios/BBA3.jpg","null","",NA,NA,NA,NA,""
"image-keyboard-response",323,267402,"0.0-4.103-2.103","4suuw8p8jectvdv",580,"175.csv","","null","resources/images/coin2.png","null","",NA,NA,NA,NA,""
"image-keyboard-response",324,267777,"0.0-4.104-0.104","4suuw8p8jectvdv",580,"175.csv","","373.5","resources/trios/L1T2A3.jpg","39","restless",0.3,0.6,0.7,0.23083225538349,"true"
"image-keyboard-response",325,268183,"0.0-4.104-1.104","4suuw8p8jectvdv",580,"175.csv","","null","resources/maskTrios/BBA3.jpg","null","",NA,NA,NA,NA,""
"image-keyboard-response",326,269389,"0.0-4.104-2.104","4suuw8p8jectvdv",580,"175.csv","","null","resources/images/coin2.png","null","",NA,NA,NA,NA,""
"image-keyboard-response",327,269783,"0.0-4.105-0.105","4suuw8p8jectvdv",580,"175.csv","","392.69999980926514","resources/trios/L1T2A3.jpg","39","restless",0.3,0.6,0.7,0.885686586304405,"false"
"image-keyboard-response",328,270197,"0.0-4.105-1.105","4suuw8p8jectvdv",580,"175.csv","","null","resources/maskTrios/BBA3.jpg","null","",NA,NA,NA,NA,""
"image-keyboard-response",329,271406,"0.0-4.105-2.105","4suuw8p8jectvdv",580,"175.csv","","null","resources/images/fishbone.png","null","",NA,NA,NA,NA,""
"image-keyboard-response",330,271789,"0.0-4.106-0.106","4suuw8p8jectvdv",580,"175.csv","","380.59999990463257","resources/trios/L1T2A3.jpg","38","restless",0.3,0.6,0.7,0.00170616550868563,"true"
"image-keyboard-response",331,272203,"0.0-4.106-1.106","4suuw8p8jectvdv",580,"175.csv","","null","resources/maskTrios/BT2B.jpg","null","",NA,NA,NA,NA,""
"image-keyboard-response",332,273422,"0.0-4.106-2.106","4suuw8p8jectvdv",580,"175.csv","","null","resources/images/coin2.png","null","",NA,NA,NA,NA,""
"image-keyboard-response",333,273722,"0.0-4.107-0.107","4suuw8p8jectvdv",580,"175.csv","","297.90000009536743","resources/trios/L1T2A3.jpg","38","restless",0.3,0.6,0.7,0.632418350267461,"false"
"image-keyboard-response",334,274135,"0.0-4.107-1.107","4suuw8p8jectvdv",580,"175.csv","","null","resources/maskTrios/BT2B.jpg","null","",NA,NA,NA,NA,""
"image-keyboard-response",335,275337,"0.0-4.107-2.107","4suuw8p8jectvdv",580,"175.csv","","null","resources/images/fishbone.png","null","",NA,NA,NA,NA,""
"image-keyboard-response",336,275679,"0.0-4.108-0.108","4suuw8p8jectvdv",580,"175.csv","","340.09999990463257","resources/trios/L1T2A3.jpg","38","restless",0.3,0.6,0.7,0.917657298989766,"false"
"image-keyboard-response",337,276089,"0.0-4.108-1.108","4suuw8p8jectvdv",580,"175.csv","","null","resources/maskTrios/BT2B.jpg","null","",NA,NA,NA,NA,""
"image-keyboard-response",338,277302,"0.0-4.108-2.108","4suuw8p8jectvdv",580,"175.csv","","null","resources/images/fishbone.png","null","",NA,NA,NA,NA,""
"image-keyboard-response",339,277683,"0.0-4.109-0.109","4suuw8p8jectvdv",580,"175.csv","","379","resources/trios/L1T2A3.jpg","37","restless",0.3,0.6,0.7,0.690096762390111,"false"
"image-keyboard-response",340,278101,"0.0-4.109-1.109","4suuw8p8jectvdv",580,"175.csv","","null","resources/maskTrios/L1BB.jpg","null","",NA,NA,NA,NA,""
"image-keyboard-response",341,279319,"0.0-4.109-2.109","4suuw8p8jectvdv",580,"175.csv","","null","resources/images/fishbone.png","null","",NA,NA,NA,NA,""
"image-keyboard-response",342,279674,"0.0-4.110-0.110","4suuw8p8jectvdv",580,"175.csv","","353.5","resources/trios/L1T2A3.jpg","39","restless",0.3,0.6,0.7,0.221315621756516,"true"
"image-keyboard-response",343,280083,"0.0-4.110-1.110","4suuw8p8jectvdv",580,"175.csv","","null","resources/maskTrios/BBA3.jpg","null","",NA,NA,NA,NA,""
"image-keyboard-response",344,281297,"0.0-4.110-2.110","4suuw8p8jectvdv",580,"175.csv","","null","resources/images/coin2.png","null","",NA,NA,NA,NA,""
"image-keyboard-response",345,281686,"0.0-4.111-0.111","4suuw8p8jectvdv",580,"175.csv","","387.09999990463257","resources/trios/L1T2A3.jpg","39","restless",0.3,0.6,0.7,0.148996162498584,"true"
"image-keyboard-response",346,282093,"0.0-4.111-1.111","4suuw8p8jectvdv",580,"175.csv","","null","resources/maskTrios/BBA3.jpg","null","",NA,NA,NA,NA,""
"image-keyboard-response",347,283296,"0.0-4.111-2.111","4suuw8p8jectvdv",580,"175.csv","","null","resources/images/coin2.png","null","",NA,NA,NA,NA,""
"image-keyboard-response",348,283611,"0.0-4.112-0.112","4suuw8p8jectvdv",580,"175.csv","","312.69999980926514","resources/trios/L1T2A3.jpg","39","restless",0.3,0.6,0.7,0.205927239856564,"true"
"image-keyboard-response",349,284015,"0.0-4.112-1.112","4suuw8p8jectvdv",580,"175.csv","","null","resources/maskTrios/BBA3.jpg","null","",NA,NA,NA,NA,""
"image-keyboard-response",350,285234,"0.0-4.112-2.112","4suuw8p8jectvdv",580,"175.csv","","null","resources/images/coin2.png","null","",NA,NA,NA,NA,""
"image-keyboard-response",351,285604,"0.0-4.113-0.113","4suuw8p8jectvdv",580,"175.csv","","369.2000000476837","resources/trios/L1T2A3.jpg","39","restless",0.2,0.6,0.7,0.380155915869017,"true"
"image-keyboard-response",352,286010,"0.0-4.113-1.113","4suuw8p8jectvdv",580,"175.csv","","null","resources/maskTrios/BBA3.jpg","null","",NA,NA,NA,NA,""
"image-keyboard-response",353,287216,"0.0-4.113-2.113","4suuw8p8jectvdv",580,"175.csv","","null","resources/images/coin2.png","null","",NA,NA,NA,NA,""
"image-keyboard-response",354,287628,"0.0-4.114-0.114","4suuw8p8jectvdv",580,"175.csv","","410.5","resources/trios/L1T2A3.jpg","39","restless",0.2,0.5,0.7,0.575239958765811,"true"
"image-keyboard-response",355,288042,"0.0-4.114-1.114","4suuw8p8jectvdv",580,"175.csv","","null","resources/maskTrios/BBA3.jpg","null","",NA,NA,NA,NA,""
"image-keyboard-response",356,289245,"0.0-4.114-2.114","4suuw8p8jectvdv",580,"175.csv","","null","resources/images/coin2.png","null","",NA,NA,NA,NA,""
"image-keyboard-response",357,289724,"0.0-4.115-0.115","4suuw8p8jectvdv",580,"175.csv","","476.2999999523163","resources/trios/L1T2A3.jpg","39","restless",0.2,0.5,0.7,0.321528279026045,"true"
"image-keyboard-response",358,290142,"0.0-4.115-1.115","4suuw8p8jectvdv",580,"175.csv","","null","resources/maskTrios/BBA3.jpg","null","",NA,NA,NA,NA,""
"image-keyboard-response",359,291356,"0.0-4.115-2.115","4suuw8p8jectvdv",580,"175.csv","","null","resources/images/coin2.png","null","",NA,NA,NA,NA,""
"image-keyboard-response",360,291670,"0.0-4.116-0.116","4suuw8p8jectvdv",580,"175.csv","","313.2000000476837","resources/trios/L1T2A3.jpg","38","restless",0.3,0.5,0.7,0.976641276894018,"false"
"image-keyboard-response",361,292078,"0.0-4.116-1.116","4suuw8p8jectvdv",580,"175.csv","","null","resources/maskTrios/BT2B.jpg","null","",NA,NA,NA,NA,""
"image-keyboard-response",362,293297,"0.0-4.116-2.116","4suuw8p8jectvdv",580,"175.csv","","null","resources/images/fishbone.png","null","",NA,NA,NA,NA,""
"image-keyboard-response",363,293633,"0.0-4.117-0.117","4suuw8p8jectvdv",580,"175.csv","","333.89999985694885","resources/trios/L1T2A3.jpg","39","restless",0.3,0.5,0.7,0.381729285363861,"true"
"image-keyboard-response",364,294049,"0.0-4.117-1.117","4suuw8p8jectvdv",580,"175.csv","","null","resources/maskTrios/BBA3.jpg","null","",NA,NA,NA,NA,""
"image-keyboard-response",365,295256,"0.0-4.117-2.117","4suuw8p8jectvdv",580,"175.csv","","null","resources/images/coin2.png","null","",NA,NA,NA,NA,""
"image-keyboard-response",366,295671,"0.0-4.118-0.118","4suuw8p8jectvdv",580,"175.csv","","413.7999999523163","resources/trios/L1T2A3.jpg","39","restless",0.3,0.5,0.7,0.335062673425323,"true"
"image-keyboard-response",367,296080,"0.0-4.118-1.118","4suuw8p8jectvdv",580,"175.csv","","null","resources/maskTrios/BBA3.jpg","null","",NA,NA,NA,NA,""
"image-keyboard-response",368,297297,"0.0-4.118-2.118","4suuw8p8jectvdv",580,"175.csv","","null","resources/images/coin2.png","null","",NA,NA,NA,NA,""
"image-keyboard-response",369,297738,"0.0-4.119-0.119","4suuw8p8jectvdv",580,"175.csv","","437.7999999523163","resources/trios/L1T2A3.jpg","39","restless",0.3,0.5,0.7,0.774702352242117,"false"
"image-keyboard-response",370,298158,"0.0-4.119-1.119","4suuw8p8jectvdv",580,"175.csv","","null","resources/maskTrios/BBA3.jpg","null","",NA,NA,NA,NA,""
"image-keyboard-response",371,299369,"0.0-4.119-2.119","4suuw8p8jectvdv",580,"175.csv","","null","resources/images/fishbone.png","null","",NA,NA,NA,NA,""
"image-keyboard-response",372,299649,"0.0-4.120-0.120","4suuw8p8jectvdv",580,"175.csv","","278.2999999523163","resources/trios/L1T2A3.jpg","37","restless",0.3,0.5,0.7,0.761400369354154,"false"
"image-keyboard-response",373,300056,"0.0-4.120-1.120","4suuw8p8jectvdv",580,"175.csv","","null","resources/maskTrios/L1BB.jpg","null","",NA,NA,NA,NA,""
"image-keyboard-response",374,301268,"0.0-4.120-2.120","4suuw8p8jectvdv",580,"175.csv","","null","resources/images/fishbone.png","null","",NA,NA,NA,NA,""
"image-keyboard-response",375,301658,"0.0-4.121-0.121","4suuw8p8jectvdv",580,"175.csv","","386.5","resources/trios/L1T2A3.jpg","39","restless",0.3,0.5,0.7,0.826508916800787,"false"
"image-keyboard-response",376,302067,"0.0-4.121-1.121","4suuw8p8jectvdv",580,"175.csv","","null","resources/maskTrios/BBA3.jpg","null","",NA,NA,NA,NA,""
"image-keyboard-response",377,303282,"0.0-4.121-2.121","4suuw8p8jectvdv",580,"175.csv","","null","resources/images/fishbone.png","null","",NA,NA,NA,NA,""
"image-keyboard-response",378,303705,"0.0-4.122-0.122","4suuw8p8jectvdv",580,"175.csv","","421","resources/trios/L1T2A3.jpg","38","restless",0.3,0.6,0.7,0.0995706924144055,"true"
"image-keyboard-response",379,304125,"0.0-4.122-1.122","4suuw8p8jectvdv",580,"175.csv","","null","resources/maskTrios/BT2B.jpg","null","",NA,NA,NA,NA,""
"image-keyboard-response",380,305329,"0.0-4.122-2.122","4suuw8p8jectvdv",580,"175.csv","","null","resources/images/coin2.png","null","",NA,NA,NA,NA,""
"image-keyboard-response",381,305630,"0.0-4.123-0.123","4suuw8p8jectvdv",580,"175.csv","","299.7000000476837","resources/trios/L1T2A3.jpg","38","restless",0.3,0.6,0.7,0.0409022063894693,"true"
"image-keyboard-response",382,306044,"0.0-4.123-1.123","4suuw8p8jectvdv",580,"175.csv","","null","resources/maskTrios/BT2B.jpg","null","",NA,NA,NA,NA,""
"image-keyboard-response",383,307251,"0.0-4.123-2.123","4suuw8p8jectvdv",580,"175.csv","","null","resources/images/coin2.png","null","",NA,NA,NA,NA,""
"image-keyboard-response",384,307642,"0.0-4.124-0.124","4suuw8p8jectvdv",580,"175.csv","","389.90000009536743","resources/trios/L1T2A3.jpg","38","restless",0.3,0.6,0.7,0.091140888834272,"true"
"image-keyboard-response",385,308047,"0.0-4.124-1.124","4suuw8p8jectvdv",580,"175.csv","","null","resources/maskTrios/BT2B.jpg","null","",NA,NA,NA,NA,""
"image-keyboard-response",386,309259,"0.0-4.124-2.124","4suuw8p8jectvdv",580,"175.csv","","null","resources/images/coin2.png","null","",NA,NA,NA,NA,""
"image-keyboard-response",387,309627,"0.0-4.125-0.125","4suuw8p8jectvdv",580,"175.csv","","366.5","resources/trios/L1T2A3.jpg","38","restless",0.4,0.5,0.7,0.330540168612852,"true"
"image-keyboard-response",388,310037,"0.0-4.125-1.125","4suuw8p8jectvdv",580,"175.csv","","null","resources/maskTrios/BT2B.jpg","null","",NA,NA,NA,NA,""
"image-keyboard-response",389,311239,"0.0-4.125-2.125","4suuw8p8jectvdv",580,"175.csv","","null","resources/images/coin2.png","null","",NA,NA,NA,NA,""
"image-keyboard-response",390,311652,"0.0-4.126-0.126","4suuw8p8jectvdv",580,"175.csv","","411.5","resources/trios/L1T2A3.jpg","38","restless",0.5,0.5,0.7,0.528194447217011,"false"
"image-keyboard-response",391,312065,"0.0-4.126-1.126","4suuw8p8jectvdv",580,"175.csv","","null","resources/maskTrios/BT2B.jpg","null","",NA,NA,NA,NA,""
"image-keyboard-response",392,313268,"0.0-4.126-2.126","4suuw8p8jectvdv",580,"175.csv","","null","resources/images/fishbone.png","null","",NA,NA,NA,NA,""
"image-keyboard-response",393,313739,"0.0-4.127-0.127","4suuw8p8jectvdv",580,"175.csv","","468.90000009536743","resources/trios/L1T2A3.jpg","38","restless",0.5,0.5,0.7,0.984722915742763,"false"
"image-keyboard-response",394,314145,"0.0-4.127-1.127","4suuw8p8jectvdv",580,"175.csv","","null","resources/maskTrios/BT2B.jpg","null","",NA,NA,NA,NA,""
"image-keyboard-response",395,315359,"0.0-4.127-2.127","4suuw8p8jectvdv",580,"175.csv","","null","resources/images/fishbone.png","null","",NA,NA,NA,NA,""
"image-keyboard-response",396,315644,"0.0-4.128-0.128","4suuw8p8jectvdv",580,"175.csv","","282","resources/trios/L1T2A3.jpg","39","restless",0.5,0.5,0.7,0.0128619439860842,"true"
"image-keyboard-response",397,316058,"0.0-4.128-1.128","4suuw8p8jectvdv",580,"175.csv","","null","resources/maskTrios/BBA3.jpg","null","",NA,NA,NA,NA,""
"image-keyboard-response",398,317270,"0.0-4.128-2.128","4suuw8p8jectvdv",580,"175.csv","","null","resources/images/coin2.png","null","",NA,NA,NA,NA,""
"image-keyboard-response",399,317649,"0.0-4.129-0.129","4suuw8p8jectvdv",580,"175.csv","","376.7000000476837","resources/trios/L1T2A3.jpg","39","restless",0.5,0.5,0.7,0.424013433580434,"true"
"image-keyboard-response",400,318073,"0.0-4.129-1.129","4suuw8p8jectvdv",580,"175.csv","","null","resources/maskTrios/BBA3.jpg","null","",NA,NA,NA,NA,""
"image-keyboard-response",401,319281,"0.0-4.129-2.129","4suuw8p8jectvdv",580,"175.csv","","null","resources/images/coin2.png","null","",NA,NA,NA,NA,""
"image-keyboard-response",402,319675,"0.0-4.130-0.130","4suuw8p8jectvdv",580,"175.csv","","392.59999990463257","resources/trios/L1T2A3.jpg","39","restless",0.5,0.5,0.7,0.271571826309459,"true"
"image-keyboard-response",403,320089,"0.0-4.130-1.130","4suuw8p8jectvdv",580,"175.csv","","null","resources/maskTrios/BBA3.jpg","null","",NA,NA,NA,NA,""
"image-keyboard-response",404,321307,"0.0-4.130-2.130","4suuw8p8jectvdv",580,"175.csv","","null","resources/images/coin2.png","null","",NA,NA,NA,NA,""
"image-keyboard-response",405,321711,"0.0-4.131-0.131","4suuw8p8jectvdv",580,"175.csv","","400.59999990463257","resources/trios/L1T2A3.jpg","39","restless",0.5,0.5,0.7,0.886232130113989,"false"
"image-keyboard-response",406,322116,"0.0-4.131-1.131","4suuw8p8jectvdv",580,"175.csv","","null","resources/maskTrios/BBA3.jpg","null","",NA,NA,NA,NA,""
"image-keyboard-response",407,323331,"0.0-4.131-2.131","4suuw8p8jectvdv",580,"175.csv","","null","resources/images/fishbone.png","null","",NA,NA,NA,NA,""
"image-keyboard-response",408,323737,"0.0-4.132-0.132","4suuw8p8jectvdv",580,"175.csv","","403","resources/trios/L1T2A3.jpg","39","restless",0.5,0.5,0.7,0.985620513597571,"false"
"image-keyboard-response",409,324156,"0.0-4.132-1.132","4suuw8p8jectvdv",580,"175.csv","","null","resources/maskTrios/BBA3.jpg","null","",NA,NA,NA,NA,""
"image-keyboard-response",410,325371,"0.0-4.132-2.132","4suuw8p8jectvdv",580,"175.csv","","null","resources/images/fishbone.png","null","",NA,NA,NA,NA,""
"image-keyboard-response",411,325782,"0.0-4.133-0.133","4suuw8p8jectvdv",580,"175.csv","","405.89999985694885","resources/trios/L1T2A3.jpg","39","restless",0.5,0.5,0.7,0.657618405769482,"true"
"image-keyboard-response",412,326195,"0.0-4.133-1.133","4suuw8p8jectvdv",580,"175.csv","","null","resources/maskTrios/BBA3.jpg","null","",NA,NA,NA,NA,""
"image-keyboard-response",413,327408,"0.0-4.133-2.133","4suuw8p8jectvdv",580,"175.csv","","null","resources/images/coin2.png","null","",NA,NA,NA,NA,""
"image-keyboard-response",414,327762,"0.0-4.134-0.134","4suuw8p8jectvdv",580,"175.csv","","352.5","resources/trios/L1T2A3.jpg","39","restless",0.5,0.6,0.7,0.571032556798184,"true"
"image-keyboard-response",415,328172,"0.0-4.134-1.134","4suuw8p8jectvdv",580,"175.csv","","null","resources/maskTrios/BBA3.jpg","null","",NA,NA,NA,NA,""
"image-keyboard-response",416,329388,"0.0-4.134-2.134","4suuw8p8jectvdv",580,"175.csv","","null","resources/images/coin2.png","null","",NA,NA,NA,NA,""
"image-keyboard-response",417,329759,"0.0-4.135-0.135","4suuw8p8jectvdv",580,"175.csv","","368.7999999523163","resources/trios/L1T2A3.jpg","39","restless",0.5,0.6,0.7,0.518364648485162,"true"
"image-keyboard-response",418,330165,"0.0-4.135-1.135","4suuw8p8jectvdv",580,"175.csv","","null","resources/maskTrios/BBA3.jpg","null","",NA,NA,NA,NA,""
"image-keyboard-response",419,331372,"0.0-4.135-2.135","4suuw8p8jectvdv",580,"175.csv","","null","resources/images/coin2.png","null","",NA,NA,NA,NA,""
"image-keyboard-response",420,331835,"0.0-4.136-0.136","4suuw8p8jectvdv",580,"175.csv","","462.2000000476837","resources/trios/L1T2A3.jpg","39","restless",0.5,0.6,0.7,0.879016380728762,"false"
"image-keyboard-response",421,332240,"0.0-4.136-1.136","4suuw8p8jectvdv",580,"175.csv","","null","resources/maskTrios/BBA3.jpg","null","",NA,NA,NA,NA,""
"image-keyboard-response",422,333455,"0.0-4.136-2.136","4suuw8p8jectvdv",580,"175.csv","","null","resources/images/fishbone.png","null","",NA,NA,NA,NA,""
"image-keyboard-response",423,333959,"0.0-4.137-0.137","4suuw8p8jectvdv",580,"175.csv","","503.2000000476837","resources/trios/L1T2A3.jpg","38","restless",0.5,0.6,0.7,0.621655181318602,"false"
"image-keyboard-response",424,334371,"0.0-4.137-1.137","4suuw8p8jectvdv",580,"175.csv","","null","resources/maskTrios/BT2B.jpg","null","",NA,NA,NA,NA,""
"image-keyboard-response",425,335585,"0.0-4.137-2.137","4suuw8p8jectvdv",580,"175.csv","","null","resources/images/fishbone.png","null","",NA,NA,NA,NA,""
"image-keyboard-response",426,335936,"0.0-4.138-0.138","4suuw8p8jectvdv",580,"175.csv","","348.7000000476837","resources/trios/L1T2A3.jpg","37","restless",0.5,0.6,0.7,0.75707703319511,"false"
"image-keyboard-response",427,336383,"0.0-4.138-1.138","4suuw8p8jectvdv",580,"175.csv","","null","resources/maskTrios/L1BB.jpg","null","",NA,NA,NA,NA,""
"image-keyboard-response",428,337593,"0.0-4.138-2.138","4suuw8p8jectvdv",580,"175.csv","","null","resources/images/fishbone.png","null","",NA,NA,NA,NA,""
"image-keyboard-response",429,338106,"0.0-4.139-0.139","4suuw8p8jectvdv",580,"175.csv","","512.2000000476837","resources/trios/L1T2A3.jpg","39","restless",0.6,0.6,0.7,0.0483428544048514,"true"
"image-keyboard-response",430,338514,"0.0-4.139-1.139","4suuw8p8jectvdv",580,"175.csv","","null","resources/maskTrios/BBA3.jpg","null","",NA,NA,NA,NA,""
"image-keyboard-response",431,339728,"0.0-4.139-2.139","4suuw8p8jectvdv",580,"175.csv","","null","resources/images/coin2.png","null","",NA,NA,NA,NA,""
"image-keyboard-response",432,340247,"0.0-4.140-0.140","4suuw8p8jectvdv",580,"175.csv","","517.3000001907349","resources/trios/L1T2A3.jpg","39","restless",0.6,0.6,0.6,0.613031024646903,"false"
"image-keyboard-response",433,340662,"0.0-4.140-1.140","4suuw8p8jectvdv",580,"175.csv","","null","resources/maskTrios/BBA3.jpg","null","",NA,NA,NA,NA,""
"image-keyboard-response",434,341878,"0.0-4.140-2.140","4suuw8p8jectvdv",580,"175.csv","","null","resources/images/fishbone.png","null","",NA,NA,NA,NA,""
"image-keyboard-response",435,342361,"0.0-4.141-0.141","4suuw8p8jectvdv",580,"175.csv","","481.2000000476837","resources/trios/L1T2A3.jpg","37","restless",0.5,0.6,0.6,0.0393343983103926,"true"
"image-keyboard-response",436,342780,"0.0-4.141-1.141","4suuw8p8jectvdv",580,"175.csv","","null","resources/maskTrios/L1BB.jpg","null","",NA,NA,NA,NA,""
"image-keyboard-response",437,343994,"0.0-4.141-2.141","4suuw8p8jectvdv",580,"175.csv","","null","resources/images/coin2.png","null","",NA,NA,NA,NA,""
"image-keyboard-response",438,344280,"0.0-4.142-0.142","4suuw8p8jectvdv",580,"175.csv","","284.59999990463257","resources/trios/L1T2A3.jpg","37","restless",0.5,0.6,0.6,0.317760727499945,"true"
"image-keyboard-response",439,344689,"0.0-4.142-1.142","4suuw8p8jectvdv",580,"175.csv","","null","resources/maskTrios/L1BB.jpg","null","",NA,NA,NA,NA,""
"image-keyboard-response",440,345908,"0.0-4.142-2.142","4suuw8p8jectvdv",580,"175.csv","","null","resources/images/coin2.png","null","",NA,NA,NA,NA,""
"image-keyboard-response",441,346291,"0.0-4.143-0.143","4suuw8p8jectvdv",580,"175.csv","","380.5","resources/trios/L1T2A3.jpg","37","restless",0.5,0.6,0.6,0.730686796523627,"false"
"image-keyboard-response",442,346702,"0.0-4.143-1.143","4suuw8p8jectvdv",580,"175.csv","","null","resources/maskTrios/L1BB.jpg","null","",NA,NA,NA,NA,""
"image-keyboard-response",443,347918,"0.0-4.143-2.143","4suuw8p8jectvdv",580,"175.csv","","null","resources/images/fishbone.png","null","",NA,NA,NA,NA,""
"image-keyboard-response",444,348282,"0.0-4.144-0.144","4suuw8p8jectvdv",580,"175.csv","","363.09999990463257","resources/trios/L1T2A3.jpg","37","restless",0.5,0.6,0.6,0.547623743875999,"false"
"image-keyboard-response",445,348697,"0.0-4.144-1.144","4suuw8p8jectvdv",580,"175.csv","","null","resources/maskTrios/L1BB.jpg","null","",NA,NA,NA,NA,""
"image-keyboard-response",446,349913,"0.0-4.144-2.144","4suuw8p8jectvdv",580,"175.csv","","null","resources/images/fishbone.png","null","",NA,NA,NA,NA,""
"image-keyboard-response",447,350246,"0.0-4.145-0.145","4suuw8p8jectvdv",580,"175.csv","","330.40000009536743","resources/trios/L1T2A3.jpg","39","restless",0.5,0.7,0.6,0.316773402390259,"true"
"image-keyboard-response",448,350664,"0.0-4.145-1.145","4suuw8p8jectvdv",580,"175.csv","","null","resources/maskTrios/BBA3.jpg","null","",NA,NA,NA,NA,""
"image-keyboard-response",449,351876,"0.0-4.145-2.145","4suuw8p8jectvdv",580,"175.csv","","null","resources/images/coin2.png","null","",NA,NA,NA,NA,""
"image-keyboard-response",450,352238,"0.0-4.146-0.146","4suuw8p8jectvdv",580,"175.csv","","357.60000014305115","resources/trios/L1T2A3.jpg","39","restless",0.5,0.7,0.6,0.159732880026441,"true"
"image-keyboard-response",451,352652,"0.0-4.146-1.146","4suuw8p8jectvdv",580,"175.csv","","null","resources/maskTrios/BBA3.jpg","null","",NA,NA,NA,NA,""
"image-keyboard-response",452,353868,"0.0-4.146-2.146","4suuw8p8jectvdv",580,"175.csv","","null","resources/images/coin2.png","null","",NA,NA,NA,NA,""
"image-keyboard-response",453,354396,"0.0-4.147-0.147","4suuw8p8jectvdv",580,"175.csv","","525.8999998569489","resources/trios/L1T2A3.jpg","39","restless",0.5,0.7,0.6,0.00147899822562625,"true"
"image-keyboard-response",454,354808,"0.0-4.147-1.147","4suuw8p8jectvdv",580,"175.csv","","null","resources/maskTrios/BBA3.jpg","null","",NA,NA,NA,NA,""
"image-keyboard-response",455,356026,"0.0-4.147-2.147","4suuw8p8jectvdv",580,"175.csv","","null","resources/images/coin2.png","null","",NA,NA,NA,NA,""
"image-keyboard-response",456,356467,"0.0-4.148-0.148","4suuw8p8jectvdv",580,"175.csv","","440","resources/trios/L1T2A3.jpg","39","restless",0.5,0.7,0.6,0.413003387532604,"true"
"image-keyboard-response",457,356882,"0.0-4.148-1.148","4suuw8p8jectvdv",580,"175.csv","","null","resources/maskTrios/BBA3.jpg","null","",NA,NA,NA,NA,""
"image-keyboard-response",458,358087,"0.0-4.148-2.148","4suuw8p8jectvdv",580,"175.csv","","null","resources/images/coin2.png","null","",NA,NA,NA,NA,""
"image-keyboard-response",459,358541,"0.0-4.149-0.149","4suuw8p8jectvdv",580,"175.csv","","453.2999999523163","resources/trios/L1T2A3.jpg","39","restless",0.5,0.7,0.6,0.124807020148156,"true"
"image-keyboard-response",460,358960,"0.0-4.149-1.149","4suuw8p8jectvdv",580,"175.csv","","null","resources/maskTrios/BBA3.jpg","null","",NA,NA,NA,NA,""
"image-keyboard-response",461,360175,"0.0-4.149-2.149","4suuw8p8jectvdv",580,"175.csv","","null","resources/images/coin2.png","null","",NA,NA,NA,NA,""
"image-keyboard-response",462,360528,"0.0-4.150-0.150","4suuw8p8jectvdv",580,"175.csv","","351.80000019073486","resources/trios/L1T2A3.jpg","39","restless",0.5,0.7,0.6,0.0951450433379828,"true"
"image-keyboard-response",463,360938,"0.0-4.150-1.150","4suuw8p8jectvdv",580,"175.csv","","null","resources/maskTrios/BBA3.jpg","null","",NA,NA,NA,NA,""
"image-keyboard-response",464,362151,"0.0-4.150-2.150","4suuw8p8jectvdv",580,"175.csv","","null","resources/images/coin2.png","null","",NA,NA,NA,NA,""
"image-keyboard-response",465,362492,"0.0-4.151-0.151","4suuw8p8jectvdv",580,"175.csv","","338.7999999523163","resources/trios/L1T2A3.jpg","39","restless",0.5,0.7,0.6,0.235756231388135,"true"
"image-keyboard-response",466,362902,"0.0-4.151-1.151","4suuw8p8jectvdv",580,"175.csv","","null","resources/maskTrios/BBA3.jpg","null","",NA,NA,NA,NA,""
"image-keyboard-response",467,364115,"0.0-4.151-2.151","4suuw8p8jectvdv",580,"175.csv","","null","resources/images/coin2.png","null","",NA,NA,NA,NA,""
"image-keyboard-response",468,364577,"0.0-4.152-0.152","4suuw8p8jectvdv",580,"175.csv","","460","resources/trios/L1T2A3.jpg","39","restless",0.6,0.7,0.6,0.183089554199984,"true"
"image-keyboard-response",469,364986,"0.0-4.152-1.152","4suuw8p8jectvdv",580,"175.csv","","null","resources/maskTrios/BBA3.jpg","null","",NA,NA,NA,NA,""
"image-keyboard-response",470,366203,"0.0-4.152-2.152","4suuw8p8jectvdv",580,"175.csv","","null","resources/images/coin2.png","null","",NA,NA,NA,NA,""
"image-keyboard-response",471,366575,"0.0-4.153-0.153","4suuw8p8jectvdv",580,"175.csv","","370.7000000476837","resources/trios/L1T2A3.jpg","39","restless",0.6,0.7,0.6,0.340672453777421,"true"
"image-keyboard-response",472,366991,"0.0-4.153-1.153","4suuw8p8jectvdv",580,"175.csv","","null","resources/maskTrios/BBA3.jpg","null","",NA,NA,NA,NA,""
"image-keyboard-response",473,368207,"0.0-4.153-2.153","4suuw8p8jectvdv",580,"175.csv","","null","resources/images/coin2.png","null","",NA,NA,NA,NA,""
"image-keyboard-response",474,368673,"0.0-4.154-0.154","4suuw8p8jectvdv",580,"175.csv","","464","resources/trios/L1T2A3.jpg","39","restless",0.6,0.7,0.6,0.622962890662683,"false"
"image-keyboard-response",475,369083,"0.0-4.154-1.154","4suuw8p8jectvdv",580,"175.csv","","null","resources/maskTrios/BBA3.jpg","null","",NA,NA,NA,NA,""
"image-keyboard-response",476,370287,"0.0-4.154-2.154","4suuw8p8jectvdv",580,"175.csv","","null","resources/images/fishbone.png","null","",NA,NA,NA,NA,""
"image-keyboard-response",477,370784,"0.0-4.155-0.155","4suuw8p8jectvdv",580,"175.csv","","495.19999980926514","resources/trios/L1T2A3.jpg","38","restless",0.6,0.7,0.6,0.817186426576588,"false"
"image-keyboard-response",478,371194,"0.0-4.155-1.155","4suuw8p8jectvdv",580,"175.csv","","null","resources/maskTrios/BT2B.jpg","null","",NA,NA,NA,NA,""
"image-keyboard-response",479,372407,"0.0-4.155-2.155","4suuw8p8jectvdv",580,"175.csv","","null","resources/images/fishbone.png","null","",NA,NA,NA,NA,""
"image-keyboard-response",480,372907,"0.0-4.156-0.156","4suuw8p8jectvdv",580,"175.csv","","498.2000000476837","resources/trios/L1T2A3.jpg","39","restless",0.6,0.7,0.6,0.104842916981717,"true"
"image-keyboard-response",481,373322,"0.0-4.156-1.156","4suuw8p8jectvdv",580,"175.csv","","null","resources/maskTrios/BBA3.jpg","null","",NA,NA,NA,NA,""
"image-keyboard-response",482,374535,"0.0-4.156-2.156","4suuw8p8jectvdv",580,"175.csv","","null","resources/images/coin2.png","null","",NA,NA,NA,NA,""
"image-keyboard-response",483,374858,"0.0-4.157-0.157","4suuw8p8jectvdv",580,"175.csv","","321.2999999523163","resources/trios/L1T2A3.jpg","39","restless",0.6,0.6,0.6,0.692477026238317,"false"
"image-keyboard-response",484,375266,"0.0-4.157-1.157","4suuw8p8jectvdv",580,"175.csv","","null","resources/maskTrios/BBA3.jpg","null","",NA,NA,NA,NA,""
"image-keyboard-response",485,376481,"0.0-4.157-2.157","4suuw8p8jectvdv",580,"175.csv","","null","resources/images/fishbone.png","null","",NA,NA,NA,NA,""
"image-keyboard-response",486,376980,"0.0-4.158-0.158","4suuw8p8jectvdv",580,"175.csv","","497.69999980926514","resources/trios/L1T2A3.jpg","37","restless",0.6,0.6,0.6,0.718111625230205,"false"
"image-keyboard-response",487,377394,"0.0-4.158-1.158","4suuw8p8jectvdv",580,"175.csv","","null","resources/maskTrios/L1BB.jpg","null","",NA,NA,NA,NA,""
"image-keyboard-response",488,378610,"0.0-4.158-2.158","4suuw8p8jectvdv",580,"175.csv","","null","resources/images/fishbone.png","null","",NA,NA,NA,NA,""
"image-keyboard-response",489,379000,"0.0-4.159-0.159","4suuw8p8jectvdv",580,"175.csv","","388.40000009536743","resources/trios/L1T2A3.jpg","37","restless",0.6,0.5,0.7,0.783435728733235,"false"
"image-keyboard-response",490,379406,"0.0-4.159-1.159","4suuw8p8jectvdv",580,"175.csv","","null","resources/maskTrios/L1BB.jpg","null","",NA,NA,NA,NA,""
"image-keyboard-response",491,380619,"0.0-4.159-2.159","4suuw8p8jectvdv",580,"175.csv","","null","resources/images/fishbone.png","null","",NA,NA,NA,NA,""
"image-keyboard-response",492,380932,"0.0-4.160-0.160","4suuw8p8jectvdv",580,"175.csv","","312.09999990463257","resources/trios/L1T2A3.jpg","38","restless",0.6,0.5,0.7,0.420130995653966,"true"
"image-keyboard-response",493,381334,"0.0-4.160-1.160","4suuw8p8jectvdv",580,"175.csv","","null","resources/maskTrios/BT2B.jpg","null","",NA,NA,NA,NA,""
"image-keyboard-response",494,382538,"0.0-4.160-2.160","4suuw8p8jectvdv",580,"175.csv","","null","resources/images/coin2.png","null","",NA,NA,NA,NA,""
"image-keyboard-response",495,382835,"0.0-4.161-0.161","4suuw8p8jectvdv",580,"175.csv","","296.10000014305115","resources/trios/L1T2A3.jpg","38","restless",0.6,0.5,0.7,0.212906686815205,"true"
"image-keyboard-response",496,383241,"0.0-4.161-1.161","4suuw8p8jectvdv",580,"175.csv","","null","resources/maskTrios/BT2B.jpg","null","",NA,NA,NA,NA,""
"image-keyboard-response",497,384447,"0.0-4.161-2.161","4suuw8p8jectvdv",580,"175.csv","","null","resources/images/coin2.png","null","",NA,NA,NA,NA,""
"image-keyboard-response",498,384827,"0.0-4.162-0.162","4suuw8p8jectvdv",580,"175.csv","","378.7000000476837","resources/trios/L1T2A3.jpg","38","restless",0.6,0.5,0.6,0.140629728304916,"true"
"image-keyboard-response",499,385245,"0.0-4.162-1.162","4suuw8p8jectvdv",580,"175.csv","","null","resources/maskTrios/BT2B.jpg","null","",NA,NA,NA,NA,""
"image-keyboard-response",500,386458,"0.0-4.162-2.162","4suuw8p8jectvdv",580,"175.csv","","null","resources/images/coin2.png","null","",NA,NA,NA,NA,""
"image-keyboard-response",501,386732,"0.0-4.163-0.163","4suuw8p8jectvdv",580,"175.csv","","272.2999999523163","resources/trios/L1T2A3.jpg","38","restless",0.6,0.5,0.6,0.905387835264916,"false"
"image-keyboard-response",502,387148,"0.0-4.163-1.163","4suuw8p8jectvdv",580,"175.csv","","null","resources/maskTrios/BT2B.jpg","null","",NA,NA,NA,NA,""
"image-keyboard-response",503,388351,"0.0-4.163-2.163","4suuw8p8jectvdv",580,"175.csv","","null","resources/images/fishbone.png","null","",NA,NA,NA,NA,""
"image-keyboard-response",504,388788,"0.0-4.164-0.164","4suuw8p8jectvdv",580,"175.csv","","434.5","resources/trios/L1T2A3.jpg","39","restless",0.6,0.5,0.6,0.0448838928524604,"true"
"image-keyboard-response",505,389211,"0.0-4.164-1.164","4suuw8p8jectvdv",580,"175.csv","","null","resources/maskTrios/BBA3.jpg","null","",NA,NA,NA,NA,""
"image-keyboard-response",506,390422,"0.0-4.164-2.164","4suuw8p8jectvdv",580,"175.csv","","null","resources/images/coin2.png","null","",NA,NA,NA,NA,""
"image-keyboard-response",507,390725,"0.0-4.165-0.165","4suuw8p8jectvdv",580,"175.csv","","299.2999999523163","resources/trios/L1T2A3.jpg","39","restless",0.5,0.5,0.6,0.695529532090019,"false"
"image-keyboard-response",508,391141,"0.0-4.165-1.165","4suuw8p8jectvdv",580,"175.csv","","null","resources/maskTrios/BBA3.jpg","null","",NA,NA,NA,NA,""
"image-keyboard-response",509,392356,"0.0-4.165-2.165","4suuw8p8jectvdv",580,"175.csv","","null","resources/images/fishbone.png","null","",NA,NA,NA,NA,""
"image-keyboard-response",510,392702,"0.0-4.166-0.166","4suuw8p8jectvdv",580,"175.csv","","344.2999999523163","resources/trios/L1T2A3.jpg","38","restless",0.5,0.5,0.6,0.0884832756508145,"true"
"image-keyboard-response",511,393119,"0.0-4.166-1.166","4suuw8p8jectvdv",580,"175.csv","","null","resources/maskTrios/BT2B.jpg","null","",NA,NA,NA,NA,""
"image-keyboard-response",512,394325,"0.0-4.166-2.166","4suuw8p8jectvdv",580,"175.csv","","null","resources/images/coin2.png","null","",NA,NA,NA,NA,""
"image-keyboard-response",513,394656,"0.0-4.167-0.167","4suuw8p8jectvdv",580,"175.csv","","328.69999980926514","resources/trios/L1T2A3.jpg","38","restless",0.5,0.5,0.6,0.282959104497827,"true"
"image-keyboard-response",514,395072,"0.0-4.167-1.167","4suuw8p8jectvdv",580,"175.csv","","null","resources/maskTrios/BT2B.jpg","null","",NA,NA,NA,NA,""
"image-keyboard-response",515,396287,"0.0-4.167-2.167","4suuw8p8jectvdv",580,"175.csv","","null","resources/images/coin2.png","null","",NA,NA,NA,NA,""
"image-keyboard-response",516,396628,"0.0-4.168-0.168","4suuw8p8jectvdv",580,"175.csv","","338.10000014305115","resources/trios/L1T2A3.jpg","38","restless",0.5,0.5,0.6,0.338296024143399,"true"
"image-keyboard-response",517,397036,"0.0-4.168-1.168","4suuw8p8jectvdv",580,"175.csv","","null","resources/maskTrios/BT2B.jpg","null","",NA,NA,NA,NA,""
"image-keyboard-response",518,398250,"0.0-4.168-2.168","4suuw8p8jectvdv",580,"175.csv","","null","resources/images/coin2.png","null","",NA,NA,NA,NA,""
"image-keyboard-response",519,398635,"0.0-4.169-0.169","4suuw8p8jectvdv",580,"175.csv","","384.40000009536743","resources/trios/L1T2A3.jpg","38","restless",0.5,0.5,0.6,0.112752713899871,"true"
"image-keyboard-response",520,399046,"0.0-4.169-1.169","4suuw8p8jectvdv",580,"175.csv","","null","resources/maskTrios/BT2B.jpg","null","",NA,NA,NA,NA,""
"image-keyboard-response",521,400252,"0.0-4.169-2.169","4suuw8p8jectvdv",580,"175.csv","","null","resources/images/coin2.png","null","",NA,NA,NA,NA,""
"image-keyboard-response",522,400525,"0.0-4.170-0.170","4suuw8p8jectvdv",580,"175.csv","","269.2999999523163","resources/trios/L1T2A3.jpg","38","restless",0.5,0.6,0.6,0.94040582956205,"false"
"image-keyboard-response",523,400938,"0.0-4.170-1.170","4suuw8p8jectvdv",580,"175.csv","","null","resources/maskTrios/BT2B.jpg","null","",NA,NA,NA,NA,""
"image-keyboard-response",524,402157,"0.0-4.170-2.170","4suuw8p8jectvdv",580,"175.csv","","null","resources/images/fishbone.png","null","",NA,NA,NA,NA,""
"image-keyboard-response",525,402525,"0.0-4.171-0.171","4suuw8p8jectvdv",580,"175.csv","","366.2000000476837","resources/trios/L1T2A3.jpg","38","restless",0.5,0.6,0.6,0.746466948894169,"false"
"image-keyboard-response",526,402952,"0.0-4.171-1.171","4suuw8p8jectvdv",580,"175.csv","","null","resources/maskTrios/BT2B.jpg","null","",NA,NA,NA,NA,""
"image-keyboard-response",527,404157,"0.0-4.171-2.171","4suuw8p8jectvdv",580,"175.csv","","null","resources/images/fishbone.png","null","",NA,NA,NA,NA,""
"image-keyboard-response",528,404416,"0.0-4.172-0.172","4suuw8p8jectvdv",580,"175.csv","","257.2000000476837","resources/trios/L1T2A3.jpg","39","restless",0.5,0.6,0.6,0.839358106820148,"false"
"image-keyboard-response",529,404826,"0.0-4.172-1.172","4suuw8p8jectvdv",580,"175.csv","","null","resources/maskTrios/BBA3.jpg","null","",NA,NA,NA,NA,""
"image-keyboard-response",530,406054,"0.0-4.172-2.172","4suuw8p8jectvdv",580,"175.csv","","null","resources/images/fishbone.png","null","",NA,NA,NA,NA,""
"image-keyboard-response",531,406591,"0.0-4.173-0.173","4suuw8p8jectvdv",580,"175.csv","","535.8000001907349","resources/trios/L1T2A3.jpg","37","restless",0.5,0.6,0.6,0.31503972199543,"true"
"image-keyboard-response",532,407006,"0.0-4.173-1.173","4suuw8p8jectvdv",580,"175.csv","","null","resources/maskTrios/L1BB.jpg","null","",NA,NA,NA,NA,""
"image-keyboard-response",533,408211,"0.0-4.173-2.173","4suuw8p8jectvdv",580,"175.csv","","null","resources/images/coin2.png","null","",NA,NA,NA,NA,""
"image-keyboard-response",534,408605,"0.0-4.174-0.174","4suuw8p8jectvdv",580,"175.csv","","391.59999990463257","resources/trios/L1T2A3.jpg","37","restless",0.5,0.6,0.6,0.343633192917658,"true"
"image-keyboard-response",535,409021,"0.0-4.174-1.174","4suuw8p8jectvdv",580,"175.csv","","null","resources/maskTrios/L1BB.jpg","null","",NA,NA,NA,NA,""
"image-keyboard-response",536,410224,"0.0-4.174-2.174","4suuw8p8jectvdv",580,"175.csv","","null","resources/images/coin2.png","null","",NA,NA,NA,NA,""
"image-keyboard-response",537,410657,"0.0-4.175-0.175","4suuw8p8jectvdv",580,"175.csv","","432","resources/trios/L1T2A3.jpg","37","restless",0.5,0.6,0.6,0.039951284537026,"true"
"image-keyboard-response",538,411071,"0.0-4.175-1.175","4suuw8p8jectvdv",580,"175.csv","","null","resources/maskTrios/L1BB.jpg","null","",NA,NA,NA,NA,""
"image-keyboard-response",539,412275,"0.0-4.175-2.175","4suuw8p8jectvdv",580,"175.csv","","null","resources/images/coin2.png","null","",NA,NA,NA,NA,""
"image-keyboard-response",540,412625,"0.0-4.176-0.176","4suuw8p8jectvdv",580,"175.csv","","347","resources/trios/L1T2A3.jpg","37","restless",0.5,0.6,0.6,0.48858968622183,"true"
"image-keyboard-response",541,413041,"0.0-4.176-1.176","4suuw8p8jectvdv",580,"175.csv","","null","resources/maskTrios/L1BB.jpg","null","",NA,NA,NA,NA,""
"image-keyboard-response",542,414262,"0.0-4.176-2.176","4suuw8p8jectvdv",580,"175.csv","","null","resources/images/coin2.png","null","",NA,NA,NA,NA,""
"image-keyboard-response",543,414567,"0.0-4.177-0.177","4suuw8p8jectvdv",580,"175.csv","","303","resources/trios/L1T2A3.jpg","37","restless",0.5,0.6,0.6,0.608090302797015,"false"
"image-keyboard-response",544,414978,"0.0-4.177-1.177","4suuw8p8jectvdv",580,"175.csv","","null","resources/maskTrios/L1BB.jpg","null","",NA,NA,NA,NA,""
"image-keyboard-response",545,416195,"0.0-4.177-2.177","4suuw8p8jectvdv",580,"175.csv","","null","resources/images/fishbone.png","null","",NA,NA,NA,NA,""
"image-keyboard-response",546,416515,"0.0-4.178-0.178","4suuw8p8jectvdv",580,"175.csv","","318.10000014305115","resources/trios/L1T2A3.jpg","39","restless",0.5,0.6,0.6,0.272301259096004,"true"
"image-keyboard-response",547,416930,"0.0-4.178-1.178","4suuw8p8jectvdv",580,"175.csv","","null","resources/maskTrios/BBA3.jpg","null","",NA,NA,NA,NA,""
"image-keyboard-response",548,418134,"0.0-4.178-2.178","4suuw8p8jectvdv",580,"175.csv","","null","resources/images/coin2.png","null","",NA,NA,NA,NA,""
"image-keyboard-response",549,418433,"0.0-4.179-0.179","4suuw8p8jectvdv",580,"175.csv","","297.10000014305115","resources/trios/L1T2A3.jpg","39","restless",0.5,0.6,0.6,0.449579058367241,"true"
"image-keyboard-response",550,418851,"0.0-4.179-1.179","4suuw8p8jectvdv",580,"175.csv","","null","resources/maskTrios/BBA3.jpg","null","",NA,NA,NA,NA,""
"image-keyboard-response",551,420066,"0.0-4.179-2.179","4suuw8p8jectvdv",580,"175.csv","","null","resources/images/coin2.png","null","",NA,NA,NA,NA,""
"image-keyboard-response",552,420354,"0.0-4.180-0.180","4suuw8p8jectvdv",580,"175.csv","","286.7999999523163","resources/trios/L1T2A3.jpg","39","restless",0.5,0.5,0.6,0.272305784004949,"true"
"image-keyboard-response",553,420766,"0.0-4.180-1.180","4suuw8p8jectvdv",580,"175.csv","","null","resources/maskTrios/BBA3.jpg","null","",NA,NA,NA,NA,""
"image-keyboard-response",554,421969,"0.0-4.180-2.180","4suuw8p8jectvdv",580,"175.csv","","null","resources/images/coin2.png","null","",NA,NA,NA,NA,""
"image-keyboard-response",555,422286,"0.0-4.181-0.181","4suuw8p8jectvdv",580,"175.csv","","313.89999985694885","resources/trios/L1T2A3.jpg","39","restless",0.5,0.5,0.6,0.634930712573768,"false"
"image-keyboard-response",556,422701,"0.0-4.181-1.181","4suuw8p8jectvdv",580,"175.csv","","null","resources/maskTrios/BBA3.jpg","null","",NA,NA,NA,NA,""
"image-keyboard-response",557,423908,"0.0-4.181-2.181","4suuw8p8jectvdv",580,"175.csv","","null","resources/images/fishbone.png","null","",NA,NA,NA,NA,""
"image-keyboard-response",558,424299,"0.0-4.182-0.182","4suuw8p8jectvdv",580,"175.csv","","388.59999990463257","resources/trios/L1T2A3.jpg","38","restless",0.5,0.5,0.5,0.686735403931055,"false"
"image-keyboard-response",559,424714,"0.0-4.182-1.182","4suuw8p8jectvdv",580,"175.csv","","null","resources/maskTrios/BT2B.jpg","null","",NA,NA,NA,NA,""
"image-keyboard-response",560,425933,"0.0-4.182-2.182","4suuw8p8jectvdv",580,"175.csv","","null","resources/images/fishbone.png","null","",NA,NA,NA,NA,""
"image-keyboard-response",561,426225,"0.0-4.183-0.183","4suuw8p8jectvdv",580,"175.csv","","291.40000009536743","resources/trios/L1T2A3.jpg","37","restless",0.5,0.4,0.4,0.73965779004717,"false"
"image-keyboard-response",562,426633,"0.0-4.183-1.183","4suuw8p8jectvdv",580,"175.csv","","null","resources/maskTrios/L1BB.jpg","null","",NA,NA,NA,NA,""
"image-keyboard-response",563,427849,"0.0-4.183-2.183","4suuw8p8jectvdv",580,"175.csv","","null","resources/images/fishbone.png","null","",NA,NA,NA,NA,""
"image-keyboard-response",564,428168,"0.0-4.184-0.184","4suuw8p8jectvdv",580,"175.csv","","315.7999999523163","resources/trios/L1T2A3.jpg","39","restless",0.5,0.4,0.4,0.76521092324002,"false"
"image-keyboard-response",565,428581,"0.0-4.184-1.184","4suuw8p8jectvdv",580,"175.csv","","null","resources/maskTrios/BBA3.jpg","null","",NA,NA,NA,NA,""
"image-keyboard-response",566,429799,"0.0-4.184-2.184","4suuw8p8jectvdv",580,"175.csv","","null","resources/images/fishbone.png","null","",NA,NA,NA,NA,""
"image-keyboard-response",567,430185,"0.0-4.185-0.185","4suuw8p8jectvdv",580,"175.csv","","384","resources/trios/L1T2A3.jpg","38","restless",0.5,0.4,0.4,0.433877085308391,"false"
"image-keyboard-response",568,430593,"0.0-4.185-1.185","4suuw8p8jectvdv",580,"175.csv","","null","resources/maskTrios/BT2B.jpg","null","",NA,NA,NA,NA,""
"image-keyboard-response",569,431818,"0.0-4.185-2.185","4suuw8p8jectvdv",580,"175.csv","","null","resources/images/fishbone.png","null","",NA,NA,NA,NA,""
"image-keyboard-response",570,432230,"0.0-4.186-0.186","4suuw8p8jectvdv",580,"175.csv","","411","resources/trios/L1T2A3.jpg","39","restless",0.5,0.4,0.4,0.449881612828958,"false"
"image-keyboard-response",571,432636,"0.0-4.186-1.186","4suuw8p8jectvdv",580,"175.csv","","null","resources/maskTrios/BBA3.jpg","null","",NA,NA,NA,NA,""
"image-keyboard-response",572,433866,"0.0-4.186-2.186","4suuw8p8jectvdv",580,"175.csv","","null","resources/images/fishbone.png","null","",NA,NA,NA,NA,""
"image-keyboard-response",573,434161,"0.0-4.187-0.187","4suuw8p8jectvdv",580,"175.csv","","292.2000000476837","resources/trios/L1T2A3.jpg","37","restless",0.5,0.4,0.3,0.103710100497588,"true"
"image-keyboard-response",574,434584,"0.0-4.187-1.187","4suuw8p8jectvdv",580,"175.csv","","null","resources/maskTrios/L1BB.jpg","null","",NA,NA,NA,NA,""
"image-keyboard-response",575,435796,"0.0-4.187-2.187","4suuw8p8jectvdv",580,"175.csv","","null","resources/images/coin2.png","null","",NA,NA,NA,NA,""
"image-keyboard-response",576,436240,"0.0-4.188-0.188","4suuw8p8jectvdv",580,"175.csv","","441.09999990463257","resources/trios/L1T2A3.jpg","37","restless",0.5,0.4,0.3,0.369926639357924,"true"
"image-keyboard-response",577,436652,"0.0-4.188-1.188","4suuw8p8jectvdv",580,"175.csv","","null","resources/maskTrios/L1BB.jpg","null","",NA,NA,NA,NA,""
"image-keyboard-response",578,437869,"0.0-4.188-2.188","4suuw8p8jectvdv",580,"175.csv","","null","resources/images/coin2.png","null","",NA,NA,NA,NA,""
"image-keyboard-response",579,438184,"0.0-4.189-0.189","4suuw8p8jectvdv",580,"175.csv","","313.30000019073486","resources/trios/L1T2A3.jpg","37","restless",0.5,0.4,0.3,0.167314475883309,"true"
"image-keyboard-response",580,438591,"0.0-4.189-1.189","4suuw8p8jectvdv",580,"175.csv","","null","resources/maskTrios/L1BB.jpg","null","",NA,NA,NA,NA,""
"image-keyboard-response",581,439804,"0.0-4.189-2.189","4suuw8p8jectvdv",580,"175.csv","","null","resources/images/coin2.png","null","",NA,NA,NA,NA,""
"image-keyboard-response",582,440139,"0.0-4.190-0.190","4suuw8p8jectvdv",580,"175.csv","","334.39999985694885","resources/trios/L1T2A3.jpg","37","restless",0.5,0.4,0.3,0.168647101599868,"true"
"image-keyboard-response",583,440553,"0.0-4.190-1.190","4suuw8p8jectvdv",580,"175.csv","","null","resources/maskTrios/L1BB.jpg","null","",NA,NA,NA,NA,""
"image-keyboard-response",584,441764,"0.0-4.190-2.190","4suuw8p8jectvdv",580,"175.csv","","null","resources/images/coin2.png","null","",NA,NA,NA,NA,""
"image-keyboard-response",585,442105,"0.0-4.191-0.191","4suuw8p8jectvdv",580,"175.csv","","339.2000000476837","resources/trios/L1T2A3.jpg","37","restless",0.5,0.4,0.3,0.985349823833138,"false"
"image-keyboard-response",586,442513,"0.0-4.191-1.191","4suuw8p8jectvdv",580,"175.csv","","null","resources/maskTrios/L1BB.jpg","null","",NA,NA,NA,NA,""
"image-keyboard-response",587,443731,"0.0-4.191-2.191","4suuw8p8jectvdv",580,"175.csv","","null","resources/images/fishbone.png","null","",NA,NA,NA,NA,""
"image-keyboard-response",588,444159,"0.0-4.192-0.192","4suuw8p8jectvdv",580,"175.csv","","427","resources/trios/L1T2A3.jpg","39","restless",0.5,0.4,0.3,0.617612686943194,"false"
"image-keyboard-response",589,444569,"0.0-4.192-1.192","4suuw8p8jectvdv",580,"175.csv","","null","resources/maskTrios/BBA3.jpg","null","",NA,NA,NA,NA,""
"image-keyboard-response",590,445785,"0.0-4.192-2.192","4suuw8p8jectvdv",580,"175.csv","","null","resources/images/fishbone.png","null","",NA,NA,NA,NA,""
"image-keyboard-response",591,446130,"0.0-4.193-0.193","4suuw8p8jectvdv",580,"175.csv","","342.59999990463257","resources/trios/L1T2A3.jpg","38","restless",0.5,0.4,0.3,0.899580561363229,"false"
"image-keyboard-response",592,446548,"0.0-4.193-1.193","4suuw8p8jectvdv",580,"175.csv","","null","resources/maskTrios/BT2B.jpg","null","",NA,NA,NA,NA,""
"image-keyboard-response",593,447764,"0.0-4.193-2.193","4suuw8p8jectvdv",580,"175.csv","","null","resources/images/fishbone.png","null","",NA,NA,NA,NA,""
"image-keyboard-response",594,448080,"0.0-4.194-0.194","4suuw8p8jectvdv",580,"175.csv","","314.7000000476837","resources/trios/L1T2A3.jpg","37","restless",0.5,0.5,0.3,0.213786187105623,"true"
"image-keyboard-response",595,448497,"0.0-4.194-1.194","4suuw8p8jectvdv",580,"175.csv","","null","resources/maskTrios/L1BB.jpg","null","",NA,NA,NA,NA,""
"image-keyboard-response",596,449712,"0.0-4.194-2.194","4suuw8p8jectvdv",580,"175.csv","","null","resources/images/coin2.png","null","",NA,NA,NA,NA,""
"image-keyboard-response",597,449986,"0.0-4.195-0.195","4suuw8p8jectvdv",580,"175.csv","","272","resources/trios/L1T2A3.jpg","37","restless",0.5,0.5,0.3,0.945937385630718,"false"
"image-keyboard-response",598,450390,"0.0-4.195-1.195","4suuw8p8jectvdv",580,"175.csv","","null","resources/maskTrios/L1BB.jpg","null","",NA,NA,NA,NA,""
"image-keyboard-response",599,451596,"0.0-4.195-2.195","4suuw8p8jectvdv",580,"175.csv","","null","resources/images/fishbone.png","null","",NA,NA,NA,NA,""
"image-keyboard-response",600,451975,"0.0-4.196-0.196","4suuw8p8jectvdv",580,"175.csv","","377.7000000476837","resources/trios/L1T2A3.jpg","39","restless",0.5,0.5,0.3,0.966112402281956,"false"
"image-keyboard-response",601,452379,"0.0-4.196-1.196","4suuw8p8jectvdv",580,"175.csv","","null","resources/maskTrios/BBA3.jpg","null","",NA,NA,NA,NA,""
"image-keyboard-response",602,453583,"0.0-4.196-2.196","4suuw8p8jectvdv",580,"175.csv","","null","resources/images/fishbone.png","null","",NA,NA,NA,NA,""
"image-keyboard-response",603,453908,"0.0-4.197-0.197","4suuw8p8jectvdv",580,"175.csv","","323","resources/trios/L1T2A3.jpg","37","restless",0.5,0.5,0.3,0.760505599583733,"false"
"image-keyboard-response",604,454319,"0.0-4.197-1.197","4suuw8p8jectvdv",580,"175.csv","","null","resources/maskTrios/L1BB.jpg","null","",NA,NA,NA,NA,""
"image-keyboard-response",605,455522,"0.0-4.197-2.197","4suuw8p8jectvdv",580,"175.csv","","null","resources/images/fishbone.png","null","",NA,NA,NA,NA,""
"image-keyboard-response",606,456027,"0.0-4.198-0.198","4suuw8p8jectvdv",580,"175.csv","","501.59999990463257","resources/trios/L1T2A3.jpg","38","restless",0.5,0.5,0.3,0.982020385465772,"false"
"image-keyboard-response",607,456443,"0.0-4.198-1.198","4suuw8p8jectvdv",580,"175.csv","","null","resources/maskTrios/BT2B.jpg","null","",NA,NA,NA,NA,""
"image-keyboard-response",608,457656,"0.0-4.198-2.198","4suuw8p8jectvdv",580,"175.csv","","null","resources/images/fishbone.png","null","",NA,NA,NA,NA,""
