"trial_type","trial_index","time_elapsed","internal_node_id","subject","participantCode","walkNumber","success","rt","stimulus","key_press","test_part","leftProb","midProb","rightProb","generatedNum","correct"
"pavlovia",0,1043,"0.0-0.0","0f19oxync82ef5o",585,"46.csv","","","","","",NA,NA,NA,NA,""
"fullscreen",1,3676,"0.0-1.0","0f19oxync82ef5o",585,"46.csv","true","","","","",NA,NA,NA,NA,""
"survey-html-form",2,10447,"0.0-2.0","0f19oxync82ef5o",585,"46.csv","","6719","","","",NA,NA,NA,NA,""
"image-keyboard-response",3,19148,"0.0-3.0-0.0","0f19oxync82ef5o",585,"46.csv","","8699","resources/images/parrot_nobg.png","13","",NA,NA,NA,NA,""
"image-keyboard-response",4,22156,"0.0-3.0-1.0","0f19oxync82ef5o",585,"46.csv","","null","resources/image_sets/111.png","null","",NA,NA,NA,NA,""
"image-keyboard-response",5,25185,"0.0-3.0-2.0","0f19oxync82ef5o",585,"46.csv","","3027","resources/image_sets/left_highlight.png","37","",NA,NA,NA,NA,""
"image-keyboard-response",6,26169,"0.0-3.0-3.0","0f19oxync82ef5o",585,"46.csv","","983","resources/image_sets/mid_highlight.png","38","",NA,NA,NA,NA,""
"image-keyboard-response",7,26867,"0.0-3.0-4.0","0f19oxync82ef5o",585,"46.csv","","696","resources/image_sets/right_highlight.png","39","",NA,NA,NA,NA,""
"image-keyboard-response",8,29171,"0.0-3.0-5.0","0f19oxync82ef5o",585,"46.csv","","2302","resources/image_sets/111.png","13","",NA,NA,NA,NA,""
"image-keyboard-response",9,30665,"0.0-3.0-6.0","0f19oxync82ef5o",585,"46.csv","","1495","resources/images/coin2.png","13","",NA,NA,NA,NA,""
"image-keyboard-response",10,31559,"0.0-3.0-7.0","0f19oxync82ef5o",585,"46.csv","","894","resources/images/fishbone.png","13","",NA,NA,NA,NA,""
"html-keyboard-response",11,36347,"0.0-3.0-8.0","0f19oxync82ef5o",585,"46.csv","","4787","<p>You can track your coin total on the top right of your screen. </p><p>At the end of your journey you will be directed to a survey, so please click on the link before exiting the task</p><p>Press Enter to begin</p>","13","",NA,NA,NA,NA,""
"image-keyboard-response",12,38044,"0.0-4.0-0.0","0f19oxync82ef5o",585,"46.csv","","1697","resources/trios/L4T4A2.jpg","37","restless",0.3,0.9,0.7,0.673566789159816,"false"
"image-keyboard-response",13,38453,"0.0-4.0-1.0","0f19oxync82ef5o",585,"46.csv","","null","resources/maskTrios/L4BB.jpg","null","",NA,NA,NA,NA,""
"image-keyboard-response",14,39656,"0.0-4.0-2.0","0f19oxync82ef5o",585,"46.csv","","null","resources/images/fishbone.png","null","",NA,NA,NA,NA,""
"image-keyboard-response",15,40102,"0.0-4.1-0.1","0f19oxync82ef5o",585,"46.csv","","442","resources/trios/L4T4A2.jpg","37","restless",0.3,0.9,0.7,0.0977230493560177,"true"
"image-keyboard-response",16,40513,"0.0-4.1-1.1","0f19oxync82ef5o",585,"46.csv","","null","resources/maskTrios/L4BB.jpg","null","",NA,NA,NA,NA,""
"image-keyboard-response",17,41723,"0.0-4.1-2.1","0f19oxync82ef5o",585,"46.csv","","null","resources/images/coin2.png","null","",NA,NA,NA,NA,""
"image-keyboard-response",18,42134,"0.0-4.2-0.2","0f19oxync82ef5o",585,"46.csv","","410","resources/trios/L4T4A2.jpg","38","restless",0.3,0.9,0.7,0.840291708331919,"true"
"image-keyboard-response",19,42538,"0.0-4.2-1.2","0f19oxync82ef5o",585,"46.csv","","null","resources/maskTrios/BT4B.jpg","null","",NA,NA,NA,NA,""
"image-keyboard-response",20,43750,"0.0-4.2-2.2","0f19oxync82ef5o",585,"46.csv","","null","resources/images/coin2.png","null","",NA,NA,NA,NA,""
"image-keyboard-response",21,44131,"0.0-4.3-0.3","0f19oxync82ef5o",585,"46.csv","","380","resources/trios/L4T4A2.jpg","39","restless",0.3,0.9,0.7,0.3771145325125,"true"
"image-keyboard-response",22,44542,"0.0-4.3-1.3","0f19oxync82ef5o",585,"46.csv","","null","resources/maskTrios/BBA2.jpg","null","",NA,NA,NA,NA,""
"image-keyboard-response",23,45756,"0.0-4.3-2.3","0f19oxync82ef5o",585,"46.csv","","null","resources/images/coin2.png","null","",NA,NA,NA,NA,""
"image-keyboard-response",24,46004,"0.0-4.4-0.4","0f19oxync82ef5o",585,"46.csv","","247","resources/trios/L4T4A2.jpg","37","restless",0.3,0.9,0.7,0.521053698316724,"false"
"image-keyboard-response",25,46408,"0.0-4.4-1.4","0f19oxync82ef5o",585,"46.csv","","null","resources/maskTrios/L4BB.jpg","null","",NA,NA,NA,NA,""
"image-keyboard-response",26,47657,"0.0-4.4-2.4","0f19oxync82ef5o",585,"46.csv","","null","resources/images/fishbone.png","null","",NA,NA,NA,NA,""
"image-keyboard-response",27,47876,"0.0-4.5-0.5","0f19oxync82ef5o",585,"46.csv","","216","resources/trios/L4T4A2.jpg","38","restless",0.3,0.9,0.7,0.41446060867158,"true"
"image-keyboard-response",28,48281,"0.0-4.5-1.5","0f19oxync82ef5o",585,"46.csv","","null","resources/maskTrios/BT4B.jpg","null","",NA,NA,NA,NA,""
"image-keyboard-response",29,49491,"0.0-4.5-2.5","0f19oxync82ef5o",585,"46.csv","","null","resources/images/coin2.png","null","",NA,NA,NA,NA,""
"image-keyboard-response",30,49817,"0.0-4.6-0.6","0f19oxync82ef5o",585,"46.csv","","324","resources/trios/L4T4A2.jpg","38","restless",0.3,0.9,0.7,0.272951617717021,"true"
"image-keyboard-response",31,50220,"0.0-4.6-1.6","0f19oxync82ef5o",585,"46.csv","","null","resources/maskTrios/BT4B.jpg","null","",NA,NA,NA,NA,""
"image-keyboard-response",32,51429,"0.0-4.6-2.6","0f19oxync82ef5o",585,"46.csv","","null","resources/images/coin2.png","null","",NA,NA,NA,NA,""
"image-keyboard-response",33,51867,"0.0-4.7-0.7","0f19oxync82ef5o",585,"46.csv","","437","resources/trios/L4T4A2.jpg","38","restless",0.4,0.9,0.8,0.0847864397425135,"true"
"image-keyboard-response",34,52281,"0.0-4.7-1.7","0f19oxync82ef5o",585,"46.csv","","null","resources/maskTrios/BT4B.jpg","null","",NA,NA,NA,NA,""
"image-keyboard-response",35,53492,"0.0-4.7-2.7","0f19oxync82ef5o",585,"46.csv","","null","resources/images/coin2.png","null","",NA,NA,NA,NA,""
"image-keyboard-response",36,53730,"0.0-4.8-0.8","0f19oxync82ef5o",585,"46.csv","","237","resources/trios/L4T4A2.jpg","38","restless",0.4,0.8,0.8,0.137175751298914,"true"
"image-keyboard-response",37,54146,"0.0-4.8-1.8","0f19oxync82ef5o",585,"46.csv","","null","resources/maskTrios/BT4B.jpg","null","",NA,NA,NA,NA,""
"image-keyboard-response",38,55361,"0.0-4.8-2.8","0f19oxync82ef5o",585,"46.csv","","null","resources/images/coin2.png","null","",NA,NA,NA,NA,""
"image-keyboard-response",39,55611,"0.0-4.9-0.9","0f19oxync82ef5o",585,"46.csv","","250","resources/trios/L4T4A2.jpg","38","restless",0.4,0.8,0.8,0.117860177659335,"true"
"image-keyboard-response",40,56013,"0.0-4.9-1.9","0f19oxync82ef5o",585,"46.csv","","null","resources/maskTrios/BT4B.jpg","null","",NA,NA,NA,NA,""
"image-keyboard-response",41,57227,"0.0-4.9-2.9","0f19oxync82ef5o",585,"46.csv","","null","resources/images/coin2.png","null","",NA,NA,NA,NA,""
"image-keyboard-response",42,57468,"0.0-4.10-0.10","0f19oxync82ef5o",585,"46.csv","","240","resources/trios/L4T4A2.jpg","38","restless",0.5,0.8,0.8,0.591940541880865,"true"
"image-keyboard-response",43,57882,"0.0-4.10-1.10","0f19oxync82ef5o",585,"46.csv","","null","resources/maskTrios/BT4B.jpg","null","",NA,NA,NA,NA,""
"image-keyboard-response",44,59090,"0.0-4.10-2.10","0f19oxync82ef5o",585,"46.csv","","null","resources/images/coin2.png","null","",NA,NA,NA,NA,""
"image-keyboard-response",45,59377,"0.0-4.11-0.11","0f19oxync82ef5o",585,"46.csv","","285","resources/trios/L4T4A2.jpg","38","restless",0.5,0.8,0.8,0.887582203135083,"false"
"image-keyboard-response",46,59790,"0.0-4.11-1.11","0f19oxync82ef5o",585,"46.csv","","null","resources/maskTrios/BT4B.jpg","null","",NA,NA,NA,NA,""
"image-keyboard-response",47,61003,"0.0-4.11-2.11","0f19oxync82ef5o",585,"46.csv","","null","resources/images/fishbone.png","null","",NA,NA,NA,NA,""
"image-keyboard-response",48,61261,"0.0-4.12-0.12","0f19oxync82ef5o",585,"46.csv","","257","resources/trios/L4T4A2.jpg","37","restless",0.5,0.8,0.8,0.221248949759243,"true"
"image-keyboard-response",49,61670,"0.0-4.12-1.12","0f19oxync82ef5o",585,"46.csv","","null","resources/maskTrios/L4BB.jpg","null","",NA,NA,NA,NA,""
"image-keyboard-response",50,62882,"0.0-4.12-2.12","0f19oxync82ef5o",585,"46.csv","","null","resources/images/coin2.png","null","",NA,NA,NA,NA,""
"image-keyboard-response",51,63143,"0.0-4.13-0.13","0f19oxync82ef5o",585,"46.csv","","258","resources/trios/L4T4A2.jpg","37","restless",0.5,0.8,0.8,0.494229781100764,"true"
"image-keyboard-response",52,63548,"0.0-4.13-1.13","0f19oxync82ef5o",585,"46.csv","","null","resources/maskTrios/L4BB.jpg","null","",NA,NA,NA,NA,""
"image-keyboard-response",53,64759,"0.0-4.13-2.13","0f19oxync82ef5o",585,"46.csv","","null","resources/images/coin2.png","null","",NA,NA,NA,NA,""
"image-keyboard-response",54,65056,"0.0-4.14-0.14","0f19oxync82ef5o",585,"46.csv","","296","resources/trios/L4T4A2.jpg","37","restless",0.5,0.8,0.9,0.238449545895301,"true"
"image-keyboard-response",55,65460,"0.0-4.14-1.14","0f19oxync82ef5o",585,"46.csv","","null","resources/maskTrios/L4BB.jpg","null","",NA,NA,NA,NA,""
"image-keyboard-response",56,66675,"0.0-4.14-2.14","0f19oxync82ef5o",585,"46.csv","","null","resources/images/coin2.png","null","",NA,NA,NA,NA,""
"image-keyboard-response",57,66965,"0.0-4.15-0.15","0f19oxync82ef5o",585,"46.csv","","289","resources/trios/L4T4A2.jpg","37","restless",0.5,0.8,0.9,0.354266112707998,"true"
"image-keyboard-response",58,67372,"0.0-4.15-1.15","0f19oxync82ef5o",585,"46.csv","","null","resources/maskTrios/L4BB.jpg","null","",NA,NA,NA,NA,""
"image-keyboard-response",59,68585,"0.0-4.15-2.15","0f19oxync82ef5o",585,"46.csv","","null","resources/images/coin2.png","null","",NA,NA,NA,NA,""
"image-keyboard-response",60,68857,"0.0-4.16-0.16","0f19oxync82ef5o",585,"46.csv","","269","resources/trios/L4T4A2.jpg","37","restless",0.5,0.8,0.8,0.988168009869061,"false"
"image-keyboard-response",61,69272,"0.0-4.16-1.16","0f19oxync82ef5o",585,"46.csv","","null","resources/maskTrios/L4BB.jpg","null","",NA,NA,NA,NA,""
"image-keyboard-response",62,70488,"0.0-4.16-2.16","0f19oxync82ef5o",585,"46.csv","","null","resources/images/fishbone.png","null","",NA,NA,NA,NA,""
"image-keyboard-response",63,70741,"0.0-4.17-0.17","0f19oxync82ef5o",585,"46.csv","","247","resources/trios/L4T4A2.jpg","39","restless",0.4,0.8,0.8,0.142190604224981,"true"
"image-keyboard-response",64,71157,"0.0-4.17-1.17","0f19oxync82ef5o",585,"46.csv","","null","resources/maskTrios/BBA2.jpg","null","",NA,NA,NA,NA,""
"image-keyboard-response",65,72359,"0.0-4.17-2.17","0f19oxync82ef5o",585,"46.csv","","null","resources/images/coin2.png","null","",NA,NA,NA,NA,""
"image-keyboard-response",66,72576,"0.0-4.18-0.18","0f19oxync82ef5o",585,"46.csv","","214","resources/trios/L4T4A2.jpg","39","restless",0.4,0.8,0.8,0.909203429483767,"false"
"image-keyboard-response",67,72982,"0.0-4.18-1.18","0f19oxync82ef5o",585,"46.csv","","null","resources/maskTrios/BBA2.jpg","null","",NA,NA,NA,NA,""
"image-keyboard-response",68,74194,"0.0-4.18-2.18","0f19oxync82ef5o",585,"46.csv","","null","resources/images/fishbone.png","null","",NA,NA,NA,NA,""
"image-keyboard-response",69,74416,"0.0-4.19-0.19","0f19oxync82ef5o",585,"46.csv","","220","resources/trios/L4T4A2.jpg","38","restless",0.4,0.8,0.8,0.365070301177387,"true"
"image-keyboard-response",70,74826,"0.0-4.19-1.19","0f19oxync82ef5o",585,"46.csv","","null","resources/maskTrios/BT4B.jpg","null","",NA,NA,NA,NA,""
"image-keyboard-response",71,76028,"0.0-4.19-2.19","0f19oxync82ef5o",585,"46.csv","","null","resources/images/coin2.png","null","",NA,NA,NA,NA,""
"image-keyboard-response",72,76267,"0.0-4.20-0.20","0f19oxync82ef5o",585,"46.csv","","237","resources/trios/L4T4A2.jpg","38","restless",0.4,0.7,0.8,0.339600546431179,"true"
"image-keyboard-response",73,76683,"0.0-4.20-1.20","0f19oxync82ef5o",585,"46.csv","","null","resources/maskTrios/BT4B.jpg","null","",NA,NA,NA,NA,""
"image-keyboard-response",74,77896,"0.0-4.20-2.20","0f19oxync82ef5o",585,"46.csv","","null","resources/images/coin2.png","null","",NA,NA,NA,NA,""
"image-keyboard-response",75,78537,"0.0-4.21-0.21","0f19oxync82ef5o",585,"46.csv","","639","resources/trios/L4T4A2.jpg","38","restless",0.4,0.7,0.8,0.894171771407575,"false"
"image-keyboard-response",76,78953,"0.0-4.21-1.21","0f19oxync82ef5o",585,"46.csv","","null","resources/maskTrios/BT4B.jpg","null","",NA,NA,NA,NA,""
"image-keyboard-response",77,80168,"0.0-4.21-2.21","0f19oxync82ef5o",585,"46.csv","","null","resources/images/fishbone.png","null","",NA,NA,NA,NA,""
"image-keyboard-response",78,80515,"0.0-4.22-0.22","0f19oxync82ef5o",585,"46.csv","","347","resources/trios/L4T4A2.jpg","37","restless",0.4,0.7,0.8,0.802054612095279,"false"
"image-keyboard-response",79,80921,"0.0-4.22-1.22","0f19oxync82ef5o",585,"46.csv","","null","resources/maskTrios/L4BB.jpg","null","",NA,NA,NA,NA,""
"image-keyboard-response",80,82129,"0.0-4.22-2.22","0f19oxync82ef5o",585,"46.csv","","null","resources/images/fishbone.png","null","",NA,NA,NA,NA,""
"image-keyboard-response",81,82374,"0.0-4.23-0.23","0f19oxync82ef5o",585,"46.csv","","243","resources/trios/L4T4A2.jpg","39","restless",0.4,0.7,0.8,0.954277689324748,"false"
"image-keyboard-response",82,82785,"0.0-4.23-1.23","0f19oxync82ef5o",585,"46.csv","","null","resources/maskTrios/BBA2.jpg","null","",NA,NA,NA,NA,""
"image-keyboard-response",83,83992,"0.0-4.23-2.23","0f19oxync82ef5o",585,"46.csv","","null","resources/images/fishbone.png","null","",NA,NA,NA,NA,""
"image-keyboard-response",84,84221,"0.0-4.24-0.24","0f19oxync82ef5o",585,"46.csv","","229","resources/trios/L4T4A2.jpg","38","restless",0.4,0.7,0.9,0.165675906959561,"true"
"image-keyboard-response",85,84629,"0.0-4.24-1.24","0f19oxync82ef5o",585,"46.csv","","null","resources/maskTrios/BT4B.jpg","null","",NA,NA,NA,NA,""
"image-keyboard-response",86,85837,"0.0-4.24-2.24","0f19oxync82ef5o",585,"46.csv","","null","resources/images/coin2.png","null","",NA,NA,NA,NA,""
"image-keyboard-response",87,86088,"0.0-4.25-0.25","0f19oxync82ef5o",585,"46.csv","","249","resources/trios/L4T4A2.jpg","38","restless",0.4,0.6,0.9,0.617379596569485,"false"
"image-keyboard-response",88,86491,"0.0-4.25-1.25","0f19oxync82ef5o",585,"46.csv","","null","resources/maskTrios/BT4B.jpg","null","",NA,NA,NA,NA,""
"image-keyboard-response",89,87735,"0.0-4.25-2.25","0f19oxync82ef5o",585,"46.csv","","null","resources/images/fishbone.png","null","",NA,NA,NA,NA,""
"image-keyboard-response",90,88019,"0.0-4.26-0.26","0f19oxync82ef5o",585,"46.csv","","283","resources/trios/L4T4A2.jpg","37","restless",0.4,0.6,0.9,0.193523591801508,"true"
"image-keyboard-response",91,88434,"0.0-4.26-1.26","0f19oxync82ef5o",585,"46.csv","","null","resources/maskTrios/L4BB.jpg","null","",NA,NA,NA,NA,""
"image-keyboard-response",92,89642,"0.0-4.26-2.26","0f19oxync82ef5o",585,"46.csv","","null","resources/images/coin2.png","null","",NA,NA,NA,NA,""
"image-keyboard-response",93,90079,"0.0-4.27-0.27","0f19oxync82ef5o",585,"46.csv","","435","resources/trios/L4T4A2.jpg","37","restless",0.4,0.6,0.9,0.689664415969387,"false"
"image-keyboard-response",94,90482,"0.0-4.27-1.27","0f19oxync82ef5o",585,"46.csv","","null","resources/maskTrios/L4BB.jpg","null","",NA,NA,NA,NA,""
"image-keyboard-response",95,91697,"0.0-4.27-2.27","0f19oxync82ef5o",585,"46.csv","","null","resources/images/fishbone.png","null","",NA,NA,NA,NA,""
"image-keyboard-response",96,95081,"0.0-4.28-0.28","0f19oxync82ef5o",585,"46.csv","","3383","resources/trios/L4T4A2.jpg","39","restless",0.4,0.6,0.9,0.951628772459567,"false"
"image-keyboard-response",97,95488,"0.0-4.28-1.28","0f19oxync82ef5o",585,"46.csv","","null","resources/maskTrios/BBA2.jpg","null","",NA,NA,NA,NA,""
"image-keyboard-response",98,96691,"0.0-4.28-2.28","0f19oxync82ef5o",585,"46.csv","","null","resources/images/fishbone.png","null","",NA,NA,NA,NA,""
"image-keyboard-response",99,96963,"0.0-4.29-0.29","0f19oxync82ef5o",585,"46.csv","","273","resources/trios/L4T4A2.jpg","38","restless",0.4,0.6,0.9,0.787257968786527,"false"
"image-keyboard-response",100,97377,"0.0-4.29-1.29","0f19oxync82ef5o",585,"46.csv","","null","resources/maskTrios/BT4B.jpg","null","",NA,NA,NA,NA,""
"image-keyboard-response",101,98590,"0.0-4.29-2.29","0f19oxync82ef5o",585,"46.csv","","null","resources/images/fishbone.png","null","",NA,NA,NA,NA,""
"image-keyboard-response",102,98871,"0.0-4.30-0.30","0f19oxync82ef5o",585,"46.csv","","279","resources/trios/L4T4A2.jpg","37","restless",0.4,0.6,0.9,0.883035353681452,"false"
"image-keyboard-response",103,99285,"0.0-4.30-1.30","0f19oxync82ef5o",585,"46.csv","","null","resources/maskTrios/L4BB.jpg","null","",NA,NA,NA,NA,""
"image-keyboard-response",104,100501,"0.0-4.30-2.30","0f19oxync82ef5o",585,"46.csv","","null","resources/images/fishbone.png","null","",NA,NA,NA,NA,""
"image-keyboard-response",105,100768,"0.0-4.31-0.31","0f19oxync82ef5o",585,"46.csv","","267","resources/trios/L4T4A2.jpg","37","restless",0.4,0.6,0.9,0.149181338093096,"true"
"image-keyboard-response",106,101184,"0.0-4.31-1.31","0f19oxync82ef5o",585,"46.csv","","null","resources/maskTrios/L4BB.jpg","null","",NA,NA,NA,NA,""
"image-keyboard-response",107,102394,"0.0-4.31-2.31","0f19oxync82ef5o",585,"46.csv","","null","resources/images/coin2.png","null","",NA,NA,NA,NA,""
"image-keyboard-response",108,102756,"0.0-4.32-0.32","0f19oxync82ef5o",585,"46.csv","","361","resources/trios/L4T4A2.jpg","37","restless",0.4,0.6,0.9,0.882509870731673,"false"
"image-keyboard-response",109,103159,"0.0-4.32-1.32","0f19oxync82ef5o",585,"46.csv","","null","resources/maskTrios/L4BB.jpg","null","",NA,NA,NA,NA,""
"image-keyboard-response",110,104370,"0.0-4.32-2.32","0f19oxync82ef5o",585,"46.csv","","null","resources/images/fishbone.png","null","",NA,NA,NA,NA,""
"image-keyboard-response",111,104804,"0.0-4.33-0.33","0f19oxync82ef5o",585,"46.csv","","433","resources/trios/L4T4A2.jpg","38","restless",0.4,0.6,0.9,0.678933455525672,"false"
"image-keyboard-response",112,105215,"0.0-4.33-1.33","0f19oxync82ef5o",585,"46.csv","","null","resources/maskTrios/BT4B.jpg","null","",NA,NA,NA,NA,""
"image-keyboard-response",113,106425,"0.0-4.33-2.33","0f19oxync82ef5o",585,"46.csv","","null","resources/images/fishbone.png","null","",NA,NA,NA,NA,""
"image-keyboard-response",114,106656,"0.0-4.34-0.34","0f19oxync82ef5o",585,"46.csv","","229","resources/trios/L4T4A2.jpg","39","restless",0.4,0.5,0.9,0.0760123391004766,"true"
"image-keyboard-response",115,107062,"0.0-4.34-1.34","0f19oxync82ef5o",585,"46.csv","","null","resources/maskTrios/BBA2.jpg","null","",NA,NA,NA,NA,""
"image-keyboard-response",116,108273,"0.0-4.34-2.34","0f19oxync82ef5o",585,"46.csv","","null","resources/images/coin2.png","null","",NA,NA,NA,NA,""
"image-keyboard-response",117,108961,"0.0-4.35-0.35","0f19oxync82ef5o",585,"46.csv","","686","resources/trios/L4T4A2.jpg","39","restless",0.4,0.5,0.9,0.181407011706912,"true"
"image-keyboard-response",118,109373,"0.0-4.35-1.35","0f19oxync82ef5o",585,"46.csv","","null","resources/maskTrios/BBA2.jpg","null","",NA,NA,NA,NA,""
"image-keyboard-response",119,110586,"0.0-4.35-2.35","0f19oxync82ef5o",585,"46.csv","","null","resources/images/coin2.png","null","",NA,NA,NA,NA,""
"image-keyboard-response",120,110891,"0.0-4.36-0.36","0f19oxync82ef5o",585,"46.csv","","303","resources/trios/L4T4A2.jpg","39","restless",0.4,0.5,0.9,0.389352860057741,"true"
"image-keyboard-response",121,111306,"0.0-4.36-1.36","0f19oxync82ef5o",585,"46.csv","","null","resources/maskTrios/BBA2.jpg","null","",NA,NA,NA,NA,""
"image-keyboard-response",122,112508,"0.0-4.36-2.36","0f19oxync82ef5o",585,"46.csv","","null","resources/images/coin2.png","null","",NA,NA,NA,NA,""
"image-keyboard-response",123,112766,"0.0-4.37-0.37","0f19oxync82ef5o",585,"46.csv","","256","resources/trios/L4T4A2.jpg","39","restless",0.4,0.5,0.9,0.306936655076379,"true"
"image-keyboard-response",124,113181,"0.0-4.37-1.37","0f19oxync82ef5o",585,"46.csv","","null","resources/maskTrios/BBA2.jpg","null","",NA,NA,NA,NA,""
"image-keyboard-response",125,114395,"0.0-4.37-2.37","0f19oxync82ef5o",585,"46.csv","","null","resources/images/coin2.png","null","",NA,NA,NA,NA,""
"image-keyboard-response",126,114665,"0.0-4.38-0.38","0f19oxync82ef5o",585,"46.csv","","270","resources/trios/L4T4A2.jpg","39","restless",0.4,0.5,0.9,0.0204011681657678,"true"
"image-keyboard-response",127,115080,"0.0-4.38-1.38","0f19oxync82ef5o",585,"46.csv","","null","resources/maskTrios/BBA2.jpg","null","",NA,NA,NA,NA,""
"image-keyboard-response",128,116293,"0.0-4.38-2.38","0f19oxync82ef5o",585,"46.csv","","null","resources/images/coin2.png","null","",NA,NA,NA,NA,""
"image-keyboard-response",129,116613,"0.0-4.39-0.39","0f19oxync82ef5o",585,"46.csv","","319","resources/trios/L4T4A2.jpg","39","restless",0.4,0.5,0.8,0.749744670181229,"true"
"image-keyboard-response",130,117024,"0.0-4.39-1.39","0f19oxync82ef5o",585,"46.csv","","null","resources/maskTrios/BBA2.jpg","null","",NA,NA,NA,NA,""
"image-keyboard-response",131,118269,"0.0-4.39-2.39","0f19oxync82ef5o",585,"46.csv","","null","resources/images/coin2.png","null","",NA,NA,NA,NA,""
"image-keyboard-response",132,118537,"0.0-4.40-0.40","0f19oxync82ef5o",585,"46.csv","","266","resources/trios/L4T4A2.jpg","39","restless",0.4,0.5,0.8,0.148629497142628,"true"
"image-keyboard-response",133,118953,"0.0-4.40-1.40","0f19oxync82ef5o",585,"46.csv","","null","resources/maskTrios/BBA2.jpg","null","",NA,NA,NA,NA,""
"image-keyboard-response",134,120166,"0.0-4.40-2.40","0f19oxync82ef5o",585,"46.csv","","null","resources/images/coin2.png","null","",NA,NA,NA,NA,""
"image-keyboard-response",135,120375,"0.0-4.41-0.41","0f19oxync82ef5o",585,"46.csv","","209","resources/trios/L4T4A2.jpg","39","restless",0.4,0.5,0.7,0.0358597066911615,"true"
"image-keyboard-response",136,120788,"0.0-4.41-1.41","0f19oxync82ef5o",585,"46.csv","","null","resources/maskTrios/BBA2.jpg","null","",NA,NA,NA,NA,""
"image-keyboard-response",137,122003,"0.0-4.41-2.41","0f19oxync82ef5o",585,"46.csv","","null","resources/images/coin2.png","null","",NA,NA,NA,NA,""
"image-keyboard-response",138,122269,"0.0-4.42-0.42","0f19oxync82ef5o",585,"46.csv","","264","resources/trios/L4T4A2.jpg","39","restless",0.4,0.5,0.7,0.0980472164863124,"true"
"image-keyboard-response",139,122670,"0.0-4.42-1.42","0f19oxync82ef5o",585,"46.csv","","null","resources/maskTrios/BBA2.jpg","null","",NA,NA,NA,NA,""
"image-keyboard-response",140,123886,"0.0-4.42-2.42","0f19oxync82ef5o",585,"46.csv","","null","resources/images/coin2.png","null","",NA,NA,NA,NA,""
"image-keyboard-response",141,124180,"0.0-4.43-0.43","0f19oxync82ef5o",585,"46.csv","","292","resources/trios/L4T4A2.jpg","39","restless",0.4,0.5,0.7,0.617224207531733,"true"
"image-keyboard-response",142,124589,"0.0-4.43-1.43","0f19oxync82ef5o",585,"46.csv","","null","resources/maskTrios/BBA2.jpg","null","",NA,NA,NA,NA,""
"image-keyboard-response",143,125806,"0.0-4.43-2.43","0f19oxync82ef5o",585,"46.csv","","null","resources/images/coin2.png","null","",NA,NA,NA,NA,""
"image-keyboard-response",144,126050,"0.0-4.44-0.44","0f19oxync82ef5o",585,"46.csv","","243","resources/trios/L4T4A2.jpg","39","restless",0.4,0.4,0.7,0.12076594597611,"true"
"image-keyboard-response",145,126456,"0.0-4.44-1.44","0f19oxync82ef5o",585,"46.csv","","null","resources/maskTrios/BBA2.jpg","null","",NA,NA,NA,NA,""
"image-keyboard-response",146,127668,"0.0-4.44-2.44","0f19oxync82ef5o",585,"46.csv","","null","resources/images/coin2.png","null","",NA,NA,NA,NA,""
"image-keyboard-response",147,127897,"0.0-4.45-0.45","0f19oxync82ef5o",585,"46.csv","","226","resources/trios/L4T4A2.jpg","39","restless",0.4,0.4,0.7,0.753897452647257,"false"
"image-keyboard-response",148,128307,"0.0-4.45-1.45","0f19oxync82ef5o",585,"46.csv","","null","resources/maskTrios/BBA2.jpg","null","",NA,NA,NA,NA,""
"image-keyboard-response",149,129519,"0.0-4.45-2.45","0f19oxync82ef5o",585,"46.csv","","null","resources/images/fishbone.png","null","",NA,NA,NA,NA,""
"image-keyboard-response",150,131353,"0.0-4.46-0.46","0f19oxync82ef5o",585,"46.csv","","1833","resources/trios/L4T4A2.jpg","37","restless",0.4,0.4,0.7,0.550932100268217,"false"
"image-keyboard-response",151,131760,"0.0-4.46-1.46","0f19oxync82ef5o",585,"46.csv","","null","resources/maskTrios/L4BB.jpg","null","",NA,NA,NA,NA,""
"image-keyboard-response",152,132973,"0.0-4.46-2.46","0f19oxync82ef5o",585,"46.csv","","null","resources/images/fishbone.png","null","",NA,NA,NA,NA,""
"image-keyboard-response",153,133230,"0.0-4.47-0.47","0f19oxync82ef5o",585,"46.csv","","257","resources/trios/L4T4A2.jpg","38","restless",0.4,0.4,0.7,0.438510201657856,"false"
"image-keyboard-response",154,133645,"0.0-4.47-1.47","0f19oxync82ef5o",585,"46.csv","","null","resources/maskTrios/BT4B.jpg","null","",NA,NA,NA,NA,""
"image-keyboard-response",155,134860,"0.0-4.47-2.47","0f19oxync82ef5o",585,"46.csv","","null","resources/images/fishbone.png","null","",NA,NA,NA,NA,""
"image-keyboard-response",156,135145,"0.0-4.48-0.48","0f19oxync82ef5o",585,"46.csv","","284","resources/trios/L4T4A2.jpg","39","restless",0.5,0.4,0.7,0.358176123715447,"true"
"image-keyboard-response",157,135561,"0.0-4.48-1.48","0f19oxync82ef5o",585,"46.csv","","null","resources/maskTrios/BBA2.jpg","null","",NA,NA,NA,NA,""
"image-keyboard-response",158,136776,"0.0-4.48-2.48","0f19oxync82ef5o",585,"46.csv","","null","resources/images/coin2.png","null","",NA,NA,NA,NA,""
"image-keyboard-response",159,137021,"0.0-4.49-0.49","0f19oxync82ef5o",585,"46.csv","","243","resources/trios/L4T4A2.jpg","39","restless",0.5,0.4,0.7,0.135064056073845,"true"
"image-keyboard-response",160,137431,"0.0-4.49-1.49","0f19oxync82ef5o",585,"46.csv","","null","resources/maskTrios/BBA2.jpg","null","",NA,NA,NA,NA,""
"image-keyboard-response",161,138639,"0.0-4.49-2.49","0f19oxync82ef5o",585,"46.csv","","null","resources/images/coin2.png","null","",NA,NA,NA,NA,""
"image-keyboard-response",162,138895,"0.0-4.50-0.50","0f19oxync82ef5o",585,"46.csv","","255","resources/trios/L4T4A2.jpg","39","restless",0.5,0.4,0.7,0.947479090510259,"false"
"image-keyboard-response",163,139308,"0.0-4.50-1.50","0f19oxync82ef5o",585,"46.csv","","null","resources/maskTrios/BBA2.jpg","null","",NA,NA,NA,NA,""
"image-keyboard-response",164,140522,"0.0-4.50-2.50","0f19oxync82ef5o",585,"46.csv","","null","resources/images/fishbone.png","null","",NA,NA,NA,NA,""
"image-keyboard-response",165,140755,"0.0-4.51-0.51","0f19oxync82ef5o",585,"46.csv","","232","resources/trios/L4T4A2.jpg","39","restless",0.5,0.4,0.6,0.7390727892165,"false"
"image-keyboard-response",166,141160,"0.0-4.51-1.51","0f19oxync82ef5o",585,"46.csv","","null","resources/maskTrios/BBA2.jpg","null","",NA,NA,NA,NA,""
"image-keyboard-response",167,142377,"0.0-4.51-2.51","0f19oxync82ef5o",585,"46.csv","","null","resources/images/fishbone.png","null","",NA,NA,NA,NA,""
"image-keyboard-response",168,142633,"0.0-4.52-0.52","0f19oxync82ef5o",585,"46.csv","","254","resources/trios/L4T4A2.jpg","39","restless",0.5,0.4,0.6,0.910161797481109,"false"
"image-keyboard-response",169,143046,"0.0-4.52-1.52","0f19oxync82ef5o",585,"46.csv","","null","resources/maskTrios/BBA2.jpg","null","",NA,NA,NA,NA,""
"image-keyboard-response",170,144256,"0.0-4.52-2.52","0f19oxync82ef5o",585,"46.csv","","null","resources/images/fishbone.png","null","",NA,NA,NA,NA,""
"image-keyboard-response",171,144502,"0.0-4.53-0.53","0f19oxync82ef5o",585,"46.csv","","244","resources/trios/L4T4A2.jpg","37","restless",0.5,0.4,0.6,0.738931743114558,"false"
"image-keyboard-response",172,144906,"0.0-4.53-1.53","0f19oxync82ef5o",585,"46.csv","","null","resources/maskTrios/L4BB.jpg","null","",NA,NA,NA,NA,""
"image-keyboard-response",173,146121,"0.0-4.53-2.53","0f19oxync82ef5o",585,"46.csv","","null","resources/images/fishbone.png","null","",NA,NA,NA,NA,""
"image-keyboard-response",174,146347,"0.0-4.54-0.54","0f19oxync82ef5o",585,"46.csv","","225","resources/trios/L4T4A2.jpg","38","restless",0.5,0.4,0.6,0.308098660955175,"true"
"image-keyboard-response",175,146756,"0.0-4.54-1.54","0f19oxync82ef5o",585,"46.csv","","null","resources/maskTrios/BT4B.jpg","null","",NA,NA,NA,NA,""
"image-keyboard-response",176,147968,"0.0-4.54-2.54","0f19oxync82ef5o",585,"46.csv","","null","resources/images/coin2.png","null","",NA,NA,NA,NA,""
"image-keyboard-response",177,148217,"0.0-4.55-0.55","0f19oxync82ef5o",585,"46.csv","","248","resources/trios/L4T4A2.jpg","38","restless",0.5,0.4,0.6,0.362766056914759,"true"
"image-keyboard-response",178,148631,"0.0-4.55-1.55","0f19oxync82ef5o",585,"46.csv","","null","resources/maskTrios/BT4B.jpg","null","",NA,NA,NA,NA,""
"image-keyboard-response",179,149833,"0.0-4.55-2.55","0f19oxync82ef5o",585,"46.csv","","null","resources/images/coin2.png","null","",NA,NA,NA,NA,""
"image-keyboard-response",180,150126,"0.0-4.56-0.56","0f19oxync82ef5o",585,"46.csv","","292","resources/trios/L4T4A2.jpg","38","restless",0.5,0.4,0.6,0.353146095040997,"true"
"image-keyboard-response",181,150532,"0.0-4.56-1.56","0f19oxync82ef5o",585,"46.csv","","null","resources/maskTrios/BT4B.jpg","null","",NA,NA,NA,NA,""
"image-keyboard-response",182,151747,"0.0-4.56-2.56","0f19oxync82ef5o",585,"46.csv","","null","resources/images/coin2.png","null","",NA,NA,NA,NA,""
"image-keyboard-response",183,152018,"0.0-4.57-0.57","0f19oxync82ef5o",585,"46.csv","","271","resources/trios/L4T4A2.jpg","38","restless",0.5,0.4,0.7,0.769849226333712,"false"
"image-keyboard-response",184,152431,"0.0-4.57-1.57","0f19oxync82ef5o",585,"46.csv","","null","resources/maskTrios/BT4B.jpg","null","",NA,NA,NA,NA,""
"image-keyboard-response",185,153636,"0.0-4.57-2.57","0f19oxync82ef5o",585,"46.csv","","null","resources/images/fishbone.png","null","",NA,NA,NA,NA,""
"image-keyboard-response",186,153908,"0.0-4.58-0.58","0f19oxync82ef5o",585,"46.csv","","272","resources/trios/L4T4A2.jpg","37","restless",0.5,0.4,0.7,0.112522306347916,"true"
"image-keyboard-response",187,154321,"0.0-4.58-1.58","0f19oxync82ef5o",585,"46.csv","","null","resources/maskTrios/L4BB.jpg","null","",NA,NA,NA,NA,""
"image-keyboard-response",188,155534,"0.0-4.58-2.58","0f19oxync82ef5o",585,"46.csv","","null","resources/images/coin2.png","null","",NA,NA,NA,NA,""
"image-keyboard-response",189,155793,"0.0-4.59-0.59","0f19oxync82ef5o",585,"46.csv","","258","resources/trios/L4T4A2.jpg","37","restless",0.5,0.4,0.7,0.562424722065826,"false"
"image-keyboard-response",190,156205,"0.0-4.59-1.59","0f19oxync82ef5o",585,"46.csv","","null","resources/maskTrios/L4BB.jpg","null","",NA,NA,NA,NA,""
"image-keyboard-response",191,157421,"0.0-4.59-2.59","0f19oxync82ef5o",585,"46.csv","","null","resources/images/fishbone.png","null","",NA,NA,NA,NA,""
"image-keyboard-response",192,157652,"0.0-4.60-0.60","0f19oxync82ef5o",585,"46.csv","","231","resources/trios/L4T4A2.jpg","39","restless",0.5,0.4,0.6,0.731849225038851,"false"
"image-keyboard-response",193,158058,"0.0-4.60-1.60","0f19oxync82ef5o",585,"46.csv","","null","resources/maskTrios/BBA2.jpg","null","",NA,NA,NA,NA,""
"image-keyboard-response",194,159272,"0.0-4.60-2.60","0f19oxync82ef5o",585,"46.csv","","null","resources/images/fishbone.png","null","",NA,NA,NA,NA,""
"image-keyboard-response",195,159552,"0.0-4.61-0.61","0f19oxync82ef5o",585,"46.csv","","279","resources/trios/L4T4A2.jpg","38","restless",0.5,0.4,0.6,0.249082592007888,"true"
"image-keyboard-response",196,159969,"0.0-4.61-1.61","0f19oxync82ef5o",585,"46.csv","","null","resources/maskTrios/BT4B.jpg","null","",NA,NA,NA,NA,""
"image-keyboard-response",197,161179,"0.0-4.61-2.61","0f19oxync82ef5o",585,"46.csv","","null","resources/images/coin2.png","null","",NA,NA,NA,NA,""
"image-keyboard-response",198,161402,"0.0-4.62-0.62","0f19oxync82ef5o",585,"46.csv","","222","resources/trios/L4T4A2.jpg","38","restless",0.5,0.4,0.6,0.130142486622832,"true"
"image-keyboard-response",199,161804,"0.0-4.62-1.62","0f19oxync82ef5o",585,"46.csv","","null","resources/maskTrios/BT4B.jpg","null","",NA,NA,NA,NA,""
"image-keyboard-response",200,163018,"0.0-4.62-2.62","0f19oxync82ef5o",585,"46.csv","","null","resources/images/coin2.png","null","",NA,NA,NA,NA,""
"image-keyboard-response",201,163316,"0.0-4.63-0.63","0f19oxync82ef5o",585,"46.csv","","298","resources/trios/L4T4A2.jpg","38","restless",0.5,0.4,0.6,0.302745657397212,"true"
"image-keyboard-response",202,163725,"0.0-4.63-1.63","0f19oxync82ef5o",585,"46.csv","","null","resources/maskTrios/BT4B.jpg","null","",NA,NA,NA,NA,""
"image-keyboard-response",203,164940,"0.0-4.63-2.63","0f19oxync82ef5o",585,"46.csv","","null","resources/images/coin2.png","null","",NA,NA,NA,NA,""
"image-keyboard-response",204,165181,"0.0-4.64-0.64","0f19oxync82ef5o",585,"46.csv","","240","resources/trios/L4T4A2.jpg","38","restless",0.5,0.4,0.7,0.0335152379219975,"true"
"image-keyboard-response",205,165594,"0.0-4.64-1.64","0f19oxync82ef5o",585,"46.csv","","null","resources/maskTrios/BT4B.jpg","null","",NA,NA,NA,NA,""
"image-keyboard-response",206,166810,"0.0-4.64-2.64","0f19oxync82ef5o",585,"46.csv","","null","resources/images/coin2.png","null","",NA,NA,NA,NA,""
"image-keyboard-response",207,167033,"0.0-4.65-0.65","0f19oxync82ef5o",585,"46.csv","","222","resources/trios/L4T4A2.jpg","38","restless",0.5,0.4,0.7,0.876419865404399,"false"
"image-keyboard-response",208,167445,"0.0-4.65-1.65","0f19oxync82ef5o",585,"46.csv","","null","resources/maskTrios/BT4B.jpg","null","",NA,NA,NA,NA,""
"image-keyboard-response",209,168673,"0.0-4.65-2.65","0f19oxync82ef5o",585,"46.csv","","null","resources/images/fishbone.png","null","",NA,NA,NA,NA,""
"image-keyboard-response",210,168917,"0.0-4.66-0.66","0f19oxync82ef5o",585,"46.csv","","242","resources/trios/L4T4A2.jpg","39","restless",0.5,0.4,0.7,0.00249923998169277,"true"
"image-keyboard-response",211,169328,"0.0-4.66-1.66","0f19oxync82ef5o",585,"46.csv","","null","resources/maskTrios/BBA2.jpg","null","",NA,NA,NA,NA,""
"image-keyboard-response",212,170536,"0.0-4.66-2.66","0f19oxync82ef5o",585,"46.csv","","null","resources/images/coin2.png","null","",NA,NA,NA,NA,""
"image-keyboard-response",213,170799,"0.0-4.67-0.67","0f19oxync82ef5o",585,"46.csv","","261","resources/trios/L4T4A2.jpg","39","restless",0.5,0.4,0.7,0.439490380608465,"true"
"image-keyboard-response",214,171208,"0.0-4.67-1.67","0f19oxync82ef5o",585,"46.csv","","null","resources/maskTrios/BBA2.jpg","null","",NA,NA,NA,NA,""
"image-keyboard-response",215,172412,"0.0-4.67-2.67","0f19oxync82ef5o",585,"46.csv","","null","resources/images/coin2.png","null","",NA,NA,NA,NA,""
"image-keyboard-response",216,172791,"0.0-4.68-0.68","0f19oxync82ef5o",585,"46.csv","","378","resources/trios/L4T4A2.jpg","39","restless",0.5,0.4,0.7,0.106218343535443,"true"
"image-keyboard-response",217,173204,"0.0-4.68-1.68","0f19oxync82ef5o",585,"46.csv","","null","resources/maskTrios/BBA2.jpg","null","",NA,NA,NA,NA,""
"image-keyboard-response",218,174415,"0.0-4.68-2.68","0f19oxync82ef5o",585,"46.csv","","null","resources/images/coin2.png","null","",NA,NA,NA,NA,""
"image-keyboard-response",219,174682,"0.0-4.69-0.69","0f19oxync82ef5o",585,"46.csv","","266","resources/trios/L4T4A2.jpg","39","restless",0.5,0.3,0.7,0.275008255954215,"true"
"image-keyboard-response",220,175098,"0.0-4.69-1.69","0f19oxync82ef5o",585,"46.csv","","null","resources/maskTrios/BBA2.jpg","null","",NA,NA,NA,NA,""
"image-keyboard-response",221,176311,"0.0-4.69-2.69","0f19oxync82ef5o",585,"46.csv","","null","resources/images/coin2.png","null","",NA,NA,NA,NA,""
"image-keyboard-response",222,176565,"0.0-4.70-0.70","0f19oxync82ef5o",585,"46.csv","","254","resources/trios/L4T4A2.jpg","39","restless",0.5,0.3,0.7,0.797815056930312,"false"
"image-keyboard-response",223,176975,"0.0-4.70-1.70","0f19oxync82ef5o",585,"46.csv","","null","resources/maskTrios/BBA2.jpg","null","",NA,NA,NA,NA,""
"image-keyboard-response",224,178184,"0.0-4.70-2.70","0f19oxync82ef5o",585,"46.csv","","null","resources/images/fishbone.png","null","",NA,NA,NA,NA,""
"image-keyboard-response",225,178421,"0.0-4.71-0.71","0f19oxync82ef5o",585,"46.csv","","234","resources/trios/L4T4A2.jpg","37","restless",0.5,0.3,0.8,0.763095707663832,"false"
"image-keyboard-response",226,178836,"0.0-4.71-1.71","0f19oxync82ef5o",585,"46.csv","","null","resources/maskTrios/L4BB.jpg","null","",NA,NA,NA,NA,""
"image-keyboard-response",227,180050,"0.0-4.71-2.71","0f19oxync82ef5o",585,"46.csv","","null","resources/images/fishbone.png","null","",NA,NA,NA,NA,""
"image-keyboard-response",228,180289,"0.0-4.72-0.72","0f19oxync82ef5o",585,"46.csv","","238","resources/trios/L4T4A2.jpg","38","restless",0.5,0.3,0.8,0.938617539032211,"false"
"image-keyboard-response",229,180705,"0.0-4.72-1.72","0f19oxync82ef5o",585,"46.csv","","null","resources/maskTrios/BT4B.jpg","null","",NA,NA,NA,NA,""
"image-keyboard-response",230,181907,"0.0-4.72-2.72","0f19oxync82ef5o",585,"46.csv","","null","resources/images/fishbone.png","null","",NA,NA,NA,NA,""
"image-keyboard-response",231,182146,"0.0-4.73-0.73","0f19oxync82ef5o",585,"46.csv","","238","resources/trios/L4T4A2.jpg","39","restless",0.5,0.3,0.9,0.0661149809510971,"true"
"image-keyboard-response",232,182560,"0.0-4.73-1.73","0f19oxync82ef5o",585,"46.csv","","null","resources/maskTrios/BBA2.jpg","null","",NA,NA,NA,NA,""
"image-keyboard-response",233,183838,"0.0-4.73-2.73","0f19oxync82ef5o",585,"46.csv","","null","resources/images/coin2.png","null","",NA,NA,NA,NA,""
"image-keyboard-response",234,184104,"0.0-4.74-0.74","0f19oxync82ef5o",585,"46.csv","","265","resources/trios/L4T4A2.jpg","39","restless",0.5,0.3,0.9,0.481459769679638,"true"
"image-keyboard-response",235,184519,"0.0-4.74-1.74","0f19oxync82ef5o",585,"46.csv","","null","resources/maskTrios/BBA2.jpg","null","",NA,NA,NA,NA,""
"image-keyboard-response",236,185730,"0.0-4.74-2.74","0f19oxync82ef5o",585,"46.csv","","null","resources/images/coin2.png","null","",NA,NA,NA,NA,""
"image-keyboard-response",237,186083,"0.0-4.75-0.75","0f19oxync82ef5o",585,"46.csv","","352","resources/trios/L4T4A2.jpg","39","restless",0.5,0.3,0.9,0.977962510569705,"false"
"image-keyboard-response",238,186488,"0.0-4.75-1.75","0f19oxync82ef5o",585,"46.csv","","null","resources/maskTrios/BBA2.jpg","null","",NA,NA,NA,NA,""
"image-keyboard-response",239,187698,"0.0-4.75-2.75","0f19oxync82ef5o",585,"46.csv","","null","resources/images/fishbone.png","null","",NA,NA,NA,NA,""
"image-keyboard-response",240,188131,"0.0-4.76-0.76","0f19oxync82ef5o",585,"46.csv","","431","resources/trios/L4T4A2.jpg","38","restless",0.5,0.3,0.9,0.303032219735952,"false"
"image-keyboard-response",241,188536,"0.0-4.76-1.76","0f19oxync82ef5o",585,"46.csv","","null","resources/maskTrios/BT4B.jpg","null","",NA,NA,NA,NA,""
"image-keyboard-response",242,189745,"0.0-4.76-2.76","0f19oxync82ef5o",585,"46.csv","","null","resources/images/fishbone.png","null","",NA,NA,NA,NA,""
"image-keyboard-response",243,190001,"0.0-4.77-0.77","0f19oxync82ef5o",585,"46.csv","","256","resources/trios/L4T4A2.jpg","39","restless",0.5,0.4,0.9,0.762230866016983,"true"
"image-keyboard-response",244,190414,"0.0-4.77-1.77","0f19oxync82ef5o",585,"46.csv","","null","resources/maskTrios/BBA2.jpg","null","",NA,NA,NA,NA,""
"image-keyboard-response",245,191625,"0.0-4.77-2.77","0f19oxync82ef5o",585,"46.csv","","null","resources/images/coin2.png","null","",NA,NA,NA,NA,""
"image-keyboard-response",246,191905,"0.0-4.78-0.78","0f19oxync82ef5o",585,"46.csv","","279","resources/trios/L4T4A2.jpg","39","restless",0.5,0.4,0.9,0.71769732878008,"true"
"image-keyboard-response",247,192310,"0.0-4.78-1.78","0f19oxync82ef5o",585,"46.csv","","null","resources/maskTrios/BBA2.jpg","null","",NA,NA,NA,NA,""
"image-keyboard-response",248,193524,"0.0-4.78-2.78","0f19oxync82ef5o",585,"46.csv","","null","resources/images/coin2.png","null","",NA,NA,NA,NA,""
"image-keyboard-response",249,193867,"0.0-4.79-0.79","0f19oxync82ef5o",585,"46.csv","","341","resources/trios/L4T4A2.jpg","39","restless",0.5,0.4,0.9,0.143928431744189,"true"
"image-keyboard-response",250,194272,"0.0-4.79-1.79","0f19oxync82ef5o",585,"46.csv","","null","resources/maskTrios/BBA2.jpg","null","",NA,NA,NA,NA,""
"image-keyboard-response",251,195488,"0.0-4.79-2.79","0f19oxync82ef5o",585,"46.csv","","null","resources/images/coin2.png","null","",NA,NA,NA,NA,""
"image-keyboard-response",252,195764,"0.0-4.80-0.80","0f19oxync82ef5o",585,"46.csv","","274","resources/trios/L4T4A2.jpg","39","restless",0.5,0.4,0.9,0.509887484203904,"true"
"image-keyboard-response",253,196173,"0.0-4.80-1.80","0f19oxync82ef5o",585,"46.csv","","null","resources/maskTrios/BBA2.jpg","null","",NA,NA,NA,NA,""
"image-keyboard-response",254,197382,"0.0-4.80-2.80","0f19oxync82ef5o",585,"46.csv","","null","resources/images/coin2.png","null","",NA,NA,NA,NA,""
"image-keyboard-response",255,197619,"0.0-4.81-0.81","0f19oxync82ef5o",585,"46.csv","","236","resources/trios/L4T4A2.jpg","39","restless",0.5,0.4,0.9,0.146252575255096,"true"
"image-keyboard-response",256,198034,"0.0-4.81-1.81","0f19oxync82ef5o",585,"46.csv","","null","resources/maskTrios/BBA2.jpg","null","",NA,NA,NA,NA,""
"image-keyboard-response",257,199248,"0.0-4.81-2.81","0f19oxync82ef5o",585,"46.csv","","null","resources/images/coin2.png","null","",NA,NA,NA,NA,""
"image-keyboard-response",258,199549,"0.0-4.82-0.82","0f19oxync82ef5o",585,"46.csv","","299","resources/trios/L4T4A2.jpg","39","restless",0.5,0.4,0.9,0.377546616808893,"true"
"image-keyboard-response",259,199960,"0.0-4.82-1.82","0f19oxync82ef5o",585,"46.csv","","null","resources/maskTrios/BBA2.jpg","null","",NA,NA,NA,NA,""
"image-keyboard-response",260,201169,"0.0-4.82-2.82","0f19oxync82ef5o",585,"46.csv","","null","resources/images/coin2.png","null","",NA,NA,NA,NA,""
"image-keyboard-response",261,201447,"0.0-4.83-0.83","0f19oxync82ef5o",585,"46.csv","","278","resources/trios/L4T4A2.jpg","39","restless",0.5,0.4,0.8,0.206929413374674,"true"
"image-keyboard-response",262,201855,"0.0-4.83-1.83","0f19oxync82ef5o",585,"46.csv","","null","resources/maskTrios/BBA2.jpg","null","",NA,NA,NA,NA,""
"image-keyboard-response",263,203066,"0.0-4.83-2.83","0f19oxync82ef5o",585,"46.csv","","null","resources/images/coin2.png","null","",NA,NA,NA,NA,""
"image-keyboard-response",264,203327,"0.0-4.84-0.84","0f19oxync82ef5o",585,"46.csv","","259","resources/trios/L4T4A2.jpg","39","restless",0.5,0.4,0.8,0.416250254667036,"true"
"image-keyboard-response",265,203738,"0.0-4.84-1.84","0f19oxync82ef5o",585,"46.csv","","null","resources/maskTrios/BBA2.jpg","null","",NA,NA,NA,NA,""
"image-keyboard-response",266,204943,"0.0-4.84-2.84","0f19oxync82ef5o",585,"46.csv","","null","resources/images/coin2.png","null","",NA,NA,NA,NA,""
"image-keyboard-response",267,205228,"0.0-4.85-0.85","0f19oxync82ef5o",585,"46.csv","","284","resources/trios/L4T4A2.jpg","39","restless",0.5,0.4,0.8,0.000103180543517656,"true"
"image-keyboard-response",268,205642,"0.0-4.85-1.85","0f19oxync82ef5o",585,"46.csv","","null","resources/maskTrios/BBA2.jpg","null","",NA,NA,NA,NA,""
"image-keyboard-response",269,206854,"0.0-4.85-2.85","0f19oxync82ef5o",585,"46.csv","","null","resources/images/coin2.png","null","",NA,NA,NA,NA,""
"image-keyboard-response",270,207076,"0.0-4.86-0.86","0f19oxync82ef5o",585,"46.csv","","221","resources/trios/L4T4A2.jpg","39","restless",0.5,0.4,0.8,0.0509789248193653,"true"
"image-keyboard-response",271,207480,"0.0-4.86-1.86","0f19oxync82ef5o",585,"46.csv","","null","resources/maskTrios/BBA2.jpg","null","",NA,NA,NA,NA,""
"image-keyboard-response",272,208693,"0.0-4.86-2.86","0f19oxync82ef5o",585,"46.csv","","null","resources/images/coin2.png","null","",NA,NA,NA,NA,""
"image-keyboard-response",273,208921,"0.0-4.87-0.87","0f19oxync82ef5o",585,"46.csv","","226","resources/trios/L4T4A2.jpg","39","restless",0.5,0.4,0.8,0.876655752211602,"false"
"image-keyboard-response",274,209332,"0.0-4.87-1.87","0f19oxync82ef5o",585,"46.csv","","null","resources/maskTrios/BBA2.jpg","null","",NA,NA,NA,NA,""
"image-keyboard-response",275,210537,"0.0-4.87-2.87","0f19oxync82ef5o",585,"46.csv","","null","resources/images/fishbone.png","null","",NA,NA,NA,NA,""
"image-keyboard-response",276,210982,"0.0-4.88-0.88","0f19oxync82ef5o",585,"46.csv","","444","resources/trios/L4T4A2.jpg","37","restless",0.5,0.4,0.8,0.569117529221828,"false"
"image-keyboard-response",277,211392,"0.0-4.88-1.88","0f19oxync82ef5o",585,"46.csv","","null","resources/maskTrios/L4BB.jpg","null","",NA,NA,NA,NA,""
"image-keyboard-response",278,212608,"0.0-4.88-2.88","0f19oxync82ef5o",585,"46.csv","","null","resources/images/fishbone.png","null","",NA,NA,NA,NA,""
"image-keyboard-response",279,212927,"0.0-4.89-0.89","0f19oxync82ef5o",585,"46.csv","","318","resources/trios/L4T4A2.jpg","38","restless",0.5,0.4,0.8,0.832424195880845,"false"
"image-keyboard-response",280,213338,"0.0-4.89-1.89","0f19oxync82ef5o",585,"46.csv","","null","resources/maskTrios/BT4B.jpg","null","",NA,NA,NA,NA,""
"image-keyboard-response",281,214549,"0.0-4.89-2.89","0f19oxync82ef5o",585,"46.csv","","null","resources/images/fishbone.png","null","",NA,NA,NA,NA,""
"image-keyboard-response",282,214807,"0.0-4.90-0.90","0f19oxync82ef5o",585,"46.csv","","258","resources/trios/L4T4A2.jpg","39","restless",0.5,0.4,0.8,0.526776329788248,"true"
"image-keyboard-response",283,215218,"0.0-4.90-1.90","0f19oxync82ef5o",585,"46.csv","","null","resources/maskTrios/BBA2.jpg","null","",NA,NA,NA,NA,""
"image-keyboard-response",284,216429,"0.0-4.90-2.90","0f19oxync82ef5o",585,"46.csv","","null","resources/images/coin2.png","null","",NA,NA,NA,NA,""
"image-keyboard-response",285,216695,"0.0-4.91-0.91","0f19oxync82ef5o",585,"46.csv","","266","resources/trios/L4T4A2.jpg","39","restless",0.5,0.4,0.7,0.00343981290593165,"true"
"image-keyboard-response",286,217102,"0.0-4.91-1.91","0f19oxync82ef5o",585,"46.csv","","null","resources/maskTrios/BBA2.jpg","null","",NA,NA,NA,NA,""
"image-keyboard-response",287,218316,"0.0-4.91-2.91","0f19oxync82ef5o",585,"46.csv","","null","resources/images/coin2.png","null","",NA,NA,NA,NA,""
"image-keyboard-response",288,218557,"0.0-4.92-0.92","0f19oxync82ef5o",585,"46.csv","","240","resources/trios/L4T4A2.jpg","39","restless",0.4,0.4,0.7,0.849587074527374,"false"
"image-keyboard-response",289,218960,"0.0-4.92-1.92","0f19oxync82ef5o",585,"46.csv","","null","resources/maskTrios/BBA2.jpg","null","",NA,NA,NA,NA,""
"image-keyboard-response",290,220175,"0.0-4.92-2.92","0f19oxync82ef5o",585,"46.csv","","null","resources/images/fishbone.png","null","",NA,NA,NA,NA,""
"image-keyboard-response",291,220250,"0.0-4.93-0.93","0f19oxync82ef5o",585,"46.csv","","75","resources/trios/L4T4A2.jpg","38","restless",0.4,0.4,0.6,0.0262976332507193,"true"
"image-keyboard-response",292,220657,"0.0-4.93-1.93","0f19oxync82ef5o",585,"46.csv","","null","resources/maskTrios/BT4B.jpg","null","",NA,NA,NA,NA,""
"image-keyboard-response",293,221873,"0.0-4.93-2.93","0f19oxync82ef5o",585,"46.csv","","null","resources/images/coin2.png","null","",NA,NA,NA,NA,""
"image-keyboard-response",294,222174,"0.0-4.94-0.94","0f19oxync82ef5o",585,"46.csv","","300","resources/trios/L4T4A2.jpg","38","restless",0.4,0.4,0.6,0.90368434231679,"false"
"image-keyboard-response",295,222589,"0.0-4.94-1.94","0f19oxync82ef5o",585,"46.csv","","null","resources/maskTrios/BT4B.jpg","null","",NA,NA,NA,NA,""
"image-keyboard-response",296,223793,"0.0-4.94-2.94","0f19oxync82ef5o",585,"46.csv","","null","resources/images/fishbone.png","null","",NA,NA,NA,NA,""
"image-keyboard-response",297,224133,"0.0-4.95-0.95","0f19oxync82ef5o",585,"46.csv","","338","resources/trios/L4T4A2.jpg","39","restless",0.4,0.4,0.5,0.289200479918338,"true"
"image-keyboard-response",298,224542,"0.0-4.95-1.95","0f19oxync82ef5o",585,"46.csv","","null","resources/maskTrios/BBA2.jpg","null","",NA,NA,NA,NA,""
"image-keyboard-response",299,225755,"0.0-4.95-2.95","0f19oxync82ef5o",585,"46.csv","","null","resources/images/coin2.png","null","",NA,NA,NA,NA,""
"image-keyboard-response",300,225994,"0.0-4.96-0.96","0f19oxync82ef5o",585,"46.csv","","239","resources/trios/L4T4A2.jpg","39","restless",0.4,0.4,0.4,0.423060299825445,"false"
"image-keyboard-response",301,226410,"0.0-4.96-1.96","0f19oxync82ef5o",585,"46.csv","","null","resources/maskTrios/BBA2.jpg","null","",NA,NA,NA,NA,""
"image-keyboard-response",302,227622,"0.0-4.96-2.96","0f19oxync82ef5o",585,"46.csv","","null","resources/images/fishbone.png","null","",NA,NA,NA,NA,""
"image-keyboard-response",303,228004,"0.0-4.97-0.97","0f19oxync82ef5o",585,"46.csv","","380","resources/trios/L4T4A2.jpg","38","restless",0.4,0.4,0.4,0.875443788511588,"false"
"image-keyboard-response",304,228416,"0.0-4.97-1.97","0f19oxync82ef5o",585,"46.csv","","null","resources/maskTrios/BT4B.jpg","null","",NA,NA,NA,NA,""
"image-keyboard-response",305,229623,"0.0-4.97-2.97","0f19oxync82ef5o",585,"46.csv","","null","resources/images/fishbone.png","null","",NA,NA,NA,NA,""
"image-keyboard-response",306,229743,"0.0-4.98-0.98","0f19oxync82ef5o",585,"46.csv","","119","resources/trios/L4T4A2.jpg","37","restless",0.4,0.4,0.4,0.272997587330981,"true"
"image-keyboard-response",307,230149,"0.0-4.98-1.98","0f19oxync82ef5o",585,"46.csv","","null","resources/maskTrios/L4BB.jpg","null","",NA,NA,NA,NA,""
"image-keyboard-response",308,231359,"0.0-4.98-2.98","0f19oxync82ef5o",585,"46.csv","","null","resources/images/coin2.png","null","",NA,NA,NA,NA,""
"image-keyboard-response",309,231613,"0.0-4.99-0.99","0f19oxync82ef5o",585,"46.csv","","254","resources/trios/L4T4A2.jpg","37","restless",0.4,0.4,0.4,0.344910576704869,"true"
"image-keyboard-response",310,232027,"0.0-4.99-1.99","0f19oxync82ef5o",585,"46.csv","","null","resources/maskTrios/L4BB.jpg","null","",NA,NA,NA,NA,""
"image-keyboard-response",311,233243,"0.0-4.99-2.99","0f19oxync82ef5o",585,"46.csv","","null","resources/images/coin2.png","null","",NA,NA,NA,NA,""
"image-keyboard-response",312,233655,"0.0-4.100-0.100","0f19oxync82ef5o",585,"46.csv","","410","resources/trios/L4T4A2.jpg","37","restless",0.4,0.4,0.3,0.0474073496608434,"true"
"image-keyboard-response",313,234066,"0.0-4.100-1.100","0f19oxync82ef5o",585,"46.csv","","null","resources/maskTrios/L4BB.jpg","null","",NA,NA,NA,NA,""
"image-keyboard-response",314,235281,"0.0-4.100-2.100","0f19oxync82ef5o",585,"46.csv","","null","resources/images/coin2.png","null","",NA,NA,NA,NA,""
"image-keyboard-response",315,235504,"0.0-4.101-0.101","0f19oxync82ef5o",585,"46.csv","","222","resources/trios/L4T4A2.jpg","37","restless",0.4,0.4,0.3,0.298423796657851,"true"
"image-keyboard-response",316,235908,"0.0-4.101-1.101","0f19oxync82ef5o",585,"46.csv","","null","resources/maskTrios/L4BB.jpg","null","",NA,NA,NA,NA,""
"image-keyboard-response",317,237124,"0.0-4.101-2.101","0f19oxync82ef5o",585,"46.csv","","null","resources/images/coin2.png","null","",NA,NA,NA,NA,""
"image-keyboard-response",318,237429,"0.0-4.102-0.102","0f19oxync82ef5o",585,"46.csv","","303","resources/trios/L4T4A2.jpg","37","restless",0.4,0.4,0.2,0.754575607735819,"false"
"image-keyboard-response",319,237835,"0.0-4.102-1.102","0f19oxync82ef5o",585,"46.csv","","null","resources/maskTrios/L4BB.jpg","null","",NA,NA,NA,NA,""
"image-keyboard-response",320,239037,"0.0-4.102-2.102","0f19oxync82ef5o",585,"46.csv","","null","resources/images/fishbone.png","null","",NA,NA,NA,NA,""
"image-keyboard-response",321,239060,"0.0-4.103-0.103","0f19oxync82ef5o",585,"46.csv","","22","resources/trios/L4T4A2.jpg","39","restless",0.4,0.4,0.2,0.606474327184005,"false"
"image-keyboard-response",322,239471,"0.0-4.103-1.103","0f19oxync82ef5o",585,"46.csv","","null","resources/maskTrios/BBA2.jpg","null","",NA,NA,NA,NA,""
"image-keyboard-response",323,240686,"0.0-4.103-2.103","0f19oxync82ef5o",585,"46.csv","","null","resources/images/fishbone.png","null","",NA,NA,NA,NA,""
"image-keyboard-response",324,240892,"0.0-4.104-0.104","0f19oxync82ef5o",585,"46.csv","","204","resources/trios/L4T4A2.jpg","38","restless",0.5,0.4,0.2,0.369165441058621,"true"
"image-keyboard-response",325,241307,"0.0-4.104-1.104","0f19oxync82ef5o",585,"46.csv","","null","resources/maskTrios/BT4B.jpg","null","",NA,NA,NA,NA,""
"image-keyboard-response",326,242518,"0.0-4.104-2.104","0f19oxync82ef5o",585,"46.csv","","null","resources/images/coin2.png","null","",NA,NA,NA,NA,""
"image-keyboard-response",327,242772,"0.0-4.105-0.105","0f19oxync82ef5o",585,"46.csv","","252","resources/trios/L4T4A2.jpg","38","restless",0.5,0.4,0.2,0.709409122334599,"false"
"image-keyboard-response",328,243174,"0.0-4.105-1.105","0f19oxync82ef5o",585,"46.csv","","null","resources/maskTrios/BT4B.jpg","null","",NA,NA,NA,NA,""
"image-keyboard-response",329,244376,"0.0-4.105-2.105","0f19oxync82ef5o",585,"46.csv","","null","resources/images/fishbone.png","null","",NA,NA,NA,NA,""
"image-keyboard-response",330,244610,"0.0-4.106-0.106","0f19oxync82ef5o",585,"46.csv","","233","resources/trios/L4T4A2.jpg","37","restless",0.5,0.4,0.2,0.964591888797284,"false"
"image-keyboard-response",331,245011,"0.0-4.106-1.106","0f19oxync82ef5o",585,"46.csv","","null","resources/maskTrios/L4BB.jpg","null","",NA,NA,NA,NA,""
"image-keyboard-response",332,246224,"0.0-4.106-2.106","0f19oxync82ef5o",585,"46.csv","","null","resources/images/fishbone.png","null","",NA,NA,NA,NA,""
"image-keyboard-response",333,246418,"0.0-4.107-0.107","0f19oxync82ef5o",585,"46.csv","","193","resources/trios/L4T4A2.jpg","39","restless",0.6,0.4,0.2,0.829855955869851,"false"
"image-keyboard-response",334,246827,"0.0-4.107-1.107","0f19oxync82ef5o",585,"46.csv","","null","resources/maskTrios/BBA2.jpg","null","",NA,NA,NA,NA,""
"image-keyboard-response",335,248041,"0.0-4.107-2.107","0f19oxync82ef5o",585,"46.csv","","null","resources/images/fishbone.png","null","",NA,NA,NA,NA,""
"image-keyboard-response",336,248242,"0.0-4.108-0.108","0f19oxync82ef5o",585,"46.csv","","200","resources/trios/L4T4A2.jpg","38","restless",0.6,0.4,0.2,0.803523050735371,"false"
"image-keyboard-response",337,248644,"0.0-4.108-1.108","0f19oxync82ef5o",585,"46.csv","","null","resources/maskTrios/BT4B.jpg","null","",NA,NA,NA,NA,""
"image-keyboard-response",338,249854,"0.0-4.108-2.108","0f19oxync82ef5o",585,"46.csv","","null","resources/images/fishbone.png","null","",NA,NA,NA,NA,""
"image-keyboard-response",339,250070,"0.0-4.109-0.109","0f19oxync82ef5o",585,"46.csv","","216","resources/trios/L4T4A2.jpg","38","restless",0.6,0.4,0.2,0.507501231043131,"false"
"image-keyboard-response",340,250477,"0.0-4.109-1.109","0f19oxync82ef5o",585,"46.csv","","null","resources/maskTrios/BT4B.jpg","null","",NA,NA,NA,NA,""
"image-keyboard-response",341,251690,"0.0-4.109-2.109","0f19oxync82ef5o",585,"46.csv","","null","resources/images/fishbone.png","null","",NA,NA,NA,NA,""
"image-keyboard-response",342,251934,"0.0-4.110-0.110","0f19oxync82ef5o",585,"46.csv","","243","resources/trios/L4T4A2.jpg","37","restless",0.6,0.3,0.2,0.340190775494144,"true"
"image-keyboard-response",343,252342,"0.0-4.110-1.110","0f19oxync82ef5o",585,"46.csv","","null","resources/maskTrios/L4BB.jpg","null","",NA,NA,NA,NA,""
"image-keyboard-response",344,253554,"0.0-4.110-2.110","0f19oxync82ef5o",585,"46.csv","","null","resources/images/coin2.png","null","",NA,NA,NA,NA,""
"image-keyboard-response",345,253843,"0.0-4.111-0.111","0f19oxync82ef5o",585,"46.csv","","288","resources/trios/L4T4A2.jpg","37","restless",0.6,0.3,0.2,0.994344820312416,"false"
"image-keyboard-response",346,254253,"0.0-4.111-1.111","0f19oxync82ef5o",585,"46.csv","","null","resources/maskTrios/L4BB.jpg","null","",NA,NA,NA,NA,""
"image-keyboard-response",347,255455,"0.0-4.111-2.111","0f19oxync82ef5o",585,"46.csv","","null","resources/images/fishbone.png","null","",NA,NA,NA,NA,""
"image-keyboard-response",348,255732,"0.0-4.112-0.112","0f19oxync82ef5o",585,"46.csv","","276","resources/trios/L4T4A2.jpg","39","restless",0.6,0.3,0.2,0.160244098486256,"true"
"image-keyboard-response",349,256139,"0.0-4.112-1.112","0f19oxync82ef5o",585,"46.csv","","null","resources/maskTrios/BBA2.jpg","null","",NA,NA,NA,NA,""
"image-keyboard-response",350,257352,"0.0-4.112-2.112","0f19oxync82ef5o",585,"46.csv","","null","resources/images/coin2.png","null","",NA,NA,NA,NA,""
"image-keyboard-response",351,257598,"0.0-4.113-0.113","0f19oxync82ef5o",585,"46.csv","","245","resources/trios/L4T4A2.jpg","39","restless",0.6,0.3,0.2,0.365900919825159,"false"
"image-keyboard-response",352,258009,"0.0-4.113-1.113","0f19oxync82ef5o",585,"46.csv","","null","resources/maskTrios/BBA2.jpg","null","",NA,NA,NA,NA,""
"image-keyboard-response",353,259223,"0.0-4.113-2.113","0f19oxync82ef5o",585,"46.csv","","null","resources/images/fishbone.png","null","",NA,NA,NA,NA,""
"image-keyboard-response",354,259537,"0.0-4.114-0.114","0f19oxync82ef5o",585,"46.csv","","313","resources/trios/L4T4A2.jpg","38","restless",0.6,0.3,0.2,0.340779149588574,"false"
"image-keyboard-response",355,259941,"0.0-4.114-1.114","0f19oxync82ef5o",585,"46.csv","","null","resources/maskTrios/BT4B.jpg","null","",NA,NA,NA,NA,""
"image-keyboard-response",356,261157,"0.0-4.114-2.114","0f19oxync82ef5o",585,"46.csv","","null","resources/images/fishbone.png","null","",NA,NA,NA,NA,""
"image-keyboard-response",357,262849,"0.0-4.115-0.115","0f19oxync82ef5o",585,"46.csv","","1689","resources/trios/L4T4A2.jpg","38","restless",0.6,0.3,0.2,0.963077124639657,"false"
"image-keyboard-response",358,263258,"0.0-4.115-1.115","0f19oxync82ef5o",585,"46.csv","","null","resources/maskTrios/BT4B.jpg","null","",NA,NA,NA,NA,""
"image-keyboard-response",359,264513,"0.0-4.115-2.115","0f19oxync82ef5o",585,"46.csv","","null","resources/images/fishbone.png","null","",NA,NA,NA,NA,""
"image-keyboard-response",360,264730,"0.0-4.116-0.116","0f19oxync82ef5o",585,"46.csv","","215","resources/trios/L4T4A2.jpg","39","restless",0.6,0.4,0.1,0.063960051147338,"true"
"image-keyboard-response",361,265134,"0.0-4.116-1.116","0f19oxync82ef5o",585,"46.csv","","null","resources/maskTrios/BBA2.jpg","null","",NA,NA,NA,NA,""
"image-keyboard-response",362,266337,"0.0-4.116-2.116","0f19oxync82ef5o",585,"46.csv","","null","resources/images/coin2.png","null","",NA,NA,NA,NA,""
"image-keyboard-response",363,266583,"0.0-4.117-0.117","0f19oxync82ef5o",585,"46.csv","","244","resources/trios/L4T4A2.jpg","39","restless",0.6,0.4,0.1,0.581716633316718,"false"
"image-keyboard-response",364,266990,"0.0-4.117-1.117","0f19oxync82ef5o",585,"46.csv","","null","resources/maskTrios/BBA2.jpg","null","",NA,NA,NA,NA,""
"image-keyboard-response",365,268203,"0.0-4.117-2.117","0f19oxync82ef5o",585,"46.csv","","null","resources/images/fishbone.png","null","",NA,NA,NA,NA,""
"image-keyboard-response",366,268488,"0.0-4.118-0.118","0f19oxync82ef5o",585,"46.csv","","284","resources/trios/L4T4A2.jpg","38","restless",0.6,0.5,0.1,0.388878047207239,"true"
"image-keyboard-response",367,268904,"0.0-4.118-1.118","0f19oxync82ef5o",585,"46.csv","","null","resources/maskTrios/BT4B.jpg","null","",NA,NA,NA,NA,""
"image-keyboard-response",368,270107,"0.0-4.118-2.118","0f19oxync82ef5o",585,"46.csv","","null","resources/images/coin2.png","null","",NA,NA,NA,NA,""
"image-keyboard-response",369,270386,"0.0-4.119-0.119","0f19oxync82ef5o",585,"46.csv","","277","resources/trios/L4T4A2.jpg","39","restless",0.6,0.5,0.1,0.105098455169113,"false"
"image-keyboard-response",370,270789,"0.0-4.119-1.119","0f19oxync82ef5o",585,"46.csv","","null","resources/maskTrios/BBA2.jpg","null","",NA,NA,NA,NA,""
"image-keyboard-response",371,271994,"0.0-4.119-2.119","0f19oxync82ef5o",585,"46.csv","","null","resources/images/fishbone.png","null","",NA,NA,NA,NA,""
"image-keyboard-response",372,272251,"0.0-4.120-0.120","0f19oxync82ef5o",585,"46.csv","","256","resources/trios/L4T4A2.jpg","38","restless",0.6,0.5,0.2,0.323627554173323,"true"
"image-keyboard-response",373,272660,"0.0-4.120-1.120","0f19oxync82ef5o",585,"46.csv","","null","resources/maskTrios/BT4B.jpg","null","",NA,NA,NA,NA,""
"image-keyboard-response",374,273875,"0.0-4.120-2.120","0f19oxync82ef5o",585,"46.csv","","null","resources/images/coin2.png","null","",NA,NA,NA,NA,""
"image-keyboard-response",375,274125,"0.0-4.121-0.121","0f19oxync82ef5o",585,"46.csv","","248","resources/trios/L4T4A2.jpg","38","restless",0.6,0.5,0.2,0.910083924790207,"false"
"image-keyboard-response",376,274533,"0.0-4.121-1.121","0f19oxync82ef5o",585,"46.csv","","null","resources/maskTrios/BT4B.jpg","null","",NA,NA,NA,NA,""
"image-keyboard-response",377,275736,"0.0-4.121-2.121","0f19oxync82ef5o",585,"46.csv","","null","resources/images/fishbone.png","null","",NA,NA,NA,NA,""
"image-keyboard-response",378,276369,"0.0-4.122-0.122","0f19oxync82ef5o",585,"46.csv","","632","resources/trios/L4T4A2.jpg","39","restless",0.6,0.5,0.2,0.843550934498738,"false"
"image-keyboard-response",379,276780,"0.0-4.122-1.122","0f19oxync82ef5o",585,"46.csv","","null","resources/maskTrios/BBA2.jpg","null","",NA,NA,NA,NA,""
"image-keyboard-response",380,277995,"0.0-4.122-2.122","0f19oxync82ef5o",585,"46.csv","","null","resources/images/fishbone.png","null","",NA,NA,NA,NA,""
"image-keyboard-response",381,278267,"0.0-4.123-0.123","0f19oxync82ef5o",585,"46.csv","","270","resources/trios/L4T4A2.jpg","39","restless",0.6,0.5,0.2,0.568781287661243,"false"
"image-keyboard-response",382,278679,"0.0-4.123-1.123","0f19oxync82ef5o",585,"46.csv","","null","resources/maskTrios/BBA2.jpg","null","",NA,NA,NA,NA,""
"image-keyboard-response",383,279879,"0.0-4.123-2.123","0f19oxync82ef5o",585,"46.csv","","null","resources/images/fishbone.png","null","",NA,NA,NA,NA,""
"image-keyboard-response",384,280276,"0.0-4.124-0.124","0f19oxync82ef5o",585,"46.csv","","396","resources/trios/L4T4A2.jpg","37","restless",0.6,0.5,0.2,0.786060741709522,"false"
"image-keyboard-response",385,280689,"0.0-4.124-1.124","0f19oxync82ef5o",585,"46.csv","","null","resources/maskTrios/L4BB.jpg","null","",NA,NA,NA,NA,""
"image-keyboard-response",386,281899,"0.0-4.124-2.124","0f19oxync82ef5o",585,"46.csv","","null","resources/images/fishbone.png","null","",NA,NA,NA,NA,""
"image-keyboard-response",387,282116,"0.0-4.125-0.125","0f19oxync82ef5o",585,"46.csv","","217","resources/trios/L4T4A2.jpg","38","restless",0.6,0.5,0.2,0.808255480449599,"false"
"image-keyboard-response",388,282523,"0.0-4.125-1.125","0f19oxync82ef5o",585,"46.csv","","null","resources/maskTrios/BT4B.jpg","null","",NA,NA,NA,NA,""
"image-keyboard-response",389,283737,"0.0-4.125-2.125","0f19oxync82ef5o",585,"46.csv","","null","resources/images/fishbone.png","null","",NA,NA,NA,NA,""
"image-keyboard-response",390,283976,"0.0-4.126-0.126","0f19oxync82ef5o",585,"46.csv","","239","resources/trios/L4T4A2.jpg","37","restless",0.6,0.5,0.2,0.244221852777799,"true"
"image-keyboard-response",391,284390,"0.0-4.126-1.126","0f19oxync82ef5o",585,"46.csv","","null","resources/maskTrios/L4BB.jpg","null","",NA,NA,NA,NA,""
"image-keyboard-response",392,285594,"0.0-4.126-2.126","0f19oxync82ef5o",585,"46.csv","","null","resources/images/coin2.png","null","",NA,NA,NA,NA,""
"image-keyboard-response",393,285976,"0.0-4.127-0.127","0f19oxync82ef5o",585,"46.csv","","380","resources/trios/L4T4A2.jpg","37","restless",0.6,0.5,0.2,0.218116004939258,"true"
"image-keyboard-response",394,286383,"0.0-4.127-1.127","0f19oxync82ef5o",585,"46.csv","","null","resources/maskTrios/L4BB.jpg","null","",NA,NA,NA,NA,""
"image-keyboard-response",395,287598,"0.0-4.127-2.127","0f19oxync82ef5o",585,"46.csv","","null","resources/images/coin2.png","null","",NA,NA,NA,NA,""
"image-keyboard-response",396,287900,"0.0-4.128-0.128","0f19oxync82ef5o",585,"46.csv","","301","resources/trios/L4T4A2.jpg","37","restless",0.6,0.5,0.2,0.944224174991088,"false"
"image-keyboard-response",397,288316,"0.0-4.128-1.128","0f19oxync82ef5o",585,"46.csv","","null","resources/maskTrios/L4BB.jpg","null","",NA,NA,NA,NA,""
"image-keyboard-response",398,289547,"0.0-4.128-2.128","0f19oxync82ef5o",585,"46.csv","","null","resources/images/fishbone.png","null","",NA,NA,NA,NA,""
"image-keyboard-response",399,289890,"0.0-4.129-0.129","0f19oxync82ef5o",585,"46.csv","","342","resources/trios/L4T4A2.jpg","38","restless",0.6,0.5,0.2,0.86552203899792,"false"
"image-keyboard-response",400,290296,"0.0-4.129-1.129","0f19oxync82ef5o",585,"46.csv","","null","resources/maskTrios/BT4B.jpg","null","",NA,NA,NA,NA,""
"image-keyboard-response",401,291505,"0.0-4.129-2.129","0f19oxync82ef5o",585,"46.csv","","null","resources/images/fishbone.png","null","",NA,NA,NA,NA,""
"image-keyboard-response",402,291887,"0.0-4.130-0.130","0f19oxync82ef5o",585,"46.csv","","381","resources/trios/L4T4A2.jpg","38","restless",0.6,0.5,0.2,0.764208994429973,"false"
"image-keyboard-response",403,292299,"0.0-4.130-1.130","0f19oxync82ef5o",585,"46.csv","","null","resources/maskTrios/BT4B.jpg","null","",NA,NA,NA,NA,""
"image-keyboard-response",404,293511,"0.0-4.130-2.130","0f19oxync82ef5o",585,"46.csv","","null","resources/images/fishbone.png","null","",NA,NA,NA,NA,""
"image-keyboard-response",405,293756,"0.0-4.131-0.131","0f19oxync82ef5o",585,"46.csv","","244","resources/trios/L4T4A2.jpg","39","restless",0.6,0.4,0.2,0.940845385803616,"false"
"image-keyboard-response",406,294166,"0.0-4.131-1.131","0f19oxync82ef5o",585,"46.csv","","null","resources/maskTrios/BBA2.jpg","null","",NA,NA,NA,NA,""
"image-keyboard-response",407,295374,"0.0-4.131-2.131","0f19oxync82ef5o",585,"46.csv","","null","resources/images/fishbone.png","null","",NA,NA,NA,NA,""
"image-keyboard-response",408,296104,"0.0-4.132-0.132","0f19oxync82ef5o",585,"46.csv","","729","resources/trios/L4T4A2.jpg","37","restless",0.6,0.4,0.2,0.634877265874312,"false"
"image-keyboard-response",409,296509,"0.0-4.132-1.132","0f19oxync82ef5o",585,"46.csv","","null","resources/maskTrios/L4BB.jpg","null","",NA,NA,NA,NA,""
"image-keyboard-response",410,297721,"0.0-4.132-2.132","0f19oxync82ef5o",585,"46.csv","","null","resources/images/fishbone.png","null","",NA,NA,NA,NA,""
"image-keyboard-response",411,297829,"0.0-4.133-0.133","0f19oxync82ef5o",585,"46.csv","","106","resources/trios/L4T4A2.jpg","38","restless",0.6,0.4,0.2,0.466643943598626,"false"
"image-keyboard-response",412,298237,"0.0-4.133-1.133","0f19oxync82ef5o",585,"46.csv","","null","resources/maskTrios/BT4B.jpg","null","",NA,NA,NA,NA,""
"image-keyboard-response",413,299451,"0.0-4.133-2.133","0f19oxync82ef5o",585,"46.csv","","null","resources/images/fishbone.png","null","",NA,NA,NA,NA,""
"image-keyboard-response",414,299646,"0.0-4.134-0.134","0f19oxync82ef5o",585,"46.csv","","193","resources/trios/L4T4A2.jpg","39","restless",0.6,0.4,0.2,0.192006343751505,"true"
"image-keyboard-response",415,300058,"0.0-4.134-1.134","0f19oxync82ef5o",585,"46.csv","","null","resources/maskTrios/BBA2.jpg","null","",NA,NA,NA,NA,""
"image-keyboard-response",416,301271,"0.0-4.134-2.134","0f19oxync82ef5o",585,"46.csv","","null","resources/images/coin2.png","null","",NA,NA,NA,NA,""
"image-keyboard-response",417,301503,"0.0-4.135-0.135","0f19oxync82ef5o",585,"46.csv","","230","resources/trios/L4T4A2.jpg","39","restless",0.6,0.4,0.1,0.606783990919976,"false"
"image-keyboard-response",418,301909,"0.0-4.135-1.135","0f19oxync82ef5o",585,"46.csv","","null","resources/maskTrios/BBA2.jpg","null","",NA,NA,NA,NA,""
"image-keyboard-response",419,303119,"0.0-4.135-2.135","0f19oxync82ef5o",585,"46.csv","","null","resources/images/fishbone.png","null","",NA,NA,NA,NA,""
"image-keyboard-response",420,303699,"0.0-4.136-0.136","0f19oxync82ef5o",585,"46.csv","","578","resources/trios/L4T4A2.jpg","38","restless",0.6,0.5,0.1,0.464394879884243,"true"
"image-keyboard-response",421,304101,"0.0-4.136-1.136","0f19oxync82ef5o",585,"46.csv","","null","resources/maskTrios/BT4B.jpg","null","",NA,NA,NA,NA,""
"image-keyboard-response",422,305311,"0.0-4.136-2.136","0f19oxync82ef5o",585,"46.csv","","null","resources/images/coin2.png","null","",NA,NA,NA,NA,""
"image-keyboard-response",423,306051,"0.0-4.137-0.137","0f19oxync82ef5o",585,"46.csv","","738","resources/trios/L4T4A2.jpg","37","restless",0.5,0.5,0.1,0.267998619456036,"true"
"image-keyboard-response",424,306463,"0.0-4.137-1.137","0f19oxync82ef5o",585,"46.csv","","null","resources/maskTrios/L4BB.jpg","null","",NA,NA,NA,NA,""
"image-keyboard-response",425,307673,"0.0-4.137-2.137","0f19oxync82ef5o",585,"46.csv","","null","resources/images/coin2.png","null","",NA,NA,NA,NA,""
"image-keyboard-response",426,308060,"0.0-4.138-0.138","0f19oxync82ef5o",585,"46.csv","","385","resources/trios/L4T4A2.jpg","39","restless",0.5,0.5,0.1,0.61296247606663,"false"
"image-keyboard-response",427,308468,"0.0-4.138-1.138","0f19oxync82ef5o",585,"46.csv","","null","resources/maskTrios/BBA2.jpg","null","",NA,NA,NA,NA,""
"image-keyboard-response",428,309679,"0.0-4.138-2.138","0f19oxync82ef5o",585,"46.csv","","null","resources/images/fishbone.png","null","",NA,NA,NA,NA,""
"image-keyboard-response",429,311294,"0.0-4.139-0.139","0f19oxync82ef5o",585,"46.csv","","1614","resources/trios/L4T4A2.jpg","38","restless",0.5,0.5,0.1,0.00704273446839643,"true"
"image-keyboard-response",430,311696,"0.0-4.139-1.139","0f19oxync82ef5o",585,"46.csv","","null","resources/maskTrios/BT4B.jpg","null","",NA,NA,NA,NA,""
"image-keyboard-response",431,312909,"0.0-4.139-2.139","0f19oxync82ef5o",585,"46.csv","","null","resources/images/coin2.png","null","",NA,NA,NA,NA,""
"image-keyboard-response",432,313142,"0.0-4.140-0.140","0f19oxync82ef5o",585,"46.csv","","232","resources/trios/L4T4A2.jpg","39","restless",0.5,0.5,0.1,0.757346180644485,"false"
"image-keyboard-response",433,313546,"0.0-4.140-1.140","0f19oxync82ef5o",585,"46.csv","","null","resources/maskTrios/BBA2.jpg","null","",NA,NA,NA,NA,""
"image-keyboard-response",434,314757,"0.0-4.140-2.140","0f19oxync82ef5o",585,"46.csv","","null","resources/images/fishbone.png","null","",NA,NA,NA,NA,""
"image-keyboard-response",435,314968,"0.0-4.141-0.141","0f19oxync82ef5o",585,"46.csv","","209","resources/trios/L4T4A2.jpg","38","restless",0.5,0.5,0.1,0.582700807108875,"false"
"image-keyboard-response",436,315374,"0.0-4.141-1.141","0f19oxync82ef5o",585,"46.csv","","null","resources/maskTrios/BT4B.jpg","null","",NA,NA,NA,NA,""
"image-keyboard-response",437,316585,"0.0-4.141-2.141","0f19oxync82ef5o",585,"46.csv","","null","resources/images/fishbone.png","null","",NA,NA,NA,NA,""
"image-keyboard-response",438,316816,"0.0-4.142-0.142","0f19oxync82ef5o",585,"46.csv","","230","resources/trios/L4T4A2.jpg","39","restless",0.5,0.5,0.1,0.992106506395645,"false"
"image-keyboard-response",439,317221,"0.0-4.142-1.142","0f19oxync82ef5o",585,"46.csv","","null","resources/maskTrios/BBA2.jpg","null","",NA,NA,NA,NA,""
"image-keyboard-response",440,318435,"0.0-4.142-2.142","0f19oxync82ef5o",585,"46.csv","","null","resources/images/fishbone.png","null","",NA,NA,NA,NA,""
"image-keyboard-response",441,318695,"0.0-4.143-0.143","0f19oxync82ef5o",585,"46.csv","","259","resources/trios/L4T4A2.jpg","37","restless",0.6,0.5,0.1,0.0281784685465511,"true"
"image-keyboard-response",442,319102,"0.0-4.143-1.143","0f19oxync82ef5o",585,"46.csv","","null","resources/maskTrios/L4BB.jpg","null","",NA,NA,NA,NA,""
"image-keyboard-response",443,320315,"0.0-4.143-2.143","0f19oxync82ef5o",585,"46.csv","","null","resources/images/coin2.png","null","",NA,NA,NA,NA,""
"image-keyboard-response",444,320617,"0.0-4.144-0.144","0f19oxync82ef5o",585,"46.csv","","301","resources/trios/L4T4A2.jpg","37","restless",0.6,0.5,0.1,0.720470133259388,"false"
"image-keyboard-response",445,321033,"0.0-4.144-1.144","0f19oxync82ef5o",585,"46.csv","","null","resources/maskTrios/L4BB.jpg","null","",NA,NA,NA,NA,""
"image-keyboard-response",446,322244,"0.0-4.144-2.144","0f19oxync82ef5o",585,"46.csv","","null","resources/images/fishbone.png","null","",NA,NA,NA,NA,""
"image-keyboard-response",447,322494,"0.0-4.145-0.145","0f19oxync82ef5o",585,"46.csv","","248","resources/trios/L4T4A2.jpg","39","restless",0.6,0.5,0.1,0.621107453600199,"false"
"image-keyboard-response",448,322895,"0.0-4.145-1.145","0f19oxync82ef5o",585,"46.csv","","null","resources/maskTrios/BBA2.jpg","null","",NA,NA,NA,NA,""
"image-keyboard-response",449,324097,"0.0-4.145-2.145","0f19oxync82ef5o",585,"46.csv","","null","resources/images/fishbone.png","null","",NA,NA,NA,NA,""
"image-keyboard-response",450,324338,"0.0-4.146-0.146","0f19oxync82ef5o",585,"46.csv","","239","resources/trios/L4T4A2.jpg","38","restless",0.5,0.5,0.2,0.907930540481571,"false"
"image-keyboard-response",451,324751,"0.0-4.146-1.146","0f19oxync82ef5o",585,"46.csv","","null","resources/maskTrios/BT4B.jpg","null","",NA,NA,NA,NA,""
"image-keyboard-response",452,325952,"0.0-4.146-2.146","0f19oxync82ef5o",585,"46.csv","","null","resources/images/fishbone.png","null","",NA,NA,NA,NA,""
"image-keyboard-response",453,326084,"0.0-4.147-0.147","0f19oxync82ef5o",585,"46.csv","","130","resources/trios/L4T4A2.jpg","37","restless",0.5,0.5,0.2,0.671495860587463,"false"
"image-keyboard-response",454,326496,"0.0-4.147-1.147","0f19oxync82ef5o",585,"46.csv","","null","resources/maskTrios/L4BB.jpg","null","",NA,NA,NA,NA,""
"image-keyboard-response",455,327704,"0.0-4.147-2.147","0f19oxync82ef5o",585,"46.csv","","null","resources/images/fishbone.png","null","",NA,NA,NA,NA,""
"image-keyboard-response",456,327816,"0.0-4.148-0.148","0f19oxync82ef5o",585,"46.csv","","109","resources/trios/L4T4A2.jpg","39","restless",0.6,0.5,0.2,0.900411796642097,"false"
"image-keyboard-response",457,328218,"0.0-4.148-1.148","0f19oxync82ef5o",585,"46.csv","","null","resources/maskTrios/BBA2.jpg","null","",NA,NA,NA,NA,""
"image-keyboard-response",458,329430,"0.0-4.148-2.148","0f19oxync82ef5o",585,"46.csv","","null","resources/images/fishbone.png","null","",NA,NA,NA,NA,""
"image-keyboard-response",459,329653,"0.0-4.149-0.149","0f19oxync82ef5o",585,"46.csv","","223","resources/trios/L4T4A2.jpg","38","restless",0.6,0.5,0.3,0.682368977047824,"false"
"image-keyboard-response",460,330062,"0.0-4.149-1.149","0f19oxync82ef5o",585,"46.csv","","null","resources/maskTrios/BT4B.jpg","null","",NA,NA,NA,NA,""
"image-keyboard-response",461,331277,"0.0-4.149-2.149","0f19oxync82ef5o",585,"46.csv","","null","resources/images/fishbone.png","null","",NA,NA,NA,NA,""
"image-keyboard-response",462,331469,"0.0-4.150-0.150","0f19oxync82ef5o",585,"46.csv","","193","resources/trios/L4T4A2.jpg","37","restless",0.6,0.5,0.3,0.749444328045615,"false"
"image-keyboard-response",463,331881,"0.0-4.150-1.150","0f19oxync82ef5o",585,"46.csv","","null","resources/maskTrios/L4BB.jpg","null","",NA,NA,NA,NA,""
"image-keyboard-response",464,333097,"0.0-4.150-2.150","0f19oxync82ef5o",585,"46.csv","","null","resources/images/fishbone.png","null","",NA,NA,NA,NA,""
"image-keyboard-response",465,333346,"0.0-4.151-0.151","0f19oxync82ef5o",585,"46.csv","","247","resources/trios/L4T4A2.jpg","37","restless",0.6,0.5,0.3,0.773632196617383,"false"
"image-keyboard-response",466,333752,"0.0-4.151-1.151","0f19oxync82ef5o",585,"46.csv","","null","resources/maskTrios/L4BB.jpg","null","",NA,NA,NA,NA,""
"image-keyboard-response",467,334983,"0.0-4.151-2.151","0f19oxync82ef5o",585,"46.csv","","null","resources/images/fishbone.png","null","",NA,NA,NA,NA,""
"image-keyboard-response",468,335247,"0.0-4.152-0.152","0f19oxync82ef5o",585,"46.csv","","263","resources/trios/L4T4A2.jpg","37","restless",0.6,0.5,0.3,0.285203536395685,"true"
"image-keyboard-response",469,335663,"0.0-4.152-1.152","0f19oxync82ef5o",585,"46.csv","","null","resources/maskTrios/L4BB.jpg","null","",NA,NA,NA,NA,""
"image-keyboard-response",470,336877,"0.0-4.152-2.152","0f19oxync82ef5o",585,"46.csv","","null","resources/images/coin2.png","null","",NA,NA,NA,NA,""
"image-keyboard-response",471,337331,"0.0-4.153-0.153","0f19oxync82ef5o",585,"46.csv","","452","resources/trios/L4T4A2.jpg","37","restless",0.6,0.5,0.3,0.446433564675086,"true"
"image-keyboard-response",472,337735,"0.0-4.153-1.153","0f19oxync82ef5o",585,"46.csv","","null","resources/maskTrios/L4BB.jpg","null","",NA,NA,NA,NA,""
"image-keyboard-response",473,338945,"0.0-4.153-2.153","0f19oxync82ef5o",585,"46.csv","","null","resources/images/coin2.png","null","",NA,NA,NA,NA,""
"image-keyboard-response",474,339248,"0.0-4.154-0.154","0f19oxync82ef5o",585,"46.csv","","302","resources/trios/L4T4A2.jpg","37","restless",0.6,0.5,0.3,0.999757727003902,"false"
"image-keyboard-response",475,339662,"0.0-4.154-1.154","0f19oxync82ef5o",585,"46.csv","","null","resources/maskTrios/L4BB.jpg","null","",NA,NA,NA,NA,""
"image-keyboard-response",476,340865,"0.0-4.154-2.154","0f19oxync82ef5o",585,"46.csv","","null","resources/images/fishbone.png","null","",NA,NA,NA,NA,""
"image-keyboard-response",477,341689,"0.0-4.155-0.155","0f19oxync82ef5o",585,"46.csv","","824","resources/trios/L4T4A2.jpg","38","restless",0.6,0.5,0.3,0.236487160671194,"true"
"image-keyboard-response",478,342095,"0.0-4.155-1.155","0f19oxync82ef5o",585,"46.csv","","null","resources/maskTrios/BT4B.jpg","null","",NA,NA,NA,NA,""
"image-keyboard-response",479,343297,"0.0-4.155-2.155","0f19oxync82ef5o",585,"46.csv","","null","resources/images/coin2.png","null","",NA,NA,NA,NA,""
"image-keyboard-response",480,343591,"0.0-4.156-0.156","0f19oxync82ef5o",585,"46.csv","","292","resources/trios/L4T4A2.jpg","38","restless",0.7,0.5,0.3,0.48861761621038,"true"
"image-keyboard-response",481,343993,"0.0-4.156-1.156","0f19oxync82ef5o",585,"46.csv","","null","resources/maskTrios/BT4B.jpg","null","",NA,NA,NA,NA,""
"image-keyboard-response",482,345203,"0.0-4.156-2.156","0f19oxync82ef5o",585,"46.csv","","null","resources/images/coin2.png","null","",NA,NA,NA,NA,""
"image-keyboard-response",483,345441,"0.0-4.157-0.157","0f19oxync82ef5o",585,"46.csv","","237","resources/trios/L4T4A2.jpg","39","restless",0.8,0.5,0.4,0.991365069492507,"false"
"image-keyboard-response",484,345852,"0.0-4.157-1.157","0f19oxync82ef5o",585,"46.csv","","null","resources/maskTrios/BBA2.jpg","null","",NA,NA,NA,NA,""
"image-keyboard-response",485,347060,"0.0-4.157-2.157","0f19oxync82ef5o",585,"46.csv","","null","resources/images/fishbone.png","null","",NA,NA,NA,NA,""
"image-keyboard-response",486,347341,"0.0-4.158-0.158","0f19oxync82ef5o",585,"46.csv","","279","resources/trios/L4T4A2.jpg","38","restless",0.8,0.5,0.3,0.335576436610951,"true"
"image-keyboard-response",487,347758,"0.0-4.158-1.158","0f19oxync82ef5o",585,"46.csv","","null","resources/maskTrios/BT4B.jpg","null","",NA,NA,NA,NA,""
"image-keyboard-response",488,348967,"0.0-4.158-2.158","0f19oxync82ef5o",585,"46.csv","","null","resources/images/coin2.png","null","",NA,NA,NA,NA,""
"image-keyboard-response",489,349188,"0.0-4.159-0.159","0f19oxync82ef5o",585,"46.csv","","218","resources/trios/L4T4A2.jpg","38","restless",0.8,0.5,0.3,0.0924355369576833,"true"
"image-keyboard-response",490,349603,"0.0-4.159-1.159","0f19oxync82ef5o",585,"46.csv","","null","resources/maskTrios/BT4B.jpg","null","",NA,NA,NA,NA,""
"image-keyboard-response",491,350809,"0.0-4.159-2.159","0f19oxync82ef5o",585,"46.csv","","null","resources/images/coin2.png","null","",NA,NA,NA,NA,""
"image-keyboard-response",492,351068,"0.0-4.160-0.160","0f19oxync82ef5o",585,"46.csv","","259","resources/trios/L4T4A2.jpg","38","restless",0.8,0.5,0.3,0.235381570249666,"true"
"image-keyboard-response",493,351479,"0.0-4.160-1.160","0f19oxync82ef5o",585,"46.csv","","null","resources/maskTrios/BT4B.jpg","null","",NA,NA,NA,NA,""
"image-keyboard-response",494,352689,"0.0-4.160-2.160","0f19oxync82ef5o",585,"46.csv","","null","resources/images/coin2.png","null","",NA,NA,NA,NA,""
"image-keyboard-response",495,352917,"0.0-4.161-0.161","0f19oxync82ef5o",585,"46.csv","","226","resources/trios/L4T4A2.jpg","38","restless",0.8,0.5,0.3,0.457696149522273,"true"
"image-keyboard-response",496,353321,"0.0-4.161-1.161","0f19oxync82ef5o",585,"46.csv","","null","resources/maskTrios/BT4B.jpg","null","",NA,NA,NA,NA,""
"image-keyboard-response",497,354535,"0.0-4.161-2.161","0f19oxync82ef5o",585,"46.csv","","null","resources/images/coin2.png","null","",NA,NA,NA,NA,""
"image-keyboard-response",498,354827,"0.0-4.162-0.162","0f19oxync82ef5o",585,"46.csv","","291","resources/trios/L4T4A2.jpg","38","restless",0.9,0.5,0.3,0.0363837110863702,"true"
"image-keyboard-response",499,355234,"0.0-4.162-1.162","0f19oxync82ef5o",585,"46.csv","","null","resources/maskTrios/BT4B.jpg","null","",NA,NA,NA,NA,""
"image-keyboard-response",500,356449,"0.0-4.162-2.162","0f19oxync82ef5o",585,"46.csv","","null","resources/images/coin2.png","null","",NA,NA,NA,NA,""
"image-keyboard-response",501,356717,"0.0-4.163-0.163","0f19oxync82ef5o",585,"46.csv","","266","resources/trios/L4T4A2.jpg","38","restless",0.8,0.5,0.3,0.790858607034867,"false"
"image-keyboard-response",502,357131,"0.0-4.163-1.163","0f19oxync82ef5o",585,"46.csv","","null","resources/maskTrios/BT4B.jpg","null","",NA,NA,NA,NA,""
"image-keyboard-response",503,358347,"0.0-4.163-2.163","0f19oxync82ef5o",585,"46.csv","","null","resources/images/fishbone.png","null","",NA,NA,NA,NA,""
"image-keyboard-response",504,358566,"0.0-4.164-0.164","0f19oxync82ef5o",585,"46.csv","","218","resources/trios/L4T4A2.jpg","39","restless",0.8,0.5,0.3,0.600861683850608,"false"
"image-keyboard-response",505,358970,"0.0-4.164-1.164","0f19oxync82ef5o",585,"46.csv","","null","resources/maskTrios/BBA2.jpg","null","",NA,NA,NA,NA,""
"image-keyboard-response",506,360178,"0.0-4.164-2.164","0f19oxync82ef5o",585,"46.csv","","null","resources/images/fishbone.png","null","",NA,NA,NA,NA,""
"image-keyboard-response",507,360620,"0.0-4.165-0.165","0f19oxync82ef5o",585,"46.csv","","441","resources/trios/L4T4A2.jpg","37","restless",0.8,0.5,0.2,0.613162062202856,"true"
"image-keyboard-response",508,361037,"0.0-4.165-1.165","0f19oxync82ef5o",585,"46.csv","","null","resources/maskTrios/L4BB.jpg","null","",NA,NA,NA,NA,""
"image-keyboard-response",509,362250,"0.0-4.165-2.165","0f19oxync82ef5o",585,"46.csv","","null","resources/images/coin2.png","null","",NA,NA,NA,NA,""
"image-keyboard-response",510,362520,"0.0-4.166-0.166","0f19oxync82ef5o",585,"46.csv","","267","resources/trios/L4T4A2.jpg","37","restless",0.8,0.5,0.2,0.755183710566333,"true"
"image-keyboard-response",511,362925,"0.0-4.166-1.166","0f19oxync82ef5o",585,"46.csv","","null","resources/maskTrios/L4BB.jpg","null","",NA,NA,NA,NA,""
"image-keyboard-response",512,364129,"0.0-4.166-2.166","0f19oxync82ef5o",585,"46.csv","","null","resources/images/coin2.png","null","",NA,NA,NA,NA,""
"image-keyboard-response",513,364483,"0.0-4.167-0.167","0f19oxync82ef5o",585,"46.csv","","351","resources/trios/L4T4A2.jpg","37","restless",0.8,0.5,0.2,0.59886336700738,"true"
"image-keyboard-response",514,364893,"0.0-4.167-1.167","0f19oxync82ef5o",585,"46.csv","","null","resources/maskTrios/L4BB.jpg","null","",NA,NA,NA,NA,""
"image-keyboard-response",515,366102,"0.0-4.167-2.167","0f19oxync82ef5o",585,"46.csv","","null","resources/images/coin2.png","null","",NA,NA,NA,NA,""
"image-keyboard-response",516,366443,"0.0-4.168-0.168","0f19oxync82ef5o",585,"46.csv","","341","resources/trios/L4T4A2.jpg","37","restless",0.8,0.5,0.3,0.445025132119364,"true"
"image-keyboard-response",517,366859,"0.0-4.168-1.168","0f19oxync82ef5o",585,"46.csv","","null","resources/maskTrios/L4BB.jpg","null","",NA,NA,NA,NA,""
"image-keyboard-response",518,368068,"0.0-4.168-2.168","0f19oxync82ef5o",585,"46.csv","","null","resources/images/coin2.png","null","",NA,NA,NA,NA,""
"image-keyboard-response",519,368665,"0.0-4.169-0.169","0f19oxync82ef5o",585,"46.csv","","595","resources/trios/L4T4A2.jpg","37","restless",0.8,0.6,0.4,0.3248983202869,"true"
"image-keyboard-response",520,369079,"0.0-4.169-1.169","0f19oxync82ef5o",585,"46.csv","","null","resources/maskTrios/L4BB.jpg","null","",NA,NA,NA,NA,""
"image-keyboard-response",521,370285,"0.0-4.169-2.169","0f19oxync82ef5o",585,"46.csv","","null","resources/images/coin2.png","null","",NA,NA,NA,NA,""
"image-keyboard-response",522,370545,"0.0-4.170-0.170","0f19oxync82ef5o",585,"46.csv","","258","resources/trios/L4T4A2.jpg","37","restless",0.8,0.6,0.4,0.649841179479958,"true"
"image-keyboard-response",523,370957,"0.0-4.170-1.170","0f19oxync82ef5o",585,"46.csv","","null","resources/maskTrios/L4BB.jpg","null","",NA,NA,NA,NA,""
"image-keyboard-response",524,372163,"0.0-4.170-2.170","0f19oxync82ef5o",585,"46.csv","","null","resources/images/coin2.png","null","",NA,NA,NA,NA,""
"image-keyboard-response",525,372505,"0.0-4.171-0.171","0f19oxync82ef5o",585,"46.csv","","340","resources/trios/L4T4A2.jpg","37","restless",0.8,0.5,0.4,0.513829699391006,"true"
"image-keyboard-response",526,372910,"0.0-4.171-1.171","0f19oxync82ef5o",585,"46.csv","","null","resources/maskTrios/L4BB.jpg","null","",NA,NA,NA,NA,""
"image-keyboard-response",527,374123,"0.0-4.171-2.171","0f19oxync82ef5o",585,"46.csv","","null","resources/images/coin2.png","null","",NA,NA,NA,NA,""
"image-keyboard-response",528,374385,"0.0-4.172-0.172","0f19oxync82ef5o",585,"46.csv","","261","resources/trios/L4T4A2.jpg","37","restless",0.8,0.5,0.4,0.421691164055913,"true"
"image-keyboard-response",529,374789,"0.0-4.172-1.172","0f19oxync82ef5o",585,"46.csv","","null","resources/maskTrios/L4BB.jpg","null","",NA,NA,NA,NA,""
"image-keyboard-response",530,375997,"0.0-4.172-2.172","0f19oxync82ef5o",585,"46.csv","","null","resources/images/coin2.png","null","",NA,NA,NA,NA,""
"image-keyboard-response",531,376262,"0.0-4.173-0.173","0f19oxync82ef5o",585,"46.csv","","265","resources/trios/L4T4A2.jpg","37","restless",0.8,0.5,0.4,0.714851915648321,"true"
"image-keyboard-response",532,376664,"0.0-4.173-1.173","0f19oxync82ef5o",585,"46.csv","","null","resources/maskTrios/L4BB.jpg","null","",NA,NA,NA,NA,""
"image-keyboard-response",533,377880,"0.0-4.173-2.173","0f19oxync82ef5o",585,"46.csv","","null","resources/images/coin2.png","null","",NA,NA,NA,NA,""
"image-keyboard-response",534,378136,"0.0-4.174-0.174","0f19oxync82ef5o",585,"46.csv","","255","resources/trios/L4T4A2.jpg","37","restless",0.8,0.5,0.4,0.385365063703806,"true"
"image-keyboard-response",535,378546,"0.0-4.174-1.174","0f19oxync82ef5o",585,"46.csv","","null","resources/maskTrios/L4BB.jpg","null","",NA,NA,NA,NA,""
"image-keyboard-response",536,379756,"0.0-4.174-2.174","0f19oxync82ef5o",585,"46.csv","","null","resources/images/coin2.png","null","",NA,NA,NA,NA,""
"image-keyboard-response",537,380050,"0.0-4.175-0.175","0f19oxync82ef5o",585,"46.csv","","293","resources/trios/L4T4A2.jpg","37","restless",0.8,0.5,0.4,0.901864518594933,"false"
"image-keyboard-response",538,380463,"0.0-4.175-1.175","0f19oxync82ef5o",585,"46.csv","","null","resources/maskTrios/L4BB.jpg","null","",NA,NA,NA,NA,""
"image-keyboard-response",539,381676,"0.0-4.175-2.175","0f19oxync82ef5o",585,"46.csv","","null","resources/images/fishbone.png","null","",NA,NA,NA,NA,""
"image-keyboard-response",540,381743,"0.0-4.176-0.176","0f19oxync82ef5o",585,"46.csv","","66","resources/trios/L4T4A2.jpg","39","restless",0.8,0.5,0.4,0.377631878407631,"true"
"image-keyboard-response",541,382159,"0.0-4.176-1.176","0f19oxync82ef5o",585,"46.csv","","null","resources/maskTrios/BBA2.jpg","null","",NA,NA,NA,NA,""
"image-keyboard-response",542,383372,"0.0-4.176-2.176","0f19oxync82ef5o",585,"46.csv","","null","resources/images/coin2.png","null","",NA,NA,NA,NA,""
"image-keyboard-response",543,383692,"0.0-4.177-0.177","0f19oxync82ef5o",585,"46.csv","","319","resources/trios/L4T4A2.jpg","39","restless",0.8,0.4,0.4,0.0128093032102644,"true"
"image-keyboard-response",544,384100,"0.0-4.177-1.177","0f19oxync82ef5o",585,"46.csv","","null","resources/maskTrios/BBA2.jpg","null","",NA,NA,NA,NA,""
"image-keyboard-response",545,385320,"0.0-4.177-2.177","0f19oxync82ef5o",585,"46.csv","","null","resources/images/coin2.png","null","",NA,NA,NA,NA,""
"image-keyboard-response",546,385657,"0.0-4.178-0.178","0f19oxync82ef5o",585,"46.csv","","335","resources/trios/L4T4A2.jpg","39","restless",0.8,0.4,0.4,0.786531717164194,"false"
"image-keyboard-response",547,386065,"0.0-4.178-1.178","0f19oxync82ef5o",585,"46.csv","","null","resources/maskTrios/BBA2.jpg","null","",NA,NA,NA,NA,""
"image-keyboard-response",548,387279,"0.0-4.178-2.178","0f19oxync82ef5o",585,"46.csv","","null","resources/images/fishbone.png","null","",NA,NA,NA,NA,""
"image-keyboard-response",549,387807,"0.0-4.179-0.179","0f19oxync82ef5o",585,"46.csv","","528","resources/trios/L4T4A2.jpg","38","restless",0.8,0.4,0.4,0.362555433517591,"true"
"image-keyboard-response",550,388222,"0.0-4.179-1.179","0f19oxync82ef5o",585,"46.csv","","null","resources/maskTrios/BT4B.jpg","null","",NA,NA,NA,NA,""
"image-keyboard-response",551,389432,"0.0-4.179-2.179","0f19oxync82ef5o",585,"46.csv","","null","resources/images/coin2.png","null","",NA,NA,NA,NA,""
"image-keyboard-response",552,389724,"0.0-4.180-0.180","0f19oxync82ef5o",585,"46.csv","","290","resources/trios/L4T4A2.jpg","38","restless",0.8,0.4,0.4,0.950954991913321,"false"
"image-keyboard-response",553,390129,"0.0-4.180-1.180","0f19oxync82ef5o",585,"46.csv","","null","resources/maskTrios/BT4B.jpg","null","",NA,NA,NA,NA,""
"image-keyboard-response",554,391342,"0.0-4.180-2.180","0f19oxync82ef5o",585,"46.csv","","null","resources/images/fishbone.png","null","",NA,NA,NA,NA,""
"image-keyboard-response",555,391520,"0.0-4.181-0.181","0f19oxync82ef5o",585,"46.csv","","176","resources/trios/L4T4A2.jpg","37","restless",0.8,0.4,0.4,0.982727492090436,"false"
"image-keyboard-response",556,391932,"0.0-4.181-1.181","0f19oxync82ef5o",585,"46.csv","","null","resources/maskTrios/L4BB.jpg","null","",NA,NA,NA,NA,""
"image-keyboard-response",557,393145,"0.0-4.181-2.181","0f19oxync82ef5o",585,"46.csv","","null","resources/images/fishbone.png","null","",NA,NA,NA,NA,""
"image-keyboard-response",558,393478,"0.0-4.182-0.182","0f19oxync82ef5o",585,"46.csv","","331","resources/trios/L4T4A2.jpg","39","restless",0.8,0.4,0.4,0.908960117245291,"false"
"image-keyboard-response",559,393892,"0.0-4.182-1.182","0f19oxync82ef5o",585,"46.csv","","null","resources/maskTrios/BBA2.jpg","null","",NA,NA,NA,NA,""
"image-keyboard-response",560,395103,"0.0-4.182-2.182","0f19oxync82ef5o",585,"46.csv","","null","resources/images/fishbone.png","null","",NA,NA,NA,NA,""
"image-keyboard-response",561,395383,"0.0-4.183-0.183","0f19oxync82ef5o",585,"46.csv","","279","resources/trios/L4T4A2.jpg","38","restless",0.8,0.4,0.4,0.525723344840087,"false"
"image-keyboard-response",562,395785,"0.0-4.183-1.183","0f19oxync82ef5o",585,"46.csv","","null","resources/maskTrios/BT4B.jpg","null","",NA,NA,NA,NA,""
"image-keyboard-response",563,396997,"0.0-4.183-2.183","0f19oxync82ef5o",585,"46.csv","","null","resources/images/fishbone.png","null","",NA,NA,NA,NA,""
"image-keyboard-response",564,397207,"0.0-4.184-0.184","0f19oxync82ef5o",585,"46.csv","","210","resources/trios/L4T4A2.jpg","37","restless",0.7,0.3,0.4,0.903947216995829,"false"
"image-keyboard-response",565,397615,"0.0-4.184-1.184","0f19oxync82ef5o",585,"46.csv","","null","resources/maskTrios/L4BB.jpg","null","",NA,NA,NA,NA,""
"image-keyboard-response",566,398828,"0.0-4.184-2.184","0f19oxync82ef5o",585,"46.csv","","null","resources/images/fishbone.png","null","",NA,NA,NA,NA,""
"image-keyboard-response",567,399343,"0.0-4.185-0.185","0f19oxync82ef5o",585,"46.csv","","514","resources/trios/L4T4A2.jpg","38","restless",0.7,0.3,0.4,0.046425602458312,"true"
"image-keyboard-response",568,399745,"0.0-4.185-1.185","0f19oxync82ef5o",585,"46.csv","","null","resources/maskTrios/BT4B.jpg","null","",NA,NA,NA,NA,""
"image-keyboard-response",569,400954,"0.0-4.185-2.185","0f19oxync82ef5o",585,"46.csv","","null","resources/images/coin2.png","null","",NA,NA,NA,NA,""
"image-keyboard-response",570,401274,"0.0-4.186-0.186","0f19oxync82ef5o",585,"46.csv","","317","resources/trios/L4T4A2.jpg","38","restless",0.7,0.3,0.4,0.59849085111907,"false"
"image-keyboard-response",571,401684,"0.0-4.186-1.186","0f19oxync82ef5o",585,"46.csv","","null","resources/maskTrios/BT4B.jpg","null","",NA,NA,NA,NA,""
"image-keyboard-response",572,402896,"0.0-4.186-2.186","0f19oxync82ef5o",585,"46.csv","","null","resources/images/fishbone.png","null","",NA,NA,NA,NA,""
"image-keyboard-response",573,403223,"0.0-4.187-0.187","0f19oxync82ef5o",585,"46.csv","","325","resources/trios/L4T4A2.jpg","39","restless",0.6,0.3,0.4,0.577907155844911,"false"
"image-keyboard-response",574,403628,"0.0-4.187-1.187","0f19oxync82ef5o",585,"46.csv","","null","resources/maskTrios/BBA2.jpg","null","",NA,NA,NA,NA,""
"image-keyboard-response",575,404838,"0.0-4.187-2.187","0f19oxync82ef5o",585,"46.csv","","null","resources/images/fishbone.png","null","",NA,NA,NA,NA,""
"image-keyboard-response",576,404859,"0.0-4.188-0.188","0f19oxync82ef5o",585,"46.csv","","20","resources/trios/L4T4A2.jpg","37","restless",0.6,0.3,0.4,0.221422622473012,"true"
"image-keyboard-response",577,405272,"0.0-4.188-1.188","0f19oxync82ef5o",585,"46.csv","","null","resources/maskTrios/L4BB.jpg","null","",NA,NA,NA,NA,""
"image-keyboard-response",578,406482,"0.0-4.188-2.188","0f19oxync82ef5o",585,"46.csv","","null","resources/images/coin2.png","null","",NA,NA,NA,NA,""
"image-keyboard-response",579,406754,"0.0-4.189-0.189","0f19oxync82ef5o",585,"46.csv","","270","resources/trios/L4T4A2.jpg","37","restless",0.6,0.3,0.4,0.158834899495558,"true"
"image-keyboard-response",580,407164,"0.0-4.189-1.189","0f19oxync82ef5o",585,"46.csv","","null","resources/maskTrios/L4BB.jpg","null","",NA,NA,NA,NA,""
"image-keyboard-response",581,408375,"0.0-4.189-2.189","0f19oxync82ef5o",585,"46.csv","","null","resources/images/coin2.png","null","",NA,NA,NA,NA,""
"image-keyboard-response",582,408645,"0.0-4.190-0.190","0f19oxync82ef5o",585,"46.csv","","269","resources/trios/L4T4A2.jpg","37","restless",0.6,0.3,0.4,0.943086952594927,"false"
"image-keyboard-response",583,409061,"0.0-4.190-1.190","0f19oxync82ef5o",585,"46.csv","","null","resources/maskTrios/L4BB.jpg","null","",NA,NA,NA,NA,""
"image-keyboard-response",584,410265,"0.0-4.190-2.190","0f19oxync82ef5o",585,"46.csv","","null","resources/images/fishbone.png","null","",NA,NA,NA,NA,""
"image-keyboard-response",585,410464,"0.0-4.191-0.191","0f19oxync82ef5o",585,"46.csv","","199","resources/trios/L4T4A2.jpg","38","restless",0.6,0.3,0.4,0.694227440248021,"false"
"image-keyboard-response",586,410879,"0.0-4.191-1.191","0f19oxync82ef5o",585,"46.csv","","null","resources/maskTrios/BT4B.jpg","null","",NA,NA,NA,NA,""
"image-keyboard-response",587,412090,"0.0-4.191-2.191","0f19oxync82ef5o",585,"46.csv","","null","resources/images/fishbone.png","null","",NA,NA,NA,NA,""
"image-keyboard-response",588,412323,"0.0-4.192-0.192","0f19oxync82ef5o",585,"46.csv","","233","resources/trios/L4T4A2.jpg","39","restless",0.6,0.3,0.4,0.422116141071321,"false"
"image-keyboard-response",589,412729,"0.0-4.192-1.192","0f19oxync82ef5o",585,"46.csv","","null","resources/maskTrios/BBA2.jpg","null","",NA,NA,NA,NA,""
"image-keyboard-response",590,413942,"0.0-4.192-2.192","0f19oxync82ef5o",585,"46.csv","","null","resources/images/fishbone.png","null","",NA,NA,NA,NA,""
"image-keyboard-response",591,414030,"0.0-4.193-0.193","0f19oxync82ef5o",585,"46.csv","","87","resources/trios/L4T4A2.jpg","38","restless",0.6,0.2,0.4,0.216698220978656,"false"
"image-keyboard-response",592,414438,"0.0-4.193-1.193","0f19oxync82ef5o",585,"46.csv","","null","resources/maskTrios/BT4B.jpg","null","",NA,NA,NA,NA,""
"image-keyboard-response",593,415651,"0.0-4.193-2.193","0f19oxync82ef5o",585,"46.csv","","null","resources/images/fishbone.png","null","",NA,NA,NA,NA,""
"image-keyboard-response",594,415934,"0.0-4.194-0.194","0f19oxync82ef5o",585,"46.csv","","282","resources/trios/L4T4A2.jpg","37","restless",0.6,0.3,0.4,0.789808764335138,"false"
"image-keyboard-response",595,416349,"0.0-4.194-1.194","0f19oxync82ef5o",585,"46.csv","","null","resources/maskTrios/L4BB.jpg","null","",NA,NA,NA,NA,""
"image-keyboard-response",596,417557,"0.0-4.194-2.194","0f19oxync82ef5o",585,"46.csv","","null","resources/images/fishbone.png","null","",NA,NA,NA,NA,""
"image-keyboard-response",597,417760,"0.0-4.195-0.195","0f19oxync82ef5o",585,"46.csv","","202","resources/trios/L4T4A2.jpg","39","restless",0.6,0.3,0.4,0.797792784948478,"false"
"image-keyboard-response",598,418163,"0.0-4.195-1.195","0f19oxync82ef5o",585,"46.csv","","null","resources/maskTrios/BBA2.jpg","null","",NA,NA,NA,NA,""
"image-keyboard-response",599,419378,"0.0-4.195-2.195","0f19oxync82ef5o",585,"46.csv","","null","resources/images/fishbone.png","null","",NA,NA,NA,NA,""
"image-keyboard-response",600,419614,"0.0-4.196-0.196","0f19oxync82ef5o",585,"46.csv","","234","resources/trios/L4T4A2.jpg","38","restless",0.5,0.3,0.4,0.188771861847898,"true"
"image-keyboard-response",601,420027,"0.0-4.196-1.196","0f19oxync82ef5o",585,"46.csv","","null","resources/maskTrios/BT4B.jpg","null","",NA,NA,NA,NA,""
"image-keyboard-response",602,421237,"0.0-4.196-2.196","0f19oxync82ef5o",585,"46.csv","","null","resources/images/coin2.png","null","",NA,NA,NA,NA,""
"image-keyboard-response",603,421532,"0.0-4.197-0.197","0f19oxync82ef5o",585,"46.csv","","296","resources/trios/L4T4A2.jpg","38","restless",0.4,0.3,0.4,0.0463393597756077,"true"
"image-keyboard-response",604,421936,"0.0-4.197-1.197","0f19oxync82ef5o",585,"46.csv","","null","resources/maskTrios/BT4B.jpg","null","",NA,NA,NA,NA,""
"image-keyboard-response",605,423147,"0.0-4.197-2.197","0f19oxync82ef5o",585,"46.csv","","null","resources/images/coin2.png","null","",NA,NA,NA,NA,""
"image-keyboard-response",606,423479,"0.0-4.198-0.198","0f19oxync82ef5o",585,"46.csv","","331","resources/trios/L4T4A2.jpg","38","restless",0.4,0.3,0.4,0.845018099487382,"false"
"image-keyboard-response",607,423891,"0.0-4.198-1.198","0f19oxync82ef5o",585,"46.csv","","null","resources/maskTrios/BT4B.jpg","null","",NA,NA,NA,NA,""
"image-keyboard-response",608,425105,"0.0-4.198-2.198","0f19oxync82ef5o",585,"46.csv","","null","resources/images/fishbone.png","null","",NA,NA,NA,NA,""
"image-keyboard-response",609,425386,"0.0-4.199-0.199","0f19oxync82ef5o",585,"46.csv","","280","resources/trios/L4T4A2.jpg","38","restless",0.4,0.3,0.5,0.812677319220874,"false"
"image-keyboard-response",610,425804,"0.0-4.199-1.199","0f19oxync82ef5o",585,"46.csv","","null","resources/maskTrios/BT4B.jpg","null","",NA,NA,NA,NA,""
"image-keyboard-response",611,427012,"0.0-4.199-2.199","0f19oxync82ef5o",585,"46.csv","","null","resources/images/fishbone.png","null","",NA,NA,NA,NA,""
"survey-text",612,495806,"0.0-5.0","0f19oxync82ef5o",585,"46.csv","","68775","","","",NA,NA,NA,NA,""
